// General information: 
//  MT Manager version: 2021.0.0 
//  XDA version: 2021.0.0 build 5908 rev 109668 built on 2021-04-19
// Device information: 
//  DeviceId: 00B43DF6
//  ProductCode: MTW2-3A7G6
//  Firmware Version: 4.3.5
//  Hardware Version: 1.1.0
// Device settings: 
//  Filter Profile: human(46.1)
//  Option Flags: Orientation Smoother Disabled, Position/Velocity Smoother Disabled, Continuous Zero Rotation Update Disabled, AHS Disabled, ICC Disabled
// Coordinate system: ENU
PacketCounter	Acc_X	Acc_Y	Acc_Z	FreeAcc_E	FreeAcc_N	FreeAcc_U	Quat_q0	Quat_q1	Quat_q2	Quat_q3
07551	-0.051744	0.095556	9.807804	0.001322	0.007397	-0.004284	0.999995	-0.000655	-0.000452	-0.002912
07552	-0.032768	0.108179	9.797434	0.020364	0.019871	-0.014643	0.999995	-0.000640	-0.000445	-0.002924
07553	-0.033784	0.102447	9.810591	0.019413	0.013913	-0.001532	0.999995	-0.000645	-0.000447	-0.002905
07554	-0.040968	0.120804	9.819209	0.012525	0.032253	0.007289	0.999995	-0.000641	-0.000430	-0.002900
07555	-0.055801	0.091736	9.820925	-0.002245	0.003199	0.008824	0.999996	-0.000639	-0.000424	-0.002897
07556	-0.049994	0.097540	9.839804	0.003739	0.008812	0.027722	0.999996	-0.000641	-0.000427	-0.002898
07557	-0.037692	0.104741	9.810553	0.015898	0.016261	-0.001530	0.999996	-0.000645	-0.000425	-0.002874
07558	-0.038595	0.105512	9.810541	0.015014	0.016845	-0.001529	0.999996	-0.000622	-0.000426	-0.002891
07559	-0.046442	0.087978	9.817982	0.007158	-0.000663	0.005796	0.999996	-0.000651	-0.000421	-0.002898
07560	-0.040484	0.100067	9.823694	0.013181	0.011449	0.011584	0.999996	-0.000634	-0.000429	-0.002898
07561	-0.035072	0.089509	9.801895	0.018376	0.000805	-0.010338	0.999996	-0.000624	-0.000425	-0.002896
07562	-0.036095	0.083743	9.815057	0.017427	-0.005148	0.002776	0.999995	-0.000627	-0.000425	-0.002906
07563	-0.043843	0.072662	9.809330	0.009659	-0.016102	-0.003009	0.999995	-0.000626	-0.000418	-0.002905
07564	-0.050323	0.120539	9.832261	0.003701	0.031575	0.020390	0.999996	-0.000624	-0.000413	-0.002894
07565	-0.025860	0.085698	9.798969	0.027830	-0.003060	-0.013350	0.999996	-0.000631	-0.000412	-0.002886
07566	-0.059776	0.080484	9.812192	-0.005869	-0.008124	0.000011	0.999996	-0.000632	-0.000396	-0.002897
07567	-0.028003	0.093198	9.785780	0.026158	0.004619	-0.026460	0.999996	-0.000628	-0.000379	-0.002893
07568	-0.028933	0.087414	9.798945	0.025199	-0.001315	-0.013342	0.999995	-0.000628	-0.000402	-0.002909
07569	-0.036142	0.093039	9.833888	0.018146	0.003995	0.021689	0.999996	-0.000624	-0.000386	-0.002904
07570	-0.050186	0.099812	9.836759	0.004332	0.010809	0.024700	0.999996	-0.000626	-0.000384	-0.002909
07571	-0.025101	0.094453	9.817814	0.029379	0.005470	0.005567	0.999996	-0.000625	-0.000377	-0.002906
07572	-0.025854	0.101455	9.804631	0.028594	0.012554	-0.007547	0.999996	-0.000622	-0.000384	-0.002894
07573	-0.046001	0.119555	9.829271	0.008720	0.030599	0.017367	0.999996	-0.000629	-0.000374	-0.002890
07574	-0.040876	0.102515	9.820663	0.013836	0.013425	0.008577	0.999996	-0.000603	-0.000368	-0.002895
07575	-0.035789	0.085303	9.812060	0.018956	-0.003758	-0.000210	0.999996	-0.000628	-0.000356	-0.002890
07576	-0.049601	0.091864	9.814925	0.005149	0.003053	0.002791	0.999996	-0.000623	-0.000373	-0.002893
07577	-0.037483	0.086334	9.812045	0.017174	-0.002591	-0.000207	0.999996	-0.000621	-0.000361	-0.002893
07578	-0.044474	0.111063	9.807447	0.010389	0.022279	-0.004542	0.999996	-0.000629	-0.000365	-0.002882
07579	-0.025741	0.110562	9.823467	0.029254	0.021661	0.011368	0.999996	-0.000636	-0.000356	-0.002878
07580	-0.033543	0.093019	9.830918	0.021375	0.004187	0.018704	0.999996	-0.000637	-0.000366	-0.002874
07581	-0.047783	0.083042	9.793116	0.006890	-0.005296	-0.019107	0.999996	-0.000643	-0.000354	-0.002865
07582	-0.061269	0.112803	9.823448	-0.006094	0.024334	0.011567	0.999996	-0.000644	-0.000350	-0.002869
07583	-0.036225	0.107613	9.804532	0.018981	0.018957	-0.007534	0.999996	-0.000622	-0.000337	-0.002865
07584	-0.024314	0.095921	9.814840	0.030914	0.006772	0.002600	0.999996	-0.000611	-0.000346	-0.002853
07585	-0.037862	0.109136	9.804509	0.017231	0.020092	-0.007533	0.999996	-0.000614	-0.000353	-0.002859
07586	-0.045758	0.085272	9.825142	0.009244	-0.003904	0.012926	0.999996	-0.000612	-0.000353	-0.002852
07587	-0.046556	0.092264	9.811952	0.008463	0.003199	-0.000195	0.999996	-0.000611	-0.000347	-0.002850
07588	-0.034400	0.092987	9.795908	0.020630	0.004051	-0.016300	0.999996	-0.000618	-0.000345	-0.002842
07589	-0.048487	0.093361	9.811932	0.006712	0.004370	-0.000194	0.999996	-0.000611	-0.000338	-0.002852
07590	-0.036548	0.087717	9.809072	0.018786	-0.001280	-0.003173	0.999996	-0.000623	-0.000328	-0.002866
07591	-0.050389	0.094459	9.811912	0.004984	0.005529	-0.000194	0.999996	-0.000613	-0.000338	-0.002856
07592	-0.044519	0.106662	9.817620	0.011010	0.017690	0.005591	0.999996	-0.000626	-0.000323	-0.002875
07593	-0.052410	0.095493	9.811892	0.003260	0.006718	-0.000194	0.999996	-0.000624	-0.000315	-0.002873
07594	-0.053930	0.072988	9.784417	0.001602	-0.015540	-0.027862	0.999996	-0.000625	-0.000306	-0.002880
07595	-0.028625	0.084202	9.806187	0.027312	-0.004600	-0.006136	0.999996	-0.000632	-0.000292	-0.002879
07596	-0.042174	0.113972	9.836480	0.014272	0.025052	0.024501	0.999996	-0.000633	-0.000290	-0.002883
07597	-0.049627	0.115632	9.804382	0.006738	0.027082	-0.007537	0.999996	-0.000636	-0.000284	-0.002897
07598	-0.024928	0.097354	9.811883	0.031568	0.008715	-0.000344	0.999996	-0.000644	-0.000269	-0.002899
07599	-0.045753	0.092369	9.808991	0.010845	0.004003	-0.003162	0.999996	-0.000648	-0.000268	-0.002875
07600	-0.033645	0.086719	9.806149	0.022867	-0.001640	-0.006124	0.999996	-0.000650	-0.000273	-0.002875
07601	-0.047656	0.093295	9.808973	0.009057	0.005176	-0.003160	0.999996	-0.000668	-0.000254	-0.002885
07602	-0.035597	0.093919	9.792949	0.021214	0.006033	-0.019248	0.999996	-0.000665	-0.000254	-0.002908
07603	-0.049767	0.094267	9.808953	0.007266	0.006370	-0.003159	0.999996	-0.000673	-0.000240	-0.002909
07604	-0.024417	0.105487	9.830743	0.032962	0.017329	0.018581	0.999996	-0.000674	-0.000238	-0.002912
07605	-0.045549	0.077468	9.800389	0.011476	-0.010242	-0.011899	0.999995	-0.000678	-0.000241	-0.002922
07606	-0.033162	0.095006	9.825005	0.024279	0.006947	0.012801	0.999996	-0.000670	-0.000223	-0.002900
07607	-0.047766	0.068339	9.746547	0.009246	-0.018972	-0.065807	0.999995	-0.000674	-0.000221	-0.002919
07608	-0.041790	0.094775	9.873090	0.016078	0.006420	0.060931	0.999996	-0.000682	-0.000227	-0.002908
07609	-0.048828	0.109231	9.814609	0.008847	0.021419	0.002624	0.999996	-0.000672	-0.000216	-0.002910
07610	-0.017280	0.096546	9.841059	0.040416	0.008107	0.028774	0.999995	-0.000660	-0.000232	-0.002926
07611	-0.044123	0.099336	9.792861	0.013215	0.011290	-0.019239	0.999995	-0.000652	-0.000225	-0.002934
07612	-0.045199	0.093695	9.806038	0.012194	0.005383	-0.006106	0.999995	-0.000645	-0.000231	-0.002934
07613	-0.046550	0.081644	9.832407	0.010991	-0.007002	0.020160	0.999995	-0.000641	-0.000216	-0.002929
07614	-0.020739	0.105719	9.827834	0.036949	0.016941	0.015653	0.999995	-0.000643	-0.000228	-0.002924
07615	-0.034836	0.095721	9.790008	0.022526	0.007387	-0.022178	0.999995	-0.000643	-0.000221	-0.002931
07616	-0.062232	0.095998	9.821993	-0.004476	0.007478	0.009968	0.999995	-0.000637	-0.000210	-0.002950
07617	-0.043424	0.102186	9.824893	0.014442	0.013388	0.012814	0.999995	-0.000628	-0.000213	-0.002945
07618	-0.037434	0.120739	9.817410	0.020613	0.032013	0.005463	0.999995	-0.000642	-0.000199	-0.002934
07619	-0.039323	0.085335	9.816353	0.018720	-0.003232	0.004097	0.999995	-0.000641	-0.000192	-0.002933
07620	-0.046611	0.097462	9.838055	0.011666	0.008672	0.025950	0.999995	-0.000636	-0.000195	-0.002944
07621	-0.034344	0.098170	9.822054	0.023831	0.009491	0.009884	0.999995	-0.000645	-0.000192	-0.002946
07622	-0.041817	0.093252	9.803136	0.016196	0.005004	-0.009033	0.999995	-0.000657	-0.000198	-0.002952
07623	-0.048860	0.105252	9.824835	0.009108	0.016901	0.012815	0.999995	-0.000651	-0.000216	-0.002953
07624	-0.030460	0.081876	9.813518	0.027185	-0.006567	0.001179	0.999995	-0.000648	-0.000212	-0.002940
07625	-0.057273	0.101172	9.805901	0.000593	0.013011	-0.006106	0.999995	-0.000656	-0.000199	-0.002941
07626	-0.045151	0.101830	9.789905	0.012778	0.013847	-0.022167	0.999995	-0.000658	-0.000197	-0.002947
07627	-0.033321	0.089896	9.800299	0.024649	0.001682	-0.011950	0.999995	-0.000652	-0.000194	-0.002960
07628	-0.027269	0.108530	9.792813	0.030793	0.020297	-0.019304	0.999995	-0.000652	-0.000193	-0.002963
07629	-0.048534	0.091074	9.816261	0.009744	0.002636	0.004111	0.999995	-0.000639	-0.000176	-0.002953
07630	-0.036368	0.091899	9.800270	0.021941	0.003448	-0.011944	0.999995	-0.000644	-0.000181	-0.002970
07631	-0.024077	0.103114	9.838089	0.034487	0.014214	0.025901	0.999995	-0.000635	-0.000179	-0.002968
07632	-0.045089	0.081755	9.794530	0.013250	-0.006927	-0.017723	0.999995	-0.000614	-0.000166	-0.002965
07633	-0.033108	0.093040	9.832349	0.025800	0.003824	0.020123	0.999995	-0.000623	-0.000150	-0.002976
07634	-0.040932	0.081931	9.826622	0.017988	-0.007155	0.014343	0.999995	-0.000617	-0.000154	-0.002985
07635	-0.027774	0.118585	9.811653	0.031228	0.029496	-0.000373	0.999995	-0.000616	-0.000156	-0.002979
07636	-0.049068	0.084319	9.794490	0.009629	-0.004621	-0.017718	0.999995	-0.000605	-0.000153	-0.002975
07637	-0.043528	0.083937	9.826594	0.015274	-0.005407	0.014349	0.999995	-0.000607	-0.000165	-0.002970
07638	-0.044126	0.090912	9.813386	0.014555	0.001640	0.001208	0.999995	-0.000601	-0.000162	-0.002985
07639	-0.045285	0.085148	9.826576	0.013491	-0.004241	0.014352	0.999995	-0.000606	-0.000160	-0.003006
07640	-0.039612	0.097258	9.832284	0.019482	0.007900	0.020135	0.999995	-0.000613	-0.000140	-0.003010
07641	-0.020595	0.109637	9.822026	0.038537	0.020265	0.009876	0.999995	-0.000606	-0.000155	-0.003006
07642	-0.034581	0.110143	9.837981	0.024554	0.020653	0.025919	0.999995	-0.000607	-0.000153	-0.003010
07643	-0.042737	0.075821	9.804858	0.016071	-0.013237	-0.007465	0.999995	-0.000615	-0.000146	-0.003006
07644	-0.056430	0.088975	9.794409	0.002422	0.000064	-0.017712	0.999995	-0.000604	-0.000150	-0.002999
07645	-0.030988	0.100206	9.816276	0.028025	0.011052	0.004102	0.999995	-0.000625	-0.000149	-0.003007
07646	-0.038563	0.105684	9.851148	0.020711	0.016552	0.039067	0.999995	-0.000634	-0.000149	-0.003000
07647	-0.006888	0.088633	9.810748	0.052066	-0.000277	-0.001674	0.999995	-0.000630	-0.000147	-0.002987
07648	-0.053497	0.096272	9.813288	0.005510	0.007533	0.001215	0.999995	-0.000625	-0.000150	-0.002998
07649	-0.048570	0.072610	9.818010	0.010460	-0.016157	0.005692	0.999995	-0.000635	-0.000133	-0.003009
07650	-0.042838	0.084763	9.823718	0.016462	-0.004002	0.011476	0.999995	-0.000634	-0.000134	-0.003003
07651	-0.043544	0.091707	9.810506	0.015745	0.003036	-0.001670	0.999995	-0.000632	-0.000129	-0.002999
07652	-0.057201	0.104904	9.800040	0.002091	0.016340	-0.011933	0.999995	-0.000627	-0.000134	-0.003009
07653	-0.045358	0.092896	9.810486	0.013908	0.004200	-0.001667	0.999995	-0.000636	-0.000131	-0.003011
07654	-0.026546	0.098816	9.813450	0.032832	0.010096	0.001236	0.999995	-0.000638	-0.000129	-0.003016
07655	-0.040465	0.105631	9.816184	0.019008	0.016951	0.004116	0.999995	-0.000634	-0.000127	-0.003003
07656	-0.041534	0.100006	9.829378	0.017893	0.011096	0.017265	0.999995	-0.000625	-0.000138	-0.002993
07657	-0.055364	0.106868	9.832108	0.004091	0.017958	0.020140	0.999995	-0.000629	-0.000132	-0.003008
07658	-0.036946	0.089684	9.807697	0.022367	0.000892	-0.004537	0.999995	-0.000627	-0.000126	-0.003005
07659	-0.050619	0.102835	9.797218	0.008753	0.014187	-0.014813	0.999995	-0.000625	-0.000128	-0.002997
07660	-0.019075	0.096206	9.810661	0.040397	0.007364	-0.001622	0.999995	-0.000638	-0.000120	-0.003012
07661	-0.033145	0.102940	9.813387	0.026565	0.014216	0.001249	0.999995	-0.000632	-0.000108	-0.002995
07662	-0.034452	0.080327	9.786005	0.025030	-0.008132	-0.026328	0.999995	-0.000638	-0.000114	-0.003013
07663	-0.048058	0.104206	9.829305	0.011657	0.015227	0.017269	0.999995	-0.000611	-0.000127	-0.003005
07664	-0.035794	0.098831	9.826564	0.023686	0.009537	0.014405	0.999995	-0.000612	-0.000132	-0.003004
07665	-0.023478	0.099398	9.810620	0.035922	0.010313	-0.001607	0.999995	-0.000624	-0.000125	-0.003018
07666	-0.050745	0.105961	9.829273	0.008945	0.016989	0.017269	0.999995	-0.000625	-0.000117	-0.003025
07667	-0.052367	0.077015	9.815104	0.007194	-0.011826	0.002849	0.999995	-0.000623	-0.000112	-0.003022
07668	-0.026892	0.094718	9.823804	0.033021	0.005608	0.011553	0.999995	-0.000621	-0.000099	-0.003023
07669	-0.027575	0.101456	9.810588	0.032350	0.012615	-0.001598	0.999995	-0.000639	-0.000106	-0.003015
07670	-0.054650	0.091181	9.788657	0.004975	0.002797	-0.023455	0.999995	-0.000629	-0.000109	-0.003010
07671	-0.068977	0.085420	9.817785	-0.009284	-0.003241	0.005706	0.999995	-0.000630	-0.000114	-0.003008
07672	-0.030169	0.103076	9.810563	0.029640	0.014368	-0.001591	0.999995	-0.000641	-0.000102	-0.003025
07673	-0.044335	0.103429	9.826481	0.015603	0.014767	0.014415	0.999995	-0.000641	-0.000113	-0.003019
07674	-0.064938	0.098576	9.823468	-0.005124	0.010066	0.011484	0.999995	-0.000640	-0.000109	-0.003016
07675	-0.039600	0.092974	9.804822	0.020042	0.004525	-0.007366	0.999995	-0.000647	-0.000115	-0.003002
07676	-0.040764	0.087172	9.818025	0.018929	-0.001327	0.005791	0.999995	-0.000646	-0.000109	-0.002999
07677	-0.054225	0.106554	9.794301	0.005535	0.018424	-0.017676	0.999995	-0.000654	-0.000104	-0.002996
07678	-0.022857	0.093862	9.821015	0.036935	0.005147	0.008732	0.999995	-0.000631	-0.000117	-0.003005
07679	-0.049855	0.100683	9.839631	0.009940	0.011859	0.027573	0.999995	-0.000643	-0.000118	-0.003014
07680	-0.037523	0.101276	9.823704	0.022210	0.012609	0.011577	0.999995	-0.000640	-0.000115	-0.003001
07681	-0.044658	0.102876	9.791551	0.014857	0.014510	-0.020517	0.999995	-0.000639	-0.000119	-0.002994
07682	-0.052990	0.079125	9.812253	0.006644	-0.009337	0.000021	0.999995	-0.000644	-0.000105	-0.002985
07683	-0.027519	0.096825	9.820975	0.032416	0.008103	0.008746	0.999995	-0.000636	-0.000100	-0.002993
07684	-0.060733	0.110832	9.794215	-0.000735	0.022557	-0.017683	0.999995	-0.000644	-0.000093	-0.002990
07685	-0.042415	0.104049	9.823655	0.017679	0.015587	0.011582	0.999995	-0.000655	-0.000103	-0.002985
07686	-0.043787	0.075216	9.809518	0.015957	-0.013255	-0.002805	0.999995	-0.000631	-0.000104	-0.003002
07687	-0.031359	0.099101	9.820941	0.028829	0.010474	0.008755	0.999995	-0.000656	-0.000079	-0.003005
07688	-0.039111	0.087834	9.815217	0.021035	-0.000501	0.002978	0.999995	-0.000651	-0.000097	-0.003008
07689	-0.052913	0.094732	9.817897	0.007206	0.006399	0.005805	0.999995	-0.000649	-0.000088	-0.003001
07690	-0.034365	0.094546	9.834131	0.025853	0.005835	0.021922	0.999995	-0.000641	-0.000096	-0.003000
07691	-0.041463	0.096087	9.801972	0.018542	0.007732	-0.010178	0.999995	-0.000650	-0.000090	-0.002997
07692	-0.055937	0.090286	9.831082	0.004214	0.001758	0.018967	0.999995	-0.000642	-0.000097	-0.002998
07693	-0.023794	0.096312	9.818203	0.036297	0.007786	0.005947	0.999995	-0.000657	-0.000092	-0.002984
07694	-0.051262	0.079763	9.809446	0.008686	-0.008472	-0.002790	0.999995	-0.000647	-0.000096	-0.002978
07695	-0.032022	0.092166	9.799253	0.027858	0.003818	-0.012989	0.999995	-0.000648	-0.000101	-0.002977
07696	-0.026526	0.097979	9.818180	0.033591	0.009562	0.005955	0.999995	-0.000661	-0.000087	-0.002995
07697	-0.041093	0.075094	9.806742	0.018936	-0.012987	-0.005599	0.999995	-0.000664	-0.000089	-0.003006
07698	-0.034893	0.093687	9.799229	0.025178	0.005583	-0.012982	0.999995	-0.000656	-0.000089	-0.003010
07699	-0.041913	0.112209	9.807609	0.018229	0.024008	-0.004393	0.999995	-0.000658	-0.000098	-0.003014
07700	-0.036907	0.088554	9.812432	0.023128	0.000296	0.000186	0.999995	-0.000657	-0.000089	-0.003020
07701	-0.018167	0.094461	9.815468	0.042033	0.006172	0.003160	0.999995	-0.000668	-0.000086	-0.003024
07702	-0.051686	0.102048	9.801863	0.008646	0.014183	-0.010171	0.999995	-0.000668	-0.000072	-0.003035
07703	-0.046539	0.101741	9.834009	0.014079	0.013516	0.021938	0.999995	-0.000663	-0.000077	-0.003046
07704	-0.027959	0.084407	9.809731	0.032427	-0.003624	-0.002607	0.999995	-0.000677	-0.000070	-0.003031
07705	-0.055203	0.074135	9.787735	0.005121	-0.013456	-0.024527	0.999995	-0.000670	-0.000063	-0.003041
07706	-0.042836	0.091727	9.812378	0.017710	0.003830	0.000197	0.999995	-0.000679	-0.000073	-0.003034
07707	-0.055746	0.134386	9.815900	0.004976	0.046559	0.004179	0.999995	-0.000671	-0.000074	-0.003038
07708	-0.038090	0.081336	9.790762	0.022174	-0.006420	-0.021541	0.999995	-0.000673	-0.000069	-0.003046
07709	-0.032053	0.116919	9.823779	0.028718	0.028762	0.011756	0.999995	-0.000665	-0.000069	-0.003051
07710	-0.039883	0.105991	9.818052	0.020936	0.017771	0.005979	0.999995	-0.000657	-0.000053	-0.003028
07711	-0.048367	0.082350	9.838773	0.012596	-0.006024	0.026539	0.999995	-0.000663	-0.000052	-0.003049
07712	-0.036176	0.082864	9.822888	0.024878	-0.005321	0.010583	0.999995	-0.000670	-0.000033	-0.003053
07713	-0.036367	0.119333	9.823735	0.025062	0.031104	0.011758	0.999995	-0.000659	-0.000037	-0.003046
07714	-0.043987	0.108318	9.818009	0.017279	0.020129	0.005981	0.999995	-0.000663	-0.000040	-0.003056
07715	-0.045049	0.085581	9.790696	0.015822	-0.002309	-0.021527	0.999995	-0.000664	-0.000046	-0.003056
07716	-0.051737	0.110338	9.785823	0.009122	0.022568	-0.026136	0.999995	-0.000666	-0.000052	-0.003056
07717	-0.053297	0.098345	9.812263	0.007637	0.010362	0.000205	0.999995	-0.000666	-0.000048	-0.003054
07718	-0.041660	0.086296	9.822836	0.019352	-0.001726	0.010597	0.999995	-0.000678	-0.000043	-0.003068
07719	-0.041864	0.099434	9.796375	0.019055	0.011674	-0.015744	0.999995	-0.000669	-0.000052	-0.003059
07720	-0.043191	0.087357	9.822820	0.017575	-0.000572	0.010601	0.999995	-0.000686	-0.000066	-0.003046
07721	-0.030348	0.094097	9.793721	0.030183	0.006499	-0.018516	0.999995	-0.000684	-0.000061	-0.003042
07722	-0.037786	0.106199	9.815292	0.022916	0.018566	0.003208	0.999995	-0.000696	-0.000069	-0.003047
07723	-0.032019	0.095029	9.793706	0.028348	0.007694	-0.018512	0.999995	-0.000698	-0.000075	-0.003047
07724	-0.046245	0.095575	9.809560	0.014222	0.008182	-0.002567	0.999995	-0.000696	-0.000070	-0.003044
07725	-0.046847	0.102272	9.796323	0.013593	0.015171	-0.015740	0.999995	-0.000715	-0.000073	-0.003041
07726	-0.028701	0.095650	9.825854	0.031910	0.008230	0.013619	0.999995	-0.000702	-0.000069	-0.003068
07727	-0.042780	0.102637	9.828473	0.018097	0.015139	0.016386	0.999995	-0.000700	-0.000052	-0.003064
07728	-0.044029	0.079775	9.801176	0.016678	-0.007337	-0.011104	0.999995	-0.000718	-0.000054	-0.003061
07729	-0.037922	0.098136	9.793655	0.022926	0.011229	-0.018501	0.999995	-0.000717	-0.000043	-0.003062
07730	-0.032459	0.104043	9.812591	0.028593	0.016981	0.000452	0.999995	-0.000724	-0.000050	-0.003049
07731	-0.033450	0.081238	9.785299	0.027137	-0.005457	-0.027033	0.999995	-0.000726	-0.000057	-0.003050
07732	-0.034409	0.098868	9.825804	0.026433	0.011807	0.013631	0.999995	-0.000723	-0.000062	-0.003033
07733	-0.047864	0.094995	9.774672	0.012687	0.008408	-0.037449	0.999995	-0.000721	-0.000052	-0.003032
07734	-0.030636	0.076000	9.830681	0.030337	-0.011300	0.018282	0.999995	-0.000711	-0.000043	-0.003034
07735	-0.037048	0.107249	9.812540	0.023978	0.019945	0.000459	0.999995	-0.000701	-0.000054	-0.003023
07736	-0.044486	0.096143	9.806817	0.016200	0.008951	-0.005316	0.999995	-0.000713	-0.000068	-0.003023
07737	-0.038527	0.108416	9.812521	0.022195	0.021112	0.000461	0.999995	-0.000698	-0.000063	-0.003004
07738	-0.032884	0.097568	9.790950	0.027692	0.010203	-0.021240	0.999995	-0.000690	-0.000062	-0.003009
07739	-0.040447	0.109910	9.812497	0.020438	0.022283	0.000462	0.999995	-0.000687	-0.000052	-0.003000
07740	-0.035231	0.092596	9.804164	0.025620	0.004984	-0.008058	0.999995	-0.000687	-0.000050	-0.003004
07741	-0.055825	0.087791	9.801048	0.004938	0.000303	-0.011089	0.999995	-0.000684	-0.000056	-0.003022
07742	-0.030502	0.099147	9.823095	0.030379	0.011381	0.010901	0.999995	-0.000693	-0.000057	-0.003016
07743	-0.031453	0.099821	9.823085	0.029452	0.011990	0.010904	0.999995	-0.000677	-0.000054	-0.003027
07744	-0.051772	0.101241	9.806730	0.009066	0.013698	-0.005312	0.999995	-0.000696	-0.000055	-0.003024
07745	-0.039742	0.095507	9.804119	0.021052	0.007994	-0.008049	0.999995	-0.000684	-0.000051	-0.003016
07746	-0.034302	0.101624	9.823057	0.026689	0.013775	0.010909	0.999995	-0.000683	-0.000053	-0.003009
07747	-0.029270	0.078105	9.827973	0.031544	-0.009908	0.015584	0.999995	-0.000675	-0.000059	-0.003009
07748	-0.036155	0.079722	9.795778	0.024452	-0.008138	-0.016552	0.999995	-0.000665	-0.000055	-0.003008
07749	-0.063108	0.092891	9.800957	-0.002292	0.005072	-0.011089	0.999995	-0.000668	-0.000049	-0.003022
07750	-0.031286	0.115862	9.828729	0.030041	0.027697	0.016689	0.999995	-0.000675	-0.000034	-0.003023
07751	-0.038672	0.111021	9.809769	0.022625	0.023084	-0.002267	0.999995	-0.000669	-0.000037	-0.003034
07752	-0.027285	0.093084	9.833643	0.034010	0.004601	0.021374	0.999995	-0.000648	-0.000038	-0.003023
07753	-0.053377	0.118732	9.812332	0.007936	0.030570	0.000458	0.999995	-0.000666	-0.000038	-0.003021
07754	-0.054618	0.112780	9.825562	0.006690	0.024783	0.013641	0.999995	-0.000676	-0.000042	-0.003019
07755	-0.035898	0.095260	9.801433	0.025112	0.007557	-0.010761	0.999995	-0.000685	-0.000042	-0.003013
07756	-0.036735	0.095845	9.801424	0.024193	0.008168	-0.010759	0.999995	-0.000678	-0.000050	-0.003014
07757	-0.024529	0.090232	9.798833	0.036220	0.002445	-0.013475	0.999995	-0.000679	-0.000056	-0.003014
07758	-0.031959	0.102580	9.820357	0.028878	0.014576	0.008204	0.999995	-0.000670	-0.000061	-0.003009
07759	-0.039152	0.097836	9.801395	0.021443	0.009949	-0.010755	0.999995	-0.000671	-0.000067	-0.003007
07760	-0.054269	0.085666	9.843685	0.006540	-0.002243	0.031518	0.999995	-0.000696	-0.000057	-0.003002
07761	-0.034717	0.104018	9.820332	0.026127	0.016370	0.008209	0.999995	-0.000688	-0.000061	-0.002997
07762	-0.035882	0.098350	9.833564	0.024856	0.010600	0.021397	0.999995	-0.000698	-0.000072	-0.002992
07763	-0.042639	0.123042	9.828599	0.018214	0.035455	0.016694	0.999995	-0.000696	-0.000062	-0.002993
07764	-0.037457	0.105760	9.820303	0.023374	0.018123	0.008213	0.999995	-0.000689	-0.000059	-0.003006
07765	-0.045243	0.094829	9.814579	0.015590	0.007126	0.002439	0.999995	-0.000679	-0.000051	-0.003007
07766	-0.046646	0.089190	9.827811	0.014334	0.001349	0.015629	0.999995	-0.000686	-0.000050	-0.002999
07767	-0.053661	0.107588	9.836081	0.007350	0.019858	0.024106	0.999995	-0.000692	-0.000063	-0.003013
07768	-0.034336	0.096572	9.798743	0.026166	0.008942	-0.013447	0.999995	-0.000675	-0.000073	-0.003013
07769	-0.048567	0.097202	9.814540	0.011948	0.009492	0.002443	0.999995	-0.000689	-0.000071	-0.003033
07770	-0.036459	0.091372	9.811970	0.023994	0.003759	-0.000254	0.999995	-0.000690	-0.000076	-0.003032
07771	-0.037206	0.092002	9.811962	0.023077	0.004376	-0.000252	0.999995	-0.000686	-0.000087	-0.003041
07772	-0.038018	0.092632	9.811952	0.022187	0.004982	-0.000250	0.999995	-0.000688	-0.000085	-0.003046
07773	-0.052031	0.099426	9.814500	0.008335	0.011913	0.002444	0.999995	-0.000694	-0.000075	-0.003037
07774	-0.026149	0.123337	9.810111	0.034472	0.035676	-0.001891	0.999995	-0.000687	-0.000073	-0.003051
07775	-0.028021	0.088067	9.809371	0.032432	0.000416	-0.002935	0.999995	-0.000692	-0.000071	-0.003072
07776	-0.042064	0.094841	9.811915	0.018575	0.007353	-0.000244	0.999995	-0.000696	-0.000057	-0.003056
07777	-0.055914	0.101848	9.814454	0.004741	0.014268	0.002443	0.999995	-0.000678	-0.000076	-0.003043
07778	-0.024351	0.072198	9.801085	0.035766	-0.015700	-0.011384	0.999995	-0.000670	-0.000084	-0.003043
07779	-0.051593	0.079156	9.819419	0.008606	-0.008786	0.007179	0.999995	-0.000672	-0.000084	-0.003048
07780	-0.019284	0.108390	9.833996	0.041227	0.020221	0.021818	0.999995	-0.000682	-0.000080	-0.003051
07781	-0.052839	0.092685	9.792905	0.007545	0.005092	-0.019206	0.999995	-0.000673	-0.000061	-0.003067
07782	-0.048328	0.086370	9.838346	0.012376	-0.001801	0.026149	0.999995	-0.000667	-0.000072	-0.003073
07783	-0.048225	0.099407	9.811841	0.012215	0.011492	-0.000238	0.999995	-0.000675	-0.000079	-0.003061
07784	-0.016459	0.098930	9.812465	0.044051	0.010990	0.000185	0.999995	-0.000686	-0.000066	-0.003078
07785	-0.037662	0.087884	9.822533	0.022966	0.000001	0.010284	0.999995	-0.000675	-0.000066	-0.003067
07786	-0.057874	0.089433	9.806099	0.002646	0.001708	-0.006010	0.999995	-0.000674	-0.000068	-0.003061
07787	-0.039066	0.095442	9.809264	0.021561	0.007558	-0.002908	0.999995	-0.000674	-0.000062	-0.003060
07788	-0.026952	0.113152	9.833924	0.033994	0.024964	0.021835	0.999995	-0.000674	-0.000061	-0.003063
07789	-0.054275	0.096557	9.825027	0.006431	0.008713	0.012958	0.999995	-0.000684	-0.000071	-0.003057
07790	-0.029317	0.084526	9.819958	0.031416	-0.003374	0.007627	0.999995	-0.000679	-0.000048	-0.003055
07791	-0.036191	0.109323	9.814936	0.024811	0.021506	0.002870	0.999995	-0.000682	-0.000054	-0.003057
07792	-0.062925	0.122553	9.819978	-0.001957	0.034781	0.008195	0.999995	-0.000673	-0.000064	-0.003048
07793	-0.032375	0.080341	9.833183	0.028298	-0.007906	0.020834	0.999995	-0.000665	-0.000065	-0.003052
07794	-0.038644	0.111342	9.814904	0.022127	0.023269	0.002872	0.999995	-0.000671	-0.000064	-0.003043
07795	-0.046300	0.100253	9.809185	0.014369	0.012270	-0.002899	0.999995	-0.000663	-0.000064	-0.003047
07796	-0.047671	0.094596	9.822427	0.013076	0.006498	0.010300	0.999995	-0.000671	-0.000060	-0.003049
07797	-0.028768	0.100386	9.825610	0.031964	0.012337	0.013418	0.999995	-0.000681	-0.000071	-0.003043
07798	-0.035960	0.095373	9.806640	0.024584	0.007682	-0.005551	0.999995	-0.000686	-0.000064	-0.003067
07799	-0.050200	0.096022	9.822400	0.010347	0.008263	0.010302	0.999995	-0.000680	-0.000082	-0.003069
07800	-0.057755	0.084910	9.816681	0.002613	-0.002722	0.004530	0.999995	-0.000688	-0.000073	-0.003067
07801	-0.038884	0.090914	9.819868	0.021505	0.003111	0.007654	0.999995	-0.000678	-0.000084	-0.003057
07802	-0.032921	0.103287	9.825567	0.027453	0.015295	0.013427	0.999995	-0.000677	-0.000086	-0.003050
07803	-0.041022	0.086171	9.833102	0.019273	-0.002009	0.020859	0.999995	-0.000660	-0.000085	-0.003051
07804	-0.054520	0.099393	9.822344	0.005845	0.011278	0.010302	0.999995	-0.000666	-0.000081	-0.003038
07805	-0.062136	0.088258	9.816625	-0.001920	0.000293	0.004531	0.999995	-0.000666	-0.000090	-0.003028
07806	-0.022580	0.112065	9.796510	0.037610	0.024021	-0.015612	0.999995	-0.000666	-0.000087	-0.003031
07807	-0.031308	0.088565	9.817305	0.029025	0.000367	0.005024	0.999995	-0.000662	-0.000072	-0.003026
07808	-0.032191	0.089239	9.817296	0.028122	0.000970	0.005026	0.999995	-0.000657	-0.000090	-0.003030
07809	-0.039680	0.078125	9.811580	0.020352	-0.010007	-0.000742	0.999995	-0.000666	-0.000090	-0.003024
07810	-0.046429	0.102897	9.806520	0.013796	0.014859	-0.005538	0.999995	-0.000659	-0.000083	-0.003034
07811	-0.028003	0.102794	9.822977	0.032272	0.014358	0.010804	0.999995	-0.000653	-0.000094	-0.003040
07812	-0.042369	0.103527	9.838721	0.018015	0.014972	0.026641	0.999995	-0.000652	-0.000083	-0.003042
07813	-0.036282	0.098441	9.803994	0.024044	0.010300	-0.008167	0.999995	-0.000666	-0.000076	-0.003029
07814	-0.051179	0.092749	9.832994	0.009359	0.004591	0.020872	0.999995	-0.000668	-0.000075	-0.003033
07815	-0.018809	0.098798	9.820451	0.041595	0.010431	0.008185	0.999995	-0.000653	-0.000085	-0.003036
07816	-0.019572	0.099536	9.820442	0.040695	0.011033	0.008188	0.999995	-0.000654	-0.000090	-0.003037
