// General information: 
//  MT Manager version: 2021.0.0 
//  XDA version: 2021.0.0 build 5908 rev 109668 built on 2021-04-19
// Device information: 
//  DeviceId: 00B43DEE
//  ProductCode: MTW2-3A7G6
//  Firmware Version: 4.3.5
//  Hardware Version: 1.1.0
// Device settings: 
//  Filter Profile: human(46.1)
//  Option Flags: Orientation Smoother Disabled, Position/Velocity Smoother Disabled, Continuous Zero Rotation Update Disabled, AHS Disabled, ICC Disabled
// Coordinate system: ENU
PacketCounter	Acc_X	Acc_Y	Acc_Z	FreeAcc_E	FreeAcc_N	FreeAcc_U	Quat_q0	Quat_q1	Quat_q2	Quat_q3
07551	0.092288	0.080013	9.829609	0.333937	0.018046	0.011990	0.992875	-0.004841	0.015844	-0.118004
07552	0.065761	0.095460	9.825841	0.311636	0.039193	0.008817	0.992879	-0.004841	0.015839	-0.117968
07553	0.064603	0.085567	9.780566	0.307074	0.030056	-0.036402	0.992882	-0.004841	0.015840	-0.117947
07554	0.073993	0.087256	9.827770	0.317733	0.029233	0.010568	0.992888	-0.004838	0.015838	-0.117891
07555	0.057884	0.084384	9.794945	0.300511	0.030185	-0.021865	0.992893	-0.004819	0.015831	-0.117854
07556	0.062737	0.074882	9.825559	0.303348	0.019501	0.008655	0.992897	-0.004810	0.015810	-0.117820
07557	0.101133	0.106054	9.805495	0.347399	0.040729	-0.012337	0.992896	-0.004802	0.015817	-0.117831
07558	0.056815	0.095812	9.811569	0.302088	0.041000	-0.005223	0.992894	-0.004799	0.015809	-0.117846
07559	0.080231	0.102071	9.787036	0.325665	0.041725	-0.030299	0.992893	-0.004800	0.015813	-0.117860
07560	0.065144	0.087770	9.813506	0.308299	0.031106	-0.003466	0.992892	-0.004790	0.015809	-0.117868
07561	0.083051	0.092349	9.817679	0.326642	0.031242	0.000292	0.992891	-0.004784	0.015798	-0.117876
07562	0.071608	0.100891	9.801432	0.317015	0.042252	-0.015693	0.992893	-0.004784	0.015798	-0.117858
07563	0.062207	0.088420	9.799197	0.304714	0.032314	-0.017685	0.992887	-0.004778	0.015778	-0.117911
07564	0.087661	0.105283	9.805633	0.333295	0.042763	-0.011856	0.992882	-0.004789	0.015769	-0.117956
07565	0.080980	0.093598	9.789055	0.323692	0.033046	-0.028259	0.992880	-0.004781	0.015777	-0.117973
07566	0.076169	0.092595	9.803417	0.319016	0.033107	-0.013785	0.992873	-0.004783	0.015762	-0.118036
07567	0.069565	0.080944	9.786833	0.309475	0.023386	-0.030195	0.992865	-0.004783	0.015770	-0.118100
07568	0.082513	0.105496	9.791365	0.327857	0.044312	-0.025997	0.992865	-0.004792	0.015761	-0.118101
07569	0.074961	0.072051	9.803139	0.312867	0.013336	-0.014000	0.992866	-0.004766	0.015765	-0.118095
07570	0.065253	0.091488	9.817821	0.308223	0.034052	0.000879	0.992872	-0.004751	0.015755	-0.118041
07571	0.086020	0.096931	9.807692	0.329187	0.034513	-0.009725	0.992875	-0.004760	0.015738	-0.118022
07572	0.084174	0.096721	9.807710	0.327158	0.034753	-0.009658	0.992881	-0.004752	0.015735	-0.117975
07573	0.064321	0.102525	9.834468	0.309701	0.044865	0.017545	0.992880	-0.004750	0.015724	-0.117983
07574	0.073044	0.084013	9.805477	0.312916	0.025004	-0.011604	0.992881	-0.004753	0.015709	-0.117972
07575	0.069169	0.104961	9.791474	0.313591	0.046291	-0.025539	0.992881	-0.004743	0.015709	-0.117978
07576	0.086048	0.087523	9.824066	0.326479	0.025224	0.006687	0.992886	-0.004747	0.015698	-0.117934
07577	0.061574	0.081802	9.834199	0.301362	0.025396	0.017394	0.992889	-0.004743	0.015684	-0.117912
07578	0.075644	0.096911	9.793470	0.317530	0.036756	-0.023663	0.992895	-0.004729	0.015684	-0.117857
07579	0.080288	0.087423	9.824116	0.320352	0.026071	0.006887	0.992897	-0.004712	0.015670	-0.117843
07580	0.073767	0.076018	9.807517	0.310728	0.016348	-0.009535	0.992899	-0.004702	0.015667	-0.117832
07581	0.059588	0.083805	9.805570	0.298548	0.027036	-0.011162	0.992895	-0.004690	0.015651	-0.117869
07582	0.062318	0.095260	9.822196	0.304117	0.037341	0.005389	0.992891	-0.004688	0.015651	-0.117898
07583	0.070774	0.076597	9.793226	0.307410	0.017479	-0.023747	0.992887	-0.004706	0.015663	-0.117935
07584	0.098913	0.094349	9.785440	0.338576	0.028290	-0.032192	0.992893	-0.004696	0.015635	-0.117882
07585	0.074599	0.088627	9.795539	0.313448	0.028445	-0.021521	0.992896	-0.004707	0.015623	-0.117859
07586	0.070011	0.087426	9.809889	0.308598	0.028528	-0.007056	0.992896	-0.004713	0.015593	-0.117862
07587	0.078717	0.100591	9.797855	0.319420	0.039421	-0.019286	0.992895	-0.004712	0.015571	-0.117877
07588	0.056225	0.073740	9.821960	0.291570	0.018583	0.005364	0.992891	-0.004720	0.015569	-0.117911
07589	0.076878	0.079172	9.811908	0.312613	0.019031	-0.005158	0.992893	-0.004711	0.015560	-0.117894
07590	0.068375	0.088783	9.781279	0.305813	0.030291	-0.035595	0.992893	-0.004696	0.015562	-0.117891
07591	0.077417	0.090645	9.828564	0.316033	0.029685	0.011473	0.992895	-0.004700	0.015555	-0.117876
07592	0.085897	0.103608	9.816547	0.326903	0.040539	-0.000745	0.992895	-0.004715	0.015544	-0.117883
07593	0.070724	0.089028	9.842930	0.309185	0.030003	0.025997	0.992896	-0.004715	0.015543	-0.117870
07594	0.077361	0.091634	9.799958	0.315241	0.031093	-0.017116	0.992901	-0.004710	0.015538	-0.117834
07595	0.084805	0.082802	9.816295	0.320671	0.020728	-0.000937	0.992897	-0.004715	0.015531	-0.117865
07596	0.063142	0.077926	9.812016	0.298231	0.021133	-0.004714	0.992893	-0.004713	0.015525	-0.117898
07597	0.061157	0.077808	9.812030	0.296122	0.021473	-0.004651	0.992893	-0.004712	0.015517	-0.117899
07598	0.061809	0.110092	9.814658	0.304222	0.052788	-0.002075	0.992896	-0.004723	0.015505	-0.117875
07599	0.061894	0.088705	9.828692	0.299368	0.032163	0.011987	0.992899	-0.004729	0.015494	-0.117849
07600	0.068653	0.091347	9.785728	0.305519	0.033265	-0.031119	0.992907	-0.004718	0.015493	-0.117787
07601	0.083591	0.095092	9.804383	0.321049	0.033239	-0.012801	0.992910	-0.004714	0.015470	-0.117764
07602	0.089187	0.107412	9.806712	0.329178	0.043855	-0.010605	0.992914	-0.004710	0.015466	-0.117728
07603	0.066666	0.080514	9.830751	0.301315	0.022969	0.013974	0.992913	-0.004719	0.015448	-0.117744
07604	0.070762	0.082290	9.802116	0.304747	0.023849	-0.014738	0.992910	-0.004706	0.015432	-0.117770
07605	0.079381	0.095665	9.790122	0.315481	0.034858	-0.026923	0.992910	-0.004708	0.015404	-0.117769
07606	0.071678	0.093603	9.818784	0.307999	0.034568	0.001912	0.992908	-0.004714	0.015407	-0.117786
07607	0.086342	0.076998	9.761210	0.316935	0.015324	-0.055951	0.992900	-0.004712	0.015392	-0.117861
07608	0.063423	0.081999	9.802168	0.296434	0.025196	-0.014486	0.992900	-0.004695	0.015376	-0.117858
07609	0.063203	0.092494	9.833145	0.299040	0.035350	0.016484	0.992896	-0.004708	0.015359	-0.117899
07610	0.072091	0.074066	9.804218	0.302498	0.015484	-0.012604	0.992897	-0.004698	0.015355	-0.117887
07611	0.072651	0.106437	9.806859	0.310582	0.046819	-0.010012	0.992899	-0.004708	0.015346	-0.117873
07612	0.062384	0.071705	9.832887	0.292737	0.015672	0.016289	0.992895	-0.004719	0.015330	-0.117905
07613	0.056598	0.113670	9.804860	0.296111	0.057954	-0.011649	0.992897	-0.004713	0.015317	-0.117891
07614	0.076288	0.097160	9.823259	0.311741	0.037220	0.006330	0.992898	-0.004720	0.015320	-0.117883
07615	0.082323	0.077857	9.808659	0.312428	0.017140	-0.008365	0.992901	-0.004710	0.015290	-0.117863
07616	0.078460	0.098677	9.794657	0.313141	0.038451	-0.022301	0.992893	-0.004731	0.015302	-0.117927
07617	0.053765	0.092709	9.804615	0.287894	0.038586	-0.011790	0.992892	-0.004728	0.015287	-0.117939
07618	0.091316	0.102084	9.813388	0.326405	0.038897	-0.003850	0.992896	-0.004731	0.015266	-0.117909
07619	0.069750	0.097190	9.809022	0.303985	0.039252	-0.007726	0.992896	-0.004730	0.015260	-0.117911
07620	0.080128	0.089419	9.811084	0.312175	0.029176	-0.005880	0.992891	-0.004724	0.015251	-0.117950
07621	0.061598	0.085500	9.792393	0.292566	0.029746	-0.024144	0.992896	-0.004723	0.015235	-0.117910
07622	0.083906	0.101580	9.813459	0.318060	0.040190	-0.003581	0.992898	-0.004726	0.015214	-0.117896
07623	0.074602	0.089075	9.811130	0.305811	0.030168	-0.005682	0.992898	-0.004717	0.015209	-0.117896
07624	0.069430	0.088089	9.825459	0.300848	0.030270	0.008759	0.992897	-0.004714	0.015216	-0.117906
07625	0.068510	0.109909	9.797142	0.304316	0.051866	-0.019554	0.992897	-0.004722	0.015190	-0.117908
07626	0.081047	0.081013	9.813237	0.309713	0.020819	-0.003691	0.992903	-0.004716	0.015178	-0.117858
07627	0.069815	0.089542	9.796880	0.300268	0.031754	-0.019803	0.992899	-0.004714	0.015173	-0.117895
07628	0.081454	0.092291	9.829935	0.312853	0.031529	0.012989	0.992905	-0.004711	0.015173	-0.117843
07629	0.072914	0.101530	9.799270	0.306107	0.042829	-0.017495	0.992903	-0.004729	0.015180	-0.117860
07630	0.070866	0.101220	9.799288	0.303926	0.043223	-0.017429	0.992902	-0.004733	0.015158	-0.117867
07631	0.098122	0.097241	9.820115	0.329492	0.032947	0.002815	0.992906	-0.004732	0.015132	-0.117841
07632	0.076569	0.092331	9.815699	0.307146	0.033262	-0.001118	0.992901	-0.004733	0.015136	-0.117879
07633	0.073050	0.081666	9.784740	0.300639	0.023769	-0.031982	0.992896	-0.004727	0.015142	-0.117922
07634	0.075482	0.093106	9.801425	0.305825	0.034218	-0.015361	0.992896	-0.004727	0.015118	-0.117929
07635	0.073731	0.093033	9.801439	0.303628	0.034649	-0.015294	0.992895	-0.004727	0.015098	-0.117938
07636	0.088528	0.096822	9.820210	0.319061	0.034719	0.003154	0.992897	-0.004722	0.015086	-0.117925
07637	0.070021	0.092954	9.801467	0.299394	0.035425	-0.015167	0.992889	-0.004723	0.015067	-0.117989
07638	0.085458	0.065084	9.803288	0.307591	0.004720	-0.013638	0.992888	-0.004725	0.015050	-0.118004
07639	0.091093	0.077405	9.805676	0.315672	0.015375	-0.011377	0.992887	-0.004723	0.015029	-0.118010
07640	0.057216	0.080049	9.799136	0.283013	0.026046	-0.017180	0.992889	-0.004733	0.015031	-0.118000
07641	0.071831	0.083680	9.817921	0.298427	0.026126	0.001282	0.992888	-0.004729	0.015020	-0.118002
07642	0.080352	0.096865	9.806012	0.309374	0.037089	-0.010819	0.992881	-0.004742	0.015011	-0.118064
07643	0.073163	0.063195	9.817671	0.294484	0.006053	0.001041	0.992880	-0.004733	0.014994	-0.118077
07644	0.073711	0.095665	9.820344	0.302403	0.037453	0.003671	0.992883	-0.004736	0.014985	-0.118048
07645	0.067450	0.083988	9.803679	0.293009	0.027715	-0.012835	0.992888	-0.004735	0.014975	-0.118016
07646	0.092529	0.100971	9.810567	0.321280	0.038525	-0.006502	0.992887	-0.004752	0.014959	-0.118022
07647	0.055748	0.102863	9.818281	0.285718	0.048994	0.002010	0.992883	-0.004732	0.014932	-0.118059
07648	0.084466	0.089326	9.793919	0.309737	0.029222	-0.022939	0.992885	-0.004756	0.014937	-0.118042
07649	0.056708	0.082122	9.818034	0.281597	0.028995	0.001772	0.992885	-0.004770	0.014926	-0.118043
07650	0.084980	0.100091	9.810644	0.312818	0.040037	-0.006234	0.992882	-0.004770	0.014903	-0.118072
07651	0.075832	0.087527	9.808269	0.300630	0.029949	-0.008388	0.992887	-0.004766	0.014897	-0.118025
07652	0.051251	0.081788	9.818066	0.275306	0.029998	0.001947	0.992888	-0.004752	0.014877	-0.118026
07653	0.064827	0.075082	9.805902	0.286264	0.020314	-0.010483	0.992886	-0.004758	0.014857	-0.118040
07654	0.092936	0.093047	9.798539	0.317405	0.031385	-0.018458	0.992890	-0.004767	0.014851	-0.118008
07655	0.063229	0.107335	9.808599	0.291958	0.052090	-0.007781	0.992895	-0.004746	0.014842	-0.117966
07656	0.076638	0.100647	9.796448	0.302939	0.042362	-0.020199	0.992897	-0.004750	0.014831	-0.117956
07657	0.080806	0.090879	9.827181	0.305190	0.031854	0.010455	0.992904	-0.004751	0.014827	-0.117892
07658	0.065355	0.087943	9.794078	0.288570	0.032672	-0.022303	0.992910	-0.004737	0.014807	-0.117847
07659	0.089231	0.083154	9.829349	0.311122	0.022252	0.012468	0.992914	-0.004743	0.014802	-0.117811
07660	0.058446	0.086679	9.808396	0.281406	0.033104	-0.007828	0.992919	-0.004748	0.014785	-0.117777
07661	0.076192	0.091348	9.812956	0.299661	0.033498	-0.003644	0.992920	-0.004744	0.014780	-0.117765
07662	0.054813	0.086448	9.808419	0.277298	0.033688	-0.007713	0.992929	-0.004738	0.014751	-0.117698
07663	0.053101	0.086299	9.808430	0.275163	0.034013	-0.007654	0.992937	-0.004742	0.014740	-0.117625
07664	0.089470	0.085005	9.786571	0.309438	0.024644	-0.030262	0.992939	-0.004764	0.014714	-0.117616
07665	0.079561	0.103883	9.801143	0.304245	0.045426	-0.015500	0.992940	-0.004755	0.014710	-0.117602
07666	0.079529	0.082811	9.815181	0.299311	0.024837	-0.001431	0.992950	-0.004752	0.014691	-0.117520
07667	0.061224	0.078750	9.796340	0.279887	0.025347	-0.019871	0.992947	-0.004763	0.014673	-0.117550
07668	0.063617	0.090139	9.813057	0.284952	0.035763	-0.003213	0.992952	-0.004748	0.014664	-0.117511
07669	0.084308	0.095877	9.803363	0.305994	0.036554	-0.013338	0.992953	-0.004754	0.014659	-0.117504
07670	0.084384	0.074611	9.817403	0.301072	0.015989	0.000731	0.992950	-0.004764	0.014628	-0.117535
07671	0.056772	0.079024	9.782106	0.274376	0.027068	-0.033983	0.992950	-0.004775	0.014635	-0.117527
07672	0.063104	0.101731	9.815538	0.286509	0.047673	-0.000718	0.992953	-0.004779	0.014626	-0.117510
07673	0.092104	0.088357	9.791317	0.310670	0.028022	-0.025508	0.992957	-0.004768	0.014601	-0.117477
07674	0.065603	0.103723	9.786996	0.288119	0.048935	-0.029286	0.992955	-0.004756	0.014591	-0.117493
07675	0.057386	0.101844	9.815572	0.280078	0.048744	-0.000537	0.992961	-0.004747	0.014586	-0.117446
07676	0.075938	0.075004	9.803219	0.291356	0.018341	-0.013235	0.992963	-0.004750	0.014567	-0.117426
07677	0.085607	0.098816	9.822379	0.306386	0.039258	0.005704	0.992959	-0.004753	0.014551	-0.117468
07678	0.079660	0.087133	9.805683	0.297172	0.029488	-0.010842	0.992959	-0.004758	0.014531	-0.117468
07679	0.080152	0.119463	9.808390	0.304917	0.060909	-0.008172	0.992969	-0.004763	0.014513	-0.117386
07680	0.072899	0.085805	9.819993	0.290048	0.029827	0.003622	0.992969	-0.004753	0.014511	-0.117384
07681	0.076085	0.065680	9.819753	0.288169	0.009456	0.003346	0.992972	-0.004753	0.014487	-0.117362
07682	0.064134	0.105806	9.820274	0.285698	0.051205	0.004076	0.992975	-0.004744	0.014486	-0.117340
07683	0.082706	0.079168	9.807946	0.297044	0.020861	-0.008595	0.992970	-0.004731	0.014467	-0.117381
07684	0.064468	0.117377	9.837017	0.288476	0.062121	0.020814	0.992979	-0.004737	0.014455	-0.117305
07685	0.069687	0.087419	9.791511	0.285514	0.032103	-0.024754	0.992985	-0.004745	0.014451	-0.117262
07686	0.071824	0.098825	9.808247	0.290481	0.042590	-0.008074	0.992985	-0.004732	0.014442	-0.117261
07687	0.087104	0.071230	9.810211	0.298874	0.011929	-0.006392	0.992986	-0.004718	0.014448	-0.117252
07688	0.067571	0.099093	9.808274	0.286361	0.043191	-0.007956	0.992988	-0.004694	0.014445	-0.117237
07689	0.090326	0.083920	9.812695	0.304698	0.023079	-0.003977	0.992980	-0.004704	0.014423	-0.117309
07690	0.060679	0.097922	9.822574	0.278988	0.043780	0.006502	0.992987	-0.004713	0.014408	-0.117252
07691	0.074207	0.091111	9.810524	0.290176	0.034150	-0.005811	0.992979	-0.004714	0.014402	-0.117318
07692	0.072186	0.090903	9.810541	0.288144	0.034487	-0.005752	0.992977	-0.004722	0.014402	-0.117334
07693	0.077591	0.103180	9.813014	0.296030	0.045343	-0.003395	0.992978	-0.004726	0.014376	-0.117330
07694	0.071655	0.091446	9.796302	0.286907	0.035572	-0.019963	0.992975	-0.004739	0.014371	-0.117355
07695	0.086020	0.095203	9.815265	0.301968	0.035887	-0.001295	0.992978	-0.004733	0.014362	-0.117327
07696	0.074899	0.103755	9.798794	0.292561	0.046795	-0.017538	0.992984	-0.004729	0.014345	-0.117282
07697	0.077954	0.083632	9.798568	0.290724	0.026408	-0.017801	0.992985	-0.004723	0.014348	-0.117273
07698	0.053077	0.077744	9.808162	0.265351	0.026327	-0.007699	0.992980	-0.004716	0.014345	-0.117312
07699	0.072917	0.115226	9.815572	0.293269	0.058068	-0.000722	0.992972	-0.004714	0.014323	-0.117382
07700	0.076116	0.095147	9.815347	0.291428	0.037685	-0.000983	0.992981	-0.004705	0.014319	-0.117308
07701	0.086526	0.087470	9.817595	0.299636	0.027768	0.001066	0.992981	-0.004708	0.014304	-0.117315
07702	0.069230	0.093898	9.829643	0.284105	0.038236	0.013467	0.992972	-0.004718	0.014280	-0.117389
07703	0.077673	0.107075	9.817868	0.294941	0.049396	0.001517	0.992973	-0.004735	0.014278	-0.117382
07704	0.080675	0.086909	9.817650	0.293169	0.028992	0.001258	0.992974	-0.004715	0.014274	-0.117371
07705	0.085027	0.088978	9.789140	0.297257	0.029815	-0.027333	0.992980	-0.004705	0.014274	-0.117326
07706	0.076782	0.086980	9.817680	0.289002	0.029715	0.001379	0.992979	-0.004708	0.014247	-0.117332
07707	0.065860	0.095375	9.801188	0.279640	0.040647	-0.014888	0.992982	-0.004717	0.014234	-0.117310
07708	0.078246	0.066542	9.817479	0.284947	0.009848	0.001188	0.992982	-0.004723	0.014213	-0.117313
07709	0.066179	0.106493	9.817959	0.282230	0.051657	0.001879	0.992981	-0.004730	0.014200	-0.117323
07710	0.084976	0.079613	9.805735	0.293746	0.021339	-0.010685	0.992981	-0.004735	0.014182	-0.117324
07711	0.067590	0.085988	9.817757	0.278306	0.031703	0.001682	0.992984	-0.004743	0.014172	-0.117299
07712	0.072865	0.098140	9.820260	0.286225	0.042482	0.004070	0.992988	-0.004756	0.014168	-0.117265
07713	0.079242	0.078723	9.805790	0.287412	0.022436	-0.010500	0.992990	-0.004763	0.014154	-0.117255
07714	0.075284	0.099637	9.791780	0.287967	0.043847	-0.024444	0.992997	-0.004762	0.014150	-0.117194
07715	0.085567	0.092060	9.794059	0.296113	0.033967	-0.022357	0.993001	-0.004753	0.014137	-0.117162
07716	0.080390	0.091051	9.808332	0.291025	0.034009	-0.007980	0.993005	-0.004749	0.014135	-0.117126
07717	0.062212	0.086910	9.789330	0.271832	0.034335	-0.026609	0.993005	-0.004755	0.014119	-0.117128
07718	0.080567	0.102192	9.825118	0.293799	0.044821	0.008796	0.993022	-0.004748	0.014124	-0.116986
07719	0.094251	0.095593	9.813152	0.305109	0.035246	-0.003424	0.993021	-0.004743	0.014097	-0.116998
07720	0.072878	0.090710	9.808394	0.282735	0.035450	-0.007743	0.993013	-0.004740	0.014091	-0.117063
07721	0.064450	0.088566	9.836915	0.274322	0.035390	0.020948	0.993010	-0.004758	0.014071	-0.117088
07722	0.078169	0.081792	9.824957	0.285565	0.025852	0.008736	0.993010	-0.004757	0.014055	-0.117098
07723	0.070453	0.091283	9.794187	0.279395	0.037052	-0.021877	0.993006	-0.004761	0.014040	-0.117131
07724	0.093961	0.086544	9.829778	0.301710	0.026839	0.013253	0.993005	-0.004764	0.014036	-0.117135
07725	0.064123	0.100415	9.839475	0.276036	0.047327	0.023523	0.993007	-0.004769	0.014031	-0.117122
07726	0.096362	0.088023	9.801322	0.303941	0.027926	-0.015249	0.993007	-0.004767	0.014054	-0.117118
07727	0.068268	0.080947	9.825037	0.275475	0.027441	0.009020	0.993006	-0.004764	0.014036	-0.117129
07728	0.076925	0.094286	9.813316	0.286551	0.038466	-0.002876	0.993007	-0.004767	0.014032	-0.117125
07729	0.078291	0.095143	9.799085	0.287677	0.039008	-0.017129	0.993005	-0.004760	0.014023	-0.117136
07730	0.064025	0.102625	9.796802	0.275397	0.049516	-0.019135	0.993006	-0.004756	0.014022	-0.117131
07731	0.079594	0.074941	9.798899	0.284026	0.018865	-0.017313	0.993005	-0.004749	0.014014	-0.117142
07732	0.069211	0.094007	9.813376	0.278563	0.039603	-0.002651	0.993006	-0.004739	0.014015	-0.117136
07733	0.082855	0.087448	9.801451	0.289988	0.029923	-0.014832	0.993004	-0.004731	0.014007	-0.117148
07734	0.081539	0.097807	9.832479	0.291664	0.040186	0.016207	0.993005	-0.004737	0.014010	-0.117144
07735	0.069889	0.095616	9.784933	0.278852	0.040968	-0.031097	0.993007	-0.004732	0.014001	-0.117129
07736	0.061454	0.093481	9.813433	0.270574	0.040737	-0.002432	0.993005	-0.004734	0.013997	-0.117142
07737	0.071848	0.085602	9.815763	0.278867	0.030804	-0.000299	0.993006	-0.004748	0.013997	-0.117139
07738	0.083569	0.099886	9.789826	0.293105	0.042098	-0.026475	0.993006	-0.004738	0.013998	-0.117133
07739	0.078261	0.098838	9.804084	0.287961	0.042126	-0.012113	0.993006	-0.004734	0.013997	-0.117136
07740	0.076242	0.098621	9.804102	0.285965	0.042410	-0.012056	0.993006	-0.004741	0.014000	-0.117132
07741	0.079372	0.078245	9.803911	0.284329	0.021984	-0.012292	0.993006	-0.004747	0.014002	-0.117137
07742	0.084592	0.090432	9.806465	0.292267	0.032769	-0.009852	0.993005	-0.004757	0.013995	-0.117141
07743	0.067073	0.096657	9.818393	0.276814	0.043006	0.002414	0.993006	-0.004761	0.013991	-0.117137
07744	0.088046	0.102705	9.809037	0.298204	0.043842	-0.007349	0.993006	-0.004734	0.013974	-0.117137
07745	0.075619	0.089177	9.820751	0.283111	0.033367	0.004622	0.993005	-0.004743	0.013984	-0.117142
07746	0.064039	0.086914	9.773183	0.270407	0.034122	-0.042709	0.993005	-0.004743	0.013973	-0.117146
07747	0.071772	0.088717	9.820784	0.279114	0.033936	0.004734	0.993004	-0.004745	0.013969	-0.117158
07748	0.057495	0.096174	9.818459	0.266818	0.044424	0.002684	0.993005	-0.004732	0.013963	-0.117152
07749	0.055532	0.096157	9.818470	0.264818	0.044707	0.002737	0.993004	-0.004728	0.013962	-0.117155
07750	0.088703	0.094510	9.811487	0.296518	0.035354	-0.004889	0.993006	-0.004726	0.013960	-0.117141
07751	0.090205	0.095387	9.797272	0.297707	0.035897	-0.019126	0.993007	-0.004724	0.013942	-0.117135
07752	0.081755	0.093106	9.825755	0.289335	0.035670	0.009523	0.993006	-0.004737	0.013941	-0.117141
07753	0.063660	0.088868	9.806637	0.270312	0.035896	-0.009232	0.993006	-0.004730	0.013933	-0.117143
07754	0.081228	0.093798	9.811559	0.288529	0.036497	-0.004655	0.993007	-0.004727	0.013932	-0.117138
07755	0.079344	0.093644	9.811575	0.286326	0.036881	-0.004592	0.993013	-0.004731	0.013909	-0.117085
07756	0.080683	0.094535	9.797363	0.287390	0.037592	-0.018824	0.993006	-0.004731	0.013910	-0.117144
07757	0.078587	0.094602	9.797380	0.285333	0.037918	-0.018765	0.993017	-0.004713	0.013904	-0.117054
07758	0.082166	0.085150	9.828215	0.287049	0.027631	0.012008	0.993015	-0.004709	0.013903	-0.117071
07759	0.067263	0.081913	9.794851	0.271069	0.028258	-0.021055	0.993015	-0.004729	0.013892	-0.117075
07760	0.061988	0.080536	9.809094	0.265681	0.028370	-0.006707	0.993026	-0.004737	0.013877	-0.116982
07761	0.083037	0.086376	9.799817	0.286978	0.029389	-0.016385	0.993026	-0.004741	0.013852	-0.116986
07762	0.081181	0.086334	9.799833	0.284984	0.029673	-0.016327	0.993026	-0.004731	0.013853	-0.116980
07763	0.073972	0.106253	9.800044	0.282574	0.050668	-0.015993	0.993027	-0.004735	0.013849	-0.116976
07764	0.054529	0.079927	9.809143	0.257566	0.029639	-0.006494	0.993030	-0.004738	0.013837	-0.116953
07765	0.095126	0.090843	9.804833	0.299202	0.030874	-0.011587	0.993030	-0.004735	0.013818	-0.116956
07766	0.070263	0.084758	9.814120	0.273774	0.030553	-0.001817	0.993029	-0.004723	0.013837	-0.116959
07767	0.063011	0.104729	9.814326	0.271352	0.051546	-0.001487	0.993032	-0.004723	0.013818	-0.116936
07768	0.089278	0.090419	9.804892	0.293214	0.031731	-0.011409	0.993033	-0.004738	0.013817	-0.116924
07769	0.064564	0.084058	9.814165	0.267780	0.031403	-0.001654	0.993032	-0.004737	0.013806	-0.116937
07770	0.073324	0.097489	9.802538	0.278907	0.042476	-0.013451	0.993033	-0.004735	0.013788	-0.116931
07771	0.087567	0.101462	9.821745	0.293862	0.042867	0.005482	0.993034	-0.004725	0.013789	-0.116925
07772	0.071252	0.076268	9.816598	0.272101	0.022078	0.000669	0.993035	-0.004726	0.013794	-0.116911
07773	0.076425	0.088443	9.819200	0.279982	0.032900	0.003161	0.993036	-0.004743	0.013784	-0.116908
07774	0.072677	0.109191	9.805188	0.280795	0.054149	-0.010793	0.993035	-0.004739	0.013783	-0.116912
07775	0.051416	0.104146	9.800211	0.258604	0.054061	-0.015349	0.993036	-0.004727	0.013760	-0.116913
07776	0.083052	0.070288	9.790624	0.280947	0.013554	-0.025500	0.993035	-0.004709	0.013748	-0.116923
07777	0.084916	0.081774	9.807446	0.285565	0.024125	-0.008721	0.993036	-0.004714	0.013743	-0.116910
07778	0.063950	0.086832	9.833486	0.266718	0.034064	0.017714	0.993037	-0.004731	0.013733	-0.116907
07779	0.072664	0.100049	9.821881	0.277852	0.045148	0.005938	0.993037	-0.004732	0.013721	-0.116902
07780	0.081309	0.113388	9.810279	0.288926	0.056312	-0.005833	0.993038	-0.004741	0.013713	-0.116899
07781	0.077585	0.080649	9.807516	0.277427	0.025413	-0.008490	0.993043	-0.004737	0.013699	-0.116857
07782	0.063243	0.087865	9.805117	0.265025	0.035935	-0.010621	0.993038	-0.004756	0.013702	-0.116902
07783	0.077215	0.091630	9.824364	0.279777	0.036484	0.008355	0.993043	-0.004754	0.013694	-0.116855
07784	0.066255	0.099878	9.807750	0.270578	0.047278	-0.008052	0.993043	-0.004773	0.013685	-0.116854
07785	0.080410	0.103766	9.827002	0.285396	0.047848	0.010930	0.993041	-0.004763	0.013668	-0.116876
07786	0.087224	0.084715	9.812628	0.287055	0.027767	-0.003544	0.993038	-0.004771	0.013658	-0.116905
07787	0.069602	0.090964	9.824427	0.271378	0.038049	0.008585	0.993037	-0.004776	0.013643	-0.116912
07788	0.083513	0.084466	9.812663	0.282971	0.028474	-0.003428	0.993040	-0.004765	0.013635	-0.116888
07789	0.081656	0.084414	9.812679	0.280906	0.028824	-0.003369	0.993043	-0.004768	0.013620	-0.116864
07790	0.070903	0.092646	9.796055	0.271789	0.039588	-0.019788	0.993048	-0.004781	0.013608	-0.116827
07791	0.065627	0.091421	9.810276	0.266326	0.039721	-0.005462	0.993053	-0.004778	0.013591	-0.116785
07792	0.082973	0.085969	9.784317	0.281148	0.030481	-0.031728	0.993049	-0.004776	0.013575	-0.116817
07793	0.074238	0.083759	9.812744	0.272436	0.030352	-0.003135	0.993050	-0.004785	0.013565	-0.116810
07794	0.088147	0.077150	9.800999	0.284051	0.020807	-0.015128	0.993053	-0.004782	0.013555	-0.116783
07795	0.065241	0.103526	9.812947	0.267846	0.051775	-0.002770	0.993049	-0.004785	0.013539	-0.116825
07796	0.072202	0.094866	9.829612	0.272740	0.041756	0.013775	0.993048	-0.004788	0.013538	-0.116833
07797	0.086133	0.088397	9.817874	0.284307	0.032260	0.001793	0.993042	-0.004781	0.013511	-0.116884
07798	0.073748	0.064274	9.798440	0.265863	0.011740	-0.017373	0.993042	-0.004785	0.013494	-0.116886
07799	0.066704	0.094730	9.829652	0.266484	0.042874	0.013941	0.993043	-0.004777	0.013492	-0.116876
07800	0.064540	0.084105	9.798640	0.261176	0.033188	-0.017011	0.993046	-0.004787	0.013480	-0.116858
07801	0.069689	0.096555	9.801282	0.268875	0.044125	-0.014470	0.993051	-0.004777	0.013467	-0.116810
07802	0.064238	0.095571	9.815494	0.263487	0.044179	-0.000154	0.993055	-0.004766	0.013466	-0.116781
07803	0.094031	0.093085	9.823068	0.291818	0.034885	0.006875	0.993062	-0.004775	0.013452	-0.116725
07804	0.072625	0.087844	9.817988	0.269558	0.034821	0.002200	0.993065	-0.004769	0.013448	-0.116699
07805	0.065018	0.097390	9.787142	0.263770	0.045847	-0.028507	0.993069	-0.004761	0.013452	-0.116667
07806	0.094747	0.094877	9.794737	0.292259	0.036495	-0.021462	0.993067	-0.004773	0.013444	-0.116679
07807	0.089535	0.093608	9.808951	0.286850	0.036577	-0.007144	0.993072	-0.004772	0.013422	-0.116639
07808	0.071814	0.099885	9.820687	0.271073	0.046855	0.004917	0.993070	-0.004777	0.013423	-0.116662
07809	0.046741	0.082975	9.798751	0.242457	0.036351	-0.016541	0.993071	-0.004785	0.013425	-0.116649
07810	0.073131	0.079343	9.820559	0.267598	0.026713	0.004782	0.993071	-0.004785	0.013414	-0.116653
07811	0.085366	0.093917	9.794832	0.282138	0.038086	-0.021171	0.993072	-0.004776	0.013398	-0.116647
07812	0.079992	0.092902	9.809040	0.276776	0.038117	-0.006861	0.993071	-0.004765	0.013400	-0.116650
07813	0.070953	0.080238	9.806410	0.264968	0.027814	-0.009312	0.993070	-0.004767	0.013396	-0.116663
07814	0.072606	0.081193	9.792234	0.266219	0.028411	-0.023509	0.993074	-0.004759	0.013374	-0.116632
07815	0.061938	0.099973	9.806596	0.260246	0.049250	-0.008963	0.993071	-0.004777	0.013370	-0.116659
07816	0.084650	0.084867	9.811600	0.278811	0.029404	-0.004361	0.993071	-0.004771	0.013364	-0.116656
