// General information: 
//  MT Manager version: 2021.0.0 
//  XDA version: 2021.0.0 build 5908 rev 109668 built on 2021-04-19
// Device information: 
//  DeviceId: 00B43DF4
//  ProductCode: MTW2-3A7G6
//  Firmware Version: 4.3.5
//  Hardware Version: 1.1.0
// Device settings: 
//  Filter Profile: human(46.1)
//  Option Flags: Orientation Smoother Disabled, Position/Velocity Smoother Disabled, Continuous Zero Rotation Update Disabled, AHS Disabled, ICC Disabled
// Coordinate system: ENU
PacketCounter	Acc_X	Acc_Y	Acc_Z	FreeAcc_E	FreeAcc_N	FreeAcc_U	Quat_q0	Quat_q1	Quat_q2	Quat_q3
07551	-0.049508	0.077460	10.686079	0.165565	0.181047	0.870971	0.999118	-0.009120	0.007406	0.040308
07552	-0.060758	0.080620	10.695541	0.153994	0.183430	0.880649	0.999119	-0.009126	0.007387	0.040296
07553	-0.039724	0.074935	10.676606	0.174799	0.179374	0.861317	0.999118	-0.009132	0.007386	0.040307
07554	-0.062050	0.080938	10.695532	0.152551	0.183917	0.880661	0.999119	-0.009140	0.007391	0.040292
07555	-0.044188	0.072119	10.696847	0.171262	0.176572	0.881665	0.999119	-0.009135	0.007398	0.040284
07556	-0.058750	0.065503	10.683110	0.157065	0.168587	0.868300	0.999119	-0.009135	0.007398	0.040280
07557	-0.040629	0.063308	10.727874	0.176120	0.168343	0.912684	0.999119	-0.009134	0.007393	0.040285
07558	-0.041514	0.105030	10.691940	0.171150	0.209489	0.876427	0.999119	-0.009132	0.007390	0.040282
07559	-0.062120	0.085171	10.675256	0.151829	0.188162	0.860351	0.999119	-0.009163	0.007396	0.040278
07560	-0.065689	0.081803	10.695503	0.148805	0.185182	0.880692	0.999119	-0.009175	0.007381	0.040280
07561	-0.022985	0.076969	10.701101	0.191798	0.183826	0.885417	0.999120	-0.009162	0.007387	0.040266
07562	-0.039274	0.089529	10.679519	0.174053	0.194787	0.864084	0.999120	-0.009171	0.007381	0.040268
07563	-0.052068	0.070314	10.717065	0.163729	0.175121	0.902053	0.999119	-0.009176	0.007388	0.040273
07564	-0.051368	0.092740	10.688970	0.162129	0.197367	0.873757	0.999120	-0.009183	0.007387	0.040251
07565	-0.039528	0.070784	10.687352	0.175517	0.176645	0.872070	0.999120	-0.009195	0.007387	0.040247
07566	-0.033907	0.083899	10.690297	0.180037	0.190317	0.874782	0.999121	-0.009197	0.007370	0.040234
07567	-0.029610	0.068244	10.677889	0.185196	0.174846	0.862423	0.999121	-0.009191	0.007372	0.040238
07568	-0.051812	0.074279	10.696798	0.163020	0.179303	0.881749	0.999120	-0.009199	0.007376	0.040247
07569	-0.046245	0.087430	10.699743	0.167516	0.192944	0.884461	0.999121	-0.009195	0.007369	0.040234
07570	-0.052900	0.074867	10.696789	0.161884	0.179600	0.881761	0.999121	-0.009178	0.007376	0.040232
07571	-0.036702	0.085200	10.690278	0.176979	0.191241	0.874817	0.999121	-0.009195	0.007375	0.040225
07572	-0.037449	0.085349	10.690274	0.176344	0.191514	0.874823	0.999121	-0.009198	0.007380	0.040220
07573	-0.065878	0.078493	10.706225	0.149000	0.182606	0.891434	0.999121	-0.009200	0.007385	0.040217
07574	-0.046543	0.091958	10.679469	0.166742	0.197304	0.864155	0.999122	-0.009200	0.007384	0.040207
07575	-0.042402	0.083014	10.710507	0.172052	0.188972	0.895176	0.999122	-0.009192	0.007383	0.040204
07576	-0.056778	0.076322	10.696758	0.157923	0.181072	0.881795	0.999123	-0.009209	0.007365	0.040186
07577	-0.057019	0.076402	10.696757	0.157310	0.181253	0.881801	0.999123	-0.009205	0.007352	0.040184
07578	-0.040429	0.086694	10.690252	0.172656	0.192711	0.874861	0.999123	-0.009205	0.007342	0.040191
07579	-0.051562	0.089849	10.699698	0.161295	0.194945	0.884521	0.999122	-0.009199	0.007332	0.040203
07580	-0.033333	0.080940	10.701045	0.179980	0.187629	0.885557	0.999123	-0.009207	0.007323	0.040194
07581	-0.054008	0.061312	10.684345	0.160644	0.166129	0.869470	0.999122	-0.009197	0.007338	0.040203
07582	-0.048364	0.074489	10.687290	0.165172	0.179820	0.872182	0.999123	-0.009206	0.007310	0.040198
07583	-0.042635	0.087730	10.690235	0.169697	0.193552	0.874893	0.999123	-0.009200	0.007321	0.040184
07584	-0.035668	0.082021	10.701029	0.177537	0.188331	0.885585	0.999124	-0.009193	0.007332	0.040168
07585	-0.036240	0.082339	10.701025	0.176777	0.188560	0.885594	0.999124	-0.009192	0.007312	0.040169
07586	-0.044330	0.088747	10.690220	0.167731	0.194158	0.874913	0.999124	-0.009191	0.007300	0.040163
07587	-0.053862	0.072856	10.707514	0.159771	0.177718	0.892543	0.999125	-0.009192	0.007299	0.040151
07588	-0.048354	0.086015	10.710459	0.164352	0.191406	0.895254	0.999125	-0.009200	0.007310	0.040132
07589	-0.062985	0.079341	10.696702	0.150146	0.183548	0.881865	0.999125	-0.009202	0.007315	0.040130
07590	-0.066662	0.069776	10.673501	0.146932	0.173436	0.858830	0.999126	-0.009199	0.007316	0.040121
07591	-0.050221	0.086652	10.710445	0.162663	0.191899	0.895271	0.999126	-0.009199	0.007317	0.040117
07592	-0.050844	0.080332	10.666999	0.161629	0.185083	0.851904	0.999127	-0.009191	0.007314	0.040100
07593	-0.038759	0.065299	10.708851	0.175352	0.171370	0.893625	0.999127	-0.009190	0.007291	0.040104
07594	-0.054791	0.077668	10.687236	0.157725	0.182414	0.872251	0.999127	-0.009208	0.007289	0.040086
07595	-0.039850	0.065649	10.708845	0.174045	0.171892	0.893638	0.999128	-0.009199	0.007287	0.040071
07596	-0.041824	0.085010	10.700984	0.170124	0.190907	0.885660	0.999129	-0.009206	0.007265	0.040058
07597	-0.048230	0.072184	10.698033	0.164441	0.177564	0.882960	0.999129	-0.009202	0.007261	0.040056
07598	-0.059556	0.075155	10.707468	0.152989	0.179866	0.892606	0.999128	-0.009219	0.007258	0.040074
07599	-0.068009	0.081413	10.696655	0.143859	0.185528	0.881917	0.999128	-0.009214	0.007265	0.040062
07600	-0.036268	0.079466	10.711779	0.176110	0.186301	0.896380	0.999129	-0.009225	0.007268	0.040036
07601	-0.039815	0.069863	10.688581	0.172769	0.176268	0.873346	0.999130	-0.009220	0.007256	0.040022
07602	-0.041903	0.089269	10.680717	0.168775	0.195336	0.865365	0.999131	-0.009222	0.007253	0.040002
07603	-0.051630	0.073231	10.698010	0.160603	0.178964	0.882995	0.999131	-0.009239	0.007246	0.039997
07604	-0.049157	0.076464	10.677761	0.162423	0.182426	0.862667	0.999131	-0.009246	0.007250	0.039979
07605	-0.035994	0.083573	10.691517	0.175324	0.190756	0.876078	0.999131	-0.009245	0.007259	0.039986
07606	-0.034907	0.064608	10.699376	0.178022	0.172179	0.884074	0.999132	-0.009261	0.007243	0.039974
07607	-0.044737	0.083370	10.637260	0.165202	0.189561	0.822021	0.999132	-0.009255	0.007237	0.039958
07608	-0.068172	0.074046	10.727666	0.144267	0.179156	0.912984	0.999132	-0.009250	0.007224	0.039959
07609	-0.054772	0.074488	10.697985	0.156714	0.180355	0.883029	0.999133	-0.009254	0.007218	0.039954
07610	-0.035399	0.094427	10.714695	0.174748	0.202068	0.899151	0.999132	-0.009263	0.007218	0.039963
07611	-0.049789	0.087626	10.700928	0.160428	0.194267	0.885749	0.999133	-0.009274	0.007201	0.039955
07612	-0.048629	0.062111	10.665350	0.162757	0.168606	0.850380	0.999133	-0.009270	0.007199	0.039946
07613	-0.050759	0.088169	10.700919	0.159107	0.194708	0.885761	0.999133	-0.009271	0.007188	0.039943
07614	-0.046769	0.072561	10.688535	0.164099	0.179245	0.873433	0.999133	-0.009262	0.007201	0.039936
07615	-0.044485	0.076018	10.668286	0.165718	0.182697	0.853110	0.999134	-0.009269	0.007194	0.039927
07616	-0.058967	0.075998	10.697952	0.151674	0.181914	0.883075	0.999134	-0.009274	0.007184	0.039924
07617	-0.053278	0.089310	10.700898	0.156020	0.195531	0.885792	0.999134	-0.009260	0.007161	0.039934
07618	-0.042805	0.086776	10.691467	0.166175	0.193570	0.876173	0.999134	-0.009256	0.007151	0.039940
07619	-0.041648	0.067878	10.699332	0.168951	0.174890	0.884177	0.999134	-0.009263	0.007150	0.039931
07620	-0.052908	0.070900	10.708755	0.157521	0.177169	0.893808	0.999134	-0.009265	0.007140	0.039931
07621	-0.068966	0.083269	10.687112	0.139957	0.188086	0.872400	0.999133	-0.009268	0.007142	0.039943
07622	-0.055654	0.090470	10.700876	0.152753	0.196457	0.885822	0.999134	-0.009259	0.007126	0.039933
07623	-0.042177	0.090847	10.671206	0.165140	0.197726	0.855878	0.999133	-0.009281	0.007108	0.039951
07624	-0.044121	0.068694	10.699317	0.165376	0.175970	0.884215	0.999134	-0.009280	0.007104	0.039924
07625	-0.055455	0.071942	10.708735	0.153850	0.178358	0.893842	0.999135	-0.009280	0.007094	0.039920
07626	-0.035913	0.085301	10.682017	0.171565	0.192959	0.866609	0.999134	-0.009282	0.007087	0.039925
07627	-0.045656	0.069342	10.699306	0.163240	0.176612	0.884238	0.999135	-0.009290	0.007079	0.039915
07628	-0.034012	0.095470	10.705203	0.172619	0.203793	0.889664	0.999135	-0.009297	0.007067	0.039909
07629	-0.043700	0.072982	10.679055	0.164067	0.180262	0.863925	0.999135	-0.009288	0.007055	0.039910
07630	-0.059663	0.092163	10.700840	0.146750	0.198297	0.885872	0.999136	-0.009295	0.007042	0.039898
07631	-0.041763	0.083305	10.702240	0.165348	0.190924	0.886978	0.999136	-0.009290	0.007051	0.039879
07632	-0.048610	0.070594	10.699285	0.159294	0.177787	0.884278	0.999137	-0.009300	0.007037	0.039871
07633	-0.056944	0.076955	10.688455	0.150192	0.183259	0.873570	0.999136	-0.009292	0.007033	0.039883
07634	-0.057471	0.077188	10.688450	0.149468	0.183380	0.873578	0.999136	-0.009293	0.007022	0.039894
07635	-0.048803	0.100295	10.714589	0.156651	0.207433	0.899329	0.999137	-0.009289	0.007017	0.039872
07636	-0.058439	0.077981	10.688439	0.147930	0.183957	0.873589	0.999137	-0.009279	0.006996	0.039867
07637	-0.038986	0.098230	10.705161	0.165919	0.205678	0.889734	0.999138	-0.009275	0.006997	0.039861
07638	-0.043976	0.066361	10.710086	0.163412	0.173602	0.895041	0.999138	-0.009283	0.006978	0.039867
07639	-0.053842	0.091842	10.691374	0.150934	0.198008	0.876318	0.999138	-0.009274	0.006980	0.039864
07640	-0.054323	0.092001	10.691371	0.150147	0.198289	0.876324	0.999137	-0.009296	0.006951	0.039875
07641	-0.036031	0.083124	10.692785	0.168658	0.190907	0.877447	0.999138	-0.009280	0.006935	0.039862
07642	-0.047388	0.086556	10.702191	0.157162	0.193353	0.887058	0.999138	-0.009278	0.006938	0.039851
07643	-0.043350	0.070862	10.689826	0.162085	0.177933	0.874751	0.999139	-0.009283	0.006931	0.039844
07644	-0.043886	0.071069	10.689822	0.161393	0.178126	0.874758	0.999139	-0.009284	0.006921	0.039841
07645	-0.056997	0.093287	10.691346	0.146510	0.199334	0.876355	0.999139	-0.009292	0.006928	0.039830
07646	-0.043946	0.100302	10.705123	0.159265	0.207670	0.889796	0.999139	-0.009295	0.006925	0.039831
07647	-0.047556	0.090539	10.681928	0.155809	0.197613	0.866766	0.999139	-0.009313	0.006910	0.039822
07648	-0.054187	0.077663	10.678974	0.149966	0.184468	0.864060	0.999140	-0.009316	0.006905	0.039820
07649	-0.043936	0.081658	10.712996	0.160311	0.189750	0.897829	0.999141	-0.009324	0.006892	0.039778
07650	-0.044471	0.081879	10.712992	0.159624	0.189872	0.897837	0.999141	-0.009323	0.006889	0.039776
07651	-0.048051	0.072216	10.689796	0.156196	0.179731	0.874809	0.999141	-0.009325	0.006878	0.039786
07652	-0.050175	0.091538	10.681908	0.152352	0.198799	0.866794	0.999141	-0.009324	0.006879	0.039783
07653	-0.041379	0.066562	10.700625	0.163278	0.174836	0.885550	0.999141	-0.009330	0.006867	0.039786
07654	-0.043464	0.085785	10.692736	0.159262	0.193941	0.877536	0.999142	-0.009340	0.006856	0.039766
07655	-0.036161	0.079803	10.703571	0.166694	0.188856	0.888277	0.999142	-0.009349	0.006828	0.039757
07656	-0.044478	0.086177	10.692729	0.157748	0.194333	0.877552	0.999143	-0.009340	0.006842	0.039741
07657	-0.062060	0.076328	10.699176	0.141126	0.183241	0.884441	0.999142	-0.009352	0.006831	0.039754
07658	-0.059316	0.079578	10.678933	0.142837	0.186660	0.864120	0.999143	-0.009352	0.006813	0.039751
07659	-0.034951	0.083713	10.683318	0.166349	0.192808	0.867980	0.999144	-0.009357	0.006788	0.039730
07660	-0.060098	0.080090	10.678925	0.141399	0.187172	0.864130	0.999144	-0.009358	0.006790	0.039708
07661	-0.046887	0.087234	10.692710	0.154280	0.195482	0.877581	0.999145	-0.009356	0.006793	0.039697
07662	-0.055081	0.093549	10.681866	0.145201	0.201045	0.866851	0.999145	-0.009363	0.006773	0.039704
07663	-0.043154	0.078377	10.723784	0.158890	0.187298	0.908657	0.999146	-0.009358	0.006770	0.039681
07664	-0.046749	0.068860	10.700588	0.155587	0.177294	0.885624	0.999146	-0.009359	0.006769	0.039677
07665	-0.041023	0.075472	10.660104	0.159854	0.183828	0.844979	0.999147	-0.009353	0.006759	0.039654
07666	-0.049406	0.088613	10.692687	0.151039	0.196523	0.877608	0.999147	-0.009353	0.006764	0.039654
07667	-0.056159	0.075785	10.689732	0.145308	0.183391	0.874900	0.999147	-0.009368	0.006761	0.039634
07668	-0.039919	0.085995	10.683282	0.160655	0.194872	0.868030	0.999148	-0.009364	0.006776	0.039618
07669	-0.029666	0.083289	10.673883	0.170796	0.192932	0.858451	0.999148	-0.009372	0.006753	0.039612
07670	-0.050206	0.070447	10.700562	0.151507	0.178740	0.885659	0.999149	-0.009365	0.006748	0.039604
07671	-0.047732	0.073868	10.680318	0.153243	0.182119	0.865340	0.999149	-0.009369	0.006743	0.039595
07672	-0.065165	0.064121	10.686756	0.136668	0.171161	0.872215	0.999150	-0.009370	0.006732	0.039586
07673	-0.056388	0.080391	10.669464	0.143643	0.187944	0.854606	0.999150	-0.009379	0.006732	0.039565
07674	-0.043165	0.087361	10.683259	0.156605	0.196231	0.868065	0.999151	-0.009383	0.006735	0.039551
07675	-0.042186	0.068491	10.691150	0.159010	0.177717	0.876106	0.999152	-0.009388	0.006724	0.039532
07676	-0.039643	0.071899	10.670907	0.160837	0.181121	0.855787	0.999152	-0.009388	0.006722	0.039531
07677	-0.054226	0.072141	10.700531	0.146716	0.180449	0.885697	0.999152	-0.009381	0.006717	0.039536
07678	-0.031698	0.095371	10.697040	0.167185	0.205333	0.881547	0.999152	-0.009389	0.006709	0.039517
07679	-0.045859	0.088570	10.683238	0.152785	0.197571	0.868096	0.999152	-0.009405	0.006675	0.039513
07680	-0.038611	0.082688	10.694084	0.160356	0.192385	0.878853	0.999153	-0.009395	0.006676	0.039511
07681	-0.039165	0.083069	10.694079	0.159681	0.192540	0.878860	0.999153	-0.009390	0.006659	0.039513
07682	-0.073591	0.063314	10.706947	0.126797	0.170356	0.892593	0.999153	-0.009399	0.006649	0.039516
07683	-0.040239	0.083470	10.694072	0.158124	0.193034	0.878874	0.999153	-0.009399	0.006645	0.039517
07684	-0.056225	0.096011	10.672362	0.140603	0.204093	0.857377	0.999153	-0.009402	0.006636	0.039516
07685	-0.039773	0.064922	10.701964	0.159596	0.174872	0.886929	0.999153	-0.009413	0.006614	0.039519
07686	-0.041774	0.084344	10.694059	0.155688	0.193963	0.878893	0.999153	-0.009404	0.006602	0.039505
07687	-0.042272	0.084690	10.694054	0.154863	0.194233	0.878900	0.999154	-0.009411	0.006592	0.039497
07688	-0.049039	0.071839	10.691099	0.149074	0.180995	0.876194	0.999154	-0.009421	0.006593	0.039474
07689	-0.051176	0.090993	10.683193	0.145201	0.200091	0.868155	0.999154	-0.009432	0.006586	0.039479
07690	-0.060994	0.075100	10.700474	0.136637	0.183810	0.885773	0.999154	-0.009435	0.006572	0.039484
07691	-0.044639	0.085424	10.694039	0.151831	0.195300	0.878924	0.999155	-0.009432	0.006566	0.039468
07692	-0.051471	0.072822	10.691081	0.145996	0.182080	0.876218	0.999155	-0.009430	0.006568	0.039458
07693	-0.048844	0.083010	10.714266	0.147881	0.192639	0.899259	0.999156	-0.009427	0.006535	0.039441
07694	-0.056922	0.089428	10.703404	0.138719	0.198206	0.888507	0.999156	-0.009427	0.006532	0.039447
07695	-0.052993	0.073760	10.691067	0.143614	0.182728	0.876239	0.999156	-0.009423	0.006534	0.039433
07696	-0.039727	0.080930	10.704872	0.156240	0.190979	0.889721	0.999156	-0.009420	0.006508	0.039441
07697	-0.064744	0.077307	10.700437	0.131146	0.185346	0.885815	0.999157	-0.009424	0.006491	0.039428
07698	-0.046682	0.068361	10.701915	0.149623	0.178109	0.887019	0.999158	-0.009436	0.006486	0.039408
07699	-0.056405	0.093759	10.683143	0.137342	0.202525	0.868213	0.999157	-0.009438	0.006468	0.039415
07700	-0.047555	0.068783	10.701908	0.148087	0.178568	0.887033	0.999158	-0.009440	0.006453	0.039412
07701	-0.040555	0.062781	10.712766	0.155680	0.173447	0.897803	0.999158	-0.009456	0.006461	0.039402
07702	-0.050347	0.088151	10.693991	0.143278	0.197917	0.878994	0.999158	-0.009454	0.006430	0.039404
07703	-0.047581	0.091526	10.673751	0.145125	0.201271	0.858677	0.999158	-0.009459	0.006428	0.039394
07704	-0.049758	0.069649	10.701893	0.145046	0.179527	0.887059	0.999159	-0.009449	0.006419	0.039383
07705	-0.045709	0.101882	10.696929	0.146169	0.211970	0.881726	0.999159	-0.009465	0.006406	0.039368
07706	-0.052314	0.088912	10.693975	0.140286	0.198778	0.879018	0.999160	-0.009475	0.006390	0.039361
07707	-0.040344	0.066947	10.692512	0.153549	0.177988	0.877526	0.999160	-0.009482	0.006375	0.039362
07708	-0.059495	0.076237	10.691016	0.133632	0.186010	0.876312	0.999160	-0.009495	0.006379	0.039355
07709	-0.043177	0.086374	10.684592	0.148854	0.197499	0.869479	0.999160	-0.009504	0.006370	0.039344
07710	-0.046878	0.083459	10.704824	0.145606	0.194605	0.889805	0.999159	-0.009507	0.006359	0.039365
07711	-0.047434	0.083591	10.704821	0.144782	0.194932	0.889811	0.999160	-0.009523	0.006351	0.039340
07712	-0.037176	0.080825	10.695447	0.154706	0.193046	0.880269	0.999160	-0.009522	0.006334	0.039354
07713	-0.051451	0.074275	10.681624	0.140327	0.185229	0.866791	0.999160	-0.009528	0.006310	0.039343
07714	-0.045711	0.087439	10.684573	0.144722	0.198944	0.869509	0.999161	-0.009532	0.006296	0.039336
07715	-0.049665	0.084594	10.704803	0.141505	0.196095	0.889833	0.999161	-0.009535	0.006317	0.039323
07716	-0.047235	0.087889	10.684563	0.143086	0.199651	0.869518	0.999162	-0.009554	0.006291	0.039310
07717	-0.046319	0.068949	10.692475	0.145476	0.181036	0.877588	0.999162	-0.009557	0.006295	0.039310
07718	-0.059373	0.091260	10.693919	0.130708	0.202341	0.879072	0.999162	-0.009559	0.006284	0.039303
07719	-0.041395	0.082261	10.695421	0.149124	0.194958	0.880313	0.999161	-0.009572	0.006278	0.039310
07720	-0.046640	0.098195	10.707737	0.142589	0.211032	0.892572	0.999162	-0.009598	0.006260	0.039290
07721	-0.053324	0.085439	10.704778	0.136661	0.197870	0.889863	0.999162	-0.009588	0.006256	0.039284
07722	-0.049153	0.069669	10.692458	0.141631	0.182425	0.877616	0.999163	-0.009608	0.006241	0.039272
07723	-0.062039	0.091862	10.693899	0.126758	0.203650	0.879095	0.999163	-0.009603	0.006230	0.039284
07724	-0.033215	0.080057	10.686043	0.155957	0.194112	0.870805	0.999163	-0.009604	0.006215	0.039276
07725	-0.047694	0.080282	10.715634	0.141678	0.193536	0.900668	0.999164	-0.009609	0.006193	0.039252
07726	-0.058825	0.076923	10.681567	0.129985	0.188891	0.866857	0.999164	-0.009600	0.006189	0.039244
07727	-0.034683	0.080946	10.686031	0.153615	0.194916	0.870825	0.999164	-0.009620	0.006174	0.039262
07728	-0.059845	0.077278	10.681559	0.128381	0.189479	0.866866	0.999164	-0.009618	0.006160	0.039244
07729	-0.032762	0.091325	10.709211	0.154430	0.205982	0.893869	0.999165	-0.009627	0.006145	0.039221
07730	-0.054940	0.090751	10.684502	0.131780	0.203553	0.869589	0.999165	-0.009639	0.006143	0.039219
07731	-0.061717	0.078143	10.681542	0.125689	0.190481	0.866880	0.999166	-0.009628	0.006124	0.039207
07732	-0.046810	0.066244	10.703291	0.141438	0.180094	0.888461	0.999166	-0.009647	0.006101	0.039203
07733	-0.044224	0.069547	10.683054	0.143387	0.183401	0.868148	0.999166	-0.009640	0.006111	0.039202
07734	-0.044770	0.069716	10.683050	0.142765	0.183593	0.868153	0.999166	-0.009654	0.006096	0.039194
07735	-0.055927	0.072852	10.692403	0.131251	0.186052	0.877686	0.999167	-0.009651	0.006082	0.039191
07736	-0.061099	0.089072	10.704707	0.124906	0.201947	0.889931	0.999167	-0.009654	0.006082	0.039180
07737	-0.075564	0.082521	10.690867	0.110797	0.194087	0.876430	0.999168	-0.009646	0.006086	0.039163
07738	-0.033003	0.077494	10.696870	0.153767	0.192413	0.881678	0.999168	-0.009649	0.006086	0.039153
07739	-0.041205	0.083819	10.685986	0.144830	0.197985	0.870891	0.999168	-0.009649	0.006079	0.039146
07740	-0.057168	0.055037	10.700307	0.131283	0.168198	0.885786	0.999169	-0.009649	0.006073	0.039139
07741	-0.053196	0.087294	10.695329	0.132692	0.200639	0.880425	0.999169	-0.009652	0.006085	0.039134
07742	-0.061525	0.093628	10.684441	0.123758	0.206212	0.869634	0.999169	-0.009652	0.006078	0.039128
07743	-0.048188	0.100895	10.698272	0.136622	0.214455	0.883147	0.999170	-0.009634	0.006073	0.039098
07744	-0.043919	0.085219	10.685964	0.141724	0.198940	0.870915	0.999170	-0.009644	0.006063	0.039098
07745	-0.053858	0.069197	10.703239	0.133341	0.182589	0.888523	0.999171	-0.009654	0.006071	0.039092
07746	-0.037406	0.079239	10.696843	0.148790	0.193938	0.881721	0.999171	-0.009657	0.006058	0.039077
07747	-0.030079	0.073348	10.707724	0.156476	0.188746	0.892523	0.999171	-0.009654	0.006045	0.039074
07748	-0.051959	0.072822	10.682997	0.133844	0.186405	0.868219	0.999172	-0.009667	0.006030	0.039052
07749	-0.046387	0.086064	10.685947	0.138185	0.200098	0.870940	0.999172	-0.009660	0.006023	0.039057
07750	-0.050067	0.083172	10.706175	0.134969	0.197183	0.891261	0.999172	-0.009674	0.006007	0.039048
07751	-0.047137	0.086452	10.685940	0.136943	0.200478	0.870948	0.999173	-0.009664	0.005992	0.039029
07752	-0.057051	0.070799	10.703212	0.128547	0.184132	0.888555	0.999174	-0.009659	0.006002	0.039008
07753	-0.046768	0.068051	10.693863	0.138825	0.182043	0.879044	0.999174	-0.009660	0.005990	0.039013
07754	-0.065764	0.077396	10.692315	0.118999	0.189896	0.877762	0.999174	-0.009662	0.005990	0.039003
07755	-0.044956	0.078377	10.717041	0.140156	0.192751	0.902085	0.999175	-0.009658	0.005994	0.038994
07756	-0.048600	0.068831	10.693850	0.136957	0.182612	0.879058	0.999175	-0.009654	0.005999	0.038984
07757	-0.049302	0.069159	10.693845	0.136334	0.182802	0.879063	0.999176	-0.009650	0.006004	0.038975
07758	-0.053030	0.066133	10.714073	0.133105	0.179889	0.899384	0.999175	-0.009671	0.005989	0.038983
07759	-0.061092	0.072437	10.703179	0.124184	0.185463	0.888584	0.999175	-0.009654	0.005985	0.038981
07760	-0.058357	0.075680	10.682944	0.126169	0.188754	0.868272	0.999175	-0.009678	0.005978	0.038985
07761	-0.045181	0.082627	10.696787	0.139023	0.196989	0.881797	0.999175	-0.009667	0.005987	0.038977
07762	-0.031837	0.083076	10.667212	0.151917	0.197992	0.851976	0.999176	-0.009663	0.005991	0.038968
07763	-0.046392	0.083264	10.696777	0.137778	0.197366	0.881806	0.999176	-0.009667	0.005973	0.038964
07764	-0.060596	0.076647	10.682925	0.123681	0.189510	0.868287	0.999176	-0.009663	0.005972	0.038966
07765	-0.047292	0.083822	10.696768	0.136533	0.197743	0.881815	0.999176	-0.009657	0.005964	0.038972
07766	-0.064876	0.074284	10.703144	0.119820	0.186790	0.888610	0.999177	-0.009649	0.005968	0.038955
07767	-0.048475	0.084561	10.696757	0.134919	0.198303	0.881825	0.999177	-0.009655	0.005949	0.038956
07768	-0.052107	0.075009	10.673567	0.131394	0.188172	0.858803	0.999177	-0.009652	0.005944	0.038946
07769	-0.049815	0.085207	10.696746	0.133109	0.198814	0.881838	0.999177	-0.009655	0.005927	0.038959
07770	-0.025539	0.089232	10.701261	0.156702	0.204791	0.885869	0.999177	-0.009660	0.005907	0.038947
07771	-0.053807	0.082481	10.716969	0.128989	0.196262	0.902161	0.999178	-0.009673	0.005892	0.038932
07772	-0.046388	0.069805	10.684449	0.136424	0.183955	0.869635	0.999178	-0.009672	0.005882	0.038914
07773	-0.054877	0.076195	10.673545	0.127317	0.189598	0.858827	0.999179	-0.009681	0.005892	0.038907
07774	-0.047738	0.070174	10.684440	0.134872	0.184450	0.869647	0.999179	-0.009691	0.005857	0.038906
07775	-0.049606	0.089511	10.676492	0.130897	0.203565	0.861552	0.999179	-0.009686	0.005855	0.038898
07776	-0.048904	0.077481	10.727847	0.133115	0.192153	0.913004	0.999179	-0.009695	0.005824	0.038902
07777	-0.048986	0.070910	10.684430	0.132476	0.185182	0.869664	0.999180	-0.009688	0.005822	0.038872
07778	-0.060565	0.074282	10.693753	0.120714	0.187682	0.879166	0.999180	-0.009692	0.005818	0.038886
07779	-0.068804	0.080605	10.682846	0.111765	0.193304	0.868351	0.999180	-0.009694	0.005809	0.038877
07780	-0.041396	0.087781	10.667142	0.137951	0.202531	0.852081	0.999181	-0.009697	0.005797	0.038862
07781	-0.051501	0.072080	10.684410	0.129374	0.186237	0.869684	0.999181	-0.009698	0.005803	0.038851
07782	-0.073784	0.078419	10.703057	0.106848	0.191159	0.888670	0.999182	-0.009705	0.005781	0.038830
07783	-0.052416	0.072589	10.684402	0.127882	0.186829	0.869691	0.999182	-0.009705	0.005771	0.038832
07784	-0.036411	0.089632	10.721439	0.143082	0.205519	0.906264	0.999182	-0.009708	0.005774	0.038836
07785	-0.067662	0.066466	10.670530	0.112683	0.179463	0.856160	0.999183	-0.009705	0.005763	0.038807
07786	-0.047049	0.067603	10.695289	0.133650	0.182488	0.880527	0.999183	-0.009710	0.005773	0.038793
07787	-0.077188	0.080220	10.703019	0.102788	0.192726	0.888682	0.999184	-0.009702	0.005764	0.038779
07788	-0.029815	0.059323	10.696865	0.151369	0.175313	0.881876	0.999184	-0.009693	0.005756	0.038782
07789	-0.044108	0.100928	10.690273	0.133558	0.215459	0.875148	0.999185	-0.009691	0.005743	0.038769
07790	-0.055350	0.104105	10.699590	0.121825	0.218115	0.884636	0.999185	-0.009712	0.005719	0.038754
07791	-0.049465	0.069141	10.695269	0.129763	0.184025	0.880549	0.999186	-0.009722	0.005694	0.038738
07792	-0.043765	0.082332	10.698219	0.134166	0.197749	0.883269	0.999186	-0.009730	0.005687	0.038724
07793	-0.056750	0.056675	10.692306	0.122930	0.171226	0.877842	0.999187	-0.009733	0.005681	0.038712
07794	-0.060216	0.095239	10.676388	0.116060	0.209107	0.861617	0.999188	-0.009723	0.005666	0.038700
07795	-0.045549	0.083290	10.698204	0.131853	0.198524	0.883283	0.999188	-0.009733	0.005669	0.038697
07796	-0.059895	0.076582	10.684335	0.117663	0.190725	0.869740	0.999187	-0.009736	0.005651	0.038702
07797	-0.052773	0.070563	10.695244	0.125061	0.185610	0.880577	0.999188	-0.009752	0.005642	0.038689
07798	-0.036418	0.080579	10.688879	0.140534	0.196958	0.873819	0.999188	-0.009754	0.005646	0.038684
07799	-0.058855	0.086907	10.707503	0.118052	0.201903	0.892776	0.999189	-0.009763	0.005646	0.038662
07800	-0.049808	0.054897	10.682964	0.128749	0.170638	0.868395	0.999188	-0.009781	0.005619	0.038676
07801	-0.053217	0.093135	10.667044	0.121862	0.208495	0.852162	0.999189	-0.009779	0.005622	0.038657
07802	-0.057268	0.090340	10.687264	0.118483	0.205721	0.872475	0.999189	-0.009787	0.005625	0.038657
07803	-0.056575	0.071633	10.695217	0.120724	0.187250	0.880599	0.999190	-0.009781	0.005625	0.038634
07804	-0.057267	0.072000	10.695211	0.119914	0.187499	0.880603	0.999190	-0.009786	0.005616	0.038626
07805	-0.062470	0.088187	10.707472	0.113370	0.203578	0.892795	0.999191	-0.009797	0.005595	0.038604
07806	-0.065901	0.078498	10.684286	0.110139	0.193431	0.869771	0.999191	-0.009797	0.005596	0.038604
07807	-0.039042	0.092252	10.712027	0.136303	0.209767	0.896887	0.999191	-0.009817	0.005595	0.038594
07808	-0.053455	0.085520	10.698150	0.122134	0.201962	0.883334	0.999191	-0.009815	0.005589	0.038596
07809	-0.063409	0.069820	10.715415	0.113397	0.185771	0.900932	0.999192	-0.009817	0.005571	0.038581
07810	-0.043489	0.083181	10.688833	0.131379	0.200203	0.873875	0.999192	-0.009808	0.005551	0.038572
07811	-0.043914	0.083555	10.688828	0.130633	0.200420	0.873880	0.999193	-0.009809	0.005538	0.038567
07812	-0.041526	0.093552	10.712007	0.132368	0.210964	0.896913	0.999192	-0.009822	0.005528	0.038568
07813	-0.065284	0.070704	10.715398	0.110324	0.186644	0.900949	0.999193	-0.009832	0.005519	0.038558
07814	-0.062495	0.073892	10.695169	0.112384	0.189937	0.880642	0.999193	-0.009834	0.005512	0.038548
07815	-0.043067	0.093953	10.711997	0.130354	0.211685	0.896923	0.999193	-0.009836	0.005509	0.038542
07816	-0.035396	0.081215	10.679509	0.138113	0.199246	0.864437	0.999194	-0.009841	0.005482	0.038518
