// General information: 
//  MT Manager version: 2021.0.0 
//  XDA version: 2021.0.0 build 5908 rev 109668 built on 2021-04-19
// Device information: 
//  DeviceId: 00B43DEC
//  ProductCode: MTW2-3A7G6
//  Firmware Version: 4.3.5
//  Hardware Version: 1.1.0
// Device settings: 
//  Filter Profile: human(46.1)
//  Option Flags: Orientation Smoother Disabled, Position/Velocity Smoother Disabled, Continuous Zero Rotation Update Disabled, AHS Disabled, ICC Disabled
// Coordinate system: ENU
PacketCounter	Acc_X	Acc_Y	Acc_Z	FreeAcc_E	FreeAcc_N	FreeAcc_U	Quat_q0	Quat_q1	Quat_q2	Quat_q3
07551	0.073678	0.147664	9.906428	0.030531	0.038399	0.094994	0.992009	-0.002372	0.000889	-0.126142
07552	0.056572	0.174877	9.923477	0.020610	0.068647	0.112232	0.992007	-0.002366	0.000900	-0.126158
07553	0.091147	0.175708	9.918316	0.054368	0.060935	0.107268	0.992010	-0.002380	0.000901	-0.126136
07554	0.067995	0.148855	9.926899	0.025320	0.040509	0.115446	0.992010	-0.002359	0.000910	-0.126133
07555	0.067159	0.148956	9.926903	0.024640	0.040646	0.115447	0.992009	-0.002361	0.000910	-0.126143
07556	0.062823	0.160690	9.904752	0.023525	0.053341	0.093395	0.992010	-0.002365	0.000914	-0.126134
07557	0.077080	0.171254	9.927455	0.039917	0.059878	0.116283	0.992010	-0.002371	0.000917	-0.126134
07558	0.083792	0.176647	9.938809	0.047765	0.063159	0.127730	0.992011	-0.002352	0.000924	-0.126126
07559	0.078594	0.170218	9.907014	0.041306	0.058452	0.095842	0.992009	-0.002360	0.000915	-0.126139
07560	0.056382	0.161617	9.925227	0.017596	0.055524	0.113844	0.992010	-0.002353	0.000933	-0.126132
07561	0.083276	0.157275	9.908739	0.042980	0.044541	0.097456	0.992009	-0.002346	0.000943	-0.126142
07562	0.090043	0.162717	9.920095	0.050793	0.047868	0.108905	0.992010	-0.002339	0.000935	-0.126137
07563	0.068018	0.154285	9.938298	0.027079	0.044905	0.126903	0.992009	-0.002328	0.000935	-0.126140
07564	0.071138	0.171611	9.927493	0.034667	0.060748	0.116298	0.992008	-0.002318	0.000947	-0.126149
07565	0.080932	0.175815	9.918403	0.045307	0.062461	0.107304	0.992009	-0.002327	0.000945	-0.126140
07566	0.054788	0.149991	9.947413	0.013407	0.043721	0.135902	0.992011	-0.002318	0.000952	-0.126127
07567	0.079102	0.175780	9.918418	0.043803	0.062736	0.107309	0.992009	-0.002316	0.000968	-0.126139
07568	0.084883	0.162737	9.920140	0.046253	0.048675	0.108923	0.992007	-0.002323	0.000962	-0.126156
07569	0.062505	0.164797	9.895724	0.025207	0.056543	0.084413	0.992008	-0.002322	0.000959	-0.126149
07570	0.059392	0.184139	9.925822	0.026915	0.075806	0.114694	0.992007	-0.002323	0.000973	-0.126160
07571	0.083295	0.180852	9.929807	0.049342	0.066538	0.118770	0.992008	-0.002319	0.000976	-0.126151
07572	0.067242	0.170115	9.907100	0.031528	0.060214	0.095868	0.992007	-0.002313	0.000996	-0.126161
07573	0.072816	0.157145	9.908823	0.034064	0.046131	0.097483	0.992005	-0.002312	0.001014	-0.126177
07574	0.079455	0.162363	9.920191	0.041833	0.049482	0.108939	0.992004	-0.002321	0.001013	-0.126178
07575	0.078732	0.162280	9.920198	0.041051	0.049578	0.108942	0.992005	-0.002312	0.001008	-0.126177
07576	0.070480	0.157034	9.908842	0.031677	0.046531	0.097489	0.992007	-0.002302	0.001002	-0.126160
07577	0.062110	0.151776	9.897485	0.022383	0.043409	0.086036	0.992007	-0.002293	0.001010	-0.126159
07578	0.079437	0.161574	9.899764	0.041696	0.048314	0.088508	0.992007	-0.002280	0.001012	-0.126158
07579	0.075670	0.162762	9.920214	0.038007	0.050113	0.108951	0.992008	-0.002279	0.000997	-0.126149
07580	0.085576	0.167016	9.911136	0.048715	0.051788	0.099970	0.992008	-0.002276	0.001011	-0.126148
07581	0.073932	0.162726	9.920228	0.036364	0.050436	0.108956	0.992009	-0.002272	0.001012	-0.126139
07582	0.073053	0.162759	9.920234	0.035653	0.050568	0.108957	0.992009	-0.002269	0.001016	-0.126145
07583	0.064756	0.157383	9.908875	0.026359	0.047495	0.097500	0.992011	-0.002266	0.001015	-0.126128
07584	0.089593	0.172418	9.922530	0.054185	0.055694	0.111441	0.992010	-0.002268	0.001026	-0.126131
07585	0.070504	0.162620	9.920254	0.033440	0.051004	0.108963	0.992011	-0.002271	0.001033	-0.126130
07586	0.065235	0.156101	9.888451	0.027073	0.046227	0.077065	0.992011	-0.002263	0.001040	-0.126128
07587	0.076313	0.168042	9.931633	0.040408	0.054550	0.120428	0.992011	-0.002259	0.001030	-0.126126
07588	0.068158	0.162650	9.920270	0.031073	0.051451	0.108968	0.992013	-0.002260	0.001024	-0.126115
07589	0.095694	0.147664	9.946458	0.053838	0.029689	0.135137	0.992010	-0.002246	0.001033	-0.126137
07590	0.052281	0.170294	9.907187	0.017772	0.062715	0.095887	0.992013	-0.002251	0.001032	-0.126114
07591	0.066405	0.181031	9.929931	0.034078	0.069394	0.118814	0.992011	-0.002247	0.001040	-0.126126
07592	0.086405	0.160706	9.944756	0.048337	0.044350	0.133526	0.992012	-0.002234	0.001041	-0.126122
07593	0.063186	0.144582	9.910650	0.022046	0.034747	0.099133	0.992012	-0.002235	0.001039	-0.126123
07594	0.088044	0.159649	9.924326	0.049808	0.042982	0.113095	0.992009	-0.002232	0.001046	-0.126140
07595	0.072191	0.148949	9.901589	0.032059	0.036626	0.090165	0.992007	-0.002221	0.001049	-0.126157
07596	0.078869	0.154345	9.912967	0.039877	0.039980	0.101634	0.992008	-0.002225	0.001055	-0.126151
07597	0.057426	0.163935	9.940758	0.021486	0.054356	0.129416	0.992008	-0.002221	0.001069	-0.126151
07598	0.070225	0.167183	9.911254	0.035148	0.054458	0.100013	0.992007	-0.002212	0.001082	-0.126161
07599	0.061856	0.161898	9.899884	0.025800	0.051318	0.088547	0.992008	-0.002204	0.001074	-0.126153
07600	0.068559	0.167249	9.911265	0.033445	0.054795	0.100018	0.992008	-0.002213	0.001074	-0.126154
07601	0.092477	0.164087	9.915312	0.055939	0.045511	0.104151	0.992007	-0.002192	0.001084	-0.126157
07602	0.048709	0.157650	9.908963	0.011954	0.050079	0.097515	0.992010	-0.002193	0.001074	-0.126135
07603	0.094536	0.152436	9.937495	0.054609	0.033149	0.126221	0.992012	-0.002171	0.001069	-0.126123
07604	0.072835	0.172969	9.922658	0.038823	0.058427	0.111497	0.992013	-0.002175	0.001074	-0.126116
07605	0.085775	0.176158	9.893164	0.052473	0.058498	0.082104	0.992013	-0.002167	0.001080	-0.126113
07606	0.059576	0.150417	9.922087	0.020480	0.039715	0.110618	0.992012	-0.002158	0.001079	-0.126122
07607	0.083563	0.158070	9.883528	0.045637	0.041358	0.072266	0.992014	-0.002155	0.001053	-0.126108
07608	0.066834	0.174122	9.943116	0.032747	0.060628	0.131939	0.992014	-0.002166	0.001049	-0.126108
07609	0.059276	0.186963	9.941388	0.028662	0.074975	0.130311	0.992015	-0.002152	0.001060	-0.126094
07610	0.088245	0.134356	9.927898	0.043846	0.016624	0.116401	0.992016	-0.002142	0.001068	-0.126088
07611	0.074012	0.160283	9.924430	0.036520	0.045196	0.113143	0.992017	-0.002135	0.001060	-0.126080
07612	0.051248	0.133324	9.932904	0.007574	0.024652	0.121210	0.992018	-0.002138	0.001052	-0.126074
07613	0.080258	0.165631	9.935822	0.043525	0.048728	0.124624	0.992017	-0.002137	0.001042	-0.126081
07614	0.090318	0.170103	9.926769	0.054155	0.050508	0.115674	0.992019	-0.002123	0.001029	-0.126070
07615	0.071504	0.160555	9.924444	0.033231	0.045866	0.113151	0.992020	-0.002119	0.001015	-0.126058
07616	0.094718	0.138878	9.918878	0.050410	0.019263	0.107468	0.992019	-0.002139	0.001028	-0.126065
07617	0.041788	0.164520	9.940826	0.005425	0.057297	0.129422	0.992019	-0.002131	0.001013	-0.126066
07618	0.072261	0.159269	9.904028	0.033816	0.044751	0.092726	0.992021	-0.002128	0.001023	-0.126053
07619	0.093680	0.175404	9.938193	0.058479	0.054652	0.127172	0.992022	-0.002129	0.001028	-0.126039
07620	0.084735	0.151534	9.917171	0.043979	0.034109	0.105847	0.992023	-0.002137	0.001018	-0.126035
07621	0.066677	0.160017	9.924486	0.028384	0.046929	0.113161	0.992022	-0.002141	0.001013	-0.126041
07622	0.079298	0.134185	9.927975	0.034053	0.018795	0.116435	0.992022	-0.002142	0.001010	-0.126041
07623	0.086593	0.168630	9.906401	0.049693	0.050470	0.095274	0.992024	-0.002141	0.000991	-0.126025
07624	0.075098	0.164379	9.915454	0.037371	0.049080	0.104221	0.992023	-0.002128	0.001006	-0.126031
07625	0.059416	0.142847	9.935296	0.016830	0.031921	0.123748	0.992023	-0.002137	0.001009	-0.126035
07626	0.076668	0.152551	9.937647	0.035976	0.036998	0.126292	0.992025	-0.002133	0.001009	-0.126022
07627	0.086590	0.156851	9.928609	0.046661	0.038784	0.117353	0.992024	-0.002138	0.001001	-0.126025
07628	0.078363	0.151306	9.917227	0.037416	0.035643	0.105869	0.992024	-0.002142	0.001008	-0.126023
07629	0.074301	0.152412	9.937667	0.033517	0.037559	0.126298	0.992026	-0.002134	0.000999	-0.126008
07630	0.077625	0.169625	9.926884	0.040936	0.053500	0.115721	0.992026	-0.002145	0.000985	-0.126011
07631	0.087340	0.173860	9.917853	0.051519	0.055301	0.106786	0.992029	-0.002138	0.001009	-0.125985
07632	0.064445	0.146863	9.926293	0.022475	0.034809	0.114815	0.992029	-0.002143	0.000976	-0.125986
07633	0.074566	0.151201	9.917258	0.033133	0.036580	0.105880	0.992029	-0.002138	0.000978	-0.125986
07634	0.092502	0.179424	9.929265	0.057384	0.059212	0.118287	0.992031	-0.002127	0.000974	-0.125971
07635	0.062180	0.147195	9.926303	0.019964	0.035358	0.114818	0.992031	-0.002117	0.000970	-0.125969
07636	0.065381	0.164398	9.915522	0.027330	0.051311	0.104243	0.992034	-0.002125	0.000967	-0.125952
07637	0.053922	0.159925	9.924565	0.015004	0.049769	0.113177	0.992035	-0.002121	0.000964	-0.125940
07638	0.088611	0.161170	9.919646	0.048919	0.042260	0.108453	0.992039	-0.002113	0.000966	-0.125912
07639	0.076436	0.138598	9.919039	0.031414	0.023328	0.107538	0.992039	-0.002106	0.000958	-0.125911
07640	0.068886	0.151653	9.917292	0.027292	0.037668	0.105894	0.992039	-0.002092	0.000961	-0.125913
07641	0.069459	0.188176	9.936592	0.036714	0.072842	0.125595	0.992040	-0.002116	0.000951	-0.125901
07642	0.082143	0.162184	9.940106	0.042376	0.044719	0.128890	0.992042	-0.002114	0.000946	-0.125883
07643	0.063037	0.163210	9.895129	0.024437	0.050825	0.083828	0.992041	-0.002109	0.000941	-0.125893
07644	0.076377	0.155829	9.908286	0.035498	0.040057	0.096974	0.992040	-0.002101	0.000952	-0.125904
07645	0.080289	0.191391	9.907156	0.048015	0.073490	0.096253	0.992039	-0.002103	0.000934	-0.125910
07646	0.068223	0.168729	9.906543	0.030545	0.054526	0.095330	0.992042	-0.002095	0.000937	-0.125886
07647	0.074771	0.174115	9.917951	0.038146	0.058114	0.106830	0.992040	-0.002108	0.000937	-0.125901
07648	0.086782	0.129973	9.911821	0.038755	0.012447	0.100283	0.992040	-0.002102	0.000929	-0.125904
07649	0.073394	0.174114	9.917962	0.036538	0.058431	0.106835	0.992041	-0.002102	0.000913	-0.125893
07650	0.086881	0.166766	9.931124	0.047498	0.047682	0.119989	0.992042	-0.002087	0.000914	-0.125888
07651	0.086023	0.166976	9.931128	0.046681	0.047906	0.119992	0.992041	-0.002077	0.000914	-0.125893
07652	0.070357	0.156211	9.908325	0.028977	0.041496	0.096989	0.992041	-0.002077	0.000913	-0.125893
07653	0.069589	0.156200	9.908331	0.028111	0.041696	0.096991	0.992044	-0.002078	0.000905	-0.125872
07654	0.076264	0.161579	9.919742	0.035781	0.045240	0.108496	0.992040	-0.002085	0.000902	-0.125901
07655	0.101128	0.176955	9.933535	0.063296	0.053688	0.122592	0.992041	-0.002067	0.000881	-0.125896
07656	0.085664	0.166278	9.910726	0.045567	0.047255	0.099586	0.992045	-0.002064	0.000876	-0.125868
07657	0.081705	0.167401	9.931158	0.041624	0.049036	0.120009	0.992048	-0.002057	0.000861	-0.125840
07658	0.072980	0.143525	9.910111	0.027273	0.028396	0.098653	0.992046	-0.002070	0.000859	-0.125854
07659	0.073547	0.179993	9.929413	0.036788	0.063511	0.118358	0.992045	-0.002070	0.000860	-0.125863
07660	0.068203	0.144391	9.930551	0.022668	0.030333	0.119076	0.992048	-0.002068	0.000856	-0.125844
07661	0.096234	0.158649	9.923930	0.053334	0.037085	0.112765	0.992049	-0.002056	0.000853	-0.125831
07662	0.059913	0.157525	9.928795	0.017757	0.044876	0.117421	0.992047	-0.002049	0.000851	-0.125845
07663	0.069718	0.162010	9.919783	0.028456	0.046690	0.108513	0.992048	-0.002043	0.000856	-0.125842
07664	0.087668	0.190019	9.931834	0.052733	0.069271	0.120970	0.992048	-0.002056	0.000849	-0.125838
07665	0.078811	0.166255	9.910783	0.038344	0.048729	0.099609	0.992048	-0.002041	0.000854	-0.125841
07666	0.074605	0.167491	9.931212	0.034450	0.050567	0.120029	0.992049	-0.002040	0.000853	-0.125836
07667	0.073173	0.149344	9.921569	0.028486	0.033366	0.110178	0.992047	-0.002026	0.000845	-0.125845
07668	0.072998	0.167864	9.931218	0.032769	0.050992	0.120032	0.992050	-0.002020	0.000845	-0.125824
07669	0.072181	0.167865	9.931224	0.031982	0.051171	0.120034	0.992049	-0.002021	0.000844	-0.125833
07670	0.060565	0.174069	9.897626	0.022461	0.060572	0.086444	0.992049	-0.002035	0.000838	-0.125834
07671	0.084135	0.141748	9.934777	0.036870	0.023221	0.123361	0.992050	-0.002041	0.000837	-0.125826
07672	0.073045	0.166240	9.910827	0.032556	0.050021	0.099624	0.992049	-0.002047	0.000842	-0.125831
07673	0.068909	0.167334	9.931256	0.028699	0.051828	0.120040	0.992052	-0.002032	0.000842	-0.125812
07674	0.082078	0.170866	9.901830	0.042507	0.052013	0.090729	0.992051	-0.002021	0.000842	-0.125815
07675	0.070676	0.155766	9.953456	0.027370	0.039670	0.142122	0.992050	-0.002027	0.000848	-0.125826
07676	0.077051	0.171881	9.922267	0.037770	0.053988	0.111148	0.992053	-0.002022	0.000845	-0.125798
07677	0.069036	0.155570	9.953470	0.025651	0.040077	0.142124	0.992051	-0.002039	0.000839	-0.125819
07678	0.064863	0.167487	9.931280	0.024540	0.052846	0.120046	0.992052	-0.002016	0.000826	-0.125811
07679	0.084844	0.158110	9.903632	0.041526	0.038935	0.092407	0.992053	-0.002027	0.000820	-0.125804
07680	0.073896	0.171782	9.922292	0.034340	0.054886	0.111156	0.992053	-0.002040	0.000827	-0.125799
07681	0.086566	0.146002	9.925846	0.040183	0.026798	0.114492	0.992053	-0.002028	0.000828	-0.125799
07682	0.068910	0.172898	9.942724	0.029540	0.056919	0.131572	0.992057	-0.002028	0.000819	-0.125774
07683	0.071482	0.161135	9.964924	0.028924	0.044666	0.153654	0.992055	-0.002021	0.000828	-0.125783
07684	0.087896	0.163439	9.915093	0.045891	0.043141	0.103943	0.992055	-0.002020	0.000827	-0.125788
07685	0.069632	0.172089	9.922318	0.030177	0.055847	0.111164	0.992057	-0.002000	0.000821	-0.125774
07686	0.075514	0.159284	9.924099	0.032712	0.041858	0.112835	0.992057	-0.002012	0.000831	-0.125773
07687	0.078797	0.165776	9.955949	0.037211	0.047027	0.144773	0.992058	-0.002001	0.000815	-0.125766
07688	0.066826	0.153734	9.912686	0.022690	0.038856	0.101314	0.992058	-0.002017	0.000805	-0.125762
07689	0.090954	0.150762	9.916900	0.045124	0.029998	0.105628	0.992057	-0.002001	0.000799	-0.125767
07690	0.069387	0.171224	9.901920	0.029179	0.055100	0.090760	0.992061	-0.001999	0.000780	-0.125739
07691	0.072185	0.159429	9.924122	0.028557	0.042851	0.112844	0.992061	-0.002000	0.000777	-0.125741
07692	0.078107	0.146581	9.925907	0.031099	0.028886	0.114519	0.992059	-0.001998	0.000781	-0.125753
07693	0.087949	0.151190	9.916921	0.041745	0.030781	0.105640	0.992061	-0.001979	0.000773	-0.125737
07694	0.080438	0.164388	9.915141	0.037555	0.045076	0.103969	0.992064	-0.001962	0.000761	-0.125719
07695	0.083125	0.152643	9.937345	0.036874	0.032801	0.126055	0.992064	-0.001971	0.000759	-0.125717
07696	0.078452	0.146079	9.905506	0.030820	0.027979	0.094118	0.992062	-0.001967	0.000740	-0.125731
07697	0.082311	0.171053	9.947002	0.040312	0.050740	0.135914	0.992062	-0.001961	0.000747	-0.125733
07698	0.052588	0.167544	9.910935	0.010963	0.055034	0.099644	0.992061	-0.001962	0.000743	-0.125736
07699	0.076644	0.164514	9.915169	0.033433	0.046136	0.103979	0.992060	-0.001966	0.000741	-0.125750
07700	0.086605	0.168863	9.906191	0.044166	0.047993	0.095107	0.992060	-0.001969	0.000735	-0.125745
07701	0.067877	0.148332	9.946364	0.020506	0.032341	0.134941	0.992060	-0.001958	0.000735	-0.125749
07702	0.063604	0.160147	9.924169	0.019383	0.045060	0.112856	0.992063	-0.001966	0.000729	-0.125726
07703	0.088206	0.175509	9.938057	0.046831	0.053716	0.127056	0.992063	-0.001960	0.000722	-0.125721
07704	0.086808	0.157234	9.928417	0.040966	0.036416	0.117203	0.992065	-0.001964	0.000726	-0.125710
07705	0.089884	0.174440	9.917658	0.048338	0.052491	0.106655	0.992066	-0.001967	0.000721	-0.125704
07706	0.071073	0.164549	9.915210	0.027549	0.047694	0.103990	0.992066	-0.001968	0.000716	-0.125701
07707	0.070222	0.164679	9.915214	0.026730	0.047889	0.103991	0.992067	-0.001954	0.000717	-0.125692
07708	0.083402	0.157396	9.928444	0.037596	0.037342	0.117213	0.992067	-0.001958	0.000723	-0.125693
07709	0.082512	0.157375	9.928452	0.036725	0.037569	0.117215	0.992070	-0.001958	0.000716	-0.125667
07710	0.078409	0.169270	9.906252	0.035669	0.050231	0.095130	0.992070	-0.001948	0.000700	-0.125672
07711	0.092112	0.162107	9.919480	0.046520	0.039684	0.108356	0.992070	-0.001941	0.000667	-0.125666
07712	0.084168	0.156784	9.908046	0.037297	0.036498	0.096819	0.992072	-0.001935	0.000669	-0.125657
07713	0.072718	0.152255	9.917028	0.024901	0.034953	0.105683	0.992076	-0.001949	0.000655	-0.125623
07714	0.108036	0.171930	9.921966	0.063872	0.045286	0.111047	0.992076	-0.001944	0.000658	-0.125621
07715	0.081876	0.156538	9.908069	0.034650	0.037102	0.096826	0.992078	-0.001952	0.000643	-0.125611
07716	0.070483	0.152052	9.917047	0.022284	0.035623	0.105687	0.992079	-0.001954	0.000636	-0.125598
07717	0.066396	0.153149	9.937463	0.018149	0.037620	0.126090	0.992079	-0.001955	0.000621	-0.125603
07718	0.087599	0.180236	9.929176	0.045380	0.058724	0.118233	0.992079	-0.001967	0.000617	-0.125600
07719	0.075626	0.157457	9.928505	0.028015	0.039680	0.117236	0.992081	-0.001956	0.000611	-0.125582
07720	0.074778	0.157506	9.928511	0.027178	0.039893	0.117237	0.992083	-0.001960	0.000615	-0.125571
07721	0.088028	0.149985	9.941758	0.038104	0.029393	0.130475	0.992079	-0.001975	0.000615	-0.125600
07722	0.090627	0.148688	9.921359	0.040527	0.027933	0.110077	0.992077	-0.001989	0.000614	-0.125616
07723	0.076201	0.174353	9.917774	0.032935	0.056423	0.106697	0.992077	-0.001977	0.000613	-0.125611
07724	0.082196	0.161595	9.919576	0.035390	0.042552	0.108390	0.992077	-0.001982	0.000604	-0.125612
07725	0.081323	0.161552	9.919583	0.034427	0.042865	0.108393	0.992080	-0.001988	0.000603	-0.125590
07726	0.069677	0.156917	9.928557	0.021920	0.041452	0.117244	0.992079	-0.002009	0.000601	-0.125598
07727	0.076001	0.173030	9.897397	0.032437	0.055915	0.086303	0.992080	-0.002003	0.000606	-0.125593
07728	0.071266	0.155808	9.908162	0.023521	0.040297	0.096846	0.992078	-0.002010	0.000602	-0.125605
07729	0.077819	0.161344	9.919615	0.030982	0.043890	0.108399	0.992078	-0.002001	0.000596	-0.125604
07730	0.076984	0.161451	9.919620	0.030208	0.044042	0.108401	0.992080	-0.001996	0.000599	-0.125593
07731	0.068905	0.156035	9.908175	0.021088	0.040807	0.096850	0.992079	-0.001989	0.000593	-0.125598
07732	0.071589	0.144197	9.930390	0.020501	0.028486	0.118945	0.992080	-0.001997	0.000594	-0.125594
07733	0.067670	0.174307	9.917837	0.024490	0.058644	0.106708	0.992079	-0.001982	0.000612	-0.125600
07734	0.091064	0.153053	9.912493	0.042060	0.032211	0.101263	0.992078	-0.001992	0.000611	-0.125604
07735	0.080081	0.166828	9.931105	0.034676	0.048189	0.119964	0.992081	-0.001989	0.000609	-0.125582
07736	0.068721	0.173318	9.897445	0.025378	0.057419	0.086315	0.992081	-0.001970	0.000594	-0.125586
07737	0.085561	0.165019	9.890299	0.039558	0.045138	0.079176	0.992080	-0.001976	0.000598	-0.125593
07738	0.074054	0.160559	9.899259	0.027149	0.043621	0.088017	0.992081	-0.001969	0.000590	-0.125583
07739	0.063136	0.174632	9.917861	0.019614	0.059777	0.106712	0.992079	-0.001964	0.000571	-0.125596
07740	0.069268	0.161895	9.919669	0.022193	0.045784	0.108414	0.992080	-0.001964	0.000569	-0.125594
07741	0.068569	0.161990	9.919673	0.021334	0.046083	0.108415	0.992078	-0.001958	0.000553	-0.125610
07742	0.089700	0.189369	9.911423	0.048533	0.067262	0.100604	0.992081	-0.001952	0.000553	-0.125586
07743	0.060234	0.174951	9.917873	0.016225	0.060643	0.106713	0.992080	-0.001961	0.000541	-0.125593
07744	0.094513	0.158187	9.903598	0.045367	0.036012	0.092455	0.992081	-0.001953	0.000549	-0.125585
07745	0.079034	0.136527	9.923309	0.024883	0.018570	0.111826	0.992080	-0.001952	0.000549	-0.125588
07746	0.057319	0.156733	9.908238	0.008929	0.043641	0.096856	0.992081	-0.001944	0.000543	-0.125583
07747	0.088666	0.159426	9.924021	0.039785	0.038279	0.112856	0.992079	-0.001947	0.000544	-0.125599
07748	0.080528	0.153860	9.912571	0.030565	0.035097	0.101296	0.992080	-0.001953	0.000543	-0.125588
07749	0.065423	0.150358	9.941927	0.014882	0.035275	0.130518	0.992081	-0.001956	0.000549	-0.125581
07750	0.068809	0.186012	9.940826	0.027127	0.068872	0.129841	0.992080	-0.001946	0.000548	-0.125588
07751	0.106598	0.168269	9.906169	0.059517	0.042593	0.095213	0.992080	-0.001952	0.000541	-0.125590
07752	0.069683	0.148349	9.901139	0.018903	0.032581	0.089736	0.992080	-0.001949	0.000555	-0.125590
07753	0.083263	0.159474	9.924067	0.034724	0.039637	0.112870	0.992080	-0.001942	0.000550	-0.125588
07754	0.071473	0.147547	9.880746	0.020575	0.031331	0.069347	0.992080	-0.001939	0.000540	-0.125591
07755	0.074570	0.154046	9.912615	0.024767	0.036638	0.101306	0.992080	-0.001948	0.000540	-0.125591
07756	0.081106	0.159497	9.924084	0.032169	0.040271	0.112876	0.992082	-0.001946	0.000522	-0.125573
07757	0.090646	0.134942	9.948121	0.034895	0.013939	0.136691	0.992082	-0.001948	0.000518	-0.125575
07758	0.065463	0.166853	9.910816	0.018697	0.051523	0.099598	0.992082	-0.001950	0.000514	-0.125575
07759	0.074921	0.142437	9.934852	0.021463	0.025156	0.123413	0.992082	-0.001934	0.000507	-0.125579
07760	0.074204	0.153431	9.892237	0.023792	0.036119	0.080923	0.992082	-0.001925	0.000505	-0.125575
07761	0.077615	0.178319	9.933755	0.032814	0.059059	0.122741	0.992081	-0.001937	0.000502	-0.125583
07762	0.094344	0.169875	9.926649	0.046985	0.046885	0.115641	0.992081	-0.001938	0.000500	-0.125585
07763	0.093528	0.169880	9.926657	0.046122	0.047164	0.115644	0.992080	-0.001941	0.000496	-0.125591
07764	0.077851	0.140500	9.894082	0.023897	0.022938	0.082643	0.992080	-0.001943	0.000493	-0.125592
07765	0.095477	0.168856	9.906272	0.047838	0.045904	0.095262	0.992077	-0.001937	0.000491	-0.125613
07766	0.059190	0.167451	9.910845	0.012148	0.053348	0.099598	0.992078	-0.001924	0.000479	-0.125611
07767	0.065260	0.154731	9.912670	0.014771	0.039436	0.101316	0.992078	-0.001929	0.000485	-0.125607
07768	0.078869	0.176599	9.892996	0.033622	0.057255	0.081977	0.992080	-0.001911	0.000489	-0.125595
07769	0.077568	0.147657	9.925971	0.024908	0.029071	0.114611	0.992079	-0.001915	0.000485	-0.125603
07770	0.084289	0.163967	9.894828	0.035502	0.043462	0.083699	0.992081	-0.001903	0.000468	-0.125588
07771	0.072947	0.159593	9.903758	0.023071	0.041923	0.092509	0.992082	-0.001907	0.000459	-0.125576
07772	0.075692	0.147829	9.925983	0.022419	0.029670	0.114616	0.992083	-0.001904	0.000447	-0.125572
07773	0.060755	0.155346	9.912689	0.009869	0.040571	0.101317	0.992084	-0.001883	0.000455	-0.125557
07774	0.085077	0.170916	9.926715	0.037198	0.049340	0.115671	0.992085	-0.001894	0.000451	-0.125554
07775	0.076908	0.165171	9.915253	0.028105	0.046067	0.104093	0.992085	-0.001900	0.000467	-0.125551
07776	0.079320	0.153607	9.937480	0.027443	0.033851	0.126201	0.992085	-0.001871	0.000463	-0.125552
07777	0.075176	0.165422	9.915263	0.026454	0.046510	0.104096	0.992084	-0.001897	0.000456	-0.125561
07778	0.074333	0.165137	9.915274	0.025602	0.046748	0.104097	0.992084	-0.001901	0.000464	-0.125564
07779	0.080310	0.152391	9.917108	0.028241	0.032812	0.105822	0.992085	-0.001891	0.000459	-0.125555
07780	0.093592	0.145330	9.930417	0.039228	0.022294	0.119132	0.992085	-0.001877	0.000463	-0.125556
07781	0.071721	0.165483	9.915287	0.023226	0.047373	0.104100	0.992084	-0.001885	0.000466	-0.125563
07782	0.067413	0.166333	9.935690	0.019108	0.049163	0.124483	0.992085	-0.001893	0.000463	-0.125550
07783	0.087662	0.156878	9.908220	0.036593	0.035360	0.097031	0.992084	-0.001891	0.000466	-0.125558
07784	0.076527	0.170996	9.926783	0.029015	0.051400	0.115688	0.992085	-0.001870	0.000450	-0.125549
07785	0.079434	0.170201	9.906391	0.031498	0.049924	0.095308	0.992085	-0.001870	0.000436	-0.125554
07786	0.064582	0.166740	9.935702	0.015786	0.050076	0.124484	0.992085	-0.001875	0.000429	-0.125553
07787	0.084928	0.157349	9.908236	0.033355	0.036259	0.097039	0.992083	-0.001877	0.000429	-0.125567
07788	0.087810	0.163968	9.940115	0.037452	0.041627	0.129010	0.992086	-0.001873	0.000428	-0.125548
07789	0.076296	0.170286	9.906414	0.028223	0.050838	0.095313	0.992085	-0.001869	0.000432	-0.125551
07790	0.068410	0.172490	9.947201	0.020791	0.054378	0.136074	0.992085	-0.001859	0.000431	-0.125557
07791	0.096018	0.168672	9.931224	0.046563	0.044033	0.120226	0.992082	-0.001870	0.000419	-0.125575
07792	0.066695	0.164760	9.894949	0.017472	0.048117	0.083726	0.992081	-0.001878	0.000423	-0.125582
07793	0.076374	0.158500	9.928667	0.025121	0.039323	0.117428	0.992079	-0.001876	0.000428	-0.125603
07794	0.068629	0.171315	9.926835	0.020874	0.053624	0.115696	0.992079	-0.001875	0.000429	-0.125602
07795	0.060618	0.165683	9.915358	0.011830	0.050353	0.104105	0.992079	-0.001884	0.000428	-0.125601
07796	0.077690	0.175665	9.917945	0.030825	0.055803	0.106912	0.992080	-0.001878	0.000432	-0.125595
07797	0.062214	0.153883	9.937598	0.010289	0.038344	0.126217	0.992083	-0.001883	0.000432	-0.125572
07798	0.082836	0.162981	9.919796	0.032641	0.042085	0.108651	0.992080	-0.001867	0.000429	-0.125593
07799	0.064214	0.153304	9.917211	0.011978	0.037066	0.105840	0.992079	-0.001850	0.000411	-0.125599
07800	0.049384	0.160705	9.903885	-0.000539	0.047868	0.092509	0.992082	-0.001850	0.000418	-0.125581
07801	0.084238	0.162399	9.899418	0.033514	0.040984	0.088280	0.992082	-0.001854	0.000398	-0.125577
07802	0.083952	0.180723	9.909069	0.037522	0.058756	0.098140	0.992083	-0.001855	0.000394	-0.125570
07803	0.072157	0.157863	9.908329	0.020347	0.039628	0.097062	0.992081	-0.001858	0.000392	-0.125584
07804	0.071402	0.157914	9.908334	0.019585	0.039805	0.097063	0.992081	-0.001850	0.000388	-0.125587
07805	0.066771	0.140602	9.919081	0.010719	0.024074	0.107580	0.992079	-0.001857	0.000394	-0.125601
07806	0.077243	0.181723	9.929483	0.031093	0.061183	0.118522	0.992081	-0.001851	0.000398	-0.125585
07807	0.090834	0.185299	9.900204	0.045235	0.061431	0.089373	0.992080	-0.001845	0.000379	-0.125594
07808	0.065106	0.177471	9.938384	0.017882	0.059821	0.127298	0.992081	-0.001837	0.000386	-0.125587
07809	0.067468	0.158061	9.908359	0.015615	0.040785	0.097066	0.992080	-0.001852	0.000381	-0.125595
07810	0.063239	0.159113	9.928749	0.011524	0.042584	0.117440	0.992081	-0.001834	0.000373	-0.125589
07811	0.083840	0.157623	9.953583	0.030682	0.035633	0.142386	0.992080	-0.001829	0.000367	-0.125596
07812	0.072484	0.163814	9.919864	0.021445	0.044812	0.108669	0.992080	-0.001838	0.000367	-0.125598
07813	0.057534	0.170992	9.906528	0.008922	0.055684	0.095323	0.992080	-0.001836	0.000368	-0.125594
07814	0.070590	0.145666	9.910227	0.015062	0.027642	0.098812	0.992079	-0.001814	0.000355	-0.125601
07815	0.063018	0.158560	9.908380	0.010726	0.042007	0.097067	0.992081	-0.001828	0.000346	-0.125588
07816	0.083488	0.156872	9.933227	0.029911	0.035011	0.122022	0.992079	-0.001815	0.000352	-0.125605
