// General information: 
//  MT Manager version: 2021.0.0 
//  XDA version: 2021.0.0 build 5908 rev 109668 built on 2021-04-19
// Device information: 
//  DeviceId: 00B43DF0
//  ProductCode: MTW2-3A7G6
//  Firmware Version: 4.3.5
//  Hardware Version: 1.1.0
// Device settings: 
//  Filter Profile: human(46.1)
//  Option Flags: Orientation Smoother Disabled, Position/Velocity Smoother Disabled, Continuous Zero Rotation Update Disabled, AHS Disabled, ICC Disabled
// Coordinate system: ENU
PacketCounter	Acc_X	Acc_Y	Acc_Z	FreeAcc_E	FreeAcc_N	FreeAcc_U	Quat_q0	Quat_q1	Quat_q2	Quat_q3
64468	-8.809244	3.097412	2.399613	0.110441	0.230364	-0.174763	0.366387	0.598178	0.075908	-0.708648
64469	-8.865636	3.126932	2.450695	0.087678	0.185350	-0.099756	0.365702	0.598617	0.076676	-0.708548
64470	-8.873925	3.132014	2.491963	0.057732	0.139223	-0.079077	0.365024	0.599082	0.077664	-0.708398
64471	-8.891346	3.155636	2.508632	0.059615	0.094573	-0.050784	0.364417	0.599515	0.078834	-0.708214
64472	-8.897757	3.138410	2.541257	0.024971	0.064958	-0.041670	0.363888	0.599905	0.080121	-0.708011
64473	-8.918391	3.122195	2.589431	-0.020390	0.031378	-0.015264	0.363403	0.600279	0.081491	-0.707787
64474	-8.951519	3.128405	2.581390	-0.006865	0.017287	0.014814	0.362931	0.600633	0.082885	-0.707567
64475	-8.972701	3.105609	2.616393	-0.044797	-0.004793	0.036048	0.362445	0.600971	0.084282	-0.707364
64476	-8.965615	3.095096	2.662336	-0.083667	-0.053486	0.038199	0.361921	0.601289	0.085640	-0.707200
64477	-8.990751	3.084974	2.693108	-0.109401	-0.080568	0.065824	0.361366	0.601589	0.086947	-0.707068
64478	-8.973361	3.091424	2.733841	-0.132784	-0.141829	0.062240	0.360752	0.601853	0.088159	-0.707007
64479	-8.959635	3.100853	2.743401	-0.129113	-0.185049	0.054715	0.360075	0.602085	0.089238	-0.707019
64480	-8.923245	3.078096	2.735493	-0.131672	-0.202792	0.011944	0.359352	0.602309	0.090202	-0.707075
64481	-8.906299	3.127721	2.716712	-0.080736	-0.257083	0.006308	0.358629	0.602477	0.091005	-0.707195
64482	-8.942527	3.107853	2.727072	-0.094813	-0.253604	0.035720	0.357927	0.602625	0.091670	-0.707339
64483	-8.961822	3.136995	2.720131	-0.065816	-0.280230	0.060064	0.357272	0.602742	0.092188	-0.707503
64484	-8.937556	3.163872	2.669368	-0.004739	-0.294937	0.032539	0.356684	0.602815	0.092583	-0.707685
64485	-8.946581	3.176558	2.688986	-0.007547	-0.323056	0.049262	0.356187	0.602853	0.092890	-0.707863
64486	-9.052622	3.142069	2.664965	-0.003466	-0.252302	0.130196	0.355729	0.602863	0.093129	-0.708054
64487	-9.041288	3.132780	2.649513	0.007086	-0.248395	0.112904	0.355324	0.602844	0.093225	-0.708261
64488	-8.958434	3.134554	2.600773	0.048855	-0.259173	0.024661	0.354927	0.602804	0.093178	-0.708500
64489	-8.897299	3.160389	2.543264	0.111706	-0.272420	-0.038666	0.354537	0.602798	0.093027	-0.708719
64490	-8.896734	3.211848	2.554155	0.136538	-0.318055	-0.021276	0.354241	0.602786	0.092882	-0.708898
64491	-8.967316	3.195785	2.576135	0.112643	-0.291903	0.044511	0.354038	0.602733	0.092780	-0.709057
64492	-8.989680	3.216430	2.569234	0.133606	-0.294408	0.069428	0.353936	0.602639	0.092720	-0.709195
64493	-8.970741	3.189907	2.534931	0.146815	-0.262418	0.035417	0.353926	0.602518	0.092713	-0.709304
64494	-8.961122	3.147641	2.507579	0.144567	-0.217910	0.007135	0.353996	0.602407	0.092618	-0.709377
64495	-8.940618	3.113966	2.446431	0.172631	-0.162896	-0.037202	0.354119	0.602309	0.092392	-0.709427
64496	-8.984125	3.115212	2.434935	0.182330	-0.133797	0.000406	0.354322	0.602257	0.092016	-0.709419
64497	-8.992019	3.080000	2.502144	0.104528	-0.133299	0.014561	0.354605	0.602229	0.091529	-0.709365
64498	-8.998924	3.030932	2.528524	0.049045	-0.098229	0.013224	0.354939	0.602210	0.090948	-0.709288
64499	-8.983553	3.033642	2.456756	0.101444	-0.053231	-0.018316	0.355320	0.602179	0.090259	-0.709212
64500	-8.980598	2.935204	2.426552	0.058744	0.049425	-0.058263	0.355718	0.602149	0.089459	-0.709139
64501	-8.881548	2.926965	2.376986	0.083555	0.060253	-0.164453	0.356055	0.602162	0.088480	-0.709082
64502	-8.891481	2.996788	2.358575	0.132185	0.040220	-0.138861	0.356332	0.602236	0.087441	-0.709009
64503	-8.895571	3.018520	2.420521	0.086821	0.006661	-0.112483	0.356576	0.602374	0.086599	-0.708872
64504	-8.944933	2.993634	2.530948	-0.023080	-0.004803	-0.046480	0.356871	0.602429	0.086080	-0.708740
64505	-8.939574	2.935474	2.527330	-0.060425	0.045736	-0.070273	0.357134	0.602417	0.085841	-0.708647
64506	-8.891368	2.884317	2.393605	0.011296	0.143319	-0.164662	0.357318	0.602380	0.085638	-0.708610
64507	-8.843620	2.832520	2.259239	0.083017	0.240875	-0.259048	0.357298	0.602446	0.085261	-0.708610
64508	-8.900340	2.896064	2.282166	0.099518	0.208940	-0.181594	0.357114	0.602656	0.084679	-0.708593
64509	-8.888638	2.947564	2.339762	0.077657	0.138764	-0.161511	0.356835	0.602933	0.084031	-0.708575
64510	-8.901578	2.983536	2.417873	0.029597	0.077125	-0.118418	0.356559	0.603250	0.083537	-0.708503
64511	-8.960230	3.039224	2.422644	0.053508	0.056696	-0.046126	0.356301	0.603534	0.083349	-0.708413
64512	-9.078590	3.022157	2.424013	0.039198	0.111953	0.057267	0.356116	0.603770	0.083470	-0.708291
64513	-9.156099	2.990413	2.365900	0.064481	0.190715	0.103646	0.355886	0.604022	0.083802	-0.708152
64514	-9.113623	3.004562	2.413903	0.032237	0.126945	0.081517	0.355644	0.604252	0.084220	-0.708028
64515	-9.053367	3.003050	2.452390	-0.001509	0.071997	0.035703	0.355360	0.604483	0.084625	-0.707925
64516	-9.006996	2.970199	2.425133	-0.001486	0.082336	-0.023789	0.355084	0.604694	0.084975	-0.707841
64517	-8.974384	2.951167	2.440352	-0.026918	0.065672	-0.055679	0.354764	0.604924	0.085219	-0.707776
64518	-8.981893	2.959160	2.428384	-0.014754	0.060596	-0.049277	0.354399	0.605206	0.085384	-0.707698
64519	-8.997887	3.009987	2.445549	-0.000631	0.010939	-0.014597	0.353995	0.605508	0.085581	-0.707618
64520	-8.978271	3.035140	2.456571	0.003159	-0.032227	-0.022126	0.353584	0.605790	0.085944	-0.707538
64521	-9.006529	3.075348	2.506829	-0.013100	-0.092408	0.028593	0.353191	0.606067	0.086614	-0.707416
64522	-8.985754	3.085564	2.536683	-0.029000	-0.142197	0.019818	0.352872	0.606237	0.087614	-0.707306
64523	-8.989565	3.054730	2.535590	-0.041380	-0.137226	0.013415	0.352574	0.606324	0.088790	-0.707234
64524	-8.997720	3.035287	2.530007	-0.041440	-0.137345	0.013413	0.352249	0.606387	0.089957	-0.707194
64525	-9.052320	3.034012	2.564802	-0.061510	-0.154395	0.071658	0.351897	0.606418	0.091005	-0.707208
64526	-9.067962	3.053280	2.577838	-0.052104	-0.187525	0.094774	0.351537	0.606408	0.091877	-0.707283
64527	-9.055396	3.034745	2.593944	-0.068544	-0.201673	0.081403	0.351197	0.606334	0.092477	-0.707438
64528	-9.042957	3.047769	2.521158	0.004214	-0.185588	0.055734	0.350890	0.606243	0.092892	-0.707614
64529	-9.053910	3.065192	2.511773	0.028447	-0.195542	0.068539	0.350636	0.606145	0.093074	-0.707799
64530	-9.062726	3.063957	2.448569	0.082366	-0.159451	0.060717	0.350463	0.606069	0.093134	-0.707942
64531	-9.104937	3.113660	2.491575	0.082528	-0.205454	0.124802	0.350372	0.605979	0.093185	-0.708058
64532	-9.073117	3.105587	2.496335	0.076799	-0.215663	0.094149	0.350412	0.605859	0.093403	-0.708112
64533	-9.051091	3.073940	2.494697	0.062938	-0.201762	0.064063	0.350557	0.605686	0.093785	-0.708138
64534	-8.992624	3.017492	2.487800	0.038614	-0.181358	-0.008233	0.350807	0.605476	0.094336	-0.708120
64535	-8.919683	2.953612	2.452819	0.032424	-0.145407	-0.102966	0.351090	0.605229	0.094879	-0.708119
64536	-8.874455	2.888442	2.434464	0.012249	-0.105980	-0.168296	0.351295	0.605015	0.095214	-0.708154
64537	-8.910513	2.892477	2.403177	0.044716	-0.077784	-0.141551	0.351384	0.604857	0.095349	-0.708227
64538	-8.956744	2.903034	2.432611	0.032019	-0.083307	-0.088465	0.351421	0.604729	0.095318	-0.708323
64539	-9.016631	2.910571	2.463488	0.016054	-0.081323	-0.023256	0.351405	0.604605	0.095232	-0.708448
64540	-9.037698	2.915658	2.417299	0.059291	-0.049112	-0.013787	0.351382	0.604446	0.095177	-0.708603
64541	-9.027095	2.925944	2.401070	0.082065	-0.050073	-0.024660	0.351369	0.604280	0.095175	-0.708751
64542	-9.021942	2.900504	2.382826	0.084519	-0.022040	-0.041373	0.351380	0.604139	0.095203	-0.708862
64543	-9.003382	2.889900	2.389716	0.075394	-0.024669	-0.059900	0.351371	0.604025	0.095252	-0.708956
64544	-9.020896	2.886879	2.361453	0.098853	0.000853	-0.051678	0.351419	0.603917	0.095252	-0.709025
64545	-9.001937	2.871801	2.354355	0.097197	0.009866	-0.075359	0.351466	0.603808	0.095297	-0.709088
64546	-8.989474	2.853426	2.427243	0.030880	-0.021304	-0.073961	0.351575	0.603669	0.095398	-0.709139
64547	-8.943415	2.797542	2.421449	0.003293	0.006585	-0.134140	0.351677	0.603510	0.095467	-0.709214
64548	-8.973656	2.758197	2.313436	0.068026	0.108948	-0.144717	0.351674	0.603401	0.095435	-0.709313
64549	-8.999980	2.787297	2.287505	0.108467	0.113123	-0.118525	0.351503	0.603391	0.095264	-0.709430
64550	-9.018908	2.811758	2.325060	0.095012	0.081081	-0.084533	0.351242	0.603417	0.095124	-0.709555
64551	-9.033302	2.870277	2.363341	0.101772	0.019966	-0.044696	0.350962	0.603459	0.095102	-0.709660
64552	-8.993263	2.895100	2.398878	0.089127	-0.037298	-0.065602	0.350783	0.603492	0.095265	-0.709700
64553	-9.009298	2.885815	2.398963	0.085611	-0.029806	-0.053478	0.350724	0.603508	0.095661	-0.709662
64554	-9.013682	2.857748	2.469004	0.015820	-0.053609	-0.039968	0.350720	0.603497	0.096200	-0.709600
64555	-9.015376	2.823241	2.399645	0.052634	0.004008	-0.065729	0.350726	0.603477	0.096715	-0.709544
64556	-8.999080	2.796776	2.374985	0.058328	0.024469	-0.094563	0.350667	0.603476	0.097124	-0.709518
64557	-9.019809	2.805398	2.383155	0.059606	0.015488	-0.070878	0.350518	0.603526	0.097372	-0.709515
64558	-9.041204	2.836799	2.445306	0.031177	-0.039705	-0.026587	0.350298	0.603609	0.097507	-0.709535
64559	-9.070314	2.872954	2.442489	0.056845	-0.058700	0.009916	0.350052	0.603687	0.097615	-0.709575
64560	-9.081614	2.910744	2.470984	0.058772	-0.103275	0.038190	0.349832	0.603739	0.097779	-0.709617
64561	-9.069663	2.909854	2.468035	0.061916	-0.110826	0.026068	0.349616	0.603773	0.097980	-0.709667
64562	-9.038943	2.894974	2.455703	0.063501	-0.109444	-0.009737	0.349443	0.603794	0.098139	-0.709712
64563	-9.058969	2.911146	2.478810	0.057359	-0.130071	0.019097	0.349321	0.603778	0.098207	-0.709777
64564	-9.027059	2.845615	2.458282	0.033776	-0.083208	-0.034118	0.349242	0.603752	0.098145	-0.709846
64565	-9.039782	2.890597	2.457770	0.062710	-0.109660	-0.009734	0.349215	0.603703	0.097943	-0.709929
64566	-9.020264	2.830570	2.454066	0.028432	-0.066763	-0.045678	0.349249	0.603633	0.097666	-0.710010
64567	-9.019019	2.791472	2.474403	-0.011634	-0.044445	-0.052791	0.349234	0.603557	0.097283	-0.710134
64568	-9.011181	2.761746	2.429107	0.005519	0.006701	-0.079799	0.349180	0.603469	0.096752	-0.710308
64569	-9.006500	2.724553	2.324380	0.064392	0.098946	-0.120988	0.349030	0.603438	0.096041	-0.710505
64570	-9.034428	2.769066	2.280643	0.124465	0.109669	-0.093510	0.348726	0.603489	0.095149	-0.710730
64571	-9.059125	2.822340	2.295051	0.142670	0.079111	-0.051848	0.348379	0.603584	0.094359	-0.710925
64572	-9.020839	2.815717	2.316408	0.117289	0.062352	-0.083767	0.348027	0.603708	0.093783	-0.711068
64573	-9.030298	2.876707	2.385870	0.097052	-0.016813	-0.040052	0.347732	0.603824	0.093586	-0.711141
64574	-9.023083	2.853866	2.407985	0.064997	-0.018553	-0.047730	0.347548	0.603901	0.093806	-0.711136
64575	-9.039620	2.843518	2.407258	0.061392	-0.011038	-0.035606	0.347465	0.603925	0.094297	-0.711091
64576	-9.042962	2.781850	2.395781	0.036131	0.034460	-0.053019	0.347404	0.603919	0.094798	-0.711060
64577	-9.039821	2.788204	2.341229	0.085817	0.051635	-0.067752	0.347295	0.603946	0.095172	-0.711040
64578	-9.066102	2.784253	2.402030	0.037198	0.025400	-0.029334	0.347168	0.604000	0.095325	-0.711035
64579	-9.095837	2.789927	2.444219	0.008126	0.005738	0.010349	0.346990	0.604063	0.095325	-0.711068
64580	-9.129133	2.798573	2.454330	0.006050	0.004190	0.046155	0.346752	0.604129	0.095218	-0.711143
64581	-9.125543	2.789744	2.472594	-0.013739	-0.002534	0.044885	0.346445	0.604174	0.095089	-0.711272
64582	-9.120960	2.812241	2.446264	0.021290	-0.008486	0.040448	0.346118	0.604232	0.094970	-0.711398
64583	-9.061601	2.819702	2.458691	0.014596	-0.045178	-0.009309	0.345809	0.604274	0.094813	-0.711533
64584	-9.029321	2.856062	2.442962	0.048578	-0.077793	-0.032842	0.345507	0.604338	0.094725	-0.711637
64585	-9.020881	2.817011	2.425969	0.038740	-0.044865	-0.055963	0.345253	0.604374	0.094656	-0.711739
64586	-9.069265	2.848616	2.505869	-0.003789	-0.096672	0.017684	0.345026	0.604419	0.094633	-0.711814
64587	-9.033870	2.780204	2.517052	-0.054381	-0.067973	-0.031669	0.344794	0.604458	0.094646	-0.711892
64588	-9.076710	2.818547	2.530266	-0.039442	-0.090855	0.022113	0.344511	0.604500	0.094638	-0.711994
64589	-9.045500	2.810445	2.532530	-0.045286	-0.100919	-0.008548	0.344262	0.604477	0.094670	-0.712130
64590	-9.018304	2.809286	2.517097	-0.031465	-0.104517	-0.037937	0.344073	0.604405	0.094739	-0.712273
64591	-9.036563	2.797573	2.474915	-0.000664	-0.067380	-0.034827	0.343931	0.604287	0.094764	-0.712438
64592	-9.147959	2.755322	2.476737	-0.020061	0.004293	0.057002	0.343744	0.604164	0.094705	-0.712640
64593	-9.166164	2.713664	2.481021	-0.043984	0.040780	0.063263	0.343486	0.604023	0.094451	-0.712918
64594	-9.150388	2.694860	2.429880	-0.011360	0.079415	0.030572	0.343057	0.603923	0.093984	-0.713271
64595	-9.110705	2.795020	2.361021	0.105222	0.030257	0.004620	0.342503	0.603886	0.093372	-0.713649
64596	-9.063791	2.854738	2.386973	0.120463	-0.044430	-0.015596	0.342016	0.603879	0.092930	-0.713946
64597	-9.003851	2.922735	2.423959	0.131671	-0.138181	-0.042792	0.341706	0.603831	0.092792	-0.714153
64598	-9.019838	2.947909	2.508331	0.083698	-0.200038	0.000179	0.341675	0.603715	0.093171	-0.714217
64599	-9.077753	2.825818	2.526256	0.005035	-0.102279	0.024097	0.341850	0.603467	0.093901	-0.714247
64600	-9.111039	2.732119	2.437660	0.029433	0.022613	0.006493	0.342048	0.603187	0.094645	-0.714290
64601	-9.102712	2.675440	2.398221	0.034346	0.078613	-0.026909	0.342149	0.602974	0.095107	-0.714361
64602	-9.066117	2.702106	2.405159	0.048809	0.039426	-0.051708	0.342193	0.602818	0.095222	-0.714456
64603	-9.093816	2.751680	2.434546	0.059614	-0.002596	-0.004900	0.342214	0.602700	0.095200	-0.714548
64604	-9.112805	2.750047	2.533653	-0.016058	-0.047105	0.037333	0.342349	0.602492	0.095308	-0.714645
64605	-9.106962	2.712074	2.489991	0.001020	0.004026	0.010353	0.342537	0.602231	0.095591	-0.714737
64606	-9.040961	2.659738	2.404737	0.041388	0.064658	-0.086946	0.342722	0.601964	0.095998	-0.714819
64607	-9.063661	2.647868	2.332183	0.099043	0.120079	-0.087668	0.342838	0.601767	0.096360	-0.714880
64608	-9.046826	2.656126	2.392438	0.060227	0.071264	-0.085657	0.342788	0.601682	0.096671	-0.714933
64609	-9.100109	2.684606	2.441618	0.044789	0.037600	-0.015893	0.342726	0.601601	0.097092	-0.714974
64610	-9.046135	2.634592	2.412945	0.040070	0.064493	-0.086940	0.342654	0.601496	0.097552	-0.715035
64611	-9.001884	2.621006	2.400450	0.045016	0.058308	-0.134861	0.342541	0.601430	0.098009	-0.715082
64612	-9.026407	2.607033	2.323228	0.102685	0.113673	-0.135572	0.342362	0.601424	0.098344	-0.715126
64613	-9.029457	2.622682	2.375922	0.072822	0.067432	-0.115022	0.342083	0.601495	0.098558	-0.715171
64614	-9.018285	2.669209	2.367790	0.108439	0.025921	-0.114846	0.341790	0.601591	0.098810	-0.715196
64615	-9.031578	2.715371	2.421837	0.095640	-0.041861	-0.076310	0.341562	0.601674	0.099231	-0.715176
64616	-9.035113	2.700418	2.404804	0.102735	-0.030448	-0.081444	0.341371	0.601740	0.099883	-0.715122
64617	-9.095918	2.693845	2.461395	0.059623	-0.046815	-0.012420	0.341194	0.601809	0.100596	-0.715048
64618	-9.123046	2.692927	2.421082	0.095245	-0.026158	0.002285	0.341005	0.601886	0.101252	-0.714981
64619	-9.160060	2.697920	2.441808	0.085748	-0.039184	0.043225	0.340810	0.601984	0.101789	-0.714915
64620	-9.108281	2.713131	2.445307	0.091547	-0.080822	-0.000120	0.340615	0.602085	0.102166	-0.714869
64621	-9.097991	2.728225	2.480864	0.072517	-0.123161	0.003163	0.340487	0.602198	0.102466	-0.714791
64622	-9.058732	2.706059	2.517540	0.027654	-0.146621	-0.030094	0.340428	0.602308	0.102652	-0.714700
64623	-9.027067	2.689300	2.489741	0.036700	-0.133737	-0.071032	0.340384	0.602417	0.102773	-0.714611
64624	-9.001053	2.708004	2.511158	0.028342	-0.172028	-0.085007	0.340357	0.602525	0.102892	-0.714516
64625	-9.033626	2.694261	2.465557	0.055778	-0.127296	-0.069737	0.340343	0.602620	0.103011	-0.714426
64626	-9.062221	2.684574	2.466221	0.048883	-0.112381	-0.045496	0.340395	0.602701	0.103136	-0.714314
64627	-9.044639	2.681556	2.481320	0.032405	-0.126607	-0.058913	0.340435	0.602801	0.103221	-0.714199
64628	-9.054306	2.664685	2.485856	0.016568	-0.114315	-0.053224	0.340544	0.602888	0.103313	-0.714060
64629	-9.072329	2.620127	2.470047	0.000046	-0.066366	-0.052106	0.340650	0.602986	0.103376	-0.713919
64630	-9.090753	2.624360	2.450511	0.015972	-0.052329	-0.038688	0.340696	0.603082	0.103362	-0.713817
64631	-9.090621	2.626345	2.448874	0.015675	-0.052442	-0.038688	0.340744	0.603168	0.103269	-0.713735
64632	-9.084976	2.611198	2.439565	0.010503	-0.036059	-0.050249	0.340791	0.603246	0.103069	-0.713675
64633	-9.079664	2.651194	2.440479	0.030614	-0.065147	-0.044378	0.340823	0.603325	0.102782	-0.713635
64634	-9.136956	2.623573	2.372766	0.066006	0.017760	-0.015114	0.340820	0.603408	0.102468	-0.713611
64635	-9.159736	2.660266	2.389935	0.072058	-0.007820	0.020130	0.340741	0.603519	0.102156	-0.713600
64636	-9.155784	2.715764	2.430875	0.070059	-0.071559	0.041392	0.340648	0.603616	0.101934	-0.713594
64637	-9.081484	2.727101	2.427401	0.074381	-0.104326	-0.025640	0.340614	0.603707	0.101850	-0.713546
64638	-9.035534	2.734436	2.440182	0.064506	-0.133649	-0.063304	0.340662	0.603798	0.101852	-0.713445
64639	-9.035037	2.730437	2.425572	0.071639	-0.122119	-0.068431	0.340834	0.603818	0.101880	-0.713342
64640	-9.071084	2.701240	2.421431	0.056507	-0.083203	-0.043631	0.341024	0.603851	0.101850	-0.713227
64641	-9.111897	2.697185	2.439685	0.038788	-0.072378	-0.002142	0.341231	0.603847	0.101720	-0.713150
64642	-9.142055	2.658035	2.442567	0.011402	-0.028558	0.016224	0.341420	0.603833	0.101428	-0.713113
64643	-9.101006	2.663383	2.366731	0.070165	0.001867	-0.039335	0.341515	0.603851	0.100948	-0.713121
64644	-9.084318	2.718820	2.349205	0.113075	-0.027979	-0.044269	0.341581	0.603905	0.100390	-0.713122
64645	-9.096335	2.739179	2.392556	0.087377	-0.055284	-0.016768	0.341656	0.603941	0.099922	-0.713122
64646	-9.108917	2.763735	2.449795	0.054230	-0.094055	0.015858	0.341815	0.603920	0.099617	-0.713106
64647	-9.110509	2.716531	2.409586	0.055629	-0.030411	-0.005394	0.342005	0.603890	0.099449	-0.713063
64648	-9.163694	2.692439	2.390717	0.056495	0.022674	0.032836	0.342175	0.603829	0.099220	-0.713065
64649	-9.141808	2.667211	2.343178	0.076745	0.066299	-0.006217	0.342286	0.603788	0.098820	-0.713103
64650	-9.153386	2.687424	2.388367	0.050961	0.039040	0.021279	0.342349	0.603772	0.098178	-0.713175
64651	-9.107442	2.699433	2.359507	0.075452	0.039572	-0.025326	0.342398	0.603800	0.097420	-0.713231
64652	-9.094308	2.727280	2.354949	0.090752	0.027089	-0.031005	0.342459	0.603828	0.096724	-0.713273
64653	-9.050423	2.728907	2.423855	0.031062	-0.019615	-0.054060	0.342545	0.603864	0.096247	-0.713266
64654	-9.006735	2.705051	2.438133	0.000953	-0.019943	-0.097613	0.342657	0.603859	0.096023	-0.713247
64655	-9.089860	2.698761	2.488955	-0.041656	-0.009795	-0.009528	0.342762	0.603850	0.096053	-0.713199
64656	-9.149619	2.634381	2.467938	-0.061198	0.072169	0.022822	0.342838	0.603785	0.096194	-0.713199
64657	-9.106729	2.612214	2.383282	-0.007135	0.119082	-0.044270	0.342746	0.603754	0.096154	-0.713275
64658	-9.106335	2.660765	2.380281	0.025096	0.085186	-0.031948	0.342578	0.603755	0.095888	-0.713390
64659	-9.128433	2.684335	2.372245	0.045790	0.082753	-0.006947	0.342381	0.603792	0.095487	-0.713507
64660	-9.133018	2.734167	2.448556	0.013475	0.008279	0.030222	0.342198	0.603855	0.095111	-0.713592
64661	-9.086541	2.795467	2.471912	0.028966	-0.066384	0.009989	0.342080	0.603886	0.095013	-0.713636
64662	-9.032051	2.779132	2.510477	-0.012633	-0.097332	-0.035449	0.342100	0.603847	0.095286	-0.713623
64663	-9.038526	2.792088	2.518515	-0.008051	-0.113906	-0.023889	0.342134	0.603797	0.095786	-0.713582
64664	-9.063801	2.757598	2.513811	-0.019883	-0.082434	-0.011213	0.342210	0.603685	0.096352	-0.713564
64665	-9.102303	2.762181	2.493997	0.004863	-0.065757	0.020787	0.342265	0.603557	0.096735	-0.713594
64666	-9.094337	2.791516	2.530012	-0.001882	-0.113019	0.030468	0.342378	0.603404	0.096999	-0.713633
64667	-9.123376	2.819092	2.631799	-0.060502	-0.179189	0.090537	0.342572	0.603181	0.097210	-0.713700
64668	-9.136620	2.775241	2.670415	-0.111611	-0.161124	0.100560	0.342876	0.602880	0.097439	-0.713777
64669	-9.143619	2.733583	2.630796	-0.097943	-0.102447	0.085759	0.343159	0.602503	0.097617	-0.713935
64670	-9.081474	2.784602	2.634558	-0.064234	-0.161398	0.043168	0.343439	0.602102	0.097728	-0.714123
64671	-9.112368	2.863722	2.705869	-0.063209	-0.243072	0.111767	0.343834	0.601662	0.097885	-0.714283
64672	-9.097573	2.949936	2.919470	-0.170421	-0.424488	0.176408	0.344570	0.601052	0.098268	-0.714389
64673	-9.243412	2.957944	3.135330	-0.315780	-0.487742	0.369785	0.345908	0.600143	0.099174	-0.714381
64674	-9.368115	2.843918	3.215406	-0.421670	-0.392380	0.475969	0.347784	0.598872	0.100608	-0.714336
64675	-9.328711	2.596877	3.163654	-0.506526	-0.186220	0.360119	0.349835	0.597364	0.102201	-0.714372
64676	-9.201156	2.362661	3.234271	-0.682044	-0.090694	0.198829	0.351714	0.595802	0.103477	-0.714569
64677	-9.369343	2.421335	3.521046	-0.830982	-0.219248	0.449208	0.353315	0.594240	0.104455	-0.714938
64678	-9.590701	2.484487	4.013079	-1.129120	-0.446268	0.807332	0.354838	0.592517	0.105362	-0.715481
64679	-9.640303	2.556636	4.539008	-1.441278	-0.764205	1.023033	0.356697	0.590182	0.106740	-0.716282
64680	-9.462388	2.627034	4.776977	-1.519425	-1.004203	0.954854	0.359302	0.586925	0.109024	-0.717311
64681	-9.357197	2.577611	4.649914	-1.363666	-0.920879	0.822831	0.362943	0.582508	0.112603	-0.718524
64682	-9.478500	2.271072	4.439908	-1.281735	-0.516843	0.808106	0.367124	0.577393	0.116728	-0.719870
64683	-9.804415	2.115372	4.701411	-1.428874	-0.414877	1.164066	0.371598	0.571628	0.121098	-0.721451
64684	-10.060377	2.072710	5.506820	-1.877916	-0.742181	1.665660	0.376291	0.565019	0.125515	-0.723467
64685	-10.341952	2.029280	6.071390	-2.104179	-0.911543	2.131905	0.381536	0.557133	0.130578	-0.725936
64686	-10.089905	1.567771	5.981397	-2.163024	-0.611252	1.805579	0.387035	0.548069	0.136006	-0.728921
64687	-9.972280	1.059810	5.775809	-2.161784	-0.149057	1.555210	0.392182	0.538413	0.140828	-0.732442
64688	-10.020301	0.575399	5.504578	-2.096905	0.421601	1.432687	0.396419	0.528743	0.144225	-0.736534
64689	-9.935111	0.139777	5.491269	-2.204868	0.762943	1.297304	0.399226	0.519432	0.145330	-0.741410
64690	-9.756823	0.181569	5.774153	-2.182442	0.600410	1.297711	0.400620	0.510533	0.143987	-0.747079
64691	-9.851818	0.493989	6.243101	-2.042247	0.308580	1.676732	0.400984	0.501675	0.140581	-0.753506
64692	-9.996105	0.786176	6.561700	-1.804462	0.185091	2.032084	0.400621	0.492526	0.135733	-0.760590
64693	-10.045821	0.925246	6.774640	-1.617291	0.208888	2.229023	0.399722	0.482880	0.130104	-0.768194
64694	-10.129753	0.779135	6.699690	-1.431022	0.621058	2.256353	0.398488	0.472502	0.124120	-0.776236
64695	-9.741839	0.909580	6.471193	-1.039014	0.711623	1.849704	0.396766	0.461552	0.117508	-0.784690
64696	-9.382952	0.972945	6.130233	-0.624916	0.909663	1.382789	0.394696	0.450200	0.110644	-0.793279
64697	-9.193378	1.109725	6.042015	-0.279655	0.996937	1.195228	0.392143	0.438708	0.103170	-0.801944
64698	-9.149874	1.461983	6.274669	0.057255	0.849733	1.345016	0.389107	0.427205	0.095206	-0.810572
64699	-9.110276	1.613035	6.497035	0.260012	0.845045	1.457598	0.385947	0.415428	0.087717	-0.819006
64700	-9.045219	1.915409	6.766868	0.542240	0.696786	1.610353	0.382819	0.403074	0.080704	-0.827326
64701	-8.576607	2.107094	6.489545	0.930841	0.627944	1.088795	0.379863	0.390212	0.074426	-0.835404
64702	-8.126991	2.009073	6.052479	1.200371	0.808006	0.415461	0.376851	0.377216	0.068344	-0.843220
64703	-7.783556	1.859987	5.592453	1.462643	1.065251	-0.219049	0.373761	0.364537	0.062113	-0.850622
64704	-7.734756	2.010197	6.087371	1.486497	0.904952	0.081155	0.370460	0.352282	0.055447	-0.857661
64705	-7.706901	2.387604	7.009050	1.439135	0.460315	0.767161	0.367205	0.339694	0.049071	-0.864500
64706	-7.275522	2.434322	7.385500	1.294460	0.213385	0.754988	0.364099	0.326472	0.043862	-0.871162
64707	-6.917544	2.232398	7.338008	1.259247	0.315845	0.433737	0.360934	0.312768	0.039686	-0.877683
64708	-6.452529	2.017894	6.732898	1.437423	0.504070	-0.393973	0.357543	0.299058	0.036070	-0.883983
64709	-6.232614	1.448547	6.110881	1.490010	1.077072	-1.158137	0.353759	0.286107	0.032405	-0.889914
64710	-6.194406	1.791826	6.797878	1.570600	0.733312	-0.604937	0.349882	0.273718	0.027182	-0.895501
64711	-5.716663	2.486884	7.200370	1.739604	-0.044772	-0.449088	0.346339	0.261475	0.021326	-0.900680
64712	-5.530784	2.740423	6.907190	2.107016	-0.151648	-0.793707	0.343321	0.249532	0.015801	-0.905326
64713	-5.475282	2.554159	7.662035	1.807506	-0.063324	-0.224498	0.340531	0.237662	0.010812	-0.909636
64714	-5.186495	2.314857	8.220106	1.435242	-0.029474	0.074802	0.337925	0.225450	0.007152	-0.913744
64715	-4.665833	2.152808	8.332483	1.165260	-0.136963	-0.093997	0.335526	0.212678	0.005878	-0.917690
64716	-4.293413	1.739519	8.101561	0.984098	0.061275	-0.532752	0.333086	0.199596	0.006602	-0.921505
64717	-4.178431	1.825814	8.624195	1.026531	-0.113682	-0.112359	0.330684	0.185853	0.009419	-0.925212
64718	-4.028095	1.652082	9.038161	0.963885	-0.115817	0.171947	0.328348	0.171587	0.013835	-0.928738
64719	-3.803358	1.091409	9.208140	0.715921	0.155824	0.182370	0.325765	0.157030	0.019282	-0.932119
64720	-3.432253	0.363227	9.095101	0.340080	0.506877	-0.104302	0.322703	0.142694	0.024443	-0.935363
64721	-3.244004	-0.054155	9.256579	0.202993	0.698930	-0.031387	0.319034	0.128831	0.028337	-0.938518
64722	-2.952000	-0.329102	9.357347	0.076920	0.744217	-0.024108	0.314688	0.115571	0.031217	-0.941616
64723	-2.468983	-0.890927	9.096740	-0.317256	0.974778	-0.400776	0.309550	0.103073	0.032885	-0.944708
64724	-2.057879	-1.018785	8.874294	-0.442851	0.920432	-0.703446	0.303727	0.091573	0.032634	-0.947787
64725	-1.944968	-0.908746	8.649227	-0.231746	0.864643	-0.946284	0.297267	0.081142	0.031040	-0.950834
64726	-1.905599	-0.829567	8.666128	-0.043233	0.857617	-0.942462	0.290092	0.071641	0.028419	-0.953890
64727	-1.790661	-0.572519	8.806424	0.151133	0.653072	-0.832969	0.282137	0.062692	0.025548	-0.956983
64728	-1.529171	-0.467130	8.706821	0.153696	0.513808	-0.976661	0.273386	0.054177	0.022813	-0.960106
64729	-1.223906	-0.331359	8.266515	0.146022	0.343622	-1.457935	0.263913	0.046352	0.020249	-0.963219
64730	-0.988796	-0.150607	7.851731	0.183828	0.161415	-1.901364	0.253909	0.039555	0.017173	-0.966266
64731	-0.995801	-0.048004	7.570263	0.348498	0.153428	-2.186613	0.243540	0.033921	0.013656	-0.969201
64732	-0.988607	0.111388	7.520938	0.488004	0.077319	-2.242388	0.233044	0.029178	0.008982	-0.971987
64733	-0.747573	0.294003	7.263170	0.417560	-0.110597	-2.518053	0.222659	0.025249	0.003277	-0.974564
64734	-0.457263	0.600356	6.645294	0.345624	-0.415420	-3.146601	0.212688	0.021979	-0.003790	-0.976866
64735	-0.325574	1.326302	6.424278	0.538822	-1.033098	-3.349106	0.203418	0.019488	-0.012424	-0.978819
64736	-0.412779	2.266317	6.727959	0.957386	-1.748228	-2.986421	0.195244	0.017530	-0.021764	-0.980357
64737	-0.282383	2.712331	7.007218	0.962821	-2.086309	-2.653320	0.188282	0.015821	-0.030799	-0.981504
64738	-0.160873	3.075145	7.259996	0.941878	-2.343448	-2.342081	0.182440	0.014104	-0.038559	-0.982359
64739	0.278490	3.254930	7.159462	0.578512	-2.584245	-2.402126	0.177801	0.012354	-0.044045	-0.983003
64740	0.567310	2.946930	7.473257	0.177748	-2.310092	-2.099875	0.174266	0.010726	-0.047001	-0.983518
64741	0.473223	2.402582	7.793808	0.066845	-1.693400	-1.820972	0.171943	0.009479	-0.049835	-0.983800
64742	0.567629	2.383496	8.186437	-0.042314	-1.616254	-1.421823	0.170616	0.008501	-0.053372	-0.983854
64743	0.547622	2.429856	8.196185	-0.010229	-1.588164	-1.394921	0.170026	0.007922	-0.057278	-0.983742
64744	0.519885	2.554936	8.424559	0.043068	-1.603281	-1.140987	0.169912	0.007667	-0.061238	-0.983525
64745	0.680182	2.373589	8.630890	-0.185969	-1.392281	-0.946159	0.170265	0.007683	-0.065431	-0.983194
64746	0.604051	2.591448	9.041243	-0.070477	-1.435591	-0.498294	0.171123	0.007757	-0.070435	-0.982698
64747	0.534287	2.750675	9.050702	0.034370	-1.463338	-0.451946	0.172466	0.007893	-0.075800	-0.982063
64748	0.737709	2.738865	9.153737	-0.180190	-1.406439	-0.335078	0.174256	0.008193	-0.081228	-0.981310
64749	0.882552	3.211900	9.389222	-0.178828	-1.763588	-0.009126	0.176277	0.008449	-0.085742	-0.980563
64750	1.018347	3.384601	9.645791	-0.266770	-1.855470	0.287789	0.178672	0.008836	-0.088718	-0.979861
64751	1.020677	3.224480	9.752015	-0.333260	-1.647976	0.371314	0.181351	0.009310	-0.090206	-0.979228
64752	0.863252	3.021405	9.914919	-0.265818	-1.359360	0.495620	0.184308	0.009761	-0.090671	-0.978629
64753	0.803807	3.009347	9.719955	-0.198269	-1.357922	0.301487	0.187517	0.010076	-0.090590	-0.978023
64754	0.714454	2.979645	9.844343	-0.123109	-1.281215	0.416836	0.190956	0.010354	-0.090213	-0.977390
64755	0.769275	3.060092	9.965407	-0.137893	-1.361413	0.550362	0.194636	0.010520	-0.089854	-0.976695
64756	0.777467	2.942542	9.861930	-0.165993	-1.287399	0.426241	0.198517	0.010507	-0.088969	-0.975994
64757	0.784791	2.831134	9.861586	-0.192542	-1.206511	0.404420	0.202521	0.010275	-0.088024	-0.975260
64758	0.554706	2.909667	9.885538	0.075523	-1.195139	0.437366	0.206548	0.009783	-0.087325	-0.974483
64759	0.488615	3.334312	10.183034	0.321224	-1.504399	0.802587	0.210629	0.009113	-0.087037	-0.973641
64760	0.638562	3.512040	10.217110	0.289748	-1.713915	0.869539	0.214737	0.008494	-0.087136	-0.972740
64761	0.465299	3.687359	10.236970	0.552417	-1.785268	0.916535	0.218901	0.008002	-0.087093	-0.971820
64762	0.302031	3.269541	10.261413	0.551861	-1.327466	0.864902	0.223210	0.007527	-0.087434	-0.970812
64763	0.151585	3.443157	9.961044	0.806012	-1.438417	0.597972	0.227773	0.007016	-0.088665	-0.969644
64764	-0.180303	3.744158	9.677272	1.281989	-1.562983	0.366416	0.232540	0.006182	-0.089956	-0.968398
64765	-0.348042	4.068679	9.554678	1.627102	-1.754930	0.298673	0.237360	0.004778	-0.090213	-0.967212
64766	-0.532022	4.404769	9.280742	2.019500	-1.989165	0.075772	0.242369	0.002927	-0.089193	-0.966071
64767	-0.663182	4.025254	8.894743	2.045991	-1.654566	-0.387464	0.247711	0.000967	-0.087849	-0.964842
64768	-0.577900	3.407344	8.874675	1.738017	-1.148802	-0.519515	0.253526	-0.000709	-0.087624	-0.963352
64769	-0.470271	3.427279	8.890962	1.700133	-1.171145	-0.498498	0.259959	-0.001943	-0.089378	-0.961472
64770	-0.295824	3.254934	8.849683	1.498075	-1.051308	-0.558013	0.266779	-0.002650	-0.091927	-0.959360
64771	-0.044210	3.354393	8.841791	1.357052	-1.190096	-0.529761	0.273720	-0.002968	-0.094853	-0.957116
64772	-0.084015	3.728268	8.891140	1.610785	-1.409312	-0.411711	0.280448	-0.003301	-0.095946	-0.955056
64773	-0.394732	3.772457	9.219275	1.920826	-1.193054	-0.103459	0.286721	-0.004093	-0.094468	-0.953336
64774	-0.593714	3.590377	9.535379	2.030025	-0.892708	0.149659	0.292547	-0.005394	-0.090937	-0.951902
64775	-0.685959	2.981770	9.381142	1.840089	-0.413914	-0.127156	0.298039	-0.006927	-0.086806	-0.950573
64776	-0.623441	2.462225	9.131468	1.560211	-0.107998	-0.464491	0.303369	-0.008082	-0.083927	-0.949135
64777	-0.419370	2.313527	8.658026	1.358918	-0.192013	-0.946677	0.308714	-0.008448	-0.083370	-0.947456
64778	-0.279975	2.708696	8.566193	1.494759	-0.582735	-0.968417	0.314039	-0.008260	-0.084128	-0.945639
64779	-0.133935	2.792066	8.495271	1.431790	-0.710477	-1.013355	0.319479	-0.007570	-0.085748	-0.943675
64780	-0.109740	2.957013	8.522575	1.503172	-0.803263	-0.953496	0.325251	-0.006429	-0.087860	-0.941515
64781	0.318487	2.955124	8.321681	1.157796	-1.043805	-1.114743	0.331484	-0.004730	-0.090811	-0.939068
64782	0.526832	3.000960	8.133769	1.006888	-1.181406	-1.266837	0.338317	-0.002100	-0.094377	-0.936285
64783	0.868367	2.924107	8.142956	0.653221	-1.277432	-1.236374	0.345777	0.001543	-0.098458	-0.933136
64784	0.972184	3.293145	8.778197	0.718098	-1.451312	-0.526979	0.353670	0.005511	-0.101266	-0.929856
64785	0.654049	3.524092	9.327096	1.027243	-1.286312	0.042863	0.361934	0.008897	-0.101325	-0.926638
64786	0.364766	3.424482	9.512437	1.150322	-1.005029	0.187969	0.370270	0.011323	-0.098567	-0.923611
64787	0.230859	3.310287	9.330788	1.210958	-0.915487	-0.026478	0.378580	0.012779	-0.094048	-0.920689
64788	0.208240	2.671466	8.888000	0.863819	-0.591563	-0.588804	0.387050	0.014002	-0.089339	-0.917613
64789	0.043383	2.327881	8.706189	0.773562	-0.311734	-0.839226	0.395907	0.015903	-0.087217	-0.914001
64790	-0.143534	2.495679	8.525855	1.027700	-0.317852	-0.993281	0.405341	0.018742	-0.087703	-0.909756
64791	-0.140451	2.906653	8.736135	1.266453	-0.528143	-0.707457	0.415329	0.022369	-0.089571	-0.904974
64792	-0.270790	3.298019	9.079426	1.551992	-0.582098	-0.292278	0.425722	0.026417	-0.091619	-0.899816
64793	-0.184813	3.588372	9.357028	1.639669	-0.747477	0.047189	0.436234	0.029874	-0.091928	-0.894626
64794	-0.070628	3.230948	9.327150	1.282540	-0.617724	-0.044718	0.446722	0.032515	-0.089808	-0.889560
64795	-0.227880	2.962485	9.267655	1.180451	-0.363223	-0.159076	0.457197	0.034714	-0.086773	-0.884441
64796	-0.488414	2.911403	9.325437	1.299059	-0.143428	-0.118857	0.467778	0.036343	-0.083149	-0.879175
64797	-0.586999	2.698483	9.370522	1.192956	0.035226	-0.116883	0.478490	0.037783	-0.080039	-0.873621
64798	-0.744379	2.520319	9.216675	1.158841	0.234401	-0.301885	0.489314	0.039462	-0.077990	-0.867717
64799	-0.922124	2.498088	9.139839	1.229183	0.395578	-0.380828	0.500237	0.041625	-0.077073	-0.861446
64800	-0.824109	2.738733	9.238621	1.345735	0.218246	-0.238074	0.511207	0.043951	-0.076342	-0.854931
64801	-0.802281	2.818880	9.470292	1.346833	0.195427	0.006884	0.522116	0.046164	-0.075018	-0.848313
64802	-0.823559	2.612722	9.736003	1.120233	0.326911	0.233830	0.532912	0.048063	-0.072805	-0.841662
64803	-1.039981	2.654578	10.062040	1.195873	0.515975	0.564048	0.543507	0.049449	-0.069927	-0.835024
64804	-1.088959	2.406793	10.147927	0.994849	0.642865	0.606323	0.553894	0.049955	-0.065968	-0.828465
64805	-0.997309	2.059356	10.009293	0.697435	0.652449	0.410288	0.564105	0.049924	-0.062035	-0.821854
64806	-0.882767	2.059004	9.620318	0.754069	0.502780	0.023354	0.574280	0.049641	-0.058208	-0.815077
64807	-1.193061	1.904229	10.070086	0.682402	0.844497	0.447779	0.584399	0.049209	-0.054875	-0.808112
64808	-1.054085	1.785491	10.271879	0.528596	0.742734	0.626634	0.594421	0.048657	-0.052012	-0.800994
64809	-0.989243	1.618086	10.131550	0.394375	0.718527	0.462198	0.604392	0.048369	-0.049874	-0.793652
64810	-1.072268	1.599705	10.016508	0.417388	0.801382	0.347176	0.614387	0.048825	-0.048733	-0.785983
64811	-1.192261	1.573432	9.919775	0.413017	0.928010	0.250475	0.624389	0.049880	-0.048171	-0.778030
64812	-1.209387	1.551833	9.943735	0.358154	0.953738	0.272483	0.634368	0.051208	-0.047618	-0.769862
64813	-1.302776	1.938586	10.455193	0.649158	0.979347	0.835591	0.644215	0.052069	-0.046572	-0.761647
64814	-1.566606	1.781687	10.554324	0.509558	1.269753	0.918133	0.653710	0.052131	-0.044776	-0.753618
64815	-1.948652	1.894932	10.441648	0.684891	1.637556	0.829933	0.662790	0.051553	-0.042744	-0.745805
64816	-2.240225	1.517003	10.079231	0.385514	1.982282	0.426097	0.671562	0.051084	-0.041142	-0.738039
64817	-2.262458	1.469202	9.884989	0.330616	2.021998	0.226847	0.680125	0.051513	-0.040998	-0.730134
64818	-2.289961	1.851042	9.878269	0.649467	2.042475	0.269798	0.688707	0.052459	-0.041492	-0.721948
64819	-2.164404	1.896882	9.791700	0.634952	1.941224	0.186729	0.697326	0.053142	-0.041701	-0.713564
64820	-2.361729	2.036279	9.802684	0.721694	2.158945	0.218997	0.705980	0.053259	-0.041068	-0.705031
64821	-2.496067	1.992992	9.726022	0.650911	2.315644	0.137784	0.714598	0.052660	-0.039513	-0.696430
64822	-2.562430	1.686703	9.613490	0.338987	2.390266	-0.014632	0.723137	0.051580	-0.037241	-0.687768
64823	-2.649613	1.546690	9.709546	0.172116	2.474061	0.063414	0.731598	0.050240	-0.034717	-0.678995
64824	-2.792478	1.593370	9.986424	0.167405	2.618372	0.345143	0.740033	0.048502	-0.032095	-0.670051
64825	-2.825508	1.369500	10.026197	-0.060355	2.637716	0.356995	0.748381	0.046069	-0.029243	-0.661021
64826	-2.881829	1.117635	9.784991	-0.287396	2.681617	0.088142	0.756493	0.043601	-0.026880	-0.651993
64827	-2.839947	0.960431	9.404381	-0.409469	2.639515	-0.310300	0.764331	0.041754	-0.025265	-0.642975
64828	-2.892367	1.011380	9.291413	-0.393555	2.710279	-0.420227	0.771894	0.040998	-0.024737	-0.633945
64829	-2.867630	1.146170	9.424810	-0.327941	2.711893	-0.278445	0.779244	0.040961	-0.024779	-0.624890
64830	-2.772812	1.189204	9.295488	-0.325546	2.635058	-0.407433	0.786458	0.041428	-0.025193	-0.615737
64831	-2.697972	1.405696	9.279413	-0.176461	2.615065	-0.405654	0.793567	0.042226	-0.025769	-0.606468
64832	-2.719001	1.520182	9.421911	-0.169990	2.658485	-0.253438	0.800571	0.043280	-0.026323	-0.597093
64833	-2.643448	1.526060	9.523894	-0.238059	2.578673	-0.152748	0.807491	0.044368	-0.026769	-0.587600
64834	-2.749255	1.681333	9.640773	-0.218880	2.716416	-0.019711	0.814404	0.045203	-0.027055	-0.577903
64835	-2.674856	1.653478	9.709689	-0.304415	2.631317	0.043782	0.821333	0.045495	-0.026997	-0.567991
64836	-2.637795	1.402223	9.609418	-0.583309	2.510343	-0.085268	0.828215	0.045506	-0.026865	-0.557914
64837	-2.667598	1.303376	9.708592	-0.759297	2.491760	-0.000150	0.834987	0.045333	-0.026835	-0.547742
64838	-2.578351	1.158119	9.647556	-0.913694	2.350146	-0.080981	0.841553	0.045126	-0.026997	-0.537609
64839	-2.639003	1.153315	9.631620	-1.006305	2.398715	-0.102089	0.847863	0.044874	-0.027400	-0.527603
64840	-2.493072	1.032206	9.612339	-1.114335	2.209466	-0.140353	0.853862	0.044836	-0.028077	-0.517803
64841	-2.350722	1.027055	9.666629	-1.124920	2.069958	-0.092918	0.859560	0.044996	-0.028929	-0.508227
64842	-2.199050	1.078571	9.754302	-1.078952	1.949115	-0.005442	0.864915	0.045120	-0.029681	-0.499004
64843	-2.286666	1.007368	9.843517	-1.248448	1.977543	0.070072	0.869939	0.044916	-0.030170	-0.490182
64844	-2.218741	1.064839	9.854673	-1.215932	1.943269	0.082578	0.874668	0.044608	-0.030767	-0.481684
64845	-2.118960	0.991807	9.571515	-1.244407	1.832256	-0.211559	0.879203	0.044165	-0.031420	-0.473355
64846	-1.868792	0.856447	9.509849	-1.262187	1.549784	-0.290716	0.883594	0.044125	-0.032573	-0.465030
64847	-1.713020	0.897866	9.382790	-1.184117	1.444956	-0.416571	0.887947	0.044585	-0.034060	-0.456511
64848	-1.330937	0.882862	9.150044	-1.012760	1.124321	-0.648408	0.892306	0.045821	-0.035683	-0.447679
64849	-1.212320	1.131367	9.357911	-0.828881	1.146245	-0.414872	0.896675	0.047400	-0.036964	-0.438590
64850	-0.912756	1.023670	9.564203	-0.803939	0.809374	-0.218240	0.901027	0.048691	-0.037485	-0.429389
64851	-0.652519	0.854886	9.912546	-0.838522	0.457526	0.112163	0.905300	0.049577	-0.037296	-0.420219
64852	-0.546496	0.751377	10.327421	-0.900296	0.264637	0.513892	0.909453	0.049678	-0.036345	-0.411224
64853	-0.584799	0.496658	10.590669	-1.124079	0.100025	0.745593	0.913436	0.048531	-0.034775	-0.402579
64854	-0.623905	0.293155	10.634637	-1.265787	-0.004147	0.768820	0.917227	0.046374	-0.033153	-0.394264
64855	-0.646196	0.128045	10.400188	-1.335680	-0.068010	0.522159	0.920797	0.043900	-0.031936	-0.386247
64856	-0.488225	-0.134167	9.932469	-1.335120	-0.316558	0.037564	0.924125	0.041908	-0.031357	-0.378488
64857	-0.326822	-0.400166	9.566899	-1.364437	-0.595755	-0.348234	0.927216	0.042019	-0.032117	-0.370773
64858	-0.320342	0.117834	9.899273	-1.065999	-0.268758	0.031254	0.930094	0.044220	-0.034166	-0.363046
64859	-0.046843	0.377629	9.838623	-0.745276	-0.300557	0.000415	0.932805	0.047378	-0.036632	-0.355371
64860	0.159095	0.734169	9.746291	-0.420243	-0.213741	-0.048902	0.935384	0.051178	-0.039372	-0.347688
64861	0.385539	1.139679	9.650317	-0.052212	-0.094477	-0.088290	0.937887	0.054709	-0.041841	-0.340036
64862	0.610389	1.285101	9.505063	0.162937	-0.151765	-0.204340	0.940333	0.057700	-0.043807	-0.332454
64863	0.654283	1.430804	9.447167	0.242345	-0.088058	-0.238892	0.942757	0.060118	-0.045189	-0.324889
64864	0.730114	1.556031	9.594016	0.321025	-0.065232	-0.071434	0.945189	0.061730	-0.046081	-0.317307
64865	0.664161	1.478729	9.587522	0.199172	-0.089749	-0.091547	0.947684	0.062468	-0.046428	-0.309575
64866	0.573358	1.312259	9.410145	0.037162	-0.150316	-0.295460	0.950217	0.062959	-0.046687	-0.301569
64867	0.522023	1.243715	9.338197	-0.048644	-0.169616	-0.379231	0.952724	0.063816	-0.047068	-0.293309
64868	0.514371	1.218782	9.291251	-0.082275	-0.189420	-0.430009	0.955147	0.065183	-0.047620	-0.284915
64869	0.473408	1.302384	9.337848	-0.100376	-0.116909	-0.373837	0.957483	0.066767	-0.048153	-0.276494
64870	0.590282	1.339250	9.383781	-0.009851	-0.167899	-0.316949	0.959760	0.068095	-0.048475	-0.268093
64871	0.562722	1.330003	9.486417	-0.066994	-0.181794	-0.218933	0.961981	0.069022	-0.048623	-0.259737
64872	0.804627	1.164026	9.392073	0.062492	-0.438986	-0.324969	0.964109	0.069616	-0.048631	-0.251560
64873	0.825131	1.177871	9.263726	0.099052	-0.423707	-0.448100	0.966096	0.070363	-0.048576	-0.243615
64874	0.908808	1.166302	9.184145	0.174907	-0.467518	-0.523686	0.967972	0.071190	-0.048348	-0.235847
64875	0.948137	1.209047	9.143008	0.236024	-0.445933	-0.555215	0.969754	0.071867	-0.047859	-0.228303
64876	1.095429	1.094321	9.120860	0.328034	-0.610181	-0.587307	0.971463	0.072300	-0.047140	-0.220929
64877	1.105321	1.197625	9.231887	0.380057	-0.532721	-0.460922	0.973073	0.072696	-0.046272	-0.213784
64878	0.948969	1.207216	9.151950	0.268241	-0.444271	-0.547335	0.974588	0.072841	-0.045134	-0.206968
64879	0.931504	1.090588	9.147365	0.225950	-0.539194	-0.572040	0.975978	0.073095	-0.043911	-0.200491
64880	0.832685	1.201581	9.428569	0.168068	-0.432390	-0.282744	0.977291	0.073132	-0.042575	-0.194273
64881	0.864354	1.058962	9.407828	0.173031	-0.563946	-0.324396	0.978545	0.072581	-0.041015	-0.188412
64882	0.851625	0.870122	9.187935	0.147537	-0.692153	-0.571498	0.979728	0.072042	-0.039397	-0.182731
64883	0.774490	0.962628	9.001775	0.155301	-0.550876	-0.744567	0.980797	0.072406	-0.037999	-0.177062
64884	0.592805	1.383595	9.138911	0.136208	-0.123527	-0.552471	0.981789	0.073308	-0.036576	-0.171399
64885	0.523488	1.477119	9.383269	0.097012	-0.063138	-0.300159	0.982729	0.074523	-0.035015	-0.165720
64886	0.465370	1.486073	9.599401	0.045663	-0.086458	-0.088293	0.983660	0.075666	-0.033307	-0.159933
64887	0.391534	1.601218	9.907060	0.009642	-0.017724	0.230546	0.984618	0.076533	-0.031317	-0.153913
64888	0.154269	1.365336	10.213430	-0.278539	-0.223058	0.486566	0.985625	0.076660	-0.029095	-0.147714
64889	-0.062853	1.515966	10.365246	-0.418807	-0.043468	0.654549	0.986637	0.076462	-0.027084	-0.141306
64890	-0.511644	1.506641	10.366701	-0.821918	0.076303	0.642876	0.987691	0.075643	-0.025360	-0.134543
64891	-0.665824	1.415614	10.132706	-0.955939	0.071589	0.395155	0.988739	0.074664	-0.024054	-0.127446
64892	-1.003107	1.209334	9.942060	-1.306879	-0.009025	0.167555	0.989751	0.073860	-0.023103	-0.120019
64893	-1.089623	1.086736	9.921568	-1.412587	-0.107692	0.127070	0.990703	0.073355	-0.022644	-0.112314
64894	-1.248887	1.047541	10.312867	-1.603415	-0.174793	0.502873	0.991595	0.072937	-0.022697	-0.104420
64895	-1.085727	1.060903	10.333475	-1.452316	-0.203630	0.528218	0.992456	0.071973	-0.022929	-0.096562
64896	-1.136779	0.850223	9.944777	-1.529516	-0.336492	0.110068	0.993275	0.070425	-0.023245	-0.088907
64897	-0.665784	0.431919	9.222118	-1.101330	-0.714736	-0.650074	0.994007	0.068838	-0.023352	-0.081650
64898	-0.749732	0.729460	9.152245	-1.133132	-0.393786	-0.679301	0.994595	0.068343	-0.023357	-0.074600
64899	-1.051213	1.026406	9.698000	-1.419032	-0.131724	-0.108113	0.995140	0.067509	-0.023078	-0.067869
64900	-1.164572	0.905293	9.916594	-1.554904	-0.255790	0.088396	0.995678	0.065844	-0.022531	-0.061493
64901	-1.289894	0.864925	9.851430	-1.672169	-0.250070	0.016038	0.996198	0.063570	-0.021975	-0.055358
64902	-1.193846	0.974051	9.742354	-1.550141	-0.106935	-0.072410	0.996704	0.060747	-0.021302	-0.049372
64903	-1.305911	0.736385	9.631621	-1.666984	-0.278491	-0.212726	0.997172	0.057818	-0.020523	-0.043404
64904	-1.245098	0.723088	9.734677	-1.598481	-0.275408	-0.106711	0.997562	0.055476	-0.019786	-0.037427
64905	-1.233454	0.325378	9.494963	-1.589181	-0.623467	-0.385740	0.997876	0.053883	-0.018846	-0.031376
64906	-1.018804	0.421192	9.887686	-1.368448	-0.584120	0.024376	0.998067	0.053750	-0.018276	-0.025264
64907	-0.910793	0.689193	10.220480	-1.247899	-0.372452	0.388624	0.998210	0.053807	-0.017583	-0.019317
64908	-0.805233	0.686104	10.342260	-1.134300	-0.407869	0.513418	0.998303	0.054043	-0.016868	-0.013640
64909	-0.741633	0.874739	10.265366	-1.050360	-0.225130	0.460529	0.998383	0.053895	-0.016064	-0.008342
64910	-0.702688	0.884816	10.271243	-0.998563	-0.216396	0.469877	0.998462	0.053172	-0.015293	-0.003437
64911	-0.661861	1.003926	10.354981	-0.948543	-0.094108	0.568205	0.998545	0.051883	-0.014655	0.001008
64912	-0.785040	0.788996	10.022699	-1.053081	-0.255859	0.213221	0.998598	0.050759	-0.014120	0.005175
64913	-0.895005	0.840662	9.992108	-1.157086	-0.201874	0.185830	0.998557	0.051043	-0.013844	0.009299
64914	-0.990792	1.222320	10.085560	-1.263221	0.142955	0.315392	0.998451	0.052199	-0.013779	0.013440
64915	-0.954362	1.274758	9.907684	-1.229128	0.177010	0.145011	0.998296	0.053870	-0.013813	0.017678
64916	-0.964454	1.397774	9.572852	-1.243729	0.287503	-0.174551	0.998083	0.056095	-0.013970	0.022097
64917	-0.838677	1.632299	9.262072	-1.133008	0.503257	-0.452322	0.997803	0.058909	-0.014225	0.026756
64918	-0.944720	1.982000	9.261644	-1.273542	0.775664	-0.411900	0.997448	0.062289	-0.014541	0.031723
64919	-0.876929	2.050646	9.225218	-1.226957	0.774382	-0.433287	0.997027	0.065946	-0.014803	0.037002
64920	-0.832934	2.262044	9.143133	-1.216180	0.913562	-0.480317	0.996526	0.069922	-0.015115	0.042649
64921	-0.805937	2.343281	9.028563	-1.212965	0.925920	-0.575469	0.995970	0.073807	-0.015203	0.048643
64922	-0.627225	2.362453	8.977680	-1.052443	0.883985	-0.610316	0.995340	0.077787	-0.015135	0.054945
64923	-0.543493	2.703023	9.114606	-1.026954	1.120473	-0.412314	0.994640	0.081654	-0.015013	0.061629
64924	-0.277593	2.806162	9.113332	-0.794314	1.173520	-0.378927	0.993901	0.085124	-0.014717	0.068544
64925	-0.166981	2.816426	9.000091	-0.700145	1.145889	-0.476837	0.993113	0.088363	-0.014170	0.075621
64926	-0.042809	2.885351	9.030859	-0.598882	1.161579	-0.422519	0.992300	0.091198	-0.013234	0.082757
64927	-0.083319	3.074563	9.156615	-0.678115	1.263899	-0.260408	0.991514	0.093072	-0.012050	0.089956
64928	-0.077925	3.275901	9.265994	-0.715842	1.407870	-0.112085	0.990782	0.093647	-0.010643	0.097304
64929	0.013186	3.044423	9.502432	-0.585415	1.152332	0.081468	0.990093	0.092956	-0.009025	0.104847
64930	0.034186	2.990663	9.792066	-0.552484	1.066764	0.355229	0.989394	0.091552	-0.007248	0.112543
64931	0.110381	2.857109	9.849538	-0.446053	0.977206	0.387049	0.988693	0.089397	-0.005416	0.120271
64932	0.086732	2.709894	9.877076	-0.431421	0.874505	0.383220	0.988001	0.086472	-0.003589	0.127917
64933	0.047862	2.805496	9.985721	-0.493901	1.001594	0.499448	0.987330	0.082697	-0.002045	0.135415
64934	-0.128996	2.604985	9.925865	-0.620819	0.852159	0.395798	0.986653	0.078207	-0.000709	0.142828
64935	-0.020802	2.264707	9.639914	-0.438375	0.682255	0.056416	0.985841	0.074328	0.000448	0.150309
64936	0.048957	2.155731	9.349494	-0.356437	0.700462	-0.250013	0.984830	0.071757	0.001539	0.157981
64937	-0.041184	2.171452	9.231871	-0.456834	0.730859	-0.368034	0.983542	0.070900	0.002690	0.166164
64938	-0.119927	2.613687	9.482211	-0.674565	1.076446	-0.058497	0.981942	0.071563	0.003765	0.175082
64939	-0.167051	2.898292	9.494589	-0.828518	1.289641	-0.003231	0.980045	0.072877	0.004760	0.184874
64940	-0.162848	3.043430	9.360973	-0.902669	1.400504	-0.110092	0.977882	0.074127	0.005588	0.195502
64941	-0.102752	2.977380	9.294771	-0.853431	1.338411	-0.182096	0.975546	0.074271	0.006322	0.206770
64942	-0.199160	2.706831	9.444388	-0.859433	1.019441	-0.076925	0.973070	0.073269	0.006857	0.218448
64943	-0.189706	2.496148	9.509548	-0.793816	0.825909	-0.046118	0.970438	0.071841	0.007213	0.230299
64944	-0.067405	2.188976	9.297058	-0.591030	0.642963	-0.301186	0.967660	0.070565	0.007587	0.242067
64945	0.047977	1.829814	8.859745	-0.364902	0.438408	-0.783833	0.964676	0.070621	0.008295	0.253663
64946	-0.152624	1.799755	8.802393	-0.529078	0.292766	-0.847269	0.961437	0.072533	0.009609	0.265114
64947	-0.169618	1.820619	8.945501	-0.526669	0.226411	-0.700259	0.958010	0.075766	0.011425	0.276307
64948	-0.007746	2.083050	9.037403	-0.492006	0.449248	-0.562314	0.954465	0.079440	0.013580	0.287232
64949	0.148490	2.405278	8.946326	-0.515240	0.745989	-0.591960	0.950889	0.082547	0.015928	0.297897
64950	0.035585	2.761389	9.172188	-0.768530	0.882359	-0.305523	0.947369	0.084416	0.018229	0.308274
64951	0.098571	2.633055	9.241791	-0.625360	0.777964	-0.254597	0.943990	0.084478	0.020260	0.318333
64952	0.129252	2.308469	8.915895	-0.433125	0.585754	-0.630737	0.940612	0.083906	0.022197	0.328202
64953	0.142428	2.259321	8.713071	-0.408685	0.590363	-0.839012	0.937160	0.083127	0.024253	0.337983
64954	0.023717	2.297023	8.821461	-0.506415	0.534727	-0.726838	0.933576	0.082385	0.026431	0.347777
64955	-0.184663	2.617286	9.317810	-0.809915	0.574762	-0.183588	0.929898	0.081389	0.028530	0.357563
64956	-0.137208	2.284921	9.325791	-0.548431	0.370928	-0.232933	0.926126	0.080164	0.030551	0.367330
64957	-0.166947	2.417465	9.307148	-0.655288	0.458321	-0.228557	0.922251	0.079088	0.032599	0.377008
64958	-0.228736	2.427938	9.228400	-0.709310	0.440888	-0.304109	0.918291	0.077855	0.034735	0.386619
64959	-0.403294	2.506630	9.256820	-0.877392	0.380442	-0.261773	0.914231	0.076003	0.036874	0.396289
64960	-0.731354	2.504278	9.396840	-1.079161	0.144251	-0.121380	0.910001	0.073451	0.038854	0.406194
64961	-0.976200	2.691122	9.685866	-1.341474	0.079078	0.197570	0.905518	0.070568	0.040793	0.416405
64962	-1.257591	2.367769	9.968523	-1.243624	-0.341978	0.429172	0.900793	0.067326	0.042595	0.426878
64963	-1.208226	2.228549	10.375577	-1.055756	-0.386379	0.808741	0.895872	0.063322	0.043908	0.437580
64964	-1.349709	2.238730	10.544849	-1.153507	-0.452924	0.980428	0.890807	0.058245	0.044289	0.448451
64965	-1.528819	1.843624	10.032618	-1.059859	-0.736894	0.420726	0.885632	0.052155	0.044006	0.459347
64966	-1.807450	1.521674	9.688366	-1.048834	-1.072699	0.046101	0.880222	0.046567	0.043486	0.470265
64967	-1.970872	1.325566	9.679853	-1.009467	-1.273989	0.020867	0.874533	0.042099	0.043089	0.481210
64968	-2.248510	1.097845	9.564448	-0.984740	-1.602900	-0.106983	0.868498	0.039112	0.043309	0.492246
64969	-2.148137	0.968798	9.566840	-0.792859	-1.581042	-0.119959	0.862093	0.038266	0.044421	0.503347
64970	-2.060061	1.234051	9.916495	-0.880720	-1.398915	0.255607	0.855384	0.038554	0.046137	0.514493
64971	-1.912286	1.361039	10.041951	-0.848455	-1.230807	0.390990	0.848595	0.038125	0.047701	0.525507
64972	-2.081962	1.247029	9.898915	-0.800066	-1.434376	0.246167	0.841847	0.036039	0.048526	0.536321
64973	-2.460256	1.451715	10.118287	-1.104148	-1.682788	0.506670	0.835123	0.032631	0.048123	0.546981
64974	-2.661557	1.319192	10.161697	-1.072257	-1.906260	0.545912	0.828399	0.028322	0.046749	0.557465
64975	-2.664833	0.555403	9.858813	-0.423488	-2.180448	0.170911	0.821603	0.024522	0.045108	0.567743
64976	-2.709598	0.305640	9.671186	-0.223550	-2.302355	-0.034327	0.814611	0.022616	0.044051	0.577889
64977	-2.719745	0.298527	9.425085	-0.208673	-2.326286	-0.280480	0.807408	0.022416	0.043730	0.587944
64978	-2.680041	0.632164	9.187708	-0.473476	-2.215718	-0.492703	0.800017	0.023442	0.044089	0.597896
64979	-2.754619	1.003368	9.181002	-0.769006	-2.221241	-0.466062	0.792414	0.025003	0.044961	0.607811
64980	-2.775663	1.200714	9.193957	-0.875920	-2.232707	-0.436020	0.784635	0.026219	0.045916	0.617699
64981	-2.703452	1.249327	9.307583	-0.810667	-2.186467	-0.322581	0.776725	0.027031	0.046882	0.627510
64982	-2.701090	1.427369	9.455077	-0.890713	-2.174423	-0.158167	0.768750	0.027233	0.047759	0.637182
64983	-2.633970	1.566561	9.418396	-0.955443	-2.106775	-0.182191	0.760839	0.026533	0.048296	0.646597
64984	-2.496833	1.467647	9.124845	-0.825444	-2.007824	-0.488624	0.753023	0.024866	0.048411	0.655740
64985	-2.561178	1.502831	9.010038	-0.848705	-2.075598	-0.594747	0.745217	0.023021	0.048552	0.664654
64986	-2.544390	1.435458	9.057200	-0.743532	-2.066931	-0.552978	0.737405	0.021090	0.048792	0.673356
64987	-2.551622	1.463491	9.269934	-0.714290	-2.062888	-0.335430	0.729467	0.019547	0.049351	0.681954
64988	-2.523881	1.563935	9.311615	-0.762000	-2.027171	-0.282117	0.721347	0.018470	0.050291	0.690499
64989	-2.634538	1.725216	9.251394	-0.874246	-2.136865	-0.316657	0.713054	0.017845	0.051612	0.698979
64990	-2.640085	1.767865	9.078851	-0.866599	-2.156218	-0.478863	0.704603	0.017340	0.053010	0.707406
64991	-2.703046	1.713589	8.994107	-0.747086	-2.228430	-0.559997	0.695872	0.017029	0.054701	0.715877
64992	-2.750420	1.948293	9.291219	-0.863139	-2.269084	-0.231824	0.686850	0.017152	0.056850	0.724370
64993	-2.928849	2.172585	9.496080	-0.957203	-2.451956	0.013026	0.677503	0.017279	0.059065	0.732941
64994	-3.004585	2.224038	9.477187	-0.903144	-2.540198	0.011866	0.667774	0.017242	0.061020	0.741658
64995	-2.985946	2.207110	9.498567	-0.787131	-2.526852	0.036406	0.657656	0.017103	0.062737	0.750507
64996	-2.982193	2.283156	9.711021	-0.745272	-2.527089	0.260441	0.647184	0.016725	0.063976	0.759461
64997	-2.867283	2.065521	9.805084	-0.457345	-2.383012	0.323337	0.636451	0.015991	0.064640	0.768438
64998	-2.742962	1.915519	9.919960	-0.250382	-2.232034	0.412459	0.625557	0.015279	0.065050	0.777312
64999	-2.684105	1.939155	9.954985	-0.212996	-2.183445	0.446614	0.614615	0.014754	0.065505	0.785964
65000	-2.556038	1.919543	9.802874	-0.172948	-2.074612	0.285830	0.603734	0.014251	0.065930	0.794327
65001	-2.473806	2.038387	9.644690	-0.259692	-2.046267	0.139187	0.592900	0.013657	0.066503	0.802409
65002	-2.481099	2.046141	9.473269	-0.216991	-2.070721	-0.027492	0.582032	0.012813	0.067458	0.810261
65003	-2.255062	1.962219	9.637599	-0.131194	-1.801995	0.114759	0.571146	0.011748	0.068965	0.817862
65004	-2.137382	2.029954	10.257473	-0.120414	-1.626481	0.734572	0.560244	0.010075	0.070513	0.825259
65005	-1.994983	2.100124	10.750315	-0.160656	-1.438209	1.226580	0.549472	0.007455	0.071212	0.832438
65006	-2.033001	2.032925	10.953365	-0.073776	-1.403381	1.424175	0.539005	0.003726	0.070289	0.839356
65007	-2.128702	1.868189	10.826066	0.057076	-1.433456	1.285365	0.528839	-0.000799	0.067576	0.846027
65008	-2.246691	1.486605	10.495009	0.353914	-1.426272	0.922429	0.518957	-0.005468	0.063601	0.852413
65009	-2.028333	1.117750	10.085919	0.481217	-1.135128	0.461977	0.509100	-0.009367	0.059668	0.858585
65010	-1.941692	0.923144	9.841362	0.545642	-1.014663	0.194678	0.499060	-0.011959	0.056755	0.864624
65011	-1.996843	0.997311	9.757071	0.489756	-1.120754	0.121420	0.488565	-0.013147	0.055131	0.870685
65012	-2.058936	1.282060	9.601692	0.292097	-1.346591	-0.005717	0.477469	-0.013605	0.054141	0.876874
65013	-1.997189	1.333865	9.384723	0.244652	-1.356199	-0.224063	0.465705	-0.013726	0.053312	0.883226
65014	-1.787354	1.346145	9.356276	0.153011	-1.206683	-0.269783	0.453308	-0.013909	0.052230	0.889714
65015	-1.651094	1.291624	9.518409	0.151654	-1.066541	-0.125898	0.440368	-0.014227	0.050717	0.896271
65016	-1.548107	1.107046	9.537885	0.258086	-0.893676	-0.131360	0.427079	-0.014628	0.048929	0.902771
65017	-1.293427	0.906649	9.332974	0.265265	-0.614848	-0.370712	0.413652	-0.014838	0.047205	0.909089
65018	-1.113426	0.797933	9.156381	0.242210	-0.446312	-0.568348	0.400237	-0.014849	0.045819	0.915145
65019	-0.976891	0.657974	9.161659	0.269307	-0.265104	-0.583364	0.386914	-0.014607	0.044971	0.920903
65020	-0.841712	0.729883	9.312556	0.144559	-0.212868	-0.437259	0.373710	-0.014234	0.044533	0.926366
65021	-0.709677	0.749341	9.306419	0.056659	-0.143582	-0.450491	0.360733	-0.013904	0.044182	0.931518
65022	-0.659259	0.812466	9.234656	-0.005045	-0.171222	-0.520528	0.348032	-0.013697	0.043804	0.936359
65023	-0.698040	0.718674	9.161392	0.100106	-0.140386	-0.598291	0.335608	-0.013665	0.043300	0.940907
65024	-0.718727	0.710531	9.228386	0.132727	-0.147607	-0.531248	0.323365	-0.013714	0.042730	0.945210
65025	-0.720723	0.729831	9.425515	0.134153	-0.151145	-0.333681	0.311287	-0.013691	0.042342	0.949273
65026	-0.810453	0.741094	9.529700	0.213690	-0.205750	-0.224506	0.299321	-0.013631	0.042044	0.953128
65027	-1.046614	0.837521	9.593253	0.369664	-0.412172	-0.142073	0.287453	-0.013582	0.041693	0.956790
65028	-1.354077	0.833528	9.409401	0.650498	-0.586523	-0.310166	0.275648	-0.013600	0.041479	0.960267
65029	-1.700620	0.970586	9.327479	0.897880	-0.874025	-0.364629	0.263749	-0.013787	0.041536	0.963598
65030	-1.970485	0.779562	9.588086	1.250420	-0.792088	-0.105432	0.251730	-0.014371	0.041751	0.966790
65031	-1.789842	0.731016	10.024646	1.131546	-0.583183	0.317011	0.239553	-0.014937	0.042185	0.969851
65032	-1.959601	0.823052	10.129410	1.252370	-0.695120	0.437710	0.227381	-0.015763	0.042144	0.972766
65033	-2.161517	0.519793	10.116465	1.576171	-0.481541	0.413208	0.215353	-0.016556	0.041434	0.975516
65034	-2.222798	0.372223	10.279170	1.693067	-0.335727	0.568136	0.203354	-0.017222	0.039970	0.978137
65035	-2.028916	0.115223	10.298631	1.614976	-0.012058	0.559549	0.191318	-0.017588	0.037998	0.980635
65036	-1.894666	-0.061785	10.141954	1.556725	0.188165	0.385057	0.179310	-0.017590	0.035740	0.982986
65037	-1.979926	-0.322535	10.007265	1.727803	0.387176	0.238894	0.167467	-0.017398	0.033374	0.985159
65038	-1.979045	-0.626550	9.878694	1.826259	0.668297	0.092661	0.156068	-0.016970	0.031716	0.987091
65039	-1.994713	-0.658016	9.793338	1.851630	0.707326	0.005277	0.145251	-0.016369	0.031074	0.988771
65040	-1.929219	-0.586013	9.766576	1.772109	0.690311	-0.023190	0.135227	-0.015765	0.031314	0.990194
65041	-2.042703	-0.349395	9.757510	1.824861	0.476745	-0.017479	0.125893	-0.015263	0.032012	0.991410
65042	-2.103197	-0.032216	9.866289	1.811889	0.210446	0.109042	0.117138	-0.014830	0.032730	0.992465
65043	-2.354564	0.037492	9.832379	2.052005	0.125805	0.086523	0.108772	-0.014528	0.032963	0.993414
65044	-2.507351	-0.048251	9.641901	2.234318	0.204176	-0.105917	0.100578	-0.014136	0.033183	0.994275
65045	-2.553291	-0.046501	9.401364	2.297074	0.223940	-0.348008	0.092318	-0.013517	0.033961	0.995058
65046	-2.625655	0.139283	9.268743	2.355493	0.078061	-0.470941	0.083890	-0.012662	0.035310	0.995769
65047	-2.647678	0.171504	9.329680	2.393428	0.117998	-0.413772	0.075138	-0.011774	0.037166	0.996411
65048	-2.626297	0.378352	9.388165	2.364923	0.000093	-0.347763	0.066121	-0.010862	0.039140	0.996984
65049	-2.481668	0.371364	9.325579	2.247947	0.096429	-0.421202	0.057034	-0.010057	0.040742	0.997490
65050	-2.275490	0.343765	9.154551	2.068814	0.200410	-0.605010	0.048022	-0.009394	0.042183	0.997911
65051	-2.256607	0.312000	9.172381	2.066794	0.299186	-0.595274	0.039138	-0.008949	0.043605	0.998242
65052	-2.181261	0.333139	9.434522	1.994720	0.367892	-0.338271	0.030417	-0.008667	0.044759	0.998497
65053	-2.100554	0.205062	9.491770	1.925620	0.559057	-0.298103	0.021844	-0.008467	0.045601	0.998685
65054	-1.960283	0.163699	9.391259	1.790455	0.649812	-0.408592	0.013529	-0.008263	0.046929	0.998772
65055	-1.869385	0.135159	9.592705	1.697436	0.757536	-0.216990	0.005634	-0.008016	0.048600	0.998770
65056	-1.844961	0.248681	9.746163	1.668525	0.718159	-0.058025	-0.001722	-0.007900	0.050193	0.998707
65057	-1.876916	0.243028	9.656967	1.700106	0.768216	-0.150484	-0.008453	-0.007844	0.051541	0.998604
65058	-1.838741	0.305528	9.652359	1.660318	0.755449	-0.152730	-0.014578	-0.007804	0.053086	0.998453
65059	-1.813430	0.456554	9.526363	1.639396	0.644128	-0.265656	-0.020186	-0.007801	0.054945	0.998255
65060	-1.754936	0.629447	9.449834	1.586682	0.520520	-0.326564	-0.025470	-0.007923	0.057341	0.997998
65061	-1.754888	0.814879	9.468889	1.590918	0.405732	-0.288641	-0.030600	-0.008234	0.060161	0.997686
65062	-1.668730	0.898273	9.529972	1.500214	0.400481	-0.221005	-0.035742	-0.008789	0.063481	0.997304
65063	-1.574621	1.177929	9.660390	1.411794	0.214770	-0.058189	-0.040934	-0.009451	0.066922	0.996873
65064	-1.366265	1.379680	9.487309	1.213250	0.050883	-0.205177	-0.046171	-0.010293	0.069809	0.996438
65065	-1.107906	1.390462	9.289002	0.948779	0.053161	-0.402954	-0.051560	-0.011357	0.072440	0.995974
65066	-0.938118	1.458594	9.757563	0.752489	0.092107	0.068741	-0.057131	-0.012729	0.074641	0.995491
65067	-0.653409	1.495857	10.446594	0.423252	0.160879	0.750964	-0.062684	-0.014385	0.075392	0.995078
65068	-0.472091	1.323242	10.671824	0.182579	0.342621	0.944210	-0.067935	-0.016166	0.074533	0.994770
65069	-0.275750	1.043830	10.719594	-0.082677	0.564536	0.946008	-0.072586	-0.017851	0.072412	0.994570
65070	-0.423447	0.971294	10.711869	0.024384	0.603350	0.934492	-0.076594	-0.019375	0.069675	0.994436
65071	-0.563185	0.754350	10.539053	0.113616	0.756131	0.740649	-0.080066	-0.020675	0.066976	0.994322
65072	-0.578389	0.678430	10.442627	0.101895	0.773038	0.638874	-0.083311	-0.021604	0.065106	0.994160
65073	-0.481659	0.657748	10.398221	-0.007474	0.745652	0.590752	-0.086714	-0.022093	0.064421	0.993903
65074	-0.377336	0.953255	10.365709	-0.063704	0.431059	0.594480	-0.090568	-0.022228	0.064634	0.993542
65075	-0.471253	1.132411	10.345208	0.064714	0.279626	0.601024	-0.095057	-0.021971	0.065002	0.993104
65076	-0.333393	1.172390	10.137000	-0.037174	0.195171	0.395393	-0.100181	-0.021241	0.064940	0.992620
65077	-0.101818	1.048230	9.764668	-0.243228	0.221297	0.003100	-0.105849	-0.020098	0.064552	0.992081
65078	0.053311	0.919319	9.714517	-0.387642	0.298379	-0.066898	-0.111955	-0.018590	0.063841	0.991486
65079	0.324264	0.827557	9.707507	-0.633612	0.312044	-0.090204	-0.118329	-0.016738	0.063136	0.990824
65080	0.515133	0.827817	9.444229	-0.761967	0.219182	-0.351437	-0.124689	-0.014605	0.062363	0.990126
65081	0.708817	0.618625	9.108147	-0.939874	0.316941	-0.709970	-0.130932	-0.012397	0.061869	0.989381
65082	0.810802	0.575796	8.707591	-0.991410	0.280423	-1.109273	-0.137035	-0.010316	0.062549	0.988536
65083	0.858730	0.536507	8.679722	-1.014467	0.318307	-1.139035	-0.142951	-0.008586	0.064446	0.987592
65084	0.949123	0.701941	8.837653	-1.036620	0.191076	-0.959080	-0.148623	-0.007245	0.067378	0.986569
65085	1.082836	0.829304	8.998380	-1.114583	0.098092	-0.780579	-0.153938	-0.006147	0.070393	0.985551
65086	1.175781	1.050372	8.914020	-1.117243	-0.107522	-0.830174	-0.158914	-0.005305	0.072961	0.984578
65087	0.682314	1.183215	8.670777	-0.586716	-0.078169	-1.054976	-0.163702	-0.004905	0.074805	0.983657
65088	0.236320	1.203788	8.651170	-0.152606	0.065852	-1.076552	-0.168403	-0.005018	0.075700	0.982794
65089	-0.289651	1.031476	8.889329	0.273632	0.444833	-0.874273	-0.173018	-0.005632	0.075702	0.981989
65090	-0.693364	0.709990	9.373220	0.510083	0.950261	-0.448987	-0.177475	-0.006717	0.075237	0.981222
65091	-0.619198	0.504603	10.019113	0.320434	1.195310	0.161737	-0.181625	-0.007825	0.074189	0.980534
65092	-0.694511	0.527011	10.220993	0.371192	1.200652	0.368142	-0.185388	-0.008757	0.072177	0.979972
65093	-0.656996	0.307548	10.015617	0.255983	1.317384	0.139076	-0.188683	-0.009303	0.069711	0.979517
65094	-0.619394	0.078558	9.725439	0.147700	1.429091	-0.173720	-0.191607	-0.009504	0.067259	0.979118
65095	-0.459877	-0.275752	9.446385	-0.119642	1.619515	-0.491503	-0.194241	-0.009599	0.065482	0.978719
65096	-0.441180	-0.284497	9.399787	-0.141914	1.594801	-0.535402	-0.196708	-0.009771	0.065110	0.978249
65097	-0.415523	0.024019	9.618634	-0.065986	1.329859	-0.277570	-0.198997	-0.010038	0.065501	0.977757
65098	-0.469994	0.176975	9.708706	0.028604	1.226591	-0.168734	-0.201108	-0.010468	0.065563	0.977316
65099	-0.443579	0.173142	9.821331	-0.012517	1.228021	-0.056813	-0.202982	-0.010903	0.064996	0.976962
65100	-0.508768	0.200540	9.563663	0.063479	1.178670	-0.306407	-0.204570	-0.011426	0.063664	0.976712
65101	-0.616688	0.047802	9.200411	0.112390	1.292484	-0.683232	-0.205889	-0.012050	0.062427	0.976508
65102	-0.811606	0.035834	9.167492	0.277012	1.359638	-0.714472	-0.206972	-0.012791	0.061759	0.976312
65103	-0.778140	0.085743	9.240843	0.247199	1.302692	-0.634023	-0.207801	-0.013692	0.061929	0.976113
65104	-0.908864	0.416427	9.285405	0.477006	1.067696	-0.547126	-0.208408	-0.014750	0.062752	0.975915
65105	-0.661748	0.558192	9.359957	0.278720	0.861764	-0.456520	-0.208763	-0.016037	0.063967	0.975740
65106	-0.451931	0.652090	9.226121	0.102270	0.694381	-0.579160	-0.208781	-0.017582	0.065449	0.975611
65107	-0.468163	0.846965	9.040131	0.170949	0.523975	-0.737637	-0.208444	-0.019486	0.067109	0.975535
65108	-0.486161	1.117635	9.052405	0.252950	0.309444	-0.687363	-0.207875	-0.021675	0.068748	0.975496
65109	-0.520957	1.216314	8.866003	0.291473	0.227250	-0.856124	-0.207115	-0.024098	0.069972	0.975513
65110	-0.467697	1.337170	8.531527	0.268642	0.063549	-1.168770	-0.206242	-0.026790	0.071034	0.975552
65111	-0.603647	1.307161	8.367309	0.343319	0.128381	-1.330333	-0.205309	-0.029770	0.071676	0.975615
65112	-0.484481	1.361032	8.350039	0.203332	0.025407	-1.341085	-0.204361	-0.032994	0.072004	0.975686
65113	-0.590967	1.389894	8.251855	0.264430	0.021316	-1.427970	-0.203400	-0.036476	0.072163	0.975751
65114	-0.696936	1.357041	7.816567	0.332938	0.026395	-1.855671	-0.202325	-0.040410	0.072107	0.975824
65115	-0.821099	1.212170	7.210841	0.392618	0.121581	-2.466226	-0.201039	-0.044876	0.072666	0.975853
65116	-1.049101	1.269794	6.961015	0.579296	0.128284	-2.684143	-0.199783	-0.050293	0.074241	0.975728
65117	-0.894063	1.732470	7.913234	0.398768	-0.232679	-1.675976	-0.198526	-0.056318	0.075594	0.975552
65118	-1.258041	2.061141	8.306149	0.695444	-0.353252	-1.197955	-0.197308	-0.062658	0.075201	0.975443
65119	-1.427617	1.585661	7.596171	0.677364	0.022327	-1.951778	-0.196032	-0.069430	0.073738	0.975353
65120	-1.661805	1.327062	7.007151	0.790538	0.243525	-2.536864	-0.194582	-0.076794	0.073231	0.975130
65121	-1.839370	1.320955	7.037925	0.831413	0.301252	-2.472569	-0.192998	-0.084990	0.074313	0.974683
65122	-1.935939	1.914841	7.734170	0.864500	-0.133456	-1.660084	-0.191480	-0.093621	0.075973	0.974063
65123	-2.101509	2.197252	8.065505	0.895556	-0.301175	-1.245197	-0.190243	-0.102523	0.076782	0.973345
65124	-2.153633	2.022544	7.555520	0.847804	-0.200729	-1.747096	-0.189180	-0.111748	0.076792	0.972536
65125	-2.640342	1.593881	6.535844	1.244353	0.252762	-2.698263	-0.187961	-0.121707	0.078386	0.971449
65126	-2.974577	1.818920	6.663341	1.432700	0.197032	-2.432794	-0.186616	-0.132304	0.082269	0.970001
65127	-3.004028	2.422919	7.703190	1.177830	-0.202005	-1.280270	-0.185512	-0.143467	0.086531	0.968254
65128	-3.399079	3.078757	8.562298	1.266157	-0.533000	-0.197388	-0.184873	-0.154726	0.088868	0.966429
65129	-3.419027	2.920840	7.768267	1.288335	-0.492705	-0.943577	-0.184823	-0.166015	0.087865	0.964655
65130	-3.721494	1.869298	5.765030	1.743046	0.333424	-2.925914	-0.184712	-0.177782	0.087553	0.962606
65131	-4.799852	1.618060	5.352758	2.579815	0.933052	-2.973135	-0.184278	-0.190548	0.090835	0.959939
65132	-5.140725	2.500252	7.620763	2.021132	0.527301	-0.518316	-0.183552	-0.203409	0.095988	0.956932
65133	-4.783647	2.775684	8.113756	1.325691	0.229755	-0.086228	-0.183034	-0.216769	0.099827	0.953700
65134	-4.682329	3.203893	7.619101	1.325642	-0.248007	-0.409752	-0.182823	-0.230427	0.101166	0.950392
65135	-4.764556	2.601965	6.033161	1.726438	0.136998	-1.883849	-0.182515	-0.244446	0.100665	0.946996
65136	-5.554395	2.707599	6.013403	2.174959	0.313571	-1.475470	-0.182063	-0.258990	0.100368	0.943241
65137	-6.287292	3.125574	7.005232	2.089123	0.265928	-0.120959	-0.181880	-0.274104	0.098871	0.939155
65138	-6.486285	3.517283	7.297735	1.896497	-0.071620	0.389739	-0.182550	-0.289562	0.095008	0.934774
65139	-6.521189	3.059343	8.114712	1.016664	0.280108	0.986007	-0.184359	-0.304609	0.087587	0.930351
65140	-6.460471	2.596004	7.772583	0.756446	0.465701	0.583985	-0.186788	-0.319076	0.077327	0.925917
65141	-7.200668	2.151749	6.696306	1.563055	0.920577	0.087789	-0.189048	-0.333629	0.065716	0.921213
65142	-7.767950	1.965033	5.930105	2.124360	1.113594	-0.137696	-0.190397	-0.348841	0.055785	0.915940
65143	-8.027765	2.651852	7.053044	1.470964	0.348901	1.092599	-0.191163	-0.364202	0.047166	0.910269
65144	-8.476105	2.053809	8.822534	0.032939	0.738055	2.570246	-0.192612	-0.379387	0.037369	0.904196
65145	-8.454948	2.301162	8.250643	0.160025	0.278688	2.217985	-0.194602	-0.393635	0.027077	0.898025
65146	-8.317529	1.563218	6.066547	1.100590	0.903249	0.501880	-0.196676	-0.407809	0.017129	0.891469
65147	-8.553543	1.473749	4.499797	2.072552	1.109039	-0.323274	-0.196937	-0.422544	0.011568	0.884612
65148	-9.850604	1.768623	5.966912	1.464551	0.963322	1.706018	-0.195849	-0.437842	0.009318	0.877412
65149	-10.530826	2.135949	7.575301	0.316279	0.492035	3.320799	-0.194397	-0.452417	0.007822	0.870326
65150	-9.992706	2.562182	6.973353	0.264827	-0.113415	2.635237	-0.193421	-0.466457	0.005682	0.863119
65151	-9.583202	2.679671	5.892472	0.618956	-0.293848	1.731120	-0.192859	-0.480229	0.003277	0.855672
65152	-9.367775	2.738489	4.664045	1.213811	-0.301836	0.931312	-0.192275	-0.494334	0.001431	0.847740
65153	-10.101699	2.590800	4.590264	1.194957	0.003189	1.518117	-0.191358	-0.508888	0.001062	0.839294
65154	-11.563177	2.850480	6.318593	-0.005120	-0.182912	3.667226	-0.191148	-0.522652	0.000484	0.830841
65155	-10.985909	2.635344	6.353915	-0.720288	-0.271563	3.125727	-0.192299	-0.535357	-0.002123	0.822442
65156	-10.172835	2.759396	5.310484	-0.399846	-0.521677	1.971210	-0.194314	-0.547810	-0.004873	0.813709
65157	-9.921009	3.064830	4.765805	-0.230190	-0.839672	1.578762	-0.196969	-0.560373	-0.007081	0.804447
65158	-10.006466	2.925082	5.095822	-0.872242	-0.835312	1.727908	-0.200975	-0.572372	-0.010614	0.794913
65159	-10.325243	2.484310	4.587013	-0.795068	-0.278572	1.724400	-0.205378	-0.583983	-0.013477	0.785241
65160	-10.936136	2.353178	4.792161	-1.216872	-0.079157	2.295351	-0.209867	-0.595111	-0.015369	0.775605
65161	-10.729461	2.498472	4.902836	-1.640398	-0.350482	2.127955	-0.214332	-0.605734	-0.016982	0.766067
65162	-10.340726	2.490154	5.198165	-2.292821	-0.591607	1.786344	-0.218975	-0.615854	-0.018564	0.756590
65163	-10.091837	2.584137	5.149323	-2.535526	-0.788064	1.500221	-0.224318	-0.625266	-0.020870	0.747186
65164	-9.819245	2.214397	4.829018	-2.659087	-0.499305	1.018523	-0.230393	-0.633781	-0.024377	0.738002
65165	-9.476606	1.974703	4.199819	-2.420724	-0.251772	0.454566	-0.236149	-0.641511	-0.028388	0.729309
65166	-9.453323	1.602537	3.810067	-2.408626	0.133891	0.218601	-0.240859	-0.648858	-0.032381	0.721056
65167	-9.842402	1.748960	3.579212	-2.323141	0.131018	0.547065	-0.243615	-0.656104	-0.035417	0.713390
65168	-10.115299	2.474738	3.637204	-2.278863	-0.525021	0.966943	-0.245583	-0.662898	-0.038403	0.706244
65169	-10.028760	3.044798	3.584983	-2.173287	-1.116032	0.991365	-0.248309	-0.668738	-0.042676	0.699507
65170	-10.022138	2.714727	3.471058	-2.336732	-0.874864	0.847220	-0.252608	-0.673292	-0.048279	0.693207
65171	-10.875964	-0.129569	6.588657	-6.493444	0.496249	1.109823	-0.253623	-0.676762	-0.049352	0.689371
65172	-10.495302	-0.788517	6.572011	-6.826457	0.973055	0.503124	-0.249722	-0.680094	-0.044845	0.687822
65173	-10.192973	1.482261	5.133851	-4.658697	-0.445322	0.701466	-0.243788	-0.682869	-0.038445	0.687589
65174	-9.826899	3.281368	3.341352	-2.354615	-1.399427	0.722832	-0.240458	-0.684287	-0.035703	0.687500
65175	-9.792767	3.615034	1.938600	-0.954039	-1.182401	0.695244	-0.240151	-0.684644	-0.036775	0.687195
65176	-9.689697	3.973605	1.436413	-0.339131	-1.359371	0.664911	-0.242099	-0.684359	-0.040107	0.686609
65177	-9.573937	3.950231	0.828292	0.247753	-1.149047	0.510532	-0.246195	-0.683406	-0.045031	0.685797
65178	-9.437504	3.847462	0.425356	0.625126	-0.931346	0.325951	-0.251724	-0.681941	-0.050680	0.684853
65179	-9.384462	3.366129	-0.064183	0.915584	-0.304092	0.110624	-0.258263	-0.680195	-0.056823	0.683671
65180	-9.340636	2.827079	-0.442323	1.056343	0.342109	-0.106892	-0.264500	-0.678531	-0.062233	0.682468
65181	-9.134116	2.523434	-0.442404	0.949760	0.579161	-0.391544	-0.269907	-0.677124	-0.066364	0.681358
65182	-9.022073	2.640582	-0.107820	0.722288	0.329439	-0.445096	-0.274715	-0.675996	-0.069713	0.680221
65183	-9.057315	2.735825	0.279986	0.430357	0.108045	-0.357470	-0.279679	-0.674864	-0.073207	0.678954
65184	-9.054122	2.507433	0.590227	0.057675	0.174559	-0.401052	-0.284551	-0.673749	-0.076701	0.677650
65185	-9.169422	2.231465	0.673026	-0.150940	0.414152	-0.361953	-0.289049	-0.672648	-0.080057	0.676451
65186	-9.329130	2.031894	0.727982	-0.304418	0.609257	-0.261387	-0.292538	-0.671712	-0.082796	0.675551
65187	-9.447558	1.936812	0.841776	-0.454571	0.671005	-0.165963	-0.294739	-0.671049	-0.084560	0.675035
65188	-9.483561	2.102944	0.901584	-0.419079	0.520424	-0.079924	-0.295565	-0.670694	-0.085191	0.674947
65189	-9.428607	2.504995	0.892207	-0.195564	0.185628	-0.019989	-0.295844	-0.670441	-0.085520	0.675034
65190	-9.387341	2.798392	0.805372	0.038969	-0.019181	0.015838	-0.296259	-0.670135	-0.086088	0.675084
65191	-9.363633	3.006687	0.883224	0.089872	-0.235303	0.058200	-0.297044	-0.669744	-0.087139	0.674993
65192	-9.302163	3.050817	1.027264	0.005281	-0.363335	0.024026	-0.298400	-0.669199	-0.088703	0.674731
65193	-9.336993	2.913343	1.104523	-0.122422	-0.282989	0.025600	-0.300060	-0.668597	-0.090551	0.674346
65194	-9.373937	2.878069	1.175812	-0.191635	-0.281202	0.057505	-0.301686	-0.667958	-0.092258	0.674022
65195	-9.388053	2.867718	1.188687	-0.195297	-0.273751	0.069581	-0.303394	-0.667216	-0.093960	0.673756
65196	-9.323546	2.898536	1.111353	-0.092488	-0.272089	0.009864	-0.305145	-0.666345	-0.095731	0.673577
65197	-9.340549	2.895396	1.024649	-0.003632	-0.213807	0.017537	-0.307102	-0.665343	-0.097703	0.673395
65198	-9.422743	2.855709	0.881630	0.108820	-0.076215	0.071782	-0.309165	-0.664266	-0.099793	0.673207
65199	-9.406639	2.847243	0.889640	0.119509	-0.072076	0.054612	-0.311246	-0.663189	-0.101863	0.673001
65200	-9.364360	2.807213	0.918289	0.097118	-0.061101	0.005751	-0.313438	-0.662084	-0.103954	0.672751
65201	-9.291872	2.770028	0.934263	0.089078	-0.053458	-0.072361	-0.315741	-0.660918	-0.106150	0.672479
65202	-9.304649	2.616181	0.976982	-0.013320	0.054336	-0.098151	-0.318102	-0.659719	-0.108323	0.672196
65203	-9.252983	2.504696	0.959233	-0.039559	0.145337	-0.180003	-0.320213	-0.658603	-0.110112	0.671998
65204	-9.302525	2.472799	0.853244	0.041004	0.254173	-0.152800	-0.321958	-0.657646	-0.111524	0.671868
65205	-9.418484	2.503868	0.803436	0.103832	0.301267	-0.039196	-0.323276	-0.656892	-0.112498	0.671810
65206	-9.399763	2.543440	0.882835	0.074408	0.227981	-0.037898	-0.324352	-0.656277	-0.113313	0.671757
65207	-9.366952	2.587784	0.928124	0.075299	0.165746	-0.052325	-0.325331	-0.655706	-0.113994	0.671725
65208	-9.433265	2.560339	0.925156	0.064655	0.214767	0.002985	-0.326317	-0.655193	-0.114636	0.671638
65209	-9.451597	2.577238	0.908776	0.092653	0.224283	0.023055	-0.327204	-0.654755	-0.115126	0.671550
65210	-9.409978	2.455618	0.914302	0.023889	0.308917	-0.049610	-0.328017	-0.654402	-0.115537	0.671427
65211	-9.442452	2.467445	0.993217	-0.031956	0.270276	-0.006537	-0.328702	-0.654099	-0.115788	0.671344
65212	-9.440830	2.423405	0.972095	-0.038251	0.322121	-0.022800	-0.329268	-0.653825	-0.116007	0.671296
65213	-9.455821	2.474289	1.017643	-0.043078	0.265848	0.010638	-0.329581	-0.653639	-0.116157	0.671297
65214	-9.387696	2.453486	1.073493	-0.092452	0.231491	-0.053657	-0.329807	-0.653474	-0.116337	0.671316
65215	-9.313827	2.462245	1.083381	-0.087068	0.198665	-0.120593	-0.329880	-0.653369	-0.116435	0.671365
65216	-9.353805	2.537332	1.093975	-0.051527	0.147225	-0.060550	-0.329964	-0.653278	-0.116600	0.671384
65217	-9.330337	2.555788	1.122387	-0.059105	0.108727	-0.074532	-0.330032	-0.653187	-0.116834	0.671398
65218	-9.360944	2.548854	1.169651	-0.100303	0.093371	-0.041647	-0.330141	-0.653071	-0.117132	0.671405
65219	-9.343867	2.632451	1.200524	-0.070061	0.005065	-0.031380	-0.330278	-0.652906	-0.117521	0.671431
65220	-9.346774	2.634461	1.184281	-0.050700	0.011755	-0.029928	-0.330468	-0.652682	-0.117979	0.671474
65221	-9.345761	2.671769	1.169846	-0.010683	-0.010176	-0.022390	-0.330659	-0.652447	-0.118440	0.671528
65222	-9.332599	2.671640	1.174237	-0.007217	-0.017854	-0.034471	-0.330832	-0.652220	-0.118791	0.671601
65223	-9.370955	2.690405	1.179229	0.002733	-0.024229	0.007855	-0.330936	-0.652021	-0.119003	0.671705
65224	-9.365099	2.717946	1.171761	0.030589	-0.041355	0.008854	-0.331047	-0.651812	-0.119112	0.671835
65225	-9.326997	2.744972	1.105716	0.106819	-0.031699	-0.028111	-0.331196	-0.651602	-0.119206	0.671948
65226	-9.318385	2.721802	1.057571	0.135702	0.014833	-0.048450	-0.331393	-0.651414	-0.119224	0.672030
65227	-9.359279	2.708613	1.094485	0.098083	0.018534	-0.008575	-0.331595	-0.651262	-0.119202	0.672081
65228	-9.348171	2.679556	1.097529	0.080733	0.039519	-0.026738	-0.331791	-0.651130	-0.119141	0.672124
65229	-9.318979	2.642830	1.106630	0.054772	0.057810	-0.063523	-0.332043	-0.650992	-0.119097	0.672141
65230	-9.337626	2.613910	1.056963	0.076558	0.119241	-0.059694	-0.332235	-0.650877	-0.118964	0.672180
65231	-9.276443	2.622615	1.066876	0.078423	0.093907	-0.114556	-0.332429	-0.650797	-0.118835	0.672185
65232	-9.272956	2.618332	1.121685	0.032047	0.068251	-0.112385	-0.332647	-0.650729	-0.118725	0.672163
65233	-9.281581	2.603497	1.162654	-0.010582	0.061764	-0.103218	-0.332937	-0.650650	-0.118752	0.672091
65234	-9.336355	2.538874	1.201703	-0.084752	0.106304	-0.063892	-0.333181	-0.650581	-0.118794	0.672029
65235	-9.359380	2.566512	1.237181	-0.097945	0.073823	-0.030021	-0.333334	-0.650524	-0.118786	0.672010
65236	-9.394711	2.585838	1.193665	-0.054052	0.097587	0.003602	-0.333383	-0.650485	-0.118711	0.672036
65237	-9.457962	2.594931	1.182399	-0.043998	0.117860	0.065012	-0.333323	-0.650482	-0.118533	0.672100
65238	-9.511328	2.669504	1.159277	0.014710	0.092436	0.133506	-0.333183	-0.650550	-0.118319	0.672142
65239	-9.475310	2.750119	1.161028	0.063116	0.019977	0.121509	-0.333106	-0.650614	-0.118317	0.672118
65240	-9.513380	2.814445	1.286806	-0.000940	-0.094212	0.190937	-0.333151	-0.650607	-0.118615	0.672050
65241	-9.458686	2.825566	1.352460	-0.040286	-0.161410	0.149844	-0.333390	-0.650495	-0.119213	0.671935
65242	-9.410525	2.807330	1.365949	-0.054171	-0.174593	0.100510	-0.333756	-0.650309	-0.120002	0.671792
65243	-9.224616	2.839243	1.395603	-0.039733	-0.274142	-0.064569	-0.334237	-0.650056	-0.120782	0.671658
65244	-9.193380	2.875940	1.468115	-0.065482	-0.355009	-0.075424	-0.335044	-0.649628	-0.121687	0.671507
65245	-9.380582	2.832178	1.482569	-0.106999	-0.274408	0.093261	-0.336171	-0.649031	-0.122730	0.671331
65246	-9.792307	2.772938	1.474955	-0.153312	-0.100710	0.469349	-0.337685	-0.648184	-0.124042	0.671148
65247	-9.920501	2.651729	1.363946	-0.132291	0.102749	0.544931	-0.339366	-0.647097	-0.125341	0.671108
65248	-9.914320	2.498932	1.274410	-0.136649	0.281835	0.486069	-0.340967	-0.645922	-0.126328	0.671243
65249	-9.677798	2.358250	1.153552	-0.095110	0.409830	0.206031	-0.342354	-0.644793	-0.126485	0.671593
65250	-9.379108	2.324102	1.098029	-0.039055	0.408671	-0.096405	-0.343511	-0.643803	-0.125748	0.672090
65251	-9.197882	2.287308	1.062128	-0.013817	0.439156	-0.285477	-0.344461	-0.642996	-0.124100	0.672682
65252	-9.148635	2.344287	0.973034	0.096423	0.479202	-0.331080	-0.345164	-0.642400	-0.121632	0.673342
65253	-9.190258	2.456701	0.946604	0.181965	0.472538	-0.266186	-0.345928	-0.641843	-0.118964	0.673958
65254	-9.249184	2.528486	0.950725	0.216283	0.483216	-0.191665	-0.346727	-0.641260	-0.116490	0.674534
65255	-9.295373	2.555099	1.038389	0.160662	0.470833	-0.129554	-0.347700	-0.640511	-0.114514	0.675083
65256	-9.365277	2.442155	0.989720	0.128828	0.647451	-0.106187	-0.348625	-0.639661	-0.112839	0.675694
65257	-9.387226	2.357674	0.869140	0.176933	0.826493	-0.131802	-0.349230	-0.638902	-0.111180	0.676374
65258	-9.417104	2.346599	0.809627	0.221784	0.913947	-0.119428	-0.349396	-0.638325	-0.109250	0.677147
65259	-9.392305	2.361844	0.883774	0.178911	0.880541	-0.129334	-0.348991	-0.638024	-0.106979	0.678001
65260	-9.376769	2.415672	1.047689	0.085366	0.765402	-0.103736	-0.348132	-0.637928	-0.104446	0.678928
65261	-9.321683	2.479236	1.095560	0.089875	0.695330	-0.130279	-0.346989	-0.637931	-0.101811	0.679910
65262	-9.309444	2.524775	1.096505	0.117717	0.678118	-0.129257	-0.345700	-0.637976	-0.099146	0.680917
65263	-9.238485	2.561777	1.006992	0.215646	0.696234	-0.200452	-0.344237	-0.638102	-0.096487	0.681921
65264	-9.155090	2.422079	1.139570	0.029819	0.712122	-0.300972	-0.342546	-0.638359	-0.093657	0.682926
65265	-9.113744	2.338808	1.338609	-0.182080	0.663209	-0.333805	-0.340224	-0.638942	-0.090272	0.683996
65266	-9.141379	2.464568	1.578612	-0.316100	0.460224	-0.230456	-0.337238	-0.639833	-0.086199	0.685167
65267	-9.192378	2.563047	1.761216	-0.428397	0.318803	-0.123224	-0.333642	-0.640956	-0.081674	0.686431
65268	-9.131983	2.737140	1.845136	-0.418236	0.132827	-0.112329	-0.329462	-0.642251	-0.076780	0.687803
65269	-9.068118	3.002032	1.892223	-0.334925	-0.107935	-0.081317	-0.324807	-0.643670	-0.071564	0.689252
65270	-8.988020	3.305034	1.892790	-0.200286	-0.366212	-0.059940	-0.319910	-0.645192	-0.066366	0.690638
65271	-9.012071	3.668178	1.959038	-0.101117	-0.675711	0.089023	-0.315177	-0.646586	-0.061620	0.691949
65272	-8.948540	3.867476	2.031699	-0.089487	-0.897174	0.104397	-0.311172	-0.647652	-0.058159	0.693063
65273	-8.933009	3.792143	1.988533	-0.109388	-0.831829	0.057942	-0.308012	-0.648284	-0.055997	0.694061
65274	-8.937946	3.831999	1.965068	-0.076545	-0.865619	0.070501	-0.305514	-0.648609	-0.054831	0.694954
65275	-8.929732	3.751876	1.930965	-0.084105	-0.805031	0.030592	-0.303594	-0.648667	-0.054432	0.695773
65276	-8.864559	3.596009	1.812078	-0.047724	-0.664086	-0.099192	-0.301937	-0.648616	-0.054326	0.696548
65277	-8.821507	3.568854	1.684440	0.061518	-0.614956	-0.168463	-0.300400	-0.648520	-0.054263	0.697307
65278	-8.828885	3.579695	1.616175	0.135999	-0.606787	-0.169621	-0.298996	-0.648460	-0.054298	0.697964
65279	-8.912261	3.597423	1.572674	0.190087	-0.589273	-0.093647	-0.297809	-0.648383	-0.054496	0.698526
65280	-9.032632	3.536199	1.540754	0.195207	-0.499205	-0.005561	-0.296879	-0.648291	-0.054846	0.698980
65281	-9.085042	3.492825	1.468712	0.245090	-0.428302	0.018457	-0.296054	-0.648237	-0.055228	0.699350
65282	-9.129886	3.442956	1.435553	0.256171	-0.371002	0.039535	-0.295238	-0.648242	-0.055442	0.699673
65283	-9.066676	3.467125	1.450938	0.259730	-0.432041	-0.010817	-0.294452	-0.648331	-0.055525	0.699915
65284	-9.085730	3.488189	1.531189	0.200670	-0.489836	0.025111	-0.293781	-0.648478	-0.055493	0.700064
65285	-9.084601	3.497127	1.604121	0.140217	-0.539091	0.037328	-0.293309	-0.648644	-0.055468	0.700110
65286	-9.099728	3.509012	1.658833	0.095440	-0.573917	0.063114	-0.293062	-0.648796	-0.055425	0.700076
65287	-9.125809	3.504015	1.691057	0.061315	-0.577673	0.090884	-0.293076	-0.648916	-0.055417	0.699960
65288	-9.138069	3.464626	1.748186	-0.008904	-0.567221	0.099037	-0.293503	-0.648875	-0.055766	0.699791
65289	-9.094461	3.254290	1.709936	-0.074305	-0.390975	-0.011406	-0.294239	-0.648726	-0.056445	0.699566
65290	-9.061909	3.155130	1.741471	-0.145372	-0.334378	-0.067287	-0.295288	-0.648476	-0.057419	0.699276
65291	-9.127609	3.027573	1.645296	-0.119124	-0.163249	-0.058426	-0.296531	-0.648185	-0.058697	0.698913
65292	-9.222211	2.963148	1.610610	-0.115533	-0.064472	0.005967	-0.297894	-0.647843	-0.060251	0.698519
65293	-9.248711	2.877348	1.592543	-0.134164	0.018876	0.002383	-0.299313	-0.647436	-0.062055	0.698132
65294	-9.225152	2.826081	1.573495	-0.133382	0.055950	-0.037969	-0.300688	-0.647042	-0.063863	0.697743
65295	-9.245586	2.823977	1.572568	-0.124890	0.058510	-0.019340	-0.302097	-0.646642	-0.065752	0.697329
65296	-9.228659	2.782158	1.513037	-0.084953	0.109394	-0.056733	-0.303514	-0.646221	-0.067574	0.696930
65297	-9.229431	2.750393	1.446967	-0.036962	0.162983	-0.075499	-0.304877	-0.645879	-0.069194	0.696493
65298	-9.194003	2.713235	1.404141	-0.013549	0.199394	-0.126460	-0.306107	-0.645613	-0.070532	0.696066
65299	-9.202976	2.734902	1.392213	0.010559	0.189682	-0.113377	-0.307143	-0.645423	-0.071584	0.695678
65300	-9.193378	2.750219	1.385357	0.026152	0.177493	-0.118930	-0.308053	-0.645273	-0.072453	0.695324
65301	-9.217035	2.713377	1.337474	0.047724	0.238921	-0.114975	-0.308755	-0.645181	-0.073087	0.695032
65302	-9.199345	2.808950	1.336798	0.097851	0.157896	-0.103379	-0.309286	-0.645167	-0.073490	0.694767
65303	-9.208362	2.858440	1.392721	0.073776	0.094475	-0.071542	-0.309738	-0.645190	-0.073774	0.694514
65304	-9.233234	2.918775	1.474809	0.031626	0.015301	-0.017501	-0.310086	-0.645271	-0.073880	0.694272
65305	-9.217122	2.983366	1.507669	0.034065	-0.055916	-0.008373	-0.310429	-0.645345	-0.073976	0.694040
65306	-9.202170	2.991332	1.505011	0.037362	-0.063352	-0.020464	-0.310814	-0.645390	-0.074087	0.693814
65307	-9.191416	3.027187	1.554053	0.011886	-0.117618	-0.012326	-0.311238	-0.645417	-0.074264	0.693580
65308	-9.209025	3.006261	1.615146	-0.053978	-0.123780	0.007405	-0.311753	-0.645413	-0.074573	0.693318
65309	-9.227816	2.991679	1.689687	-0.126894	-0.141707	0.032189	-0.312362	-0.645364	-0.074975	0.693047
65310	-9.217680	2.961901	1.691629	-0.144364	-0.120708	0.014045	-0.313036	-0.645266	-0.075492	0.692778
65311	-9.212893	2.934694	1.642116	-0.115477	-0.073971	-0.006181	-0.313882	-0.645088	-0.076189	0.692484
65312	-9.206459	2.876416	1.693553	-0.187681	-0.054505	-0.021744	-0.314861	-0.644865	-0.077006	0.692158
65313	-9.177828	2.869209	1.636395	-0.139437	-0.027436	-0.059612	-0.315922	-0.644612	-0.077901	0.691809
65314	-9.201843	2.825208	1.544984	-0.083942	0.064544	-0.064279	-0.316990	-0.644356	-0.078782	0.691459
65315	-9.181413	2.858564	1.532900	-0.052375	0.040277	-0.075380	-0.318088	-0.644090	-0.079675	0.691101
65316	-9.166885	2.800929	1.485228	-0.040995	0.108198	-0.113744	-0.319155	-0.643863	-0.080507	0.690723
65317	-9.126329	2.869083	1.456679	0.022036	0.059465	-0.135942	-0.320089	-0.643708	-0.081113	0.690364
65318	-9.048999	2.922600	1.439012	0.067905	0.005265	-0.195407	-0.321049	-0.643592	-0.081660	0.689962
65319	-9.094868	2.886737	1.457708	0.028781	0.044332	-0.160123	-0.322042	-0.643493	-0.082131	0.689537
65320	-9.116144	2.858845	1.408994	0.050194	0.105905	-0.156156	-0.323063	-0.643395	-0.082502	0.689106
65321	-9.137641	2.770322	1.308687	0.079573	0.243028	-0.178455	-0.323989	-0.643377	-0.082746	0.688659
65322	-9.162566	2.818739	1.300808	0.105062	0.224424	-0.141669	-0.324754	-0.643490	-0.082969	0.688165
65323	-9.160060	2.778893	1.335754	0.045252	0.238989	-0.150699	-0.325262	-0.643771	-0.083191	0.687636
65324	-9.125222	2.903415	1.465902	-0.002679	0.059321	-0.125334	-0.325606	-0.644149	-0.083617	0.687067
65325	-9.158423	2.991142	1.605024	-0.081096	-0.078500	-0.046061	-0.325925	-0.644567	-0.084286	0.686442
65326	-9.217416	3.088742	1.652751	-0.077949	-0.169284	0.046213	-0.326264	-0.644949	-0.085101	0.685821
65327	-9.291099	3.174375	1.656895	-0.044551	-0.222093	0.141967	-0.326815	-0.645231	-0.085994	0.685182
65328	-9.214969	3.168227	1.657701	-0.051227	-0.249960	0.068415	-0.327636	-0.645419	-0.086955	0.684491
65329	-9.087437	3.157954	1.717632	-0.105388	-0.320945	-0.045890	-0.328712	-0.645507	-0.087993	0.683759
65330	-9.022790	3.143103	1.710580	-0.108721	-0.329628	-0.112407	-0.330071	-0.645521	-0.089280	0.682924
65331	-9.122041	3.052868	1.660275	-0.126004	-0.202342	-0.054033	-0.331481	-0.645465	-0.090728	0.682102
65332	-9.241207	3.085185	1.629721	-0.090468	-0.173919	0.063335	-0.332865	-0.645371	-0.092243	0.681314
65333	-9.250760	3.142522	1.484519	0.061083	-0.137348	0.068264	-0.334305	-0.645184	-0.093844	0.680567
65334	-9.223620	3.135388	1.392123	0.135431	-0.091361	0.026883	-0.335905	-0.644943	-0.095524	0.679774
65335	-9.227733	3.134672	1.295379	0.214976	-0.035314	0.016238	-0.337687	-0.644658	-0.097259	0.678914
65336	-9.331171	3.070643	1.299859	0.168727	0.045229	0.094821	-0.339564	-0.644366	-0.099107	0.677987
65337	-9.401805	3.000850	1.341082	0.090730	0.096820	0.146224	-0.341472	-0.644057	-0.101075	0.677032
65338	-9.403487	2.891037	1.292423	0.065517	0.205252	0.107373	-0.343288	-0.643763	-0.103061	0.676093
65339	-9.355967	2.875272	1.268810	0.078123	0.210735	0.054464	-0.344887	-0.643562	-0.104986	0.675173
65340	-9.365436	2.950537	1.261886	0.128067	0.156494	0.085218	-0.346405	-0.643378	-0.106912	0.674268
65341	-9.409318	2.984997	1.300353	0.115890	0.114874	0.142701	-0.347958	-0.643182	-0.109067	0.673310
65342	-9.396704	2.977553	1.362193	0.065648	0.069808	0.137702	-0.349657	-0.642905	-0.111465	0.672301
65343	-9.373428	2.927110	1.363705	0.039416	0.088007	0.100914	-0.351494	-0.642535	-0.114024	0.671267
65344	-9.321135	2.828205	1.388863	-0.032332	0.117726	0.025825	-0.353308	-0.642120	-0.116560	0.670275
65345	-9.334049	2.799112	1.425999	-0.075328	0.111088	0.034899	-0.354964	-0.641752	-0.118776	0.669363
65346	-9.337646	2.794037	1.471127	-0.109335	0.080376	0.043482	-0.356490	-0.641395	-0.120773	0.668536
65347	-9.278464	2.838239	1.473913	-0.074388	0.021735	0.001176	-0.357992	-0.640998	-0.122668	0.667769
65348	-9.303315	2.858756	1.478513	-0.061119	0.007764	0.031415	-0.359601	-0.640515	-0.124573	0.667016
65349	-9.266253	2.826588	1.434214	-0.037662	0.044364	-0.019495	-0.361301	-0.639920	-0.126469	0.666310
65350	-9.225630	2.838877	1.375670	0.026064	0.059273	-0.062829	-0.363025	-0.639292	-0.128307	0.665624
65351	-9.202717	2.807204	1.380592	0.011897	0.073111	-0.093072	-0.364750	-0.638608	-0.129993	0.665010
65352	-9.226413	2.779773	1.426685	-0.034775	0.073823	-0.071917	-0.366392	-0.637956	-0.131485	0.664440
65353	-9.208255	2.825877	1.421003	0.008516	0.044875	-0.076431	-0.367940	-0.637304	-0.132744	0.663960
65354	-9.226571	2.843065	1.406913	0.036190	0.054450	-0.056266	-0.369414	-0.636662	-0.133900	0.663525
65355	-9.226969	2.851546	1.398551	0.055409	0.061179	-0.054747	-0.370842	-0.636012	-0.135009	0.663127
65356	-9.296680	2.892229	1.355713	0.116093	0.090851	0.016324	-0.372278	-0.635326	-0.136137	0.662749
65357	-9.303911	2.816430	1.345129	0.081176	0.159679	-0.000842	-0.373667	-0.634636	-0.137236	0.662402
65358	-9.254229	2.748551	1.399556	0.007280	0.161316	-0.059330	-0.374909	-0.634047	-0.138211	0.662061
65359	-9.242282	2.814200	1.449784	0.021984	0.085563	-0.043677	-0.376029	-0.633509	-0.139102	0.661754
65360	-9.234036	2.786782	1.467267	-0.002648	0.094744	-0.056794	-0.377176	-0.633018	-0.140068	0.661368
65361	-9.216736	2.776662	1.525908	-0.045454	0.061506	-0.066888	-0.378326	-0.632504	-0.141044	0.660994
65362	-9.251112	2.789372	1.555480	-0.055128	0.048120	-0.026072	-0.379469	-0.631974	-0.142075	0.660626
65363	-9.233133	2.834951	1.550026	-0.011325	0.018975	-0.030572	-0.380696	-0.631385	-0.143209	0.660239
65364	-9.186940	2.834966	1.532625	0.013623	0.020214	-0.076916	-0.382106	-0.630701	-0.144493	0.659798
65365	-9.176848	2.737983	1.588555	-0.083551	0.048689	-0.105719	-0.383643	-0.629963	-0.145880	0.659305
65366	-9.212920	2.700261	1.620022	-0.126665	0.068529	-0.077543	-0.385085	-0.629284	-0.147174	0.658825
65367	-9.216789	2.704572	1.703764	-0.175133	0.014364	-0.058928	-0.386443	-0.628583	-0.148394	0.658426
65368	-9.158004	2.764480	1.716811	-0.127922	-0.048599	-0.094658	-0.387780	-0.627876	-0.149666	0.658026
65369	-9.096152	2.762819	1.687540	-0.092203	-0.043116	-0.158125	-0.389163	-0.627113	-0.150953	0.657643
65370	-9.058361	2.839418	1.725669	-0.050715	-0.126767	-0.165125	-0.390549	-0.626325	-0.152273	0.657268
65371	-9.095000	2.863277	1.709441	-0.014454	-0.114419	-0.126292	-0.391962	-0.625557	-0.153562	0.656859
65372	-9.246359	2.866332	1.670633	0.012029	-0.035696	0.010784	-0.393391	-0.624772	-0.154893	0.656439
65373	-9.281003	2.991666	1.672947	0.107355	-0.101381	0.079937	-0.394862	-0.623982	-0.156280	0.655978
65374	-9.247767	2.936499	1.595749	0.136885	-0.017508	0.019484	-0.396460	-0.623098	-0.157839	0.655481
65375	-9.276375	2.883732	1.525041	0.156639	0.079487	0.018992	-0.398042	-0.622305	-0.159430	0.654891
65376	-9.240968	2.815330	1.494138	0.139416	0.137555	-0.039476	-0.399570	-0.621675	-0.160790	0.654225
65377	-9.218974	2.739834	1.491810	0.092054	0.184251	-0.082361	-0.400933	-0.621199	-0.161884	0.653573
65378	-9.165949	2.768723	1.540818	0.084878	0.119224	-0.115619	-0.402174	-0.620868	-0.162716	0.652919
65379	-9.160289	2.753667	1.578977	0.045639	0.104931	-0.118686	-0.403380	-0.620632	-0.163415	0.652224
65380	-9.131802	2.719528	1.578318	0.019424	0.123069	-0.155504	-0.404561	-0.620432	-0.164034	0.651527
65381	-9.118932	2.678774	1.622819	-0.044470	0.118115	-0.171714	-0.405729	-0.620239	-0.164617	0.650837
65382	-9.143146	2.668067	1.640313	-0.071656	0.125693	-0.149076	-0.406829	-0.620056	-0.165157	0.650188
65383	-9.139647	2.598192	1.705916	-0.170457	0.125855	-0.161315	-0.407891	-0.619798	-0.165721	0.649624
65384	-9.164475	2.585113	1.724183	-0.197583	0.133506	-0.138684	-0.408749	-0.619598	-0.166183	0.649158
65385	-9.214002	2.601715	1.761958	-0.218579	0.115611	-0.080776	-0.409353	-0.619496	-0.166464	0.648802
65386	-9.252990	2.642440	1.764592	-0.196829	0.104370	-0.031866	-0.409737	-0.619436	-0.166584	0.648586
