// General information: 
//  MT Manager version: 2021.0.0 
//  XDA version: 2021.0.0 build 5908 rev 109668 built on 2021-04-19
// Device information: 
//  DeviceId: 00B43DF2
//  ProductCode: MTW2-3A7G6
//  Firmware Version: 4.3.5
//  Hardware Version: 1.1.0
// Device settings: 
//  Filter Profile: human(46.1)
//  Option Flags: Orientation Smoother Disabled, Position/Velocity Smoother Disabled, Continuous Zero Rotation Update Disabled, AHS Disabled, ICC Disabled
// Coordinate system: ENU
PacketCounter	Acc_X	Acc_Y	Acc_Z	FreeAcc_E	FreeAcc_N	FreeAcc_U	Quat_q0	Quat_q1	Quat_q2	Quat_q3
64468	9.312156	-0.316051	-2.883305	-0.077197	-0.255554	-0.062902	-0.495102	0.461251	0.653942	0.338350
64469	9.302822	-0.345183	-2.888545	-0.105360	-0.272444	-0.069997	-0.495283	0.460565	0.654515	0.337913
64470	9.358810	-0.212607	-2.852680	-0.002182	-0.177366	-0.028064	-0.495444	0.459794	0.655196	0.337407
64471	9.424673	-0.107285	-2.828946	0.077111	-0.100274	0.027176	-0.495600	0.458950	0.655878	0.337000
64472	9.416468	-0.069935	-2.786659	0.091211	-0.051782	0.007151	-0.495732	0.458112	0.656506	0.336724
64473	9.395453	0.014912	-2.759970	0.155319	-0.004493	-0.021464	-0.495797	0.457365	0.657071	0.336543
64474	9.342441	-0.010838	-2.761592	0.128123	-0.030516	-0.071519	-0.495759	0.456732	0.657578	0.336467
64475	9.374588	-0.087327	-2.765978	0.046572	-0.054212	-0.038434	-0.495644	0.456208	0.658065	0.336395
64476	9.435785	-0.055018	-2.776032	0.065315	-0.035368	0.022855	-0.495471	0.455728	0.658532	0.336385
64477	9.460359	-0.067082	-2.779204	0.042968	-0.036559	0.047519	-0.495286	0.455276	0.658944	0.336464
64478	9.522642	-0.053275	-2.792175	0.044623	-0.029259	0.110867	-0.495143	0.454820	0.659262	0.336669
64479	9.532449	-0.166936	-2.807557	-0.066609	-0.086732	0.125414	-0.495052	0.454309	0.659539	0.336950
64480	9.493872	-0.248917	-2.740599	-0.170994	-0.073794	0.070215	-0.495163	0.453711	0.659771	0.337139
64481	9.359370	-0.285735	-2.748338	-0.194966	-0.136740	-0.056864	-0.495397	0.453029	0.660050	0.337167
64482	9.308487	-0.313841	-2.744125	-0.222132	-0.162807	-0.106978	-0.495656	0.452211	0.660507	0.336989
64483	9.260484	-0.558231	-2.775566	-0.438174	-0.297220	-0.143581	-0.495934	0.451218	0.661211	0.336529
64484	9.277411	-0.669332	-2.826095	-0.529987	-0.380473	-0.113228	-0.496322	0.449848	0.662306	0.335636
64485	9.414686	-0.660845	-2.824363	-0.541774	-0.341390	0.017876	-0.496943	0.448006	0.663686	0.334455
64486	9.383613	-0.981135	-2.893349	-0.814671	-0.535727	0.007475	-0.497800	0.445598	0.665430	0.332929
64487	9.277278	-0.741829	-2.908075	-0.582342	-0.489315	-0.091755	-0.498923	0.442504	0.667606	0.331012
64488	9.344901	-0.274439	-2.899243	-0.173306	-0.285826	-0.030236	-0.500018	0.438902	0.670102	0.329105
64489	9.471936	0.206195	-2.908403	0.238107	-0.074533	0.094714	-0.501057	0.435060	0.672600	0.327529
64490	9.528801	0.428695	-2.819978	0.375221	0.098237	0.126306	-0.501946	0.431319	0.674844	0.326497
64491	9.353991	0.408685	-2.710782	0.307121	0.125427	-0.070903	-0.502700	0.427779	0.676797	0.325950
64492	9.175798	0.296338	-2.613738	0.160455	0.101397	-0.269176	-0.503133	0.424717	0.678620	0.325496
64493	9.219343	0.362840	-2.630254	0.193852	0.114564	-0.221263	-0.503331	0.422056	0.680366	0.325005
64494	9.187694	0.394980	-2.622021	0.196360	0.122180	-0.252814	-0.503271	0.419850	0.682016	0.324496
64495	9.390999	0.181619	-2.760611	0.008025	-0.043734	-0.022754	-0.503027	0.417899	0.683669	0.323914
64496	9.431167	0.320128	-2.762189	0.101713	0.027853	0.019297	-0.502850	0.416125	0.685169	0.323304
64497	8.882861	0.219906	-2.699250	0.040061	-0.089242	-0.526682	-0.502310	0.414522	0.686865	0.322603
64498	8.889406	0.250668	-2.713788	0.041690	-0.072492	-0.515274	-0.501203	0.413048	0.688977	0.321710
64499	9.190277	0.257330	-2.802128	0.000287	-0.051081	-0.201416	-0.499805	0.411564	0.691317	0.320766
64500	9.453330	0.255166	-2.977465	-0.010479	-0.113813	0.101071	-0.498429	0.410063	0.693642	0.319810
64501	9.710756	0.313950	-2.995822	-0.034823	-0.016826	0.354447	-0.497261	0.408499	0.695810	0.318918
64502	9.973411	0.539434	-3.136870	0.145396	0.046196	0.655192	-0.496736	0.406821	0.697393	0.318422
64503	9.115929	0.420168	-3.039214	0.116719	-0.134983	-0.195951	-0.496277	0.405250	0.698753	0.318160
64504	9.414477	0.444814	-3.072767	0.072998	-0.076333	0.099977	-0.495685	0.403750	0.700174	0.317865
64505	9.491344	0.404369	-3.034800	-0.019852	-0.042099	0.160122	-0.495277	0.402333	0.701434	0.317520
64506	9.403584	0.443101	-2.970008	-0.019519	0.012243	0.058692	-0.495117	0.400963	0.702598	0.316927
64507	9.659824	0.665967	-2.944617	0.102449	0.206863	0.305277	-0.495254	0.399671	0.703571	0.316188
64508	9.883006	0.830205	-2.932579	0.192707	0.350586	0.521867	-0.495828	0.398458	0.704128	0.315579
64509	9.793525	1.032921	-2.943908	0.395423	0.408599	0.450028	-0.496885	0.397366	0.704121	0.315309
64510	9.168041	1.058191	-2.871296	0.511732	0.314974	-0.166135	-0.497856	0.396625	0.703810	0.315403
64511	9.259710	0.933469	-2.888550	0.404178	0.245903	-0.079576	-0.498518	0.396382	0.703362	0.315662
64512	9.531649	0.768025	-2.932382	0.240717	0.178281	0.184878	-0.499107	0.396506	0.702652	0.316158
64513	9.442417	0.412242	-2.971180	-0.020242	-0.065881	0.094497	-0.499841	0.396804	0.701688	0.316764
64514	9.043275	0.071184	-2.923062	-0.249246	-0.300775	-0.316501	-0.500607	0.397125	0.700801	0.317116
64515	8.822878	0.077521	-2.815455	-0.238491	-0.267012	-0.558078	-0.501095	0.397241	0.700419	0.317043
64516	8.993970	0.354288	-2.743850	-0.054259	-0.031908	-0.403024	-0.501169	0.397143	0.700565	0.316725
64517	9.280000	0.626962	-2.753916	0.134366	0.163957	-0.114718	-0.500958	0.396950	0.700924	0.316508
64518	9.360914	0.726800	-2.795786	0.218675	0.202476	-0.020724	-0.500585	0.396847	0.701330	0.316328
64519	9.530899	0.756232	-2.870753	0.240468	0.200539	0.164943	-0.500210	0.396972	0.701554	0.316267
64520	9.570061	0.694600	-2.934756	0.204630	0.131521	0.218372	-0.499914	0.397296	0.701561	0.316314
64521	9.533375	0.644424	-3.005812	0.199441	0.042361	0.201995	-0.499730	0.397796	0.701338	0.316471
64522	9.430450	0.579327	-3.024620	0.172806	-0.028564	0.106317	-0.499641	0.398396	0.700914	0.316794
64523	9.428903	0.662847	-3.044718	0.259537	-0.008206	0.114369	-0.499577	0.399075	0.700314	0.317366
64524	9.378372	0.571423	-3.034336	0.188391	-0.062591	0.058896	-0.499479	0.399847	0.699550	0.318235
64525	9.435774	0.301589	-3.006231	-0.065792	-0.165941	0.093388	-0.499488	0.400639	0.698618	0.319268
64526	9.335786	0.099937	-2.991080	-0.224235	-0.286069	-0.015683	-0.499715	0.401327	0.697639	0.320190
64527	9.264652	0.130819	-2.903346	-0.213640	-0.226393	-0.107874	-0.500091	0.401833	0.696771	0.320857
64528	9.237943	0.486744	-2.775816	0.056622	0.032396	-0.154665	-0.500398	0.402172	0.696053	0.321511
64529	9.274995	0.740218	-2.673430	0.233618	0.235590	-0.137431	-0.500468	0.402565	0.695385	0.322356
64530	9.363155	0.767396	-2.619041	0.219892	0.302559	-0.067071	-0.500235	0.403159	0.694692	0.323467
64531	9.361442	0.659512	-2.634841	0.131655	0.226632	-0.068703	-0.499863	0.404056	0.693875	0.324674
64532	9.288534	0.408212	-2.684346	-0.055036	0.044304	-0.135693	-0.499364	0.405370	0.693010	0.325650
64533	9.363150	0.263112	-2.750368	-0.163639	-0.060867	-0.051958	-0.498872	0.406838	0.692182	0.326333
64534	9.381164	0.231213	-2.796284	-0.168780	-0.105101	-0.022930	-0.498478	0.408284	0.691405	0.326778
64535	9.271000	0.350063	-2.814184	-0.030905	-0.084710	-0.118076	-0.498016	0.409620	0.690766	0.327161
64536	9.413207	0.428068	-2.876272	0.046335	-0.062354	0.039145	-0.497578	0.410867	0.690152	0.327560
64537	9.547235	0.392762	-2.897199	0.007692	-0.058769	0.172011	-0.497263	0.412102	0.689467	0.327927
64538	9.563614	0.277556	-2.900239	-0.086261	-0.105442	0.183940	-0.497229	0.413321	0.688612	0.328241
64539	9.484473	0.036159	-2.852887	-0.293391	-0.189254	0.085473	-0.497466	0.414463	0.687672	0.328414
64540	9.323086	0.016085	-2.801062	-0.288136	-0.189931	-0.084019	-0.497871	0.415468	0.686803	0.328348
64541	9.254489	0.125015	-2.777453	-0.170797	-0.134785	-0.152041	-0.498222	0.416273	0.686145	0.328173
64542	9.286965	0.222207	-2.740960	-0.089073	-0.049016	-0.127668	-0.498410	0.416937	0.685662	0.328053
64543	9.328844	0.209995	-2.775781	-0.082087	-0.070962	-0.077975	-0.498430	0.417517	0.685304	0.328031
64544	9.327610	0.141891	-2.799874	-0.125954	-0.118493	-0.074422	-0.498427	0.418049	0.685000	0.327994
64545	9.307253	0.071734	-2.816560	-0.173052	-0.164382	-0.091261	-0.498392	0.418516	0.684779	0.327915
64546	9.414313	-0.024274	-2.865551	-0.250129	-0.218734	0.022497	-0.498413	0.418836	0.684642	0.327762
64547	9.387359	-0.004439	-2.915674	-0.201873	-0.255637	0.011649	-0.498573	0.418998	0.684584	0.327431
64548	9.288220	0.168136	-2.844443	-0.056343	-0.138199	-0.098374	-0.498714	0.418980	0.684660	0.327079
64549	9.422727	0.239955	-2.800940	-0.027313	-0.033792	0.020356	-0.498834	0.418796	0.684805	0.326830
64550	9.486691	0.303837	-2.789323	0.016884	0.020505	0.080201	-0.498998	0.418577	0.684908	0.326641
64551	9.419465	0.321900	-2.752990	0.029809	0.042941	0.005976	-0.499167	0.418446	0.684926	0.326514
64552	9.413742	0.232576	-2.744094	-0.050518	0.009556	-0.004525	-0.499313	0.418421	0.684894	0.326390
64553	9.442212	0.109044	-2.772214	-0.149910	-0.062482	0.027335	-0.499516	0.418405	0.684832	0.326230
64554	9.467994	0.104367	-2.764833	-0.155504	-0.052290	0.049928	-0.499838	0.418328	0.684760	0.325987
64555	9.265161	0.213474	-2.665784	-0.062761	0.032454	-0.169545	-0.500133	0.418227	0.684756	0.325672
64556	9.267021	0.267045	-2.642032	-0.020459	0.079203	-0.173049	-0.500265	0.418156	0.684866	0.325328
64557	9.310426	0.220375	-2.688490	-0.047338	0.033753	-0.119536	-0.500239	0.418179	0.685038	0.324978
64558	9.354252	0.073806	-2.767997	-0.151314	-0.082284	-0.058734	-0.500165	0.418195	0.685279	0.324563
64559	9.445488	0.091562	-2.865575	-0.108038	-0.127936	0.056918	-0.500065	0.418177	0.685588	0.324086
64560	9.510472	0.111996	-2.868413	-0.097994	-0.097208	0.120608	-0.500054	0.418116	0.685857	0.323614
64561	9.632710	0.132293	-2.845377	-0.105310	-0.033409	0.231742	-0.500252	0.417966	0.685973	0.323256
64562	9.538447	0.063212	-2.870633	-0.138262	-0.110922	0.146985	-0.500700	0.417577	0.685940	0.323133
64563	9.458944	0.079903	-2.884341	-0.099884	-0.142980	0.075032	-0.501310	0.417084	0.685806	0.323108
64564	9.834021	0.132711	-2.970432	-0.062816	-0.117750	0.460150	-0.502244	0.416348	0.685489	0.323279
64565	9.248467	0.128340	-2.864155	-0.016151	-0.191084	-0.131925	-0.503275	0.415520	0.685077	0.323614
64566	9.024152	0.098675	-2.754866	-0.048897	-0.185083	-0.378830	-0.504086	0.414663	0.684880	0.323871
64567	8.917073	0.138809	-2.619627	-0.054272	-0.091428	-0.518357	-0.504453	0.413798	0.685055	0.324034
64568	9.023075	0.222532	-2.509664	-0.049729	0.058838	-0.444770	-0.504323	0.413012	0.685649	0.323983
64569	9.289508	0.281226	-2.488547	-0.059363	0.166638	-0.193145	-0.503961	0.412306	0.686436	0.323780
64570	9.507664	0.278477	-2.572429	-0.073671	0.150047	0.039351	-0.503513	0.411745	0.687252	0.323458
64571	9.728163	0.286563	-2.672336	-0.070081	0.126500	0.278880	-0.503251	0.411233	0.687909	0.323120
64572	9.511563	0.351744	-2.702605	0.024679	0.083787	0.081250	-0.503119	0.410769	0.688407	0.322857
64573	9.515535	0.336391	-2.778321	0.035540	0.015339	0.105787	-0.502979	0.410343	0.688834	0.322705
64574	9.489190	0.226855	-2.800125	-0.055579	-0.059333	0.083286	-0.502900	0.409871	0.689208	0.322630
64575	9.420635	0.146739	-2.828565	-0.110001	-0.138071	0.022937	-0.502927	0.409327	0.689557	0.322533
64576	9.443831	0.173676	-2.820418	-0.098721	-0.116213	0.043661	-0.503048	0.408656	0.689923	0.322411
64577	9.394061	0.256546	-2.801415	-0.030238	-0.078694	-0.006821	-0.503311	0.407848	0.690250	0.322324
64578	9.383281	0.291625	-2.788008	-0.007216	-0.060755	-0.019820	-0.503598	0.407011	0.690565	0.322258
64579	9.434377	0.300938	-2.773399	-0.017540	-0.040316	0.025393	-0.503886	0.406166	0.690858	0.322248
64580	9.400803	0.315052	-2.766372	-0.006768	-0.044412	-0.008345	-0.504197	0.405327	0.691115	0.322266
64581	9.536542	0.260239	-2.763591	-0.081076	-0.046237	0.119184	-0.504576	0.404492	0.691330	0.322260
64582	9.438691	0.043334	-2.748444	-0.263342	-0.166776	0.013174	-0.505128	0.403639	0.691549	0.321995
64583	9.454167	-0.074856	-2.725987	-0.375346	-0.206997	0.017579	-0.505916	0.402618	0.691888	0.321307
64584	9.238516	0.285216	-2.694766	-0.030457	-0.062857	-0.185206	-0.506807	0.401406	0.692413	0.320288
64585	9.260863	0.562828	-2.675794	0.206022	0.091557	-0.159221	-0.507422	0.400261	0.693121	0.319214
64586	9.472555	0.669322	-2.653930	0.256399	0.213414	0.041720	-0.507858	0.399299	0.693807	0.318233
64587	9.222068	0.602047	-2.597043	0.213101	0.178619	-0.217047	-0.508187	0.398668	0.694331	0.317355
64588	9.220902	0.420704	-2.635859	0.074545	0.067072	-0.213745	-0.508318	0.398362	0.694850	0.316391
64589	9.842919	0.402546	-2.789484	0.031785	0.081298	0.425412	-0.508566	0.398148	0.695203	0.315486
64590	9.540614	0.412888	-2.843465	0.122368	-0.021270	0.150427	-0.509039	0.397913	0.695254	0.314908
64591	9.375247	0.338431	-2.849813	0.094954	-0.099549	-0.008999	-0.509426	0.397636	0.695304	0.314521
64592	8.999649	0.252130	-2.793624	0.057757	-0.179669	-0.387934	-0.509563	0.397328	0.695500	0.314255
64593	8.917648	0.325075	-2.674927	0.074944	-0.058709	-0.497309	-0.509200	0.397050	0.696062	0.313950
64594	9.287140	0.420811	-2.645910	0.072238	0.107493	-0.147695	-0.508505	0.396922	0.696807	0.313586
64595	9.792651	0.518445	-2.797914	0.131821	0.157220	0.382950	-0.507945	0.396961	0.697347	0.313244
64596	9.517652	0.543871	-2.891930	0.237349	0.039654	0.146571	-0.507650	0.397270	0.697530	0.312922
64597	9.459869	0.421120	-2.933278	0.159339	-0.057656	0.099015	-0.507373	0.397800	0.697553	0.312645
64598	9.485037	0.253278	-2.981900	0.034181	-0.165928	0.131814	-0.507261	0.398256	0.697453	0.312471
64599	9.224452	0.205637	-3.011969	0.053237	-0.269207	-0.110654	-0.507191	0.398650	0.697329	0.312360
64600	9.322951	0.059123	-2.993741	-0.096891	-0.296655	-0.025655	-0.507030	0.398958	0.697353	0.312172
64601	9.758975	0.016776	-3.058731	-0.173059	-0.267263	0.409461	-0.507244	0.398885	0.697262	0.312121
64602	9.667337	-0.091900	-3.013262	-0.268082	-0.312199	0.305427	-0.507890	0.398335	0.697056	0.312234
64603	9.549224	0.062168	-2.890862	-0.162378	-0.178442	0.161799	-0.508929	0.397429	0.696783	0.312305
64604	9.259426	0.177875	-2.751899	-0.067318	-0.092077	-0.152019	-0.510074	0.396470	0.696491	0.312310
64605	9.507451	0.246962	-2.706216	-0.056372	0.016607	0.075322	-0.511236	0.395458	0.696219	0.312298
64606	9.360038	0.352183	-2.635196	0.037689	0.073733	-0.082750	-0.512376	0.394509	0.695876	0.312394
64607	9.226342	0.322353	-2.551933	0.003827	0.079094	-0.234829	-0.513201	0.393731	0.695628	0.312574
64608	9.199656	0.204289	-2.515826	-0.106507	0.029591	-0.273685	-0.513680	0.393103	0.695568	0.312710
64609	9.192626	0.190361	-2.457063	-0.144985	0.061506	-0.296755	-0.513888	0.392591	0.695711	0.312695
64610	9.174140	0.251880	-2.428893	-0.106380	0.109813	-0.320352	-0.513745	0.392221	0.696097	0.312536
64611	9.203573	0.323235	-2.447463	-0.049812	0.141642	-0.284952	-0.513254	0.392014	0.696684	0.312293
64612	9.338446	0.326036	-2.510728	-0.052904	0.130426	-0.138144	-0.512499	0.391974	0.697373	0.312046
64613	9.483334	0.358186	-2.645137	-0.000274	0.079952	0.038822	-0.511687	0.392113	0.697984	0.311836
64614	9.427871	0.298504	-2.693119	-0.034154	0.011149	-0.003231	-0.510889	0.392336	0.698494	0.311722
64615	9.577705	0.202544	-2.805044	-0.102520	-0.084558	0.168497	-0.510129	0.392592	0.698912	0.311710
64616	9.672787	0.126135	-2.853159	-0.173259	-0.133216	0.270540	-0.509645	0.392690	0.699176	0.311786
64617	9.582099	0.141757	-2.848580	-0.153951	-0.139669	0.182707	-0.509457	0.392622	0.699283	0.311936
64618	9.517856	0.153241	-2.785613	-0.167038	-0.098043	0.103722	-0.509436	0.392454	0.699313	0.312116
64619	9.606023	0.132862	-2.774631	-0.206389	-0.085785	0.184409	-0.509661	0.392122	0.699223	0.312367
64620	9.464141	0.199669	-2.708932	-0.154145	-0.040090	0.032248	-0.510068	0.391708	0.699035	0.312641
64621	9.449057	0.232890	-2.702449	-0.122960	-0.034065	0.017158	-0.510506	0.391248	0.698847	0.312925
64622	9.382102	0.216990	-2.674084	-0.135453	-0.047026	-0.055583	-0.511017	0.390743	0.698623	0.313221
64623	9.279934	0.213870	-2.694507	-0.108561	-0.101156	-0.148255	-0.511399	0.390222	0.698538	0.313435
64624	9.305421	0.300322	-2.658402	-0.054893	-0.031961	-0.130533	-0.511690	0.389718	0.698556	0.313549
64625	9.417303	0.368231	-2.666188	-0.012043	0.012403	-0.018330	-0.511906	0.389280	0.698604	0.313633
64626	9.482938	0.357560	-2.675340	-0.028309	0.007413	0.046854	-0.512113	0.388947	0.698613	0.313689
64627	9.494765	0.349598	-2.675389	-0.036107	0.000173	0.057935	-0.512359	0.388681	0.698556	0.313744
64628	9.573074	0.274041	-2.676468	-0.111222	-0.028429	0.130609	-0.512692	0.388405	0.698431	0.313820
64629	9.494513	0.202432	-2.667395	-0.159362	-0.082086	0.049848	-0.513136	0.388093	0.698241	0.313902
64630	9.437053	0.234183	-2.627801	-0.135990	-0.054180	-0.014896	-0.513583	0.387728	0.698089	0.313961
64631	9.492256	0.283543	-2.637628	-0.093372	-0.035710	0.042788	-0.514064	0.387283	0.697916	0.314108
64632	9.517656	0.241613	-2.590317	-0.152605	-0.024124	0.052910	-0.514521	0.386793	0.697751	0.314329
64633	9.402392	0.227610	-2.541094	-0.164603	-0.027185	-0.071738	-0.515075	0.386285	0.697546	0.314501
64634	9.249946	0.461496	-2.494023	0.042760	0.087816	-0.221802	-0.515406	0.385816	0.697497	0.314643
64635	9.517276	0.546509	-2.504948	0.075322	0.168821	0.042149	-0.515515	0.385485	0.697466	0.314940
64636	9.512267	0.424834	-2.503878	-0.030142	0.098840	0.032231	-0.515629	0.385363	0.697301	0.315267
64637	9.351425	0.345702	-2.479459	-0.082964	0.039572	-0.132402	-0.515660	0.385368	0.697155	0.315535
64638	9.375414	0.341493	-2.503398	-0.079310	0.018725	-0.103137	-0.515645	0.385411	0.697058	0.315720
64639	9.317729	0.326997	-2.509626	-0.080390	-0.007749	-0.157704	-0.515556	0.385421	0.697045	0.315880
64640	9.232431	0.331882	-2.521440	-0.059588	-0.032723	-0.236625	-0.515343	0.385412	0.697181	0.315940
64641	9.193092	0.422524	-2.505150	0.010891	0.022386	-0.275046	-0.514928	0.385436	0.697494	0.315895
64642	9.241727	0.535994	-2.516849	0.095962	0.088291	-0.220278	-0.514259	0.385600	0.697933	0.315816
64643	9.327652	0.506868	-2.623531	0.094822	0.013479	-0.110331	-0.513472	0.385842	0.698415	0.315736
64644	9.463481	0.423008	-2.662882	0.004043	-0.020019	0.027379	-0.512578	0.386173	0.698930	0.315645
64645	10.099221	0.558836	-2.814289	0.072637	0.066724	0.685743	-0.512157	0.386436	0.699054	0.315730
64646	9.571932	0.296326	-2.803592	-0.070920	-0.168196	0.164111	-0.512093	0.386511	0.698906	0.316070
64647	9.408157	0.325980	-2.723993	-0.056691	-0.125690	-0.013667	-0.512067	0.386463	0.698831	0.316337
64648	9.237986	0.323366	-2.644183	-0.069297	-0.100043	-0.199060	-0.512048	0.386376	0.698805	0.316531
64649	9.027477	0.214614	-2.590147	-0.156509	-0.154340	-0.421099	-0.511783	0.386235	0.699102	0.316476
64650	9.558026	0.268143	-2.644716	-0.185712	-0.056334	0.106214	-0.511441	0.385898	0.699663	0.316200
64651	9.900857	0.324130	-2.707451	-0.174562	-0.005428	0.455312	-0.511597	0.385314	0.699995	0.315924
64652	9.800745	0.271591	-2.691385	-0.208799	-0.045706	0.352263	-0.512238	0.384489	0.700083	0.315698
64653	9.751892	0.346683	-2.743200	-0.102970	-0.075690	0.322813	-0.513319	0.383382	0.699954	0.315573
64654	9.240891	0.281158	-2.620048	-0.117917	-0.132015	-0.205066	-0.514479	0.382150	0.699843	0.315425
64655	9.175946	0.202388	-2.606936	-0.172602	-0.192474	-0.274963	-0.515409	0.380774	0.700045	0.315122
64656	8.866289	0.162377	-2.491309	-0.207919	-0.191439	-0.605941	-0.515939	0.379317	0.700683	0.314593
64657	9.059184	0.130085	-2.405146	-0.320266	-0.100585	-0.444776	-0.516001	0.377714	0.701906	0.313693
64658	9.287690	0.243139	-2.452000	-0.258107	-0.030132	-0.207218	-0.515904	0.375915	0.703461	0.312528
64659	9.463387	0.313127	-2.532124	-0.211558	-0.016012	-0.013690	-0.515735	0.373945	0.705224	0.311194
64660	9.823570	0.432433	-2.694569	-0.116539	-0.006117	0.382241	-0.515875	0.371788	0.706876	0.309794
64661	9.230848	0.686068	-2.707778	0.198922	0.006840	-0.170506	-0.516094	0.369698	0.708448	0.308337
64662	9.471389	0.955941	-2.750810	0.383967	0.176020	0.087289	-0.515988	0.367873	0.710044	0.307024
64663	9.383198	1.013728	-2.730168	0.421160	0.217625	0.000625	-0.515921	0.366453	0.711276	0.305980
64664	9.403169	0.811471	-2.711592	0.223813	0.135476	0.003744	-0.515694	0.365384	0.712352	0.305136
64665	9.558672	0.762066	-2.846244	0.208555	0.037000	0.187572	-0.515641	0.364378	0.713146	0.304575
64666	9.308439	0.877772	-2.803323	0.323843	0.089460	-0.057521	-0.515627	0.363748	0.713695	0.304068
64667	9.674497	0.938019	-2.865559	0.329351	0.150310	0.314313	-0.515678	0.363496	0.713930	0.303729
64668	9.325496	0.765392	-2.706760	0.174022	0.115672	-0.074434	-0.515687	0.363632	0.713900	0.303621
64669	10.270929	0.682261	-2.880738	0.012260	0.116316	0.875737	-0.516146	0.363640	0.713497	0.303779
64670	9.114718	0.654181	-2.667778	0.121149	0.030073	-0.293892	-0.516861	0.363708	0.712795	0.304131
64671	9.421138	0.604084	-2.662309	0.028362	0.056407	-0.004189	-0.517315	0.363799	0.712293	0.304425
64672	8.890525	0.705435	-2.551651	0.167536	0.089059	-0.538315	-0.517557	0.364011	0.711883	0.304719
64673	8.968363	0.552073	-2.507730	0.003944	0.056474	-0.484139	-0.517139	0.364578	0.711899	0.304712
64674	9.429267	0.490659	-2.554653	-0.115361	0.088608	-0.032254	-0.516613	0.365326	0.712020	0.304426
64675	9.478524	0.542970	-2.609567	-0.054819	0.100224	0.032819	-0.516055	0.366134	0.712171	0.304047
64676	9.965958	0.600000	-2.735343	-0.037530	0.144578	0.538163	-0.515710	0.366916	0.712093	0.303873
64677	9.600754	0.761296	-2.824220	0.220786	0.093288	0.220896	-0.515842	0.367644	0.711541	0.304063
64678	9.074452	0.579657	-2.724037	0.127819	-0.032271	-0.321393	-0.515696	0.368506	0.711037	0.304447
64679	9.290922	0.694231	-2.740073	0.194814	0.063477	-0.103454	-0.515432	0.369525	0.710507	0.304897
64680	9.510688	0.726354	-2.776097	0.202523	0.099798	0.118904	-0.515044	0.370793	0.709877	0.305477
64681	9.606467	0.806671	-2.814861	0.277977	0.132192	0.225420	-0.514802	0.372158	0.708992	0.306281
64682	9.464123	0.764694	-2.708779	0.225600	0.163388	0.057179	-0.514598	0.373691	0.707899	0.307282
64683	9.199548	0.847526	-2.652070	0.329298	0.194235	-0.208664	-0.514425	0.375540	0.706557	0.308406
64684	9.052806	0.687459	-2.694102	0.256044	0.043261	-0.346081	-0.513923	0.377876	0.705237	0.309408
64685	9.274234	0.744538	-2.791845	0.326386	0.047230	-0.104374	-0.513207	0.380713	0.703868	0.310235
64686	9.308476	1.022510	-2.828098	0.590432	0.183520	-0.050052	-0.512217	0.384012	0.702426	0.311073
64687	9.496774	1.147806	-2.879323	0.705591	0.262507	0.148731	-0.510922	0.387905	0.700706	0.312249
64688	9.560144	1.042210	-2.949445	0.656230	0.178846	0.223203	-0.509596	0.392312	0.698511	0.313824
64689	9.475600	1.066562	-2.999075	0.739004	0.140795	0.154910	-0.508302	0.397224	0.695804	0.315750
64690	9.795884	1.250570	-3.065660	0.908038	0.250853	0.484593	-0.506979	0.402712	0.692493	0.318195
64691	10.051771	1.331574	-3.125278	1.006660	0.289074	0.745788	-0.505918	0.408725	0.688273	0.321360
64692	9.858938	0.993076	-3.057736	0.758713	0.122420	0.528668	-0.505199	0.415218	0.683087	0.325208
64693	9.535154	-0.005926	-3.015636	-0.047692	-0.387989	0.180316	-0.504944	0.421924	0.677322	0.329009
64694	9.381860	-0.714908	-2.950167	-0.631350	-0.686185	0.003832	-0.505250	0.428295	0.671547	0.332131
64695	9.371228	-0.937844	-2.842604	-0.809143	-0.693667	-0.032934	-0.505908	0.433935	0.666194	0.334580
64696	9.468359	-1.124645	-2.648201	-0.999514	-0.581561	0.015334	-0.506859	0.438473	0.661462	0.336606
64697	9.309409	-1.388592	-2.490481	-1.225766	-0.594766	-0.172187	-0.508097	0.441700	0.657485	0.338307
64698	9.240893	-1.685254	-2.367431	-1.488418	-0.633219	-0.261649	-0.509551	0.443541	0.654511	0.339476
64699	9.208460	-1.627044	-2.341638	-1.400251	-0.619827	-0.295271	-0.511273	0.443903	0.652620	0.340054
64700	9.168039	-1.822431	-2.357824	-1.542446	-0.748055	-0.326136	-0.513023	0.442837	0.651952	0.340091
64701	9.301695	-1.761783	-2.355712	-1.480925	-0.728898	-0.197584	-0.514922	0.440292	0.652500	0.339475
64702	9.274383	-1.587421	-2.343844	-1.315787	-0.698271	-0.231005	-0.517081	0.436316	0.654091	0.338261
64703	9.294484	-1.283724	-2.295657	-1.059783	-0.575388	-0.228792	-0.519353	0.431206	0.656573	0.336520
64704	9.280130	-1.112618	-2.348216	-0.890588	-0.600915	-0.235714	-0.521920	0.425032	0.659761	0.334161
64705	9.269324	-0.806654	-2.384561	-0.610332	-0.549539	-0.242810	-0.524544	0.418106	0.663571	0.331232
64706	9.267776	-0.495684	-2.454140	-0.318517	-0.511717	-0.231625	-0.527231	0.410516	0.667879	0.327784
64707	9.256375	0.419477	-2.375241	0.437243	-0.055900	-0.257386	-0.529765	0.402609	0.672433	0.324174
64708	9.448356	1.284806	-2.298351	1.104261	0.444928	-0.076823	-0.531849	0.395158	0.676784	0.320859
64709	9.702800	1.563863	-2.254372	1.251525	0.663713	0.170559	-0.533640	0.388700	0.680407	0.318099
64710	9.975323	1.466441	-2.214922	1.075917	0.692684	0.430647	-0.535304	0.383461	0.683077	0.315932
64711	10.146508	1.352136	-2.150901	0.901354	0.705950	0.584208	-0.537046	0.379464	0.684672	0.314346
64712	9.959235	1.264808	-1.988900	0.764710	0.741954	0.366040	-0.538869	0.376556	0.685239	0.313486
64713	9.466463	1.255274	-1.897231	0.782578	0.702553	-0.133687	-0.540520	0.374718	0.685073	0.313208
64714	9.292753	1.281976	-1.865443	0.823661	0.691476	-0.308898	-0.541504	0.374030	0.684586	0.313397
64715	9.461239	1.190055	-1.851197	0.727170	0.667370	-0.149146	-0.541811	0.374361	0.683863	0.314046
64716	9.609766	0.779777	-1.960066	0.425924	0.375196	0.009497	-0.541758	0.375553	0.682820	0.314984
64717	9.461985	0.278508	-1.968268	0.034950	0.078482	-0.144523	-0.541488	0.377333	0.681650	0.315854
64718	9.680770	-0.023768	-2.064608	-0.187699	-0.118069	0.083336	-0.541206	0.379261	0.680505	0.316496
64719	9.478299	0.051034	-2.012596	-0.108763	-0.060978	-0.123739	-0.540975	0.381178	0.679420	0.316920
64720	9.513369	0.099084	-1.928941	-0.098790	0.051033	-0.105863	-0.540539	0.383076	0.678491	0.317365
64721	9.520494	0.039360	-1.925129	-0.141648	0.038443	-0.100535	-0.539967	0.384983	0.677688	0.317745
64722	9.631451	-0.045615	-1.918945	-0.220657	0.036259	0.005623	-0.539392	0.386912	0.676933	0.317989
64723	9.508149	-0.165282	-1.955033	-0.281066	-0.056613	-0.108455	-0.538822	0.388891	0.676235	0.318026
64724	9.299715	-0.339566	-1.936755	-0.406995	-0.141584	-0.317148	-0.538133	0.390837	0.675767	0.317803
64725	9.384388	-0.477339	-1.986947	-0.504757	-0.208632	-0.223936	-0.537319	0.392626	0.675599	0.317332
64726	9.370736	-0.265687	-1.940295	-0.338406	-0.034705	-0.245545	-0.536393	0.394240	0.675701	0.316679
64727	9.726805	-0.049748	-2.008006	-0.157209	0.114583	0.117437	-0.535355	0.395814	0.675865	0.316121
64728	9.649705	-0.203164	-2.053354	-0.261648	0.018180	0.051667	-0.534355	0.397405	0.675907	0.315730
64729	9.455154	-0.285247	-2.122621	-0.279498	-0.088282	-0.122443	-0.533363	0.398998	0.675936	0.315332
64730	9.461432	-0.370819	-2.163076	-0.337646	-0.131494	-0.106828	-0.532230	0.400631	0.676070	0.314889
64731	9.560137	-0.423942	-2.160312	-0.401218	-0.103124	-0.011096	-0.531014	0.402143	0.676247	0.314634
64732	9.619223	-0.435005	-2.136311	-0.437248	-0.047419	0.040688	-0.529775	0.403463	0.676443	0.314611
64733	9.517945	-0.494864	-2.162372	-0.477307	-0.094127	-0.051782	-0.528573	0.404620	0.676702	0.314592
64734	9.445420	-0.331688	-2.286806	-0.278971	-0.110658	-0.093361	-0.527315	0.405894	0.677039	0.314335
64735	9.489848	-0.380093	-2.391609	-0.286285	-0.182456	-0.024627	-0.526054	0.407483	0.677244	0.313952
64736	9.376477	-0.649974	-2.490692	-0.469589	-0.384840	-0.108276	-0.524856	0.409337	0.677281	0.313463
64737	9.504474	-0.756018	-2.671931	-0.495509	-0.524693	0.062780	-0.523706	0.411196	0.677293	0.312927
64738	9.500313	-0.751921	-2.765153	-0.450166	-0.569070	0.083819	-0.522655	0.412909	0.677208	0.312614
64739	9.394473	-0.891401	-2.863007	-0.521193	-0.712995	0.009097	-0.521568	0.414387	0.677195	0.312501
64740	9.539742	-1.039164	-2.955205	-0.633562	-0.803888	0.175911	-0.520635	0.415439	0.677249	0.312543
64741	9.615026	-1.128447	-3.066892	-0.678294	-0.908175	0.279045	-0.520048	0.416022	0.677288	0.312662
64742	9.611593	-1.154440	-3.108933	-0.686099	-0.951203	0.287085	-0.519959	0.416110	0.677278	0.312713
64743	9.575386	-1.108872	-3.130983	-0.631317	-0.961602	0.256941	-0.520308	0.415654	0.677254	0.312793
64744	9.687742	-0.984228	-3.131034	-0.531178	-0.893119	0.362998	-0.520983	0.414626	0.677238	0.313066
64745	9.765747	-0.992963	-3.107228	-0.556110	-0.886754	0.430113	-0.522015	0.413026	0.677186	0.313574
64746	9.726241	-0.781700	-2.991196	-0.414404	-0.738354	0.357908	-0.523431	0.410937	0.677027	0.314302
64747	9.669294	-0.615872	-2.896396	-0.299687	-0.642850	0.274945	-0.525177	0.408517	0.676727	0.315189
64748	9.509820	-0.584873	-2.832862	-0.274741	-0.665485	0.101203	-0.527247	0.405902	0.676297	0.316031
64749	9.198889	-0.545262	-2.752539	-0.229191	-0.700163	-0.223614	-0.529466	0.403144	0.675989	0.316510
64750	9.197581	-0.436046	-2.749196	-0.119466	-0.694796	-0.229029	-0.531651	0.400361	0.675968	0.316426
64751	9.236957	-0.377133	-2.710891	-0.073621	-0.667620	-0.202212	-0.533897	0.397427	0.676198	0.315850
64752	9.185970	-0.435246	-2.732899	-0.089269	-0.760183	-0.249515	-0.536236	0.394270	0.676747	0.314668
64753	9.264399	-0.302176	-2.776732	0.059160	-0.744189	-0.165240	-0.538587	0.390875	0.677678	0.312880
64754	9.354054	-0.108624	-2.747728	0.223362	-0.625988	-0.085493	-0.541035	0.387287	0.678825	0.310622
64755	9.345941	0.036364	-2.754973	0.375111	-0.572600	-0.093162	-0.543487	0.383741	0.680094	0.307956
64756	9.386612	0.092333	-2.714519	0.421134	-0.509664	-0.063408	-0.545900	0.380197	0.681430	0.305117
64757	9.452868	0.275280	-2.696092	0.582260	-0.389746	-0.003996	-0.548271	0.376730	0.682734	0.302239
64758	9.508791	0.401334	-2.630867	0.671824	-0.261746	0.035141	-0.550748	0.373411	0.683773	0.299492
64759	9.328915	0.323842	-2.527978	0.599059	-0.257849	-0.163917	-0.553359	0.370202	0.684549	0.296879
64760	9.007615	0.238673	-2.447760	0.549796	-0.303387	-0.496508	-0.556015	0.367062	0.685242	0.294203
64761	8.845716	0.338501	-2.348884	0.624323	-0.199567	-0.677652	-0.558489	0.363991	0.686084	0.291358
64762	8.829017	0.272445	-2.280305	0.559066	-0.185256	-0.708917	-0.560840	0.360865	0.687086	0.288353
64763	8.676611	0.251238	-2.182031	0.524578	-0.141934	-0.878898	-0.563072	0.357559	0.688343	0.285106
64764	8.963266	0.218308	-2.155204	0.469773	-0.086309	-0.603749	-0.565188	0.353941	0.689942	0.281547
64765	9.236786	0.279184	-2.301490	0.589469	-0.111079	-0.308310	-0.567304	0.349898	0.691826	0.277693
64766	10.015679	0.286010	-2.525765	0.655843	-0.141053	0.498717	-0.569362	0.345394	0.694084	0.273454
64767	10.392058	0.488267	-2.585003	0.820119	0.013331	0.875751	-0.571714	0.340400	0.696348	0.269017
64768	10.332735	0.430436	-2.513381	0.748776	0.030979	0.803627	-0.574362	0.334810	0.698612	0.264484
64769	10.207815	0.496901	-2.421983	0.769122	0.125958	0.661327	-0.577346	0.328617	0.700926	0.259586
64770	9.838811	0.698398	-2.259375	0.870943	0.325379	0.263538	-0.580480	0.321955	0.703412	0.254164
64771	9.460015	1.213964	-2.007143	1.136619	0.808902	-0.166550	-0.583482	0.315153	0.706091	0.248320
64772	9.115207	1.417397	-1.827312	1.198255	1.048958	-0.544523	-0.586118	0.308619	0.708896	0.242253
64773	8.732628	1.380078	-1.720351	1.130689	1.075054	-0.942024	-0.588296	0.302587	0.711817	0.235937
64774	8.725631	1.317557	-1.769580	1.104714	1.038613	-0.941122	-0.589893	0.297042	0.714912	0.229549
64775	9.013246	1.084631	-1.898674	0.979559	0.875300	-0.631508	-0.591085	0.291860	0.718061	0.223215
64776	9.263081	0.876140	-2.034287	0.883404	0.720672	-0.356969	-0.592048	0.286845	0.721166	0.217068
64777	9.494110	0.728097	-2.124135	0.799687	0.634197	-0.110198	-0.592953	0.281787	0.724136	0.211258
64778	9.920909	0.424713	-2.190901	0.573805	0.466303	0.329208	-0.593878	0.276579	0.726937	0.205855
64779	10.702919	-0.144275	-2.565779	0.369454	-0.054069	1.188087	-0.594959	0.271117	0.729599	0.200510
64780	11.827134	-0.393103	-2.821216	0.248211	-0.209474	2.348290	-0.596567	0.265220	0.731945	0.194996
64781	11.081505	-0.376269	-2.535116	0.157683	-0.127603	1.559513	-0.598890	0.258965	0.733735	0.189473
64782	10.440510	-0.503355	-2.227422	-0.045054	-0.143784	0.873578	-0.601338	0.252449	0.735445	0.183801
64783	9.428918	-0.662397	-1.837461	-0.276404	-0.200898	-0.189658	-0.603938	0.245906	0.736999	0.177825
64784	9.082990	-1.073468	-1.862479	-0.413127	-0.601348	-0.507339	-0.606159	0.239333	0.738874	0.171337
64785	9.550006	-1.408564	-2.051051	-0.481913	-0.907930	0.002443	-0.608243	0.232547	0.740942	0.164216
64786	8.918783	-1.537620	-1.899678	-0.548418	-1.017990	-0.637691	-0.610336	0.225402	0.743045	0.156742
64787	8.946033	-1.793137	-1.984417	-0.580660	-1.269479	-0.580357	-0.611966	0.217586	0.745578	0.149224
64788	9.984573	-1.863137	-2.320382	-0.456685	-1.348247	0.508201	-0.613505	0.209026	0.748227	0.141691
64789	10.171591	-1.814747	-2.430107	-0.333688	-1.336116	0.711727	-0.615394	0.199845	0.750590	0.134040
64790	9.992591	-1.575539	-2.450609	-0.140004	-1.166209	0.529456	-0.617364	0.190132	0.752811	0.126437
64791	9.719587	-1.476133	-2.410278	-0.053409	-1.107944	0.248539	-0.619266	0.180002	0.754962	0.118919
64792	9.383513	-1.303553	-2.317795	0.021414	-0.971320	-0.108167	-0.621075	0.169488	0.757054	0.111393
64793	8.894056	-1.135227	-2.164201	0.055722	-0.833157	-0.626861	-0.622770	0.158655	0.759083	0.103824
64794	8.807534	-1.221734	-2.162986	0.061698	-0.941004	-0.710247	-0.624244	0.147386	0.761166	0.096037
64795	9.101271	-1.329763	-2.325106	0.152281	-1.082535	-0.388657	-0.625730	0.135653	0.763122	0.087779
64796	9.273602	-1.180697	-2.416689	0.287763	-0.966251	-0.209690	-0.627387	0.123322	0.764808	0.079034
64797	9.286940	-0.786324	-2.453189	0.463612	-0.607433	-0.205414	-0.629081	0.110630	0.766232	0.070043
64798	9.323989	-0.637883	-2.467480	0.534929	-0.472885	-0.173066	-0.630644	0.097821	0.767451	0.061141
64799	9.425069	-0.602312	-2.494743	0.574739	-0.446091	-0.071585	-0.632019	0.084998	0.768495	0.052369
64800	9.409474	-0.566163	-2.448064	0.561774	-0.414573	-0.098561	-0.633231	0.072168	0.769346	0.043783
64801	9.173636	-0.413816	-2.335847	0.539804	-0.273737	-0.356649	-0.634302	0.059462	0.769982	0.035389
64802	9.188585	-0.289980	-2.287246	0.521485	-0.160578	-0.354997	-0.635228	0.046900	0.770416	0.027299
64803	9.289979	-0.106430	-2.131993	0.383566	0.019163	-0.288357	-0.636219	0.034557	0.770487	0.019530
64804	9.134900	-0.005436	-1.991368	0.296661	0.099511	-0.468492	-0.637310	0.022595	0.770183	0.012007
64805	9.103342	0.092601	-1.904258	0.237441	0.174796	-0.516527	-0.638287	0.011064	0.769705	0.004631
64806	9.415892	0.068280	-1.966581	0.258304	0.129282	-0.197718	-0.639102	-0.000017	0.769117	-0.002614
64807	9.139117	-0.109126	-1.846763	0.209856	-0.068941	-0.490829	-0.639826	-0.010658	0.768381	-0.010005
64808	9.339791	-0.387456	-1.910791	0.269230	-0.357302	-0.282066	-0.640170	-0.021112	0.767740	-0.017671
64809	10.052217	-0.393395	-2.132162	0.384564	-0.360246	0.457184	-0.640243	-0.031531	0.767092	-0.025772
64810	10.473335	-0.266667	-2.216073	0.402113	-0.229147	0.885845	-0.640257	-0.041936	0.766253	-0.034182
64811	10.573009	-0.059523	-2.172237	0.335645	-0.021609	0.976081	-0.640280	-0.052244	0.765165	-0.042826
64812	10.352009	0.050932	-1.971631	0.178392	0.076727	0.723738	-0.640372	-0.062347	0.763786	-0.051645
64813	9.970988	-0.072322	-1.743615	0.060628	-0.057268	0.309516	-0.640449	-0.072321	0.762163	-0.060847
64814	9.909716	-0.248450	-1.729580	0.113578	-0.208811	0.247086	-0.640246	-0.082271	0.760473	-0.070688
64815	9.966586	-0.312114	-1.766163	0.174421	-0.232882	0.309801	-0.639730	-0.092443	0.758691	-0.081163
64816	9.799658	-0.067994	-1.741648	0.129375	0.038733	0.139845	-0.638847	-0.103007	0.756835	-0.092005
64817	9.530139	0.276167	-1.681665	0.016149	0.391579	-0.139314	-0.637471	-0.113980	0.755032	-0.102792
64818	9.462079	0.605559	-1.685596	-0.092485	0.726802	-0.210501	-0.635559	-0.125127	0.753369	-0.113331
64819	9.343880	0.760593	-1.713836	-0.136933	0.897826	-0.325916	-0.633235	-0.136177	0.751777	-0.123696
64820	9.166469	1.004593	-1.701182	-0.260343	1.134461	-0.508262	-0.630430	-0.147020	0.750340	-0.133911
64821	9.366210	1.081729	-1.813701	-0.282225	1.241649	-0.296185	-0.627271	-0.157595	0.749007	-0.143820
64822	9.621780	1.337694	-1.913280	-0.410168	1.500462	-0.034718	-0.624146	-0.167828	0.747509	-0.153317
64823	9.576290	1.528703	-1.843781	-0.617500	1.636708	-0.097683	-0.621271	-0.177562	0.745765	-0.162263
64824	9.576591	1.425946	-1.859632	-0.615526	1.545640	-0.094945	-0.618635	-0.186703	0.743831	-0.170727
64825	9.658655	1.219310	-1.859948	-0.574798	1.357726	-0.011577	-0.616303	-0.195345	0.741605	-0.178978
64826	9.583984	1.266194	-1.751819	-0.716300	1.346792	-0.107131	-0.614191	-0.203646	0.739165	-0.186904
64827	10.035268	1.150943	-1.753535	-0.751931	1.217656	0.339063	-0.612418	-0.211760	0.736401	-0.194459
64828	10.008296	1.150144	-1.610116	-0.877365	1.136889	0.287759	-0.611112	-0.219739	0.733201	-0.201676
64829	10.108148	1.122026	-1.530570	-0.940029	1.056427	0.374390	-0.610055	-0.227675	0.729701	-0.208648
64830	9.873262	1.180232	-1.366763	-1.061850	1.017428	0.116038	-0.609081	-0.235584	0.725995	-0.215525
64831	9.589021	1.419711	-1.181897	-1.304726	1.102970	-0.197964	-0.607826	-0.243581	0.722385	-0.222204
64832	9.816919	1.561956	-1.180883	-1.426567	1.172583	0.025808	-0.606197	-0.251537	0.718970	-0.228770
64833	9.740749	1.540730	-1.206101	-1.393002	1.153749	-0.043395	-0.604161	-0.259296	0.715756	-0.235476
64834	9.377406	1.433061	-1.154664	-1.332593	1.046409	-0.407806	-0.601515	-0.266856	0.712883	-0.242416
64835	9.322042	1.362056	-1.175944	-1.295895	0.990143	-0.459688	-0.598121	-0.274296	0.710471	-0.249487
64836	9.478531	1.451549	-1.332568	-1.314972	1.124462	-0.287384	-0.594297	-0.281504	0.708326	-0.256595
64837	9.368201	1.383152	-1.390659	-1.269072	1.102660	-0.390189	-0.590215	-0.288415	0.706404	-0.263547
64838	9.408447	1.195903	-1.441112	-1.165395	0.983954	-0.341721	-0.586003	-0.295019	0.704574	-0.270445
64839	9.254284	1.074020	-1.453322	-1.108532	0.906416	-0.492996	-0.581607	-0.301467	0.702795	-0.277364
64840	9.268846	1.078984	-1.457392	-1.174616	0.892668	-0.484089	-0.577125	-0.307761	0.701059	-0.284124
64841	9.163895	0.980856	-1.460658	-1.145215	0.823053	-0.588627	-0.572632	-0.313923	0.699281	-0.290776
64842	8.872127	0.847294	-1.378347	-1.109150	0.686456	-0.889086	-0.568127	-0.319977	0.697484	-0.297259
64843	8.703076	0.588650	-1.341033	-0.958298	0.496497	-1.053504	-0.563399	-0.326099	0.695761	-0.303577
64844	8.988401	0.302562	-1.481883	-0.746838	0.385065	-0.736758	-0.558229	-0.332374	0.694216	-0.309794
64845	9.901104	0.143083	-1.832820	-0.622777	0.451052	0.228219	-0.552787	-0.338745	0.692632	-0.316130
64846	9.216258	0.144386	-1.734233	-0.637450	0.426623	-0.465009	-0.547326	-0.345187	0.690949	-0.322287
64847	10.116965	-0.003064	-2.153992	-0.505002	0.552267	0.503901	-0.541376	-0.351887	0.689675	-0.327774
64848	11.392067	-0.084766	-2.469507	-0.559377	0.569066	1.816904	-0.535693	-0.358323	0.688342	-0.332899
64849	11.160379	-0.105736	-2.396257	-0.609256	0.487146	1.575831	-0.530778	-0.364110	0.686748	-0.337752
64850	10.727788	-0.488814	-2.251276	-0.331892	0.200413	1.152805	-0.526233	-0.369425	0.685218	-0.342170
64851	10.829998	-0.842261	-2.236423	-0.094791	-0.020135	1.277411	-0.522097	-0.374297	0.683609	-0.346403
64852	10.231196	-0.947315	-2.010587	-0.036857	-0.188208	0.655377	-0.518547	-0.378697	0.681722	-0.350646
64853	9.316889	-1.075028	-1.790491	0.112158	-0.305245	-0.270142	-0.515253	-0.382810	0.679855	-0.354638
64854	9.085240	-1.247053	-1.799732	0.288473	-0.340708	-0.477998	-0.511947	-0.386916	0.678154	-0.358207
64855	9.096549	-1.365394	-1.809774	0.379578	-0.390806	-0.453737	-0.508791	-0.391057	0.676514	-0.361297
64856	8.996804	-1.573948	-1.861424	0.593845	-0.426339	-0.520203	-0.505784	-0.395287	0.674796	-0.364115
64857	8.928197	-1.617571	-1.924641	0.663992	-0.386008	-0.569118	-0.502866	-0.399742	0.672950	-0.366702
64858	9.138037	-1.614032	-2.024715	0.663381	-0.339971	-0.344181	-0.500149	-0.404504	0.670799	-0.369128
64859	9.304657	-1.640304	-2.185495	0.726430	-0.243295	-0.145386	-0.497646	-0.409483	0.668281	-0.371582
64860	9.244676	-1.597267	-2.208276	0.718218	-0.202483	-0.203581	-0.495219	-0.414632	0.665450	-0.374185
64861	9.231411	-1.570945	-2.247090	0.725962	-0.159980	-0.211459	-0.492786	-0.420016	0.662399	-0.376796
64862	9.820662	-1.658296	-2.342394	0.765715	-0.212590	0.387832	-0.490440	-0.425515	0.659027	-0.379590
64863	10.005335	-1.908247	-2.392859	1.013045	-0.277907	0.597420	-0.488321	-0.430958	0.655146	-0.382886
64864	10.009396	-2.268124	-2.395424	1.379835	-0.368913	0.629067	-0.486031	-0.436542	0.650769	-0.386916
64865	9.966104	-2.090093	-2.359423	1.233039	-0.298026	0.562725	-0.483491	-0.442325	0.645890	-0.391678
64866	9.772824	-1.936893	-2.276619	1.115082	-0.249517	0.342940	-0.480774	-0.448352	0.640722	-0.396626
64867	9.788420	-1.740968	-2.172656	0.924583	-0.254623	0.318685	-0.478034	-0.454599	0.635338	-0.401457
64868	9.606767	-1.605287	-2.044223	0.816812	-0.272371	0.102162	-0.475336	-0.460901	0.629968	-0.405914
64869	9.468882	-1.493167	-1.931407	0.733455	-0.300189	-0.066334	-0.472658	-0.467148	0.624756	-0.409936
64870	9.434553	-1.541203	-1.862630	0.805519	-0.349774	-0.112989	-0.470027	-0.473277	0.619723	-0.413554
64871	9.295084	-1.483497	-1.868331	0.801445	-0.289416	-0.254245	-0.467412	-0.479294	0.614831	-0.416877
64872	9.147980	-1.407453	-1.881043	0.779016	-0.222518	-0.402676	-0.464801	-0.485195	0.610116	-0.419886
64873	9.137661	-1.372131	-1.990393	0.796014	-0.103068	-0.394784	-0.462133	-0.491094	0.605621	-0.422473
64874	9.150900	-1.178042	-2.035185	0.642949	-0.032764	-0.386438	-0.459521	-0.496858	0.601278	-0.424779
64875	9.234972	-1.143330	-2.149173	0.648845	0.060346	-0.284512	-0.456946	-0.502496	0.597113	-0.426795
64876	9.357431	-1.330163	-2.260250	0.868049	0.114606	-0.134213	-0.454354	-0.507921	0.593017	-0.428846
64877	9.212042	-1.358425	-2.252153	0.932475	0.133806	-0.278970	-0.451658	-0.513202	0.588807	-0.431202
64878	8.933045	-1.244704	-2.196595	0.855063	0.152969	-0.570445	-0.448817	-0.518442	0.584492	-0.433763
64879	9.186709	-1.172808	-2.236746	0.791207	0.148472	-0.319213	-0.445830	-0.523725	0.580096	-0.436390
64880	9.278447	-1.181609	-2.249758	0.814436	0.146679	-0.228203	-0.442802	-0.528908	0.575553	-0.439229
64881	9.227980	-1.344766	-2.229237	0.996295	0.140361	-0.277429	-0.439690	-0.534137	0.570770	-0.442257
64882	9.287192	-1.521015	-2.334828	1.187575	0.242419	-0.192516	-0.436310	-0.539524	0.565658	-0.445621
64883	9.236281	-1.588316	-2.477756	1.267757	0.412849	-0.210957	-0.432436	-0.545230	0.560292	-0.449218
64884	9.445516	-1.304386	-2.518292	0.982401	0.423110	-0.008768	-0.428068	-0.551281	0.554659	-0.452990
64885	9.736606	-0.925301	-2.617110	0.599062	0.454651	0.283914	-0.423606	-0.557509	0.548883	-0.456585
64886	10.162821	-0.655305	-2.645635	0.330276	0.380334	0.697212	-0.419503	-0.563495	0.542881	-0.460186
64887	10.093195	-0.577637	-2.458961	0.283427	0.221807	0.585540	-0.416063	-0.568986	0.536518	-0.463999
64888	9.739295	-0.589015	-2.222989	0.338029	0.101214	0.188203	-0.413164	-0.573911	0.529816	-0.468206
64889	9.989184	-0.563489	-2.218703	0.333000	0.086067	0.429647	-0.410472	-0.578523	0.522863	-0.472692
64890	10.645038	-0.406312	-2.273377	0.193522	0.040066	1.078167	-0.408087	-0.582747	0.515592	-0.477531
64891	10.535171	-0.198170	-2.046450	0.037045	-0.115262	0.920527	-0.405976	-0.586520	0.508058	-0.482757
64892	9.822056	0.098820	-1.608848	-0.178640	-0.371710	0.132182	-0.403914	-0.590155	0.500448	-0.487978
64893	9.428648	0.536209	-1.266223	-0.531437	-0.646776	-0.321152	-0.401654	-0.593970	0.493127	-0.492645
64894	9.562349	0.722180	-1.151269	-0.655959	-0.777685	-0.207989	-0.399163	-0.597921	0.486196	-0.496762
64895	9.320062	0.856989	-1.023966	-0.735152	-0.857621	-0.465474	-0.396380	-0.601876	0.479677	-0.500539
64896	8.650350	0.932004	-0.885226	-0.768671	-0.876045	-1.145369	-0.393318	-0.605994	0.473508	-0.503847
64897	8.609401	1.002458	-1.068196	-0.849098	-0.714031	-1.150307	-0.389801	-0.610558	0.467825	-0.506373
64898	9.116841	1.295449	-1.253590	-1.117439	-0.721139	-0.614994	-0.386104	-0.615345	0.462436	-0.508358
64899	9.314485	1.680068	-1.312211	-1.449930	-0.838303	-0.405305	-0.382481	-0.620001	0.457430	-0.509967
64900	9.822460	1.792690	-1.384123	-1.505207	-0.925933	0.111375	-0.379117	-0.624213	0.452785	-0.511482
64901	9.762226	1.730554	-1.402788	-1.418601	-0.908206	0.057788	-0.375998	-0.627829	0.448396	-0.513223
64902	9.675432	1.667023	-1.381218	-1.328094	-0.917402	-0.030298	-0.372857	-0.631203	0.444307	-0.514929
64903	10.038283	1.742387	-1.434673	-1.363497	-0.979726	0.338284	-0.369716	-0.634439	0.440365	-0.516600
64904	10.140004	1.907180	-1.473447	-1.498113	-1.044308	0.448552	-0.366644	-0.637501	0.436667	-0.518158
64905	10.641831	1.841369	-1.601399	-1.418652	-1.016356	0.964976	-0.363608	-0.640305	0.433236	-0.519717
64906	10.789953	1.963934	-1.525911	-1.479050	-1.178177	1.097528	-0.360697	-0.642576	0.429948	-0.521668
64907	10.076990	1.991645	-1.257958	-1.461064	-1.327974	0.345885	-0.357808	-0.644426	0.426953	-0.523832
64908	9.754262	1.822449	-1.181450	-1.306723	-1.296660	0.009424	-0.354519	-0.646101	0.424523	-0.525976
64909	9.232301	1.518718	-1.129340	-1.064760	-1.163477	-0.521306	-0.350576	-0.647667	0.422714	-0.528145
64910	9.214096	1.244126	-1.283309	-0.896914	-0.951493	-0.518375	-0.346011	-0.649413	0.421409	-0.530050
64911	9.453577	1.060259	-1.458796	-0.807562	-0.810784	-0.256929	-0.341156	-0.651157	0.420286	-0.531947
64912	9.465742	0.792229	-1.596015	-0.651410	-0.631467	-0.223541	-0.336203	-0.652845	0.419241	-0.533851
64913	9.683560	0.712664	-1.774203	-0.675008	-0.532244	0.020304	-0.331168	-0.654364	0.418171	-0.535974
64914	9.845243	0.741165	-1.894790	-0.784005	-0.518005	0.196559	-0.326346	-0.655571	0.417026	-0.538344
64915	9.478434	0.618446	-1.817878	-0.712988	-0.501805	-0.181104	-0.321839	-0.656433	0.415795	-0.540953
64916	9.188121	0.341525	-1.863329	-0.552767	-0.313808	-0.452885	-0.317486	-0.657262	0.414480	-0.543521
64917	9.490307	0.194686	-2.056474	-0.537490	-0.168044	-0.116528	-0.313162	-0.658218	0.413014	-0.545984
64918	9.540857	0.222966	-2.112142	-0.630264	-0.173169	-0.060183	-0.308896	-0.659188	0.411402	-0.548456
64919	9.677410	0.067532	-2.223263	-0.581451	-0.059700	0.099823	-0.304729	-0.660272	0.409607	-0.550821
64920	10.079443	0.099233	-2.378298	-0.703944	-0.048539	0.519941	-0.300681	-0.661350	0.407443	-0.553351
64921	10.044162	0.272922	-2.305329	-0.862615	-0.206165	0.458021	-0.297003	-0.662223	0.404948	-0.556118
64922	9.758218	0.227350	-2.207757	-0.830626	-0.215126	0.157885	-0.293588	-0.662848	0.402198	-0.559175
64923	9.625507	0.150875	-2.109821	-0.766388	-0.230880	0.009921	-0.290168	-0.663251	0.399330	-0.562526
64924	9.400219	0.102756	-2.103646	-0.784290	-0.163065	-0.212791	-0.286421	-0.663431	0.396423	-0.566278
64925	8.907745	0.016567	-2.080592	-0.775839	-0.042368	-0.698246	-0.282118	-0.663799	0.393695	-0.569899
64926	9.452488	-0.288268	-2.263705	-0.654126	0.149489	-0.111840	-0.277219	-0.664667	0.391043	-0.573108
64927	9.861122	-0.469197	-2.339921	-0.588138	0.204579	0.313960	-0.271900	-0.665803	0.388264	-0.576218
64928	10.143703	-0.834928	-2.357894	-0.345128	0.337770	0.623686	-0.266335	-0.667146	0.385204	-0.579309
64929	9.863800	-1.009314	-2.146568	-0.149487	0.300394	0.326744	-0.260610	-0.668430	0.381695	-0.582746
64930	9.260846	-1.453682	-1.915671	0.269335	0.482519	-0.260694	-0.254646	-0.669889	0.377623	-0.586349
64931	9.103106	-1.504256	-1.736677	0.355997	0.397713	-0.439310	-0.248319	-0.671742	0.372934	-0.589933
64932	9.089869	-1.498357	-1.623811	0.371626	0.305487	-0.470527	-0.241964	-0.673969	0.367753	-0.593276
64933	9.147578	-1.612621	-1.553181	0.467401	0.308589	-0.411767	-0.235664	-0.676495	0.362256	-0.596312
64934	9.264501	-1.682912	-1.560732	0.487356	0.335172	-0.286454	-0.229472	-0.679167	0.356534	-0.599131
64935	9.073014	-1.540211	-1.450540	0.422776	0.204214	-0.508096	-0.223616	-0.681910	0.350669	-0.601687
64936	9.016114	-1.633340	-1.354634	0.542554	0.211808	-0.568559	-0.218104	-0.684989	0.344855	-0.603569
64937	9.865487	-1.767967	-1.474377	0.585002	0.217821	0.298576	-0.212897	-0.688254	0.339032	-0.605011
64938	9.733846	-1.980807	-1.465664	0.744840	0.391921	0.192867	-0.207968	-0.691402	0.333193	-0.606379
64939	9.396052	-2.360717	-1.477348	1.000340	0.744448	-0.092274	-0.203027	-0.694965	0.327242	-0.607220
64940	9.604871	-2.365145	-1.636630	0.915495	0.821095	0.137873	-0.197914	-0.699080	0.321079	-0.607475
64941	9.610044	-2.447500	-1.741254	0.926267	0.951873	0.167845	-0.192731	-0.703749	0.314665	-0.607106
64942	9.192807	-2.547892	-1.770804	0.988809	1.131147	-0.227397	-0.187468	-0.709030	0.307883	-0.606085
64943	8.868482	-2.573670	-1.904416	0.938933	1.300382	-0.521422	-0.182081	-0.715234	0.300654	-0.604064
64944	8.987926	-2.545589	-2.048845	0.899977	1.337535	-0.386080	-0.176668	-0.722403	0.292955	-0.600915
64945	10.306114	-2.837683	-2.430678	1.036397	1.512368	0.995357	-0.171399	-0.730307	0.284513	-0.596931
64946	11.000319	-2.538341	-2.503254	1.011108	1.182529	1.645684	-0.166369	-0.737690	0.275128	-0.593666
64947	9.854999	-2.040632	-2.265482	0.861150	0.911771	0.426631	-0.161723	-0.744436	0.265038	-0.591114
64948	9.177009	-1.481150	-2.264959	0.534963	0.631608	-0.280886	-0.157478	-0.750851	0.254454	-0.588793
64949	9.113297	-0.916868	-2.541807	0.083317	0.365260	-0.314671	-0.153535	-0.756795	0.243818	-0.586721
64950	9.068906	-0.633751	-2.928936	-0.303731	0.369488	-0.273508	-0.149599	-0.761984	0.233502	-0.585216
64951	9.107583	-0.435604	-3.310457	-0.643266	0.408779	-0.142335	-0.145383	-0.766319	0.223701	-0.584446
64952	9.211919	-0.416287	-3.556558	-0.790100	0.507557	0.026006	-0.140739	-0.769698	0.214462	-0.584605
64953	9.300768	-0.657609	-3.698418	-0.758771	0.779767	0.158835	-0.135734	-0.772040	0.205498	-0.585919
64954	9.246757	-0.720628	-3.769719	-0.826299	0.884405	0.125496	-0.130164	-0.773305	0.196681	-0.588536
64955	8.425033	-0.566649	-3.740826	-1.107210	0.858486	-0.684005	-0.124218	-0.773916	0.187938	-0.591864
64956	7.526525	-0.398112	-3.514882	-1.234315	0.731084	-1.621028	-0.118081	-0.774871	0.179485	-0.594489
64957	8.211081	-0.749058	-3.394075	-0.863368	0.894054	-0.983312	-0.111787	-0.776462	0.171230	-0.596063
64958	9.179741	-1.129506	-3.446505	-0.571473	1.119352	-0.022786	-0.105030	-0.778018	0.163093	-0.597543
64959	9.776069	-1.524987	-3.613081	-0.479859	1.447139	0.609726	-0.097585	-0.779331	0.154897	-0.599272
64960	9.944082	-1.427595	-3.791899	-0.692797	1.361781	0.815881	-0.089449	-0.780489	0.146505	-0.601143
64961	9.600461	-1.438948	-3.703945	-0.738986	1.342916	0.463924	-0.080995	-0.781940	0.137893	-0.602491
64962	9.700070	-1.535595	-3.491969	-0.533061	1.318571	0.513018	-0.072293	-0.783561	0.128822	-0.603499
64963	9.183929	-1.735052	-3.299110	-0.459262	1.478554	-0.022807	-0.063277	-0.785109	0.119132	-0.604489
64964	9.114147	-1.663113	-3.410999	-0.643035	1.407692	-0.062140	-0.053953	-0.786701	0.108514	-0.605322
64965	9.314230	-1.308162	-3.429874	-0.731164	1.013873	0.120466	-0.044668	-0.788286	0.096950	-0.605979
64966	9.687534	-1.034206	-3.477358	-0.767609	0.696304	0.479823	-0.035647	-0.789622	0.084581	-0.606689
64967	10.008148	-0.738437	-3.536150	-0.820431	0.376632	0.789088	-0.026953	-0.790427	0.071573	-0.607763
64968	10.139529	-0.353986	-3.492842	-0.827856	-0.014853	0.885427	-0.018646	-0.790579	0.058025	-0.609319
64969	9.901067	0.068710	-3.369124	-0.843683	-0.411456	0.603915	-0.010879	-0.790036	0.044053	-0.611379
64970	9.941994	0.594215	-3.169540	-0.713526	-0.916501	0.574468	-0.003711	-0.788811	0.029899	-0.613897
64971	9.878490	1.047809	-2.910548	-0.534216	-1.328059	0.439350	0.002924	-0.786778	0.015956	-0.617023
64972	9.868774	1.087978	-2.551629	-0.239657	-1.315505	0.350905	0.009447	-0.783824	0.002558	-0.620907
64973	9.373989	1.062025	-2.186351	-0.064822	-1.224397	-0.206664	0.016443	-0.780166	-0.010204	-0.625273
64974	9.158542	1.068525	-1.946514	0.047829	-1.182859	-0.463486	0.024108	-0.776321	-0.022261	-0.629483
64975	9.143459	0.976578	-1.751448	0.156678	-1.056263	-0.513039	0.032588	-0.772553	-0.033797	-0.633213
64976	9.228539	1.153875	-1.526905	0.347872	-1.199806	-0.470954	0.041760	-0.768957	-0.045005	-0.636345
64977	9.356394	1.560114	-1.424936	0.479204	-1.583513	-0.364446	0.051224	-0.765587	-0.055911	-0.638848
64978	9.618054	1.805852	-1.376374	0.585877	-1.811108	-0.115312	0.060572	-0.762478	-0.066400	-0.640741
64979	9.700676	1.727046	-1.350315	0.596308	-1.726296	-0.036519	0.069679	-0.759541	-0.076298	-0.642200
64980	9.392422	1.304250	-1.261356	0.534149	-1.304684	-0.351072	0.078665	-0.756933	-0.085817	-0.643040
64981	9.454792	1.122740	-1.199872	0.554505	-1.115613	-0.297370	0.087661	-0.754620	-0.095301	-0.643259
64982	9.460724	1.166146	-1.193423	0.573712	-1.156549	-0.293092	0.096512	-0.752325	-0.104841	-0.643196
64983	9.599522	1.405243	-1.253640	0.612342	-1.394406	-0.149468	0.105054	-0.750010	-0.114413	-0.642929
64984	9.781516	1.718135	-1.250861	0.751749	-1.675165	0.027199	0.113213	-0.747650	-0.123705	-0.642573
64985	9.801968	1.905570	-1.104859	0.969160	-1.790107	0.025336	0.120967	-0.745200	-0.132295	-0.642294
64986	9.793382	1.802399	-1.018535	1.022123	-1.654382	0.006410	0.128473	-0.742650	-0.140105	-0.642134
64987	9.700766	1.705158	-1.001182	0.995863	-1.561974	-0.087294	0.135981	-0.740094	-0.147105	-0.641973
64988	9.755923	1.595106	-1.028504	0.942513	-1.482114	-0.030296	0.143594	-0.737727	-0.153304	-0.641589
64989	9.793480	1.287719	-1.047252	0.812832	-1.234193	0.009897	0.151350	-0.735444	-0.158851	-0.641079
64990	9.425995	0.794634	-0.937823	0.662828	-0.791595	-0.363125	0.159418	-0.733337	-0.164119	-0.640209
64991	9.494940	0.463533	-0.871169	0.595611	-0.502593	-0.298479	0.167824	-0.731488	-0.169672	-0.638727
64992	9.589748	0.344540	-0.803080	0.631616	-0.399492	-0.212259	0.176584	-0.729707	-0.175714	-0.636766
64993	9.764301	0.435520	-0.778830	0.745829	-0.493141	-0.048558	0.185572	-0.727969	-0.182300	-0.634343
64994	9.670877	0.509721	-0.718948	0.858751	-0.553256	-0.155625	0.194788	-0.726258	-0.189223	-0.631507
64995	9.580081	0.363346	-0.648921	0.872897	-0.411965	-0.252395	0.204131	-0.724789	-0.196432	-0.628033
64996	9.361037	-0.176984	-0.580652	0.654514	0.057479	-0.455039	0.213813	-0.723573	-0.204017	-0.623781
64997	9.312196	-0.530657	-0.677244	0.421375	0.278071	-0.474482	0.224009	-0.722535	-0.212339	-0.618608
64998	9.332810	-0.454013	-0.805889	0.429919	0.133130	-0.444980	0.234400	-0.721633	-0.221512	-0.612564
64999	9.447199	-0.357342	-1.064056	0.381045	-0.093401	-0.307164	0.244537	-0.720752	-0.231393	-0.605950
65000	9.588559	-0.293915	-1.372991	0.295232	-0.317575	-0.131613	0.254197	-0.719851	-0.241706	-0.598979
65001	10.364349	-0.421548	-1.958241	0.001376	-0.551357	0.729001	0.263103	-0.718921	-0.252260	-0.591856
65002	11.008718	-0.362382	-2.335598	-0.019618	-0.790573	1.419049	0.271536	-0.717569	-0.262658	-0.585128
65003	10.812611	-0.290229	-2.322695	0.094405	-0.813557	1.220007	0.279405	-0.715638	-0.272551	-0.579233
65004	10.278327	-0.375361	-2.122446	0.137501	-0.618503	0.670059	0.286737	-0.713192	-0.281920	-0.574160
65005	9.869056	-0.475031	-1.892428	0.181165	-0.390784	0.238162	0.293586	-0.710402	-0.290695	-0.569766
65006	9.417624	-0.732061	-1.715590	0.040294	-0.111191	-0.212854	0.300039	-0.707357	-0.298900	-0.565934
65007	9.051950	-0.983883	-1.697505	-0.198817	0.037742	-0.552753	0.306131	-0.704230	-0.306688	-0.562394
65008	8.652450	-1.130463	-1.711277	-0.389018	0.082332	-0.929378	0.311994	-0.701114	-0.314184	-0.558916
65009	8.580336	-1.301938	-1.719392	-0.538091	0.168542	-0.983443	0.317720	-0.698228	-0.321518	-0.555120
65010	8.896130	-1.592326	-1.866762	-0.792521	0.244427	-0.621736	0.323291	-0.695502	-0.328798	-0.551046
65011	9.354406	-1.881953	-2.106571	-1.071567	0.253709	-0.103328	0.328605	-0.692798	-0.336296	-0.546767
65012	9.951763	-2.132727	-2.374709	-1.310657	0.229108	0.553365	0.333649	-0.689930	-0.344066	-0.542489
65013	10.071005	-2.132931	-2.412853	-1.308401	0.208432	0.677358	0.338526	-0.686704	-0.351973	-0.538472
65014	9.868657	-2.060318	-2.397121	-1.280483	0.159875	0.469155	0.343155	-0.683173	-0.360014	-0.534705
65015	9.918170	-2.021339	-2.418546	-1.264174	0.127352	0.516441	0.347636	-0.679353	-0.368150	-0.531125
65016	9.705904	-1.772374	-2.382140	-1.084398	0.011997	0.279110	0.352016	-0.675325	-0.376198	-0.527727
65017	9.371670	-1.614325	-2.361399	-1.007833	-0.085141	-0.066537	0.356185	-0.671328	-0.384121	-0.524311
65018	9.221904	-1.640098	-2.351319	-1.066191	-0.080232	-0.214827	0.360141	-0.667464	-0.391963	-0.520726
65019	9.290819	-1.735464	-2.395713	-1.174425	-0.064000	-0.133472	0.364122	-0.663602	-0.399668	-0.517023
65020	9.381310	-1.856267	-2.448187	-1.304441	-0.050104	-0.027790	0.368478	-0.659489	-0.407175	-0.513329
65021	9.161218	-1.953611	-2.338946	-1.395627	0.038353	-0.259369	0.373373	-0.655007	-0.414481	-0.509670
65022	8.761678	-1.962398	-2.223635	-1.427565	0.057938	-0.673696	0.378721	-0.650207	-0.421832	-0.505825
65023	8.679985	-2.122647	-2.238767	-1.601209	0.054006	-0.741142	0.384363	-0.645155	-0.429426	-0.501631
65024	8.716581	-2.207095	-2.304331	-1.702451	-0.011677	-0.687920	0.390340	-0.639727	-0.437423	-0.497037
65025	8.784373	-1.956667	-2.253448	-1.446415	-0.068821	-0.648910	0.396594	-0.633814	-0.445873	-0.492129
65026	8.912593	-1.693645	-2.123356	-1.152443	-0.032412	-0.567033	0.402875	-0.627514	-0.454565	-0.487123
65027	9.495437	-1.734678	-2.217362	-1.162752	-0.041040	0.022726	0.409010	-0.620908	-0.463407	-0.482118
65028	10.809187	-1.789930	-2.628100	-1.182438	-0.222910	1.390050	0.415228	-0.614015	-0.472256	-0.477017
65029	11.214960	-1.477157	-2.625238	-0.848802	-0.249799	1.766007	0.421943	-0.606713	-0.480652	-0.472056
65030	9.802235	-1.055626	-1.978006	-0.472918	0.007286	0.231554	0.428744	-0.599084	-0.488590	-0.467500
65031	9.611941	-1.059166	-1.890489	-0.505660	0.022547	0.027476	0.434731	-0.591372	-0.496795	-0.463123
65032	10.365662	-1.112545	-2.011463	-0.548708	0.012207	0.790578	0.440634	-0.583393	-0.504993	-0.458778
65033	9.645274	-0.872855	-1.662915	-0.368798	0.166040	0.005391	0.446626	-0.575110	-0.513083	-0.454445
65034	8.978958	-0.643719	-1.446514	-0.207202	0.217395	-0.700162	0.452331	-0.566821	-0.521503	-0.449606
65035	8.942449	0.090378	-1.435965	0.484870	0.190284	-0.770227	0.457414	-0.558790	-0.530272	-0.444227
65036	9.314096	0.593089	-1.576840	0.964262	0.143111	-0.397805	0.461810	-0.551346	-0.538959	-0.438489
65037	9.837089	0.768672	-1.784397	1.128795	0.087763	0.150296	0.465828	-0.544518	-0.547118	-0.432627
65038	9.921745	0.835604	-1.821169	1.175555	0.124449	0.240086	0.469762	-0.538308	-0.554387	-0.426852
65039	9.753557	0.698911	-1.765528	1.017913	0.188176	0.069909	0.473544	-0.532741	-0.560811	-0.421228
65040	9.594938	0.505207	-1.698283	0.810136	0.250113	-0.092439	0.477144	-0.527715	-0.566573	-0.415747
65041	9.557523	0.323531	-1.654250	0.621798	0.303169	-0.132355	0.480558	-0.522987	-0.571835	-0.410552
65042	9.436261	0.269866	-1.582868	0.555565	0.371860	-0.264163	0.483800	-0.518372	-0.576762	-0.405677
65043	9.460491	0.259257	-1.590324	0.541119	0.393874	-0.239326	0.486816	-0.513853	-0.581467	-0.401075
65044	9.489613	0.349867	-1.580580	0.619451	0.448119	-0.216397	0.489497	-0.509359	-0.586091	-0.396791
65045	9.769202	0.488505	-1.699235	0.759160	0.441427	0.076299	0.491678	-0.504922	-0.590759	-0.392824
65046	10.236159	0.494699	-1.862535	0.767827	0.410792	0.566824	0.493473	-0.500483	-0.595419	-0.389201
65047	10.184247	0.494179	-1.838277	0.731671	0.450192	0.512244	0.495222	-0.495955	-0.599933	-0.385830
65048	9.715085	0.559355	-1.692605	0.737543	0.529329	0.022777	0.496909	-0.491308	-0.604461	-0.382525
65049	9.462758	0.735859	-1.683427	0.876728	0.551651	-0.229053	0.498364	-0.486721	-0.609099	-0.379123
65050	9.819369	0.795140	-1.866154	0.929822	0.499753	0.158282	0.499533	-0.482217	-0.613851	-0.375661
65051	9.718975	0.963007	-1.832507	1.046412	0.588581	0.051505	0.500713	-0.477745	-0.618444	-0.372255
65052	9.347011	0.981461	-1.807171	1.031900	0.573923	-0.315251	0.501664	-0.473366	-0.623049	-0.368874
65053	9.329141	1.135456	-1.921710	1.170404	0.546649	-0.307630	0.502316	-0.469120	-0.627743	-0.365437
65054	9.147756	1.390770	-1.992386	1.400850	0.564331	-0.469022	0.502653	-0.465161	-0.632392	-0.362003
65055	8.949566	1.281642	-2.078441	1.291873	0.460455	-0.637945	0.502584	-0.461625	-0.637034	-0.358467
65056	9.148194	1.186576	-2.258164	1.203095	0.368246	-0.399228	0.502246	-0.458428	-0.641696	-0.354710
65057	9.282095	1.201080	-2.394931	1.211707	0.343906	-0.234140	0.501873	-0.455479	-0.646225	-0.350794
65058	9.164967	1.232289	-2.537134	1.261696	0.266818	-0.310654	0.501452	-0.452694	-0.650637	-0.346822
65059	9.259530	1.307175	-2.692454	1.342164	0.246631	-0.177641	0.500833	-0.450106	-0.654990	-0.342869
65060	9.769778	1.366566	-2.907630	1.391626	0.272052	0.373537	0.500232	-0.447620	-0.659154	-0.339000
65061	9.582670	1.415532	-2.929016	1.431390	0.297949	0.200919	0.499833	-0.445345	-0.662906	-0.335246
65062	9.650038	1.392934	-3.009204	1.409537	0.302606	0.288800	0.499699	-0.443216	-0.666293	-0.331534
65063	9.624288	1.395524	-3.164161	1.456986	0.224239	0.307238	0.499755	-0.441276	-0.669340	-0.327877
65064	10.054508	1.335801	-3.459846	1.459648	0.114555	0.803526	0.499870	-0.439570	-0.672136	-0.324256
65065	10.530925	1.147071	-3.656314	1.308878	0.053649	1.316932	0.500189	-0.438131	-0.674563	-0.320651
65066	10.190308	0.861360	-3.505474	1.037234	0.032476	0.948145	0.501092	-0.436841	-0.676416	-0.317077
65067	9.998964	0.516528	-3.384850	0.721588	-0.013409	0.731609	0.502485	-0.435662	-0.677865	-0.313380
65068	10.155220	0.133430	-3.301553	0.363868	-0.026642	0.860322	0.504663	-0.434518	-0.678728	-0.309575
65069	9.759043	-0.227221	-3.153870	0.080059	-0.140727	0.444544	0.507713	-0.433363	-0.678949	-0.305702
65070	9.194750	-0.637577	-2.966515	-0.236038	-0.303029	-0.137869	0.511248	-0.432175	-0.678847	-0.301690
65071	8.827121	-0.835557	-2.822445	-0.362592	-0.361538	-0.521846	0.514890	-0.430907	-0.678728	-0.297549
65072	8.776187	-1.042588	-2.730089	-0.509455	-0.384990	-0.584815	0.518365	-0.429509	-0.678737	-0.293488
65073	8.908677	-1.243706	-2.705586	-0.642793	-0.417105	-0.450850	0.521595	-0.427913	-0.678897	-0.289703
65074	9.190441	-1.590370	-2.740730	-0.892463	-0.531248	-0.146974	0.524642	-0.426305	-0.679093	-0.286090
65075	9.459071	-1.746739	-2.701721	-1.008535	-0.500748	0.114860	0.527550	-0.424675	-0.679290	-0.282679
65076	9.450189	-1.847030	-2.592022	-1.092013	-0.465438	0.088161	0.530220	-0.422919	-0.679525	-0.279737
65077	9.244347	-1.868562	-2.464383	-1.111593	-0.437211	-0.138199	0.532568	-0.421020	-0.679829	-0.277392
65078	8.905027	-1.997023	-2.344576	-1.222506	-0.510315	-0.483721	0.534591	-0.418985	-0.680244	-0.275560
65079	8.789992	-2.141740	-2.312691	-1.329952	-0.607595	-0.589807	0.536372	-0.416755	-0.680839	-0.274004
65080	8.862125	-1.851553	-2.325701	-1.062496	-0.472823	-0.537889	0.537895	-0.414405	-0.681619	-0.272641
65081	8.907532	-1.787220	-2.314449	-1.007648	-0.438518	-0.502088	0.539060	-0.412102	-0.682528	-0.271554
65082	9.014846	-1.891853	-2.355419	-1.080922	-0.516202	-0.380844	0.540001	-0.409851	-0.683540	-0.270546
65083	9.254610	-1.899474	-2.347316	-1.108433	-0.468836	-0.152603	0.541031	-0.407550	-0.684536	-0.269442
65084	9.028982	-1.773249	-2.231795	-1.040157	-0.387718	-0.409734	0.542284	-0.405119	-0.685448	-0.268269
65085	8.695847	-1.453895	-2.066353	-0.824988	-0.190560	-0.796899	0.543642	-0.402730	-0.686284	-0.266977
65086	8.907192	-1.476322	-2.304163	-0.726970	-0.352668	-0.529698	0.544650	-0.400629	-0.687300	-0.265466
65087	10.382576	-1.458224	-2.854928	-0.529696	-0.407202	1.032981	0.545400	-0.398895	-0.688420	-0.263629
65088	11.167691	-1.433148	-3.095135	-0.432464	-0.377458	1.850141	0.546311	-0.397495	-0.689246	-0.261688
65089	10.677796	-1.308442	-2.962595	-0.342361	-0.323850	1.335505	0.547432	-0.396238	-0.689759	-0.259897
65090	10.022766	-1.027351	-2.712934	-0.176898	-0.138634	0.619033	0.548353	-0.394962	-0.690212	-0.258690
65091	9.023433	-0.907789	-2.407605	-0.159389	-0.093879	-0.431389	0.548891	-0.393710	-0.690663	-0.258256
65092	8.454862	-0.688692	-2.257000	-0.024000	-0.008050	-1.034740	0.548705	-0.392449	-0.691419	-0.258546
65093	8.305166	-0.400348	-2.261659	0.203071	0.100754	-1.198765	0.547709	-0.391237	-0.692503	-0.259592
65094	8.165690	-0.180066	-2.349714	0.405792	0.109958	-1.324158	0.545996	-0.390264	-0.693869	-0.261015
65095	8.385934	0.051227	-2.543394	0.630698	0.138939	-1.073237	0.543533	-0.389679	-0.695553	-0.262541
65096	8.858124	0.188628	-2.837002	0.797500	0.108923	-0.544338	0.540702	-0.389546	-0.697342	-0.263836
65097	9.352014	0.161537	-3.195142	0.857047	-0.047943	0.034039	0.537921	-0.389818	-0.699034	-0.264640
65098	9.759893	0.135664	-3.440186	0.870353	-0.125494	0.499213	0.535583	-0.390500	-0.700399	-0.264766
65099	10.063553	-0.144427	-3.585318	0.646708	-0.284995	0.848028	0.534022	-0.391371	-0.701288	-0.264281
65100	10.332572	-0.386216	-3.649048	0.436473	-0.367600	1.137247	0.533480	-0.392115	-0.701630	-0.263365
65101	10.271214	-0.440245	-3.489757	0.322119	-0.267369	1.036034	0.533996	-0.392436	-0.701422	-0.262393
65102	9.913914	-0.537863	-3.201201	0.151659	-0.186267	0.616353	0.535326	-0.392273	-0.700762	-0.261688
65103	9.391774	-0.571076	-2.862962	0.031178	-0.090265	0.021887	0.537113	-0.391591	-0.699924	-0.261292
65104	9.172259	-0.373599	-2.517454	0.055414	0.210779	-0.296392	0.538676	-0.390518	-0.699289	-0.261378
65105	9.209333	-0.170504	-2.358637	0.145437	0.430754	-0.315463	0.539800	-0.389306	-0.698881	-0.261957
65106	9.210547	0.035411	-2.254649	0.260501	0.598844	-0.352649	0.540412	-0.388287	-0.698597	-0.262965
65107	9.207417	0.049238	-2.151213	0.209885	0.659406	-0.382537	0.540560	-0.387622	-0.698371	-0.264239
65108	9.330484	-0.074750	-2.135450	0.075587	0.609657	-0.260399	0.540382	-0.387289	-0.698202	-0.265534
65109	9.463523	-0.142256	-2.223479	0.042313	0.518308	-0.104346	0.540042	-0.387205	-0.698091	-0.266637
65110	9.488694	-0.086306	-2.213001	0.068652	0.553275	-0.084929	0.539612	-0.387272	-0.698058	-0.267499
65111	9.537583	-0.121424	-2.287242	0.064155	0.481413	-0.015962	0.539134	-0.387402	-0.698119	-0.268111
65112	9.437954	-0.176850	-2.315925	0.036635	0.402817	-0.101552	0.538710	-0.387637	-0.698216	-0.268373
65113	9.551581	-0.402453	-2.469948	-0.084942	0.188309	0.059122	0.538330	-0.387867	-0.698430	-0.268246
65114	9.578643	-0.302214	-2.453058	-0.018189	0.272628	0.075920	0.538118	-0.387967	-0.698658	-0.267933
65115	9.576527	-0.110088	-2.415463	0.117327	0.415992	0.054918	0.537911	-0.387997	-0.698862	-0.267773
65116	9.594401	-0.020727	-2.343571	0.144794	0.530882	0.048473	0.537579	-0.388145	-0.698964	-0.267957
65117	9.579860	-0.176507	-2.317015	-0.000772	0.460905	0.034190	0.537424	-0.388404	-0.698787	-0.268355
65118	9.330497	-0.265604	-2.274035	-0.069660	0.381471	-0.213230	0.537220	-0.388872	-0.698522	-0.268773
65119	9.660188	-0.114278	-2.282571	0.021164	0.539572	0.099469	0.536990	-0.389309	-0.698239	-0.269339
65120	9.539054	-0.057872	-2.318237	0.099608	0.508054	-0.009469	0.536699	-0.389802	-0.697874	-0.270150
65121	9.563919	-0.140711	-2.398518	0.068045	0.400611	0.040034	0.536235	-0.390523	-0.697514	-0.270956
65122	9.402756	-0.459033	-2.464687	-0.145217	0.132889	-0.083429	0.535756	-0.391471	-0.697117	-0.271557
65123	9.624231	-0.507887	-2.509732	-0.188849	0.131367	0.143697	0.535243	-0.392433	-0.696827	-0.271925
65124	9.522319	-0.448692	-2.529461	-0.118215	0.128350	0.048530	0.534846	-0.393231	-0.696509	-0.272370
65125	9.346217	-0.407319	-2.564733	-0.047174	0.082507	-0.112867	0.534334	-0.393951	-0.696314	-0.272832
65126	9.433054	-0.720221	-2.686824	-0.257417	-0.157055	0.017334	0.533842	-0.394760	-0.696150	-0.273044
65127	9.510966	-1.066438	-2.729758	-0.534110	-0.348337	0.119116	0.533550	-0.395449	-0.696092	-0.272764
65128	9.633263	-0.651380	-2.690429	-0.217885	-0.051586	0.207908	0.533574	-0.395651	-0.696039	-0.272559
65129	9.258501	-0.294068	-2.651390	0.102821	0.078667	-0.178403	0.533408	-0.395543	-0.696121	-0.272833
65130	8.926836	-0.156135	-2.719156	0.282101	0.011893	-0.483870	0.532768	-0.395496	-0.696401	-0.273435
65131	9.115554	-0.611916	-2.812470	-0.092417	-0.258696	-0.257466	0.531626	-0.395802	-0.696918	-0.273899
65132	10.115042	-0.981770	-2.918090	-0.481526	-0.278473	0.745900	0.531046	-0.396123	-0.697173	-0.273908
65133	10.048299	-0.701012	-2.832623	-0.283542	-0.072569	0.646654	0.531398	-0.396112	-0.696915	-0.273899
65134	8.959197	-0.264515	-2.719670	0.158505	-0.032323	-0.447454	0.531758	-0.395909	-0.696639	-0.274195
65135	8.236875	-0.196596	-2.673737	0.271089	-0.147695	-1.155995	0.531078	-0.395897	-0.697010	-0.274587
65136	9.274567	-0.660953	-2.809847	-0.193632	-0.234072	-0.104067	0.529623	-0.396030	-0.697966	-0.274779
65137	10.195771	-0.799260	-2.868607	-0.415878	-0.108319	0.800359	0.528910	-0.395923	-0.698509	-0.274926
65138	9.961037	-0.522475	-2.853086	-0.174337	-0.009566	0.560588	0.529010	-0.395345	-0.698648	-0.275211
65139	9.200043	-0.400390	-2.805141	-0.007086	-0.113846	-0.186843	0.529274	-0.394549	-0.698716	-0.275675
65140	8.811883	-0.425285	-2.785951	0.001690	-0.222170	-0.563780	0.529067	-0.393810	-0.699178	-0.275957
65141	8.983447	-0.658208	-2.796318	-0.225364	-0.316076	-0.389088	0.528595	-0.393097	-0.699969	-0.275873
65142	9.286846	-0.787037	-2.930608	-0.317788	-0.412084	-0.056531	0.528145	-0.392335	-0.700952	-0.275322
65143	9.659198	-0.787213	-3.020668	-0.331136	-0.382256	0.325778	0.528066	-0.391325	-0.701892	-0.274515
65144	9.418886	-0.575045	-2.946637	-0.170329	-0.266750	0.068031	0.528248	-0.389868	-0.702855	-0.273772
65145	9.061787	-0.422718	-2.885856	-0.038960	-0.227872	-0.295892	0.528314	-0.388147	-0.704006	-0.273133
65146	9.043973	-0.149245	-2.867703	0.162993	-0.069317	-0.325431	0.528033	-0.386300	-0.705431	-0.272616
65147	9.238559	0.358251	-2.876990	0.533359	0.253006	-0.147916	0.527402	-0.384500	-0.706920	-0.272526
65148	9.376455	0.392884	-2.877926	0.507161	0.301500	-0.014397	0.526545	-0.383013	-0.708191	-0.272980
65149	9.267942	-0.083685	-2.969521	0.146085	-0.072603	-0.081648	0.525817	-0.381923	-0.709155	-0.273404
65150	9.326566	-0.223733	-3.021352	0.024958	-0.180298	-0.008082	0.525226	-0.381158	-0.710020	-0.273364
65151	9.574133	0.141077	-3.004575	0.259785	0.103836	0.218918	0.524709	-0.380536	-0.710784	-0.273236
65152	9.519035	0.719987	-2.909357	0.673451	0.490753	0.132178	0.524108	-0.379836	-0.711412	-0.273730
65153	9.508754	0.818093	-2.892516	0.719576	0.546315	0.118878	0.523127	-0.379307	-0.711905	-0.275057
65154	9.671884	0.092588	-2.971629	0.107529	0.101143	0.304755	0.522158	-0.379223	-0.712115	-0.276465
65155	9.451946	-0.471838	-2.985453	-0.332498	-0.288468	0.100994	0.521718	-0.379539	-0.712063	-0.276997
65156	9.322191	-0.018856	-2.982708	0.056723	-0.061209	-0.025289	0.521428	-0.379961	-0.712048	-0.277001
65157	9.069554	0.308933	-2.947023	0.345477	0.094330	-0.278070	0.520861	-0.380353	-0.712172	-0.277211
65158	9.070310	0.465341	-2.969395	0.470095	0.169877	-0.270440	0.519616	-0.380729	-0.712604	-0.277922
65159	9.468624	0.260675	-3.051163	0.250905	0.092750	0.135214	0.518211	-0.381050	-0.713058	-0.278940
65160	9.676099	-0.029280	-3.092737	-0.028846	-0.048358	0.345539	0.517159	-0.381515	-0.713226	-0.279823
65161	9.407200	-0.129725	-3.076141	-0.089545	-0.155947	0.083905	0.516634	-0.382082	-0.713139	-0.280242
65162	9.158332	0.059744	-3.028947	0.082837	-0.069699	-0.166890	0.516290	-0.382760	-0.713021	-0.280251
65163	9.089591	0.202240	-2.977572	0.184219	0.042753	-0.247557	0.515745	-0.383521	-0.713012	-0.280236
65164	9.162022	0.361322	-3.014325	0.319859	0.131182	-0.166972	0.515057	-0.384360	-0.713022	-0.280328
65165	9.414458	0.408229	-3.084297	0.346680	0.177041	0.094886	0.514278	-0.385421	-0.712896	-0.280621
65166	9.708903	0.390311	-3.127660	0.301377	0.217236	0.388262	0.513662	-0.386737	-0.712425	-0.281132
65167	9.750871	0.208792	-3.147859	0.158031	0.118174	0.433929	0.513393	-0.388339	-0.711471	-0.281833
65168	9.411031	-0.027230	-3.055743	-0.016721	-0.022545	0.082008	0.513442	-0.390096	-0.710211	-0.282495
65169	9.199682	-0.144464	-2.983508	-0.098652	-0.079865	-0.141069	0.513496	-0.391918	-0.708968	-0.282994
65170	9.299418	-0.194520	-2.948654	-0.157326	-0.045908	-0.056423	0.513399	-0.393746	-0.707875	-0.283372
65171	9.364178	-0.255697	-2.917007	-0.218800	-0.028451	-0.003842	0.513312	-0.395436	-0.706852	-0.283727
65172	9.299945	-0.308359	-2.888236	-0.254484	-0.042009	-0.073107	0.513119	-0.397005	-0.705962	-0.284102
65173	9.396021	-0.422101	-2.898126	-0.350827	-0.077208	0.022630	0.512885	-0.398388	-0.705191	-0.284501
65174	9.351102	-0.543274	-2.938468	-0.419082	-0.179591	-0.006314	0.512687	-0.399498	-0.704543	-0.284907
65175	9.406433	-0.659861	-2.962593	-0.509855	-0.242496	0.055169	0.512551	-0.400192	-0.704104	-0.285264
65176	9.438886	-0.603444	-3.003555	-0.444408	-0.237810	0.098115	0.512496	-0.400478	-0.703855	-0.285576
65177	9.316453	-0.534429	-2.981232	-0.378191	-0.220404	-0.026061	0.512562	-0.400335	-0.703797	-0.285802
65178	9.075099	-0.314502	-2.915724	-0.189856	-0.121341	-0.278170	0.512551	-0.399927	-0.704001	-0.285888
65179	9.047025	-0.088927	-2.911089	-0.004120	-0.009668	-0.308431	0.512240	-0.399389	-0.704520	-0.285922
65180	9.271544	0.042627	-2.999742	0.104220	0.047688	-0.068528	0.511786	-0.398871	-0.705158	-0.285883
65181	9.456084	0.232187	-3.064919	0.256331	0.145743	0.126035	0.511382	-0.398484	-0.705708	-0.285789
65182	9.510295	0.392759	-3.117006	0.399344	0.205912	0.193002	0.511033	-0.398353	-0.706045	-0.285766
65183	9.474857	0.363879	-3.126122	0.378414	0.178199	0.162432	0.510760	-0.398537	-0.706125	-0.285798
65184	9.507854	0.264918	-3.172316	0.311608	0.100762	0.208580	0.510701	-0.398920	-0.705918	-0.285881
65185	9.424373	0.173041	-3.168971	0.251241	0.033390	0.128484	0.510942	-0.399409	-0.705430	-0.285970
65186	9.325828	0.108458	-3.165443	0.222306	-0.025643	0.033772	0.511362	-0.399974	-0.704774	-0.286048
65187	9.254047	-0.099741	-3.108665	0.043397	-0.109432	-0.050656	0.511835	-0.400506	-0.704127	-0.286049
65188	9.427286	-0.286348	-3.089411	-0.136640	-0.147387	0.110002	0.512338	-0.400888	-0.703556	-0.286020
65189	9.414483	-0.386731	-3.032428	-0.234744	-0.161479	0.081578	0.512933	-0.400962	-0.703084	-0.286011
65190	9.326035	-0.443406	-2.980599	-0.283535	-0.180100	-0.017655	0.513596	-0.400711	-0.702761	-0.285967
65191	9.237109	-0.340237	-2.926100	-0.199745	-0.115328	-0.119969	0.514229	-0.400144	-0.702662	-0.285864
65192	9.082394	-0.112676	-2.844595	-0.018916	0.019299	-0.294622	0.514671	-0.399418	-0.702786	-0.285781
65193	9.120761	0.064907	-2.803784	0.105370	0.149221	-0.272230	0.514811	-0.398818	-0.703055	-0.285704
65194	9.190761	0.145471	-2.812090	0.163641	0.199478	-0.203706	0.514787	-0.398407	-0.703336	-0.285631
65195	9.276351	0.172177	-2.822764	0.174135	0.229415	-0.119113	0.514554	-0.398370	-0.703585	-0.285489
65196	9.325005	0.102036	-2.928718	0.155153	0.126268	-0.040099	0.514184	-0.398638	-0.703774	-0.285315
65197	9.330808	-0.006386	-2.938695	0.064626	0.073952	-0.030546	0.513785	-0.399153	-0.703890	-0.285028
65198	9.381649	-0.096393	-3.019306	0.018915	-0.012183	0.043291	0.513373	-0.399699	-0.703995	-0.284745
65199	9.387904	-0.147237	-3.089038	0.008298	-0.081372	0.071132	0.513045	-0.400162	-0.704075	-0.284489
65200	9.400674	-0.143750	-3.087251	0.007747	-0.064926	0.082775	0.512814	-0.400495	-0.704136	-0.284286
65201	9.471612	-0.094898	-3.171325	0.081241	-0.081474	0.175531	0.512704	-0.400708	-0.704155	-0.284137
65202	9.515656	-0.138723	-3.182739	0.045300	-0.099207	0.221498	0.512826	-0.400810	-0.704035	-0.284068
65203	9.552012	-0.173994	-3.182738	0.015680	-0.108485	0.256523	0.513164	-0.400851	-0.703788	-0.284014
65204	9.350288	-0.176001	-3.070980	-0.002440	-0.079229	0.030253	0.513745	-0.400735	-0.703409	-0.284066
65205	9.242938	-0.210482	-3.007501	-0.037277	-0.083485	-0.090913	0.514323	-0.400517	-0.703091	-0.284114
65206	9.221534	-0.199559	-2.950042	-0.045500	-0.044972	-0.128930	0.514798	-0.400242	-0.702905	-0.284102
65207	9.168992	-0.077033	-2.867871	0.030863	0.066883	-0.205627	0.515084	-0.400033	-0.702859	-0.283991
65208	9.230320	0.026494	-2.865354	0.111308	0.137483	-0.149434	0.515178	-0.399906	-0.702917	-0.283858
65209	9.270327	0.054533	-2.849171	0.121274	0.177584	-0.116633	0.515110	-0.399946	-0.702986	-0.283753
65210	9.438174	-0.010486	-2.990854	0.112360	0.076805	0.087106	0.514985	-0.400135	-0.703013	-0.283646
65211	9.509234	-0.021283	-3.012646	0.104734	0.076581	0.161539	0.514950	-0.400391	-0.702933	-0.283548
65212	9.366160	-0.053706	-2.979494	0.084559	0.050946	0.015613	0.514964	-0.400633	-0.702790	-0.283533
65213	9.349087	-0.175555	-3.034297	0.013675	-0.060024	0.017848	0.514994	-0.400801	-0.702673	-0.283534
65214	9.447014	-0.226603	-3.053376	-0.031776	-0.076148	0.117757	0.515127	-0.400855	-0.702562	-0.283491
65215	9.435115	-0.193445	-3.022616	-0.011452	-0.037556	0.096575	0.515422	-0.400891	-0.702390	-0.283328
65216	9.348064	-0.084772	-2.943492	0.061355	0.058288	-0.012153	0.515796	-0.400821	-0.702205	-0.283205
65217	9.205476	-0.013898	-2.890514	0.122031	0.096741	-0.165315	0.516090	-0.400760	-0.702026	-0.283200
65218	9.241870	-0.046241	-2.889627	0.092600	0.086377	-0.130322	0.516235	-0.400715	-0.701895	-0.283323
65219	9.380598	-0.044067	-2.886249	0.074881	0.122553	0.000944	0.516340	-0.400707	-0.701737	-0.283536
65220	9.332802	-0.091021	-2.847771	0.023683	0.113019	-0.055334	0.516403	-0.400814	-0.701552	-0.283728
65221	9.322026	-0.150510	-2.878570	-0.007860	0.051171	-0.055316	0.516486	-0.400898	-0.701394	-0.283847
65222	9.331847	-0.141656	-2.879512	0.001119	0.056332	-0.045813	0.516549	-0.400998	-0.701285	-0.283861
65223	9.384999	-0.132078	-2.886208	0.007415	0.070031	0.006726	0.516591	-0.401091	-0.701206	-0.283848
65224	9.388935	-0.169594	-2.858863	-0.036426	0.074332	0.002969	0.516666	-0.401167	-0.701133	-0.283784
65225	9.408078	-0.192059	-2.869545	-0.050715	0.059644	0.024842	0.516738	-0.401231	-0.701075	-0.283708
65226	9.355239	-0.187443	-2.857880	-0.042336	0.058286	-0.029134	0.516853	-0.401262	-0.701012	-0.283608
65227	9.293095	-0.173134	-2.839948	-0.027222	0.063516	-0.094040	0.517003	-0.401221	-0.700965	-0.283510
65228	9.358210	-0.119884	-2.862892	0.023112	0.089670	-0.026062	0.517100	-0.401159	-0.700969	-0.283409
65229	9.377201	-0.106793	-2.819947	0.012411	0.136368	-0.021025	0.517219	-0.401142	-0.700927	-0.283321
65230	9.405822	-0.138967	-2.836292	-0.007635	0.114512	0.011781	0.517329	-0.401221	-0.700851	-0.283198
65231	9.393424	-0.125616	-2.810821	-0.004518	0.140046	-0.007930	0.517382	-0.401357	-0.700753	-0.283148
65232	9.362461	-0.148088	-2.830212	-0.006914	0.105324	-0.031248	0.517406	-0.401506	-0.700657	-0.283134
65233	9.341215	-0.220571	-2.861216	-0.048544	0.038221	-0.040805	0.517374	-0.401681	-0.700576	-0.283142
65234	9.318059	-0.107073	-2.868254	0.055771	0.086548	-0.063125	0.517297	-0.401849	-0.700502	-0.283228
65235	9.327754	0.532116	-2.726282	0.528623	0.537120	-0.109347	0.517088	-0.402219	-0.700318	-0.283541
65236	9.420696	2.031922	-2.492093	1.677612	1.526033	-0.120134	0.516233	-0.403508	-0.699622	-0.284982
65237	9.559689	3.283903	-2.303488	2.640808	2.338477	-0.064083	0.514151	-0.407044	-0.697676	-0.288466
65238	9.516774	3.791105	-2.378540	3.141890	2.470464	-0.085213	0.510646	-0.413817	-0.693870	-0.294176
65239	9.359531	4.130789	-2.565149	3.594640	2.354297	-0.180509	0.505500	-0.424489	-0.687831	-0.301941
65240	9.570681	3.754011	-3.025284	3.505470	1.734350	0.164524	0.498915	-0.438884	-0.679192	-0.311710
65241	9.311757	2.924463	-3.563503	3.062307	0.712344	0.090489	0.490993	-0.456135	-0.668056	-0.323371
65242	9.217929	1.718535	-4.151417	2.188198	-0.414942	0.197126	0.482041	-0.475009	-0.654898	-0.336321
65243	8.789908	1.382298	-4.411907	1.959323	-0.998324	-0.127583	0.472104	-0.494560	-0.640216	-0.350218
65244	8.856573	0.677117	-4.648661	1.269591	-1.484755	0.020414	0.461216	-0.514167	-0.624427	-0.364695
65245	9.067719	-0.044064	-4.824490	0.493262	-1.799201	0.287790	0.449993	-0.533352	-0.607634	-0.379240
65246	9.047885	-0.745884	-4.900183	-0.298861	-2.004243	0.302896	0.439006	-0.551673	-0.590077	-0.393370
65247	8.609661	-0.730359	-4.750353	-0.400744	-1.995526	-0.164786	0.428308	-0.568968	-0.572217	-0.406688
65248	8.633252	-0.629121	-4.592587	-0.398385	-1.837009	-0.195683	0.417551	-0.585372	-0.554337	-0.419168
65249	8.916740	-0.445531	-4.416100	-0.281362	-1.596562	0.014829	0.406663	-0.600840	-0.536400	-0.431151
65250	9.327135	-0.862548	-4.425780	-0.748009	-1.451791	0.417627	0.395708	-0.615181	-0.518390	-0.442989
65251	9.186609	-1.365593	-4.332998	-1.308659	-1.314733	0.266601	0.385347	-0.628205	-0.500474	-0.454304
65252	9.027290	-1.147787	-4.013965	-1.101956	-1.086588	0.012086	0.375682	-0.640006	-0.482877	-0.464849
65253	8.939765	-1.006470	-3.719353	-0.943187	-0.872883	-0.163110	0.366378	-0.650772	-0.465536	-0.474910
65254	8.920572	-1.262128	-3.594440	-1.183668	-0.693561	-0.210217	0.357299	-0.660556	-0.448657	-0.484468
65255	8.858744	-1.411586	-3.481680	-1.316139	-0.554180	-0.296771	0.348650	-0.669516	-0.432449	-0.493132
65256	9.364187	-1.432854	-3.440366	-1.260757	-0.391266	0.179039	0.340360	-0.677747	-0.416876	-0.501027
65257	9.399560	-1.715492	-3.276085	-1.447824	-0.123451	0.183108	0.332808	-0.684890	-0.401990	-0.508496
65258	9.223970	-1.791402	-3.065705	-1.446543	0.050754	-0.035458	0.325994	-0.691110	-0.388075	-0.515260
65259	9.463651	-1.929541	-2.922836	-1.449304	0.274911	0.169831	0.319934	-0.696455	-0.375246	-0.521328
65260	9.547205	-1.917841	-2.719858	-1.309699	0.435362	0.203296	0.314708	-0.700890	-0.363523	-0.526844
65261	9.372449	-2.061940	-2.532251	-1.348908	0.612403	0.001181	0.310204	-0.704567	-0.353019	-0.531729
65262	9.272892	-2.097775	-2.333728	-1.274390	0.753456	-0.135827	0.306333	-0.707510	-0.343946	-0.535996
65263	9.155459	-2.087790	-2.247069	-1.226553	0.778684	-0.267018	0.302847	-0.709927	-0.336382	-0.539568
65264	9.442121	-2.090585	-2.221682	-1.149638	0.826879	0.008445	0.299952	-0.711844	-0.330354	-0.542377
65265	9.496948	-1.787932	-2.059402	-0.796833	0.766020	0.006076	0.297734	-0.713253	-0.325540	-0.544655
65266	9.403797	-1.367037	-1.957620	-0.420654	0.561282	-0.135887	0.295740	-0.714264	-0.321751	-0.546664
65267	9.459690	-1.188908	-1.967855	-0.280090	0.438801	-0.091542	0.293789	-0.715127	-0.318639	-0.548407
65268	9.577111	-1.068542	-2.018129	-0.198849	0.331814	0.025302	0.292015	-0.715929	-0.315927	-0.549876
65269	9.594460	-0.902006	-2.073264	-0.102994	0.179414	0.042408	0.290496	-0.716721	-0.313394	-0.551096
65270	9.551160	-0.581237	-1.989433	0.184376	0.026066	-0.041011	0.289032	-0.717480	-0.310859	-0.552313
65271	9.619175	-0.448888	-2.018447	0.275455	-0.082092	0.022023	0.287150	-0.718273	-0.308154	-0.553778
65272	9.828608	-0.722492	-2.153850	0.013413	0.006153	0.275046	0.285142	-0.719029	-0.305191	-0.555473
65273	9.693291	-0.958958	-2.195491	-0.229723	0.099673	0.169143	0.283412	-0.719598	-0.302193	-0.557258
65274	9.383116	-1.023343	-2.072284	-0.271256	0.183970	-0.154685	0.281997	-0.720058	-0.299468	-0.558851
65275	9.499219	-0.957111	-1.980877	-0.150071	0.207326	-0.065402	0.280794	-0.720434	-0.297134	-0.560215
65276	9.560701	-1.012212	-1.955155	-0.171379	0.256313	-0.006612	0.279815	-0.720656	-0.295170	-0.561456
65277	9.593547	-1.126465	-2.000568	-0.287026	0.289448	0.043334	0.279226	-0.720739	-0.293648	-0.562440
65278	9.517836	-1.006033	-1.889484	-0.147092	0.269047	-0.061923	0.279120	-0.720643	-0.292553	-0.563186
65279	9.398882	-0.705222	-1.824234	0.090067	0.088830	-0.213305	0.279217	-0.720518	-0.291713	-0.563733
65280	9.464869	-0.552408	-1.795998	0.229139	0.002347	-0.165823	0.279002	-0.720468	-0.290980	-0.564282
65281	9.619868	-0.712976	-1.953890	0.032676	0.002099	0.029406	0.278665	-0.720494	-0.290229	-0.564802
65282	9.601919	-0.860175	-2.004287	-0.116132	0.055253	0.032991	0.278456	-0.720501	-0.289489	-0.565276
65283	9.497316	-0.700633	-1.922435	0.031692	-0.010767	-0.097517	0.278400	-0.720491	-0.288823	-0.565657
65284	9.631211	-0.648103	-1.912031	0.100606	-0.034597	0.027272	0.278345	-0.720510	-0.288115	-0.566021
65285	9.712499	-0.665632	-1.934883	0.086163	-0.041360	0.112550	0.278259	-0.720504	-0.287342	-0.566463
65286	9.614086	-0.836715	-1.969623	-0.083094	0.029015	0.036292	0.278243	-0.720470	-0.286553	-0.566914
65287	9.395492	-0.754695	-1.911671	-0.027134	-0.015566	-0.195082	0.278357	-0.720503	-0.285826	-0.567182
65288	9.430944	-0.725042	-1.865025	0.034623	-0.007722	-0.171866	0.278446	-0.720656	-0.285190	-0.567264
65289	9.707161	-0.777775	-1.928484	0.012428	-0.000567	0.114688	0.278540	-0.720876	-0.284571	-0.567251
65290	9.738373	-0.848401	-1.953095	-0.044151	0.024098	0.155649	0.278718	-0.720957	-0.283982	-0.567355
65291	9.532355	-0.911952	-1.878428	-0.077674	0.093561	-0.055068	0.279007	-0.720942	-0.283488	-0.567478
65292	9.623479	-0.884579	-1.880215	-0.039656	0.071241	0.032229	0.279356	-0.720854	-0.283098	-0.567613
65293	9.747757	-1.074319	-1.967790	-0.211555	0.135367	0.186414	0.279901	-0.720605	-0.282840	-0.567791
65294	9.597291	-1.061329	-1.907291	-0.191685	0.143389	0.026767	0.280705	-0.720259	-0.282710	-0.567896
65295	9.488630	-0.950488	-1.804464	-0.063898	0.118842	-0.108287	0.281612	-0.719895	-0.282708	-0.567910
65296	9.498527	-0.929782	-1.790657	-0.037293	0.102333	-0.102842	0.282446	-0.719547	-0.282842	-0.567870
65297	9.595898	-1.006434	-1.796141	-0.078175	0.146926	0.000191	0.283254	-0.719187	-0.283077	-0.567806
65298	9.605658	-0.984317	-1.783719	-0.051581	0.130418	0.005638	0.284189	-0.718811	-0.283298	-0.567706
65299	9.486541	-0.899138	-1.763897	0.002767	0.065572	-0.121975	0.285203	-0.718446	-0.283546	-0.567535
65300	9.435795	-0.786183	-1.696626	0.123043	0.023783	-0.194208	0.286086	-0.718192	-0.283745	-0.567314
65301	9.593863	-0.939040	-1.744504	0.013541	0.095187	-0.016869	0.286699	-0.718044	-0.283889	-0.567119
65302	9.676504	-1.067816	-1.796135	-0.096079	0.142359	0.085371	0.287302	-0.717853	-0.283961	-0.567020
65303	9.652684	-1.114020	-1.823989	-0.149964	0.141259	0.071635	0.288044	-0.717649	-0.283980	-0.566891
65304	9.502049	-1.033953	-1.738292	-0.061823	0.129453	-0.098828	0.288676	-0.717431	-0.284027	-0.566823
65305	9.630913	-1.184361	-1.769048	-0.167623	0.209443	0.047067	0.289140	-0.717190	-0.284213	-0.566798
65306	9.653943	-1.246981	-1.777074	-0.217657	0.241164	0.077006	0.289620	-0.716798	-0.284560	-0.566874
65307	9.580180	-1.113933	-1.729206	-0.107318	0.176479	-0.016352	0.290213	-0.716365	-0.285011	-0.566891
65308	9.547201	-0.977448	-1.688777	0.008715	0.108952	-0.068742	0.290683	-0.715962	-0.285574	-0.566878
65309	9.558366	-1.104819	-1.664133	-0.072926	0.211985	-0.050410	0.291022	-0.715606	-0.286258	-0.566807
65310	9.514621	-1.171339	-1.707579	-0.163700	0.222067	-0.079252	0.291445	-0.715215	-0.287137	-0.566639
65311	9.435917	-1.168397	-1.675798	-0.159721	0.241194	-0.162491	0.291977	-0.714864	-0.288239	-0.566248
65312	9.494481	-1.164461	-1.708277	-0.168175	0.224437	-0.099774	0.292636	-0.714488	-0.289634	-0.565671
65313	9.511378	-1.194222	-1.752679	-0.216366	0.220350	-0.072616	0.293364	-0.714081	-0.291358	-0.564921
65314	9.544652	-1.391038	-1.822759	-0.402290	0.308428	-0.009583	0.294430	-0.713564	-0.293442	-0.563941
65315	9.437480	-1.594953	-1.850171	-0.591865	0.419368	-0.091224	0.296015	-0.712891	-0.296075	-0.562584
65316	9.173961	-2.042583	-1.892547	-1.003280	0.660592	-0.300985	0.298193	-0.712105	-0.299645	-0.560536
65317	9.254922	-2.493559	-1.947925	-1.361997	0.920479	-0.170930	0.301146	-0.711002	-0.304750	-0.557597
65318	9.264470	-2.718772	-2.043415	-1.591967	0.995177	-0.123883	0.305101	-0.709165	-0.311759	-0.553900
65319	9.030331	-2.096748	-1.910633	-1.077341	0.703891	-0.435183	0.309683	-0.706529	-0.320677	-0.549617
65320	9.321290	-1.405328	-1.953900	-0.510255	0.319939	-0.204556	0.313898	-0.703359	-0.330965	-0.545176
65321	9.363690	-1.270338	-2.118020	-0.501586	0.165805	-0.143194	0.317923	-0.699894	-0.341785	-0.540607
65322	9.475884	-1.354560	-2.321504	-0.674821	0.114890	0.013185	0.322208	-0.696355	-0.352797	-0.535544
65323	9.507381	-0.898956	-2.372820	-0.317987	-0.112920	0.021667	0.326899	-0.692662	-0.363930	-0.530011
65324	9.392537	-0.097309	-2.151899	0.459205	-0.289433	-0.191631	0.331394	-0.688896	-0.374918	-0.524439
65325	9.485103	0.450838	-2.146931	0.955255	-0.453284	-0.134827	0.334943	-0.685257	-0.385427	-0.519310
65326	9.557192	0.268962	-2.245623	0.756989	-0.345631	-0.026887	0.337558	-0.681782	-0.395174	-0.514845
65327	9.473617	-0.163328	-2.391847	0.283270	-0.206971	-0.046755	0.339763	-0.678556	-0.404176	-0.510651
65328	9.437031	-0.166664	-2.472955	0.229561	-0.208565	-0.060549	0.341985	-0.675531	-0.412630	-0.506399
65329	9.494223	0.062456	-2.542500	0.412972	-0.281472	0.003536	0.344165	-0.672743	-0.420575	-0.502079
65330	9.408007	0.314693	-2.485980	0.654436	-0.278178	-0.102713	0.346329	-0.670153	-0.428009	-0.497755
65331	9.353621	0.466637	-2.509860	0.785003	-0.297075	-0.153369	0.348337	-0.667882	-0.434914	-0.493401
65332	9.601781	0.371831	-2.599323	0.711664	-0.213021	0.113877	0.350390	-0.665922	-0.441153	-0.489038
65333	9.594941	-0.010695	-2.780571	0.314381	-0.178493	0.170477	0.352789	-0.664165	-0.446767	-0.484587
65334	9.579536	-0.151880	-2.882405	0.179060	-0.175019	0.189105	0.355620	-0.662527	-0.452011	-0.479874
65335	9.523297	-0.028160	-2.868730	0.332281	-0.173744	0.126261	0.358673	-0.660909	-0.456922	-0.475157
65336	9.506619	0.055170	-2.850930	0.454588	-0.146929	0.100846	0.361509	-0.659371	-0.461468	-0.470732
65337	9.579464	-0.171852	-2.869227	0.278198	-0.036603	0.184773	0.364052	-0.657837	-0.465675	-0.466759
65338	9.612763	-0.301862	-2.906544	0.178173	0.008491	0.232827	0.366560	-0.656242	-0.469614	-0.463080
65339	9.476716	-0.154525	-2.868627	0.338246	-0.007336	0.084103	0.368930	-0.654646	-0.473370	-0.459620
65340	9.424401	-0.157818	-2.860024	0.354542	0.015772	0.030987	0.371024	-0.653184	-0.476945	-0.456307
65341	9.633659	-0.133313	-2.915810	0.414084	0.044966	0.244822	0.372930	-0.651883	-0.480167	-0.453223
65342	9.664943	-0.319457	-2.972419	0.247700	0.073702	0.300749	0.374818	-0.650663	-0.482968	-0.450434
65343	9.664867	-0.408059	-2.993507	0.178501	0.093205	0.311376	0.376748	-0.649395	-0.485466	-0.447962
65344	9.480696	-0.455107	-2.959890	0.136462	0.092864	0.128358	0.378750	-0.648093	-0.487699	-0.445728
65345	9.406776	-0.442860	-2.971928	0.154296	0.062989	0.060920	0.380679	-0.646755	-0.489795	-0.443727
65346	9.316623	-0.375011	-2.924259	0.233254	0.069388	-0.043750	0.382448	-0.645477	-0.491687	-0.441970
65347	9.324284	-0.435991	-2.974710	0.177861	0.040302	-0.017383	0.384016	-0.644321	-0.493352	-0.440438
65348	9.375609	-0.546412	-3.008051	0.082473	0.048049	0.048339	0.385503	-0.643314	-0.494706	-0.439091
65349	9.438703	-0.700632	-3.047546	-0.053726	0.058250	0.130211	0.387094	-0.642371	-0.495803	-0.437833
65350	9.428064	-0.611950	-3.047404	0.047744	0.029099	0.114366	0.388827	-0.641469	-0.496631	-0.436679
65351	9.278843	-0.631408	-2.967147	0.040730	0.053282	-0.050770	0.390504	-0.640627	-0.497272	-0.435689
65352	9.220393	-0.686225	-2.978964	-0.007287	0.024204	-0.098774	0.391993	-0.639816	-0.497888	-0.434839
65353	9.217896	-0.730595	-2.958169	-0.035729	0.041033	-0.104384	0.393276	-0.639065	-0.498483	-0.434103
65354	9.214255	-0.714189	-2.988951	-0.016176	-0.000297	-0.099494	0.394310	-0.638364	-0.499105	-0.433481
65355	9.292782	-0.715805	-3.012702	-0.006048	-0.005954	-0.017562	0.395133	-0.637726	-0.499672	-0.433015
65356	9.355416	-0.609426	-2.968782	0.115374	0.028054	0.020663	0.395749	-0.637179	-0.500094	-0.432772
65357	9.323434	-0.636023	-3.029688	0.074942	-0.039584	0.010895	0.396087	-0.636719	-0.500353	-0.432840
65358	9.398568	-0.747385	-3.028965	-0.029236	-0.003504	0.090111	0.396285	-0.636334	-0.500488	-0.433069
65359	9.416238	-0.755851	-3.043360	-0.043493	-0.017984	0.111861	0.396423	-0.635982	-0.500484	-0.433466
65360	9.353543	-0.669209	-3.045917	0.027047	-0.063083	0.046800	0.396553	-0.635681	-0.500359	-0.433932
65361	9.200779	-0.620131	-3.030707	0.052127	-0.110070	-0.106543	0.396539	-0.635450	-0.500217	-0.434445
65362	9.157050	-0.611704	-2.998768	0.052370	-0.100100	-0.158383	0.396341	-0.635352	-0.500068	-0.434941
65363	9.212572	-0.614385	-3.031063	0.043640	-0.117364	-0.095661	0.396012	-0.635352	-0.499912	-0.435421
65364	9.180966	-0.608273	-3.088918	0.028387	-0.183309	-0.108712	0.395577	-0.635398	-0.499743	-0.435942
65365	9.155782	-0.546160	-3.056701	0.081565	-0.171320	-0.146559	0.394987	-0.635530	-0.499555	-0.436500
65366	9.253889	-0.503258	-3.085339	0.119462	-0.176608	-0.047362	0.394227	-0.635727	-0.499313	-0.437175
65367	9.288324	-0.550238	-3.127533	0.057749	-0.195849	0.001358	0.393360	-0.636011	-0.498932	-0.437979
65368	9.292593	-0.597158	-3.131799	-0.002464	-0.187929	0.009823	0.392392	-0.636357	-0.498469	-0.438870
65369	9.351768	-0.710063	-3.122416	-0.118561	-0.139148	0.070420	0.391491	-0.636704	-0.497958	-0.439752
65370	9.305156	-0.752985	-3.144437	-0.182171	-0.164174	0.035168	0.390752	-0.636969	-0.497505	-0.440537
65371	9.156310	-0.604184	-3.066124	-0.051894	-0.161253	-0.139246	0.390064	-0.637171	-0.497203	-0.441195
65372	9.212839	-0.495335	-3.040563	0.053393	-0.139988	-0.099587	0.389243	-0.637357	-0.497049	-0.441824
65373	9.359780	-0.559512	-3.114509	-0.019468	-0.150775	0.066359	0.388364	-0.637520	-0.496903	-0.442526
65374	9.316897	-0.586329	-3.123805	-0.066999	-0.162726	0.029849	0.387562	-0.637650	-0.496744	-0.443219
65375	9.298821	-0.502260	-3.096265	0.004699	-0.156103	-0.000308	0.386852	-0.637787	-0.496588	-0.443816
65376	9.388964	-0.452896	-3.113371	0.049157	-0.154067	0.088054	0.386214	-0.638000	-0.496335	-0.444350
65377	9.358172	-0.454770	-3.110243	0.036133	-0.158447	0.057946	0.385723	-0.638195	-0.496021	-0.444848
65378	9.372193	-0.410979	-3.061108	0.083279	-0.119196	0.054234	0.385407	-0.638360	-0.495602	-0.445350
65379	9.359069	-0.397454	-3.032819	0.095634	-0.104655	0.032516	0.385230	-0.638473	-0.495071	-0.445932
65380	9.318872	-0.478928	-3.012416	0.011537	-0.088430	-0.007717	0.385145	-0.638553	-0.494474	-0.446552
65381	9.280250	-0.572101	-2.927792	-0.070444	-0.010717	-0.065010	0.385179	-0.638628	-0.493839	-0.447117
65382	9.428242	-0.643272	-2.900651	-0.118696	0.060283	0.071724	0.385323	-0.638684	-0.493233	-0.447582
65383	9.409346	-0.624361	-2.820221	-0.086080	0.113668	0.029005	0.385661	-0.638621	-0.492648	-0.448025
65384	9.417529	-0.634103	-2.763649	-0.082518	0.156680	0.020843	0.386069	-0.638471	-0.492153	-0.448432
65385	9.361848	-0.675698	-2.772341	-0.130286	0.127550	-0.027322	0.386471	-0.638262	-0.491725	-0.448852
65386	9.366800	-0.557655	-2.722403	-0.005684	0.136396	-0.043309	0.386842	-0.638020	-0.491345	-0.449292
