// General information: 
//  MT Manager version: 2021.0.0 
//  XDA version: 2021.0.0 build 5908 rev 109668 built on 2021-04-19
// Device information: 
//  DeviceId: 00B43DFD
//  ProductCode: MTW2-3A7G6
//  Firmware Version: 4.3.5
//  Hardware Version: 1.1.0
// Device settings: 
//  Filter Profile: human(46.1)
//  Option Flags: Orientation Smoother Disabled, Position/Velocity Smoother Disabled, Continuous Zero Rotation Update Disabled, AHS Disabled, ICC Disabled
// Coordinate system: ENU
PacketCounter	Acc_X	Acc_Y	Acc_Z	FreeAcc_E	FreeAcc_N	FreeAcc_U	Quat_q0	Quat_q1	Quat_q2	Quat_q3
64468	-9.200208	-1.354515	3.757063	0.125562	0.032362	0.216120	-0.791354	-0.081292	-0.554506	0.244282
64469	-9.091664	-1.103158	3.860654	0.342229	0.125757	0.119423	-0.791144	-0.084407	-0.554312	0.244343
64470	-9.056128	-1.076669	3.932445	0.413972	0.061804	0.110086	-0.790931	-0.086654	-0.554588	0.243623
64471	-9.144258	-1.314401	3.903462	0.249488	-0.150737	0.212133	-0.790778	-0.088215	-0.555150	0.242274
64472	-9.260048	-1.501555	3.875890	0.106691	-0.307882	0.332233	-0.790708	-0.089343	-0.555656	0.240925
64473	-9.300124	-1.550216	3.891480	0.084867	-0.376758	0.379951	-0.790752	-0.090262	-0.555875	0.239933
64474	-9.262573	-1.425294	3.827672	0.094778	-0.275080	0.306261	-0.791062	-0.090893	-0.555706	0.239062
64475	-9.171260	-1.461639	3.702332	-0.017012	-0.294522	0.180740	-0.791610	-0.091203	-0.555245	0.238199
64476	-9.084515	-1.546490	3.589766	-0.145611	-0.354828	0.069586	-0.792198	-0.091386	-0.554699	0.237446
64477	-9.029623	-1.562897	3.551277	-0.187222	-0.375775	0.006275	-0.792692	-0.091695	-0.554181	0.236888
64478	-8.965694	-1.490410	3.568267	-0.134036	-0.345365	-0.055625	-0.792952	-0.092162	-0.553869	0.236563
64479	-8.953739	-1.394472	3.601136	-0.064995	-0.287741	-0.066142	-0.793068	-0.092531	-0.553797	0.236198
64480	-9.028297	-1.395573	3.612308	-0.079876	-0.282080	0.006711	-0.793195	-0.092722	-0.553813	0.235662
64481	-9.127430	-1.437302	3.673836	-0.078268	-0.324980	0.125177	-0.793417	-0.092676	-0.553806	0.234947
64482	-9.193115	-1.474838	3.665133	-0.126366	-0.341266	0.186777	-0.793800	-0.092442	-0.553595	0.234240
64483	-9.195975	-1.425409	3.604180	-0.163155	-0.271653	0.161651	-0.794301	-0.091939	-0.553208	0.233654
64484	-9.086834	-1.480971	3.483064	-0.269129	-0.292903	0.022826	-0.794747	-0.091107	-0.552903	0.233184
64485	-9.074869	-1.514208	3.422243	-0.337238	-0.291015	-0.006597	-0.795116	-0.090237	-0.552727	0.232680
64486	-9.099744	-1.519562	3.380843	-0.383349	-0.263607	0.001999	-0.795384	-0.089460	-0.552627	0.232304
64487	-9.169733	-1.537868	3.397057	-0.398181	-0.257850	0.074881	-0.795589	-0.088659	-0.552540	0.232115
64488	-9.156480	-1.431266	3.366729	-0.370184	-0.144537	0.039549	-0.795764	-0.087935	-0.552407	0.232107
64489	-9.147332	-1.394155	3.377990	-0.339953	-0.106765	0.031153	-0.795865	-0.087147	-0.552374	0.232135
64490	-9.119269	-1.462245	3.377120	-0.361218	-0.162012	0.013167	-0.795856	-0.086444	-0.552481	0.232175
64491	-9.116672	-1.406460	3.409134	-0.301399	-0.116593	0.016330	-0.795758	-0.085835	-0.552675	0.232276
64492	-9.104803	-1.401221	3.418421	-0.278564	-0.107254	0.008582	-0.795586	-0.084913	-0.553008	0.232412
64493	-9.120982	-1.400314	3.378921	-0.302419	-0.070583	0.009421	-0.795362	-0.083715	-0.553448	0.232565
64494	-9.140285	-1.386046	3.351297	-0.309714	-0.022717	0.015875	-0.795166	-0.082438	-0.553816	0.232816
64495	-9.106658	-1.409831	3.320989	-0.323950	-0.019738	-0.022772	-0.794979	-0.081219	-0.554076	0.233264
64496	-9.041680	-1.432506	3.264270	-0.352226	-0.013848	-0.100056	-0.794680	-0.080324	-0.554304	0.234049
64497	-9.026911	-1.368598	3.294493	-0.282958	0.043948	-0.110634	-0.794321	-0.080047	-0.554416	0.235094
64498	-9.074970	-1.217115	3.335918	-0.183164	0.185817	-0.071193	-0.793907	-0.080287	-0.554455	0.236316
64499	-9.063313	-1.159318	3.440617	-0.056442	0.199275	-0.051407	-0.793328	-0.080688	-0.554674	0.237607
64500	-9.081710	-1.041694	3.557587	0.105506	0.265115	-0.007710	-0.792653	-0.081015	-0.555156	0.238621
64501	-9.135725	-1.034763	3.598763	0.144762	0.272101	0.055863	-0.792094	-0.081069	-0.555710	0.239168
64502	-9.147489	-1.156478	3.637745	0.131319	0.155505	0.097194	-0.791731	-0.080889	-0.556165	0.239374
64503	-9.060912	-1.339825	3.491396	-0.047154	0.032552	-0.010554	-0.791538	-0.080790	-0.556333	0.239652
64504	-9.011756	-1.309470	3.545065	0.032128	0.026967	-0.040677	-0.791142	-0.080981	-0.556548	0.240397
64505	-8.989153	-1.245033	3.645491	0.164977	0.038435	-0.034350	-0.790440	-0.081316	-0.557086	0.241344
64506	-9.164959	-1.167362	3.706703	0.225720	0.133280	0.138700	-0.789691	-0.081575	-0.557719	0.242245
64507	-9.246557	-1.169849	3.732156	0.240729	0.146989	0.223088	-0.789187	-0.081669	-0.558092	0.242996
64508	-9.179287	-1.268223	3.661275	0.158302	0.076044	0.149330	-0.788987	-0.081775	-0.558037	0.243734
64509	-9.030566	-1.248676	3.628760	0.176200	0.067634	-0.002356	-0.788903	-0.082251	-0.557695	0.244627
64510	-8.914543	-1.149393	3.625643	0.246092	0.122558	-0.124556	-0.788696	-0.083080	-0.557397	0.245693
64511	-8.879209	-1.054873	3.732868	0.387741	0.146785	-0.132010	-0.788364	-0.084099	-0.557271	0.246694
64512	-8.930156	-0.969849	3.787304	0.460134	0.204868	-0.077275	-0.788129	-0.085095	-0.557161	0.247353
64513	-8.932361	-1.022870	3.784470	0.427176	0.153531	-0.068484	-0.788122	-0.085760	-0.556946	0.247629
64514	-8.963580	-1.135815	3.748953	0.327642	0.074325	-0.036307	-0.788298	-0.086140	-0.556655	0.247593
64515	-8.989905	-1.193327	3.690346	0.235143	0.052726	-0.024786	-0.788560	-0.086344	-0.556332	0.247412
64516	-9.040805	-1.078923	3.686373	0.266191	0.166669	0.005201	-0.788876	-0.086234	-0.556038	0.247103
64517	-9.049083	-1.138801	3.553574	0.118347	0.173966	-0.026657	-0.789160	-0.085803	-0.555939	0.246571
64518	-9.105897	-1.271591	3.488315	-0.018489	0.104467	0.020491	-0.789434	-0.085330	-0.555900	0.245944
64519	-9.144886	-1.344159	3.397357	-0.142369	0.090850	0.033592	-0.789626	-0.085110	-0.555834	0.245552
64520	-9.128211	-1.276737	3.404189	-0.102842	0.140707	0.011386	-0.789739	-0.085152	-0.555728	0.245413
64521	-9.101664	-1.186976	3.422857	-0.041286	0.199592	-0.018628	-0.789847	-0.085449	-0.555575	0.245308
64522	-9.019110	-1.211371	3.408879	-0.048867	0.155023	-0.096423	-0.789966	-0.085850	-0.555408	0.245165
64523	-8.942761	-1.206173	3.388347	-0.049974	0.138521	-0.174896	-0.790058	-0.086303	-0.555277	0.245004
64524	-8.910985	-1.216504	3.409504	-0.032596	0.103734	-0.195077	-0.790051	-0.086701	-0.555309	0.244814
64525	-8.909042	-1.234501	3.425852	-0.026576	0.072038	-0.188469	-0.789971	-0.086933	-0.555557	0.244428
64526	-9.000303	-1.249414	3.476013	-0.011267	0.055342	-0.084072	-0.789900	-0.087006	-0.555903	0.243846
64527	-9.124208	-1.295268	3.411222	-0.117408	0.069923	0.013128	-0.790035	-0.086910	-0.556043	0.243120
64528	-9.163818	-1.373237	3.335092	-0.231528	0.039136	0.032567	-0.790342	-0.086759	-0.555936	0.242419
64529	-9.111842	-1.376312	3.241167	-0.304920	0.055875	-0.049032	-0.790646	-0.086757	-0.555731	0.241898
64530	-9.054416	-1.284544	3.231210	-0.258270	0.117861	-0.117708	-0.790671	-0.086913	-0.555822	0.241553
64531	-9.093292	-1.187321	3.263165	-0.189842	0.192103	-0.082683	-0.790410	-0.086995	-0.556378	0.241095
64532	-9.124777	-1.272085	3.217419	-0.263476	0.135642	-0.058525	-0.790035	-0.086871	-0.557250	0.240357
64533	-9.114671	-1.430774	3.215988	-0.321823	-0.015513	-0.047285	-0.789661	-0.086805	-0.558089	0.239659
64534	-9.113889	-1.542586	3.221659	-0.356174	-0.127154	-0.031145	-0.789286	-0.087107	-0.558736	0.239276
64535	-9.132895	-1.490555	3.288870	-0.270716	-0.117698	0.003678	-0.788922	-0.087909	-0.559125	0.239277
64536	-9.098507	-1.330443	3.373819	-0.109004	-0.039126	-0.018703	-0.788554	-0.088981	-0.559415	0.239417
64537	-9.105684	-1.248339	3.409715	-0.035858	0.003423	-0.009796	-0.788154	-0.089868	-0.559815	0.239465
64538	-9.142969	-1.246146	3.456705	0.002008	-0.020388	0.040998	-0.787843	-0.090516	-0.560287	0.239143
64539	-9.195612	-1.311701	3.485832	-0.012349	-0.090665	0.108123	-0.787664	-0.090977	-0.560684	0.238625
64540	-9.260158	-1.366298	3.438978	-0.090571	-0.114794	0.158395	-0.787603	-0.091279	-0.560950	0.238085
64541	-9.279303	-1.425450	3.414316	-0.141286	-0.162016	0.174740	-0.787536	-0.091510	-0.561193	0.237645
64542	-9.220828	-1.424514	3.401217	-0.134382	-0.180268	0.115587	-0.787410	-0.091794	-0.561410	0.237440
64543	-9.171721	-1.388585	3.424395	-0.081470	-0.179437	0.073478	-0.787179	-0.092156	-0.561683	0.237419
64544	-9.163690	-1.308860	3.478158	0.010137	-0.142140	0.074860	-0.786874	-0.092510	-0.562036	0.237459
64545	-9.136587	-1.331335	3.537796	0.063360	-0.200906	0.072720	-0.786577	-0.092856	-0.562374	0.237508
64546	-9.153611	-1.282676	3.610369	0.149300	-0.191944	0.107468	-0.786314	-0.093304	-0.562625	0.237608
64547	-9.200963	-1.224901	3.680817	0.227043	-0.164729	0.168686	-0.786203	-0.093647	-0.562682	0.237705
64548	-9.209174	-1.178185	3.671759	0.238491	-0.122023	0.167646	-0.786286	-0.093832	-0.562552	0.237667
64549	-9.134898	-1.229864	3.634222	0.194690	-0.172602	0.091796	-0.786489	-0.093965	-0.562280	0.237588
64550	-9.108765	-1.271555	3.620078	0.164457	-0.210987	0.067589	-0.786531	-0.094106	-0.562147	0.237707
64551	-9.159428	-1.227717	3.593407	0.150078	-0.145618	0.100498	-0.786404	-0.094086	-0.562136	0.238158
64552	-9.127875	-1.086537	3.614121	0.244539	-0.034149	0.061499	-0.786346	-0.093951	-0.562066	0.238569
64553	-9.099561	-1.063971	3.584291	0.237731	-0.003389	0.022182	-0.786399	-0.093712	-0.561946	0.238770
64554	-9.074724	-1.099838	3.567577	0.210664	-0.026779	-0.002347	-0.786518	-0.093440	-0.561752	0.238943
64555	-9.111048	-1.052804	3.559428	0.214474	0.033731	0.023063	-0.786633	-0.093258	-0.561541	0.239129
64556	-9.113833	-1.020042	3.526147	0.200335	0.082992	0.010200	-0.786673	-0.092975	-0.561480	0.239251
64557	-9.177841	-1.001363	3.547731	0.211654	0.112183	0.074906	-0.786764	-0.092615	-0.561492	0.239063
64558	-9.213940	-1.098896	3.491066	0.106121	0.064458	0.100757	-0.787024	-0.092228	-0.561354	0.238681
64559	-9.225431	-1.228426	3.401520	-0.040008	-0.003985	0.096214	-0.787362	-0.091897	-0.561055	0.238397
64560	-9.184086	-1.316907	3.311952	-0.156585	-0.050900	0.037368	-0.787693	-0.091865	-0.560600	0.238386
64561	-9.136719	-1.240448	3.341349	-0.092856	-0.007785	-0.005840	-0.787873	-0.092147	-0.560192	0.238640
64562	-9.069354	-1.117204	3.360010	-0.006736	0.074373	-0.076908	-0.787879	-0.092324	-0.560021	0.238957
64563	-9.055328	-1.111251	3.377923	0.012740	0.069400	-0.084418	-0.787900	-0.092341	-0.559964	0.239012
64564	-9.144408	-1.178252	3.355669	-0.063288	0.046364	-0.001325	-0.788012	-0.092300	-0.559795	0.239056
64565	-9.137285	-1.205262	3.367379	-0.070669	0.018178	-0.000627	-0.788223	-0.092355	-0.559438	0.239174
64566	-9.090258	-1.188865	3.331654	-0.089775	0.036905	-0.058884	-0.788441	-0.092556	-0.558998	0.239408
64567	-9.088202	-1.117203	3.370023	-0.030344	0.082538	-0.056004	-0.788575	-0.092840	-0.558718	0.239508
64568	-9.203472	-1.064221	3.413655	-0.002968	0.138850	0.060013	-0.788671	-0.093017	-0.558594	0.239414
64569	-9.220195	-1.126659	3.411693	-0.041106	0.088806	0.082334	-0.788770	-0.092812	-0.558599	0.239155
64570	-9.273172	-1.290480	3.336678	-0.198254	-0.006056	0.124673	-0.788980	-0.092432	-0.558516	0.238805
64571	-9.233250	-1.314741	3.275167	-0.255432	-0.007625	0.068752	-0.789216	-0.092134	-0.558237	0.238790
64572	-9.110583	-1.289105	3.167443	-0.306907	0.032395	-0.086333	-0.789314	-0.092101	-0.557953	0.239142
64573	-8.978232	-1.199327	3.195714	-0.209118	0.064964	-0.209997	-0.789225	-0.092532	-0.557810	0.239602
64574	-8.988663	-1.104400	3.341831	-0.045150	0.084326	-0.159997	-0.789009	-0.093321	-0.557813	0.240003
64575	-9.024426	-1.107708	3.457826	0.041456	0.033908	-0.085357	-0.788764	-0.094105	-0.557891	0.240319
64576	-9.077200	-1.099394	3.570167	0.125643	-0.000821	0.002328	-0.788670	-0.094613	-0.557926	0.240346
64577	-9.143561	-1.139134	3.557594	0.076887	-0.016838	0.064185	-0.788737	-0.094702	-0.557870	0.240223
64578	-9.086382	-1.263639	3.498343	-0.019084	-0.114377	0.004852	-0.788805	-0.094372	-0.557892	0.240079
64579	-9.102870	-1.307077	3.400553	-0.124693	-0.102414	-0.009198	-0.788880	-0.093956	-0.557933	0.239899
64580	-9.149006	-1.361048	3.348301	-0.206124	-0.110806	0.021595	-0.788957	-0.093750	-0.557861	0.239894
64581	-9.163066	-1.286559	3.364738	-0.160946	-0.046288	0.031622	-0.788988	-0.093738	-0.557745	0.240066
64582	-9.159413	-1.225651	3.369548	-0.127634	0.005226	0.022688	-0.788935	-0.093823	-0.557715	0.240278
64583	-9.181484	-1.204146	3.422340	-0.076815	0.008412	0.059296	-0.788803	-0.093880	-0.557819	0.240445
64584	-9.223846	-1.225763	3.435252	-0.083854	-0.003533	0.105767	-0.788651	-0.093878	-0.557958	0.240623
64585	-9.202025	-1.268307	3.443154	-0.088497	-0.047865	0.093424	-0.788505	-0.093880	-0.558041	0.240908
64586	-9.135437	-1.304264	3.440329	-0.089431	-0.094067	0.034969	-0.788357	-0.094139	-0.558013	0.241357
64587	-9.097180	-1.207881	3.499973	0.016979	-0.046020	0.008976	-0.788196	-0.094593	-0.557899	0.241966
64588	-9.061291	-1.164378	3.526391	0.067901	-0.029327	-0.020204	-0.788073	-0.095021	-0.557735	0.242578
64589	-9.035581	-1.082106	3.603754	0.177822	0.002718	-0.026571	-0.787972	-0.095231	-0.557649	0.243020
64590	-9.145722	-1.048025	3.587789	0.153163	0.072180	0.065883	-0.787960	-0.095116	-0.557596	0.243223
64591	-9.155826	-1.052929	3.530094	0.099414	0.101023	0.055407	-0.788101	-0.094729	-0.557448	0.243259
64592	-9.103718	-1.132211	3.435049	-0.007090	0.066420	-0.017042	-0.788249	-0.094308	-0.557296	0.243291
64593	-8.982943	-1.206418	3.433623	-0.015663	-0.024419	-0.120545	-0.788268	-0.094184	-0.557238	0.243412
64594	-9.089631	-1.137212	3.499825	0.047337	0.037898	-0.006580	-0.788159	-0.094294	-0.557301	0.243577
64595	-9.155062	-1.048574	3.549608	0.117969	0.112780	0.060901	-0.788086	-0.094199	-0.557343	0.243754
64596	-9.187841	-1.089965	3.481382	0.032406	0.119896	0.072101	-0.788209	-0.093868	-0.557193	0.243827
64597	-9.089964	-1.157649	3.329215	-0.106430	0.106844	-0.064430	-0.788410	-0.093596	-0.556857	0.244048
64598	-8.919104	-1.159944	3.260877	-0.126317	0.092160	-0.246876	-0.788442	-0.093824	-0.556572	0.244506
64599	-8.909572	-1.006880	3.382537	0.050389	0.168036	-0.231192	-0.788225	-0.094532	-0.556553	0.244975
64600	-9.082565	-0.927270	3.512748	0.156628	0.221741	-0.034216	-0.787918	-0.095122	-0.556806	0.245163
64601	-9.238815	-0.995951	3.583361	0.145572	0.168662	0.144142	-0.787830	-0.095205	-0.557019	0.244928
64602	-9.308199	-1.159376	3.520326	-0.004590	0.072906	0.205999	-0.788026	-0.094847	-0.556959	0.244572
64603	-9.239526	-1.239071	3.397629	-0.132296	0.043019	0.108435	-0.788338	-0.094311	-0.556680	0.244411
64604	-9.154508	-1.175900	3.294344	-0.171147	0.125545	-0.014963	-0.788589	-0.093980	-0.556369	0.244437
64605	-9.169504	-1.074872	3.233205	-0.180336	0.248425	-0.035442	-0.788678	-0.093879	-0.556194	0.244585
64606	-9.167273	-1.003145	3.221414	-0.155679	0.317556	-0.050637	-0.788657	-0.093899	-0.556154	0.244738
64607	-9.105291	-0.996040	3.134631	-0.207295	0.344062	-0.139892	-0.788548	-0.093936	-0.556264	0.244823
64608	-9.081305	-1.057431	3.175687	-0.193695	0.264894	-0.139758	-0.788348	-0.094146	-0.556479	0.244900
64609	-9.088722	-1.050936	3.257895	-0.118521	0.231564	-0.104158	-0.788031	-0.094681	-0.556769	0.245052
64610	-9.102422	-0.952869	3.395108	0.045347	0.251290	-0.054429	-0.787731	-0.095401	-0.557009	0.245191
64611	-9.128087	-0.853075	3.472207	0.155320	0.299665	-0.015137	-0.787546	-0.096044	-0.557179	0.245149
64612	-9.133351	-0.837371	3.495970	0.181651	0.293301	-0.003403	-0.787542	-0.096454	-0.557274	0.244785
64613	-9.096514	-0.930049	3.412362	0.074451	0.228951	-0.055752	-0.787626	-0.096626	-0.557412	0.244132
64614	-9.072002	-1.047185	3.361843	-0.019567	0.131329	-0.082212	-0.787681	-0.096826	-0.557659	0.243310
64615	-9.132236	-1.193047	3.308543	-0.150550	0.030055	-0.027803	-0.787659	-0.097311	-0.557911	0.242607
64616	-9.151239	-1.265555	3.333579	-0.170383	-0.054364	0.007065	-0.787541	-0.098081	-0.558096	0.242256
64617	-9.151723	-1.215323	3.410056	-0.082492	-0.061601	0.028497	-0.787359	-0.099077	-0.558242	0.242106
64618	-9.188469	-1.127318	3.475841	0.005072	-0.022788	0.075675	-0.787195	-0.100125	-0.558353	0.241953
64619	-9.177450	-1.135915	3.551246	0.065133	-0.083469	0.092665	-0.787030	-0.100992	-0.558511	0.241765
64620	-9.201789	-1.180542	3.570606	0.052603	-0.140116	0.126800	-0.786893	-0.101766	-0.558666	0.241525
64621	-9.193677	-1.158984	3.594725	0.084670	-0.148466	0.125107	-0.786822	-0.102381	-0.558757	0.241287
64622	-9.182931	-1.221997	3.592908	0.053853	-0.216341	0.121031	-0.786758	-0.102830	-0.558867	0.241051
64623	-9.205559	-1.264242	3.583380	0.018774	-0.252043	0.143082	-0.786727	-0.103169	-0.558961	0.240792
64624	-9.239566	-1.324212	3.577666	-0.025473	-0.300051	0.178915	-0.786733	-0.103488	-0.558962	0.240632
64625	-9.296895	-1.252963	3.573412	-0.010767	-0.226997	0.223238	-0.786777	-0.103730	-0.558852	0.240636
64626	-9.280445	-1.163410	3.544221	0.009644	-0.142334	0.188379	-0.786897	-0.103783	-0.558639	0.240716
64627	-9.170110	-1.163826	3.468326	-0.029239	-0.135505	0.059267	-0.787012	-0.103598	-0.558507	0.240727
64628	-9.129923	-1.200894	3.422200	-0.076945	-0.154485	0.009701	-0.787056	-0.103459	-0.558465	0.240740
64629	-9.131570	-1.187840	3.420638	-0.072267	-0.140247	0.009349	-0.787042	-0.103474	-0.558429	0.240864
64630	-9.171931	-1.138897	3.468694	-0.019673	-0.106961	0.058554	-0.787073	-0.103510	-0.558304	0.241037
64631	-9.167089	-1.085185	3.506578	0.036482	-0.075885	0.061630	-0.787180	-0.103489	-0.558088	0.241197
64632	-9.177001	-1.016209	3.495642	0.055010	-0.005065	0.059825	-0.787340	-0.103303	-0.557873	0.241251
64633	-9.208174	-0.996196	3.493333	0.051557	0.026974	0.085942	-0.787546	-0.102896	-0.557709	0.241131
64634	-9.230280	-1.085984	3.409437	-0.070698	-0.001481	0.086641	-0.787744	-0.102382	-0.557619	0.240912
64635	-9.200110	-1.231225	3.371239	-0.168557	-0.112903	0.060611	-0.787880	-0.102095	-0.557523	0.240810
64636	-9.165111	-1.256586	3.381834	-0.164217	-0.144934	0.034500	-0.787854	-0.102068	-0.557455	0.241065
64637	-9.184226	-1.099991	3.498082	0.004672	-0.050850	0.076395	-0.787789	-0.102080	-0.557342	0.241532
64638	-9.126773	-1.019329	3.562976	0.112987	-0.018905	0.037119	-0.787762	-0.102025	-0.557193	0.241987
64639	-9.106551	-0.968329	3.602528	0.174801	0.010555	0.026747	-0.787856	-0.101700	-0.556976	0.242319
64640	-9.074052	-0.954904	3.547606	0.141324	0.048190	-0.024252	-0.788045	-0.101192	-0.556708	0.242531
64641	-9.060000	-0.995631	3.473535	0.059945	0.053006	-0.059026	-0.788285	-0.100599	-0.556458	0.242573
64642	-9.022491	-1.009630	3.425704	0.019372	0.062494	-0.109294	-0.788523	-0.100037	-0.556229	0.242553
64643	-9.100636	-1.043761	3.371699	-0.065860	0.085876	-0.052173	-0.788729	-0.099609	-0.556034	0.242508
64644	-9.073373	-1.086266	3.328211	-0.119711	0.068810	-0.088285	-0.788914	-0.099227	-0.555796	0.242609
64645	-9.044514	-1.064128	3.300325	-0.126706	0.100041	-0.127560	-0.789001	-0.098924	-0.555640	0.242808
64646	-9.058061	-1.068807	3.317918	-0.118648	0.098533	-0.108276	-0.788996	-0.098775	-0.555565	0.243056
64647	-9.095596	-1.030062	3.337792	-0.092465	0.138486	-0.070818	-0.788967	-0.098678	-0.555516	0.243301
64648	-9.109183	-1.043511	3.369760	-0.075115	0.119721	-0.045322	-0.788906	-0.098667	-0.555536	0.243456
64649	-9.135019	-1.072879	3.403392	-0.067122	0.088593	-0.006038	-0.788845	-0.098648	-0.555565	0.243595
64650	-9.107007	-1.074476	3.450711	-0.019994	0.061509	-0.014968	-0.788816	-0.098528	-0.555583	0.243698
64651	-9.119833	-1.075921	3.404355	-0.060631	0.086641	-0.019455	-0.788808	-0.098260	-0.555647	0.243689
64652	-9.115266	-1.097899	3.393858	-0.076958	0.075639	-0.024936	-0.788830	-0.097905	-0.555684	0.243673
64653	-9.106789	-1.128845	3.341411	-0.132276	0.074203	-0.047959	-0.788871	-0.097624	-0.555662	0.243704
64654	-9.056275	-1.154298	3.337266	-0.135397	0.043591	-0.093345	-0.788867	-0.097638	-0.555597	0.243860
64655	-9.007721	-1.097744	3.344554	-0.088225	0.075627	-0.142288	-0.788731	-0.097904	-0.555651	0.244071
64656	-9.092998	-1.079595	3.480856	0.014520	0.052695	-0.016692	-0.788518	-0.098176	-0.555858	0.244179
64657	-9.188691	-1.077047	3.557220	0.059539	0.044217	0.098941	-0.788349	-0.098228	-0.556116	0.244116
64658	-9.252861	-1.137424	3.545707	0.008324	0.013592	0.161326	-0.788321	-0.097989	-0.556271	0.243946
64659	-9.217387	-1.158958	3.507407	-0.022849	0.005698	0.117305	-0.788409	-0.097533	-0.556275	0.243839
64660	-9.152418	-1.160412	3.409256	-0.087300	0.035033	0.022326	-0.788471	-0.097148	-0.556241	0.243867
64661	-9.073033	-1.098734	3.373064	-0.065149	0.087503	-0.071393	-0.788405	-0.096966	-0.556290	0.244043
64662	-9.053583	-1.059513	3.408458	-0.007159	0.102896	-0.081455	-0.788207	-0.097000	-0.556498	0.244195
64663	-9.055005	-1.091963	3.529771	0.083058	0.020603	-0.033247	-0.787939	-0.097262	-0.556788	0.244291
64664	-9.074222	-1.110395	3.646422	0.171211	-0.045966	0.028016	-0.787703	-0.097634	-0.557016	0.244385
64665	-9.104571	-1.061567	3.734713	0.264915	-0.038459	0.081582	-0.787571	-0.097797	-0.557155	0.244432
64666	-9.104889	-1.063014	3.733526	0.265228	-0.038524	0.081573	-0.787628	-0.097434	-0.557204	0.244281
64667	-9.109119	-1.176723	3.667599	0.154287	-0.100931	0.075589	-0.787756	-0.096862	-0.557186	0.244134
64668	-9.169061	-1.099005	3.693376	0.199012	-0.020226	0.131180	-0.787886	-0.096373	-0.557064	0.244189
64669	-9.207813	-0.973326	3.712152	0.265832	0.099657	0.158804	-0.788017	-0.095928	-0.556923	0.244260
64670	-9.271386	-0.953981	3.751363	0.290395	0.125372	0.229292	-0.788176	-0.095446	-0.556803	0.244210
64671	-9.233014	-1.018882	3.875363	0.371281	0.014091	0.245496	-0.788237	-0.094949	-0.556803	0.244207
64672	-9.233329	-1.131097	4.031663	0.450746	-0.140762	0.314753	-0.788069	-0.094500	-0.557012	0.244446
64673	-9.106748	-1.096736	4.328838	0.757080	-0.265402	0.298243	-0.787642	-0.094360	-0.557352	0.245101
64674	-9.311026	-0.789951	4.765787	1.231504	-0.122350	0.603664	-0.787279	-0.094093	-0.557539	0.245944
64675	-9.161048	-0.449156	4.872100	1.531869	0.099130	0.458993	-0.787335	-0.093314	-0.557330	0.246536
64676	-9.040611	-0.457469	4.981272	1.647458	0.037167	0.387284	-0.787808	-0.091725	-0.556962	0.246452
64677	-8.986583	-0.638849	5.093842	1.661781	-0.147879	0.401544	-0.788462	-0.089651	-0.556549	0.246056
64678	-9.040294	-0.809816	5.302539	1.732070	-0.328581	0.550298	-0.789139	-0.087759	-0.555858	0.246128
64679	-8.886541	-0.740711	5.575574	2.018787	-0.388436	0.501369	-0.789814	-0.086572	-0.554686	0.247027
64680	-8.765919	-0.553765	5.875959	2.364732	-0.357020	0.480773	-0.790647	-0.086361	-0.552975	0.248269
64681	-8.678479	-0.501215	6.060620	2.523047	-0.398089	0.471954	-0.791747	-0.087162	-0.550676	0.249592
64682	-8.830269	-0.329658	6.307786	2.708866	-0.303922	0.696341	-0.793348	-0.088498	-0.547636	0.250724
64683	-9.023163	-0.168524	6.511845	2.820278	-0.189799	0.951103	-0.795573	-0.089686	-0.543883	0.251420
64684	-9.173013	-0.058126	6.674271	2.860831	-0.104082	1.164425	-0.798543	-0.090230	-0.539351	0.251570
64685	-9.170495	-0.100910	6.821511	2.834997	-0.170661	1.258587	-0.802138	-0.089945	-0.534161	0.251308
64686	-9.202990	-0.125645	6.921921	2.751182	-0.176381	1.368609	-0.806356	-0.089273	-0.528275	0.250492
64687	-9.246270	-0.201938	6.873976	2.496130	-0.154345	1.435796	-0.811249	-0.088397	-0.521628	0.248929
64688	-9.266279	-0.358289	6.847342	2.205914	-0.213984	1.499389	-0.816578	-0.087362	-0.514420	0.246860
64689	-9.165336	-0.513941	6.842802	1.965650	-0.319558	1.462153	-0.821967	-0.086321	-0.507006	0.244672
64690	-9.089894	-0.475018	6.992585	1.935509	-0.310729	1.496680	-0.827281	-0.085196	-0.499593	0.242393
64691	-9.461311	-0.427521	7.277361	1.841883	-0.198074	1.986607	-0.832666	-0.083504	-0.491964	0.240137
64692	-9.666859	-0.446293	7.619114	1.802172	-0.192883	2.369597	-0.838394	-0.080966	-0.483603	0.238052
64693	-9.636950	-0.548841	8.024084	1.845269	-0.333819	2.598414	-0.844246	-0.078124	-0.474635	0.236361
64694	-9.751066	-0.244860	8.279467	1.882240	-0.003968	2.842063	-0.850289	-0.075394	-0.464922	0.234886
64695	-9.549616	0.261486	8.267919	1.923358	0.510528	2.663416	-0.856947	-0.071927	-0.454150	0.232842
64696	-9.487038	0.573709	7.907442	1.525502	1.045508	2.411454	-0.864360	-0.066499	-0.442482	0.229500
64697	-8.987110	0.238766	7.636855	1.113607	0.851003	1.899355	-0.871961	-0.059511	-0.430665	0.225102
64698	-8.847730	0.011722	7.812869	0.921690	0.735499	1.931395	-0.879108	-0.052185	-0.419454	0.220236
64699	-8.947117	0.241632	8.149648	0.925409	1.060186	2.209645	-0.885836	-0.045336	-0.408639	0.215064
64700	-9.023190	0.421634	8.218119	0.707585	1.406519	2.296957	-0.892883	-0.038015	-0.397063	0.208942
64701	-9.058468	0.132052	7.940540	0.048871	1.406909	2.151044	-0.900433	-0.029361	-0.384108	0.202040
64702	-8.742637	-0.344575	7.527975	-0.568833	1.144473	1.657973	-0.908224	-0.019659	-0.369847	0.194821
64703	-8.504679	-0.739423	7.321633	-1.043275	0.925502	1.346401	-0.915669	-0.010003	-0.355287	0.187673
64704	-8.325665	-0.973084	7.289982	-1.358052	0.820516	1.181805	-0.922548	-0.001227	-0.340935	0.180740
64705	-8.185353	-1.073511	7.470145	-1.500013	0.796517	1.190097	-0.928790	0.006104	-0.327081	0.174154
64706	-8.163801	-1.105584	7.513582	-1.781866	0.868162	1.159361	-0.934626	0.012392	-0.313341	0.167744
64707	-8.063894	-1.188990	7.607188	-1.986986	0.844242	1.125310	-0.940052	0.018147	-0.299809	0.161515
64708	-8.071952	-1.331464	7.827493	-2.212312	0.784639	1.263426	-0.945028	0.023615	-0.286460	0.155901
64709	-7.765919	-1.249812	7.898128	-2.211229	0.854889	1.078731	-0.949688	0.029123	-0.272878	0.150937
64710	-7.021854	-1.325280	7.679823	-2.045339	0.659272	0.454565	-0.954172	0.034804	-0.258858	0.146070
64711	-6.487337	-1.413721	7.367545	-2.067453	0.513374	-0.126616	-0.958368	0.040651	-0.244823	0.141212
64712	-6.334595	-1.521750	7.125885	-2.344682	0.455041	-0.458004	-0.962200	0.046868	-0.230972	0.136480
64713	-6.070155	-1.788679	7.052362	-2.461061	0.207072	-0.665183	-0.965612	0.052547	-0.217649	0.132140
64714	-5.946595	-2.133066	7.275023	-2.562303	-0.081184	-0.524985	-0.968564	0.056556	-0.205367	0.128491
64715	-5.515083	-2.063670	7.523637	-2.277730	-0.079495	-0.534669	-0.971227	0.058071	-0.193769	0.125696
64716	-5.314283	-1.525709	7.930164	-2.030447	0.420632	-0.370588	-0.973691	0.058041	-0.182591	0.123360
64717	-4.928888	-1.078363	8.434890	-1.611405	0.787042	-0.149147	-0.975948	0.058069	-0.171542	0.121354
64718	-4.497393	-0.401975	8.879281	-1.131826	1.377746	-0.012359	-0.977983	0.059262	-0.160685	0.119242
64719	-4.308141	-0.089305	9.011604	-1.064116	1.692608	-0.026200	-0.979857	0.062740	-0.149822	0.116176
64720	-4.143701	-0.210286	8.924678	-1.180855	1.612710	-0.176078	-0.981613	0.068145	-0.138770	0.111960
64721	-3.980841	-0.619312	8.741471	-1.376514	1.264485	-0.370998	-0.983198	0.074513	-0.127640	0.107134
64722	-3.748765	-0.881064	8.540104	-1.468477	1.039438	-0.619125	-0.984651	0.080668	-0.116318	0.102102
64723	-3.456642	-1.021675	8.198358	-1.503070	0.886236	-1.028802	-0.986011	0.086247	-0.104765	0.096784
64724	-2.992352	-1.169367	7.922496	-1.338394	0.682611	-1.396814	-0.987230	0.091160	-0.093405	0.091338
64725	-2.833903	-1.260632	7.783453	-1.408571	0.605099	-1.575625	-0.988278	0.095531	-0.082418	0.085952
64726	-2.677754	-1.220810	7.770182	-1.423437	0.667212	-1.654103	-0.989165	0.099560	-0.071869	0.080471
64727	-2.465435	-1.540500	7.600056	-1.449818	0.336751	-1.813009	-0.989924	0.103173	-0.061772	0.074762
64728	-2.366479	-1.830140	7.439310	-1.560051	0.043737	-1.947855	-0.990603	0.105947	-0.052200	0.068970
64729	-1.992214	-1.953703	7.476037	-1.334046	-0.105711	-1.945999	-0.991223	0.107562	-0.043415	0.063419
64730	-1.885838	-1.779307	7.341588	-1.343593	0.027725	-2.143655	-0.991785	0.108553	-0.035155	0.057821
64731	-1.703741	-1.828589	7.085466	-1.301967	-0.096050	-2.413701	-0.992260	0.109433	-0.027249	0.051991
64732	-1.774367	-2.146755	6.838916	-1.519885	-0.453262	-2.600791	-0.992644	0.110188	-0.019662	0.046153
64733	-1.760676	-2.146587	6.617580	-1.608730	-0.512119	-2.837789	-0.992976	0.110386	-0.012320	0.040771
64734	-1.658609	-1.789815	6.272859	-1.579806	-0.258367	-3.275106	-0.993164	0.111098	-0.004815	0.035474
64735	-0.886273	-1.791600	5.867058	-0.900165	-0.399499	-3.693269	-0.993112	0.113174	0.002381	0.030225
64736	-0.655147	-1.925317	5.572902	-0.744921	-0.582638	-3.956189	-0.992814	0.116726	0.008359	0.025000
64737	-0.407483	-2.396155	5.465726	-0.564310	-1.037945	-3.948751	-0.992399	0.120772	0.012710	0.019904
64738	-0.216708	-2.775193	5.728311	-0.411967	-1.310677	-3.593806	-0.992055	0.123998	0.014930	0.015094
64739	-0.349711	-2.743116	6.145988	-0.549480	-1.143988	-3.193816	-0.991848	0.126040	0.015569	0.010419
64740	-0.799956	-2.795717	6.579847	-0.999141	-1.062326	-2.768292	-0.991706	0.127382	0.016067	0.005875
64741	-0.698573	-2.864717	6.862699	-0.897955	-1.050814	-2.472340	-0.991596	0.128245	0.016936	0.001773
64742	-0.606125	-2.869830	7.102946	-0.808113	-0.992422	-2.235273	-0.991542	0.128564	0.017684	-0.001923
64743	-0.544225	-2.814385	7.341225	-0.746336	-0.881804	-2.016796	-0.991546	0.128403	0.017898	-0.005368
64744	-0.534450	-2.782764	7.766885	-0.730838	-0.754488	-1.612049	-0.991627	0.127744	0.016910	-0.008450
64745	-0.725504	-2.663867	8.147629	-0.899748	-0.565983	-1.275923	-0.991766	0.126670	0.015025	-0.011332
64746	-0.569838	-2.647732	8.560326	-0.709129	-0.468917	-0.874490	-0.991946	0.125265	0.012661	-0.013821
64747	-0.431345	-2.600724	9.103727	-0.525867	-0.321543	-0.355032	-0.992237	0.122995	0.009537	-0.015721
64748	-0.591526	-2.406567	9.694356	-0.629400	-0.054223	0.173402	-0.992680	0.119376	0.005899	-0.017353
64749	-0.691656	-2.106246	10.305756	-0.666101	0.286679	0.703771	-0.993272	0.114256	0.002341	-0.018728
64750	-0.801578	-1.419809	10.904960	-0.728154	0.964972	1.146933	-0.993923	0.108234	-0.000615	-0.020034
64751	-0.968230	-0.718323	11.139489	-0.870455	1.564594	1.247810	-0.994464	0.102730	-0.002092	-0.021968
64752	-0.791564	-0.198630	11.228900	-0.697913	1.989216	1.246671	-0.994811	0.098668	-0.002322	-0.024712
64753	-0.836025	-0.206351	10.805200	-0.754906	1.827403	0.844908	-0.994902	0.096784	-0.001501	-0.028307
64754	-0.368807	-0.667486	10.483033	-0.285817	1.306439	0.612618	-0.994866	0.095950	-0.000566	-0.032174
64755	-0.058951	-0.865688	10.284252	0.024317	1.070641	0.452390	-0.994849	0.094634	-0.000503	-0.036321
64756	-0.518876	-0.719411	10.207998	-0.445875	1.129656	0.361539	-0.994865	0.092454	-0.000484	-0.041186
64757	-0.554132	-0.624244	10.241555	-0.493457	1.172799	0.383731	-0.994875	0.089858	-0.000052	-0.046355
64758	-0.398477	-0.463651	10.144561	-0.364815	1.272606	0.263673	-0.994823	0.087530	0.000566	-0.051623
64759	-0.131207	-0.511438	10.027349	-0.107207	1.187930	0.157454	-0.994669	0.085657	0.001116	-0.057408
64760	-0.133858	-0.547927	10.118071	-0.115213	1.131883	0.257019	-0.994425	0.084122	0.001319	-0.063567
64761	-0.238380	-0.664430	10.154308	-0.212304	0.976816	0.316918	-0.994126	0.082469	0.001847	-0.070057
64762	-0.178471	-0.819783	10.051524	-0.145906	0.775959	0.242830	-0.993785	0.080343	0.003043	-0.076993
64763	-0.006285	-0.839804	9.719945	0.008732	0.682159	-0.080424	-0.993394	0.077746	0.004536	-0.084285
64764	-0.249768	-0.868394	9.414802	-0.247515	0.514076	-0.371864	-0.992929	0.075089	0.006355	-0.091727
64765	0.112735	-1.000126	9.209958	0.112212	0.370587	-0.556007	-0.992427	0.072480	0.008030	-0.098847
64766	0.199241	-0.958830	9.111144	0.174070	0.366974	-0.658080	-0.991925	0.069851	0.009176	-0.105457
64767	0.354137	-0.698390	9.210540	0.257991	0.619177	-0.593301	-0.991397	0.067147	0.009989	-0.111907
64768	0.329670	-0.378644	9.312722	0.150241	0.890779	-0.530305	-0.990766	0.064588	0.010702	-0.118726
64769	0.315949	-0.104449	9.307277	0.057211	1.110657	-0.566112	-0.989981	0.062522	0.011590	-0.126074
64770	0.193892	-0.085361	9.189666	-0.085514	1.053798	-0.681590	-0.988987	0.061234	0.012798	-0.134130
64771	0.306146	-0.529664	9.051858	0.122706	0.619117	-0.762164	-0.987852	0.059845	0.013823	-0.142744
64772	0.512087	-0.529119	9.169765	0.311614	0.663734	-0.642679	-0.986680	0.057489	0.013578	-0.151572
64773	0.573234	-0.045682	9.368114	0.231527	1.126964	-0.497728	-0.985353	0.054872	0.012420	-0.160982
64774	0.487396	0.198646	9.544254	0.081568	1.320858	-0.345985	-0.983735	0.053387	0.011114	-0.171149
64775	0.381072	-0.042054	9.705583	0.068826	1.071262	-0.159037	-0.981866	0.053331	0.009884	-0.181650
64776	0.065660	-0.320232	9.848678	-0.124166	0.731827	0.013414	-0.979772	0.054456	0.009272	-0.192341
64777	-0.206176	-0.886805	9.879850	-0.164202	0.138760	0.106691	-0.977496	0.056013	0.009566	-0.203156
64778	-0.305466	-1.240982	9.998159	-0.117297	-0.187642	0.264392	-0.975191	0.056821	0.009844	-0.213720
64779	-0.710853	-1.141025	10.181020	-0.521264	-0.245130	0.440535	-0.972882	0.056479	0.009847	-0.224084
64780	-1.442202	-0.779779	10.234004	-1.324069	-0.263399	0.463506	-0.970459	0.055675	0.010378	-0.234524
64781	-1.976391	-0.446175	10.244308	-1.952239	-0.252358	0.442846	-0.967987	0.055709	0.011774	-0.244457
64782	-2.081184	-0.113899	10.162510	-2.224146	-0.048695	0.320009	-0.965450	0.057378	0.013976	-0.253810
64783	-1.542273	-0.045584	10.079955	-1.833967	0.271123	0.214718	-0.962687	0.060914	0.016354	-0.263166
64784	-1.318275	-0.797887	10.008191	-1.305252	-0.229358	0.226325	-0.959576	0.064853	0.018020	-0.273281
64785	-1.548072	-1.493329	10.017945	-1.155190	-0.901747	0.328226	-0.956315	0.067044	0.018951	-0.283916
64786	-1.734990	-1.500315	10.109965	-1.302466	-0.997453	0.423578	-0.953139	0.067323	0.019562	-0.294298
64787	-1.545309	-1.189236	10.403295	-1.318131	-0.623957	0.670820	-0.950092	0.066989	0.019831	-0.304047
64788	-1.621491	-1.066766	10.802665	-1.451364	-0.549611	1.052676	-0.947100	0.066537	0.019496	-0.313359
64789	-2.050563	-0.711627	11.127987	-1.996011	-0.522177	1.335690	-0.944104	0.065633	0.019275	-0.322473
64790	-2.276911	-0.345362	11.176545	-2.382160	-0.421690	1.339261	-0.940935	0.064915	0.020289	-0.331687
64791	-2.078320	-0.146945	10.955817	-2.351226	-0.223948	1.086495	-0.937562	0.065206	0.022805	-0.340891
64792	-1.716751	-0.372225	10.530282	-1.946595	-0.248202	0.681186	-0.933972	0.066596	0.026267	-0.350102
64793	-1.436625	-0.652595	10.136117	-1.576980	-0.338009	0.317922	-0.930167	0.068154	0.029542	-0.359543
64794	-1.084737	-0.926634	10.044442	-1.168821	-0.324286	0.259786	-0.926094	0.069324	0.031759	-0.369507
64795	-1.338626	-1.099462	10.028796	-1.248785	-0.636228	0.267651	-0.921741	0.069811	0.032880	-0.380052
64796	-1.846970	-1.197381	10.222411	-1.545005	-1.068674	0.473877	-0.917215	0.069241	0.033415	-0.390904
64797	-2.133438	-0.908061	10.277404	-1.923207	-1.121252	0.485119	-0.912508	0.067999	0.034283	-0.401909
64798	-2.464903	-0.777220	10.195487	-2.212338	-1.351212	0.380800	-0.907578	0.067434	0.036420	-0.412829
64799	-2.261308	-1.060443	9.865912	-1.833107	-1.471920	0.089192	-0.902615	0.067745	0.039652	-0.423231
64800	-2.034233	-1.443602	9.540571	-1.370031	-1.613895	-0.181342	-0.897737	0.067943	0.042708	-0.433161
64801	-1.896403	-1.250240	9.465499	-1.423943	-1.435714	-0.290815	-0.892966	0.067271	0.044816	-0.442807
64802	-1.733716	-0.804231	9.564939	-1.674605	-1.081812	-0.264615	-0.888138	0.065944	0.046214	-0.452466
64803	-1.602558	-0.434407	9.661660	-1.885890	-0.813522	-0.226980	-0.882980	0.064353	0.047399	-0.462556
64804	-1.883178	-0.123883	9.758615	-2.293442	-0.933140	-0.186622	-0.877368	0.062986	0.049097	-0.473125
64805	-1.931312	-0.105948	9.632487	-2.311455	-1.052479	-0.321909	-0.871214	0.061988	0.051863	-0.484204
64806	-2.174387	-0.490104	9.379692	-2.081686	-1.556018	-0.528741	-0.864572	0.061350	0.055113	-0.495695
64807	-2.287642	-0.863240	9.125582	-1.770397	-1.929352	-0.735377	-0.857698	0.060288	0.057956	-0.507307
64808	-2.126147	-0.851560	9.023197	-1.654757	-1.855571	-0.841518	-0.850702	0.058817	0.059802	-0.518913
64809	-2.067357	-0.682391	9.118120	-1.746248	-1.784092	-0.776821	-0.843398	0.057556	0.060959	-0.530707
64810	-2.259290	-0.703210	9.206869	-1.773667	-2.016447	-0.693863	-0.835787	0.056878	0.061921	-0.542578
64811	-2.407150	-0.967759	9.237201	-1.544332	-2.300837	-0.626959	-0.827837	0.056517	0.062876	-0.554561
64812	-2.427354	-1.328134	9.308557	-1.169597	-2.485168	-0.498143	-0.819715	0.055992	0.063418	-0.566489
64813	-2.179581	-1.484362	9.465163	-0.884348	-2.326598	-0.307560	-0.811509	0.054734	0.063188	-0.578330
64814	-1.738611	-1.195048	9.687275	-0.958778	-1.832050	-0.116407	-0.803194	0.052941	0.062322	-0.590079
64815	-1.645449	-0.793266	9.913960	-1.263387	-1.641454	0.053030	-0.794531	0.051859	0.061535	-0.601868
64816	-1.725877	-0.853783	10.030325	-1.180719	-1.749541	0.180299	-0.785468	0.051812	0.061447	-0.613661
64817	-1.914210	-1.031567	10.161952	-1.026827	-1.981342	0.336863	-0.776167	0.052347	0.062022	-0.625282
64818	-1.722118	-1.187529	10.020400	-0.777308	-1.836113	0.227668	-0.766596	0.052705	0.063426	-0.636812
64819	-1.344161	-1.394905	9.781681	-0.447043	-1.517320	0.032701	-0.756692	0.052671	0.065481	-0.648348
64820	-0.907174	-1.654659	9.495196	-0.068904	-1.136278	-0.198961	-0.746370	0.052436	0.067482	-0.660022
64821	-0.904486	-1.826767	9.252301	0.151966	-1.152898	-0.410136	-0.735468	0.052209	0.069111	-0.672001
64822	-0.974361	-2.214075	9.019208	0.581669	-1.237876	-0.575433	-0.724013	0.052272	0.070600	-0.684170
64823	-1.042931	-2.720028	8.807225	1.130715	-1.292230	-0.696502	-0.712354	0.052551	0.071795	-0.696158
64824	-0.880894	-3.103523	8.607226	1.567550	-1.075164	-0.819438	-0.700901	0.052617	0.072414	-0.707619
64825	-0.688627	-3.362383	8.478465	1.865146	-0.805422	-0.894380	-0.689621	0.052275	0.072623	-0.718621
64826	-0.660407	-3.608776	8.495063	2.130773	-0.690292	-0.834480	-0.678747	0.051329	0.072372	-0.728993
64827	-0.651910	-3.470325	8.683137	1.997417	-0.619927	-0.675376	-0.668405	0.050086	0.071588	-0.738648
64828	-0.419221	-3.353742	8.943468	1.851412	-0.332110	-0.438768	-0.658466	0.049228	0.070369	-0.747695
64829	-0.388725	-3.124021	9.213725	1.607075	-0.261206	-0.213111	-0.648858	0.048850	0.068875	-0.756210
64830	-0.666631	-2.906496	9.360278	1.436469	-0.500496	-0.107401	-0.639481	0.048761	0.067985	-0.764241
64831	-0.637745	-2.778799	9.401144	1.312830	-0.436353	-0.086649	-0.630464	0.048886	0.067922	-0.771694
64832	-0.718908	-2.816054	9.463730	1.359102	-0.460577	-0.017296	-0.621873	0.048993	0.067903	-0.778629
64833	-0.574159	-2.406114	9.794624	0.889941	-0.375382	0.243189	-0.613585	0.048669	0.067280	-0.785250
64834	-0.469102	-1.860321	9.962351	0.331578	-0.378007	0.320249	-0.605122	0.048073	0.066985	-0.791852
64835	-0.279870	-1.598278	9.843316	0.057014	-0.249250	0.160191	-0.596043	0.047558	0.068013	-0.798652
64836	-0.110029	-1.937865	9.429873	0.377357	0.021796	-0.192554	-0.586383	0.047485	0.070165	-0.805591
64837	-0.140318	-2.444895	9.032619	0.891822	0.167743	-0.498086	-0.576376	0.047678	0.072256	-0.812587
64838	-0.171661	-2.652009	8.839268	1.089853	0.233893	-0.650121	-0.566143	0.048028	0.073849	-0.819586
64839	-0.201223	-2.954873	8.654721	1.371759	0.354588	-0.775639	-0.555700	0.048646	0.075202	-0.826545
64840	-0.206897	-3.303423	8.646835	1.651817	0.526393	-0.717789	-0.545401	0.049536	0.076018	-0.833249
64841	-0.334508	-3.505105	8.848092	1.813129	0.537458	-0.479434	-0.535434	0.050327	0.076075	-0.839637
64842	-0.314481	-3.488800	9.109336	1.717790	0.600827	-0.224237	-0.525758	0.050797	0.075561	-0.845747
64843	-0.416905	-3.401506	9.554325	1.592882	0.510196	0.198867	-0.516546	0.050994	0.074789	-0.851461
64844	-0.307013	-3.053058	9.964083	1.159961	0.482373	0.537189	-0.507696	0.050859	0.074015	-0.856843
64845	-0.779945	-2.668804	10.126511	1.024657	-0.084318	0.638148	-0.498728	0.050319	0.074234	-0.862106
64846	-0.789755	-2.607692	9.951678	1.002599	-0.098172	0.455946	-0.489757	0.049307	0.076026	-0.867137
64847	-0.974788	-2.703950	9.520904	1.238583	-0.185862	0.053442	-0.480764	0.048175	0.078803	-0.871972
64848	-1.190961	-2.936056	9.034059	1.615490	-0.220427	-0.378991	-0.471682	0.046719	0.081662	-0.876735
64849	-1.182089	-2.869496	8.733180	1.601140	-0.225018	-0.686598	-0.462908	0.045392	0.083567	-0.881290
64850	-1.166051	-2.582476	8.556606	1.392437	-0.343167	-0.913941	-0.454380	0.044262	0.084361	-0.885699
64851	-1.167988	-2.086797	8.729438	0.977118	-0.625572	-0.836282	-0.445711	0.043957	0.084809	-0.890066
64852	-1.120989	-1.989529	8.963594	0.830896	-0.640967	-0.622501	-0.436869	0.044845	0.085008	-0.894376
64853	-0.934196	-1.943265	9.360218	0.595257	-0.521937	-0.240036	-0.427677	0.046821	0.084736	-0.898733
64854	-0.832142	-1.932852	9.731617	0.424574	-0.435460	0.125241	-0.417763	0.049477	0.084279	-0.903285
64855	-1.033295	-2.071393	10.046773	0.558932	-0.474600	0.471177	-0.407225	0.052110	0.083915	-0.907970
64856	-1.541067	-2.407362	10.170400	1.078773	-0.588192	0.680034	-0.396540	0.053853	0.083978	-0.912581
64857	-1.682699	-2.570478	10.133104	1.270487	-0.531296	0.685983	-0.386101	0.054464	0.084838	-0.916931
64858	-1.834552	-2.920038	9.979014	1.624861	-0.352651	0.613639	-0.376093	0.054691	0.086411	-0.920921
64859	-1.759139	-3.160410	10.055154	1.696717	-0.109470	0.737094	-0.366971	0.055254	0.087458	-0.924462
64860	-1.841712	-3.158918	10.153125	1.709074	-0.139101	0.841705	-0.358637	0.056134	0.087861	-0.927636
64861	-2.207152	-3.000285	10.428576	1.803496	-0.488379	1.102308	-0.350982	0.056721	0.088030	-0.930508
64862	-2.513085	-2.875759	10.632502	1.911892	-0.767608	1.295465	-0.344340	0.056370	0.088197	-0.932992
64863	-2.468156	-2.407279	10.921619	1.553206	-1.091585	1.481753	-0.338442	0.055070	0.087888	-0.935254
64864	-2.582592	-1.773728	11.028146	1.277906	-1.640527	1.461671	-0.332728	0.052468	0.088039	-0.937437
64865	-2.415430	-1.380308	10.723160	1.029568	-1.814127	1.067292	-0.326910	0.048617	0.089716	-0.939530
64866	-1.851614	-1.253184	10.164551	0.674178	-1.542244	0.457812	-0.320718	0.044502	0.092960	-0.941551
64867	-1.537468	-1.393764	9.526576	0.662837	-1.224362	-0.162665	-0.314080	0.040965	0.096940	-0.943546
64868	-1.308814	-1.465796	9.078470	0.623910	-1.030093	-0.602397	-0.307005	0.038437	0.100573	-0.945598
64869	-0.999690	-1.653807	8.837000	0.531688	-0.708740	-0.810360	-0.299449	0.037206	0.103418	-0.947761
64870	-1.095296	-1.773615	8.929555	0.661060	-0.707960	-0.694348	-0.291413	0.037151	0.105272	-0.950061
64871	-1.541614	-2.009574	9.071976	1.126172	-0.791928	-0.494948	-0.282981	0.037615	0.106397	-0.952463
64872	-1.896737	-2.402108	9.248461	1.593896	-0.678078	-0.226165	-0.274292	0.037805	0.107292	-0.954894
64873	-2.040896	-2.602548	9.397224	1.792851	-0.586986	-0.030695	-0.265907	0.037403	0.107694	-0.957234
64874	-2.010916	-2.510589	9.457092	1.716565	-0.625636	0.007970	-0.257585	0.036705	0.107843	-0.959517
64875	-2.045503	-2.533752	9.384884	1.771175	-0.580600	-0.055341	-0.249361	0.036168	0.108509	-0.961632
64876	-2.240936	-2.833986	9.284412	2.094039	-0.377411	-0.079954	-0.241534	0.035714	0.109478	-0.963535
64877	-2.227614	-2.923361	9.258949	2.123166	-0.263240	-0.083389	-0.234324	0.035129	0.109918	-0.965286
64878	-2.083029	-2.725357	9.406455	1.891059	-0.365303	0.012705	-0.227696	0.034371	0.109834	-0.966907
64879	-1.872494	-2.384176	9.605820	1.543736	-0.573000	0.124652	-0.221330	0.033253	0.109228	-0.968492
64880	-1.907852	-2.098589	9.646719	1.477575	-0.812817	0.099884	-0.215207	0.031470	0.108448	-0.970018
64881	-1.867099	-1.763696	9.611558	1.350700	-1.054663	-0.012598	-0.209261	0.029001	0.107731	-0.971475
64882	-1.834530	-1.559020	9.452636	1.312022	-1.171160	-0.218157	-0.203362	0.026008	0.107425	-0.972845
64883	-1.725538	-1.391616	9.276584	1.227001	-1.230871	-0.434620	-0.197252	0.022726	0.107453	-0.974181
64884	-1.462164	-1.408299	9.176999	1.061350	-1.083181	-0.536994	-0.191264	0.019674	0.107239	-0.975464
64885	-1.105159	-1.243047	9.451982	0.701904	-1.131601	-0.308319	-0.184999	0.017252	0.106006	-0.976852
64886	-1.015774	-0.907846	9.882588	0.515860	-1.448152	0.044181	-0.178626	0.015405	0.103710	-0.978315
64887	-0.820122	-0.520559	10.257684	0.227079	-1.755368	0.337694	-0.171520	0.013377	0.101205	-0.979877
64888	-0.633764	-0.508321	10.401834	0.097541	-1.685057	0.483372	-0.163642	0.011412	0.099263	-0.981447
64889	-0.436133	-0.675575	10.472482	0.010405	-1.444020	0.590868	-0.155420	0.009887	0.097845	-0.982941
64890	-0.850574	-1.166027	10.369674	0.598117	-1.067431	0.585194	-0.146717	0.008450	0.097035	-0.984371
64891	-1.413964	-1.706468	10.259065	1.340599	-0.672702	0.575270	-0.137768	0.005790	0.096257	-0.985759
64892	-1.228802	-1.819742	10.015873	1.267568	-0.431619	0.353211	-0.129729	0.001787	0.094942	-0.986992
64893	-0.670491	-1.408887	9.905503	0.707816	-0.621573	0.170571	-0.122023	-0.002617	0.093419	-0.988118
64894	0.102007	-0.969711	9.893797	-0.066753	-0.826533	0.094374	-0.114320	-0.006338	0.092130	-0.989142
64895	0.563983	-0.790140	9.807555	-0.493059	-0.867264	-0.007839	-0.106127	-0.008871	0.091155	-0.990126
64896	0.624943	-0.797520	9.809546	-0.508768	-0.846731	-0.000558	-0.097141	-0.010587	0.090690	-0.991074
64897	0.399035	-1.244705	9.720747	-0.173438	-0.448765	-0.016263	-0.087740	-0.012023	0.090867	-0.991918
64898	0.318828	-1.818911	9.524696	0.026508	0.118975	-0.111398	-0.078276	-0.014103	0.091126	-0.992658
64899	0.282520	-2.192180	9.371547	0.142394	0.496948	-0.197903	-0.068577	-0.016759	0.091198	-0.993327
64900	0.269618	-2.617706	9.188774	0.234623	0.941181	-0.303863	-0.058904	-0.019782	0.091067	-0.993904
64901	0.323166	-2.868601	8.983603	0.226442	1.227029	-0.459532	-0.049552	-0.022851	0.091205	-0.994336
64902	0.403631	-3.167432	8.728495	0.182901	1.566479	-0.653275	-0.040921	-0.025695	0.091565	-0.994626
64903	0.632686	-3.170171	8.702014	-0.039379	1.580912	-0.665313	-0.033083	-0.028036	0.091952	-0.994819
64904	0.742273	-2.876853	8.807550	-0.161584	1.269028	-0.605971	-0.025773	-0.029866	0.092215	-0.994957
64905	0.781438	-2.617255	8.684868	-0.219317	1.021336	-0.768555	-0.018240	-0.031584	0.092895	-0.995008
64906	0.603111	-2.667644	8.503562	-0.046484	1.075353	-0.945217	-0.010791	-0.033332	0.094024	-0.994953
64907	0.602022	-2.704690	8.493178	-0.043494	1.090268	-0.945826	-0.003601	-0.034968	0.094929	-0.994863
64908	1.081792	-2.404204	8.629690	-0.523550	0.753356	-0.836032	0.003402	-0.035557	0.095003	-0.994836
64909	1.224396	-2.190420	8.971206	-0.664928	0.468955	-0.532736	0.010745	-0.035012	0.094504	-0.994851
64910	0.764130	-2.132193	9.191498	-0.221995	0.387065	-0.356759	0.018486	-0.034330	0.093371	-0.994868
64911	0.508145	-1.923976	9.380946	0.026258	0.173802	-0.224616	0.026245	-0.034256	0.092205	-0.994804
64912	0.602909	-1.830055	9.414890	-0.073590	0.080515	-0.203273	0.033920	-0.034752	0.091691	-0.994603
64913	0.754960	-1.896074	9.350289	-0.238144	0.138902	-0.246239	0.041638	-0.035343	0.092120	-0.994249
64914	0.549653	-2.381531	9.177083	-0.087771	0.642031	-0.337842	0.049292	-0.036244	0.093142	-0.993771
64915	0.600409	-2.631866	9.260213	-0.160676	0.849078	-0.205815	0.056412	-0.037196	0.093273	-0.993345
64916	0.571362	-2.233645	9.260031	-0.093765	0.464446	-0.281723	0.063308	-0.038150	0.092359	-0.992979
64917	0.561444	-1.966194	9.132729	-0.058273	0.236395	-0.457016	0.070262	-0.039505	0.091728	-0.992516
64918	0.791631	-2.005376	9.079607	-0.288040	0.251951	-0.488471	0.076792	-0.040557	0.091482	-0.992013
64919	0.824077	-1.890990	9.095506	-0.300741	0.134198	-0.492026	0.083025	-0.041132	0.090690	-0.991560
64920	0.769935	-1.450296	9.201097	-0.171951	-0.294035	-0.472435	0.089187	-0.041343	0.089743	-0.991102
64921	0.987408	-1.013915	9.593892	-0.281528	-0.814069	-0.153299	0.095340	-0.041067	0.088865	-0.990619
64922	0.875297	-0.783274	9.897308	-0.110897	-1.062921	0.096614	0.102017	-0.040454	0.088483	-0.990014
64923	0.549269	-0.957690	10.193994	0.194934	-0.875540	0.401607	0.109346	-0.040447	0.088125	-0.989263
64924	0.401781	-1.648316	10.301507	0.203773	-0.186158	0.623941	0.116908	-0.041108	0.087083	-0.988463
64925	0.276088	-1.857036	10.380230	0.285314	0.069588	0.731859	0.124480	-0.042001	0.084191	-0.987751
64926	0.108304	-1.584895	10.511943	0.522050	-0.097242	0.805316	0.131949	-0.042864	0.080326	-0.987066
64927	0.162663	-1.155395	10.662200	0.590117	-0.461234	0.886958	0.139326	-0.043431	0.076667	-0.986319
64928	0.057598	-0.792416	10.682621	0.790114	-0.713487	0.846396	0.146772	-0.043916	0.074435	-0.985388
64929	-0.130971	-0.855610	10.594848	0.951536	-0.547162	0.760636	0.154275	-0.044803	0.073573	-0.984266
64930	-0.266162	-1.205542	10.464894	0.976906	-0.131528	0.678568	0.161662	-0.046092	0.072716	-0.983084
64931	-0.464006	-1.231746	10.472417	1.173983	-0.002080	0.676616	0.168884	-0.047849	0.070734	-0.981929
64932	-0.302214	-1.026920	10.483394	1.115942	-0.183815	0.664324	0.175932	-0.050240	0.067874	-0.980774
64933	-0.236769	-0.655759	10.442926	1.214809	-0.471548	0.572013	0.182915	-0.053042	0.065089	-0.979537
64934	-0.488136	-0.543028	10.360826	1.529703	-0.408650	0.452415	0.189900	-0.056316	0.063494	-0.978128
64935	-0.438882	-0.591705	10.158417	1.507541	-0.318564	0.255155	0.196653	-0.060263	0.063406	-0.976563
64936	-0.356604	-0.698814	9.975413	1.442849	-0.215965	0.086575	0.203397	-0.064203	0.064314	-0.974870
64937	-0.397960	-0.639427	9.806576	1.553963	-0.237491	-0.103697	0.210380	-0.067809	0.066220	-0.973014
64938	-0.597923	-0.850211	9.643456	1.693254	0.038166	-0.262417	0.217643	-0.071051	0.068677	-0.971013
64939	-0.889325	-0.983953	9.355493	1.909799	0.302798	-0.563630	0.225366	-0.074107	0.070479	-0.968892
64940	-1.054249	-1.174414	8.966929	1.953127	0.596077	-0.939901	0.233475	-0.077073	0.071025	-0.966698
64941	-0.894944	-1.005667	8.627732	1.856036	0.442276	-1.291575	0.241888	-0.079438	0.070017	-0.964509
64942	-0.624702	-0.531174	8.501361	1.828426	-0.042608	-1.470002	0.250701	-0.080726	0.068630	-0.962249
64943	-0.362983	-0.085199	8.591773	1.833585	-0.528031	-1.427184	0.260031	-0.080669	0.068081	-0.959813
64944	-0.356598	-0.272614	8.851380	1.773438	-0.379276	-1.137467	0.270227	-0.079288	0.068783	-0.957058
64945	-0.804462	-0.594076	9.287177	2.037846	0.082354	-0.697205	0.281040	-0.077270	0.070516	-0.953978
64946	-0.988046	-0.791145	9.601419	2.104542	0.289625	-0.364082	0.291905	-0.075073	0.073554	-0.950655
64947	-1.255608	-1.153213	9.879829	2.133069	0.658709	-0.038585	0.302695	-0.072666	0.077527	-0.947146
64948	-1.424237	-1.317012	10.136385	2.170879	0.795954	0.245261	0.313531	-0.069901	0.081669	-0.943473
64949	-1.549151	-1.369209	10.202034	2.192173	0.838948	0.328614	0.324681	-0.067083	0.085392	-0.939569
64950	-1.875371	-1.679762	10.052067	2.168674	1.251970	0.242737	0.336376	-0.064817	0.087939	-0.935370
64951	-2.072720	-1.817970	9.918922	2.136474	1.484759	0.148067	0.348358	-0.063085	0.088698	-0.931021
64952	-2.026588	-1.636121	9.843327	2.125946	1.347253	0.053402	0.360193	-0.061708	0.088078	-0.926658
64953	-1.871858	-1.357458	9.715621	2.099457	1.089938	-0.109922	0.372108	-0.060457	0.087322	-0.922093
64954	-2.014135	-1.321721	9.691254	2.152186	1.195979	-0.134805	0.384181	-0.059158	0.087346	-0.917211
64955	-2.376704	-1.714470	9.736968	2.066948	1.739617	-0.009748	0.396125	-0.057941	0.087681	-0.912162
64956	-2.546707	-1.833943	9.855602	2.035239	1.950774	0.138875	0.407748	-0.056836	0.087363	-0.907127
64957	-2.660605	-1.670676	9.987043	2.167421	1.948892	0.242878	0.418973	-0.056106	0.086374	-0.902138
64958	-2.688965	-1.454701	10.085561	2.284009	1.873576	0.303512	0.429872	-0.055851	0.084875	-0.897155
64959	-2.778210	-1.187012	10.040033	2.467484	1.850165	0.208159	0.440445	-0.056387	0.083046	-0.892150
64960	-2.788665	-1.049446	9.813167	2.487268	1.880253	-0.042653	0.450893	-0.057769	0.081002	-0.887016
64961	-2.517362	-0.782590	9.531991	2.450993	1.618942	-0.369204	0.461369	-0.059711	0.079206	-0.881646
64962	-2.262203	-0.676797	9.158118	2.303800	1.461211	-0.757099	0.471960	-0.062076	0.078294	-0.875940
64963	-1.585946	-0.698899	8.791412	1.843956	0.994858	-1.100481	0.482781	-0.064266	0.078434	-0.869851
64964	-1.149636	-0.966795	8.653913	1.364122	0.802119	-1.173108	0.494042	-0.065353	0.079156	-0.863358
64965	-1.073466	-1.298785	8.759840	1.042788	0.894549	-0.998709	0.505788	-0.064603	0.079808	-0.856526
64966	-1.115082	-1.485965	9.122710	0.913026	0.973830	-0.598955	0.517860	-0.062067	0.079953	-0.849456
64967	-1.493143	-1.542293	9.546951	1.022790	1.277990	-0.165301	0.530181	-0.058595	0.079468	-0.842116
64968	-1.794292	-1.406944	9.899631	1.226245	1.446687	0.167498	0.542369	-0.055559	0.078761	-0.834593
64969	-1.617407	-1.327233	10.070795	1.158881	1.226863	0.333726	0.554287	-0.053400	0.078599	-0.826883
64970	-1.721308	-1.414472	10.113773	1.052838	1.332758	0.403327	0.566194	-0.051966	0.079314	-0.818800
64971	-2.072209	-1.757223	10.073714	0.792999	1.752341	0.442149	0.577936	-0.051029	0.080603	-0.810487
64972	-2.337538	-2.063948	10.035186	0.524759	2.067808	0.476981	0.589269	-0.050355	0.081627	-0.802224
64973	-1.967449	-1.974000	10.098538	0.444597	1.649395	0.523146	0.599983	-0.049487	0.082183	-0.794240
64974	-1.814058	-1.520459	10.268169	0.804210	1.341021	0.608088	0.610344	-0.048714	0.082656	-0.786305
64975	-1.966656	-1.252687	10.345950	1.066349	1.406375	0.644872	0.620658	-0.048854	0.083084	-0.778135
64976	-2.010602	-1.390295	10.210684	0.885937	1.495521	0.541633	0.631082	-0.050044	0.083040	-0.769633
64977	-1.781857	-1.449459	9.947635	0.707821	1.320431	0.286161	0.641603	-0.051668	0.082511	-0.760834
64978	-1.373866	-1.623208	9.633368	0.388921	0.984977	-0.004394	0.652417	-0.053145	0.082039	-0.751530
64979	-1.191846	-1.928472	9.509966	0.022397	0.856362	-0.073845	0.663031	-0.054030	0.081706	-0.742156
64980	-1.207544	-2.125803	9.521564	-0.197658	0.870938	-0.022917	0.673918	-0.053873	0.081404	-0.732329
64981	-1.418327	-2.178197	9.700568	-0.245601	1.041240	0.172920	0.684698	-0.053030	0.080802	-0.722390
64982	-1.516250	-2.101131	9.871637	-0.192213	1.091439	0.332974	0.695360	-0.052264	0.079982	-0.712283
64983	-1.500439	-2.286313	9.836867	-0.435369	1.053815	0.333354	0.705562	-0.052271	0.079049	-0.702283
64984	-1.649536	-2.604737	9.808296	-0.803459	1.173812	0.369877	0.715411	-0.052500	0.077942	-0.692355
64985	-1.844665	-2.695611	9.702454	-0.974711	1.338047	0.290081	0.725073	-0.052624	0.076397	-0.682395
64986	-1.896879	-2.556511	9.650422	-0.913140	1.381742	0.213336	0.734047	-0.053085	0.074263	-0.672936
64987	-1.712555	-2.294177	9.575347	-0.714315	1.217946	0.081223	0.742628	-0.053910	0.072019	-0.663635
64988	-1.648453	-2.155791	9.271292	-0.673135	1.181394	-0.248548	0.750976	-0.055473	0.070081	-0.654253
64989	-1.396949	-2.093244	9.032024	-0.647934	0.953813	-0.507796	0.758953	-0.057716	0.068831	-0.644920
64990	-1.353998	-2.246087	8.858735	-0.829339	0.894316	-0.654751	0.766573	-0.060097	0.068114	-0.635700
64991	-1.564710	-2.267203	8.853583	-0.895858	1.097282	-0.649289	0.773938	-0.062230	0.067370	-0.626585
64992	-1.217187	-2.252073	8.891796	-0.814685	0.757257	-0.626815	0.781066	-0.063811	0.066402	-0.617620
64993	-0.903851	-1.825866	9.044876	-0.320834	0.545817	-0.562841	0.788074	-0.064575	0.065567	-0.608663
64994	-1.041410	-1.388701	9.292333	0.094530	0.785988	-0.392827	0.795253	-0.065347	0.065483	-0.599178
64995	-1.309116	-1.376472	9.494192	0.067418	1.045226	-0.187143	0.802503	-0.066816	0.066057	-0.589204
64996	-1.248546	-1.707715	9.538837	-0.206772	0.883345	-0.084302	0.809742	-0.068668	0.066960	-0.578895
64997	-1.578338	-1.964112	9.581895	-0.529669	1.101159	0.019324	0.817017	-0.070423	0.067678	-0.568282
64998	-1.760273	-2.184219	9.621774	-0.784298	1.177720	0.109294	0.824148	-0.072009	0.067957	-0.557653
64999	-1.617987	-2.159421	9.688924	-0.700734	1.035120	0.166976	0.830995	-0.073231	0.068001	-0.547229
65000	-1.622396	-2.088325	9.796840	-0.625429	1.048389	0.261091	0.837654	-0.074164	0.067973	-0.536857
65001	-1.828620	-2.098279	9.918868	-0.708932	1.214984	0.392788	0.844186	-0.075218	0.067690	-0.526412
65002	-2.187930	-2.230450	9.800269	-1.025514	1.456490	0.318161	0.850573	-0.076682	0.066957	-0.515909
65003	-2.381269	-2.345072	9.666575	-1.268529	1.554325	0.216634	0.856740	-0.078415	0.065756	-0.505494
65004	-2.382448	-2.383520	9.546198	-1.360052	1.516737	0.103802	0.862628	-0.079989	0.064310	-0.495317
65005	-2.116353	-2.349900	9.524434	-1.239055	1.283002	0.063259	0.868272	-0.080788	0.063002	-0.485394
65006	-1.851875	-2.206939	9.682412	-0.991356	1.109484	0.179063	0.873854	-0.080268	0.061826	-0.475514
65007	-1.987719	-1.846081	9.910861	-0.773686	1.388445	0.339031	0.879417	-0.079094	0.060643	-0.465502
65008	-2.291275	-1.578808	10.059703	-0.757728	1.754766	0.448228	0.884962	-0.078346	0.059335	-0.455174
65009	-2.490094	-1.742163	10.079930	-1.060671	1.784693	0.508654	0.890425	-0.078023	0.057911	-0.444638
65010	-2.826647	-1.731419	10.029863	-1.329555	2.015120	0.471127	0.895841	-0.077640	0.056101	-0.433928
65011	-2.905163	-1.621479	9.877415	-1.396686	2.090409	0.302217	0.901180	-0.077509	0.053937	-0.423034
65012	-2.949328	-1.630850	9.672157	-1.542524	2.065385	0.100086	0.906381	-0.077949	0.051850	-0.411958
65013	-3.135740	-1.871208	9.447650	-1.946573	1.995265	-0.075044	0.911351	-0.078765	0.049979	-0.400920
65014	-3.049875	-2.050295	9.348264	-2.093715	1.761880	-0.147948	0.916051	-0.079273	0.048285	-0.390172
65015	-2.952394	-1.966543	9.465680	-2.002454	1.708870	-0.052951	0.920501	-0.079000	0.047069	-0.379765
65016	-2.863062	-1.744490	9.716386	-1.798866	1.764295	0.152214	0.924857	-0.078104	0.046162	-0.369334
65017	-3.033311	-1.479777	9.887245	-1.770697	2.021761	0.283093	0.929132	-0.077211	0.045338	-0.358743
65018	-3.137992	-1.308153	9.948294	-1.780395	2.164772	0.319947	0.933287	-0.077224	0.044449	-0.347903
65019	-3.320442	-1.460531	9.673474	-2.103354	2.100412	0.081680	0.937248	-0.078685	0.043466	-0.336877
65020	-3.205842	-1.837749	9.289036	-2.340745	1.671450	-0.238347	0.940956	-0.081057	0.042454	-0.325929
65021	-3.101703	-2.035115	9.016937	-2.437978	1.402796	-0.476961	0.944374	-0.083694	0.041727	-0.315295
65022	-2.863269	-2.225467	8.953792	-2.378790	1.079434	-0.512283	0.947513	-0.085707	0.041317	-0.305232
65023	-2.934586	-2.134001	9.065346	-2.379143	1.176083	-0.415741	0.950527	-0.086718	0.040756	-0.295496
65024	-3.151184	-1.961050	9.244081	-2.461787	1.422203	-0.265679	0.953393	-0.087284	0.039486	-0.286118
65025	-2.911281	-1.832485	9.309848	-2.222507	1.367900	-0.236889	0.956021	-0.088072	0.037666	-0.277215
65026	-2.728540	-1.837420	9.324004	-2.108383	1.243967	-0.233272	0.958429	-0.089154	0.035901	-0.268655
65027	-2.718367	-1.878460	9.411874	-2.144647	1.198172	-0.144893	0.960628	-0.090246	0.034238	-0.260531
65028	-2.920597	-1.914729	9.430228	-2.371281	1.255059	-0.121097	0.962641	-0.091169	0.032220	-0.252928
65029	-3.097950	-1.776719	9.287532	-2.525397	1.421545	-0.293575	0.964477	-0.092006	0.029326	-0.245884
65030	-2.414208	-1.497419	9.175941	-1.867520	1.309724	-0.481814	0.966076	-0.093122	0.026062	-0.239471
65031	-1.163462	-1.012310	9.311643	-0.575416	1.176219	-0.465476	0.967519	-0.094438	0.024090	-0.233256
65032	-0.689426	-0.576650	9.582222	0.047948	1.405879	-0.291765	0.969028	-0.095927	0.023962	-0.226293
65033	-0.790547	-0.310258	9.928054	0.106629	1.766919	-0.006869	0.970785	-0.097627	0.024631	-0.217802
65034	-1.230069	-0.340262	9.993076	-0.297737	1.973241	0.061924	0.972663	-0.100521	0.024747	-0.207871
65035	-1.508291	-0.773807	9.705949	-0.767440	1.699450	-0.137890	0.974498	-0.104894	0.023506	-0.196973
65036	-1.641929	-1.445798	9.151197	-1.218455	1.101192	-0.548076	0.976308	-0.110154	0.021720	-0.184978
65037	-1.733683	-2.425334	8.616240	-1.705960	0.195644	-0.858434	0.977930	-0.115784	0.020010	-0.172762
65038	-1.561323	-3.161304	8.330055	-1.791881	-0.551331	-0.963602	0.979320	-0.120789	0.019195	-0.161161
65039	-1.241333	-3.522774	8.434844	-1.543177	-0.931007	-0.765650	0.980499	-0.124411	0.019757	-0.150844
65040	-1.077525	-3.764142	8.836132	-1.353708	-1.098917	-0.306563	0.981605	-0.126222	0.021516	-0.141622
65041	-0.999972	-3.557914	9.357893	-1.101626	-0.825994	0.153879	0.982831	-0.125898	0.023604	-0.132797
65042	-0.939357	-3.078846	9.765763	-0.818181	-0.339188	0.431673	0.984041	-0.125040	0.025284	-0.124050
65043	-1.104163	-2.767729	10.082648	-0.831553	0.038964	0.668066	0.985023	-0.125292	0.025657	-0.115642
65044	-0.655366	-2.671865	9.993308	-0.363835	0.009088	0.545982	0.985732	-0.127273	0.024746	-0.107335
65045	-0.302643	-2.888322	9.753297	-0.079184	-0.288318	0.359388	0.986329	-0.130212	0.023157	-0.098307
65046	-0.446910	-3.231748	9.428246	-0.305887	-0.611451	0.140606	0.986866	-0.133300	0.021303	-0.088732
65047	-0.449708	-3.551769	9.162288	-0.372910	-0.936475	-0.027565	0.987357	-0.135839	0.019532	-0.079318
65048	-0.178931	-3.523631	9.028605	-0.094670	-0.953652	-0.166695	0.987812	-0.137689	0.018239	-0.070257
65049	0.199275	-3.251824	9.124620	0.346218	-0.694145	-0.155002	0.988219	-0.139098	0.017796	-0.061303
65050	0.232651	-3.204459	9.288703	0.431525	-0.580234	-0.010669	0.988557	-0.140394	0.018175	-0.052101
65051	0.035046	-3.349270	9.482345	0.280291	-0.619901	0.220787	0.988857	-0.141410	0.018800	-0.042556
65052	-0.129599	-3.592992	9.532372	0.152573	-0.808738	0.341865	0.989132	-0.142052	0.019242	-0.032688
65053	-0.391910	-3.850685	9.585427	-0.069104	-1.013860	0.474629	0.989327	-0.142615	0.019336	-0.022785
65054	-0.559073	-4.131666	9.580776	-0.197703	-1.265036	0.557215	0.989340	-0.143763	0.019101	-0.013199
65055	-0.804165	-4.467569	9.429176	-0.413452	-1.600149	0.520928	0.989171	-0.145574	0.018206	-0.004092
65056	-0.751389	-4.758787	9.105434	-0.343567	-1.938306	0.298904	0.988834	-0.148032	0.016562	0.004442
65057	-0.630591	-5.090388	8.703083	-0.210729	-2.328678	0.015129	0.988409	-0.150624	0.014521	0.012229
65058	-0.376912	-5.175536	8.456605	0.055909	-2.435992	-0.194733	0.988009	-0.152697	0.012614	0.019024
65059	-0.180091	-4.857297	8.579502	0.260409	-2.055751	-0.172170	0.987677	-0.154072	0.011335	0.025040
65060	-0.281868	-4.550568	8.715602	0.161892	-1.702584	-0.126420	0.987373	-0.155079	0.010201	0.030673
65061	-0.248066	-4.316344	8.836924	0.192331	-1.420461	-0.079813	0.987045	-0.156102	0.008809	0.036018
65062	-0.188087	-4.272167	8.797501	0.249842	-1.364748	-0.129826	0.986679	-0.157201	0.007165	0.041248
65063	0.061475	-4.252615	8.691877	0.494310	-1.338804	-0.241874	0.986343	-0.157970	0.005556	0.046286
65064	-0.151098	-4.210577	8.583718	0.277571	-1.336827	-0.348658	0.986034	-0.158378	0.004030	0.051347
65065	-0.464962	-4.223238	8.414898	-0.032897	-1.429372	-0.495056	0.985791	-0.158205	0.002412	0.056411
65066	-0.831772	-4.245215	8.357174	-0.392101	-1.518600	-0.533887	0.985613	-0.157540	0.001036	0.061206
65067	-1.008434	-4.243501	8.420864	-0.560470	-1.541765	-0.472240	0.985555	-0.156218	0.000160	0.065407
65068	-0.778320	-4.057270	8.710127	-0.343471	-1.282201	-0.264317	0.985620	-0.154353	0.000213	0.068764
65069	-0.661407	-3.919863	9.143911	-0.223221	-1.049035	0.100098	0.985800	-0.151875	0.001121	0.071625
65070	-0.954394	-3.686871	9.547258	-0.515916	-0.810258	0.421120	0.986141	-0.148392	0.001994	0.074180
65071	-1.009690	-3.232068	9.918773	-0.615488	-0.358558	0.643880	0.986551	-0.144466	0.002103	0.076439
65072	-1.004025	-2.842382	10.026538	-0.664466	-0.037061	0.636013	0.986848	-0.141174	0.001218	0.078741
65073	-0.829821	-2.614446	9.925502	-0.540132	0.117791	0.470002	0.986926	-0.139157	-0.000313	0.081316
65074	-0.820807	-2.800367	9.678814	-0.518192	-0.156624	0.281970	0.986765	-0.138538	-0.001838	0.084254
65075	-1.098817	-3.147023	9.355116	-0.745995	-0.629619	0.070450	0.986484	-0.138660	-0.003196	0.087251
65076	-1.387095	-3.451821	9.064095	-0.984564	-1.052481	-0.121463	0.986225	-0.138624	-0.004582	0.090129
65077	-1.314140	-3.443226	8.808692	-0.918727	-1.111921	-0.373653	0.986014	-0.138217	-0.005897	0.092935
65078	-1.243816	-3.394160	8.666226	-0.861160	-1.104382	-0.527775	0.985798	-0.137866	-0.006856	0.095644
65079	-0.943735	-3.552313	8.605628	-0.534430	-1.223840	-0.550776	0.985594	-0.137543	-0.007305	0.098147
65080	-0.868337	-3.613917	8.844485	-0.442550	-1.215522	-0.306589	0.985458	-0.136729	-0.006814	0.100655
65081	-1.257259	-3.618688	9.101341	-0.803363	-1.248592	-0.050233	0.985369	-0.135547	-0.005899	0.103153
65082	-1.639888	-3.538894	9.237029	-1.170916	-1.237327	0.068285	0.985257	-0.134679	-0.005419	0.105361
65083	-1.868194	-3.789487	9.148478	-1.326862	-1.557633	0.054339	0.985069	-0.134585	-0.005802	0.107200
65084	-1.807178	-3.965094	9.167397	-1.232652	-1.708671	0.116564	0.984925	-0.134769	-0.006474	0.108254
65085	-1.502328	-3.750866	9.271807	-0.992019	-1.414868	0.152573	0.984876	-0.134851	-0.007059	0.108556
65086	-1.344051	-3.446173	9.351541	-0.916392	-1.070245	0.144655	0.984797	-0.135268	-0.007740	0.108706
65087	-1.836130	-3.423251	9.154406	-1.418091	-1.194009	-0.042508	0.984598	-0.136405	-0.009457	0.108952
65088	-2.162452	-3.719492	8.581233	-1.696227	-1.672858	-0.513634	0.984311	-0.138204	-0.012464	0.108979
65089	-1.779392	-3.792370	7.991849	-1.340046	-1.785568	-1.070061	0.984001	-0.140583	-0.015786	0.108300
65090	-0.668967	-3.891394	7.611818	-0.270747	-1.702130	-1.412728	0.983755	-0.143458	-0.017774	0.106446
65091	0.795280	-3.738660	7.719250	1.096792	-1.178722	-1.350747	0.983727	-0.145852	-0.016898	0.103549
65092	1.408285	-3.392572	8.406047	1.613936	-0.511278	-0.796701	0.983952	-0.146860	-0.013181	0.100483
65093	1.463491	-2.927302	9.483738	1.604056	0.239736	0.087859	0.984391	-0.146018	-0.007724	0.097941
65094	0.599195	-2.457431	10.414603	0.740870	0.749441	0.852688	0.984856	-0.143764	-0.002550	0.096870
65095	-0.442724	-2.374165	10.805726	-0.218204	0.694536	1.235654	0.985190	-0.141215	0.000141	0.097256
65096	-0.962110	-2.584330	10.508509	-0.650762	0.272147	1.028693	0.985319	-0.139618	-0.000276	0.098249
65097	-0.896564	-2.891361	9.836896	-0.536599	-0.210161	0.463307	0.985205	-0.139574	-0.002592	0.099419
65098	-0.627351	-3.456112	9.018328	-0.185325	-0.907829	-0.178902	0.984933	-0.140740	-0.005031	0.100368
65099	-0.188319	-3.758417	8.527776	0.286824	-1.221695	-0.576387	0.984737	-0.141912	-0.006140	0.100583
65100	0.283310	-3.555084	8.445009	0.705752	-0.942900	-0.721489	0.984681	-0.142686	-0.005427	0.100072
65101	0.320156	-3.285871	8.698635	0.701261	-0.598241	-0.554396	0.984674	-0.143278	-0.003500	0.099383
65102	0.058331	-3.074140	9.013622	0.429396	-0.351171	-0.305253	0.984709	-0.143567	-0.001281	0.098669
65103	-0.304605	-2.976495	9.139141	0.085380	-0.285260	-0.200847	0.984718	-0.143876	0.000391	0.098136
65104	-0.168771	-3.220594	9.063339	0.291802	-0.503964	-0.210309	0.984778	-0.143982	0.001615	0.097354
65105	-0.025425	-3.111388	9.057933	0.432982	-0.380316	-0.252595	0.984995	-0.143252	0.002991	0.096200
65106	0.052472	-2.708549	9.173566	0.459493	0.026474	-0.258562	0.985308	-0.141803	0.004798	0.095064
65107	-0.159974	-2.331732	9.297517	0.213772	0.351048	-0.234729	0.985599	-0.140299	0.006689	0.094162
65108	-0.369982	-2.110673	9.204021	-0.000815	0.476584	-0.374540	0.985750	-0.139524	0.008190	0.093611
65109	-0.389948	-2.217895	8.866359	0.023660	0.276186	-0.669024	0.985728	-0.139790	0.009253	0.093350
65110	-0.353357	-2.533814	8.442787	0.135210	-0.121650	-0.992676	0.985640	-0.140535	0.010245	0.093050
65111	-0.472160	-2.693625	8.199627	0.066936	-0.351035	-1.176445	0.985633	-0.140719	0.011701	0.092675
65112	-0.694257	-2.496201	8.077130	-0.159629	-0.237697	-1.335013	0.985711	-0.140228	0.013812	0.092295
65113	-1.274978	-1.986969	7.780547	-0.794666	0.059435	-1.720999	0.985672	-0.140369	0.015789	0.092184
65114	-0.947174	-2.169803	7.393101	-0.416937	-0.146453	-2.062350	0.985430	-0.142000	0.017447	0.091972
65115	-0.327912	-2.760662	7.002166	0.322875	-0.679337	-2.316473	0.985236	-0.143486	0.020037	0.091213
65116	-0.301914	-2.837580	7.060687	0.411135	-0.720059	-2.242450	0.985326	-0.142891	0.024417	0.090102
65117	-0.709931	-2.325486	7.434003	0.001294	-0.214001	-1.994132	0.985579	-0.140742	0.030085	0.089002
65118	-1.639184	-1.763548	7.638581	-0.917776	0.203748	-1.859043	0.985631	-0.139400	0.035706	0.088455
65119	-1.919334	-2.237262	7.602815	-1.026980	-0.295349	-1.728777	0.985439	-0.139982	0.040403	0.087653
65120	-1.818547	-2.774379	7.582337	-0.758983	-0.775574	-1.607926	0.985338	-0.140218	0.045319	0.085985
65121	-1.729215	-2.558619	7.580758	-0.630078	-0.556431	-1.670370	0.985446	-0.138606	0.051237	0.084025
65122	-2.217748	-1.515504	7.777103	-1.185400	0.403071	-1.680650	0.985483	-0.136949	0.057337	0.082350
65123	-2.055811	-1.518052	7.506681	-0.960152	0.355064	-1.949326	0.985148	-0.137581	0.063095	0.081085
65124	-2.062017	-2.198169	7.198483	-0.789185	-0.347209	-2.056542	0.984580	-0.139210	0.069603	0.079867
65125	-2.376060	-2.693860	7.057153	-0.923823	-0.871007	-1.996499	0.984094	-0.139450	0.077220	0.078422
65126	-3.173279	-1.950858	7.271173	-1.682521	-0.195000	-1.820492	0.983665	-0.138461	0.085548	0.076891
65127	-3.811078	-1.475660	6.947050	-2.317405	0.105579	-2.093832	0.982915	-0.139523	0.092794	0.076168
65128	-3.212546	-2.156938	6.595313	-1.573098	-0.521059	-2.347859	0.981837	-0.142663	0.099960	0.075168
65129	-2.742683	-2.988252	6.442725	-0.886914	-1.244781	-2.354604	0.980711	-0.144405	0.109506	0.073218
65130	-3.161152	-2.687379	6.810740	-1.115557	-0.867930	-1.964081	0.979665	-0.142999	0.121734	0.070624
65131	-4.973330	-1.152171	7.211610	-2.835134	0.537104	-1.461731	0.978451	-0.141238	0.134067	0.068636
65132	-5.728937	-1.478848	6.829223	-3.413407	0.075631	-1.446902	0.976959	-0.142537	0.143659	0.067798
65133	-4.393255	-2.389413	6.540045	-1.918686	-0.700151	-1.837194	0.975332	-0.144617	0.153256	0.065778
65134	-3.853443	-2.709544	6.443330	-1.223590	-0.938929	-1.981619	0.973502	-0.144774	0.165560	0.062641
65135	-4.303418	-1.805400	6.983431	-1.417902	0.074754	-1.534640	0.971373	-0.142412	0.180722	0.059105
65136	-6.119581	-0.109889	7.544488	-2.921305	1.775168	-0.719395	0.968548	-0.142340	0.195855	0.057408
65137	-6.979618	-0.697090	7.209244	-3.469063	1.143379	-0.441120	0.965207	-0.146410	0.208779	0.057894
65138	-6.915735	-1.561259	6.622558	-3.260458	0.256339	-0.679171	0.961476	-0.152729	0.220791	0.059076
65139	-6.503566	-2.814652	5.927121	-2.726860	-1.014143	-1.044625	0.957377	-0.158455	0.233923	0.060016
65140	-6.791468	-3.074689	6.318945	-2.495319	-1.035947	-0.421286	0.952944	-0.161116	0.249899	0.059074
65141	-7.373699	-2.356759	7.117341	-2.432963	-0.028915	0.417169	0.948342	-0.160121	0.268176	0.055593
65142	-7.549020	-0.950431	7.738333	-2.151009	1.552497	0.709743	0.943604	-0.157487	0.286602	0.051657
65143	-7.519184	-0.152279	8.240434	-1.596536	2.507833	0.939677	0.938460	-0.155627	0.304483	0.048618
65144	-8.106223	0.393035	8.687694	-1.509721	3.222899	1.530214	0.932864	-0.156531	0.320849	0.048146
65145	-8.083604	-0.178319	8.441324	-1.144289	2.677392	1.507328	0.926745	-0.159593	0.336321	0.050611
65146	-8.589213	-1.122089	7.666472	-1.463514	1.612471	1.547627	0.920698	-0.163136	0.350142	0.055705
65147	-8.730155	-2.072317	6.742942	-1.623576	0.456599	1.283470	0.914974	-0.166043	0.362556	0.061686
65148	-8.892004	-3.057339	6.028292	-1.668724	-0.698774	1.208868	0.909729	-0.166380	0.374561	0.066451
65149	-8.537203	-3.613057	6.132749	-0.901375	-1.217415	1.198461	0.904751	-0.161663	0.388246	0.067498
65150	-8.996570	-2.342811	6.878755	-0.660739	0.138996	1.731772	0.899668	-0.151452	0.404341	0.064563
65151	-9.917462	-0.862496	7.128529	-1.024121	1.472383	2.298470	0.894565	-0.138484	0.420534	0.061048
65152	-10.484994	-0.838706	6.863828	-1.162206	1.220654	2.632885	0.889819	-0.125062	0.434835	0.059164
65153	-10.280950	-2.033143	6.350407	-0.801590	-0.298325	2.410780	0.885197	-0.110958	0.448154	0.057198
65154	-9.549788	-3.293043	6.724851	0.514210	-1.673349	2.195095	0.879676	-0.095191	0.463094	0.051508
65155	-9.857702	-2.049926	8.093532	1.646047	-0.451354	2.991225	0.872062	-0.076149	0.481789	0.039864
65156	-10.567150	0.299604	8.748706	2.036199	1.646476	3.655706	0.863778	-0.056790	0.499872	0.028122
65157	-10.627531	0.831452	8.597710	2.369703	1.815353	3.552025	0.856175	-0.040317	0.514697	0.020639
65158	-10.699303	-0.692693	7.962492	2.300600	-0.059485	3.341964	0.850200	-0.027461	0.525477	0.016715
65159	-10.274956	-3.459015	6.999469	2.035601	-3.121778	2.541885	0.844886	-0.015960	0.534580	0.011717
65160	-10.620909	-4.601254	7.253312	2.329915	-4.462839	2.885123	0.838582	-0.002306	0.544771	-0.000460
65161	-11.381907	-2.546944	7.694046	2.593703	-2.612978	3.665868	0.832099	0.013674	0.554119	-0.019390
65162	-10.953793	0.034246	7.887875	3.260837	-0.253100	3.283154	0.826494	0.028139	0.560875	-0.039177
65163	-10.380923	1.031634	7.493587	3.392730	0.604361	2.560764	0.822291	0.038080	0.565067	-0.055557
65164	-9.578712	-0.141893	6.559869	2.777395	-0.544176	1.447545	0.818665	0.043883	0.568416	-0.069025
65165	-8.943091	-1.052949	6.712669	3.085603	-1.520644	0.879045	0.813672	0.048342	0.573328	-0.083040
65166	-9.206317	0.131109	7.182442	3.814167	-0.432118	1.215600	0.807343	0.052391	0.579529	-0.097972
65167	-9.510101	2.365747	7.265985	4.496423	1.756878	1.391083	0.801889	0.053914	0.584830	-0.109732
65168	-9.335422	2.970835	6.964335	4.581222	2.440829	1.028454	0.798889	0.050563	0.588231	-0.114910
65169	-9.317261	1.249629	6.426058	3.723402	1.001877	0.901706	0.799324	0.044683	0.588030	-0.115348
65170	-9.328885	0.074699	6.458587	3.415434	-0.034315	1.007619	0.802550	0.041511	0.583809	-0.115573
65171	-8.928984	0.643109	7.265843	4.254226	0.327358	0.898183	0.808000	0.044392	0.575519	-0.118080
65172	-8.271237	1.073479	6.642752	3.772100	0.745772	0.132278	0.813530	0.049873	0.566144	-0.123137
65173	-7.621083	2.389430	5.763769	3.349789	2.077552	-0.786493	0.817762	0.053934	0.558439	-0.128464
65174	-7.509869	2.513050	4.730899	2.386597	2.412615	-1.234930	0.820275	0.055265	0.553966	-0.131210
65175	-7.601153	1.794194	3.696880	1.173975	1.987741	-1.485975	0.821399	0.055286	0.552495	-0.130367
65176	-7.974369	1.072637	3.135461	0.323246	1.463054	-1.308156	0.821364	0.055783	0.553422	-0.126382
65177	-8.384422	-0.091947	2.706409	-0.506015	0.443170	-1.027551	0.820497	0.056831	0.555792	-0.121037
65178	-9.056477	-0.838907	2.617056	-0.973696	-0.248903	-0.401971	0.818891	0.059088	0.558769	-0.117062
65179	-9.315708	-0.957966	2.854027	-0.821937	-0.470350	-0.068563	0.816908	0.062086	0.561759	-0.115038
65180	-9.663283	-0.792354	3.187082	-0.536230	-0.423128	0.370491	0.815013	0.065245	0.564346	-0.114068
65181	-9.880228	-0.539246	3.349453	-0.349502	-0.258660	0.624701	0.813814	0.067742	0.565970	-0.113117
65182	-9.962164	-0.552184	3.211709	-0.483939	-0.276960	0.654101	0.813585	0.068721	0.566484	-0.111592
65183	-9.799310	-0.902808	2.867198	-0.837211	-0.574247	0.386904	0.814036	0.068495	0.566159	-0.110080
65184	-9.545903	-1.086761	2.691930	-0.972050	-0.741708	0.089675	0.814506	0.067927	0.565683	-0.109398
65185	-9.398619	-0.981191	2.828624	-0.780023	-0.682738	-0.003339	0.814629	0.067784	0.565459	-0.109734
65186	-9.475980	-0.601961	3.236940	-0.338240	-0.400441	0.205275	0.814469	0.068188	0.565463	-0.110642
65187	-9.427984	-0.500423	3.551303	-0.010026	-0.379217	0.267251	0.814298	0.068858	0.565388	-0.111865
65188	-9.273452	-0.355298	3.862583	0.355650	-0.327130	0.227690	0.814373	0.069803	0.564823	-0.113573
65189	-9.131772	-0.071494	4.009347	0.595353	-0.098420	0.142465	0.814732	0.070639	0.563814	-0.115480
65190	-8.881345	0.036233	3.971420	0.651233	-0.001549	-0.105596	0.815261	0.071162	0.562608	-0.117289
65191	-8.764363	0.087596	3.926055	0.641681	0.058671	-0.230392	0.815689	0.071669	0.561554	-0.119046
65192	-8.797367	0.026885	3.823666	0.504990	0.040199	-0.233639	0.815914	0.072318	0.560780	-0.120747
65193	-8.983263	-0.073659	3.782732	0.366611	-0.018308	-0.072114	0.815909	0.073369	0.560231	-0.122679
65194	-9.258555	-0.140519	3.750255	0.218151	-0.040007	0.175096	0.815806	0.074759	0.559753	-0.124693
65195	-9.326083	-0.267334	3.623832	0.035835	-0.120129	0.195495	0.815819	0.076179	0.559114	-0.126595
65196	-9.245643	-0.412562	3.492271	-0.110784	-0.231613	0.075798	0.815906	0.077478	0.558364	-0.128550
65197	-9.207962	-0.517397	3.376631	-0.247150	-0.298704	0.000853	0.816006	0.078549	0.557594	-0.130589
65198	-9.169913	-0.523644	3.305229	-0.313851	-0.279738	-0.060290	0.816037	0.079733	0.556810	-0.133001
65199	-9.220501	-0.310298	3.314901	-0.268627	-0.061937	-0.013377	0.815999	0.080936	0.556089	-0.135502
65200	-9.232072	-0.154455	3.410692	-0.147595	0.070277	0.029117	0.815892	0.082096	0.555501	-0.137841
65201	-9.243908	-0.130555	3.447973	-0.117958	0.092418	0.053058	0.815817	0.083053	0.554967	-0.139848
65202	-9.167375	-0.135905	3.474388	-0.078255	0.077752	-0.008687	0.815845	0.083830	0.554369	-0.141580
65203	-9.060127	-0.171739	3.459096	-0.075544	0.042586	-0.113553	0.815888	0.084393	0.553833	-0.143082
65204	-9.085832	-0.163827	3.466891	-0.081451	0.060675	-0.087041	0.815905	0.084741	0.553419	-0.144377
65205	-9.084655	-0.111560	3.530150	-0.011821	0.100809	-0.066147	0.815870	0.084890	0.553155	-0.145498
65206	-9.056524	-0.058641	3.634884	0.107182	0.125000	-0.055160	0.815751	0.084938	0.553063	-0.146485
65207	-9.102406	-0.035119	3.736747	0.190863	0.131908	0.024206	0.815638	0.084925	0.553016	-0.147296
65208	-9.117631	0.088217	3.747289	0.238483	0.255636	0.039162	0.815583	0.084719	0.552994	-0.147800
65209	-9.115635	0.047951	3.690956	0.178234	0.243136	0.017336	0.815572	0.084262	0.553053	-0.147901
65210	-9.187044	-0.122235	3.665757	0.077622	0.107837	0.078563	0.815543	0.083824	0.553197	-0.147771
65211	-9.272986	-0.218111	3.607649	-0.032072	0.052250	0.139559	0.815512	0.083655	0.553242	-0.147868
65212	-9.273166	-0.191612	3.622074	-0.010053	0.076108	0.144313	0.815502	0.083711	0.553162	-0.148196
65213	-9.155777	-0.149624	3.624673	0.045831	0.100802	0.034984	0.815452	0.083767	0.553118	-0.148597
65214	-9.021960	-0.198707	3.571254	0.028828	0.055188	-0.107780	0.815368	0.083698	0.553160	-0.148939
65215	-9.006829	-0.220224	3.541608	0.004126	0.046723	-0.132178	0.815228	0.083546	0.553298	-0.149281
65216	-9.007524	-0.270891	3.555386	0.004078	0.000779	-0.125086	0.815031	0.083458	0.553461	-0.149803
65217	-8.982384	-0.258061	3.669501	0.122750	-0.020841	-0.107042	0.814790	0.083624	0.553603	-0.150491
65218	-8.969960	-0.302419	3.742300	0.179697	-0.084488	-0.090701	0.814543	0.084202	0.553607	-0.151486
65219	-8.972334	-0.242422	3.782645	0.236383	-0.040494	-0.075520	0.814306	0.085007	0.553518	-0.152634
65220	-9.049671	-0.050448	3.815788	0.306307	0.139771	0.002910	0.814138	0.085643	0.553424	-0.153514
65221	-9.078468	0.018289	3.737822	0.253396	0.233136	-0.000875	0.814084	0.085573	0.553497	-0.153577
65222	-9.247698	-0.241673	3.611044	-0.001248	0.056205	0.117811	0.814075	0.085098	0.553741	-0.153006
65223	-9.327629	-0.575111	3.458689	-0.272043	-0.195487	0.146516	0.814055	0.084569	0.553992	-0.152499
65224	-9.354223	-0.699915	3.401862	-0.369388	-0.287497	0.154505	0.813966	0.084383	0.554093	-0.152710
65225	-9.284604	-0.514099	3.439676	-0.246510	-0.128474	0.098027	0.813841	0.084437	0.554023	-0.153594
65226	-9.197479	-0.419127	3.454532	-0.170661	-0.047536	0.019489	0.813711	0.084565	0.553884	-0.154711
65227	-9.084275	-0.290909	3.556184	0.002162	0.033701	-0.052873	0.813530	0.084684	0.553809	-0.155864
65228	-9.061262	-0.135141	3.666065	0.164988	0.151707	-0.039535	0.813288	0.084598	0.553920	-0.156778
65229	-9.092363	-0.116914	3.676212	0.176439	0.179836	-0.007802	0.813098	0.084355	0.554092	-0.157282
65230	-9.121250	-0.170917	3.675644	0.152893	0.142054	0.020583	0.813000	0.084024	0.554216	-0.157532
65231	-9.087164	-0.299054	3.608326	0.063802	0.045458	-0.031080	0.812941	0.083704	0.554280	-0.157782
65232	-9.086431	-0.292798	3.594123	0.055555	0.063163	-0.037228	0.812933	0.083485	0.554222	-0.158138
65233	-9.099694	-0.272125	3.565934	0.033504	0.100847	-0.036028	0.812941	0.083382	0.554092	-0.158609
65234	-9.055431	-0.205084	3.537726	0.045848	0.171918	-0.090202	0.812965	0.083286	0.553955	-0.159014
65235	-9.025771	-0.166725	3.508880	0.044075	0.217188	-0.129947	0.812909	0.083196	0.553975	-0.159274
65236	-9.101949	-0.196103	3.623553	0.112496	0.168535	-0.016106	0.812766	0.083108	0.554186	-0.159317
65237	-9.147958	-0.268378	3.709189	0.152398	0.081543	0.060781	0.812600	0.083081	0.554441	-0.159291
65238	-9.178637	-0.270438	3.704866	0.142085	0.085611	0.087768	0.812528	0.083057	0.554546	-0.159305
65239	-9.103696	-0.231211	3.618157	0.104448	0.140092	-0.015174	0.812660	0.082746	0.554406	-0.159284
65240	-8.950583	-0.269528	3.481466	0.019455	0.129758	-0.205973	0.812818	0.082022	0.554336	-0.159095
65241	-8.899851	-0.356789	3.356467	-0.102861	0.088498	-0.295224	0.812874	0.081147	0.554487	-0.158730
65242	-8.839738	-0.354030	3.267508	-0.154625	0.117188	-0.383728	0.812804	0.080326	0.554813	-0.158365
65243	-8.944491	-0.295627	3.213271	-0.208089	0.213351	-0.308605	0.812690	0.079526	0.555194	-0.158019
65244	-8.885551	-0.305066	3.136290	-0.251323	0.224179	-0.390958	0.812561	0.078903	0.555572	-0.157670
65245	-8.848208	-0.191013	3.139776	-0.186955	0.325412	-0.429478	0.812330	0.078447	0.556126	-0.157131
65246	-8.855051	-0.188419	3.199857	-0.122019	0.305723	-0.401092	0.811948	0.078196	0.556969	-0.156241
65247	-8.966517	-0.252789	3.296508	-0.077347	0.219361	-0.258886	0.811414	0.078425	0.558058	-0.155012
65248	-9.170685	-0.364193	3.473203	-0.004436	0.066469	0.000195	0.810775	0.079197	0.559309	-0.153446
65249	-9.182707	-0.608305	3.598596	0.041314	-0.237983	0.065749	0.810111	0.080402	0.560576	-0.151691
65250	-9.288228	-0.745868	3.731083	0.099194	-0.435892	0.214697	0.809508	0.081634	0.561767	-0.149832
65251	-9.301566	-0.887092	3.768660	0.098263	-0.619200	0.242942	0.809160	0.082328	0.562688	-0.147865
65252	-9.168473	-1.172526	3.573950	-0.114673	-0.880893	0.057451	0.808948	0.082756	0.563389	-0.146106
65253	-9.020337	-1.389786	3.365113	-0.313192	-1.070960	-0.149518	0.808537	0.083495	0.564144	-0.145043
65254	-9.135777	-1.426303	3.400886	-0.315776	-1.127650	-0.030489	0.807764	0.085183	0.564974	-0.145140
65255	-9.187503	-1.366193	3.581985	-0.136140	-1.150120	0.074976	0.806675	0.087798	0.565844	-0.146246
65256	-9.369137	-1.391694	3.715782	-0.069290	-1.225546	0.287694	0.805440	0.091094	0.566576	-0.148192
65257	-9.584046	-1.495008	3.710854	-0.169632	-1.325372	0.486534	0.804214	0.094990	0.566875	-0.151228
65258	-9.697694	-1.548846	3.575084	-0.349942	-1.343016	0.545845	0.802984	0.099703	0.566603	-0.155686
65259	-9.563781	-1.294314	3.502172	-0.296091	-1.119063	0.388604	0.801670	0.104903	0.565953	-0.161304
65260	-9.426132	-1.108028	3.403526	-0.285753	-0.943117	0.221880	0.800197	0.110039	0.565266	-0.167483
65261	-9.570964	-1.141829	3.438344	-0.325509	-0.971381	0.369640	0.798614	0.115100	0.564479	-0.174162
65262	-9.726519	-1.114279	3.441940	-0.374320	-0.919892	0.517239	0.797071	0.120256	0.563196	-0.181730
65263	-9.702300	-0.964877	3.407165	-0.358845	-0.756457	0.481643	0.795619	0.125628	0.561173	-0.190506
65264	-9.560805	-0.460902	3.388064	-0.138234	-0.292657	0.335982	0.794189	0.131115	0.558605	-0.200083
65265	-9.435569	0.114619	3.442366	0.190542	0.199712	0.228065	0.792776	0.135925	0.556156	-0.209095
65266	-9.357538	0.239524	3.334742	0.175365	0.370214	0.115733	0.791425	0.139693	0.554219	-0.216733
65267	-9.366423	0.222371	3.300352	0.136101	0.398248	0.111751	0.790140	0.142472	0.552911	-0.222868
65268	-9.388529	0.131616	3.288419	0.082453	0.354670	0.129287	0.788892	0.144188	0.552269	-0.227722
65269	-9.490862	-0.199924	3.200925	-0.173377	0.161664	0.202604	0.787701	0.145051	0.552059	-0.231774
65270	-9.556163	-0.319694	3.200011	-0.234313	0.106531	0.266803	0.786506	0.145401	0.552030	-0.235648
65271	-9.564952	-0.282172	3.238782	-0.160115	0.160966	0.287108	0.785315	0.145194	0.552096	-0.239561
65272	-9.561029	-0.205313	3.224293	-0.101768	0.280756	0.275029	0.784267	0.144520	0.552004	-0.243577
65273	-9.372578	-0.025549	3.093847	-0.030140	0.511894	0.044009	0.783383	0.143195	0.551924	-0.247357
65274	-9.229609	0.013859	2.980079	-0.032263	0.629753	-0.134427	0.782577	0.141400	0.552012	-0.250724
65275	-9.178028	-0.068448	2.901602	-0.093650	0.646857	-0.208906	0.781610	0.139601	0.552417	-0.253836
65276	-9.140167	-0.181011	2.869664	-0.134722	0.612483	-0.251474	0.780421	0.138250	0.552969	-0.257013
65277	-9.129801	-0.146854	2.976602	0.010311	0.629050	-0.229425	0.779015	0.137508	0.553523	-0.260460
65278	-9.158072	-0.072200	3.113815	0.192456	0.666070	-0.164349	0.777510	0.137233	0.554010	-0.264043
65279	-9.172571	0.006536	3.236317	0.366923	0.704845	-0.118451	0.776039	0.137181	0.554371	-0.267615
65280	-9.165659	0.070402	3.276991	0.469030	0.764838	-0.120019	0.774771	0.137199	0.554472	-0.271048
65281	-9.127796	0.140341	3.309410	0.568699	0.824459	-0.154256	0.773770	0.137157	0.554343	-0.274176
65282	-8.991128	0.269435	3.263828	0.658174	0.944509	-0.313204	0.773039	0.136919	0.554114	-0.276806
65283	-8.881592	0.304547	3.212692	0.679462	0.994928	-0.440111	0.772475	0.136447	0.554103	-0.278631
65284	-8.856534	0.299801	3.208471	0.694728	1.004467	-0.467597	0.771994	0.135915	0.554440	-0.279550
65285	-8.912973	0.163327	3.245593	0.646330	0.899292	-0.390630	0.771597	0.135572	0.554961	-0.279779
65286	-8.965049	0.008329	3.288064	0.589090	0.766168	-0.312715	0.771296	0.135603	0.555419	-0.279686
65287	-9.082520	-0.033610	3.357255	0.598675	0.721506	-0.174977	0.771157	0.135940	0.555666	-0.279414
65288	-9.180138	-0.071001	3.355993	0.553251	0.708134	-0.079491	0.771221	0.136458	0.555663	-0.278992
65289	-9.212504	-0.054256	3.380695	0.568850	0.704244	-0.041163	0.771407	0.136996	0.555614	-0.278309
65290	-9.248407	-0.079114	3.358429	0.518574	0.690120	-0.010998	0.771775	0.137561	0.555450	-0.277336
65291	-9.258376	-0.070745	3.317160	0.474660	0.703573	-0.014437	0.772285	0.138063	0.555267	-0.276030
65292	-9.139811	-0.202547	3.296009	0.393185	0.556406	-0.118534	0.772823	0.138454	0.555241	-0.274378
65293	-9.129393	-0.403047	3.249596	0.230499	0.392091	-0.124488	0.773240	0.138987	0.555389	-0.272626
65294	-9.187618	-0.504998	3.304413	0.190525	0.268838	-0.041411	0.773562	0.139771	0.555521	-0.271039
65295	-9.218322	-0.433216	3.406606	0.293316	0.253318	0.016851	0.773848	0.140792	0.555493	-0.269749
65296	-9.206886	-0.321906	3.459445	0.386333	0.285003	0.016227	0.774243	0.141930	0.555254	-0.268509
65297	-9.173332	-0.230782	3.477911	0.441376	0.312320	-0.014388	0.774793	0.143068	0.554896	-0.267054
65298	-9.165434	-0.232689	3.446237	0.393854	0.295643	-0.030396	0.775534	0.144058	0.554496	-0.265196
65299	-9.113518	-0.313412	3.381342	0.283002	0.220583	-0.093684	0.776460	0.144807	0.554089	-0.262921
65300	-9.069487	-0.451143	3.331909	0.149229	0.091779	-0.141601	0.777443	0.145485	0.553720	-0.260407
65301	-9.057395	-0.597482	3.311122	0.026406	-0.054559	-0.150748	0.778330	0.146395	0.553408	-0.257897
65302	-9.186581	-0.523399	3.416638	0.092358	-0.055365	0.002039	0.779236	0.147439	0.553030	-0.255364
65303	-9.314248	-0.643297	3.424310	-0.030155	-0.166486	0.130458	0.780250	0.148293	0.552578	-0.252738
65304	-9.318913	-0.781095	3.373751	-0.179666	-0.288912	0.123031	0.781286	0.149273	0.551891	-0.250450
65305	-9.320897	-0.721477	3.378773	-0.175137	-0.275375	0.122557	0.782212	0.150344	0.551204	-0.248425
65306	-9.290616	-0.671643	3.341540	-0.198878	-0.254319	0.078124	0.783056	0.151374	0.550612	-0.246446
65307	-9.359732	-0.691370	3.373534	-0.229687	-0.303891	0.153158	0.783846	0.152161	0.550181	-0.244403
65308	-9.415871	-0.811504	3.324462	-0.373222	-0.395924	0.190965	0.784591	0.152756	0.549803	-0.242488
65309	-9.422178	-0.872867	3.322639	-0.430654	-0.470091	0.195946	0.785235	0.153281	0.549446	-0.240874
65310	-9.412893	-0.808871	3.348161	-0.390526	-0.452438	0.192799	0.785770	0.153718	0.549123	-0.239586
65311	-9.450052	-0.749554	3.446445	-0.305835	-0.461833	0.258879	0.786256	0.154013	0.548834	-0.238460
65312	-9.455021	-0.683173	3.467870	-0.266465	-0.428035	0.268783	0.786746	0.153935	0.548632	-0.237354
65313	-9.386623	-0.742785	3.419288	-0.327470	-0.473019	0.188361	0.787272	0.153429	0.548500	-0.236242
65314	-9.383037	-0.747288	3.396571	-0.353001	-0.465380	0.177074	0.787816	0.152501	0.548428	-0.235192
65315	-9.350601	-0.742447	3.371985	-0.363719	-0.447973	0.138306	0.788362	0.151172	0.548425	-0.234228
65316	-9.328470	-0.769750	3.308328	-0.422999	-0.430774	0.096570	0.788867	0.149675	0.548444	-0.233441
65317	-9.305177	-0.675949	3.319716	-0.355408	-0.345304	0.077619	0.789281	0.148150	0.548485	-0.232919
65318	-9.387284	-0.551113	3.317462	-0.311364	-0.203195	0.151855	0.789653	0.146657	0.548515	-0.232534
65319	-9.394530	-0.467355	3.375245	-0.219766	-0.139183	0.177318	0.790019	0.145097	0.548574	-0.232129
65320	-9.318933	-0.476638	3.399067	-0.180217	-0.153771	0.115414	0.790365	0.143491	0.548691	-0.231670
65321	-9.260779	-0.478309	3.463480	-0.107026	-0.177986	0.083945	0.790683	0.141742	0.548928	-0.231100
65322	-9.312985	-0.374435	3.451469	-0.069808	-0.050058	0.125979	0.791108	0.139582	0.549197	-0.230322
65323	-9.432062	-0.331868	3.421588	-0.098026	0.054341	0.225666	0.791717	0.136744	0.549486	-0.229237
65324	-9.429007	-0.435875	3.252425	-0.279961	0.079177	0.166775	0.792420	0.133575	0.549750	-0.228043
65325	-9.271160	-0.644438	3.157491	-0.410311	-0.054484	-0.006157	0.792942	0.130771	0.550013	-0.227216
65326	-9.079228	-0.651267	3.197319	-0.315806	-0.089802	-0.170514	0.793088	0.128747	0.550367	-0.227006
65327	-9.048120	-0.413435	3.310255	-0.081430	0.081992	-0.169878	0.793027	0.127112	0.550799	-0.227090
65328	-9.116874	-0.238609	3.459449	0.124366	0.204954	-0.061556	0.792987	0.125166	0.551349	-0.226980
65329	-9.227804	-0.179871	3.452061	0.131905	0.313354	0.035447	0.793212	0.122566	0.551837	-0.226423
65330	-9.229428	-0.279687	3.366450	0.023145	0.300747	0.010878	0.793668	0.119690	0.552120	-0.225676
65331	-9.028968	-0.444249	3.216070	-0.117008	0.214331	-0.220867	0.794067	0.117201	0.552292	-0.225157
65332	-8.917132	-0.403011	3.289492	0.003413	0.219645	-0.302161	0.794156	0.115624	0.552550	-0.225024
65333	-8.944472	-0.205907	3.428261	0.216464	0.354087	-0.240504	0.794057	0.114572	0.552961	-0.224901
65334	-9.061685	-0.136470	3.554040	0.331537	0.399386	-0.091858	0.794075	0.113375	0.553359	-0.224468
65335	-9.110541	-0.119130	3.606546	0.376650	0.417835	-0.029700	0.794357	0.111786	0.553593	-0.223688
65336	-9.044321	-0.156562	3.545361	0.328757	0.414772	-0.111467	0.794870	0.109860	0.553685	-0.222588
65337	-9.009864	-0.165114	3.495665	0.292335	0.439818	-0.161487	0.795497	0.107794	0.553768	-0.221148
65338	-9.047820	-0.181783	3.428788	0.216708	0.479343	-0.149566	0.796109	0.105698	0.553961	-0.219466
65339	-9.196917	-0.143464	3.390645	0.160735	0.577727	-0.027968	0.796670	0.103560	0.554305	-0.217574
65340	-9.237666	-0.164164	3.364169	0.119359	0.591611	0.001323	0.797194	0.101414	0.554770	-0.215472
65341	-9.185538	-0.232415	3.331270	0.078909	0.540874	-0.054270	0.797641	0.099456	0.555318	-0.213306
65342	-9.116028	-0.347354	3.347272	0.064808	0.420495	-0.104658	0.798006	0.097849	0.555861	-0.211261
65343	-9.061216	-0.348253	3.419079	0.146386	0.378277	-0.130100	0.798237	0.096670	0.556433	-0.209414
65344	-9.151366	-0.249379	3.545060	0.276439	0.433092	-0.008956	0.798474	0.095720	0.556940	-0.207595
65345	-9.115501	-0.192690	3.580622	0.344509	0.456613	-0.033978	0.798811	0.094724	0.557355	-0.205631
65346	-9.006047	-0.242606	3.531608	0.312068	0.401387	-0.149277	0.799297	0.093573	0.557677	-0.203384
65347	-8.917525	-0.369477	3.461907	0.221183	0.288338	-0.246522	0.799811	0.092463	0.557982	-0.201018
65348	-8.956164	-0.424000	3.451475	0.175216	0.242327	-0.209776	0.800297	0.091591	0.558264	-0.198689
65349	-9.006558	-0.355647	3.457122	0.190335	0.300231	-0.165414	0.800794	0.090933	0.558483	-0.196357
65350	-9.020728	-0.343186	3.426924	0.159449	0.309784	-0.163143	0.801325	0.090447	0.558651	-0.193923
65351	-9.043494	-0.424407	3.450230	0.131324	0.212044	-0.127299	0.801877	0.090219	0.558772	-0.191382
65352	-9.035579	-0.503403	3.415585	0.061934	0.125712	-0.140996	0.802424	0.090317	0.558838	-0.188837
65353	-9.076482	-0.573120	3.465565	0.054415	0.022186	-0.080392	0.802915	0.090683	0.558913	-0.186331
65354	-9.104969	-0.623954	3.513641	0.056585	-0.069479	-0.033765	0.803398	0.091231	0.558956	-0.183836
65355	-9.162856	-0.675707	3.545814	0.035363	-0.153069	0.034266	0.803870	0.091886	0.558978	-0.181367
65356	-9.192634	-0.736353	3.609348	0.046159	-0.262623	0.086954	0.804330	0.092606	0.558979	-0.178941
65357	-9.297125	-0.746236	3.621896	0.009522	-0.294216	0.188551	0.804820	0.093295	0.558922	-0.176543
65358	-9.370613	-0.798230	3.654905	-0.016955	-0.375639	0.270089	0.805331	0.093809	0.558834	-0.174203
65359	-9.426854	-0.857131	3.631423	-0.090034	-0.443502	0.315619	0.805883	0.094149	0.558677	-0.171955
65360	-9.393991	-0.918245	3.582903	-0.157484	-0.516075	0.268793	0.806404	0.094336	0.558528	-0.169880
65361	-9.406399	-0.996404	3.577461	-0.206188	-0.608099	0.279837	0.806844	0.094509	0.558401	-0.168103
65362	-9.377490	-1.003086	3.567590	-0.217074	-0.636569	0.248070	0.807199	0.094778	0.558272	-0.166670
65363	-9.369247	-0.905194	3.636859	-0.124654	-0.588592	0.260391	0.807496	0.094918	0.558179	-0.165458
65364	-9.281364	-0.890721	3.611629	-0.118794	-0.593572	0.168020	0.807765	0.094814	0.558149	-0.164304
65365	-9.279783	-0.940716	3.602499	-0.149083	-0.645672	0.164195	0.808073	0.094489	0.558080	-0.163205
65366	-9.281154	-0.903754	3.632130	-0.113980	-0.625722	0.174527	0.808368	0.094085	0.557975	-0.162336
65367	-9.249851	-0.860250	3.590508	-0.128705	-0.576380	0.129281	0.808710	0.093485	0.557806	-0.161558
65368	-9.260697	-0.878149	3.567828	-0.163839	-0.580577	0.132016	0.809096	0.092757	0.557586	-0.160802
65369	-9.238896	-0.944934	3.491201	-0.253618	-0.615120	0.086599	0.809456	0.091990	0.557371	-0.160178
65370	-9.297828	-0.889014	3.550287	-0.204782	-0.566597	0.161355	0.809749	0.091253	0.557195	-0.159729
65371	-9.443916	-0.823573	3.576408	-0.208779	-0.483746	0.305559	0.810037	0.090503	0.557021	-0.159300
65372	-9.320068	-0.905012	3.517119	-0.253380	-0.550732	0.171567	0.810313	0.089678	0.556878	-0.158863
65373	-9.326551	-1.134496	3.504328	-0.350303	-0.750292	0.180625	0.810491	0.088856	0.556846	-0.158528
65374	-9.468679	-1.294105	3.538581	-0.420413	-0.876833	0.331599	0.810496	0.088020	0.556966	-0.158548
65375	-9.599617	-1.272328	3.561517	-0.427903	-0.823929	0.463199	0.810472	0.086688	0.557099	-0.158936
65376	-9.565273	-1.303869	3.564319	-0.417031	-0.827992	0.436180	0.810462	0.084917	0.557168	-0.159702
65377	-9.454387	-1.344291	3.527042	-0.418840	-0.830764	0.324709	0.810349	0.083105	0.557226	-0.161020
65378	-9.275122	-1.239133	3.514381	-0.324485	-0.712210	0.152325	0.810104	0.081463	0.557262	-0.162954
65379	-9.176388	-1.018300	3.583356	-0.143291	-0.494922	0.077598	0.809886	0.079711	0.557189	-0.165140
65380	-9.088414	-0.877154	3.583962	-0.054178	-0.325820	-0.009417	0.809674	0.077792	0.557117	-0.167323
65381	-9.072354	-0.785570	3.570794	-0.017395	-0.184221	-0.033076	0.809538	0.075596	0.557034	-0.169251
65382	-9.092342	-0.830375	3.520003	-0.074914	-0.150288	-0.028917	0.809472	0.073281	0.556912	-0.170980
65383	-9.066642	-0.874548	3.412535	-0.168584	-0.106951	-0.087766	0.809401	0.071042	0.556745	-0.172795
65384	-9.058815	-0.899984	3.392059	-0.185292	-0.071036	-0.099884	0.809269	0.069043	0.556556	-0.174820
65385	-9.000938	-0.815419	3.382781	-0.137222	0.050321	-0.163675	0.809083	0.067428	0.556331	-0.177015
65386	-8.956087	-0.771113	3.374169	-0.107631	0.131879	-0.212584	0.808832	0.066140	0.556126	-0.179277
