// General information: 
//  MT Manager version: 2021.0.0 
//  XDA version: 2021.0.0 build 5908 rev 109668 built on 2021-04-19
// Device information: 
//  DeviceId: 00B43DF7
//  ProductCode: MTW2-3A7G6
//  Firmware Version: 4.3.5
//  Hardware Version: 1.1.0
// Device settings: 
//  Filter Profile: human(46.1)
//  Option Flags: Orientation Smoother Disabled, Position/Velocity Smoother Disabled, Continuous Zero Rotation Update Disabled, AHS Disabled, ICC Disabled
// Coordinate system: ENU
PacketCounter	Acc_X	Acc_Y	Acc_Z	FreeAcc_E	FreeAcc_N	FreeAcc_U	Quat_q0	Quat_q1	Quat_q2	Quat_q3
64468	-9.785827	0.020316	1.854455	0.178512	0.172008	0.144238	0.657304	0.321491	0.546306	-0.407608
64469	-9.689419	0.056076	1.886253	0.227872	0.142024	0.055131	0.657273	0.321780	0.546087	-0.407725
64470	-9.651663	0.045842	1.907859	0.226377	0.109704	0.022624	0.657328	0.322058	0.545920	-0.407641
64471	-9.623093	0.045892	1.920603	0.228018	0.089806	-0.002760	0.657487	0.322289	0.545821	-0.407334
64472	-9.592253	-0.026995	1.906710	0.151841	0.058420	-0.034083	0.657756	0.322431	0.545782	-0.406838
64473	-9.629962	-0.045506	1.890133	0.117409	0.065276	0.000201	0.658047	0.322576	0.545812	-0.406212
64474	-9.631781	0.001393	1.952855	0.179720	0.025167	0.013396	0.658366	0.322654	0.545928	-0.405476
64475	-9.619670	-0.102565	2.003223	0.103101	-0.075728	0.013049	0.658732	0.322743	0.545977	-0.404745
64476	-9.607462	-0.156674	2.078579	0.081134	-0.175291	0.016405	0.659081	0.322906	0.545961	-0.404066
64477	-9.605801	-0.170663	2.074569	0.057366	-0.184744	0.014161	0.659394	0.323128	0.545836	-0.403547
64478	-9.627120	-0.172905	2.003837	0.011672	-0.124976	0.021484	0.659678	0.323366	0.545625	-0.403179
64479	-9.598487	-0.127589	2.011687	0.048077	-0.118115	-0.005657	0.659988	0.323494	0.545382	-0.402897
64480	-9.569213	-0.127211	2.028913	0.049666	-0.138020	-0.031021	0.660352	0.323493	0.545163	-0.402597
64481	-9.601541	-0.198502	2.014612	-0.031151	-0.151327	-0.001276	0.660772	0.323399	0.544949	-0.402273
64482	-9.612464	-0.164699	1.981108	-0.025300	-0.102638	0.002618	0.661229	0.323202	0.544821	-0.401854
64483	-9.636137	-0.203006	1.967074	-0.074447	-0.101586	0.023464	0.661666	0.322938	0.544722	-0.401480
64484	-9.629252	-0.145646	1.942229	-0.040067	-0.050962	0.011353	0.662052	0.322666	0.544593	-0.401239
64485	-9.587845	-0.092837	1.984475	0.024689	-0.065360	-0.021434	0.662406	0.322377	0.544440	-0.401095
64486	-9.615454	-0.041602	1.968803	0.056684	-0.017328	0.002166	0.662749	0.322044	0.544333	-0.400940
64487	-9.663868	-0.091281	2.004461	0.021836	-0.056693	0.057108	0.663091	0.321677	0.544230	-0.400810
64488	-9.710100	-0.124364	2.031025	-0.001343	-0.079402	0.108011	0.663423	0.321217	0.544125	-0.400770
64489	-9.750037	-0.192201	2.043611	-0.059213	-0.105676	0.150335	0.663713	0.320663	0.544080	-0.400795
64490	-9.724147	-0.197857	1.971266	-0.093951	-0.039077	0.110705	0.663922	0.320130	0.543915	-0.401099
64491	-9.559099	-0.062327	1.950567	0.033177	0.024895	-0.056498	0.663987	0.319660	0.543788	-0.401538
64492	-9.512237	-0.065282	2.020820	0.071457	-0.035235	-0.088271	0.663998	0.319243	0.543779	-0.401863
64493	-9.497176	-0.126808	2.059897	0.041169	-0.092652	-0.094389	0.664026	0.318857	0.543825	-0.402062
64494	-9.549783	-0.212381	2.036535	-0.045061	-0.097649	-0.046451	0.663977	0.318620	0.543920	-0.402202
64495	-9.584338	-0.264802	2.050875	-0.082945	-0.126216	-0.008967	0.663786	0.318588	0.544027	-0.402398
64496	-9.644243	-0.279921	2.105056	-0.071749	-0.168507	0.060889	0.663520	0.318692	0.544039	-0.402739
64497	-9.658585	-0.274468	2.074711	-0.077587	-0.136434	0.068780	0.663149	0.318901	0.543999	-0.403237
64498	-9.755402	-0.268962	2.139546	-0.045671	-0.171118	0.176632	0.662674	0.319199	0.543905	-0.403909
64499	-9.819431	-0.221899	2.050786	-0.044066	-0.057985	0.220800	0.662209	0.319434	0.543744	-0.404701
64500	-9.633222	-0.089465	2.014742	0.077085	0.004111	0.029070	0.661807	0.319641	0.543552	-0.405454
64501	-9.595570	-0.068405	2.132785	0.158116	-0.094613	0.015560	0.661395	0.319847	0.543660	-0.405818
64502	-9.706515	-0.040685	2.123364	0.176806	-0.055815	0.121716	0.661037	0.319924	0.543904	-0.406014
64503	-9.689129	-0.141898	1.967822	0.024479	0.027339	0.075200	0.660700	0.320037	0.543996	-0.406350
64504	-9.651753	-0.297445	1.869598	-0.149173	0.033500	0.021784	0.660084	0.320516	0.543881	-0.407128
64505	-9.674862	-0.137832	1.902726	0.012154	0.081615	0.048119	0.659287	0.321235	0.543601	-0.408223
64506	-9.664556	0.259889	1.984563	0.409641	0.189187	0.046627	0.658681	0.321742	0.543380	-0.409096
64507	-9.685565	0.341083	2.172357	0.568766	0.065305	0.102850	0.658457	0.321889	0.543403	-0.409309
64508	-9.664140	0.015805	2.208847	0.297967	-0.120145	0.095472	0.658558	0.321822	0.543569	-0.408979
64509	-9.653784	-0.309705	2.066016	-0.056986	-0.149060	0.063264	0.658664	0.321907	0.543643	-0.408644
64510	-9.646611	-0.417055	1.989486	-0.189939	-0.137621	0.042975	0.658537	0.322376	0.543520	-0.408642
64511	-9.626658	-0.348091	1.973956	-0.138680	-0.101791	0.018925	0.658187	0.323194	0.543133	-0.409074
64512	-9.608566	-0.057274	2.057165	0.154413	-0.051224	0.012447	0.657736	0.324079	0.542693	-0.409683
64513	-9.580922	0.131588	2.026043	0.307216	0.052160	-0.023963	0.657459	0.324708	0.542311	-0.410136
64514	-9.525267	0.202173	2.005003	0.360987	0.090368	-0.083702	0.657450	0.324971	0.542076	-0.410252
64515	-9.543851	0.166621	1.933447	0.292258	0.140243	-0.078933	0.657683	0.324878	0.542064	-0.409968
64516	-9.577297	0.030005	1.935264	0.164707	0.083997	-0.043523	0.658028	0.324619	0.542122	-0.409542
64517	-9.612514	-0.074725	1.971004	0.080144	0.012311	-0.000231	0.658385	0.324425	0.542165	-0.409066
64518	-9.615148	-0.142114	2.030733	0.040962	-0.072290	0.015244	0.658615	0.324513	0.542179	-0.408607
64519	-9.714703	-0.140831	1.998428	0.013395	-0.030332	0.106380	0.658761	0.324815	0.542063	-0.408286
64520	-9.715070	-0.082469	2.019979	0.067415	-0.028450	0.110232	0.658838	0.325214	0.541898	-0.408062
64521	-9.700925	0.021186	2.018515	0.153401	0.010758	0.094843	0.658888	0.325583	0.541809	-0.407806
64522	-9.638871	0.019740	1.988592	0.137680	0.018762	0.028218	0.658989	0.325847	0.541772	-0.407481
64523	-9.543488	-0.039705	1.969638	0.077784	-0.013988	-0.068306	0.659158	0.326034	0.541720	-0.407126
64524	-9.513757	-0.071512	1.947235	0.036404	-0.018485	-0.101522	0.659327	0.326130	0.541732	-0.406760
64525	-9.476051	-0.075862	1.892580	0.006968	0.016789	-0.149209	0.659463	0.326216	0.541740	-0.406460
64526	-9.490016	0.030069	1.878136	0.090781	0.076637	-0.139291	0.659587	0.326223	0.541802	-0.406170
64527	-9.548010	0.047132	1.953374	0.133200	0.025556	-0.067740	0.659736	0.326108	0.542034	-0.405710
64528	-9.595601	-0.062611	2.016944	0.059659	-0.075720	-0.007676	0.659943	0.325877	0.542384	-0.405091
64529	-9.650983	-0.195075	2.036760	-0.053716	-0.149059	0.051532	0.660114	0.325714	0.542745	-0.404459
64530	-9.668011	-0.287534	2.026834	-0.141076	-0.186734	0.066907	0.660097	0.325766	0.543055	-0.404029
64531	-9.692260	-0.131208	1.989714	-0.019228	-0.087824	0.082160	0.659911	0.326034	0.543340	-0.403733
64532	-9.659425	-0.032354	1.986889	0.072180	-0.056961	0.048590	0.659674	0.326351	0.543675	-0.403414
64533	-9.619778	-0.089304	2.024911	0.043914	-0.134971	0.017278	0.659406	0.326741	0.543972	-0.403136
64534	-9.614116	-0.143471	1.995763	-0.014615	-0.147782	0.006315	0.659095	0.327142	0.544318	-0.402852
64535	-9.657634	-0.203869	1.881291	-0.120282	-0.080496	0.027524	0.658720	0.327589	0.544619	-0.402695
64536	-9.658075	-0.140644	1.850404	-0.074305	-0.036558	0.021707	0.658295	0.328070	0.544887	-0.402637
64537	-9.666574	-0.101508	1.883717	-0.020623	-0.057895	0.036047	0.657855	0.328477	0.545213	-0.402582
64538	-9.705720	-0.031429	1.904914	0.054028	-0.048497	0.077985	0.657438	0.328776	0.545564	-0.402544
64539	-9.681943	0.021440	1.869142	0.093982	-0.006378	0.047601	0.657066	0.328933	0.545976	-0.402465
64540	-9.690831	0.044140	1.839264	0.108179	0.023387	0.050617	0.656769	0.328922	0.546483	-0.402270
64541	-9.721450	-0.033202	1.860714	0.055142	-0.033875	0.085078	0.656509	0.328878	0.547047	-0.401964
64542	-9.743551	-0.123900	1.857524	-0.020853	-0.078031	0.106788	0.656208	0.328969	0.547531	-0.401721
64543	-9.706528	-0.080430	1.850019	0.024176	-0.067295	0.068638	0.655822	0.329216	0.547901	-0.401645
64544	-9.717381	-0.018737	1.886659	0.101049	-0.078635	0.085339	0.655399	0.329529	0.548194	-0.401680
64545	-9.723837	0.029450	1.879862	0.146697	-0.057889	0.089982	0.654973	0.329806	0.548464	-0.401778
64546	-9.681864	0.053913	1.799279	0.140971	0.010429	0.034080	0.654651	0.330047	0.548637	-0.401870
64547	-9.681369	0.044563	1.885748	0.176135	-0.075501	0.048865	0.654405	0.330145	0.548928	-0.401791
64548	-9.779021	0.022460	1.908016	0.164566	-0.094319	0.148954	0.654302	0.330016	0.549277	-0.401588
64549	-9.687926	-0.014927	1.796432	0.091997	-0.030453	0.039922	0.654295	0.329861	0.549463	-0.401474
64550	-9.603336	-0.098848	1.747604	0.003948	-0.041850	-0.051224	0.654123	0.330024	0.549576	-0.401465
64551	-9.685115	-0.114587	1.758630	-0.010437	-0.049943	0.031334	0.653875	0.330450	0.549488	-0.401637
64552	-9.727792	0.107563	1.841085	0.219907	-0.018541	0.085918	0.653707	0.330842	0.549331	-0.401803
64553	-9.708635	0.160812	1.869916	0.279233	-0.025139	0.071716	0.653663	0.331063	0.549199	-0.401874
64554	-9.691109	0.054152	1.870165	0.182524	-0.076910	0.055383	0.653812	0.331057	0.549110	-0.401758
64555	-9.696740	-0.070306	1.748972	0.013103	-0.024641	0.040729	0.654088	0.330906	0.549021	-0.401554
64556	-9.757389	-0.083152	1.774982	0.004138	-0.040998	0.105096	0.654396	0.330762	0.548879	-0.401366
64557	-9.763340	-0.041578	1.825388	0.057773	-0.062396	0.119551	0.654703	0.330652	0.548702	-0.401198
64558	-9.749550	-0.004873	1.849793	0.097080	-0.066532	0.110096	0.654993	0.330512	0.548589	-0.400993
64559	-9.729119	-0.006743	1.827829	0.082084	-0.048524	0.086185	0.655284	0.330385	0.548426	-0.400846
64560	-9.706453	-0.033349	1.804436	0.043885	-0.040564	0.059940	0.655560	0.330338	0.548195	-0.400750
64561	-9.646577	0.011918	1.788000	0.074669	-0.012717	-0.002091	0.655770	0.330452	0.547909	-0.400704
64562	-9.641390	0.059508	1.804096	0.117169	-0.004461	-0.004479	0.655984	0.330606	0.547593	-0.400657
64563	-9.568650	0.059023	1.855766	0.137723	-0.060183	-0.066723	0.656218	0.330731	0.547289	-0.400587
64564	-9.596808	-0.019794	1.827419	0.045118	-0.066213	-0.043749	0.656407	0.330900	0.547056	-0.400455
64565	-9.688326	-0.051546	1.782979	-0.017284	-0.027241	0.038418	0.656586	0.331048	0.546820	-0.400362
64566	-9.701044	-0.086182	1.733526	-0.077715	0.004018	0.042095	0.656783	0.331099	0.546533	-0.400389
64567	-9.715301	-0.036458	1.775978	-0.020961	-0.004918	0.063650	0.656899	0.331180	0.546246	-0.400524
64568	-9.704998	0.092632	1.797097	0.099790	0.037362	0.057154	0.657037	0.331196	0.545981	-0.400644
64569	-9.684022	0.181832	1.791911	0.174494	0.082739	0.035511	0.657296	0.331039	0.545861	-0.400513
64570	-9.633688	0.109528	1.821521	0.123192	0.017882	-0.008485	0.657629	0.330843	0.545853	-0.400139
64571	-9.678314	-0.042384	1.916479	0.022274	-0.128455	0.052780	0.657885	0.330803	0.545911	-0.399672
64572	-9.721410	-0.186536	1.934807	-0.106254	-0.206989	0.098415	0.658020	0.330963	0.545869	-0.399375
64573	-9.704330	-0.166113	1.877096	-0.117658	-0.153464	0.071022	0.657956	0.331370	0.545638	-0.399459
64574	-9.651272	-0.051261	1.829299	-0.036824	-0.070197	0.010231	0.657703	0.331940	0.545299	-0.399864
64575	-9.628223	0.106144	1.833555	0.104362	-0.007405	-0.011416	0.657459	0.332402	0.544996	-0.400296
64576	-9.579498	0.181243	1.806734	0.161614	0.042771	-0.064048	0.657379	0.332579	0.544788	-0.400563
64577	-9.551020	0.167909	1.790311	0.143443	0.048303	-0.095050	0.657474	0.332506	0.544723	-0.400555
64578	-9.590856	0.078965	1.794657	0.061744	0.012800	-0.055250	0.657658	0.332265	0.544764	-0.400397
64579	-9.599774	0.037191	1.763298	0.009607	0.025047	-0.052280	0.657812	0.332026	0.544819	-0.400268
64580	-9.658829	0.001377	1.817186	-0.003178	-0.026763	0.015559	0.657841	0.331962	0.544782	-0.400324
64581	-9.724064	0.003683	1.917233	0.038283	-0.100807	0.097994	0.657796	0.331972	0.544700	-0.400500
64582	-9.745535	0.026058	1.913746	0.055291	-0.081755	0.118517	0.657713	0.332028	0.544572	-0.400764
64583	-9.718773	0.085020	1.922813	0.115001	-0.065415	0.093951	0.657602	0.332094	0.544504	-0.400985
64584	-9.716869	0.064317	1.952208	0.110618	-0.100142	0.097435	0.657556	0.332127	0.544489	-0.401052
64585	-9.720198	-0.052339	1.912619	-0.011345	-0.117681	0.093327	0.657557	0.332153	0.544463	-0.401064
64586	-9.722781	-0.081777	1.857613	-0.063122	-0.082270	0.085754	0.657474	0.332337	0.544319	-0.401243
64587	-9.624011	-0.001278	1.809076	-0.005850	-0.019321	-0.020143	0.657273	0.332679	0.544084	-0.401610
64588	-9.610042	0.124966	1.845032	0.123140	0.003743	-0.027112	0.657059	0.332990	0.543889	-0.401966
64589	-9.598887	0.171896	1.802600	0.146508	0.060592	-0.045783	0.656917	0.333240	0.543673	-0.402281
64590	-9.614191	0.170598	1.816222	0.148489	0.050729	-0.028219	0.656862	0.333434	0.543527	-0.402408
64591	-9.671033	0.167324	1.923043	0.186581	-0.035674	0.047276	0.656936	0.333377	0.543561	-0.402288
64592	-9.750316	0.075886	1.913633	0.094034	-0.054317	0.123339	0.657143	0.333042	0.543669	-0.402081
64593	-9.651917	0.048922	1.787118	0.022457	0.032513	0.003326	0.657323	0.332754	0.543632	-0.402077
64594	-9.542650	0.012770	1.795002	0.002885	-0.005466	-0.102676	0.657295	0.332770	0.543579	-0.402182
64595	-9.627179	0.102694	1.871322	0.108757	-0.018174	-0.005404	0.657234	0.332991	0.543447	-0.402276
64596	-9.620822	0.103513	2.016500	0.171280	-0.148731	0.015117	0.657258	0.333204	0.543387	-0.402142
64597	-9.683992	-0.060558	1.931586	-0.021509	-0.141900	0.061207	0.657237	0.333470	0.543360	-0.401991
64598	-9.718082	-0.152615	1.813923	-0.161564	-0.077236	0.072789	0.657119	0.333792	0.543152	-0.402198
64599	-9.638205	0.001667	1.678890	-0.078598	0.098086	-0.030159	0.656869	0.334221	0.542771	-0.402764
64600	-9.658065	0.211112	1.707614	0.117871	0.171709	-0.004764	0.656640	0.334628	0.542389	-0.403315
64601	-9.621989	0.319623	1.781540	0.248713	0.150735	-0.026261	0.656576	0.334799	0.542184	-0.403553
64602	-9.613610	0.262685	1.766339	0.190012	0.138310	-0.037452	0.656721	0.334700	0.542197	-0.403381
64603	-9.665139	0.110027	1.715402	0.025348	0.123750	0.003303	0.656916	0.334487	0.542308	-0.403091
64604	-9.672891	-0.004658	1.656065	-0.104745	0.125436	-0.000415	0.657024	0.334388	0.542409	-0.402860
64605	-9.691301	-0.053942	1.749331	-0.110618	0.021468	0.034733	0.656944	0.334633	0.542413	-0.402783
64606	-9.689744	-0.013860	1.830744	-0.040921	-0.038073	0.048338	0.656734	0.335121	0.542336	-0.402823
64607	-9.705955	0.044457	1.893510	0.035278	-0.072799	0.076012	0.656387	0.335787	0.542275	-0.402915
64608	-9.702915	0.091982	1.896553	0.077788	-0.064646	0.073753	0.655989	0.336503	0.542217	-0.403045
64609	-9.699847	0.114460	1.770320	0.042100	0.045913	0.047854	0.655639	0.337131	0.542226	-0.403077
64610	-9.659710	0.126687	1.699419	0.024937	0.097517	-0.004327	0.655399	0.337590	0.542325	-0.402950
64611	-9.647074	0.053259	1.724830	-0.029144	0.030516	-0.012579	0.655229	0.337937	0.542543	-0.402642
64612	-9.697682	0.039523	1.797593	-0.014069	-0.042702	0.050168	0.655113	0.338177	0.542863	-0.402199
64613	-9.712594	0.058888	1.790430	-0.000182	-0.036088	0.063662	0.655047	0.338299	0.543225	-0.401713
64614	-9.694688	0.056252	1.754465	-0.015110	-0.018158	0.039608	0.654954	0.338404	0.543595	-0.401275
64615	-9.709475	0.074201	1.747720	-0.001253	-0.011530	0.053102	0.654811	0.338589	0.543910	-0.400926
64616	-9.672076	0.078798	1.750835	0.008876	-0.027620	0.016852	0.654608	0.338895	0.544141	-0.400687
64617	-9.712823	0.135552	1.784291	0.071394	-0.034876	0.063278	0.654411	0.339248	0.544273	-0.400529
64618	-9.720249	0.165438	1.757669	0.085690	-0.005168	0.066211	0.654265	0.339547	0.544396	-0.400347
64619	-9.722246	0.125708	1.758398	0.049795	-0.030803	0.067920	0.654156	0.339795	0.544538	-0.400121
64620	-9.704270	0.080365	1.734128	-0.000110	-0.039206	0.045557	0.654046	0.340013	0.544670	-0.399937
64621	-9.713955	0.091409	1.718949	0.002317	-0.026013	0.052574	0.653900	0.340270	0.544779	-0.399809
64622	-9.721683	0.132878	1.758665	0.055701	-0.047629	0.067409	0.653803	0.340510	0.544837	-0.399683
64623	-9.708878	0.162972	1.741812	0.075545	-0.026335	0.052219	0.653737	0.340694	0.544895	-0.399557
64624	-9.703311	0.133302	1.723894	0.040145	-0.028907	0.043345	0.653749	0.340835	0.544935	-0.399362
64625	-9.719859	0.085787	1.709680	-0.012626	-0.039487	0.056675	0.653777	0.341024	0.544953	-0.399129
64626	-9.741442	0.108935	1.668621	-0.015118	0.005225	0.071218	0.653784	0.341291	0.544918	-0.398938
64627	-9.754391	0.068008	1.707155	-0.040183	-0.049974	0.089991	0.653777	0.341584	0.544837	-0.398809
64628	-9.697881	0.101156	1.726885	-0.001409	-0.064711	0.038052	0.653756	0.341905	0.544657	-0.398815
64629	-9.665998	0.152858	1.690526	0.027619	-0.016479	0.001166	0.653730	0.342191	0.544456	-0.398885
64630	-9.687295	0.236699	1.741230	0.118810	-0.022312	0.031955	0.653780	0.342373	0.544292	-0.398871
64631	-9.714581	0.241736	1.694873	0.096314	0.024976	0.051095	0.653986	0.342362	0.544160	-0.398724
64632	-9.713736	0.182567	1.735808	0.056644	-0.036105	0.056381	0.654275	0.342188	0.544111	-0.398467
64633	-9.748505	0.125063	1.815496	0.033721	-0.124984	0.103373	0.654557	0.341892	0.544170	-0.398176
64634	-9.820469	0.151072	1.738862	0.015375	-0.031855	0.161620	0.654861	0.341543	0.544172	-0.397972
64635	-9.707287	0.170191	1.700717	0.023504	-0.001644	0.043898	0.655099	0.341354	0.544031	-0.397935
64636	-9.653081	0.132128	1.711499	-0.004191	-0.033509	-0.008223	0.655097	0.341541	0.543833	-0.398050
64637	-9.717555	0.164961	1.706867	0.013203	-0.004131	0.055002	0.655080	0.341839	0.543454	-0.398340
64638	-9.649795	0.335497	1.686199	0.158096	0.083091	-0.012561	0.655155	0.341988	0.543070	-0.398611
64639	-9.619884	0.372803	1.697929	0.194770	0.089188	-0.039345	0.655353	0.341918	0.542846	-0.398651
64640	-9.598246	0.244547	1.754607	0.102118	-0.016510	-0.052868	0.655700	0.341658	0.542735	-0.398454
64641	-9.633620	0.144445	1.719212	-0.010729	-0.019234	-0.025824	0.656106	0.341321	0.542605	-0.398251
64642	-9.670595	0.186977	1.704351	0.012742	0.024759	0.008687	0.656473	0.341029	0.542404	-0.398172
64643	-9.620570	0.167639	1.795423	0.035293	-0.064990	-0.024862	0.656781	0.340786	0.542202	-0.398147
64644	-9.602743	0.156983	1.850404	0.047514	-0.114773	-0.032816	0.657049	0.340581	0.542012	-0.398139
64645	-9.622509	0.169706	1.786728	0.025624	-0.044364	-0.024365	0.657235	0.340485	0.541777	-0.398234
64646	-9.649679	0.177818	1.776584	0.022618	-0.022638	0.000730	0.657311	0.340504	0.541506	-0.398461
64647	-9.689698	0.201563	1.769943	0.034176	0.004896	0.039336	0.657403	0.340505	0.541223	-0.398693
64648	-9.666716	0.225468	1.803719	0.070291	-0.012033	0.023194	0.657494	0.340392	0.541013	-0.398923
64649	-9.634263	0.276451	1.804780	0.118805	0.010474	-0.007665	0.657607	0.340185	0.540923	-0.399036
64650	-9.655597	0.242760	1.747497	0.061722	0.054573	0.002426	0.657784	0.339892	0.540893	-0.399035
64651	-9.573123	0.193237	1.773781	0.036379	0.001698	-0.074772	0.658011	0.339571	0.540874	-0.398959
64652	-9.611484	0.133573	1.833453	0.005043	-0.067957	-0.027220	0.658169	0.339329	0.540936	-0.398820
64653	-9.656992	0.057684	1.880890	-0.046270	-0.134996	0.024904	0.658266	0.339180	0.540990	-0.398714
64654	-9.696110	0.048487	1.835472	-0.077412	-0.091545	0.055012	0.658257	0.339108	0.540979	-0.398804
64655	-9.693050	0.169070	1.780177	0.007912	0.013674	0.043913	0.658180	0.339076	0.540856	-0.399126
64656	-9.655933	0.253951	1.758934	0.080357	0.069031	0.004856	0.658065	0.339021	0.540750	-0.399504
64657	-9.650898	0.297222	1.804570	0.142246	0.051309	0.008808	0.658006	0.338909	0.540742	-0.399708
64658	-9.637322	0.320521	1.792895	0.162106	0.072428	-0.006381	0.658049	0.338669	0.540876	-0.399661
64659	-9.680341	0.254543	1.796417	0.103210	0.047488	0.035561	0.658159	0.338376	0.541124	-0.399392
64660	-9.714076	0.112310	1.813183	-0.017400	-0.025989	0.069749	0.658266	0.338101	0.541370	-0.399114
64661	-9.725001	0.038854	1.850087	-0.065990	-0.090889	0.086169	0.658268	0.338033	0.541519	-0.398966
64662	-9.781199	0.108371	1.874436	0.002746	-0.073273	0.146817	0.658188	0.338090	0.541495	-0.399081
64663	-9.715660	0.231479	1.857761	0.112704	-0.012721	0.081050	0.658110	0.338102	0.541439	-0.399277
64664	-9.581074	0.261589	1.780140	0.119224	0.050773	-0.064994	0.658127	0.338002	0.541363	-0.399436
64665	-9.553372	0.308149	1.726020	0.140329	0.117881	-0.101486	0.658206	0.337838	0.541381	-0.399420
64666	-9.582729	0.328522	1.650101	0.121828	0.200729	-0.086212	0.658396	0.337675	0.541352	-0.399285
64667	-9.599808	0.365439	1.732242	0.185742	0.149405	-0.053912	0.658622	0.337636	0.541227	-0.399115
64668	-9.742991	0.295791	1.780050	0.126216	0.099421	0.094690	0.658818	0.337633	0.541121	-0.398937
64669	-9.822228	0.381667	1.846959	0.220126	0.093254	0.186110	0.659099	0.337482	0.540999	-0.398766
64670	-9.844847	0.380453	1.792855	0.186367	0.147193	0.198490	0.659618	0.337238	0.540834	-0.398338
64671	-9.718210	0.511416	1.771922	0.293509	0.207712	0.072430	0.660360	0.337144	0.540461	-0.397694
64672	-9.841010	0.576792	1.725230	0.298185	0.298227	0.186147	0.661240	0.337381	0.539865	-0.396839
64673	-9.555980	0.861675	1.715013	0.546911	0.388165	-0.088973	0.662393	0.337785	0.539143	-0.395553
64674	-9.851352	0.963991	1.898994	0.653379	0.314481	0.240107	0.663784	0.337982	0.538570	-0.393830
64675	-9.838346	0.962755	2.023582	0.672244	0.199460	0.253247	0.665575	0.337580	0.538249	-0.391584
64676	-9.542833	0.826702	2.134502	0.593400	-0.006960	-0.017134	0.667943	0.336973	0.537846	-0.388617
64677	-9.655701	0.697968	2.163403	0.426680	-0.078957	0.097481	0.670640	0.336801	0.537060	-0.385193
64678	-10.028197	0.755794	2.258927	0.405627	-0.084001	0.486178	0.673626	0.337005	0.535548	-0.381895
64679	-10.142370	0.935115	2.524616	0.587801	-0.212124	0.662268	0.676754	0.337325	0.533513	-0.378919
64680	-10.044070	1.122281	2.706283	0.759990	-0.283515	0.618426	0.680267	0.337315	0.530994	-0.376165
64681	-9.627787	1.293466	2.776200	0.907924	-0.301997	0.245055	0.684280	0.337180	0.527973	-0.373248
64682	-9.667911	1.145927	2.694352	0.626053	-0.274328	0.265647	0.688649	0.337329	0.524530	-0.369919
64683	-9.783489	1.036621	2.724502	0.399751	-0.315253	0.383068	0.693339	0.337905	0.520361	-0.366504
64684	-9.960016	1.198380	2.846549	0.419581	-0.287925	0.602684	0.698316	0.338697	0.515496	-0.363185
64685	-9.953235	1.488452	2.891802	0.531788	-0.150323	0.643750	0.703710	0.339402	0.509971	-0.359899
64686	-9.855458	1.869674	3.038147	0.777714	-0.056451	0.639364	0.709407	0.339845	0.504161	-0.356467
64687	-9.728808	2.176380	3.100646	0.921352	0.073866	0.586501	0.715531	0.339858	0.498324	-0.352400
64688	-9.820135	2.231336	3.238657	0.821849	0.052361	0.733460	0.722184	0.339643	0.492151	-0.347679
64689	-9.642426	2.444639	3.315708	0.883164	0.126387	0.634644	0.729256	0.339327	0.485419	-0.342653
64690	-9.438491	2.653881	3.373474	0.930758	0.217475	0.511586	0.736737	0.338733	0.478290	-0.337220
64691	-9.468366	2.705828	3.494086	0.799950	0.217835	0.603079	0.744462	0.337759	0.471145	-0.331235
64692	-9.647725	2.678295	3.558549	0.514782	0.252305	0.797741	0.752582	0.336535	0.463420	-0.324972
64693	-9.511462	2.776479	3.631399	0.428666	0.297407	0.727038	0.760771	0.335632	0.455063	-0.318585
64694	-9.212818	3.224950	3.764233	0.702416	0.461221	0.614853	0.768956	0.334986	0.446478	-0.311685
64695	-9.205541	3.420601	4.112733	0.761112	0.359422	0.800631	0.776984	0.334204	0.438217	-0.304250
64696	-9.186360	3.320852	4.509674	0.617978	0.050201	0.928069	0.785192	0.332833	0.429952	-0.296374
64697	-9.211652	3.061661	4.713599	0.241444	-0.186983	0.973720	0.793638	0.331001	0.421246	-0.288321
64698	-9.005811	3.045499	4.729783	0.065841	-0.166849	0.803894	0.802128	0.328828	0.412146	-0.280356
64699	-8.971907	3.236649	4.588129	-0.115425	0.140453	0.769478	0.810643	0.325927	0.403062	-0.272344
64700	-8.889928	3.323279	4.767031	-0.194290	0.141052	0.804998	0.819032	0.322611	0.393889	-0.264500
64701	-8.525513	3.593789	5.182157	0.120699	0.049640	0.790633	0.827415	0.318922	0.384338	-0.256823
64702	-8.249620	3.743666	5.356287	0.192901	0.093398	0.709092	0.836027	0.314271	0.374690	-0.248797
64703	-8.168017	3.566658	5.345998	-0.146952	0.099801	0.578569	0.844832	0.308769	0.364821	-0.240472
64704	-8.232573	3.396401	5.465066	-0.509197	0.048537	0.623229	0.853538	0.303008	0.354516	-0.232332
64705	-8.085739	3.588483	5.633743	-0.494935	0.177951	0.661609	0.861811	0.297745	0.343847	-0.224496
64706	-7.917295	3.873162	5.897360	-0.377526	0.304138	0.780733	0.869663	0.293096	0.332845	-0.216782
64707	-7.740391	3.970194	6.167866	-0.368063	0.284976	0.840667	0.877053	0.288955	0.321815	-0.209091
64708	-7.599918	3.920385	6.198986	-0.572099	0.314262	0.728738	0.884222	0.284849	0.310652	-0.201268
64709	-7.298256	3.781688	6.182044	-0.717530	0.270262	0.443450	0.890926	0.281051	0.299510	-0.193793
64710	-6.741066	3.781276	6.128737	-0.592874	0.296966	0.028838	0.897062	0.277773	0.288565	-0.186687
64711	-6.141913	3.906108	6.057953	-0.353119	0.416262	-0.358788	0.902804	0.274568	0.277876	-0.179840
64712	-6.071919	3.776201	6.191009	-0.544648	0.302832	-0.375362	0.908273	0.271240	0.267490	-0.172969
64713	-6.265172	3.693748	6.551294	-0.831264	0.132138	-0.060663	0.913402	0.268308	0.257037	-0.166251
64714	-6.122213	3.930140	6.790079	-0.761066	0.226108	0.106840	0.918207	0.265810	0.246549	-0.159543
64715	-5.781851	4.087920	6.965670	-0.588821	0.253641	0.099201	0.922555	0.264003	0.236532	-0.152470
64716	-5.568755	4.458794	7.199856	-0.412370	0.436130	0.304857	0.926620	0.262255	0.226809	-0.145451
64717	-5.343044	4.426326	7.367975	-0.408076	0.337126	0.293878	0.930735	0.259563	0.217338	-0.138285
64718	-4.965578	4.109453	7.196466	-0.478439	0.181505	-0.165530	0.934787	0.256360	0.207967	-0.131156
64719	-4.876794	3.983920	7.211762	-0.647712	0.123697	-0.261473	0.938559	0.253050	0.199019	-0.124351
64720	-4.801862	4.120862	7.450667	-0.662542	0.169920	-0.061781	0.942163	0.249631	0.190132	-0.117744
64721	-4.529696	4.169770	7.566219	-0.568130	0.187202	-0.076605	0.945603	0.246113	0.181429	-0.111118
64722	-4.357639	4.257794	7.745653	-0.531128	0.223176	0.024861	0.948958	0.242285	0.172947	-0.104240
64723	-4.102378	4.268237	7.852231	-0.460007	0.230684	0.007512	0.952275	0.237941	0.164524	-0.097403
64724	-3.862966	4.236270	8.003916	-0.399316	0.188272	0.022587	0.955393	0.233693	0.156158	-0.090701
64725	-3.680583	4.194028	8.173387	-0.385106	0.136920	0.075198	0.958331	0.229366	0.148035	-0.084134
64726	-3.681425	4.092061	8.199455	-0.587784	0.119947	0.044578	0.961100	0.225019	0.139953	-0.077889
64727	-3.626784	4.096568	8.238098	-0.707522	0.181880	0.049606	0.963621	0.220996	0.131964	-0.071972
64728	-3.168082	4.062131	8.232302	-0.454469	0.189421	-0.114069	0.965867	0.217494	0.124212	-0.066091
64729	-3.059726	3.776196	8.180070	-0.578345	0.006453	-0.315404	0.967747	0.214761	0.117053	-0.060353
64730	-2.818350	3.858353	8.129391	-0.494157	0.132713	-0.397104	0.969426	0.212247	0.110238	-0.054882
64731	-2.718727	3.881112	8.181391	-0.528749	0.162449	-0.374362	0.970803	0.210454	0.103755	-0.049851
64732	-2.612411	3.859799	8.264165	-0.548203	0.130937	-0.341676	0.972001	0.208832	0.097916	-0.044887
64733	-2.316436	3.368394	8.183274	-0.454379	-0.272866	-0.680543	0.972945	0.207706	0.092898	-0.040081
64734	-2.440383	3.330133	7.956355	-0.713152	-0.197855	-0.879574	0.973622	0.207041	0.088917	-0.035892
64735	-2.279332	3.412621	7.834298	-0.645688	-0.066830	-0.992500	0.974332	0.205831	0.085321	-0.032117
64736	-2.008526	3.080125	7.753350	-0.492648	-0.323896	-1.251857	0.975034	0.204215	0.082340	-0.028718
64737	-2.025058	3.017795	7.830171	-0.556215	-0.385311	-1.206792	0.975724	0.202218	0.080079	-0.025650
64738	-1.999945	2.941211	7.976612	-0.561236	-0.490622	-1.110908	0.976248	0.200857	0.077973	-0.022716
64739	-1.668212	3.399009	8.056550	-0.227701	-0.086130	-0.914105	0.976736	0.199381	0.076370	-0.020057
64740	-1.853194	3.405760	8.187485	-0.422714	-0.103433	-0.763990	0.977253	0.197454	0.075321	-0.017725
64741	-1.808494	3.325088	8.353379	-0.382026	-0.212483	-0.652195	0.977701	0.195632	0.074721	-0.015658
64742	-1.927780	3.610656	8.293008	-0.504809	0.104902	-0.578987	0.978120	0.193728	0.074540	-0.013929
64743	-2.066142	3.741754	8.493511	-0.611246	0.178652	-0.325655	0.978466	0.191994	0.074732	-0.012571
64744	-2.038332	3.855835	8.659048	-0.550812	0.244647	-0.136009	0.978643	0.190897	0.075408	-0.011390
64745	-2.035452	4.348460	8.720294	-0.500527	0.698246	0.104849	0.978834	0.189474	0.076684	-0.010173
64746	-2.098367	4.048895	8.687091	-0.563158	0.460969	-0.028390	0.979091	0.187602	0.078188	-0.008506
64747	-2.055636	3.576893	8.699745	-0.519537	0.044246	-0.198457	0.979219	0.186342	0.079773	-0.006539
64748	-2.088486	3.715122	8.815078	-0.504032	0.136826	-0.035332	0.979114	0.186229	0.081438	-0.004784
64749	-2.114061	3.867367	9.017939	-0.464550	0.192821	0.212079	0.978880	0.186722	0.083196	-0.002833
64750	-2.217708	4.034801	8.983569	-0.541251	0.338924	0.261758	0.978596	0.187485	0.084849	-0.000589
64751	-2.382851	4.323718	9.091914	-0.654679	0.544579	0.497997	0.978435	0.187591	0.086429	0.001956
64752	-2.300881	3.941277	9.050577	-0.573904	0.199900	0.305183	0.978321	0.187412	0.087971	0.005016
64753	-2.388838	4.098847	9.114890	-0.626616	0.309385	0.439137	0.978136	0.187447	0.089685	0.008403
64754	-2.477844	4.076614	9.220501	-0.679916	0.228375	0.544033	0.977891	0.187871	0.091025	0.012144
64755	-2.084165	4.451150	9.157099	-0.294277	0.601425	0.558455	0.977646	0.188364	0.092034	0.016016
64756	-2.208154	4.405002	9.082977	-0.430842	0.567575	0.496177	0.977593	0.187823	0.092917	0.020002
64757	-1.970891	3.918362	9.087966	-0.197755	0.129770	0.275581	0.977461	0.187597	0.093712	0.024394
64758	-1.998023	4.031074	9.045646	-0.235128	0.236812	0.284539	0.977200	0.187787	0.094689	0.029148
64759	-1.958823	4.119041	8.918707	-0.228242	0.353031	0.195813	0.976946	0.187950	0.095347	0.034050
64760	-1.643587	4.048893	8.824215	0.053632	0.338491	0.028257	0.976610	0.188383	0.095927	0.039282
64761	-1.616556	3.943600	8.782004	0.064681	0.243060	-0.054330	0.976269	0.188615	0.096519	0.044809
64762	-1.468537	3.920392	8.712666	0.182871	0.248670	-0.151357	0.975862	0.189092	0.096895	0.050482
64763	-1.121144	4.126873	8.709180	0.494379	0.467065	-0.134090	0.975316	0.189918	0.097536	0.056357
64764	-1.225986	4.140844	8.814850	0.404228	0.403854	-0.013469	0.974686	0.190632	0.098585	0.062673
64765	-1.156337	4.090155	8.864405	0.481080	0.322601	0.001005	0.973862	0.191981	0.099658	0.069312
64766	-0.852965	4.332567	8.983935	0.776372	0.520030	0.154083	0.972886	0.193448	0.101217	0.076330
64767	-0.943614	4.276454	9.082555	0.721343	0.382305	0.237421	0.971817	0.194902	0.103078	0.083424
64768	-0.972523	4.459941	9.193414	0.707867	0.472987	0.416236	0.970714	0.195894	0.105359	0.090773
64769	-1.123163	4.321011	9.164413	0.586964	0.310824	0.359723	0.969759	0.195735	0.107638	0.098335
64770	-1.301724	4.117838	9.269115	0.484884	0.053283	0.401498	0.968924	0.194610	0.109916	0.105984
64771	-1.280668	3.900881	9.327583	0.567170	-0.137151	0.361801	0.968114	0.192920	0.112043	0.113949
64772	-1.035761	3.774933	9.048850	0.759096	-0.062084	0.017087	0.967100	0.191488	0.114360	0.122357
64773	-1.093740	4.026301	8.971571	0.643857	0.202295	0.058526	0.966124	0.189378	0.116640	0.130906
64774	-0.884437	3.997098	8.905422	0.826186	0.301816	-0.050942	0.965181	0.186708	0.118502	0.139725
64775	-0.670134	3.823532	8.792317	1.025604	0.298523	-0.261135	0.964022	0.184269	0.120508	0.148943
64776	-0.848538	4.136078	8.759498	0.768829	0.569472	-0.135890	0.962736	0.181846	0.122665	0.158189
64777	-1.036507	4.460629	8.745156	0.494723	0.832372	0.011343	0.961393	0.179337	0.124522	0.167501
64778	-1.238807	4.505981	8.832798	0.305355	0.805574	0.142940	0.959930	0.176733	0.126406	0.176976
64779	-1.548118	4.598203	8.725081	-0.055984	0.833565	0.135632	0.958466	0.173616	0.128185	0.186467
64780	-1.979905	4.571687	9.070603	-0.342229	0.569757	0.514672	0.956827	0.170594	0.130389	0.195903
64781	-2.707516	4.552430	9.482578	-0.847531	0.155976	1.014679	0.954934	0.167898	0.133177	0.205367
64782	-3.096020	4.616591	9.504669	-1.188747	0.054315	1.133584	0.952932	0.164545	0.136210	0.215155
64783	-3.479294	4.127475	9.465307	-1.339516	-0.500594	0.989560	0.950901	0.160484	0.138953	0.225221
64784	-2.925763	4.091411	9.182609	-0.936144	-0.169332	0.613957	0.948780	0.156632	0.141193	0.235259
64785	-2.670864	4.095790	9.195709	-0.707747	-0.020315	0.578112	0.946330	0.153829	0.143886	0.245138
64786	-2.927489	4.391883	9.300670	-0.991231	0.078427	0.834967	0.943688	0.151832	0.146756	0.254680
64787	-3.139809	4.563728	9.109466	-1.295892	0.141985	0.768847	0.941070	0.149716	0.148878	0.264213
64788	-2.958421	4.082099	8.898271	-1.002099	-0.121483	0.364544	0.938290	0.147935	0.150672	0.273906
64789	-2.995539	3.870564	8.990246	-0.880677	-0.353766	0.379375	0.935172	0.147336	0.153069	0.283400
64790	-3.235692	4.468602	9.290328	-1.210117	-0.113248	0.923735	0.931792	0.147246	0.156034	0.292805
64791	-3.231742	4.925829	9.472895	-1.331777	0.173487	1.261599	0.928363	0.146135	0.158669	0.302674
64792	-3.258794	4.529879	9.409466	-1.163508	-0.157432	1.063850	0.925014	0.143333	0.160399	0.313173
64793	-3.099970	3.644479	9.115818	-0.687771	-0.686223	0.436519	0.921502	0.140553	0.161773	0.323896
64794	-3.054012	3.466355	8.920723	-0.625122	-0.767536	0.184411	0.917831	0.138705	0.163069	0.334299
64795	-2.942569	3.762973	8.841624	-0.733269	-0.488777	0.198122	0.914055	0.137794	0.164207	0.344315
64796	-3.052213	3.992813	8.750419	-0.975431	-0.423159	0.222138	0.910176	0.136951	0.164938	0.354427
64797	-3.012185	4.120491	8.543354	-1.111165	-0.320058	0.071812	0.906225	0.135619	0.165398	0.364701
64798	-3.085133	4.155678	8.514886	-1.205258	-0.382994	0.071216	0.902189	0.133811	0.165675	0.375101
64799	-3.109194	4.050838	8.613877	-1.127160	-0.521568	0.123741	0.897907	0.132039	0.165967	0.385725
64800	-2.852807	3.967145	8.547559	-0.940883	-0.419421	-0.021047	0.893248	0.130513	0.166624	0.396625
64801	-2.892531	3.638863	8.514924	-0.753790	-0.698375	-0.166138	0.888232	0.129503	0.167832	0.407561
64802	-2.822093	3.628209	8.551701	-0.664472	-0.696716	-0.151811	0.882974	0.129090	0.169350	0.418346
64803	-2.711780	3.847200	8.448669	-0.763690	-0.514084	-0.185283	0.877492	0.128880	0.171013	0.429129
64804	-2.895458	3.928325	8.458977	-0.895797	-0.662102	-0.110695	0.871944	0.128088	0.172252	0.440042
64805	-3.014752	3.828401	8.328165	-0.929804	-0.853552	-0.246577	0.866353	0.126553	0.172725	0.451202
64806	-3.038039	3.841587	8.425996	-0.906561	-0.915153	-0.152181	0.860651	0.124746	0.172857	0.462427
64807	-3.104012	3.750812	8.566549	-0.809049	-1.069539	-0.050996	0.854557	0.122861	0.173087	0.474002
64808	-3.105928	3.909798	8.671667	-0.877677	-1.036285	0.101279	0.848160	0.121094	0.173560	0.485631
64809	-2.972672	4.047529	8.801704	-0.859052	-0.899293	0.244272	0.841563	0.119005	0.174007	0.497324
64810	-3.003709	3.702354	8.891052	-0.547215	-1.129072	0.197615	0.834658	0.117078	0.174887	0.508973
64811	-3.034091	3.696589	9.226084	-0.381917	-1.193773	0.503316	0.827516	0.115717	0.176513	0.520259
64812	-3.078812	4.021042	9.395905	-0.545008	-1.125015	0.787685	0.820172	0.114572	0.178530	0.531336
64813	-2.825648	4.317354	9.225422	-0.721659	-0.804875	0.702227	0.812600	0.113039	0.180491	0.542518
64814	-2.497962	4.378198	9.184948	-0.651932	-0.506302	0.631943	0.804971	0.110527	0.181772	0.553862
64815	-2.235914	4.006515	9.146622	-0.269120	-0.410070	0.408446	0.797240	0.107166	0.182597	0.565316
64816	-2.168422	3.638289	9.081681	0.030233	-0.472150	0.196922	0.789233	0.103664	0.183328	0.576850
64817	-2.014034	3.268941	9.120414	0.404701	-0.426783	0.065486	0.780654	0.100274	0.184641	0.588584
64818	-1.969504	3.392429	9.328906	0.396364	-0.314880	0.294721	0.771697	0.096968	0.186287	0.600315
64819	-1.773266	3.324694	9.429846	0.539589	-0.112114	0.327148	0.762430	0.093492	0.187744	0.612137
64820	-1.556216	3.084278	9.429570	0.783978	0.069909	0.198894	0.752997	0.089952	0.188854	0.623890
64821	-1.322878	2.939302	9.328559	0.892112	0.286890	0.012445	0.743547	0.086645	0.189910	0.635267
64822	-1.384183	2.980769	9.359644	0.848849	0.265887	0.067220	0.734061	0.083975	0.191397	0.646120
64823	-1.244891	3.236729	9.395179	0.643804	0.468039	0.170397	0.724505	0.081876	0.193347	0.656511
64824	-1.127054	3.421351	9.390860	0.483529	0.623176	0.214375	0.715023	0.079668	0.195152	0.666566
64825	-0.800663	3.456514	9.333598	0.434176	0.951815	0.117575	0.705869	0.077575	0.196668	0.676056
64826	-0.698352	3.650945	9.244647	0.209500	1.059898	0.092528	0.697033	0.075623	0.198122	0.684963
64827	-0.707254	3.645345	8.971530	0.095516	1.007424	-0.155926	0.688459	0.073511	0.199324	0.693462
64828	-0.727401	3.650702	8.885265	0.044287	0.975757	-0.228816	0.679980	0.071367	0.200741	0.701596
64829	-0.582071	3.824741	8.816762	-0.164947	1.112654	-0.250391	0.671512	0.069070	0.202414	0.709457
64830	-0.793200	3.948727	9.014350	-0.202997	0.952951	0.012318	0.663070	0.066146	0.203977	0.717186
64831	-0.997147	3.626838	9.185245	0.157982	0.818608	0.077804	0.654570	0.062906	0.205245	0.724883
64832	-1.211970	3.266306	9.193200	0.501851	0.659594	-0.016488	0.645874	0.059707	0.206768	0.732481
64833	-1.136860	2.958706	9.268413	0.788053	0.812309	-0.082897	0.637042	0.056886	0.208791	0.739830
64834	-1.219062	3.180644	9.410305	0.643331	0.788835	0.143222	0.628171	0.053931	0.210946	0.746990
64835	-1.133631	3.392167	9.488536	0.443942	0.902544	0.277527	0.619369	0.050660	0.212168	0.754188
64836	-1.055103	3.023552	9.546747	0.745516	1.074030	0.171595	0.610447	0.046988	0.212504	0.761570
64837	-0.992659	2.769931	9.539975	0.910347	1.200441	0.056403	0.601460	0.043523	0.212663	0.768847
64838	-0.929467	2.908019	9.503649	0.706457	1.248910	0.065607	0.592593	0.039997	0.212693	0.775884
64839	-0.993269	2.982096	9.453652	0.590163	1.177027	0.062385	0.583776	0.036514	0.212332	0.782807
64840	-0.866915	2.677239	9.285125	0.719460	1.328019	-0.228785	0.574974	0.033295	0.212088	0.789503
64841	-0.829373	2.636316	9.159374	0.662030	1.352049	-0.364636	0.566357	0.030540	0.212418	0.795729
64842	-0.811465	2.999766	9.060045	0.274321	1.256231	-0.321215	0.557986	0.028271	0.213062	0.801534
64843	-0.898439	3.089533	8.944243	0.170356	1.123914	-0.375547	0.549515	0.025890	0.213365	0.807365
64844	-0.788462	2.854084	8.785119	0.260880	1.246694	-0.629910	0.540915	0.023605	0.213407	0.813210
64845	-0.978487	2.907604	9.019169	0.328840	1.141384	-0.360383	0.532331	0.021218	0.213537	0.818887
64846	-1.388161	3.014112	9.435996	0.502579	0.892885	0.137187	0.523649	0.018932	0.213868	0.824435
64847	-1.364231	3.470803	9.558452	0.114043	0.800271	0.415612	0.515031	0.016473	0.214039	0.829855
64848	-1.851687	3.317860	9.905425	0.536531	0.569421	0.767586	0.506287	0.013470	0.214202	0.835230
64849	-2.113832	3.422214	10.238611	0.641236	0.452508	1.159682	0.497709	0.010676	0.215459	0.840089
64850	-2.528530	3.778485	10.317697	0.562366	0.027628	1.448223	0.489481	0.007363	0.216330	0.844722
64851	-2.545657	3.489470	10.185544	0.752389	0.123251	1.224549	0.481550	0.003537	0.216159	0.849336
64852	-2.593756	3.045389	9.981645	1.058463	0.237077	0.885837	0.473648	-0.000169	0.216078	0.853796
64853	-2.455547	3.035169	9.724381	0.901964	0.291942	0.623144	0.465730	-0.003769	0.216109	0.858125
64854	-2.416386	3.343326	9.637411	0.582399	0.168829	0.652906	0.458093	-0.007079	0.215501	0.862357
64855	-2.128935	3.490519	9.476895	0.231410	0.263099	0.502578	0.450755	-0.010184	0.214001	0.866556
64856	-2.120713	3.492173	9.283091	0.149658	0.177959	0.327048	0.443686	-0.013135	0.212041	0.870637
64857	-2.183445	3.673069	9.066535	-0.027694	-0.071891	0.210027	0.436896	-0.015849	0.209866	0.874544
64858	-2.433314	3.577964	8.939424	0.146816	-0.289256	0.113579	0.430221	-0.018385	0.207535	0.878351
64859	-2.319531	3.492558	8.663232	0.080182	-0.285009	-0.192807	0.423428	-0.020304	0.206561	0.881833
64860	-2.618069	3.999546	8.608587	-0.120217	-0.812644	-0.000268	0.416510	-0.022354	0.206279	0.885138
64861	-2.744805	4.081510	8.715328	-0.077120	-0.913322	0.152728	0.409575	-0.024051	0.205741	0.888449
64862	-2.983796	3.531754	8.759927	0.502786	-0.750110	0.051246	0.402484	-0.025703	0.205433	0.891708
64863	-2.999895	3.370594	8.719067	0.645491	-0.666733	-0.039198	0.395324	-0.026809	0.206299	0.894674
64864	-3.258403	3.534582	9.011685	0.767447	-0.798807	0.340819	0.388137	-0.028184	0.207380	0.897524
64865	-3.289417	3.789555	9.467873	0.685824	-0.761680	0.853661	0.380951	-0.029608	0.208122	0.900381
64866	-3.223578	3.755840	9.662799	0.702019	-0.593161	1.005018	0.373564	-0.031345	0.208325	0.903365
64867	-3.225381	3.609702	9.830053	0.824746	-0.423764	1.105334	0.366171	-0.033306	0.207287	0.906555
64868	-3.096042	3.205314	9.891048	1.001432	-0.056378	0.989455	0.358826	-0.035253	0.205960	0.909715
64869	-3.148421	3.091792	9.983888	1.112048	0.019906	1.046073	0.351516	-0.037047	0.204646	0.912789
64870	-2.957054	2.958172	9.804716	1.032593	0.151997	0.795707	0.344357	-0.038556	0.203283	0.915755
64871	-3.000471	2.958129	9.607604	1.044148	0.038581	0.626071	0.337370	-0.039997	0.201818	0.918614
64872	-3.068811	2.916171	9.407434	1.107809	-0.064060	0.443536	0.330581	-0.041037	0.200284	0.921368
64873	-3.009001	2.928152	9.099414	1.039027	-0.172548	0.153161	0.323878	-0.041929	0.198758	0.924035
64874	-2.989093	2.892085	8.802037	1.036900	-0.264732	-0.136457	0.317277	-0.042723	0.197434	0.926569
64875	-3.014495	3.055298	8.709641	0.965166	-0.439803	-0.161009	0.310845	-0.043434	0.196394	0.928934
64876	-3.059905	3.077323	8.604275	1.000444	-0.523888	-0.242364	0.304440	-0.044006	0.195787	0.931154
64877	-3.017573	3.205205	8.640953	0.913298	-0.573997	-0.175181	0.298031	-0.044598	0.195558	0.933245
64878	-3.029790	3.269739	8.712428	0.910833	-0.589973	-0.086460	0.291542	-0.045209	0.195412	0.935293
64879	-2.813721	3.190863	8.648380	0.797339	-0.430808	-0.217287	0.285028	-0.045742	0.195422	0.937271
64880	-2.821722	3.240278	8.741821	0.801563	-0.422066	-0.114221	0.278672	-0.046267	0.195532	0.939132
64881	-2.828238	3.429359	8.717872	0.727973	-0.566481	-0.070521	0.272480	-0.046688	0.195643	0.940903
64882	-2.951152	3.554084	8.724996	0.789432	-0.712358	0.002386	0.266085	-0.047328	0.195183	0.942795
64883	-2.774424	3.250054	8.811069	0.815919	-0.352169	-0.060485	0.259326	-0.048133	0.194557	0.944765
64884	-2.909600	3.129986	9.128462	1.010483	-0.181530	0.214143	0.252325	-0.049150	0.194740	0.946569
64885	-2.815710	3.437424	9.340518	0.795396	-0.269400	0.496726	0.245127	-0.049997	0.195641	0.948229
64886	-2.691486	3.703191	9.700279	0.578825	-0.249963	0.895044	0.237713	-0.051096	0.196404	0.949899
64887	-2.660581	3.708411	9.686936	0.569497	-0.219871	0.878196	0.230086	-0.051930	0.196782	0.951651
64888	-2.412986	3.638592	9.442410	0.406587	-0.141920	0.581323	0.222396	-0.052553	0.196869	0.953426
64889	-2.237582	3.655416	9.168159	0.273320	-0.186848	0.302365	0.214772	-0.052732	0.196892	0.955157
64890	-1.967496	4.051830	9.181893	-0.107923	-0.403601	0.405966	0.207259	-0.052820	0.196657	0.956859
64891	-2.008765	4.311072	9.350688	-0.148006	-0.575152	0.661235	0.199598	-0.053173	0.196057	0.958590
64892	-2.044030	4.138639	9.482307	-0.022383	-0.402681	0.725710	0.191458	-0.054024	0.195103	0.960396
64893	-1.875568	3.716545	9.477747	0.002584	-0.004736	0.539032	0.182972	-0.055090	0.193853	0.962241
64894	-1.575912	3.129915	9.511594	-0.050718	0.598038	0.306110	0.174362	-0.056145	0.193317	0.963885
64895	-1.316008	3.190671	9.537369	-0.312823	0.635956	0.305186	0.165756	-0.057186	0.193284	0.965348
64896	-1.148352	3.227631	9.427028	-0.471277	0.608672	0.187941	0.156905	-0.058003	0.193161	0.966801
64897	-0.951562	3.261320	9.421531	-0.656730	0.623038	0.161651	0.147854	-0.058552	0.192696	0.968287
64898	-0.941915	3.234737	9.399495	-0.641658	0.619081	0.132470	0.138790	-0.058845	0.191576	0.969831
64899	-0.684095	3.091974	9.208327	-0.819066	0.701562	-0.134961	0.129834	-0.059098	0.190156	0.971335
64900	-0.782255	3.200030	9.050591	-0.729174	0.483929	-0.221062	0.121076	-0.059357	0.188506	0.972771
64901	-0.543490	3.169341	8.926384	-0.927295	0.475644	-0.382195	0.112481	-0.059696	0.186975	0.974076
64902	-0.492683	3.025956	8.943302	-0.930687	0.587797	-0.422797	0.104090	-0.060128	0.185900	0.975188
64903	-0.469306	2.797185	9.086319	-0.905676	0.831600	-0.373733	0.095876	-0.060715	0.185454	0.976078
64904	-0.376291	2.919374	9.241368	-1.032789	0.784365	-0.200958	0.087962	-0.061604	0.185649	0.976730
64905	-0.521059	3.184808	9.638137	-0.980922	0.664923	0.282056	0.080398	-0.062771	0.185541	0.977328
64906	-0.529906	3.437974	9.792992	-1.038666	0.475882	0.516777	0.073080	-0.064152	0.184799	0.977954
64907	-0.974047	3.112356	9.837997	-0.565268	0.715244	0.511581	0.065657	-0.065782	0.183384	0.978638
64908	-0.913833	2.756198	9.742596	-0.576971	0.987404	0.288894	0.058391	-0.067248	0.182033	0.979251
64909	-0.752674	2.879395	9.694097	-0.762830	0.844819	0.263883	0.051630	-0.068553	0.180910	0.979748
64910	-0.774669	3.114670	9.544071	-0.762424	0.544371	0.212924	0.045248	-0.069590	0.179621	0.980228
64911	-0.817266	3.046051	9.243745	-0.679101	0.465992	-0.080537	0.038804	-0.070501	0.177951	0.980743
64912	-0.775155	2.816645	9.197043	-0.694855	0.632218	-0.208660	0.032244	-0.071487	0.176301	0.981207
64913	-0.676898	2.896545	9.217427	-0.806704	0.540341	-0.175969	0.025879	-0.072498	0.175155	0.981527
64914	-0.771720	3.321734	9.282754	-0.757873	0.137828	0.046600	0.019576	-0.073600	0.173811	0.981830
64915	-0.595717	3.138547	9.061653	-0.890191	0.206281	-0.247968	0.013017	-0.074672	0.172463	0.982095
64916	-0.657889	3.184334	8.967554	-0.821695	0.102223	-0.309839	0.006477	-0.076128	0.171042	0.982297
64917	-0.821187	3.212770	9.122921	-0.693553	0.103511	-0.131152	-0.000108	-0.077736	0.169657	0.982433
64918	-0.627735	2.975807	9.255245	-0.912658	0.349325	-0.119699	-0.006879	-0.079565	0.169420	0.982303
64919	-0.842123	3.196215	9.428136	-0.752640	0.203653	0.147569	-0.013622	-0.081749	0.169166	0.982097
64920	-0.847702	3.341905	9.677543	-0.813236	0.146299	0.427379	-0.020337	-0.084002	0.168956	0.981827
64921	-1.154421	3.351729	9.836433	-0.564550	0.207492	0.625720	-0.027445	-0.086354	0.168573	0.981516
64922	-1.155918	3.442581	9.709264	-0.560817	0.066647	0.538075	-0.034779	-0.088542	0.167235	0.981317
64923	-1.302503	2.947684	9.732365	-0.458271	0.527600	0.415500	-0.042268	-0.090312	0.165499	0.981156
64924	-1.279613	2.934633	9.723519	-0.495198	0.513108	0.399451	-0.049769	-0.091889	0.164531	0.980821
64925	-1.464816	3.361796	9.463285	-0.242884	0.047752	0.333240	-0.057387	-0.093322	0.164154	0.980332
64926	-1.644306	3.346813	9.611090	-0.105012	0.143253	0.494901	-0.065102	-0.094780	0.164204	0.979702
64927	-1.705235	3.498069	9.679159	-0.055062	0.058498	0.619180	-0.072919	-0.096473	0.165250	0.978810
64928	-1.786940	3.758914	9.678402	0.039466	-0.130387	0.721795	-0.080768	-0.098430	0.166551	0.977778
64929	-2.074044	3.698140	9.635775	0.305008	0.012520	0.710273	-0.088607	-0.100186	0.167704	0.976723
64930	-2.112333	3.570452	9.487733	0.347635	0.137239	0.535612	-0.096584	-0.101642	0.168760	0.975633
64931	-2.092089	3.415018	9.358263	0.327724	0.281283	0.357346	-0.104645	-0.102878	0.169949	0.974465
64932	-2.088387	3.436332	9.182874	0.364314	0.257256	0.202089	-0.112841	-0.104039	0.171541	0.973148
64933	-2.057747	3.683470	9.006904	0.421581	0.026121	0.124510	-0.121001	-0.105037	0.173287	0.971750
64934	-2.167185	3.936414	9.006461	0.578273	-0.115096	0.235221	-0.129161	-0.106014	0.174762	0.970328
64935	-2.337876	4.180792	9.057297	0.785786	-0.215079	0.400802	-0.137447	-0.106863	0.175740	0.968919
64936	-2.321499	4.206506	8.846677	0.844059	-0.262664	0.215581	-0.146019	-0.107661	0.176004	0.967528
64937	-2.488133	3.773901	8.873147	0.898483	0.223105	0.102388	-0.154743	-0.108558	0.175848	0.966099
64938	-2.588449	3.487283	8.942989	0.898857	0.571801	0.071806	-0.163315	-0.109669	0.176204	0.964496
64939	-2.730224	3.707907	9.020396	1.058437	0.496728	0.247283	-0.171947	-0.111291	0.176688	0.962720
64940	-2.952051	3.823400	9.331067	1.192496	0.617319	0.608374	-0.180703	-0.112941	0.176605	0.960938
64941	-2.886635	3.610657	9.546539	0.985756	0.876522	0.711845	-0.189712	-0.114932	0.176026	0.959070
64942	-3.056296	3.554981	9.763737	1.030215	1.078147	0.915107	-0.198982	-0.117040	0.174619	0.957192
64943	-2.887688	3.306558	9.825651	0.749730	1.246071	0.850363	-0.208316	-0.118949	0.172968	0.955268
64944	-2.899061	3.749875	9.934940	0.861303	0.901607	1.124148	-0.217535	-0.120933	0.170659	0.953378
64945	-2.891566	4.465222	9.618190	1.217591	0.186085	1.109386	-0.226779	-0.122276	0.166894	0.951718
64946	-2.949023	4.457374	9.410025	1.357760	0.116115	0.923046	-0.236235	-0.123076	0.161008	0.950327
64947	-3.052803	3.472891	9.060066	1.196399	0.824554	0.254752	-0.246148	-0.123327	0.153698	0.948988
64948	-2.961107	2.415995	8.692219	0.811417	1.488334	-0.470000	-0.256311	-0.123762	0.146932	0.947311
64949	-2.860708	1.856918	8.536319	0.529152	1.799826	-0.813747	-0.266424	-0.124724	0.141938	0.945154
64950	-2.976246	1.969852	8.601195	0.637274	1.750375	-0.688604	-0.276485	-0.126190	0.138907	0.942516
64951	-3.073976	2.456699	8.738029	0.879271	1.435583	-0.378508	-0.286547	-0.127800	0.137117	0.939551
64952	-3.119104	2.869667	8.770880	1.084466	1.155248	-0.201164	-0.296754	-0.129238	0.135687	0.936389
64953	-3.186976	3.096260	8.695858	1.263286	1.026542	-0.183987	-0.307234	-0.130193	0.133750	0.933149
64954	-3.153267	3.022476	8.606666	1.221221	1.069741	-0.298624	-0.317866	-0.130698	0.131615	0.929816
64955	-3.135630	2.804296	8.479772	1.122975	1.227173	-0.494120	-0.328593	-0.131316	0.129737	0.926257
64956	-3.223356	2.937641	8.531709	1.232548	1.223821	-0.389697	-0.339151	-0.132197	0.128706	0.922462
64957	-3.223525	3.206866	8.585760	1.350699	1.077278	-0.252079	-0.349681	-0.133376	0.128004	0.918449
64958	-3.245428	3.197505	8.597076	1.330367	1.147373	-0.242945	-0.360484	-0.134643	0.127214	0.914188
64959	-3.118970	2.818196	8.682980	0.939704	1.382418	-0.311638	-0.371611	-0.136361	0.126533	0.909560
64960	-3.100828	2.761832	9.103188	0.687576	1.502035	0.055518	-0.382842	-0.139069	0.126445	0.904491
64961	-3.165214	3.160004	9.539067	0.753978	1.375926	0.605348	-0.394141	-0.142807	0.126860	0.898980
64962	-3.242430	3.793532	10.063860	0.947942	1.116894	1.324583	-0.405592	-0.146602	0.126253	0.893344
64963	-3.147372	3.669138	10.055587	0.732393	1.143424	1.261572	-0.417221	-0.149726	0.124449	0.887706
64964	-2.685940	3.270085	9.797587	0.220351	1.006528	0.809868	-0.428693	-0.152103	0.122026	0.882154
64965	-2.529649	2.933913	9.757411	-0.135254	1.069499	0.630099	-0.439670	-0.154380	0.119893	0.876632
64966	-2.347684	3.103616	9.579925	-0.087429	0.803010	0.495872	-0.450321	-0.156802	0.118587	0.870954
64967	-2.097995	3.647175	9.392221	0.217633	0.279425	0.472825	-0.460820	-0.159258	0.117055	0.865205
64968	-2.261230	3.744399	9.501617	0.310486	0.367919	0.636361	-0.471465	-0.161324	0.114737	0.859378
64969	-2.230616	3.716350	9.207515	0.378853	0.338887	0.351311	-0.482214	-0.162817	0.111926	0.853483
64970	-2.302876	3.643441	8.915771	0.474926	0.421746	0.069895	-0.492893	-0.163799	0.108484	0.847619
64971	-2.253871	3.430388	8.865271	0.311598	0.471855	-0.059700	-0.503428	-0.164790	0.104998	0.841653
64972	-2.452391	3.204946	8.851298	0.218049	0.738131	-0.115319	-0.514096	-0.166524	0.101771	0.835235
64973	-2.386738	3.093960	8.984045	0.026655	0.713789	-0.041715	-0.524857	-0.168627	0.099167	0.828405
64974	-2.154963	3.177934	9.030822	-0.036919	0.452033	-0.009978	-0.535632	-0.170776	0.096492	0.821355
64975	-2.218362	2.941818	9.236049	-0.313756	0.581547	0.109173	-0.546477	-0.172570	0.093743	0.814122
64976	-2.135402	2.686413	9.366000	-0.634228	0.573712	0.125481	-0.557440	-0.174588	0.091223	0.806510
64977	-2.160219	2.687049	9.579826	-0.741533	0.556893	0.326329	-0.568480	-0.177009	0.089011	0.798483
64978	-2.027430	2.999202	10.014357	-0.715261	0.271480	0.808403	-0.579417	-0.179625	0.087089	0.790206
64979	-1.797395	3.410860	10.095263	-0.472811	-0.105462	0.982877	-0.590360	-0.181807	0.084842	0.781808
64980	-1.703340	3.281797	9.924109	-0.555016	-0.164682	0.762014	-0.601236	-0.183536	0.082345	0.773336
64981	-1.628234	2.895580	9.630130	-0.809408	-0.130542	0.341263	-0.611905	-0.185170	0.079961	0.764782
64982	-1.612158	2.794679	9.296562	-0.790882	-0.110858	-0.004656	-0.622156	-0.187409	0.078276	0.756091
64983	-1.664697	3.192746	9.208322	-0.416768	-0.150790	0.064635	-0.632023	-0.189834	0.077065	0.747376
64984	-1.584200	3.322380	9.093266	-0.298526	-0.245292	-0.010340	-0.641618	-0.192235	0.076066	0.738637
64985	-1.720239	3.529056	8.933067	-0.067676	-0.127070	-0.056032	-0.651126	-0.194626	0.074792	0.729768
64986	-1.828368	3.578661	8.913981	-0.038628	-0.026232	-0.034827	-0.660617	-0.196711	0.073248	0.720780
64987	-1.802502	3.304969	8.914147	-0.321924	-0.025874	-0.141624	-0.670059	-0.198942	0.071507	0.711568
64988	-1.808102	3.356511	8.831131	-0.271517	-0.025607	-0.197605	-0.679229	-0.201269	0.069543	0.702355
64989	-1.833880	3.380128	9.001136	-0.345162	-0.049932	-0.030709	-0.688052	-0.203700	0.067727	0.693184
64990	-1.819207	3.599047	9.081546	-0.201826	-0.108471	0.121322	-0.696657	-0.206021	0.065601	0.684048
64991	-1.889770	3.666274	9.104506	-0.172331	-0.064753	0.180855	-0.705164	-0.207918	0.062993	0.674941
64992	-2.015545	3.498394	9.221483	-0.394541	0.010543	0.246194	-0.713612	-0.209644	0.060180	0.665722
64993	-1.812415	3.668865	9.296045	-0.247459	-0.223498	0.338699	-0.721904	-0.211026	0.057107	0.656553
64994	-2.056954	3.612451	9.289450	-0.320052	-0.007452	0.359441	-0.730117	-0.211612	0.053495	0.647524
64995	-2.110080	3.559130	9.298217	-0.360440	0.021040	0.358166	-0.738256	-0.211689	0.049747	0.638507
64996	-2.049024	3.549865	9.203751	-0.295034	-0.027132	0.258120	-0.746495	-0.211287	0.045651	0.629300
64997	-2.134807	3.469329	9.045475	-0.295001	0.078965	0.103000	-0.754786	-0.210470	0.041338	0.619913
64998	-2.389297	3.129503	9.177249	-0.672395	0.226015	0.148292	-0.762901	-0.209826	0.037197	0.610387
64999	-2.259604	3.222515	9.239678	-0.550343	0.083267	0.214884	-0.770667	-0.209886	0.033623	0.600741
65000	-2.304918	3.550834	9.197409	-0.236628	0.185393	0.307739	-0.778253	-0.209956	0.030196	0.591041
65001	-2.304397	3.621283	9.259207	-0.178035	0.172859	0.390021	-0.785693	-0.209885	0.026725	0.581309
65002	-2.603544	3.550002	9.377739	-0.362851	0.383643	0.533523	-0.792867	-0.210096	0.023199	0.571563
65003	-2.946318	3.513275	9.424035	-0.528156	0.648544	0.634163	-0.799722	-0.210845	0.019782	0.561781
65004	-3.142041	3.431519	9.443652	-0.688576	0.761149	0.664749	-0.806434	-0.211764	0.016292	0.551864
65005	-3.236615	3.198252	9.258287	-0.898556	0.795367	0.433296	-0.812921	-0.212798	0.013144	0.541944
65006	-3.063341	3.082045	9.078965	-0.904626	0.621911	0.192579	-0.819169	-0.214042	0.010356	0.532016
65007	-3.036261	3.093827	9.012351	-0.893206	0.583658	0.130876	-0.825199	-0.215368	0.008001	0.522111
65008	-3.283861	3.242346	9.091487	-0.931691	0.785322	0.309896	-0.831088	-0.216506	0.005897	0.512234
65009	-3.478724	3.208226	9.031059	-1.079200	0.927257	0.283330	-0.836968	-0.217298	0.004102	0.502244
65010	-3.556230	3.103689	9.003432	-1.241323	0.929734	0.234000	-0.842767	-0.217954	0.002325	0.492173
65011	-3.731157	3.273795	9.205270	-1.280942	1.037727	0.514863	-0.848315	-0.218783	0.000693	0.482178
65012	-3.755648	3.672774	9.268887	-1.031710	1.175908	0.725764	-0.853699	-0.219569	-0.000972	0.472215
65013	-3.841681	3.665212	9.267049	-1.131902	1.212377	0.738105	-0.859078	-0.220033	-0.003027	0.462126
65014	-3.918058	3.481953	9.223846	-1.353356	1.169597	0.644595	-0.864360	-0.220413	-0.005202	0.451965
65015	-3.928096	3.331841	9.082968	-1.488733	1.120087	0.461564	-0.869449	-0.220929	-0.007336	0.441808
65016	-3.972288	3.301363	9.083280	-1.580002	1.093401	0.458232	-0.874280	-0.221726	-0.009369	0.431723
65017	-3.893790	3.485375	8.873750	-1.396258	1.171750	0.322898	-0.878978	-0.222299	-0.011340	0.421725
65018	-3.904802	3.539652	8.638994	-1.361060	1.269854	0.134355	-0.883689	-0.222237	-0.013601	0.411727
65019	-3.995580	3.553305	8.546775	-1.427052	1.355855	0.074835	-0.888400	-0.221454	-0.015955	0.401807
65020	-3.975418	3.443552	8.397223	-1.495218	1.322181	-0.107459	-0.893031	-0.220328	-0.018367	0.391937
65021	-3.895129	3.365870	8.271752	-1.498519	1.258127	-0.268343	-0.897553	-0.219001	-0.020742	0.382110
65022	-3.809344	3.169681	8.176962	-1.583237	1.105737	-0.448322	-0.901869	-0.217834	-0.022783	0.372374
65023	-3.700268	3.244650	8.064324	-1.465547	1.110857	-0.546019	-0.905889	-0.217056	-0.024534	0.362836
65024	-3.719786	3.356293	8.102374	-1.440905	1.161349	-0.467907	-0.909668	-0.216430	-0.026031	0.353532
65025	-3.733671	3.509349	8.084579	-1.385343	1.259135	-0.425914	-0.913284	-0.215996	-0.027392	0.344250
65026	-3.571923	3.862327	8.048583	-1.072236	1.393338	-0.359399	-0.916796	-0.215596	-0.028818	0.334922
65027	-3.542024	3.970511	8.124987	-1.026122	1.406621	-0.257861	-0.920363	-0.214668	-0.030483	0.325455
65028	-3.328628	3.727066	8.368528	-1.056016	0.998156	-0.174664	-0.923794	-0.214167	-0.032657	0.315707
65029	-3.452223	3.596505	9.019408	-1.298947	0.664495	0.388948	-0.926851	-0.214984	-0.035465	0.305732
65030	-3.584440	3.782138	9.602399	-1.345257	0.553402	1.015162	-0.929606	-0.216741	-0.038894	0.295538
65031	-3.238796	4.294622	9.479495	-0.768438	0.728409	1.035036	-0.932405	-0.217716	-0.042261	0.285369
65032	-2.870313	3.928500	9.367085	-0.646897	0.283843	0.718931	-0.935507	-0.216772	-0.046136	0.275152
65033	-2.979082	2.963784	9.303742	-1.218933	-0.371515	0.316211	-0.938692	-0.214887	-0.049837	0.264949
65034	-2.872859	2.876659	9.337803	-1.135906	-0.507079	0.295504	-0.941730	-0.212840	-0.052952	0.255030
65035	-2.924278	3.077473	9.456842	-1.049732	-0.370094	0.493384	-0.944758	-0.210204	-0.055564	0.245272
65036	-2.727736	3.311534	9.319904	-0.739676	-0.187970	0.418872	-0.947766	-0.207169	-0.058119	0.235464
65037	-2.878363	3.567181	9.329793	-0.729549	0.110463	0.556024	-0.950698	-0.203832	-0.060862	0.225660
65038	-2.686443	3.637866	9.128940	-0.511802	0.215075	0.359835	-0.953526	-0.200431	-0.063455	0.215847
65039	-2.385429	3.217066	8.967904	-0.409347	-0.145562	-0.000745	-0.956064	-0.197724	-0.066316	0.206031
65040	-2.232838	3.035154	8.928196	-0.324891	-0.321000	-0.132720	-0.958183	-0.196320	-0.069024	0.196419
65041	-2.046438	3.203874	8.890957	-0.067708	-0.229781	-0.146022	-0.959998	-0.195759	-0.071775	0.186895
65042	-1.969409	3.316309	9.038178	0.076119	-0.224826	0.011200	-0.961745	-0.195097	-0.074583	0.177262
65043	-1.800682	3.324996	9.203586	0.269627	-0.332430	0.128177	-0.963517	-0.193833	-0.077283	0.167604
65044	-1.791953	3.294696	9.250598	0.294298	-0.359625	0.158452	-0.965336	-0.191803	-0.079861	0.157990
65045	-1.602138	3.195578	9.429255	0.481892	-0.535626	0.245647	-0.967102	-0.189403	-0.082414	0.148485
65046	-1.795284	3.260110	9.771926	0.386945	-0.524783	0.623621	-0.968739	-0.186846	-0.085071	0.139270
65047	-1.834816	3.249512	9.916535	0.394649	-0.541000	0.761569	-0.970232	-0.184429	-0.087601	0.130239
65048	-1.758286	3.174196	10.055884	0.496482	-0.640014	0.847122	-0.971591	-0.182099	-0.090259	0.121263
65049	-1.666685	3.094607	10.026964	0.592587	-0.678901	0.774197	-0.972862	-0.179729	-0.092678	0.112459
65050	-1.576387	2.843076	9.938643	0.634145	-0.847033	0.590429	-0.974068	-0.177209	-0.094826	0.103902
65051	-1.653255	2.667290	9.886085	0.538475	-0.929279	0.503737	-0.975220	-0.174583	-0.096599	0.095577
65052	-1.553484	2.768859	9.791521	0.663715	-0.766045	0.430659	-0.976356	-0.171661	-0.098151	0.087343
65053	-1.619564	2.763978	9.523104	0.570469	-0.606247	0.200241	-0.977539	-0.168162	-0.099528	0.078953
65054	-1.594700	2.441632	9.393848	0.524724	-0.796430	-0.022951	-0.978719	-0.164235	-0.100737	0.070626
65055	-1.529233	2.190343	9.148282	0.515092	-0.889668	-0.337981	-0.979720	-0.160802	-0.101862	0.062581
65056	-1.517995	2.264543	9.116275	0.543923	-0.756823	-0.343259	-0.980531	-0.157935	-0.102945	0.054931
65057	-1.527455	2.252473	9.304292	0.579560	-0.785550	-0.167820	-0.981166	-0.155640	-0.104073	0.047531
65058	-1.446035	2.248491	9.462055	0.701668	-0.810874	-0.038883	-0.981632	-0.153899	-0.105288	0.040356
65059	-1.407426	2.200226	9.455749	0.746762	-0.827015	-0.066338	-0.982032	-0.152201	-0.106478	0.033317
65060	-1.449619	2.071136	9.615863	0.742718	-0.970118	0.054579	-0.982331	-0.150617	-0.107887	0.026459
65061	-1.608092	2.051552	9.706767	0.626280	-0.990678	0.169417	-0.982531	-0.149338	-0.109265	0.019802
65062	-1.591761	2.051574	9.663488	0.653425	-0.957373	0.126229	-0.982696	-0.147979	-0.110602	0.013313
65063	-1.518299	1.995454	9.587482	0.724554	-0.970653	0.022946	-0.982751	-0.147093	-0.111868	0.007087
65064	-1.685352	2.224898	9.733866	0.622716	-0.789541	0.263401	-0.982717	-0.146559	-0.113073	0.001314
65065	-2.017820	2.415446	9.923416	0.365332	-0.674300	0.569604	-0.982586	-0.146414	-0.114329	-0.003984
65066	-2.388430	2.542372	9.965139	0.037667	-0.592113	0.728667	-0.982344	-0.146623	-0.115854	-0.008942
65067	-2.679184	2.778449	9.669995	-0.286408	-0.316181	0.590414	-0.982023	-0.147078	-0.117527	-0.013650
65068	-2.678372	2.827647	9.548720	-0.289745	-0.259003	0.492466	-0.981652	-0.147661	-0.119266	-0.018207
65069	-2.561177	2.829256	9.309999	-0.209562	-0.205965	0.244845	-0.981246	-0.148349	-0.120987	-0.022587
65070	-2.600566	2.733413	9.079147	-0.280888	-0.259461	0.011726	-0.980837	-0.148999	-0.122621	-0.026876
65071	-2.643996	2.566583	9.098804	-0.292934	-0.455086	-0.010990	-0.980397	-0.149805	-0.124155	-0.031062
65072	-2.747525	2.540367	9.166819	-0.351894	-0.540111	0.067457	-0.979921	-0.150729	-0.125682	-0.035219
65073	-2.919678	2.701388	9.292741	-0.467516	-0.475016	0.273576	-0.979431	-0.151684	-0.127107	-0.039371
65074	-3.011382	2.818374	9.399187	-0.512265	-0.434934	0.429614	-0.979018	-0.152151	-0.128394	-0.043470
65075	-3.059142	2.759363	9.416849	-0.533839	-0.524066	0.438644	-0.978648	-0.152383	-0.129531	-0.047434
65076	-3.336141	2.505478	9.474693	-0.752749	-0.839679	0.478343	-0.978236	-0.152734	-0.130771	-0.051238
65077	-3.422615	2.575797	9.417565	-0.834285	-0.795588	0.468872	-0.977765	-0.153500	-0.132000	-0.054667
65078	-3.471373	2.709968	9.382666	-0.878666	-0.693245	0.491489	-0.977349	-0.154010	-0.133171	-0.057756
65079	-3.465970	2.707406	9.273065	-0.889589	-0.683300	0.389001	-0.977062	-0.154206	-0.133828	-0.060509
65080	-3.241807	2.724763	9.009018	-0.745708	-0.568340	0.097759	-0.976852	-0.154266	-0.134163	-0.062950
65081	-3.393081	2.779101	8.772162	-0.962857	-0.482162	-0.064474	-0.976751	-0.154074	-0.134167	-0.064945
65082	-3.305698	2.848518	8.633950	-0.931258	-0.364311	-0.190483	-0.976752	-0.153620	-0.133905	-0.066527
65083	-3.468253	2.937052	8.575726	-1.120302	-0.286273	-0.176242	-0.976843	-0.152710	-0.133611	-0.067863
65084	-3.485368	2.635069	8.416096	-1.164864	-0.517892	-0.416044	-0.976940	-0.151787	-0.133289	-0.069156
65085	-3.249993	2.536359	8.294147	-0.974699	-0.522414	-0.616739	-0.977056	-0.150673	-0.133058	-0.070390
65086	-3.133740	2.261040	8.070187	-0.909387	-0.683263	-0.937628	-0.977198	-0.149473	-0.132763	-0.071522
65087	-3.094512	2.448238	8.659261	-0.727696	-0.651091	-0.347002	-0.977244	-0.148895	-0.132766	-0.072095
65088	-3.260396	2.983560	9.579152	-0.670107	-0.423333	0.706993	-0.977150	-0.148554	-0.133596	-0.072541
65089	-3.297019	3.487882	10.254793	-0.534046	-0.128995	1.496355	-0.976956	-0.147772	-0.135527	-0.073167
65090	-3.080355	3.520893	10.715123	-0.150053	-0.150984	1.877196	-0.976821	-0.145629	-0.138211	-0.074227
65091	-2.501885	2.718523	10.384028	0.435132	-0.654084	1.180951	-0.976833	-0.142581	-0.140680	-0.075344
65092	-2.081538	1.821277	9.794199	0.791210	-1.204855	0.261938	-0.976950	-0.139632	-0.142549	-0.075839
65093	-1.967329	1.062233	9.444899	0.901367	-1.770832	-0.312348	-0.976967	-0.138507	-0.143723	-0.075459
65094	-1.996253	1.223779	9.343201	0.843717	-1.592218	-0.350604	-0.976821	-0.139348	-0.144471	-0.074373
65095	-2.454568	1.880530	9.363347	0.360966	-1.077811	-0.017712	-0.976660	-0.140646	-0.144860	-0.073272
65096	-2.720840	2.794498	9.410970	0.037552	-0.289494	0.370304	-0.976627	-0.141307	-0.144802	-0.072562
65097	-2.866460	3.013707	9.476326	-0.104344	-0.121268	0.534977	-0.976795	-0.140347	-0.144586	-0.072584
65098	-2.790142	2.644402	9.501259	0.007602	-0.440865	0.427293	-0.976960	-0.138967	-0.144597	-0.072998
65099	-2.495721	2.605583	9.424608	0.269435	-0.384418	0.268013	-0.976965	-0.138362	-0.145082	-0.073126
65100	-2.389751	2.855176	9.380801	0.342686	-0.110336	0.273578	-0.976887	-0.138431	-0.145759	-0.072688
65101	-2.281989	2.947957	9.343534	0.437433	0.006811	0.237593	-0.976864	-0.138612	-0.146231	-0.071694
65102	-2.221304	2.746070	9.320182	0.518569	-0.169035	0.139367	-0.976879	-0.138835	-0.146568	-0.070349
65103	-2.236896	2.878504	9.309731	0.501324	-0.044552	0.172665	-0.976862	-0.139098	-0.147179	-0.068776
65104	-2.453741	3.012604	9.396110	0.325704	0.020065	0.349842	-0.976829	-0.139469	-0.147643	-0.067489
65105	-2.183106	2.951615	9.416896	0.606762	0.001802	0.276304	-0.976809	-0.139610	-0.148121	-0.066427
65106	-2.256375	2.593241	9.252096	0.529232	-0.308992	0.038294	-0.976789	-0.139729	-0.148598	-0.065412
65107	-2.247505	2.503234	9.047981	0.496113	-0.345793	-0.178494	-0.976657	-0.140487	-0.149324	-0.064083
65108	-2.463499	2.695759	9.033079	0.292182	-0.210438	-0.076018	-0.976435	-0.141733	-0.150271	-0.062493
65109	-2.576843	2.966879	9.039903	0.189980	0.009772	0.042569	-0.976253	-0.142741	-0.151179	-0.060824
65110	-2.554752	3.088828	9.040443	0.223751	0.121521	0.073281	-0.976199	-0.143034	-0.151903	-0.059186
65111	-2.591600	2.899597	9.088455	0.237306	-0.074922	0.069727	-0.976166	-0.143037	-0.152726	-0.057579
65112	-2.490345	2.988131	8.719782	0.232969	0.129827	-0.268362	-0.976115	-0.142921	-0.153832	-0.055759
65113	-2.566735	3.004900	8.469037	0.113425	0.214214	-0.470140	-0.976004	-0.142283	-0.155819	-0.053781
65114	-2.913375	2.691754	8.557239	-0.122429	-0.143061	-0.382736	-0.975790	-0.141950	-0.158119	-0.051793
65115	-2.534859	2.694514	8.339336	0.211785	-0.015823	-0.692099	-0.975503	-0.141856	-0.160572	-0.049867
65116	-2.273015	2.597847	8.372675	0.528106	-0.075240	-0.772099	-0.975079	-0.142214	-0.163474	-0.047662
65117	-2.551806	2.559512	8.286536	0.303667	-0.132404	-0.778347	-0.974457	-0.143156	-0.167065	-0.045049
65118	-2.870685	3.493396	8.297341	0.051854	0.706735	-0.389964	-0.973808	-0.143792	-0.171027	-0.042081
65119	-3.522151	3.356122	8.658648	-0.340258	0.410880	0.104767	-0.973369	-0.142363	-0.175232	-0.039743
65120	-3.288370	2.302286	8.445695	-0.085171	-0.474404	-0.474020	-0.972844	-0.141251	-0.179450	-0.037678
65121	-3.021554	2.023918	8.190247	0.167205	-0.621094	-0.874476	-0.971927	-0.141344	-0.184771	-0.035207
65122	-3.490889	2.211184	8.179648	-0.164236	-0.497734	-0.663571	-0.970657	-0.142661	-0.190964	-0.031721
65123	-3.966129	3.053667	8.377737	-0.400587	0.191228	-0.063696	-0.969308	-0.143775	-0.197460	-0.027943
65124	-3.769499	3.314511	8.326897	-0.099416	0.481237	-0.102423	-0.968061	-0.143701	-0.203954	-0.024706
65125	-3.723246	2.603614	8.085753	-0.026021	-0.104203	-0.538662	-0.966795	-0.142488	-0.211009	-0.021904
65126	-3.808201	1.920060	7.686028	-0.142241	-0.627877	-1.046403	-0.965257	-0.141497	-0.218892	-0.018517
65127	-4.584252	2.261051	7.575408	-0.718214	-0.318765	-0.708056	-0.963282	-0.140831	-0.228133	-0.014508
65128	-5.308571	2.557737	8.097480	-0.937240	-0.217919	0.155421	-0.961209	-0.140728	-0.236978	-0.010695
65129	-4.644112	2.523929	8.030427	-0.194706	-0.158547	-0.202283	-0.958974	-0.140941	-0.245877	-0.006991
65130	-3.987490	2.300045	7.572398	0.337644	-0.184916	-0.959426	-0.956343	-0.141106	-0.255908	-0.002947
65131	-4.832226	2.157214	7.009591	-0.480908	-0.218959	-1.045971	-0.953321	-0.140872	-0.267075	0.002135
65132	-6.105598	2.364464	7.431911	-1.104349	-0.202214	0.027855	-0.949921	-0.140523	-0.279022	0.007057
65133	-6.486055	1.810321	7.387000	-1.257009	-0.735823	0.076083	-0.946325	-0.142244	-0.289989	0.011895
65134	-5.376683	2.504516	7.429737	0.002849	-0.031720	-0.306051	-0.942215	-0.144584	-0.301688	0.017611
65135	-5.480139	2.309094	7.178936	0.005201	-0.166640	-0.492407	-0.937795	-0.146018	-0.314075	0.024021
65136	-6.147136	3.064827	6.501935	-0.549474	0.745304	-0.400383	-0.933405	-0.144561	-0.326983	0.030657
65137	-7.100906	2.156549	6.980205	-0.857834	-0.233441	0.336118	-0.928905	-0.141196	-0.340450	0.035962
65138	-7.260123	0.983221	6.368656	-1.270337	-1.116548	-0.253974	-0.924042	-0.139786	-0.353371	0.041665
65139	-7.372268	1.506604	6.335776	-0.994983	-0.581792	-0.044059	-0.918106	-0.141135	-0.367153	0.048587
65140	-7.771821	2.352568	6.355504	-0.785398	0.212285	0.466261	-0.911598	-0.143232	-0.381242	0.055939
65141	-7.448086	2.235534	6.210669	-0.344740	0.149391	0.131823	-0.904819	-0.143527	-0.396007	0.062291
65142	-7.517848	1.801497	5.892037	-0.375654	-0.141346	-0.101422	-0.897774	-0.142079	-0.411342	0.067917
65143	-8.083622	1.432019	5.671570	-0.647241	-0.385883	0.136392	-0.890434	-0.140448	-0.426644	0.073326
65144	-8.718836	1.195587	5.866359	-0.603647	-0.634577	0.726934	-0.882831	-0.139483	-0.441494	0.078972
65145	-8.712744	1.306030	5.919999	-0.167420	-0.530218	0.786550	-0.874757	-0.139619	-0.456156	0.085017
65146	-8.781161	1.847771	5.642774	0.104017	0.081064	0.786102	-0.866118	-0.139485	-0.471258	0.091104
65147	-8.939987	1.508546	5.381809	0.090068	-0.144955	0.728767	-0.857219	-0.139955	-0.485923	0.097301
65148	-9.494949	0.992710	5.277790	-0.068440	-0.595627	1.078796	-0.847931	-0.143381	-0.499337	0.105436
65149	-10.006836	0.858309	5.539493	0.210754	-0.847921	1.623459	-0.838121	-0.149730	-0.511572	0.115881
65150	-10.036600	1.464317	5.210085	0.494279	-0.229245	1.576541	-0.827921	-0.156271	-0.523260	0.127769
65151	-10.358060	1.909244	5.024922	0.745386	0.215259	1.830782	-0.817706	-0.161142	-0.534709	0.139559
65152	-10.533117	1.441320	4.713934	0.593813	-0.111522	1.800658	-0.807426	-0.167054	-0.545021	0.152014
65153	-10.177961	1.438239	4.220384	0.644394	0.014864	1.279941	-0.796505	-0.175856	-0.554342	0.165406
65154	-10.422441	1.339353	3.982481	0.632247	-0.040976	1.406555	-0.785648	-0.185257	-0.562809	0.177999
65155	-9.926258	1.103748	3.237714	0.345845	0.006427	0.680415	-0.775043	-0.192852	-0.570921	0.190175
65156	-10.377156	0.833419	2.653796	-0.103677	0.071085	0.929726	-0.764365	-0.198643	-0.579102	0.202305
65157	-10.109269	1.497664	2.232061	0.276089	0.809590	0.612465	-0.753750	-0.205284	-0.585917	0.215456
65158	-9.639947	2.660196	2.639550	1.648790	1.441806	0.295126	-0.743332	-0.211746	-0.592389	0.227370
65159	-9.670178	1.986907	2.828172	1.649458	0.716588	0.297669	-0.733818	-0.217546	-0.598311	0.237083
65160	-9.830539	0.603543	2.137274	0.459039	-0.012388	0.254938	-0.724461	-0.223933	-0.603723	0.246026
65161	-10.049730	0.940329	1.660822	0.489338	0.495511	0.392700	-0.714452	-0.230781	-0.609320	0.255007
65162	-10.398538	1.629373	1.631553	1.098770	0.977915	0.736129	-0.704586	-0.237936	-0.614433	0.263471
65163	-10.286244	2.516064	2.300970	2.411707	1.068567	0.697723	-0.695614	-0.244757	-0.618973	0.270348
65164	-10.404232	1.863726	2.498348	2.273093	0.338565	0.802327	-0.688269	-0.250798	-0.622677	0.275061
65165	-10.192560	0.509684	2.000599	1.110602	-0.410596	0.519157	-0.682217	-0.256707	-0.624984	0.279421
65166	-9.883804	0.118818	1.725881	0.747905	-0.592165	0.175871	-0.676551	-0.261890	-0.627133	0.283544
65167	-10.166628	0.281862	1.615662	0.859716	-0.448893	0.439559	-0.671491	-0.265663	-0.629398	0.287020
65168	-10.442658	0.503414	1.703085	1.142406	-0.394163	0.710722	-0.667964	-0.268576	-0.630565	0.289963
65169	-10.390027	0.529356	1.947565	1.370293	-0.590329	0.665843	-0.665603	-0.271567	-0.630402	0.292945
65170	-10.152505	-0.376569	1.809813	0.623391	-1.130814	0.425633	-0.663750	-0.275292	-0.628895	0.296886
65171	-9.889113	-1.159899	1.411341	-0.237378	-1.368479	0.147365	-0.661445	-0.280551	-0.626193	0.302760
65172	-9.691540	-1.234534	1.001671	-0.580633	-1.101884	-0.070920	-0.658213	-0.286854	-0.623179	0.310029
65173	-9.657892	-0.475331	0.747441	-0.169089	-0.409630	-0.124390	-0.654176	-0.294220	-0.619832	0.318272
65174	-9.920350	0.683562	0.940725	0.853559	0.163364	0.137703	-0.650280	-0.301726	-0.616212	0.326159
65175	-9.955149	1.028383	1.056920	1.196543	0.254309	0.176466	-0.647204	-0.308354	-0.612794	0.332459
65176	-9.849396	1.125982	1.113244	1.298531	0.234259	0.075519	-0.645379	-0.313353	-0.609844	0.336730
65177	-9.607478	0.505630	0.933909	0.670865	-0.001421	-0.170003	-0.644711	-0.316571	-0.607594	0.339057
65178	-9.570840	-0.299579	0.668640	-0.170932	-0.242852	-0.218442	-0.644772	-0.318639	-0.605772	0.340263
65179	-9.519213	-0.686362	0.399117	-0.668914	-0.235012	-0.286772	-0.644926	-0.320236	-0.604146	0.341362
65180	-9.621624	-0.578413	0.416687	-0.595474	-0.176192	-0.184698	-0.644848	-0.321632	-0.602761	0.342640
65181	-9.581040	-0.047087	0.513688	-0.110299	0.041766	-0.218496	-0.644638	-0.322465	-0.602011	0.343571
65182	-9.630258	0.174897	0.674944	0.158498	0.035160	-0.158587	-0.644598	-0.322537	-0.601927	0.343725
65183	-9.652354	0.143321	0.798067	0.200142	-0.082407	-0.128755	-0.644787	-0.322038	-0.602211	0.343341
65184	-9.787657	-0.175769	0.818729	-0.055779	-0.267511	0.006924	-0.644995	-0.321337	-0.602654	0.342830
65185	-9.909646	-0.376630	0.810009	-0.226395	-0.362182	0.127967	-0.645067	-0.320743	-0.602944	0.342741
65186	-10.018404	-0.196161	0.799655	-0.077804	-0.240350	0.236318	-0.644912	-0.320314	-0.603048	0.343250
65187	-9.887890	0.210600	0.887106	0.324191	-0.084587	0.111495	-0.644640	-0.319931	-0.603180	0.343885
65188	-9.718351	0.325495	1.012908	0.506071	-0.125870	-0.050192	-0.644511	-0.319391	-0.603435	0.344183
65189	-9.628367	0.163368	1.066715	0.412310	-0.257843	-0.136245	-0.644602	-0.318739	-0.603693	0.344164
65190	-9.623526	0.018424	1.059970	0.292632	-0.325999	-0.140861	-0.644769	-0.318267	-0.603759	0.344171
65191	-9.673566	-0.023459	1.125449	0.293409	-0.393927	-0.086239	-0.644952	-0.317964	-0.603665	0.344274
65192	-9.760221	-0.039429	1.150260	0.288041	-0.410149	0.002371	-0.645207	-0.317860	-0.603251	0.344616
65193	-9.902642	-0.073805	1.128233	0.235226	-0.391924	0.143804	-0.645522	-0.317871	-0.602629	0.345105
65194	-9.921847	-0.088849	1.089069	0.190004	-0.353447	0.161076	-0.645940	-0.317867	-0.601862	0.345665
65195	-9.823313	0.008193	1.039412	0.235261	-0.251089	0.059471	-0.646350	-0.317878	-0.601164	0.346102
65196	-9.681076	-0.017876	1.094489	0.237738	-0.308923	-0.077725	-0.646826	-0.317808	-0.600569	0.346311
65197	-9.633665	-0.107461	1.081598	0.146023	-0.341460	-0.125016	-0.647324	-0.317765	-0.600002	0.346402
65198	-9.660297	-0.224706	1.081388	0.035345	-0.396209	-0.097597	-0.647779	-0.317764	-0.599441	0.346523
65199	-9.787422	-0.337909	1.051458	-0.091507	-0.417386	0.027575	-0.648098	-0.317878	-0.598845	0.346852
65200	-9.853379	-0.298074	0.982216	-0.108260	-0.325018	0.088086	-0.648196	-0.318186	-0.598221	0.347464
65201	-9.799330	-0.093289	0.995752	0.066461	-0.218465	0.034898	-0.648171	-0.318416	-0.597711	0.348177
65202	-9.746628	0.038235	1.088354	0.226806	-0.218334	-0.010462	-0.648188	-0.318417	-0.597388	0.348698
65203	-9.675401	0.019325	1.115044	0.227552	-0.246720	-0.079013	-0.648336	-0.318160	-0.597148	0.349069
65204	-9.701859	-0.040777	1.082203	0.157541	-0.240546	-0.054808	-0.648547	-0.317795	-0.596975	0.349306
65205	-9.703937	-0.085788	1.070087	0.112980	-0.245520	-0.053292	-0.648715	-0.317446	-0.596841	0.349539
65206	-9.722288	-0.111701	1.041414	0.075372	-0.226135	-0.037051	-0.648829	-0.317153	-0.596740	0.349765
65207	-9.724412	-0.092021	1.051173	0.097800	-0.215868	-0.034065	-0.648923	-0.316908	-0.596634	0.349994
65208	-9.765397	-0.101778	1.175623	0.156992	-0.315937	0.017418	-0.648964	-0.316737	-0.596586	0.350154
65209	-9.871260	-0.075716	1.186049	0.181836	-0.298331	0.123718	-0.648947	-0.316587	-0.596592	0.350312
65210	-9.856787	-0.043825	1.076749	0.149594	-0.185756	0.099965	-0.649086	-0.316416	-0.596414	0.350511
65211	-9.802587	-0.070763	1.217007	0.204956	-0.316433	0.058214	-0.649196	-0.316273	-0.596358	0.350531
65212	-9.913896	-0.034031	1.186232	0.214575	-0.260264	0.166283	-0.649189	-0.316175	-0.596418	0.350531
65213	-9.782571	0.047193	1.036983	0.206163	-0.099376	0.022142	-0.649243	-0.316153	-0.596292	0.350666
65214	-9.608622	0.027573	1.052435	0.204544	-0.135183	-0.149671	-0.649166	-0.316315	-0.596233	0.350762
65215	-9.601353	-0.070879	1.112397	0.154378	-0.242430	-0.151124	-0.648979	-0.316756	-0.596118	0.350906
65216	-9.718864	-0.091305	1.119219	0.134260	-0.254057	-0.033386	-0.648797	-0.317215	-0.595921	0.351163
65217	-9.745955	-0.035745	1.100801	0.167085	-0.207213	-0.008310	-0.648704	-0.317545	-0.595648	0.351500
65218	-9.680517	-0.020394	1.107153	0.183781	-0.207287	-0.072982	-0.648678	-0.317695	-0.595427	0.351786
65219	-9.675001	-0.050033	1.123774	0.166731	-0.234476	-0.076762	-0.648745	-0.317628	-0.595299	0.351939
65220	-9.718097	-0.046620	1.123162	0.165735	-0.224020	-0.033760	-0.648987	-0.317364	-0.595177	0.351938
65221	-9.809989	-0.052892	1.106832	0.144787	-0.201164	0.056574	-0.649262	-0.317109	-0.595039	0.351895
65222	-9.850353	-0.073446	1.101540	0.120274	-0.199773	0.096595	-0.649468	-0.316879	-0.594947	0.351877
65223	-9.876799	-0.039123	1.009521	0.095838	-0.097132	0.114709	-0.649620	-0.316708	-0.594804	0.351990
65224	-9.759522	-0.040947	1.029366	0.108978	-0.118714	-0.000268	-0.649667	-0.316641	-0.594660	0.352209
65225	-9.735085	-0.054057	1.132146	0.154662	-0.209843	-0.015310	-0.649606	-0.316732	-0.594514	0.352485
65226	-9.732323	-0.059034	1.152985	0.161039	-0.227890	-0.016101	-0.649556	-0.316903	-0.594317	0.352757
65227	-9.710372	-0.015858	1.127394	0.182734	-0.183284	-0.040502	-0.649497	-0.317092	-0.594144	0.352987
65228	-9.775791	-0.115308	1.072616	0.065665	-0.185625	0.020477	-0.649431	-0.317239	-0.594019	0.353186
65229	-9.794777	-0.136845	1.039096	0.027988	-0.166033	0.036564	-0.649381	-0.317335	-0.593857	0.353465
65230	-9.753833	-0.077812	1.100589	0.112429	-0.185391	0.000956	-0.649341	-0.317367	-0.593719	0.353741
65231	-9.721106	-0.053858	1.156023	0.164394	-0.217872	-0.026744	-0.649349	-0.317279	-0.593660	0.353902
65232	-9.731829	-0.066106	1.156770	0.154317	-0.220633	-0.015826	-0.649448	-0.317109	-0.593607	0.353962
65233	-9.707175	-0.096978	1.181456	0.142734	-0.256000	-0.037792	-0.649565	-0.316889	-0.593575	0.353999
65234	-9.725982	-0.120333	1.149243	0.105114	-0.236332	-0.021719	-0.649619	-0.316752	-0.593528	0.354102
65235	-9.758521	-0.151882	1.148336	0.076997	-0.247062	0.010932	-0.649596	-0.316754	-0.593444	0.354283
65236	-9.831830	-0.179421	1.110869	0.030335	-0.222039	0.080789	-0.649527	-0.316871	-0.593271	0.354593
65237	-9.836941	-0.102883	0.990602	0.028814	-0.075944	0.074208	-0.649420	-0.317053	-0.593009	0.355065
65238	-9.616418	0.155834	0.941814	0.229665	0.091721	-0.152168	-0.649326	-0.317093	-0.592820	0.355517
65239	-9.594809	0.253530	1.045497	0.370748	0.060033	-0.165063	-0.649315	-0.316896	-0.592894	0.355590
65240	-9.540491	0.161765	1.158581	0.358889	-0.085916	-0.207831	-0.649544	-0.316432	-0.593075	0.355283
65241	-9.475055	-0.001171	1.170170	0.231895	-0.187157	-0.270300	-0.649888	-0.315835	-0.593349	0.354727
65242	-9.350030	-0.096148	1.142755	0.143766	-0.226117	-0.396403	-0.650110	-0.315377	-0.593678	0.354176
65243	-9.446037	-0.242126	1.311586	0.111568	-0.441936	-0.283850	-0.650151	-0.315155	-0.594074	0.353633
65244	-9.496661	-0.372648	1.473168	0.091840	-0.651054	-0.217723	-0.649989	-0.315225	-0.594450	0.353237
65245	-9.564367	-0.480570	1.563036	0.052817	-0.790010	-0.141896	-0.649541	-0.315596	-0.594857	0.353045
65246	-9.711582	-0.672805	1.598803	-0.087730	-0.927136	0.008532	-0.648742	-0.316421	-0.595190	0.353215
65247	-9.894767	-0.737425	1.631309	-0.123860	-0.991295	0.192978	-0.647635	-0.317652	-0.595384	0.353814
65248	-10.072691	-0.719506	1.646880	-0.099054	-0.997837	0.369822	-0.646242	-0.319242	-0.595425	0.354859
65249	-9.969848	-0.505859	1.580811	0.059187	-0.851802	0.258242	-0.644498	-0.321150	-0.595334	0.356459
65250	-9.642652	-0.284251	1.592979	0.276087	-0.785720	-0.070742	-0.642535	-0.323347	-0.595162	0.358298
65251	-9.531417	-0.247564	1.758417	0.411213	-0.938574	-0.171572	-0.640272	-0.325828	-0.595266	0.359926
65252	-9.567025	-0.229641	1.687147	0.400490	-0.897388	-0.145146	-0.637932	-0.328654	-0.595207	0.361606
65253	-9.584519	-0.416101	1.493491	0.148169	-0.860531	-0.142936	-0.635428	-0.332058	-0.594775	0.363609
65254	-9.793035	-0.740756	1.385222	-0.189129	-0.953402	0.057786	-0.632432	-0.336365	-0.593908	0.366282
65255	-9.971532	-0.793787	1.343651	-0.262496	-0.964185	0.230634	-0.629023	-0.341395	-0.592382	0.369951
65256	-10.003246	-0.376783	1.263193	0.058453	-0.715376	0.251472	-0.625486	-0.346500	-0.590488	0.374205
65257	-10.027993	-0.101822	1.253142	0.293999	-0.600017	0.271699	-0.622103	-0.351361	-0.588565	0.378318
65258	-10.087331	-0.199846	1.172871	0.165943	-0.594301	0.325806	-0.619099	-0.355885	-0.586590	0.382067
65259	-9.982466	-0.282251	0.972647	-0.002191	-0.475402	0.209753	-0.616377	-0.360170	-0.584448	0.385717
65260	-9.897629	-0.323978	0.817166	-0.113723	-0.368758	0.116404	-0.613701	-0.364386	-0.582122	0.389523
65261	-9.862639	-0.378350	0.702383	-0.219286	-0.294985	0.075338	-0.610996	-0.368716	-0.579534	0.393538
65262	-9.895518	-0.339624	0.572268	-0.247534	-0.160125	0.100798	-0.608302	-0.373110	-0.576704	0.397706
65263	-9.893627	-0.165727	0.487868	-0.130429	-0.012081	0.093481	-0.605664	-0.377381	-0.573773	0.401919
65264	-9.808656	0.030063	0.488037	0.043835	0.061096	0.007860	-0.603261	-0.381305	-0.570939	0.405846
65265	-9.992021	0.065672	0.507340	0.072317	0.067534	0.191931	-0.601196	-0.384812	-0.568304	0.409285
65266	-10.056101	0.049771	0.435291	0.019814	0.135987	0.252015	-0.599501	-0.387867	-0.565768	0.412389
65267	-9.984901	0.030748	0.324314	-0.045917	0.237452	0.174598	-0.598003	-0.390554	-0.563315	0.415374
65268	-9.944131	0.131471	0.246653	0.015304	0.353979	0.129059	-0.596487	-0.393086	-0.560917	0.418401
65269	-9.790776	0.269325	0.259710	0.148291	0.390977	-0.023693	-0.595044	-0.395348	-0.558686	0.421300
65270	-9.704024	0.305026	0.269063	0.183658	0.398573	-0.110063	-0.593791	-0.397353	-0.556744	0.423744
65271	-9.726034	0.216988	0.249686	0.090279	0.396823	-0.089543	-0.592631	-0.399208	-0.555061	0.425827
65272	-9.660574	0.345804	0.271215	0.218258	0.417168	-0.153590	-0.591547	-0.400835	-0.553629	0.427666
65273	-9.639955	0.361495	0.374239	0.264013	0.326072	-0.167821	-0.590668	-0.402104	-0.552480	0.429173
65274	-9.683313	0.193959	0.526099	0.147342	0.136301	-0.115231	-0.589994	-0.403165	-0.551514	0.430346
65275	-9.851782	0.042654	0.596694	0.016953	0.037252	0.057155	-0.589394	-0.404177	-0.550532	0.431475
65276	-9.841797	0.067340	0.546924	0.022794	0.097368	0.044018	-0.588776	-0.405082	-0.549473	0.432817
65277	-9.734210	0.093479	0.510757	0.037829	0.142122	-0.065749	-0.588208	-0.405851	-0.548417	0.434206
65278	-9.702831	0.048388	0.591750	0.018087	0.059444	-0.091906	-0.587644	-0.406540	-0.547501	0.435480
65279	-9.729922	0.035306	0.612194	0.010126	0.046255	-0.063577	-0.587203	-0.407139	-0.546686	0.436539
65280	-9.719740	0.014736	0.576758	-0.020243	0.081209	-0.076199	-0.586874	-0.407561	-0.546037	0.437397
65281	-9.688473	0.053843	0.523033	0.003731	0.149044	-0.111103	-0.586584	-0.407797	-0.545538	0.438188
65282	-9.650974	0.111158	0.601219	0.083490	0.093786	-0.143181	-0.586339	-0.407928	-0.545245	0.438758
65283	-9.733074	-0.023722	0.706153	-0.015738	-0.034761	-0.054077	-0.586139	-0.407985	-0.545120	0.439128
65284	-9.807762	-0.137619	0.734853	-0.115994	-0.085391	0.022474	-0.585962	-0.408044	-0.544942	0.439531
65285	-9.837277	-0.057482	0.669403	-0.054062	0.006267	0.047356	-0.585776	-0.408017	-0.544759	0.440029
65286	-9.791891	0.032931	0.638101	0.029972	0.064295	-0.000229	-0.585645	-0.407833	-0.544662	0.440495
65287	-9.751278	0.062373	0.717077	0.086120	0.000226	-0.035259	-0.585645	-0.407493	-0.544730	0.440725
65288	-9.862148	0.024274	0.722645	0.054335	-0.002681	0.075781	-0.585788	-0.407021	-0.544935	0.440718
65289	-9.900923	0.025220	0.655448	0.040051	0.070202	0.109611	-0.586053	-0.406506	-0.545082	0.440659
65290	-9.761344	0.106182	0.750304	0.149173	-0.004021	-0.023111	-0.586368	-0.405938	-0.545457	0.440300
65291	-9.844077	0.181630	0.800892	0.237627	-0.026444	0.062691	-0.586716	-0.405325	-0.546142	0.439551
65292	-9.810749	0.184367	0.667168	0.204716	0.097244	0.019837	-0.587223	-0.404750	-0.546677	0.438739
65293	-9.683060	0.108093	0.635417	0.122340	0.093267	-0.109419	-0.587663	-0.404427	-0.547135	0.437874
65294	-9.730701	-0.041790	0.687326	-0.011976	-0.002958	-0.057661	-0.587993	-0.404361	-0.547512	0.437021
65295	-9.808016	-0.021016	0.768954	0.024261	-0.078731	0.025103	-0.588352	-0.404286	-0.547877	0.436147
65296	-9.863589	0.062988	0.730145	0.086393	-0.021180	0.077689	-0.588875	-0.404028	-0.548258	0.435202
65297	-9.808611	0.064306	0.782017	0.097027	-0.080386	0.026451	-0.589522	-0.403634	-0.548756	0.434062
65298	-9.763871	-0.041094	0.789440	-0.006809	-0.128503	-0.017714	-0.590254	-0.403087	-0.549431	0.432720
65299	-9.779526	-0.132829	0.874032	-0.075707	-0.242921	0.003419	-0.591088	-0.402447	-0.550111	0.431312
65300	-9.749272	-0.181463	0.869006	-0.128999	-0.260911	-0.027408	-0.591884	-0.401859	-0.550662	0.430062
65301	-9.735010	-0.162569	0.904848	-0.105756	-0.294231	-0.039364	-0.592625	-0.401294	-0.551089	0.429021
65302	-9.777848	-0.097129	0.851291	-0.065431	-0.222772	-0.000117	-0.593268	-0.400729	-0.551480	0.428158
65303	-9.789861	-0.077066	0.871323	-0.044313	-0.235528	0.013252	-0.593906	-0.400154	-0.551844	0.427341
65304	-9.797727	-0.108458	0.873385	-0.077753	-0.247018	0.021079	-0.594535	-0.399625	-0.552160	0.426553
65305	-9.800831	-0.038380	0.860074	-0.018970	-0.211555	0.023591	-0.595126	-0.399045	-0.552451	0.425894
65306	-9.788085	0.057937	0.855553	0.069111	-0.175541	0.011077	-0.595719	-0.398399	-0.552764	0.425264
65307	-9.746493	0.055147	0.843540	0.060900	-0.164705	-0.031180	-0.596408	-0.397720	-0.553063	0.424544
65308	-9.805221	-0.092970	0.868816	-0.077447	-0.229089	0.028419	-0.597113	-0.397136	-0.553278	0.423819
65309	-9.800078	-0.081740	0.808712	-0.091420	-0.165942	0.019216	-0.597780	-0.396604	-0.553403	0.423214
65310	-9.804730	-0.011786	0.779178	-0.040037	-0.111130	0.022252	-0.598388	-0.396071	-0.553517	0.422704
65311	-9.824075	-0.027856	0.806964	-0.051645	-0.136608	0.043432	-0.599037	-0.395502	-0.553624	0.422177
65312	-9.830594	-0.001394	0.770434	-0.043667	-0.087523	0.047566	-0.599722	-0.394897	-0.553705	0.421665
65313	-9.765045	0.059327	0.767881	0.009880	-0.063511	-0.017528	-0.600422	-0.394216	-0.553858	0.421104
65314	-9.688652	0.044431	0.788027	0.000488	-0.085612	-0.092317	-0.601225	-0.393401	-0.554044	0.420476
65315	-9.700712	0.003141	0.860205	-0.019760	-0.158888	-0.075227	-0.602131	-0.392492	-0.554261	0.419742
65316	-9.736809	-0.110117	0.854033	-0.135169	-0.180197	-0.040472	-0.603096	-0.391547	-0.554439	0.419002
65317	-9.765755	-0.163007	0.866970	-0.186791	-0.198996	-0.010969	-0.603980	-0.390649	-0.554554	0.418416
65318	-9.879300	-0.209354	0.888998	-0.231422	-0.217600	0.103653	-0.604867	-0.389714	-0.554660	0.417864
65319	-9.988964	-0.264587	0.881600	-0.294650	-0.209688	0.212073	-0.605809	-0.388741	-0.554645	0.417427
65320	-9.934724	-0.158029	0.826082	-0.215855	-0.109555	0.154634	-0.606708	-0.387679	-0.554601	0.417167
65321	-9.753845	0.028929	0.799294	-0.045712	-0.015870	-0.026225	-0.607637	-0.386454	-0.554661	0.416872
65322	-9.645374	0.129554	0.853964	0.070240	-0.022683	-0.129000	-0.608675	-0.385033	-0.554916	0.416332
65323	-9.750168	0.103369	0.982822	0.086257	-0.128934	-0.013793	-0.609850	-0.383480	-0.555409	0.415388
65324	-9.931256	-0.108387	1.045170	-0.097746	-0.235906	0.170737	-0.611069	-0.381982	-0.555905	0.414311
65325	-9.930116	-0.210909	0.951121	-0.229596	-0.173729	0.160948	-0.612202	-0.380606	-0.556237	0.413460
65326	-9.693204	-0.074017	0.833100	-0.137874	-0.019888	-0.084464	-0.613093	-0.379412	-0.556388	0.413033
65327	-9.545262	0.139890	0.923783	0.100005	-0.023541	-0.222358	-0.613779	-0.378321	-0.556571	0.412768
65328	-9.527050	0.211416	1.005491	0.197477	-0.061963	-0.232628	-0.614566	-0.377247	-0.556826	0.412236
65329	-9.566157	0.158783	1.142357	0.195545	-0.195391	-0.181221	-0.615577	-0.376088	-0.557246	0.411218
65330	-9.760822	-0.060102	1.175333	-0.005067	-0.286589	0.014647	-0.616616	-0.374816	-0.557976	0.409829
65331	-9.922697	-0.165182	0.975788	-0.185536	-0.124553	0.156737	-0.617678	-0.373485	-0.558530	0.408690
65332	-9.793943	-0.196353	0.800134	-0.277539	0.022886	0.011901	-0.618519	-0.372348	-0.558782	0.408110
65333	-9.677442	-0.104328	0.859678	-0.164958	0.003518	-0.097977	-0.618969	-0.371590	-0.558910	0.407944
65334	-9.666576	0.114106	1.028400	0.103594	-0.058616	-0.091620	-0.619412	-0.370792	-0.559084	0.407758
65335	-9.680869	0.343978	1.046044	0.323869	0.026802	-0.074816	-0.620165	-0.369569	-0.559413	0.407273
65336	-9.652260	0.386343	0.981315	0.340848	0.113187	-0.109627	-0.621203	-0.367929	-0.560050	0.406299
65337	-9.668766	0.236487	0.903657	0.174740	0.139692	-0.101483	-0.622358	-0.366014	-0.560880	0.405114
65338	-9.670286	0.142381	0.908529	0.094298	0.110368	-0.099859	-0.623520	-0.364007	-0.561795	0.403867
65339	-9.763308	0.115496	1.029806	0.118983	0.008166	0.004736	-0.624617	-0.362164	-0.562736	0.402516
65340	-9.910700	0.102619	1.113413	0.139527	-0.052450	0.159773	-0.625628	-0.360470	-0.563714	0.401095
65341	-9.886336	0.134069	1.103265	0.169615	-0.027729	0.134436	-0.626595	-0.358817	-0.564716	0.399657
65342	-9.820340	0.115744	1.031640	0.130871	0.027187	0.061465	-0.627461	-0.357253	-0.565685	0.398325
65343	-9.733100	0.078797	1.017636	0.099793	0.018786	-0.026742	-0.628252	-0.355845	-0.566605	0.397029
65344	-9.780133	0.064133	1.072530	0.111836	-0.031847	0.025601	-0.629046	-0.354506	-0.567544	0.395627
65345	-9.724524	0.175507	1.103040	0.231245	-0.017088	-0.026978	-0.629881	-0.353109	-0.568561	0.394084
65346	-9.635331	0.183406	1.099349	0.243569	-0.020065	-0.116189	-0.630822	-0.351588	-0.569705	0.392282
65347	-9.586283	0.041119	1.106698	0.123501	-0.096686	-0.163921	-0.631845	-0.350042	-0.570862	0.390332
65348	-9.641288	-0.071815	1.137961	0.035663	-0.174289	-0.105840	-0.632829	-0.348598	-0.571978	0.388391
65349	-9.697003	-0.161732	1.190486	-0.021301	-0.262301	-0.045087	-0.633708	-0.347249	-0.573075	0.386547
65350	-9.786056	-0.128091	1.249377	0.033968	-0.297214	0.049095	-0.634580	-0.345955	-0.574087	0.384768
65351	-9.833975	-0.140627	1.299117	0.045571	-0.347615	0.101526	-0.635451	-0.344636	-0.575074	0.383037
65352	-9.793282	-0.122347	1.248721	0.042983	-0.301768	0.055936	-0.636309	-0.343285	-0.576011	0.381416
65353	-9.782965	-0.157541	1.249344	0.014941	-0.321747	0.045728	-0.637143	-0.341992	-0.576856	0.379904
65354	-9.764411	-0.113979	1.249718	0.055970	-0.304328	0.027169	-0.637946	-0.340796	-0.577595	0.378505
65355	-9.773513	-0.104564	1.292328	0.084297	-0.336694	0.040340	-0.638785	-0.339633	-0.578253	0.377129
65356	-9.805307	-0.090137	1.234335	0.066858	-0.275881	0.066340	-0.639626	-0.338516	-0.578824	0.375830
65357	-9.804428	-0.089539	1.181929	0.040361	-0.228908	0.060394	-0.640423	-0.337445	-0.579348	0.374625
65358	-9.839825	-0.093644	1.185729	0.035581	-0.229788	0.096036	-0.641142	-0.336438	-0.579852	0.373520
65359	-9.856402	-0.097166	1.197182	0.036504	-0.239317	0.113679	-0.641802	-0.335511	-0.580354	0.372441
65360	-9.864863	-0.065520	1.212529	0.070044	-0.236367	0.123573	-0.642444	-0.334650	-0.580820	0.371379
65361	-9.887004	-0.127203	1.214791	0.014620	-0.267468	0.145876	-0.643075	-0.333870	-0.581231	0.370345
65362	-9.846548	-0.148069	1.227161	0.001384	-0.292239	0.106836	-0.643718	-0.333176	-0.581520	0.369399
65363	-9.821441	-0.062197	1.217544	0.067702	-0.242816	0.080918	-0.644351	-0.332532	-0.581750	0.368512
65364	-9.764859	-0.100082	1.247406	0.047416	-0.292231	0.027580	-0.644999	-0.331929	-0.581974	0.367566
65365	-9.706109	-0.205236	1.275344	-0.032650	-0.375518	-0.028256	-0.645662	-0.331408	-0.582164	0.366570
65366	-9.739146	-0.205560	1.300464	-0.030023	-0.395700	0.007034	-0.646392	-0.330919	-0.582244	0.365599
65367	-9.772070	-0.183524	1.352808	0.003646	-0.426476	0.045061	-0.647199	-0.330417	-0.582221	0.364660
65368	-9.741733	-0.143586	1.391877	0.048441	-0.440777	0.019030	-0.648050	-0.329838	-0.582225	0.363665
65369	-9.882625	-0.194773	1.361787	-0.029750	-0.426975	0.156037	-0.648940	-0.329198	-0.582196	0.362704
65370	-9.820510	-0.300522	1.362379	-0.128119	-0.483633	0.093799	-0.649806	-0.328629	-0.582065	0.361879
65371	-9.911667	-0.349477	1.475351	-0.127426	-0.594478	0.195823	-0.650499	-0.328130	-0.582051	0.361108
65372	-9.935196	-0.200123	1.405427	-0.047222	-0.452062	0.213119	-0.651223	-0.327718	-0.581828	0.360536
65373	-9.728909	0.062162	1.460911	0.203868	-0.374049	0.016264	-0.652175	-0.327302	-0.581392	0.359895
65374	-9.682974	0.127761	1.189578	0.104517	-0.109714	-0.057257	-0.653000	-0.327197	-0.581037	0.359067
65375	-9.879942	0.131491	1.079107	0.020143	0.000687	0.126859	-0.653594	-0.327337	-0.580737	0.358344
65376	-9.870184	0.048234	1.063876	-0.075219	-0.033421	0.114441	-0.654224	-0.327478	-0.580292	0.357786
65377	-9.798697	-0.044318	1.114734	-0.138833	-0.132256	0.047448	-0.654694	-0.327711	-0.579854	0.357422
65378	-9.765209	-0.118452	1.173070	-0.182847	-0.224413	0.019181	-0.654948	-0.328104	-0.579386	0.357355
65379	-9.677576	-0.099579	1.211990	-0.152150	-0.254214	-0.063506	-0.655104	-0.328581	-0.578775	0.357621
65380	-9.636879	-0.006514	1.283715	-0.043603	-0.266560	-0.094434	-0.655177	-0.329104	-0.578094	0.358108
65381	-9.637770	0.043493	1.374948	0.035560	-0.312816	-0.082330	-0.655327	-0.329502	-0.577410	0.358570
65382	-9.702935	0.104103	1.382397	0.075795	-0.274926	-0.015368	-0.655632	-0.329621	-0.576804	0.358878
65383	-9.715958	0.060192	1.322747	-0.003531	-0.236880	-0.009780	-0.655979	-0.329635	-0.576198	0.359204
65384	-9.717882	-0.068864	1.341396	-0.113303	-0.309978	-0.007975	-0.656207	-0.329731	-0.575616	0.359634
65385	-9.693844	-0.140288	1.377930	-0.161065	-0.370438	-0.028731	-0.656289	-0.329924	-0.574985	0.360316
65386	-9.677051	0.019446	1.460038	0.012527	-0.347578	-0.032277	-0.656314	-0.330166	-0.574238	0.361238
