// General information: 
//  MT Manager version: 2021.0.0 
//  XDA version: 2021.0.0 build 5908 rev 109668 built on 2021-04-19
// Device information: 
//  DeviceId: 00B43DEF
//  ProductCode: MTW2-3A7G6
//  Firmware Version: 4.3.5
//  Hardware Version: 1.1.0
// Device settings: 
//  Filter Profile: human(46.1)
//  Option Flags: Orientation Smoother Disabled, Position/Velocity Smoother Disabled, Continuous Zero Rotation Update Disabled, AHS Disabled, ICC Disabled
// Coordinate system: ENU
PacketCounter	Acc_X	Acc_Y	Acc_Z	FreeAcc_E	FreeAcc_N	FreeAcc_U	Quat_q0	Quat_q1	Quat_q2	Quat_q3
64468	-9.580649	-0.820003	-1.093581	-0.077880	-0.131768	-0.136235	0.425213	0.535410	0.527327	-0.504436
64469	-9.605944	-0.739259	-1.027209	-0.002651	-0.211622	-0.126046	0.425004	0.535578	0.527396	-0.504362
64470	-9.625420	-0.827727	-1.168005	-0.074580	-0.072993	-0.081953	0.424785	0.535771	0.527530	-0.504202
64471	-9.604556	-0.772510	-1.188992	-0.019184	-0.061164	-0.104244	0.424436	0.536093	0.527499	-0.504185
64472	-9.594188	-0.746721	-1.219310	0.008362	-0.038661	-0.112626	0.424220	0.536316	0.527602	-0.504023
64473	-9.611775	-0.810498	-1.323929	-0.043792	0.061758	-0.076662	0.424015	0.536536	0.527671	-0.503889
64474	-9.637470	-0.748560	-1.264064	0.011944	-0.011878	-0.063905	0.423801	0.536814	0.527614	-0.503832
64475	-9.621470	-0.784781	-1.397355	-0.012782	0.120825	-0.059410	0.423631	0.537049	0.527575	-0.503766
64476	-9.666686	-0.700399	-1.337943	0.066249	0.044370	-0.029073	0.423520	0.537220	0.527558	-0.503693
64477	-9.645410	-0.766606	-1.425321	0.006839	0.138375	-0.033426	0.423546	0.537276	0.527494	-0.503680
64478	-9.624004	-0.685707	-1.402848	0.082244	0.111997	-0.063825	0.423612	0.537263	0.527465	-0.503669
64479	-9.650352	-0.766502	-1.410593	0.003746	0.126259	-0.030529	0.423847	0.537085	0.527464	-0.503662
64480	-9.631309	-0.766965	-1.400660	0.000499	0.123908	-0.050677	0.423994	0.536985	0.527291	-0.503826
64481	-9.615579	-0.746080	-1.338958	0.013528	0.069379	-0.075963	0.424192	0.536837	0.527127	-0.503989
64482	-9.626035	-0.770596	-1.309885	-0.013521	0.048481	-0.067554	0.424412	0.536675	0.526949	-0.504161
64483	-9.616054	-0.719453	-1.289505	0.034154	0.033002	-0.084035	0.424660	0.536497	0.526706	-0.504397
64484	-9.602462	-0.742741	-1.266312	0.007217	0.022813	-0.098682	0.424958	0.536276	0.526525	-0.504569
64485	-9.621619	-0.752027	-1.204035	-0.007912	-0.031669	-0.086963	0.425242	0.536076	0.526302	-0.504775
64486	-9.601976	-0.711683	-1.182180	0.028272	-0.045964	-0.112220	0.425470	0.535914	0.526081	-0.504985
64487	-9.596629	-0.720153	-1.128584	0.013333	-0.089885	-0.123551	0.425696	0.535752	0.525917	-0.505139
64488	-9.607982	-0.748452	-1.132307	-0.013957	-0.078529	-0.109633	0.425922	0.535586	0.525788	-0.505258
64489	-9.624367	-0.762993	-1.151660	-0.025990	-0.054519	-0.089865	0.426006	0.535565	0.525569	-0.505437
64490	-9.615430	-0.736243	-1.171267	0.001651	-0.032060	-0.098297	0.426050	0.535562	0.525372	-0.505608
64491	-9.634577	-0.692713	-1.166146	0.044815	-0.039833	-0.083288	0.426171	0.535513	0.525251	-0.505682
64492	-9.653011	-0.751744	-1.227957	-0.007006	0.028383	-0.052936	0.426345	0.535403	0.525165	-0.505742
64493	-9.633252	-0.731960	-1.214665	0.009132	0.020053	-0.075632	0.426483	0.535327	0.525048	-0.505828
64494	-9.618607	-0.698792	-1.216003	0.040842	0.024136	-0.092486	0.426597	0.535249	0.524932	-0.505935
64495	-9.668708	-0.703592	-1.229710	0.040139	0.036224	-0.040880	0.426832	0.535076	0.524873	-0.505981
64496	-9.659021	-0.729923	-1.196156	0.009507	0.011977	-0.052563	0.427062	0.534884	0.524810	-0.506055
64497	-9.629808	-0.721574	-1.180220	0.014080	0.004838	-0.084041	0.427301	0.534683	0.524729	-0.506150
64498	-9.673680	-0.736351	-1.145043	-0.001469	-0.027834	-0.043724	0.427586	0.534428	0.524681	-0.506228
64499	-9.596157	-0.726347	-1.143834	0.003445	-0.013678	-0.121353	0.427814	0.534229	0.524566	-0.506364
64500	-9.620384	-0.706380	-1.127268	0.023168	-0.029256	-0.100834	0.428028	0.534041	0.524516	-0.506435
64501	-9.676273	-0.718125	-1.159085	0.018314	0.001235	-0.040835	0.428295	0.533794	0.524524	-0.506459
64502	-9.653801	-0.757527	-1.170354	-0.020373	0.024362	-0.058793	0.428503	0.533560	0.524465	-0.506592
64503	-9.643703	-0.728057	-1.156079	0.007680	0.014523	-0.072702	0.428667	0.533378	0.524381	-0.506732
64504	-9.664008	-0.726361	-1.157419	0.011608	0.018692	-0.052576	0.428827	0.533204	0.524294	-0.506870
64505	-9.631922	-0.711044	-1.076438	0.017147	-0.052729	-0.094913	0.429064	0.532971	0.524214	-0.506997
64506	-9.616076	-0.740692	-1.134741	-0.006943	0.015251	-0.101616	0.429275	0.532764	0.524170	-0.507080
64507	-9.640789	-0.741489	-1.122159	-0.006792	0.005599	-0.078532	0.429445	0.532588	0.524048	-0.507249
64508	-9.651004	-0.730388	-1.117825	0.005261	0.005109	-0.069750	0.429590	0.532432	0.523911	-0.507431
64509	-9.648705	-0.722550	-1.047654	0.006368	-0.058716	-0.080592	0.429780	0.532244	0.523810	-0.507572
64510	-9.625673	-0.741823	-1.054836	-0.012830	-0.041493	-0.101113	0.429918	0.532099	0.523703	-0.507717
64511	-9.637227	-0.734492	-1.084045	-0.001407	-0.009829	-0.086913	0.430103	0.531917	0.523661	-0.507795
64512	-9.665236	-0.754279	-1.030070	-0.024119	-0.059748	-0.063708	0.430287	0.531727	0.523604	-0.507896
64513	-9.627035	-0.741229	-1.042752	-0.011889	-0.039191	-0.101103	0.430421	0.531590	0.523532	-0.508001
64514	-9.644484	-0.694753	-1.004911	0.031897	-0.079211	-0.091509	0.430559	0.531461	0.523507	-0.508043
64515	-9.636272	-0.746031	-1.010298	-0.018772	-0.065344	-0.095158	0.430725	0.531291	0.523554	-0.508033
64516	-9.625861	-0.773330	-0.979815	-0.049333	-0.089648	-0.106771	0.430814	0.531195	0.523569	-0.508041
64517	-9.636458	-0.745613	-1.008833	-0.018051	-0.063711	-0.095146	0.430818	0.531196	0.523552	-0.508055
64518	-9.631511	-0.722281	-1.019075	0.005562	-0.054887	-0.100676	0.430846	0.531177	0.523568	-0.508035
64519	-9.631429	-0.721820	-1.020175	0.005788	-0.053811	-0.100670	0.430889	0.531162	0.523597	-0.507984
64520	-9.652215	-0.760090	-1.036215	-0.029651	-0.037757	-0.075417	0.430860	0.531198	0.523625	-0.507942
64521	-9.643350	-0.754193	-1.065899	-0.021787	-0.009327	-0.081368	0.430792	0.531286	0.523606	-0.507928
64522	-9.631447	-0.740410	-1.030822	-0.012963	-0.045619	-0.098095	0.430697	0.531408	0.523582	-0.507905
64523	-9.673779	-0.743650	-1.110297	-0.006502	0.026542	-0.047083	0.430552	0.531611	0.523463	-0.507938
64524	-9.653270	-0.724069	-1.102264	0.009732	0.018263	-0.069769	0.430462	0.531752	0.523340	-0.507994
64525	-9.652644	-0.702833	-1.099100	0.029601	0.013278	-0.072334	0.430428	0.531834	0.523239	-0.508041
64526	-9.668678	-0.717656	-1.123344	0.017737	0.037263	-0.052638	0.430473	0.531828	0.523216	-0.508033
64527	-9.667868	-0.732927	-1.094976	-0.001233	0.011715	-0.055450	0.430529	0.531824	0.523158	-0.508049
64528	-9.648908	-0.753649	-1.092158	-0.024383	0.015129	-0.073006	0.430621	0.531815	0.523041	-0.508102
64529	-9.665948	-0.742558	-1.031899	-0.019389	-0.045091	-0.063618	0.430617	0.531881	0.522886	-0.508195
64530	-9.612967	-0.716379	-1.056269	0.004569	-0.015320	-0.115380	0.430626	0.531951	0.522718	-0.508286
64531	-9.648964	-0.728890	-1.085265	-0.003902	0.011912	-0.075571	0.430624	0.532027	0.522587	-0.508343
64532	-9.657216	-0.712424	-1.053169	0.008530	-0.020888	-0.072152	0.430621	0.532100	0.522437	-0.508423
64533	-9.647197	-0.701788	-1.047491	0.016882	-0.024695	-0.083491	0.430653	0.532127	0.522338	-0.508470
64534	-9.646751	-0.680372	-1.042571	0.036814	-0.029720	-0.086052	0.430671	0.532151	0.522218	-0.508552
64535	-9.651861	-0.702425	-1.032156	0.013670	-0.036835	-0.080492	0.430749	0.532107	0.522196	-0.508555
64536	-9.641504	-0.728797	-1.002556	-0.016838	-0.061172	-0.092047	0.430822	0.532083	0.522172	-0.508543
64537	-9.646799	-0.714060	-1.017339	-0.001074	-0.047696	-0.086264	0.430897	0.532045	0.522185	-0.508507
64538	-9.660987	-0.667953	-1.029431	0.045987	-0.041342	-0.074272	0.430952	0.532040	0.522187	-0.508462
64539	-9.646765	-0.711892	-1.019175	-0.000602	-0.045901	-0.086255	0.431056	0.531984	0.522275	-0.508343
64540	-9.649653	-0.718900	-1.085796	-0.001691	0.019573	-0.075583	0.431143	0.531942	0.522364	-0.508222
64541	-9.648631	-0.734413	-1.059382	-0.020379	-0.006022	-0.078353	0.431147	0.531961	0.522407	-0.508155
64542	-9.666968	-0.691529	-1.059008	0.022809	-0.013423	-0.063365	0.431145	0.531967	0.522436	-0.508121
64543	-9.641172	-0.686500	-1.036220	0.023673	-0.034407	-0.091809	0.431163	0.531959	0.522502	-0.508045
64544	-9.642838	-0.746896	-1.050902	-0.035345	-0.015952	-0.084118	0.431164	0.531992	0.522557	-0.507954
64545	-9.677153	-0.719884	-1.074723	-0.004293	-0.000349	-0.049463	0.431096	0.532058	0.522546	-0.507953
64546	-9.639887	-0.664940	-1.039033	0.043977	-0.037575	-0.094364	0.431058	0.532115	0.522558	-0.507914
64547	-9.672327	-0.716495	-1.093026	-0.000217	0.015279	-0.052475	0.431136	0.532051	0.522694	-0.507774
64548	-9.687777	-0.665967	-1.027404	0.044281	-0.056642	-0.048112	0.431221	0.531952	0.522792	-0.507705
64549	-9.606925	-0.715162	-1.059235	-0.006280	-0.011395	-0.121130	0.431378	0.531780	0.522987	-0.507551
64550	-9.664618	-0.705685	-1.046015	0.005536	-0.032643	-0.066104	0.431493	0.531662	0.523135	-0.507424
64551	-9.663234	-0.665173	-1.038960	0.045110	-0.043423	-0.071226	0.431690	0.531434	0.523371	-0.507253
64552	-9.650175	-0.751193	-1.037164	-0.040836	-0.036349	-0.078064	0.431877	0.531216	0.523623	-0.507061
64553	-9.614994	-0.721057	-1.037721	-0.012838	-0.035623	-0.115086	0.431982	0.531095	0.523828	-0.506887
64554	-9.659976	-0.724091	-1.071395	-0.009459	-0.009294	-0.066552	0.432012	0.531032	0.524011	-0.506738
64555	-9.660242	-0.744549	-1.078579	-0.029003	-0.002512	-0.063989	0.432016	0.531012	0.524108	-0.506655
64556	-9.660448	-0.662616	-1.018495	0.046923	-0.071170	-0.076499	0.432011	0.530985	0.524251	-0.506541
64557	-9.630360	-0.721185	-1.102000	-0.004809	0.017671	-0.092707	0.432079	0.530891	0.524462	-0.506361
64558	-9.653325	-0.738742	-1.069466	-0.023880	-0.018243	-0.072294	0.432024	0.530919	0.524569	-0.506268
64559	-9.640151	-0.685558	-1.027046	0.024318	-0.065800	-0.094025	0.431947	0.530975	0.524627	-0.506216
64560	-9.627685	-0.717768	-1.080764	-0.003694	-0.011697	-0.097987	0.431984	0.530963	0.524837	-0.505978
64561	-9.621954	-0.731378	-1.071414	-0.018929	-0.023314	-0.103726	0.431825	0.531093	0.524928	-0.505883
64562	-9.639850	-0.689388	-1.074575	0.024299	-0.030736	-0.088741	0.431677	0.531217	0.525036	-0.505768
64563	-9.660794	-0.711922	-1.123189	0.007800	0.011585	-0.060809	0.431532	0.531339	0.525177	-0.505617
64564	-9.639076	-0.710112	-1.090664	0.004984	-0.023181	-0.086176	0.431419	0.531438	0.525315	-0.505464
64565	-9.649841	-0.723179	-1.133971	-0.003426	0.014614	-0.069583	0.431316	0.531528	0.525449	-0.505319
64566	-9.654240	-0.746123	-1.130007	-0.026714	0.007626	-0.063985	0.431218	0.531627	0.525573	-0.505171
64567	-9.627009	-0.700811	-1.102368	0.013741	-0.024948	-0.097501	0.431073	0.531759	0.525670	-0.505054
64568	-9.645451	-0.715304	-1.085984	-0.001475	-0.047082	-0.080086	0.431000	0.531833	0.525838	-0.504863
64569	-9.625637	-0.737458	-1.090082	-0.024658	-0.043725	-0.097623	0.430844	0.531963	0.525955	-0.504737
64570	-9.644028	-0.678843	-1.122504	0.037698	-0.024498	-0.079954	0.430660	0.532132	0.526070	-0.504597
64571	-9.630314	-0.727949	-1.150251	-0.009678	0.003188	-0.086649	0.430486	0.532291	0.526175	-0.504468
64572	-9.633409	-0.710848	-1.139177	0.006601	-0.015507	-0.086162	0.430251	0.532480	0.526286	-0.504352
64573	-9.638123	-0.718017	-1.165148	0.002407	0.003836	-0.077879	0.430073	0.532615	0.526452	-0.504189
64574	-9.632749	-0.715753	-1.185478	0.006310	0.018348	-0.080928	0.429899	0.532767	0.526572	-0.504052
64575	-9.637069	-0.739036	-1.182143	-0.016811	0.011083	-0.075320	0.429760	0.532870	0.526722	-0.503905
64576	-9.626239	-0.730011	-1.182596	-0.008476	0.007298	-0.086650	0.429595	0.533022	0.526786	-0.503819
64577	-9.639712	-0.721698	-1.175185	-0.000339	-0.006821	-0.074828	0.429477	0.533129	0.526884	-0.503702
64578	-9.633002	-0.694915	-1.157109	0.023972	-0.030133	-0.085661	0.429363	0.533233	0.526963	-0.503607
64579	-9.638080	-0.738100	-1.156788	-0.019090	-0.031519	-0.077484	0.429310	0.533289	0.527116	-0.503433
64580	-9.617795	-0.739924	-1.155653	-0.022661	-0.034072	-0.097579	0.429137	0.533454	0.527153	-0.503367
64581	-9.619530	-0.661457	-1.130869	0.052704	-0.070172	-0.104750	0.428995	0.533600	0.527255	-0.503226
64582	-9.596665	-0.741628	-1.161609	-0.025921	-0.035537	-0.117668	0.428828	0.533754	0.527395	-0.503059
64583	-9.624631	-0.745391	-1.147933	-0.029568	-0.058680	-0.091444	0.428597	0.533965	0.527502	-0.502919
64584	-9.608893	-0.733630	-1.164797	-0.017637	-0.048381	-0.105827	0.428304	0.534247	0.527615	-0.502750
64585	-9.632000	-0.681644	-1.219861	0.040413	-0.010621	-0.079940	0.427940	0.534569	0.527755	-0.502571
64586	-9.688765	-0.672813	-1.216826	0.052246	-0.031500	-0.024849	0.427650	0.534821	0.527957	-0.502338
64587	-9.638798	-0.798397	-1.345348	-0.063549	0.103455	-0.048514	0.427341	0.535093	0.528134	-0.502125
64588	-9.673786	-0.784488	-1.473358	-0.034766	0.216284	0.001606	0.426908	0.535467	0.528027	-0.502208
64589	-9.643133	-0.614631	-1.387246	0.124515	0.116432	-0.052402	0.426620	0.535717	0.527880	-0.502339
64590	-9.639430	-0.689965	-1.387149	0.050238	0.122131	-0.050444	0.426637	0.535657	0.527960	-0.502305
64591	-9.631873	-0.782558	-1.402705	-0.040178	0.147407	-0.048999	0.426699	0.535583	0.527946	-0.502346
64592	-9.624862	-0.747882	-1.312661	-0.014458	0.059355	-0.070170	0.426725	0.535553	0.527782	-0.502528
64593	-9.611871	-0.633550	-1.251462	0.093083	-0.005804	-0.099454	0.426753	0.535488	0.527678	-0.502684
64594	-9.610149	-0.732725	-1.282602	-0.001676	0.037942	-0.089751	0.426893	0.535344	0.527610	-0.502789
64595	-9.603194	-0.698208	-1.191266	0.023951	-0.050187	-0.110891	0.426964	0.535239	0.527522	-0.502933
64596	-9.595701	-0.754434	-1.228138	-0.027508	-0.004418	-0.109379	0.427019	0.535137	0.527479	-0.503039
64597	-9.617128	-0.687113	-1.141830	0.033356	-0.095769	-0.104198	0.427007	0.535101	0.527407	-0.503164
64598	-9.608898	-0.723041	-1.176383	0.001367	-0.055550	-0.105242	0.427081	0.534999	0.527432	-0.503183
64599	-9.629573	-0.762084	-1.190713	-0.034399	-0.039614	-0.080036	0.427167	0.534913	0.527487	-0.503144
64600	-9.637017	-0.723255	-1.123343	-0.001291	-0.110429	-0.084127	0.427069	0.534951	0.527461	-0.503214
64601	-9.622806	-0.715651	-1.165854	0.009768	-0.068017	-0.093375	0.427162	0.534871	0.527605	-0.503069
64602	-9.584222	-0.759763	-1.164230	-0.036875	-0.062559	-0.128437	0.427105	0.534915	0.527695	-0.502977
64603	-9.599197	-0.775832	-1.192209	-0.049142	-0.038521	-0.108876	0.426947	0.535058	0.527705	-0.502947
64604	-9.659485	-0.687876	-1.153139	0.037831	-0.096481	-0.060876	0.426818	0.535202	0.527739	-0.502869
64605	-9.589314	-0.790308	-1.232048	-0.061148	-0.003362	-0.112496	0.426714	0.535330	0.527758	-0.502801
64606	-9.612217	-0.733856	-1.249647	-0.002485	0.002176	-0.091841	0.426482	0.535562	0.527736	-0.502774
64607	-9.618492	-0.637038	-1.206861	0.089073	-0.053419	-0.098424	0.426391	0.535697	0.527768	-0.502674
64608	-9.602138	-0.747559	-1.290691	-0.014468	0.037557	-0.095478	0.426394	0.535712	0.527960	-0.502453
64609	-9.614053	-0.694237	-1.243118	0.034031	-0.020508	-0.093853	0.426227	0.535863	0.528056	-0.502333
64610	-9.605431	-0.733454	-1.317070	0.001415	0.051890	-0.089816	0.426217	0.535868	0.528309	-0.502069
64611	-9.620034	-0.749336	-1.346777	-0.010772	0.075983	-0.070281	0.426058	0.536000	0.528369	-0.502001
64612	-9.628017	-0.681632	-1.372616	0.059607	0.090736	-0.064066	0.426000	0.536036	0.528480	-0.501894
64613	-9.653989	-0.747345	-1.413168	-0.000284	0.131051	-0.028113	0.426074	0.535967	0.528596	-0.501784
64614	-9.595574	-0.772836	-1.398805	-0.030827	0.127171	-0.085825	0.426086	0.535963	0.528559	-0.501816
64615	-9.627976	-0.717672	-1.351949	0.021163	0.072716	-0.064097	0.426194	0.535883	0.528570	-0.501799
64616	-9.644018	-0.769604	-1.350304	-0.029831	0.076089	-0.044575	0.426345	0.535755	0.528530	-0.501849
64617	-9.618496	-0.739801	-1.285484	-0.008405	0.017050	-0.080531	0.426456	0.535691	0.528384	-0.501977
64618	-9.642286	-0.699092	-1.267205	0.031171	-0.003786	-0.062445	0.426683	0.535514	0.528384	-0.501972
64619	-9.634261	-0.749684	-1.270954	-0.019834	0.009745	-0.066106	0.426922	0.535329	0.528340	-0.502013
64620	-9.622958	-0.727412	-1.164493	-0.009418	-0.090970	-0.092701	0.427127	0.535186	0.528270	-0.502065
64621	-9.603128	-0.723918	-1.123168	-0.012068	-0.126128	-0.117865	0.427387	0.534997	0.528361	-0.501950
64622	-9.585374	-0.768909	-1.156640	-0.055704	-0.084856	-0.127744	0.427486	0.534954	0.528337	-0.501936
64623	-9.598077	-0.698376	-1.132705	0.011687	-0.116167	-0.123507	0.427496	0.535009	0.528342	-0.501864
64624	-9.623917	-0.726154	-1.197342	-0.009388	-0.055129	-0.087587	0.427532	0.535026	0.528434	-0.501719
64625	-9.629057	-0.715165	-1.247509	0.005362	-0.009098	-0.076858	0.427531	0.535085	0.528456	-0.501633
64626	-9.613940	-0.701981	-1.259042	0.017220	0.000961	-0.091293	0.427497	0.535183	0.528498	-0.501513
64627	-9.633652	-0.719105	-1.273480	0.001285	0.011205	-0.068664	0.427444	0.535302	0.528520	-0.501407
64628	-9.638679	-0.708116	-1.323925	0.016002	0.057198	-0.057955	0.427462	0.535335	0.528561	-0.501314
64629	-9.628303	-0.713950	-1.293017	0.005274	0.026833	-0.071790	0.427463	0.535403	0.528599	-0.501200
64630	-9.638111	-0.722132	-1.300759	-0.002624	0.032414	-0.060479	0.427457	0.535439	0.528602	-0.501164
64631	-9.627898	-0.712105	-1.297043	0.005598	0.028524	-0.071795	0.427464	0.535477	0.528597	-0.501124
64632	-9.637853	-0.704066	-1.332076	0.016681	0.060652	-0.057977	0.427474	0.535508	0.528581	-0.501098
64633	-9.632482	-0.696610	-1.314157	0.021268	0.043025	-0.066166	0.427506	0.535516	0.528568	-0.501077
64634	-9.666383	-0.718244	-1.251628	-0.004657	-0.020721	-0.039205	0.427544	0.535509	0.528513	-0.501110
64635	-9.615118	-0.647081	-1.188067	0.056284	-0.081260	-0.103365	0.427591	0.535500	0.528463	-0.501131
64636	-9.582860	-0.717500	-1.206736	-0.014422	-0.051794	-0.127682	0.427752	0.535363	0.528610	-0.500985
64637	-9.599105	-0.740909	-1.297529	-0.028375	0.037089	-0.098102	0.427687	0.535420	0.528601	-0.500989
64638	-9.621600	-0.696875	-1.251749	0.012163	-0.016039	-0.085032	0.427700	0.535434	0.528644	-0.500917
64639	-9.631916	-0.725686	-1.263716	-0.015507	-0.004638	-0.071170	0.427716	0.535450	0.528720	-0.500807
64640	-9.646988	-0.724546	-1.318527	-0.008925	0.046053	-0.049202	0.427696	0.535494	0.528704	-0.500794
64641	-9.616143	-0.692239	-1.271669	0.016243	0.000660	-0.088168	0.427707	0.535522	0.528713	-0.500745
64642	-9.596307	-0.693399	-1.267486	0.012815	-0.002071	-0.108242	0.427692	0.535553	0.528781	-0.500652
64643	-9.636216	-0.729598	-1.291543	-0.019183	0.017489	-0.063001	0.427694	0.535589	0.528826	-0.500565
64644	-9.601089	-0.730994	-1.235130	-0.029048	-0.035024	-0.105023	0.427662	0.535671	0.528841	-0.500489
64645	-9.606009	-0.720063	-1.285236	-0.014325	0.011154	-0.094385	0.427680	0.535708	0.528881	-0.500391
64646	-9.625338	-0.716857	-1.294313	-0.010543	0.015740	-0.074315	0.427706	0.535753	0.528904	-0.500296
64647	-9.651641	-0.633750	-1.227175	0.065930	-0.062700	-0.063149	0.427736	0.535784	0.528956	-0.500184
64648	-9.629207	-0.696191	-1.281141	0.005995	-0.002013	-0.073715	0.427904	0.535701	0.529064	-0.500014
64649	-9.589103	-0.706912	-1.176977	-0.018249	-0.099785	-0.126325	0.427955	0.535698	0.529185	-0.499845
64650	-9.604331	-0.709277	-1.265810	-0.012466	-0.016689	-0.099393	0.427858	0.535824	0.529209	-0.499768
64651	-9.607135	-0.666452	-1.215796	0.024528	-0.073483	-0.106331	0.427871	0.535859	0.529360	-0.499560
64652	-9.598387	-0.704664	-1.288939	-0.008418	-0.001018	-0.102545	0.427742	0.536019	0.529424	-0.499430
64653	-9.615902	-0.673821	-1.232238	0.016830	-0.066964	-0.095011	0.427617	0.536185	0.529511	-0.499268
64654	-9.684123	-0.663646	-1.323928	0.037950	0.008646	-0.016059	0.427622	0.536253	0.529636	-0.499057
64655	-9.593406	-0.775750	-1.303101	-0.082422	0.006148	-0.100506	0.427572	0.536351	0.529736	-0.498889
64656	-9.606273	-0.729752	-1.320797	-0.035510	0.013145	-0.088692	0.427295	0.536663	0.529694	-0.498834
64657	-9.656260	-0.615155	-1.306662	0.078804	-0.022033	-0.049366	0.427117	0.536900	0.529624	-0.498806
64658	-9.603093	-0.674876	-1.225126	0.007053	-0.093419	-0.108718	0.427149	0.536951	0.529750	-0.498591
64659	-9.619425	-0.737299	-1.327763	-0.046473	0.006852	-0.074222	0.427152	0.537024	0.529888	-0.498363
64660	-9.619950	-0.763880	-1.401740	-0.067802	0.078272	-0.061734	0.427031	0.537220	0.529850	-0.498296
64661	-9.584660	-0.580937	-1.263843	0.097433	-0.071897	-0.128379	0.426860	0.537465	0.529814	-0.498217
64662	-9.666428	-0.722057	-1.389756	-0.027865	0.048337	-0.020369	0.426814	0.537553	0.529923	-0.498044
64663	-9.612636	-0.737698	-1.425553	-0.043948	0.089182	-0.067469	0.426585	0.537796	0.529816	-0.498092
64664	-9.618097	-0.600126	-1.373286	0.087277	0.022377	-0.078945	0.426513	0.537932	0.529807	-0.498016
64665	-9.605604	-0.688555	-1.404816	0.000431	0.061053	-0.080703	0.426583	0.537908	0.529886	-0.497898
64666	-9.561855	-0.704676	-1.378550	-0.021907	0.041904	-0.126419	0.426632	0.537934	0.529905	-0.497808
64667	-9.593691	-0.628086	-1.330282	0.050156	-0.017934	-0.107008	0.426605	0.538013	0.529895	-0.497756
64668	-9.603542	-0.640161	-1.371211	0.041348	0.020088	-0.090757	0.426616	0.538051	0.529987	-0.497608
64669	-9.615046	-0.713158	-1.424571	-0.026710	0.075101	-0.066880	0.426672	0.538037	0.530077	-0.497479
64670	-9.614006	-0.688227	-1.390503	-0.005778	0.037973	-0.074372	0.426603	0.538114	0.530083	-0.497449
64671	-9.627696	-0.663089	-1.408872	0.021357	0.050629	-0.060041	0.426569	0.538159	0.530079	-0.497433
64672	-9.582277	-0.619571	-1.369817	0.058136	0.014285	-0.113372	0.426604	0.538122	0.530151	-0.497367
64673	-9.602103	-0.638101	-1.382205	0.042170	0.024523	-0.090771	0.426627	0.538073	0.530228	-0.497318
64674	-9.633308	-0.714643	-1.473219	-0.023109	0.115645	-0.041925	0.426625	0.538035	0.530290	-0.497295
64675	-9.626717	-0.660554	-1.381535	0.022879	0.021940	-0.064988	0.426522	0.538064	0.530202	-0.497446
64676	-9.562723	-0.644532	-1.370256	0.035547	0.019917	-0.130898	0.426555	0.537972	0.530226	-0.497492
64677	-9.617932	-0.697952	-1.415830	-0.009021	0.062659	-0.066287	0.426603	0.537873	0.530259	-0.497522
64678	-9.618487	-0.715259	-1.386061	-0.027678	0.036913	-0.068667	0.426598	0.537817	0.530167	-0.497685
64679	-9.627591	-0.685310	-1.381249	0.003962	0.031180	-0.062456	0.426595	0.537729	0.530119	-0.497834
64680	-9.608396	-0.688608	-1.371711	0.000588	0.028387	-0.082516	0.426707	0.537551	0.530078	-0.497973
64681	-9.575463	-0.720221	-1.377857	-0.030693	0.046156	-0.111985	0.426763	0.537452	0.529977	-0.498140
64682	-9.612016	-0.615909	-1.368243	0.075504	0.026057	-0.084589	0.426799	0.537356	0.529935	-0.498257
64683	-9.602816	-0.628431	-1.364331	0.064056	0.028016	-0.093350	0.426898	0.537158	0.529932	-0.498388
64684	-9.638663	-0.680753	-1.368130	0.016731	0.034884	-0.053716	0.427073	0.536873	0.530043	-0.498428
64685	-9.639870	-0.719575	-1.340496	-0.021717	0.014811	-0.053532	0.427202	0.536606	0.530079	-0.498567
64686	-9.606134	-0.728436	-1.309488	-0.032424	-0.005496	-0.090439	0.427268	0.536411	0.530032	-0.498770
64687	-9.540460	-0.623770	-1.372193	0.076109	0.061224	-0.154383	0.427302	0.536277	0.529972	-0.498947
64688	-9.594426	-0.617460	-1.402747	0.090813	0.087082	-0.097435	0.427510	0.535951	0.530110	-0.498973
64689	-9.607174	-0.701681	-1.514083	0.020869	0.206820	-0.063873	0.427700	0.535615	0.530175	-0.499103
64690	-9.664913	-0.662936	-1.394002	0.055525	0.083682	-0.025799	0.427915	0.535211	0.530200	-0.499325
64691	-9.636696	-0.691925	-1.317412	0.022434	0.022802	-0.061830	0.428177	0.534739	0.530225	-0.499580
64692	-9.618107	-0.714067	-1.274858	0.000233	-0.006666	-0.084219	0.428429	0.534263	0.530340	-0.499751
64693	-9.669997	-0.792699	-1.363868	-0.061512	0.088099	-0.015454	0.428536	0.533901	0.530297	-0.500092
64694	-9.628898	-0.695792	-1.288604	0.031069	0.020906	-0.073135	0.428614	0.533581	0.530094	-0.500581
64695	-9.664929	-0.747214	-1.252413	-0.015179	-0.004659	-0.038361	0.428814	0.533133	0.529984	-0.501004
64696	-9.613037	-0.800473	-1.216691	-0.068959	-0.017372	-0.090213	0.428939	0.532771	0.529789	-0.501489
64697	-9.598721	-0.789294	-1.181760	-0.056200	-0.039768	-0.109583	0.428931	0.532534	0.529471	-0.502083
64698	-9.632498	-0.742975	-1.157873	-0.004601	-0.061262	-0.082635	0.428914	0.532332	0.529197	-0.502599
64699	-9.633762	-0.767238	-1.152829	-0.024156	-0.054684	-0.080089	0.428951	0.532100	0.528935	-0.503089
64700	-9.625494	-0.786092	-1.175287	-0.036638	-0.020394	-0.083987	0.428940	0.531914	0.528674	-0.503569
64701	-9.664648	-0.798594	-1.119730	-0.046946	-0.071168	-0.051044	0.428860	0.531796	0.528422	-0.504026
64702	-9.611282	-0.777725	-1.136683	-0.023764	-0.041873	-0.103345	0.428677	0.531792	0.528048	-0.504577
64703	-9.586136	-0.772280	-1.073180	-0.021692	-0.095635	-0.136297	0.428484	0.531800	0.527782	-0.505012
64704	-9.605010	-0.733463	-1.067404	0.021721	-0.102308	-0.121320	0.428260	0.531830	0.527512	-0.505452
64705	-9.611070	-0.747722	-1.115363	0.016462	-0.050491	-0.108411	0.428107	0.531817	0.527348	-0.505766
64706	-9.679803	-0.771492	-1.108847	0.000780	-0.060392	-0.039270	0.427876	0.531846	0.527159	-0.506128
64707	-9.609289	-0.726194	-1.042313	0.038658	-0.119109	-0.120602	0.427592	0.531916	0.527006	-0.506454
64708	-9.651091	-0.832631	-1.106967	-0.053725	-0.050051	-0.062979	0.427400	0.531903	0.526976	-0.506659
64709	-9.609719	-0.758713	-1.078874	0.018213	-0.079284	-0.113219	0.427103	0.531965	0.526922	-0.506902
64710	-9.655461	-0.847591	-1.127864	-0.057952	-0.029717	-0.054912	0.426927	0.531944	0.527009	-0.506982
64711	-9.682232	-0.773765	-1.093403	0.017993	-0.075338	-0.038545	0.426601	0.532015	0.526977	-0.507215
64712	-9.583394	-0.749206	-1.088034	0.038474	-0.072087	-0.139018	0.426582	0.531885	0.527206	-0.507129
64713	-9.589635	-0.788152	-1.178843	0.012487	0.017718	-0.118799	0.426499	0.531755	0.527465	-0.507066
64714	-9.657103	-0.755855	-1.197776	0.055074	0.023253	-0.052459	0.426399	0.531627	0.527593	-0.507152
64715	-9.629997	-0.689732	-1.129631	0.116507	-0.047361	-0.092974	0.426330	0.531430	0.527838	-0.507160
64716	-9.613837	-0.867600	-1.221484	-0.047159	0.059721	-0.083103	0.426328	0.531144	0.528199	-0.507087
64717	-9.661699	-0.875217	-1.209360	-0.046794	0.040458	-0.036535	0.426026	0.531108	0.528288	-0.507286
64718	-9.672400	-0.778540	-1.084962	0.043758	-0.093162	-0.049082	0.425921	0.530898	0.528463	-0.507411
64719	-9.556531	-0.935743	-1.074180	-0.116267	-0.075536	-0.151552	0.425829	0.530702	0.528697	-0.507449
64720	-9.629821	-0.900421	-1.173463	-0.060443	0.007801	-0.070125	0.425222	0.530992	0.528542	-0.507817
64721	-9.672848	-0.603184	-1.104931	0.236621	-0.095774	-0.061609	0.424753	0.531141	0.528546	-0.508050
64722	-9.589929	-0.980772	-1.212121	-0.127631	0.051387	-0.097805	0.424531	0.531042	0.528783	-0.508091
64723	-9.647132	-0.926707	-1.256561	-0.058239	0.079129	-0.040521	0.423620	0.531519	0.528481	-0.508667
64724	-9.646062	-0.679528	-1.103881	0.178801	-0.098556	-0.082058	0.423066	0.531672	0.528466	-0.508983
64725	-9.575813	-0.937699	-1.239771	-0.060791	0.064700	-0.111934	0.422479	0.531818	0.528515	-0.509266
64726	-9.572502	-0.804263	-1.219589	0.077900	0.026214	-0.129699	0.421498	0.532266	0.528396	-0.509735
64727	-9.654169	-0.851746	-1.247849	0.049637	0.039608	-0.041222	0.420505	0.532741	0.528285	-0.510174
64728	-9.644094	-0.911735	-1.387263	0.014176	0.176628	-0.028368	0.419561	0.533167	0.528136	-0.510661
64729	-9.558555	-0.931112	-1.286010	-0.013405	0.084705	-0.123549	0.418763	0.533437	0.528013	-0.511160
64730	-9.581214	-0.921581	-1.279832	0.006713	0.069901	-0.102795	0.417924	0.533769	0.527882	-0.511636
64731	-9.603658	-0.906569	-1.241821	0.027869	0.022719	-0.086798	0.417116	0.534112	0.527733	-0.512091
64732	-9.549261	-0.976764	-1.317062	-0.029118	0.106832	-0.124300	0.416423	0.534376	0.527648	-0.512466
64733	-9.684106	-0.976127	-1.242547	-0.018963	0.010307	-0.000543	0.415753	0.534672	0.527541	-0.512812
64734	-9.654899	-1.096163	-1.380628	-0.117496	0.160331	-0.000182	0.415512	0.534623	0.527620	-0.512977
64735	-9.614854	-0.914540	-1.429730	0.070069	0.194696	-0.051381	0.415313	0.534566	0.527568	-0.513251
64736	-9.618639	-0.875646	-1.248260	0.091847	0.014210	-0.074387	0.415454	0.534192	0.527724	-0.513367
64737	-9.609131	-0.931578	-1.249800	0.040794	0.027221	-0.078067	0.415685	0.533707	0.527991	-0.513409
64738	-9.585096	-1.052028	-1.240887	-0.076748	0.039365	-0.090899	0.415894	0.533289	0.528130	-0.513530
64739	-9.564318	-0.950166	-1.054454	0.004297	-0.147895	-0.144752	0.416107	0.532880	0.528353	-0.513554
64740	-9.584592	-1.140263	-1.122445	-0.170906	-0.060374	-0.097152	0.416565	0.532320	0.528761	-0.513343
64741	-9.613649	-1.083598	-1.089812	-0.114653	-0.100206	-0.078165	0.416897	0.531950	0.529048	-0.513161
64742	-9.632953	-1.092368	-1.034415	-0.128416	-0.154695	-0.065040	0.417420	0.531523	0.529382	-0.512834
64743	-9.576124	-1.086228	-1.234586	-0.107090	0.050278	-0.097120	0.417925	0.531192	0.529753	-0.512383
64744	-9.644179	-1.073754	-1.164063	-0.100819	-0.029819	-0.039912	0.418372	0.530974	0.529982	-0.512007
64745	-9.600128	-1.156040	-1.087606	-0.200152	-0.091978	-0.084725	0.419031	0.530660	0.530385	-0.511375
64746	-9.541875	-1.285817	-1.032110	-0.347325	-0.128158	-0.136485	0.419558	0.530575	0.530587	-0.510822
64747	-9.550711	-1.161387	-0.861815	-0.250886	-0.312533	-0.161418	0.419968	0.530696	0.530723	-0.510217
64748	-9.496567	-1.086129	-0.761844	-0.203535	-0.418628	-0.235205	0.420586	0.530802	0.531181	-0.509121
64749	-9.586777	-1.308790	-0.915732	-0.416595	-0.271443	-0.106477	0.421169	0.531092	0.531685	-0.507808
64750	-9.527446	-1.132242	-0.884703	-0.269117	-0.326861	-0.186807	0.421552	0.531762	0.531968	-0.506491
64751	-9.545684	-0.954239	-0.791085	-0.123538	-0.458511	-0.198589	0.422048	0.532481	0.532495	-0.504765
64752	-9.591144	-1.101327	-0.917653	-0.280000	-0.354335	-0.125534	0.422719	0.533174	0.533351	-0.502565
64753	-9.519022	-1.127863	-0.794406	-0.352861	-0.495453	-0.213481	0.423275	0.534088	0.534147	-0.500274
64754	-9.469923	-0.942899	-0.564922	-0.225428	-0.767264	-0.312798	0.423847	0.535124	0.535231	-0.497518
64755	-9.477461	-0.912107	-0.412103	-0.241799	-0.969047	-0.335021	0.424624	0.536096	0.536963	-0.493930
64756	-9.527848	-0.950851	-0.238903	-0.327748	-1.205557	-0.316384	0.425381	0.537203	0.539204	-0.489615
64757	-9.603038	-0.932946	0.049730	-0.366073	-1.579073	-0.301484	0.425922	0.538651	0.541819	-0.484641
64758	-9.556116	-0.862229	0.203827	-0.349153	-1.822185	-0.396694	0.426008	0.540584	0.545059	-0.478745
64759	-9.602606	-0.767741	0.368481	-0.303628	-2.115468	-0.412357	0.425805	0.542816	0.549061	-0.471776
64760	-9.754852	-1.218082	0.197814	-0.778658	-2.109479	-0.240806	0.424856	0.545701	0.554107	-0.463328
64761	-10.327804	-1.738748	-0.439447	-1.295189	-1.786976	0.434483	0.422551	0.549804	0.559288	-0.454272
64762	-10.474517	-1.039356	-1.032565	-0.620813	-1.487671	0.640005	0.416531	0.556561	0.562181	-0.447988
64763	-10.033753	1.003225	-0.810236	1.359605	-1.879902	0.033749	0.410015	0.562542	0.565650	-0.442124
64764	-10.095933	-0.551206	-1.903734	-0.168619	-1.014959	0.424157	0.412477	0.559262	0.577886	-0.427944
64765	-11.144746	-4.070339	-4.989749	-3.671096	1.339707	2.450535	0.417474	0.550889	0.592897	-0.413170
64766	-10.806359	-4.075607	-3.827579	-3.626357	0.058316	1.801072	0.416709	0.542054	0.604417	-0.408914
64767	-9.254260	-3.227684	-1.520238	-2.604908	-1.747283	-0.403771	0.421284	0.527569	0.618567	-0.401952
64768	-8.377556	-5.049446	-2.952147	-4.478606	-0.513713	-0.643836	0.429132	0.509643	0.634086	-0.392486
64769	-8.551242	-4.976429	-3.574734	-4.340251	-0.170409	-0.231666	0.431068	0.494898	0.646526	-0.388922
64770	-9.484084	-3.784174	-1.539300	-2.503771	-2.210808	-0.041578	0.431748	0.479876	0.657686	-0.388282
64771	-8.721885	-3.058735	-2.291350	-1.820090	-1.134450	-0.535127	0.433928	0.462195	0.668839	-0.388248
64772	-8.300601	-2.408476	-2.329407	-1.058008	-0.774469	-0.958146	0.435330	0.443763	0.679551	-0.389580
64773	-8.508613	-1.669464	-1.800962	0.047732	-1.017216	-1.015850	0.437419	0.423708	0.690547	-0.390232
64774	-8.805061	-3.904564	-2.674741	-1.962150	-0.966949	-0.058696	0.445526	0.398400	0.703259	-0.384982
64775	-7.800114	-0.202313	-3.851098	0.961297	1.820929	-1.359019	0.440786	0.388313	0.703158	-0.400612
64776	-9.196992	9.102870	0.824722	11.357298	0.931278	-3.626891	0.440764	0.378242	0.701835	-0.412416
64777	-8.895241	9.989732	-2.230636	11.021645	4.632179	-3.418120	0.458202	0.351185	0.712595	-0.398658
64778	-8.531500	10.619395	-12.471252	6.873318	14.840527	-1.243559	0.478398	0.322863	0.724066	-0.377657
64779	-8.244196	6.689170	-17.378343	0.288621	17.376911	0.799860	0.486681	0.312718	0.730459	-0.363014
64780	-14.049813	1.703123	-0.738545	5.655493	-0.113338	3.180857	0.478092	0.331339	0.725530	-0.367762
64781	-13.287636	-9.169417	6.732028	-0.357275	-12.075302	2.837124	0.488956	0.324886	0.726353	-0.357467
64782	-8.459408	-9.708958	-10.388677	-10.100880	2.980522	2.946135	0.475928	0.336444	0.719671	-0.377322
64783	-8.767967	5.850518	1.922006	8.632859	-0.298334	-3.476993	0.453828	0.362158	0.697726	-0.419596
64784	-8.399460	5.632454	4.744512	9.384033	-2.917456	-4.505490	0.470482	0.337447	0.718218	-0.385928
64785	-9.743669	-6.947300	-10.021834	-7.074693	3.846999	3.553945	0.487281	0.315079	0.735542	-0.349656
64786	-10.736271	-8.457610	-8.202808	-7.314684	1.096528	4.306674	0.482413	0.323840	0.727447	-0.365002
64787	-8.943828	-0.366881	-2.138979	1.692522	0.637275	-0.788950	0.469744	0.339641	0.713972	-0.392720
64788	-8.463922	2.375235	1.191885	5.277902	-0.957582	-2.746777	0.468402	0.341983	0.710165	-0.399140
64789	-9.040987	-0.752760	-1.051888	1.895442	-0.412108	-0.888010	0.476967	0.328161	0.720819	-0.381094
64790	-10.311299	-3.643029	-5.406240	-2.078472	1.741339	2.081246	0.486958	0.316404	0.725901	-0.368549
64791	-9.002729	-3.733513	-3.634432	-1.853362	0.277482	0.418889	0.490007	0.312925	0.725293	-0.368676
64792	-9.152757	-2.749732	-1.785589	-0.147814	-0.740463	-0.119804	0.492190	0.310842	0.724424	-0.369237
64793	-9.085408	-1.957758	-2.325865	0.202866	0.183625	-0.236047	0.494536	0.308369	0.723844	-0.369313
64794	-9.208922	-1.295799	-1.396555	1.206308	-0.218860	-0.489039	0.497679	0.304930	0.723779	-0.368073
64795	-9.130304	-1.716891	-1.348309	0.830303	-0.446456	-0.472493	0.503856	0.297501	0.725893	-0.361526
64796	-8.742696	-3.094290	-2.065230	-0.799290	-0.588944	-0.363421	0.509855	0.290296	0.728025	-0.354620
64797	-8.900427	-3.242056	-1.647926	-0.674131	-1.032734	-0.277323	0.512335	0.287696	0.728164	-0.352877
64798	-9.090850	-2.127885	-1.228428	0.471466	-0.734475	-0.436188	0.513520	0.286515	0.728199	-0.352041
64799	-9.482957	-2.328887	-1.437797	0.309966	-0.705887	0.027183	0.515818	0.283623	0.729452	-0.348410
64800	-9.405307	-2.144030	-1.594842	0.329258	-0.481351	-0.052562	0.517678	0.281604	0.730319	-0.345461
64801	-9.411984	-2.089826	-1.358900	0.488702	-0.658331	-0.110774	0.519989	0.278650	0.731856	-0.341104
64802	-9.138246	-2.297895	-1.792453	-0.012000	-0.454509	-0.231774	0.521824	0.276320	0.733365	-0.336933
64803	-9.147864	-2.055078	-2.058003	0.014495	-0.130753	-0.214525	0.522476	0.275491	0.734424	-0.334281
64804	-9.175364	-1.491255	-1.570618	0.727270	-0.200125	-0.415405	0.522538	0.275531	0.735314	-0.332189
64805	-9.002109	-1.412527	-1.245031	0.921721	-0.433837	-0.672372	0.523044	0.274449	0.737049	-0.328422
64806	-9.078647	-1.569841	-1.431266	0.720655	-0.441382	-0.527198	0.523840	0.272185	0.739727	-0.322972
64807	-9.125022	-1.915990	-2.042997	0.119783	-0.261424	-0.271846	0.524715	0.269484	0.742936	-0.316384
64808	-9.430420	-1.600544	-2.086453	0.425725	-0.123633	-0.032564	0.525021	0.267685	0.745808	-0.310594
64809	-9.512134	-2.025424	-2.023060	0.185342	-0.542057	0.104311	0.525814	0.265150	0.749147	-0.303305
64810	-9.352451	-2.674366	-2.500452	-0.620409	-0.710030	0.186454	0.526168	0.263525	0.752140	-0.296627
64811	-9.485148	-2.047931	-2.596310	-0.185069	-0.327147	0.225283	0.525775	0.263553	0.754408	-0.291494
64812	-9.490587	-1.764600	-2.317428	0.191479	-0.433665	0.103458	0.526483	0.262535	0.756889	-0.284625
64813	-9.444205	-1.312423	-2.764340	0.201481	0.109054	0.112225	0.526445	0.262420	0.758910	-0.279369
64814	-9.704155	-1.250479	-1.819038	0.931084	-0.637527	0.075135	0.526620	0.261775	0.761472	-0.272591
64815	-9.495237	-1.796700	-3.548868	-0.648277	0.094304	0.461142	0.527222	0.260455	0.764258	-0.264781
64816	-9.478960	-1.286271	-4.124208	-0.694006	0.748621	0.554160	0.526700	0.261278	0.765784	-0.260568
64817	-9.846461	-0.109848	-3.705204	0.486649	1.189248	0.629626	0.526919	0.261824	0.766573	-0.257236
64818	-9.903851	0.319396	-3.104568	1.155445	1.029084	0.455322	0.529625	0.258634	0.768077	-0.250327
64819	-9.588569	-0.807146	-2.393252	0.734154	-0.277078	0.071832	0.533670	0.251926	0.770429	-0.241180
64820	-9.946990	-2.018692	-2.147888	0.202628	-1.430752	0.460722	0.538008	0.242071	0.773604	-0.231272
64821	-9.480345	-1.697830	-2.389362	0.090409	-0.988366	0.060690	0.542167	0.232714	0.775582	-0.224437
64822	-9.549697	-0.603653	-1.571710	1.358625	-0.611620	-0.230870	0.546820	0.223608	0.776944	-0.217589
64823	-8.346246	-0.642586	-2.177400	0.485403	-0.130091	-1.177808	0.552341	0.211108	0.779396	-0.207111
64824	-9.177826	-1.340033	-2.610744	-0.005744	-0.544430	-0.192516	0.555909	0.197851	0.783037	-0.196653
64825	-8.827468	-0.767818	-2.767451	0.083735	0.049187	-0.530280	0.558914	0.184019	0.786489	-0.187581
64826	-8.944655	-0.009587	-1.802416	1.292599	0.233208	-0.783283	0.561754	0.166804	0.790955	-0.176065
64827	-9.029608	0.236764	-2.343476	0.995615	0.747146	-0.564326	0.564845	0.141540	0.797703	-0.156802
64828	-8.921038	-1.172593	-4.602444	-1.526636	0.336480	0.172046	0.567665	0.108383	0.805703	-0.129815
64829	-10.154619	-1.148289	-5.029942	-1.413022	0.316272	1.484951	0.567380	0.078790	0.812294	-0.109778
64830	-10.198169	0.327658	-2.276898	1.525913	0.993579	0.481810	0.568310	0.046619	0.816534	-0.090121
64831	-8.688273	-0.451143	-2.930235	0.262098	0.409492	-0.645382	0.569404	0.005471	0.819815	-0.060437
64832	-8.841785	-2.880782	-4.569176	-1.287362	-1.865595	0.297137	0.568149	-0.032993	0.821595	-0.033166
64833	-8.594740	-2.938073	-3.113958	0.218020	-2.008492	-0.425822	0.566175	-0.062510	0.821732	-0.017178
64834	-8.676794	-0.979225	-1.876043	1.379892	0.110975	-0.989635	0.563606	-0.087194	0.821404	-0.006415
64835	-9.347843	0.393483	-2.237158	1.098067	1.699121	-0.408079	0.561764	-0.112438	0.819607	0.004756
64836	-8.785290	0.233075	-1.950226	1.118392	1.621419	-1.028780	0.561102	-0.138820	0.815810	0.018623
64837	-8.661447	-1.252887	-2.001328	1.311273	0.277493	-0.935867	0.561313	-0.163928	0.810534	0.033007
64838	-8.463965	-1.759682	-2.353251	1.026070	-0.222491	-0.914961	0.563374	-0.182552	0.804700	0.041739
64839	-8.810102	-1.024091	-1.545737	1.507419	0.851323	-0.977716	0.567504	-0.194693	0.798715	0.045711
64840	-8.910070	-0.152035	-0.870006	1.674934	1.941295	-1.234069	0.573199	-0.203119	0.792334	0.048909
64841	-9.225081	0.020947	-0.620631	1.739014	2.286784	-1.024545	0.579344	-0.209562	0.785899	0.052975
64842	-9.581754	0.059382	-0.949203	1.334394	2.310125	-0.560961	0.585955	-0.213708	0.779654	0.055898
64843	-9.944147	0.206056	-0.589189	1.482128	2.641707	-0.320761	0.593627	-0.216871	0.772792	0.058026
64844	-9.032652	-2.330966	-2.322942	0.589561	-0.526836	-0.231885	0.598477	-0.230781	0.763632	0.073700
64845	-5.693543	0.664034	-10.636990	-8.802287	-1.883911	-1.752575	0.607208	-0.228837	0.757997	0.066121
64846	-9.366978	6.798811	-6.129483	-6.775487	6.403619	-0.614070	0.605222	-0.224207	0.761731	0.056598
64847	-12.378322	2.424838	-0.956533	0.202014	5.181710	1.725347	0.598291	-0.238104	0.761507	0.073898
64848	-12.127094	-2.391591	0.609093	3.632255	1.433032	1.930824	0.599220	-0.240278	0.759555	0.079235
64849	-9.324067	-4.161583	-5.953318	-1.789199	-3.505302	1.332289	0.598078	-0.241262	0.760112	0.079528
64850	-10.440895	-4.351704	-3.852917	0.254803	-2.476607	1.874617	0.601160	-0.231617	0.761991	0.065800
64851	-9.804846	-0.603213	-0.402368	1.516292	2.002924	-0.307450	0.606794	-0.221583	0.761583	0.051899
64852	-8.722196	1.259471	0.897242	1.721828	3.832142	-2.014117	0.608157	-0.224516	0.759476	0.054157
64853	-9.107878	-1.650736	-2.995556	-0.568356	-0.057563	-0.100617	0.604439	-0.238305	0.756942	0.070022
64854	-9.452052	-4.015984	-5.114989	-1.343590	-2.912300	1.203010	0.606168	-0.238210	0.755531	0.070633
64855	-9.233958	-1.450395	-1.791958	0.391216	0.586583	-0.321492	0.610290	-0.229371	0.756057	0.057557
64856	-9.166752	0.288648	-0.796908	0.504746	2.510703	-0.970227	0.612908	-0.227917	0.754620	0.054282
64857	-9.074103	-1.667995	-1.135595	0.942036	0.620670	-0.585637	0.612139	-0.235868	0.752163	0.062469
64858	-9.216516	-2.727515	-2.745205	-0.048603	-0.882790	0.144114	0.613239	-0.238421	0.750292	0.064460
64859	-9.629064	-1.335169	-1.595672	0.398086	0.907394	-0.011380	0.615325	-0.236971	0.749356	0.060704
64860	-9.536948	-0.518010	-1.161358	0.388100	1.784252	-0.366199	0.616497	-0.238244	0.748008	0.060459
64861	-9.589554	-1.669269	-1.280440	0.748643	0.749297	-0.052380	0.616122	-0.243132	0.746420	0.064326
64862	-9.396352	-2.339627	-1.890908	0.457080	-0.117369	0.042164	0.616305	-0.246128	0.745140	0.065994
64863	-9.235897	-2.048899	-1.358909	0.772112	0.313354	-0.291551	0.616436	-0.248413	0.744180	0.067035
64864	-9.361985	-2.316401	-1.483076	0.788185	0.080942	-0.087247	0.616178	-0.250824	0.743453	0.068481
64865	-9.464670	-1.931536	-1.310781	0.778495	0.528351	-0.109918	0.615941	-0.252193	0.743159	0.068778
64866	-9.584525	-2.255979	-1.689492	0.608044	0.138710	0.158169	0.615130	-0.255001	0.742649	0.071152
64867	-9.427587	-2.637934	-2.320711	0.218783	-0.490224	0.233983	0.614703	-0.256484	0.742375	0.072355
64868	-9.467079	-2.165822	-1.636099	0.612009	0.213105	0.014480	0.614761	-0.256759	0.742212	0.072562
64869	-9.224184	-1.741321	-1.578736	0.442803	0.530712	-0.318877	0.614310	-0.257842	0.742075	0.073929
64870	-9.378193	-1.858223	-1.727949	0.389398	0.406324	-0.113586	0.613955	-0.259148	0.741726	0.075789
64871	-9.173250	-1.701180	-1.094083	0.859446	0.742182	-0.487987	0.613287	-0.260598	0.741557	0.077854
64872	-9.114717	-1.949613	-1.629901	0.519174	0.279482	-0.368752	0.612006	-0.262945	0.741468	0.080829
64873	-9.306623	-1.895413	-1.763212	0.427189	0.319950	-0.167490	0.610794	-0.264302	0.741765	0.082829
64874	-9.330304	-1.574219	-1.774606	0.290619	0.592232	-0.208172	0.609477	-0.265902	0.742033	0.084978
64875	-9.427011	-1.516836	-2.157576	-0.026821	0.495854	-0.036298	0.607993	-0.267597	0.742375	0.087271
64876	-9.437597	-1.567044	-2.384650	-0.167727	0.346548	0.039323	0.606670	-0.269649	0.742378	0.090090
64877	-9.534513	-1.808952	-1.874209	0.428019	0.390201	0.054247	0.605521	-0.272085	0.742003	0.093521
64878	-9.306928	-1.790651	-1.687870	0.574436	0.412899	-0.211973	0.604358	-0.274449	0.741637	0.096974
64879	-9.220310	-1.723249	-1.511100	0.705884	0.516606	-0.352143	0.603015	-0.276145	0.741728	0.099784
64880	-9.142101	-1.517621	-2.070674	0.148029	0.395713	-0.326366	0.601556	-0.276793	0.742484	0.101162
64881	-9.128107	-0.857868	-1.870722	-0.001685	1.036162	-0.513000	0.600654	-0.276138	0.743522	0.100688
64882	-9.364971	-0.614711	-1.328435	0.387282	1.568850	-0.472777	0.598618	-0.278184	0.744090	0.102957
64883	-9.407672	-2.221576	-1.789434	0.908976	0.030760	-0.024220	0.594943	-0.284253	0.743679	0.110383
64884	-9.412855	-3.131568	-3.056899	0.434184	-1.344955	0.471052	0.592275	-0.287025	0.744091	0.114697
64885	-9.644325	-2.630318	-2.042814	1.076456	-0.376602	0.326538	0.591042	-0.286908	0.744791	0.116785
64886	-9.620683	-1.605695	-1.775261	0.767391	0.560945	0.055622	0.589429	-0.286765	0.745709	0.119404
64887	-9.683424	-1.463225	-1.494362	0.980655	0.803218	0.012566	0.586960	-0.288547	0.746054	0.124986
64888	-9.408960	-1.453122	-1.926401	0.646242	0.475018	-0.132429	0.584362	-0.290485	0.746397	0.130502
64889	-9.278652	-1.474013	-1.679883	0.904471	0.518803	-0.325834	0.581230	-0.292720	0.746920	0.136370
64890	-9.730797	-2.113203	-1.776820	1.352757	0.056911	0.211144	0.577731	-0.294374	0.748034	0.141478
64891	-9.618831	-1.462097	-2.109097	0.769451	0.343084	0.106872	0.574959	-0.293829	0.749957	0.143702
64892	-9.749820	-0.094303	-1.725948	0.347429	1.657212	-0.056701	0.572453	-0.292767	0.752046	0.144952
64893	-9.872234	0.435051	-1.289222	0.465817	2.336302	-0.136086	0.568281	-0.295273	0.753225	0.150076
64894	-9.547291	-0.232538	-1.855168	0.451882	1.396599	-0.195451	0.563259	-0.300005	0.753747	0.156851
64895	-9.370956	-0.511703	-1.348037	1.049450	1.426921	-0.498395	0.558365	-0.305965	0.753752	0.162703
64896	-9.209631	-0.285631	-1.666172	0.687125	1.402866	-0.580429	0.552806	-0.315563	0.752208	0.170319
64897	-9.359602	-0.133368	-2.428414	0.094889	1.124561	-0.208345	0.546710	-0.328420	0.748539	0.181487
64898	-9.567311	-0.840427	-2.791337	0.409884	0.437002	0.170898	0.539584	-0.344216	0.742643	0.197095
64899	-9.416630	-1.497037	-3.430663	0.495387	-0.500190	0.296086	0.533712	-0.358794	0.735978	0.211552
64900	-8.458606	-1.172585	-3.889363	-0.144569	-0.918357	-0.475366	0.529894	-0.371198	0.729276	0.222666
64901	-7.765663	-0.622793	-4.336413	-0.909099	-1.143223	-1.017004	0.525604	-0.384831	0.721804	0.233762
64902	-9.000337	-0.111630	-4.701053	-1.296499	-0.770831	0.229373	0.519815	-0.400424	0.713763	0.244938
64903	-9.369769	1.076644	-4.253800	-1.965515	0.278522	0.341358	0.514617	-0.417284	0.703229	0.257899
64904	-8.715312	1.315073	-4.857828	-2.536380	-0.443783	-0.083851	0.504385	-0.440491	0.688690	0.277972
64905	-8.750735	-0.500535	-6.714359	-1.563047	-2.986497	0.700778	0.488312	-0.468362	0.671487	0.302148
64906	-9.488784	-2.091866	-6.854330	0.282021	-3.510999	1.544064	0.472210	-0.493853	0.655577	0.321476
64907	-8.996845	-1.348513	-5.437065	0.259772	-2.115180	0.568976	0.459089	-0.515564	0.641093	0.335305
64908	-7.738990	-0.994109	-4.847463	0.183830	-1.852115	-0.817664	0.443111	-0.538214	0.625778	0.349830
64909	-7.605276	-2.182577	-5.605693	1.420863	-2.652573	-0.595145	0.424774	-0.560935	0.611606	0.361742
64910	-8.239034	-1.795581	-5.093678	1.279212	-1.653804	-0.185960	0.409258	-0.580483	0.600357	0.367586
64911	-8.178323	-0.907634	-5.017615	0.504385	-1.314856	-0.278688	0.392369	-0.599956	0.588912	0.373206
64912	-8.277992	-1.572144	-5.018824	1.266771	-1.031218	-0.142636	0.373868	-0.619772	0.576645	0.378928
64913	-8.299585	-2.337821	-4.779637	2.086740	-0.466347	-0.189142	0.356567	-0.638539	0.564782	0.382294
64914	-8.266588	-2.162263	-4.320166	1.886799	0.222919	-0.428736	0.340866	-0.655692	0.553930	0.383458
64915	-7.951049	-2.066890	-3.734397	1.703987	0.863822	-0.993344	0.325850	-0.672227	0.543028	0.383475
64916	-7.870687	-2.560386	-3.530356	2.083693	1.367187	-1.166947	0.311867	-0.687793	0.532319	0.382514
64917	-8.300059	-2.349610	-3.098978	1.611348	2.133745	-1.045676	0.302520	-0.700697	0.523429	0.378851
64918	-7.808529	-0.989341	-2.969009	0.195571	1.778563	-1.593011	0.298809	-0.710633	0.514549	0.375438
64919	-7.634330	1.246862	-2.752732	-2.113749	1.246136	-1.977360	0.297830	-0.719786	0.503754	0.373414
64920	-9.948317	-0.799978	3.543812	-2.353617	8.018383	-3.307361	0.291373	-0.729685	0.484888	0.384116
64921	-7.832755	0.171014	0.763835	-2.263366	4.217832	-3.564086	0.297360	-0.732032	0.469804	0.393688
64922	-9.300237	2.113147	-1.245375	-3.928270	2.219291	-1.319100	0.300681	-0.734432	0.452083	0.407211
64923	-8.369523	0.615395	-10.854077	0.991412	-5.687319	2.632374	0.291880	-0.739177	0.431289	0.427099
64924	-12.846370	1.813047	-15.337082	0.662300	-8.275615	8.479779	0.296480	-0.737058	0.430533	0.428354
64925	-11.530188	-0.026224	0.814265	-3.265910	4.988757	0.089461	0.307345	-0.731193	0.432290	0.428977
64926	-12.049618	-1.240050	3.018935	-3.008367	7.344577	-0.177122	0.317981	-0.724863	0.430355	0.433886
64927	-9.657806	-0.187914	-7.007386	0.100033	-2.584719	1.836963	0.330976	-0.718789	0.430848	0.433784
64928	-10.463205	-0.057433	-1.335945	-2.161863	2.296094	0.253099	0.343533	-0.712935	0.434702	0.429818
64929	-10.021310	-0.989081	2.644081	-2.437699	5.836354	-1.542982	0.344712	-0.711937	0.428220	0.436975
64930	-8.244660	-3.030857	-2.357703	1.468488	1.648041	-0.989614	0.338093	-0.715065	0.417625	0.447174
64931	-8.831325	-3.575215	-4.026923	2.400550	0.535715	0.234173	0.344486	-0.712270	0.417200	0.447153
64932	-9.441856	-0.157544	-1.913946	-1.622366	1.053769	-0.373776	0.359593	-0.705348	0.423656	0.440106
64933	-9.581336	1.302494	0.417315	-3.757569	2.542567	-1.263510	0.365288	-0.702963	0.423587	0.439298
64934	-8.818229	-1.180016	-1.356759	-0.760799	1.627923	-0.994218	0.359567	-0.707066	0.416112	0.444545
64935	-9.177010	-3.240013	-3.143111	1.591757	0.932181	0.246721	0.357124	-0.709071	0.411389	0.447705
64936	-9.248839	-2.422971	-2.132950	0.476694	1.485020	-0.141683	0.361344	-0.708074	0.410948	0.446300
64937	-9.554299	-1.331051	-2.654398	-0.460761	0.623209	0.162346	0.363534	-0.707946	0.409581	0.445981
64938	-9.585690	-1.534964	-3.417364	-0.059988	-0.000239	0.478872	0.364585	-0.708133	0.407588	0.446651
64939	-9.359532	-1.685768	-2.297503	-0.239238	0.948352	-0.077989	0.365842	-0.708014	0.405295	0.447897
64940	-9.294179	-2.252056	-2.498715	0.352014	0.933248	0.021037	0.365577	-0.708521	0.402066	0.450216
64941	-9.217721	-2.281761	-2.178380	0.291881	1.170247	-0.145043	0.366657	-0.708093	0.400281	0.451599
64942	-9.188143	-1.411918	-2.048074	-0.530525	0.887527	-0.350088	0.367994	-0.707517	0.399003	0.452545
64943	-9.251555	-1.375335	-2.052340	-0.578432	0.851765	-0.292458	0.366759	-0.708407	0.395906	0.454868
64944	-9.171737	-2.477482	-2.535205	0.607755	0.837222	-0.034364	0.364374	-0.709739	0.391968	0.458108
64945	-9.069258	-2.316656	-3.199914	0.740105	0.143530	0.050849	0.364671	-0.709521	0.390581	0.459392
64946	-9.694501	-1.457109	-2.587835	-0.406268	0.426301	0.309392	0.365702	-0.708612	0.389822	0.460619
64947	-9.658766	-1.304780	-2.232570	-0.636357	0.627536	0.146209	0.364219	-0.708707	0.386737	0.464234
64948	-9.214466	-2.024139	-2.432281	0.235743	0.632837	-0.093467	0.361136	-0.709430	0.382329	0.469163
64949	-9.134538	-2.112019	-2.232354	0.300086	0.803662	-0.213329	0.358582	-0.709847	0.378375	0.473675
64950	-9.170148	-2.126289	-1.762064	0.160949	1.199307	-0.312522	0.355787	-0.710100	0.374534	0.478433
64951	-9.000300	-1.943406	-2.070829	0.213493	0.790656	-0.410578	0.353529	-0.709964	0.371717	0.482489
64952	-9.270781	-1.757823	-1.728940	-0.118877	1.027279	-0.275552	0.351998	-0.709544	0.369738	0.485735
64953	-9.259519	-1.488282	-1.671645	-0.335962	0.926026	-0.337587	0.350956	-0.708880	0.368574	0.488336
64954	-9.418202	-1.008489	-1.632357	-0.775774	0.741332	-0.261108	0.350075	-0.708361	0.367576	0.490469
64955	-9.520299	-1.126939	-1.269691	-0.822231	1.113700	-0.241808	0.347421	-0.708745	0.365230	0.493545
64956	-9.289331	-1.712623	-1.684688	-0.049512	0.995607	-0.269671	0.344847	-0.709261	0.363253	0.496062
64957	-9.275778	-1.352886	-1.319631	-0.492044	1.130263	-0.426946	0.343830	-0.708977	0.363051	0.497319
64958	-9.188822	-1.136063	-0.799010	-0.872945	1.455613	-0.675804	0.341956	-0.709363	0.362282	0.498620
64959	-9.489829	-1.678418	-1.071907	-0.341516	1.565915	-0.249525	0.337991	-0.710904	0.360804	0.500198
64960	-9.528223	-2.519835	-1.305756	0.491022	1.841703	-0.055210	0.333448	-0.712489	0.359507	0.501922
64961	-9.685615	-2.413581	-1.148705	0.305932	2.001429	0.028881	0.329862	-0.713505	0.359635	0.502757
64962	-9.624707	-2.429036	-0.961870	0.264186	2.213134	-0.091978	0.325323	-0.714845	0.359607	0.503830
64963	-9.549506	-1.277425	-1.396652	-0.465947	1.303087	-0.176300	0.322311	-0.715556	0.361430	0.503452
64964	-9.567010	0.236029	-1.127663	-1.866121	0.806074	-0.393426	0.319407	-0.716500	0.363164	0.502712
64965	-9.374142	0.181683	-0.891273	-1.876182	1.057957	-0.644145	0.311709	-0.719874	0.361205	0.504133
64966	-9.312779	-1.241226	-2.300814	0.034535	0.744600	-0.168756	0.302659	-0.724296	0.358360	0.505343
64967	-9.341476	-1.180806	-3.043571	0.353410	0.226711	0.073851	0.298075	-0.726785	0.359124	0.503949
64968	-9.655607	-0.380180	-2.266509	-0.787079	0.567095	0.065099	0.293765	-0.728962	0.359722	0.502908
64969	-9.738123	-0.160221	-2.863640	-0.677625	0.072933	0.316083	0.287459	-0.731940	0.358381	0.503184
64970	-9.464045	-0.290711	-3.347937	-0.236445	-0.212828	0.225216	0.280570	-0.735050	0.355939	0.504271
64971	-9.293555	-0.835972	-3.766579	0.498341	-0.176634	0.235983	0.273001	-0.738213	0.352586	0.506157
64972	-9.341975	-1.040118	-4.116254	0.880826	-0.232260	0.408247	0.266620	-0.740467	0.349218	0.508596
64973	-9.640381	-0.804813	-2.889433	-0.022376	0.668370	0.261347	0.261474	-0.742144	0.344339	0.512136
64974	-9.434332	-1.019743	-2.286651	-0.116529	1.188817	-0.125159	0.253985	-0.744939	0.333365	0.519061
64975	-8.832442	-0.760116	-3.236363	0.446748	0.147864	-0.387092	0.243318	-0.749055	0.316359	0.528800
64976	-9.002521	0.868970	-3.069864	-0.803857	-0.867165	-0.335113	0.230756	-0.754111	0.296069	0.538898
64977	-9.002637	2.935149	-3.125889	-2.020678	-2.517746	-0.378558	0.211674	-0.760737	0.269524	0.551208
64978	-8.301673	2.634066	-5.459339	0.420756	-3.929456	-0.324814	0.180307	-0.770237	0.233260	0.565521
64979	-8.605449	0.767258	-7.612923	3.552545	-3.285035	0.635223	0.149045	-0.779228	0.198419	0.575517
64980	-9.378641	0.441161	-6.347218	2.711618	-1.956695	1.015623	0.125657	-0.787299	0.170216	0.579136
64981	-9.711947	0.091026	-4.089006	0.879082	-0.490752	0.677079	0.099697	-0.794909	0.138541	0.582225
64982	-7.735837	-1.896631	-4.776546	2.684097	1.175274	-1.000243	0.067704	-0.801386	0.102039	0.585478
64983	-7.565175	-4.399230	-6.799451	4.969850	3.517123	-0.554466	0.040490	-0.808573	0.069868	0.582828
64984	-8.822642	-2.371505	-5.529793	2.694541	2.106929	0.303302	0.026900	-0.815521	0.048647	0.576052
64985	-8.467855	-0.291756	-5.104182	1.926824	0.215802	-0.113278	0.007580	-0.821394	0.024397	0.569788
64986	-7.889353	-2.304617	-5.088162	1.969465	2.425203	-0.665759	-0.019321	-0.826878	-0.003651	0.562038
64987	-7.942836	-5.158250	-6.208759	2.511977	5.525726	-0.253530	-0.036645	-0.831957	-0.026477	0.552995
64988	-8.133385	-3.817271	-4.995111	1.000874	4.143099	-0.458647	-0.041288	-0.837595	-0.041780	0.543124
64989	-8.162569	-1.887536	-4.162038	0.150584	2.050547	-0.686901	-0.044539	-0.842391	-0.056918	0.533999
64990	-8.183475	-1.365644	-3.353656	-0.738896	1.330940	-0.994556	-0.050712	-0.846473	-0.073215	0.524929
64991	-7.783160	-2.223237	-3.329870	-0.939248	2.110164	-1.370570	-0.059679	-0.848812	-0.091186	0.517341
64992	-7.319677	-2.995963	-3.090270	-1.293871	2.769407	-1.890819	-0.065066	-0.850262	-0.106940	0.511258
64993	-7.541937	-2.310133	-2.104195	-2.199360	1.740032	-2.146012	-0.064447	-0.850789	-0.118920	0.507802
64994	-7.202814	-0.335466	-3.855213	-0.059184	0.113983	-1.637283	-0.059471	-0.849351	-0.128902	0.508380
64995	-10.254355	1.013940	0.448641	-4.649484	-2.801889	-1.042959	-0.059232	-0.846473	-0.141306	0.509909
64996	-10.957090	-2.505574	3.892719	-8.729125	-0.691166	-1.763507	-0.080566	-0.834700	-0.164977	0.519199
64997	-8.629218	-2.823799	-3.424124	-1.467763	2.000002	-0.431742	-0.083540	-0.825003	-0.173185	0.531412
64998	-9.381479	3.637508	-4.834988	2.080378	-3.784226	0.481167	-0.069795	-0.817649	-0.165642	0.546939
64999	-9.611419	3.868826	-8.315499	5.366851	-2.877156	1.993658	-0.090132	-0.811231	-0.177592	0.549764
65000	-16.863085	-4.139284	-3.297759	-4.318763	1.819737	7.228642	-0.105128	-0.807294	-0.184993	0.550456
65001	-12.087006	-2.383672	2.495310	-6.814502	-0.789796	0.718916	-0.085842	-0.799757	-0.168520	0.569755
65002	-9.368832	2.574957	-3.725380	1.511102	-2.893721	0.067807	-0.069864	-0.798367	-0.157729	0.576932
65003	-12.108304	1.653031	1.749321	-4.438172	-4.112629	0.947973	-0.063938	-0.795879	-0.153932	0.582060
65004	-8.369673	-0.436541	0.891376	-3.191518	-1.263074	-2.114994	-0.069329	-0.791624	-0.159247	0.585804
65005	-8.587397	-3.534438	-1.465307	-2.079924	2.290420	-0.935157	-0.081314	-0.787665	-0.169364	0.586760
65006	-8.217497	-3.631445	-2.016613	-1.493723	2.615114	-1.111508	-0.076382	-0.786275	-0.166642	0.590058
65007	-9.017084	-0.106693	-1.251257	-1.121604	-1.092467	-0.844239	-0.063547	-0.787455	-0.158554	0.592231
65008	-9.932831	1.173514	-0.600461	-1.531476	-2.685666	-0.281658	-0.060631	-0.787389	-0.158094	0.592746
65009	-9.197345	-0.848216	-1.664051	-0.997362	-0.376203	-0.488342	-0.065110	-0.786191	-0.163965	0.592267
65010	-8.972808	-2.459339	-2.365267	-0.828197	1.359735	-0.345942	-0.066251	-0.785689	-0.167389	0.591848
65011	-9.278965	-2.512192	-3.105584	-0.249706	1.536821	0.168829	-0.064991	-0.785750	-0.168763	0.591517
65012	-9.767923	-2.153881	-2.789337	-0.531120	0.988320	0.510734	-0.064033	-0.785479	-0.169247	0.591843
65013	-9.602557	-1.492394	-2.564605	-0.460995	0.315983	0.222308	-0.062835	-0.785103	-0.169193	0.592485
65014	-9.608544	-0.909644	-2.083141	-0.690388	-0.383574	0.029428	-0.062352	-0.784522	-0.169763	0.593143
65015	-9.345190	-1.715374	-2.105591	-0.867604	0.425713	-0.128958	-0.066412	-0.783540	-0.173846	0.592818
65016	-9.173792	-2.558057	-3.223945	-0.106697	1.592988	0.114392	-0.069733	-0.782667	-0.176726	0.592738
65017	-9.466017	-1.585642	-2.818026	-0.203039	0.517673	0.174894	-0.070190	-0.782170	-0.176977	0.593264
65018	-9.329862	-0.952581	-2.095049	-0.592042	-0.252946	-0.224758	-0.073584	-0.780947	-0.178998	0.593857
65019	-9.167672	-1.508589	-2.626353	-0.265575	0.496813	-0.174104	-0.079055	-0.779520	-0.182627	0.593924
65020	-9.198422	-1.828165	-2.619366	-0.398529	0.819722	-0.118184	-0.082977	-0.778364	-0.185029	0.594162
65021	-9.215515	-1.440982	-2.634689	-0.237933	0.497679	-0.135946	-0.086603	-0.777067	-0.186902	0.594756
65022	-9.220911	-0.885479	-2.312342	-0.301363	-0.089917	-0.270300	-0.090070	-0.775729	-0.188491	0.595485
65023	-9.505153	-0.944527	-1.786576	-0.841792	-0.237043	-0.134517	-0.095554	-0.774060	-0.191685	0.595784
65024	-9.290105	-1.918008	-2.135868	-0.873844	0.858516	-0.166656	-0.101877	-0.772344	-0.195484	0.595727
65025	-9.138582	-1.529960	-2.715085	-0.171082	0.789650	-0.191187	-0.103936	-0.771671	-0.195860	0.596121
65026	-9.657548	-0.044997	-1.741396	-0.516232	-0.997268	-0.063757	-0.104401	-0.771318	-0.194973	0.596787
65027	-9.689174	-0.290798	-1.012694	-1.261980	-1.034434	-0.203969	-0.111422	-0.769798	-0.199568	0.595960
65028	-9.440867	-2.554801	-1.816269	-1.512054	1.400387	-0.080890	-0.122386	-0.767717	-0.207085	0.593926
65029	-9.398376	-3.724964	-2.600964	-1.421329	2.817624	0.137698	-0.128115	-0.767170	-0.209561	0.592554
65030	-9.593548	-1.946589	-2.386846	-0.860633	1.155897	0.159548	-0.128966	-0.767737	-0.207485	0.592366
65031	-9.751943	0.565105	-1.084268	-0.870059	-1.617050	-0.157466	-0.129871	-0.768093	-0.204732	0.592665
65032	-9.450384	0.443131	-0.557974	-1.328528	-1.632562	-0.572187	-0.142447	-0.766272	-0.211402	0.589784
65033	-9.323217	-1.763656	-2.528119	-0.751673	1.296603	-0.108233	-0.156436	-0.764176	-0.219270	0.586075
65034	-9.002339	-1.704748	-2.619528	-0.657534	1.405780	-0.410498	-0.161122	-0.764427	-0.219884	0.584245
65035	-9.300388	-0.072146	-1.696320	-0.698142	-0.448947	-0.395118	-0.164017	-0.765350	-0.218939	0.582584
65036	-9.609653	0.822748	-1.367973	-0.621247	-1.378740	-0.189462	-0.169334	-0.765586	-0.220299	0.580235
65037	-9.659293	0.457314	-1.755526	-0.554745	-0.836427	-0.035918	-0.176492	-0.765381	-0.224379	0.576798
65038	-9.579087	0.387472	-2.260598	-0.222968	-0.472744	0.023253	-0.182398	-0.765588	-0.228322	0.573128
65039	-10.077952	-0.170311	-2.160108	-0.798436	-0.110347	0.463985	-0.189476	-0.765412	-0.233683	0.568889
65040	-10.045220	-0.162483	-1.909948	-1.038513	-0.246153	0.357933	-0.193622	-0.764972	-0.237999	0.566291
65041	-8.962345	0.467282	-1.919466	-0.418094	-0.614240	-0.665327	-0.199278	-0.762665	-0.246380	0.563851
65042	-9.398478	0.821574	-2.591351	0.221325	-0.582759	-0.048836	-0.210371	-0.757447	-0.261239	0.560154
65043	-9.005166	1.890196	-3.882458	1.978968	-0.511501	-0.037203	-0.225711	-0.749544	-0.281651	0.554897
65044	-8.857020	2.700307	-4.916161	3.314810	-0.227591	0.130182	-0.247973	-0.738037	-0.309459	0.545936
65045	-8.600751	1.563557	-5.700896	2.987320	1.472759	0.077291	-0.276866	-0.722397	-0.342302	0.533215
65046	-8.575290	-0.523549	-6.954510	1.775140	4.013332	0.331019	-0.305294	-0.706456	-0.374391	0.517250
65047	-9.399465	-3.002240	-5.853678	-1.464336	4.323303	0.712414	-0.326298	-0.692729	-0.402264	0.501836
65048	-7.808946	-4.063297	-5.244230	-2.746625	4.485302	-1.019569	-0.340238	-0.680648	-0.425422	0.489870
65049	-7.519970	-3.967585	-6.001787	-2.581223	4.935142	-1.021549	-0.347012	-0.671692	-0.446533	0.478562
65050	-9.115302	-1.739689	-5.408872	-1.085815	2.905606	0.470509	-0.348043	-0.665301	-0.464634	0.469421
65051	-8.142749	-0.301294	-5.091318	0.227291	2.236627	-0.471349	-0.353060	-0.656820	-0.483026	0.458936
65052	-7.721914	-2.548757	-4.729700	-2.111482	2.510468	-0.996518	-0.362379	-0.646787	-0.504046	0.443041
65053	-7.845905	-5.247827	-5.443771	-4.747657	3.470552	-0.640083	-0.364997	-0.640184	-0.519961	0.431951
65054	-7.635764	-3.411349	-4.434804	-3.135957	1.973101	-1.101917	-0.356874	-0.639294	-0.529449	0.428518
65055	-8.018176	-1.334507	-3.563905	-1.182660	0.438978	-1.027573	-0.347679	-0.638920	-0.537414	0.426717
65056	-8.113486	-0.607583	-2.706004	-0.525090	-0.671924	-1.280944	-0.340941	-0.637629	-0.544827	0.424679
65057	-8.209990	-0.543659	-2.692324	-0.369333	-0.862869	-1.206565	-0.335345	-0.635603	-0.551627	0.423391
65058	-9.005669	-0.163724	-2.503855	0.057077	-1.521027	-0.588823	-0.329969	-0.633137	-0.556530	0.424891
65059	-8.187808	1.922264	-3.855843	2.518263	-0.369134	-0.917614	-0.324177	-0.629577	-0.558882	0.431500
65060	-13.483902	-0.736008	5.293319	-1.528903	-10.269950	0.313830	-0.335451	-0.614876	-0.571183	0.427960
65061	-9.084501	-0.431418	-1.913412	0.108805	-1.858724	-0.707649	-0.344034	-0.603012	-0.572303	0.436448
65062	-11.061511	7.438529	-1.341041	8.009628	-3.893956	0.195689	-0.342809	-0.599268	-0.565502	0.451185
65063	-10.263028	4.164073	-3.202027	5.048773	-1.082236	0.493976	-0.372487	-0.577063	-0.581605	0.435874
65064	-13.826404	-0.505597	-8.776271	0.813650	3.604160	6.149184	-0.388180	-0.566535	-0.586495	0.429392
65065	-12.533400	-1.372346	0.174913	-0.679102	-4.113016	2.087419	-0.390171	-0.566057	-0.576425	0.441680
65066	-8.319916	-2.262819	-0.821720	-1.739917	-1.618669	-1.483943	-0.391999	-0.564053	-0.572898	0.447179
65067	-8.649522	-1.730597	-4.159111	-0.875706	1.553332	-0.224958	-0.384077	-0.567771	-0.565455	0.458674
65068	-9.532810	0.284750	-0.031937	0.869930	-2.706198	-0.709074	-0.378810	-0.570544	-0.557867	0.468793
65069	-8.974424	0.167309	0.588972	0.672951	-3.038578	-1.373016	-0.386193	-0.563862	-0.559609	0.468777
65070	-8.756514	-1.280316	-1.948852	-0.494221	-0.344578	-0.771084	-0.395144	-0.555680	-0.565178	0.464386
65071	-9.681800	-1.190721	-3.155315	-0.248876	0.632420	0.417109	-0.398798	-0.551668	-0.565888	0.465181
65072	-9.515104	-0.199608	-1.446003	0.621770	-0.959921	-0.254472	-0.398229	-0.550897	-0.563518	0.469439
65073	-9.240974	-0.705973	-2.120333	0.182381	-0.159610	-0.308433	-0.399786	-0.547834	-0.564628	0.470365
65074	-9.189180	-2.271809	-2.339751	-1.335785	0.192192	-0.155819	-0.401889	-0.544503	-0.565472	0.471426
65075	-9.534162	-2.207785	-2.178966	-1.222943	-0.001410	0.138520	-0.402076	-0.542749	-0.564904	0.473964
65076	-9.827426	-1.518449	-1.842615	-0.506430	-0.371215	0.281102	-0.404060	-0.539994	-0.564691	0.475674
65077	-9.374275	-1.580574	-1.865548	-0.591512	-0.184940	-0.144641	-0.406810	-0.536929	-0.564869	0.476587
65078	-9.491278	-1.724061	-1.545685	-0.732256	-0.459602	-0.081386	-0.408711	-0.534697	-0.564497	0.477910
65079	-9.357925	-1.693727	-1.313414	-0.717751	-0.611109	-0.258854	-0.410126	-0.532974	-0.564027	0.479175
65080	-9.351647	-1.623061	-1.235314	-0.644955	-0.651687	-0.285208	-0.411930	-0.531109	-0.564256	0.479429
65081	-9.557905	-1.116746	-1.132017	-0.123945	-0.780208	-0.155672	-0.413933	-0.529195	-0.564565	0.479456
65082	-9.523825	-0.850868	-1.215792	0.139631	-0.669033	-0.198210	-0.417330	-0.526222	-0.566166	0.477894
65083	-9.456898	-1.484280	-2.205342	-0.473044	0.350552	-0.006935	-0.421299	-0.523045	-0.568086	0.475615
65084	-9.461800	-1.194377	-2.289769	-0.197354	0.451337	-0.017152	-0.422687	-0.522004	-0.567951	0.475689
65085	-9.671894	-0.945696	-1.467818	0.042377	-0.370980	0.008456	-0.424376	-0.520609	-0.567994	0.475661
65086	-9.671440	-1.463956	-1.517122	-0.479369	-0.296383	0.069817	-0.426681	-0.518705	-0.568731	0.474798
65087	-9.574183	-2.305200	-0.894708	-1.345788	-0.872178	-0.055252	-0.429441	-0.516551	-0.569613	0.473599
65088	-9.316860	-2.132589	-0.925965	-1.212362	-0.779182	-0.318887	-0.430396	-0.516509	-0.568950	0.473576
65089	-9.419389	-0.725800	-0.030160	0.170878	-1.662628	-0.514353	-0.429768	-0.518152	-0.567562	0.474017
65090	-9.503458	-0.333487	0.044576	0.547650	-1.761761	-0.483961	-0.431105	-0.518021	-0.568795	0.471461
65091	-9.393607	-0.984897	-1.062267	-0.122483	-0.690049	-0.333926	-0.431570	-0.518517	-0.570254	0.468721
65092	-9.188974	-0.607695	-1.121634	0.221542	-0.636705	-0.560126	-0.429267	-0.520998	-0.570395	0.467911
65093	-9.248470	-0.482665	-1.583026	0.350090	-0.254179	-0.427294	-0.427286	-0.522911	-0.571615	0.466097
65094	-9.342851	-1.177311	-2.475508	-0.329197	0.535801	-0.096344	-0.425891	-0.524251	-0.572901	0.464287
65095	-9.501119	-1.349208	-3.272300	-0.483774	1.232982	0.239433	-0.424552	-0.525791	-0.573295	0.463284
65096	-9.809510	-1.114662	-2.945571	-0.232520	0.819771	0.454699	-0.423925	-0.526915	-0.573078	0.462850
65097	-9.736733	-0.941334	-2.467251	-0.083563	0.358955	0.269056	-0.424254	-0.527383	-0.572693	0.462491
65098	-9.449943	-0.863019	-2.472215	-0.043226	0.426031	-0.016021	-0.424691	-0.527676	-0.572258	0.462294
65099	-9.588000	-0.747577	-2.580492	0.071913	0.507652	0.131389	-0.424888	-0.528155	-0.571557	0.462433
65100	-9.536490	-0.548767	-2.360803	0.256208	0.316192	0.018566	-0.424784	-0.528691	-0.570325	0.463437
65101	-9.398882	-0.451417	-1.928366	0.333113	-0.063826	-0.213401	-0.424713	-0.528981	-0.569360	0.464357
65102	-9.467246	-0.731587	-1.950366	0.057216	-0.038297	-0.119229	-0.425212	-0.528756	-0.568792	0.464852
65103	-9.458652	-1.047638	-1.865130	-0.259709	-0.104143	-0.119183	-0.425687	-0.528373	-0.568387	0.465348
65104	-9.560456	-1.200245	-1.747215	-0.408965	-0.218588	-0.031042	-0.426443	-0.527970	-0.567766	0.465871
65105	-9.394073	-1.210084	-1.820521	-0.434180	-0.090516	-0.177831	-0.426984	-0.527812	-0.566911	0.466595
65106	-9.599889	-0.829913	-1.604156	-0.051381	-0.324594	-0.049906	-0.427427	-0.527958	-0.565939	0.467205
65107	-9.544979	-0.649297	-1.382848	0.114192	-0.512721	-0.160511	-0.428125	-0.527706	-0.565337	0.467578
65108	-9.403956	-0.743461	-1.300829	0.001058	-0.548595	-0.305937	-0.428724	-0.527466	-0.564978	0.467733
65109	-9.472474	-0.770648	-1.213660	-0.025078	-0.635618	-0.252876	-0.428994	-0.527341	-0.564718	0.467941
65110	-9.336967	-0.774394	-1.304276	-0.040086	-0.520825	-0.367746	-0.428952	-0.527453	-0.564819	0.467731
65111	-9.508938	-0.923789	-1.273795	-0.176357	-0.586270	-0.193902	-0.428626	-0.527701	-0.564843	0.467721
65112	-9.459727	-1.008466	-1.368552	-0.262647	-0.493763	-0.217711	-0.428020	-0.528254	-0.564945	0.467530
65113	-9.552801	-0.969549	-1.331841	-0.214840	-0.563202	-0.137645	-0.427022	-0.529061	-0.564961	0.467510
65114	-9.565818	-0.877591	-1.628306	-0.113426	-0.297038	-0.074860	-0.425801	-0.530091	-0.565059	0.467338
65115	-9.436947	-0.765232	-1.797303	-0.003925	-0.129437	-0.176555	-0.424540	-0.531128	-0.565120	0.467235
65116	-9.476778	-0.895808	-1.905008	-0.126719	-0.054356	-0.105896	-0.423407	-0.532138	-0.565252	0.466954
65117	-9.507121	-0.882719	-2.168002	-0.100563	0.174602	-0.023707	-0.421933	-0.533388	-0.565054	0.467102
65118	-9.509162	-0.788217	-1.985420	-0.007611	-0.026211	-0.066582	-0.420917	-0.534224	-0.565030	0.467092
65119	-9.420322	-1.006782	-2.116912	-0.223811	0.110125	-0.108299	-0.420163	-0.534795	-0.565100	0.467032
65120	-9.519286	-0.923816	-2.137411	-0.129644	0.094039	-0.014060	-0.419310	-0.535474	-0.565028	0.467108
65121	-9.644140	-0.850191	-2.069582	-0.047125	-0.010617	0.087469	-0.418911	-0.535803	-0.565042	0.467071
65122	-9.527788	-0.900216	-2.038013	-0.105729	-0.023198	-0.028470	-0.418631	-0.536013	-0.565137	0.466968
65123	-9.486058	-0.946336	-2.068625	-0.153993	0.013084	-0.058910	-0.418414	-0.536257	-0.565010	0.467035
65124	-9.451454	-0.797733	-2.067940	-0.008130	0.014019	-0.104831	-0.418126	-0.536535	-0.564812	0.467213
65125	-9.572349	-0.789078	-1.938258	0.006210	-0.137363	-0.015216	-0.417988	-0.536609	-0.564637	0.467463
65126	-9.449024	-0.880045	-1.954501	-0.091269	-0.093066	-0.124467	-0.417961	-0.536544	-0.564706	0.467479
65127	-9.459993	-0.985440	-1.786626	-0.199244	-0.256555	-0.140611	-0.417670	-0.536680	-0.564535	0.467789
65128	-9.383817	-0.807077	-1.824575	-0.020932	-0.210546	-0.221457	-0.417206	-0.536885	-0.564593	0.467898
65129	-9.526971	-0.974401	-1.947204	-0.168757	-0.120467	-0.042260	-0.416993	-0.536940	-0.564650	0.467956
65130	-9.557103	-0.981306	-1.930001	-0.172714	-0.146380	-0.016013	-0.416742	-0.537117	-0.564555	0.468090
65131	-9.539546	-0.856399	-1.972357	-0.043505	-0.102535	-0.034439	-0.416411	-0.537274	-0.564282	0.468534
65132	-9.369280	-0.674419	-1.883961	0.122803	-0.153873	-0.234128	-0.416351	-0.537292	-0.564109	0.468775
65133	-9.434819	-0.879649	-1.927768	-0.071911	-0.119777	-0.143853	-0.416430	-0.537045	-0.564380	0.468663
65134	-9.576694	-1.140637	-2.149318	-0.307596	0.074328	0.063220	-0.416346	-0.536907	-0.564405	0.468864
65135	-9.523661	-0.984184	-1.918150	-0.159772	-0.137428	-0.050331	-0.415931	-0.537067	-0.563840	0.469729
65136	-9.444402	-0.862406	-1.944221	-0.038346	-0.091313	-0.132261	-0.415755	-0.537113	-0.563501	0.470239
65137	-9.409649	-0.837185	-1.964118	-0.013240	-0.059213	-0.164038	-0.415763	-0.537096	-0.563211	0.470598
65138	-9.428785	-0.919118	-1.982891	-0.088003	-0.033353	-0.134373	-0.415825	-0.536851	-0.563019	0.471051
65139	-9.675238	-0.994626	-2.047398	-0.135082	-0.010074	0.125773	-0.415842	-0.536590	-0.562739	0.471669
65140	-9.596717	-0.933804	-2.081075	-0.073999	0.052886	0.050960	-0.415993	-0.536298	-0.562237	0.472465
65141	-9.524360	-0.891040	-1.938627	-0.039084	-0.054110	-0.052504	-0.416358	-0.535820	-0.561799	0.473206
65142	-9.491911	-1.016687	-2.030879	-0.158088	0.065132	-0.054346	-0.416835	-0.535279	-0.561476	0.473783
65143	-9.447696	-0.922660	-1.917544	-0.068306	-0.017240	-0.128565	-0.417288	-0.534655	-0.560962	0.474696
65144	-9.526309	-0.931041	-1.877472	-0.067344	-0.047549	-0.058947	-0.417849	-0.533963	-0.560482	0.475548
65145	-9.616522	-0.978439	-1.897997	-0.100369	-0.018013	0.037530	-0.418494	-0.533169	-0.560024	0.476410
65146	-9.632835	-1.085646	-1.833153	-0.201415	-0.053097	0.050736	-0.419093	-0.532338	-0.559465	0.477468
65147	-9.476769	-1.067656	-1.698089	-0.198416	-0.123840	-0.128795	-0.419712	-0.531676	-0.558633	0.478635
65148	-9.466164	-0.907243	-1.590806	-0.041293	-0.201178	-0.173198	-0.420248	-0.531148	-0.557730	0.479803
65149	-9.493279	-0.841211	-1.490400	0.025433	-0.277252	-0.170401	-0.420940	-0.530424	-0.557089	0.480739
65150	-9.596923	-1.021360	-1.526979	-0.139602	-0.224723	-0.045103	-0.421759	-0.529558	-0.556584	0.481562
65151	-9.547710	-1.092269	-1.476493	-0.212405	-0.234345	-0.095088	-0.422352	-0.528852	-0.555918	0.482587
65152	-9.482321	-1.016661	-1.322972	-0.145037	-0.349283	-0.192127	-0.422795	-0.528288	-0.555288	0.483541
65153	-9.524560	-1.052927	-1.289768	-0.174116	-0.365596	-0.152181	-0.423163	-0.527802	-0.554791	0.484319
65154	-9.475311	-0.980364	-1.215016	-0.106796	-0.411003	-0.219016	-0.423561	-0.527358	-0.554214	0.485115
65155	-9.455008	-0.989538	-1.109488	-0.120131	-0.492995	-0.254977	-0.423937	-0.526919	-0.553907	0.485613
65156	-9.571934	-1.025362	-1.179653	-0.139255	-0.426834	-0.124381	-0.424242	-0.526547	-0.553611	0.486088
65157	-9.553960	-1.026704	-1.160876	-0.143050	-0.431691	-0.144539	-0.424554	-0.526292	-0.553412	0.486319
65158	-9.535439	-0.990664	-1.168569	-0.109116	-0.413572	-0.164443	-0.424743	-0.526193	-0.553190	0.486514
65159	-9.525573	-0.967367	-1.217839	-0.082226	-0.359782	-0.168037	-0.424774	-0.526072	-0.553155	0.486656
65160	-9.505628	-0.955130	-1.268126	-0.068339	-0.303541	-0.180420	-0.424854	-0.525956	-0.553134	0.486736
65161	-9.592199	-1.002808	-1.342109	-0.103597	-0.239508	-0.078774	-0.424981	-0.525798	-0.553139	0.486789
65162	-9.614447	-1.095378	-1.450115	-0.187630	-0.130051	-0.030655	-0.425029	-0.525746	-0.553021	0.486938
65163	-9.611136	-0.988124	-1.406555	-0.081845	-0.176060	-0.050976	-0.424862	-0.525817	-0.552920	0.487123
65164	-9.773293	-1.067475	-1.339177	-0.149546	-0.265356	0.104842	-0.424941	-0.525738	-0.552937	0.487120
65165	-9.495684	-1.093704	-1.343910	-0.198043	-0.205367	-0.164429	-0.424600	-0.526090	-0.552017	0.488079
65166	-9.394396	-0.983325	-1.353946	-0.094927	-0.175929	-0.272519	-0.424147	-0.526526	-0.551524	0.488560
65167	-9.621371	-0.878885	-1.254564	0.023412	-0.312412	-0.075182	-0.423657	-0.527049	-0.550816	0.489219
65168	-9.631208	-1.005506	-1.249202	-0.101866	-0.310658	-0.054366	-0.423530	-0.527221	-0.550472	0.489531
65169	-9.429077	-1.118916	-1.398557	-0.220649	-0.119521	-0.218290	-0.423109	-0.527554	-0.549877	0.490205
65170	-9.655784	-1.151894	-1.293693	-0.240500	-0.254428	-0.009010	-0.422469	-0.528276	-0.549090	0.490862
65171	-9.537010	-1.063833	-1.143403	-0.171660	-0.379593	-0.157632	-0.421573	-0.529182	-0.547736	0.492168
65172	-9.329727	-1.083049	-1.349721	-0.192977	-0.134766	-0.326743	-0.420701	-0.530076	-0.546773	0.493020
65173	-9.693589	-0.798143	-1.207721	0.111793	-0.353005	-0.018599	-0.419021	-0.531651	-0.545476	0.494190
65174	-9.653906	-0.485018	-0.929911	0.400671	-0.644966	-0.131708	-0.418226	-0.532268	-0.545025	0.494697
65175	-9.634651	-0.939799	-1.429938	-0.009987	-0.125860	-0.028082	-0.418540	-0.531821	-0.545839	0.494015
65176	-9.690901	-1.278498	-1.762840	-0.314922	0.207090	0.112718	-0.418418	-0.531822	-0.546091	0.493839
65177	-9.617143	-1.035723	-1.499280	-0.097964	-0.056583	-0.025082	-0.418078	-0.532003	-0.545833	0.494217
65178	-9.662891	-0.906470	-1.410980	0.029189	-0.158153	-0.006661	-0.418170	-0.531871	-0.545859	0.494253
65179	-9.540217	-0.980800	-1.455868	-0.050939	-0.085554	-0.112824	-0.418495	-0.531550	-0.545968	0.494201
65180	-9.571096	-1.057139	-1.382284	-0.129045	-0.153562	-0.086748	-0.418728	-0.531272	-0.545982	0.494288
65181	-9.601051	-1.102055	-1.365854	-0.169373	-0.167927	-0.055466	-0.418682	-0.531162	-0.545941	0.494492
65182	-9.598642	-1.042066	-1.238131	-0.117893	-0.293832	-0.083733	-0.418612	-0.531138	-0.545808	0.494722
65183	-9.510489	-1.066670	-1.270432	-0.145527	-0.243308	-0.162775	-0.418584	-0.531106	-0.545746	0.494848
65184	-9.632826	-0.980112	-1.282575	-0.046776	-0.255787	-0.049013	-0.418481	-0.531154	-0.545674	0.494963
65185	-9.549695	-1.006557	-1.302564	-0.078292	-0.218985	-0.124942	-0.418665	-0.530970	-0.545716	0.494960
65186	-9.525892	-1.020608	-1.278393	-0.096441	-0.234795	-0.150694	-0.418757	-0.530898	-0.545669	0.495009
65187	-9.653498	-0.993190	-1.255753	-0.059998	-0.277624	-0.031446	-0.418807	-0.530860	-0.545596	0.495089
65188	-9.604943	-1.026144	-1.242935	-0.098593	-0.278482	-0.077930	-0.418944	-0.530773	-0.545646	0.495011
65189	-9.532512	-1.012049	-1.197274	-0.094669	-0.312031	-0.157628	-0.419070	-0.530690	-0.545705	0.494930
65190	-9.600569	-1.092893	-1.208561	-0.168006	-0.308114	-0.081151	-0.419071	-0.530671	-0.545852	0.494787
65191	-9.595122	-0.954055	-1.262800	-0.028425	-0.264830	-0.091560	-0.419197	-0.530653	-0.545978	0.494559
65192	-9.511889	-1.014877	-1.262839	-0.097630	-0.251055	-0.167574	-0.419398	-0.530506	-0.546292	0.494199
65193	-9.623173	-0.982071	-1.318897	-0.052946	-0.219320	-0.052641	-0.419327	-0.530627	-0.546380	0.494034
65194	-9.594282	-0.927222	-1.270795	-0.004753	-0.268775	-0.094012	-0.419320	-0.530610	-0.546538	0.493883
65195	-9.607858	-0.962496	-1.304576	-0.036885	-0.240538	-0.072049	-0.419384	-0.530549	-0.546872	0.493524
65196	-9.582929	-0.996092	-1.293086	-0.075390	-0.251916	-0.095298	-0.419513	-0.530485	-0.547246	0.493069
65197	-9.586515	-1.021782	-1.323595	-0.099518	-0.227790	-0.084613	-0.419579	-0.530430	-0.547634	0.492640
65198	-9.576277	-0.948971	-1.314163	-0.030991	-0.247122	-0.103382	-0.419824	-0.530284	-0.548135	0.492031
65199	-9.529286	-1.019178	-1.431701	-0.098411	-0.127639	-0.124045	-0.420059	-0.530082	-0.548730	0.491385
65200	-9.645267	-1.004179	-1.451078	-0.074575	-0.138129	-0.008579	-0.420177	-0.530002	-0.549217	0.490826
65201	-9.610964	-0.966428	-1.422713	-0.044032	-0.168680	-0.050601	-0.420426	-0.529789	-0.549668	0.490337
65202	-9.570925	-0.950346	-1.443068	-0.032720	-0.148378	-0.088227	-0.420796	-0.529503	-0.550201	0.489732
65203	-9.575210	-0.991390	-1.443907	-0.074062	-0.151559	-0.080067	-0.421031	-0.529238	-0.550695	0.489260
65204	-9.599424	-0.930447	-1.430547	-0.012942	-0.176555	-0.064365	-0.421243	-0.528983	-0.551135	0.488857
65205	-9.569862	-0.921136	-1.422146	-0.006920	-0.183757	-0.095722	-0.421628	-0.528563	-0.551679	0.488366
65206	-9.583142	-0.996579	-1.463738	-0.078934	-0.144428	-0.068704	-0.422026	-0.528141	-0.552211	0.487877
65207	-9.593206	-1.001025	-1.439732	-0.084539	-0.171267	-0.062405	-0.422354	-0.527802	-0.552549	0.487578
65208	-9.584267	-0.986816	-1.402479	-0.073705	-0.207264	-0.078699	-0.422716	-0.527430	-0.552890	0.487280
65209	-9.565064	-0.986676	-1.395193	-0.076387	-0.210561	-0.098761	-0.423102	-0.527087	-0.553155	0.487015
65210	-9.560952	-0.978371	-1.374942	-0.070473	-0.227756	-0.106883	-0.423431	-0.526786	-0.553316	0.486871
65211	-9.594439	-0.934279	-1.424882	-0.021860	-0.184324	-0.069897	-0.423730	-0.526513	-0.553492	0.486707
65212	-9.591498	-0.980305	-1.351323	-0.072075	-0.251034	-0.080489	-0.424086	-0.526164	-0.553637	0.486610
65213	-9.558226	-1.005465	-1.325465	-0.101289	-0.266143	-0.114934	-0.424322	-0.525925	-0.553709	0.486580
65214	-9.562549	-0.974150	-1.366806	-0.068070	-0.225034	-0.106802	-0.424459	-0.525819	-0.553728	0.486554
65215	-9.626857	-0.948195	-1.337093	-0.038169	-0.265270	-0.050954	-0.424562	-0.525708	-0.553808	0.486491
65216	-9.553358	-0.963190	-1.358996	-0.058091	-0.228311	-0.118062	-0.424748	-0.525514	-0.553845	0.486497
65217	-9.553474	-1.002753	-1.366173	-0.097168	-0.217000	-0.112982	-0.424906	-0.525378	-0.553856	0.486494
65218	-9.603092	-0.964424	-1.343181	-0.055005	-0.246404	-0.071543	-0.424934	-0.525307	-0.553776	0.486637
65219	-9.570040	-0.908978	-1.300686	-0.004747	-0.282907	-0.116109	-0.424954	-0.525289	-0.553723	0.486699
65220	-9.561028	-0.916041	-1.266367	-0.014342	-0.313261	-0.129830	-0.424968	-0.525266	-0.553707	0.486731
65221	-9.580005	-0.975123	-1.287745	-0.069729	-0.292421	-0.102112	-0.425005	-0.525204	-0.553752	0.486713
65222	-9.544873	-0.967702	-1.322879	-0.062739	-0.253431	-0.131629	-0.424925	-0.525211	-0.553827	0.486691
65223	-9.598161	-0.956864	-1.327997	-0.046204	-0.259619	-0.079532	-0.424871	-0.525225	-0.553909	0.486630
65224	-9.572440	-0.978917	-1.374134	-0.068115	-0.210832	-0.095227	-0.424862	-0.525219	-0.553989	0.486553
65225	-9.586903	-0.970816	-1.365377	-0.059536	-0.224124	-0.083264	-0.424797	-0.525297	-0.554027	0.486481
65226	-9.582100	-0.943930	-1.345034	-0.034447	-0.245442	-0.093874	-0.424772	-0.525322	-0.554032	0.486471
65227	-9.551764	-0.979899	-1.376301	-0.070693	-0.209957	-0.115186	-0.424695	-0.525360	-0.554076	0.486447
65228	-9.596287	-0.915665	-1.334700	-0.005473	-0.263977	-0.084436	-0.424601	-0.525458	-0.554149	0.486340
65229	-9.576184	-0.957490	-1.340079	-0.048430	-0.256706	-0.099415	-0.424567	-0.525472	-0.554275	0.486211
65230	-9.579909	-0.984123	-1.368011	-0.073098	-0.231687	-0.088718	-0.424466	-0.525543	-0.554357	0.486129
65231	-9.574886	-0.957621	-1.349230	-0.047576	-0.254662	-0.099357	-0.424293	-0.525665	-0.554443	0.486051
65232	-9.569220	-0.914438	-1.358521	-0.002537	-0.249632	-0.107563	-0.424108	-0.525720	-0.554543	0.486038
65233	-9.583850	-0.964039	-1.332441	-0.051350	-0.280701	-0.092938	-0.423975	-0.525792	-0.554714	0.485880
65234	-9.557588	-0.966392	-1.377072	-0.052558	-0.237069	-0.111205	-0.423786	-0.525894	-0.554844	0.485787
65235	-9.589876	-1.001341	-1.419980	-0.080533	-0.204606	-0.069156	-0.423568	-0.525991	-0.555010	0.485683
65236	-9.569102	-0.945979	-1.438171	-0.024523	-0.190085	-0.091876	-0.423289	-0.526151	-0.555067	0.485687
65237	-9.564982	-0.895964	-1.383392	0.022964	-0.250046	-0.109989	-0.423111	-0.526258	-0.555188	0.485589
65238	-9.577041	-0.935924	-1.451004	-0.011631	-0.188933	-0.083081	-0.423017	-0.526294	-0.555367	0.485426
65239	-9.596122	-0.971836	-1.440223	-0.045199	-0.206376	-0.062834	-0.422923	-0.526291	-0.555593	0.485252
65240	-9.574049	-0.980970	-1.503274	-0.051563	-0.144579	-0.073027	-0.422808	-0.526300	-0.555756	0.485157
65241	-9.593142	-0.899350	-1.497677	0.032264	-0.160053	-0.063145	-0.422751	-0.526258	-0.555966	0.485010
65242	-9.610559	-0.942599	-1.549985	-0.006555	-0.112888	-0.033065	-0.422927	-0.526054	-0.556235	0.484770
65243	-9.595865	-0.987956	-1.540000	-0.052671	-0.119908	-0.044826	-0.423135	-0.525775	-0.556523	0.484562
65244	-9.600964	-1.011088	-1.531289	-0.075388	-0.127374	-0.039063	-0.423506	-0.525387	-0.556784	0.484358
65245	-9.603278	-1.002903	-1.464656	-0.071281	-0.190138	-0.048838	-0.424115	-0.524854	-0.557092	0.484048
65246	-9.511683	-0.993931	-1.440802	-0.073326	-0.194652	-0.143527	-0.424786	-0.524253	-0.557508	0.483633
65247	-9.673681	-1.055538	-1.436053	-0.123418	-0.221961	0.020522	-0.425706	-0.523502	-0.557999	0.483070
65248	-9.504871	-0.993723	-1.398912	-0.081543	-0.224598	-0.157123	-0.426369	-0.522963	-0.558144	0.482902
65249	-9.541873	-0.974780	-1.325292	-0.065339	-0.299439	-0.134878	-0.426834	-0.522642	-0.558369	0.482579
65250	-9.586149	-0.972066	-1.325994	-0.060055	-0.304198	-0.091510	-0.427005	-0.522519	-0.558409	0.482514
65251	-9.533723	-1.075664	-1.281963	-0.170940	-0.335481	-0.140532	-0.426909	-0.522690	-0.558234	0.482617
65252	-9.479959	-1.065068	-1.277579	-0.166572	-0.332386	-0.195101	-0.426450	-0.523206	-0.557924	0.482822
65253	-9.509575	-1.186228	-1.257338	-0.286984	-0.357345	-0.158155	-0.425736	-0.524076	-0.557244	0.483293
65254	-9.503202	-1.067281	-1.458709	-0.160308	-0.165324	-0.141869	-0.424334	-0.525469	-0.556242	0.484166
65255	-9.601907	-0.831255	-1.387848	0.081455	-0.265328	-0.079410	-0.422955	-0.526864	-0.555143	0.485118
65256	-9.570000	-1.009181	-1.453461	-0.094819	-0.194912	-0.082893	-0.421942	-0.527940	-0.554445	0.485628
65257	-9.594046	-1.130480	-1.592847	-0.204553	-0.063513	-0.024174	-0.420494	-0.529364	-0.553392	0.486535
65258	-9.572030	-0.977931	-1.478219	-0.058346	-0.184392	-0.079865	-0.418904	-0.530875	-0.552176	0.487640
65259	-9.587367	-0.886488	-1.424110	0.032790	-0.250065	-0.082942	-0.417452	-0.532274	-0.551062	0.488619
65260	-9.577730	-0.894577	-1.396538	0.024173	-0.280293	-0.096497	-0.416200	-0.533457	-0.550144	0.489431
65261	-9.515583	-0.990134	-1.348034	-0.077949	-0.316316	-0.156718	-0.415046	-0.534551	-0.549293	0.490172
65262	-9.510287	-1.004444	-1.339458	-0.091947	-0.328802	-0.162193	-0.413718	-0.535802	-0.548415	0.490911
65263	-9.539785	-0.887134	-1.419741	0.034878	-0.271258	-0.130985	-0.412384	-0.537087	-0.547588	0.491553
65264	-9.590385	-0.820205	-1.456771	0.109245	-0.258760	-0.081732	-0.411272	-0.538159	-0.547014	0.491951
65265	-9.562175	-0.885725	-1.518294	0.047625	-0.200007	-0.092469	-0.410422	-0.538953	-0.546750	0.492085
65266	-9.560047	-0.927443	-1.537477	0.008103	-0.188918	-0.087323	-0.409654	-0.539654	-0.546559	0.492170
65267	-9.559559	-0.902966	-1.513511	0.030624	-0.225871	-0.094701	-0.409042	-0.540188	-0.546572	0.492078
65268	-9.564611	-0.900983	-1.479849	0.030384	-0.270570	-0.096239	-0.408555	-0.540579	-0.546672	0.491942
65269	-9.540200	-0.953991	-1.556125	-0.016426	-0.198877	-0.101498	-0.408071	-0.540954	-0.546857	0.491726
65270	-9.541997	-0.962427	-1.587716	-0.020991	-0.178967	-0.093411	-0.407593	-0.541331	-0.546999	0.491548
65271	-9.510995	-0.976057	-1.590188	-0.035187	-0.181544	-0.122166	-0.406995	-0.541754	-0.547124	0.491440
65272	-9.511057	-0.949704	-1.647323	-0.001300	-0.139092	-0.114417	-0.406370	-0.542192	-0.547221	0.491366
65273	-9.571326	-0.912640	-1.582948	0.036030	-0.227857	-0.071245	-0.405881	-0.542508	-0.547379	0.491245
65274	-9.542564	-0.939304	-1.635743	0.013460	-0.179260	-0.087146	-0.405597	-0.542669	-0.547702	0.490941
65275	-9.517510	-0.993811	-1.710285	-0.033246	-0.107055	-0.092443	-0.405227	-0.542854	-0.547950	0.490767
65276	-9.542428	-0.931008	-1.672224	0.030225	-0.163674	-0.081638	-0.404809	-0.543051	-0.548140	0.490680
65277	-9.555763	-0.965800	-1.676295	-0.000468	-0.167223	-0.064489	-0.404602	-0.543089	-0.548407	0.490511
65278	-9.534931	-1.010382	-1.682097	-0.042726	-0.160424	-0.079359	-0.404359	-0.543109	-0.548654	0.490413
65279	-9.531444	-1.041349	-1.643692	-0.074220	-0.199690	-0.086991	-0.404113	-0.543152	-0.548808	0.490396
65280	-9.538024	-1.017429	-1.680664	-0.043852	-0.171614	-0.076040	-0.403870	-0.543249	-0.548925	0.490359
65281	-9.527736	-0.968777	-1.673460	0.004514	-0.184639	-0.092469	-0.403715	-0.543292	-0.549033	0.490317
65282	-9.543949	-0.977146	-1.637959	-0.004301	-0.225595	-0.082643	-0.403659	-0.543232	-0.549243	0.490194
65283	-9.531442	-0.994763	-1.672179	-0.016975	-0.191839	-0.086587	-0.403656	-0.543057	-0.549576	0.490017
65284	-9.530259	-1.037463	-1.682713	-0.056031	-0.180466	-0.081398	-0.403657	-0.542906	-0.549804	0.489929
65285	-9.489852	-0.988367	-1.612662	-0.015517	-0.247828	-0.139364	-0.403545	-0.542869	-0.550022	0.489817
65286	-9.521017	-1.005830	-1.650512	-0.024773	-0.220029	-0.099983	-0.403578	-0.542715	-0.550362	0.489579
65287	-9.531439	-1.011975	-1.629104	-0.030550	-0.246656	-0.093395	-0.403614	-0.542544	-0.550716	0.489340
65288	-9.528011	-1.039084	-1.670618	-0.051978	-0.208310	-0.086046	-0.403624	-0.542395	-0.551106	0.489058
65289	-9.514060	-1.026723	-1.571342	-0.048093	-0.308114	-0.120249	-0.403629	-0.542222	-0.551454	0.488853
65290	-9.515111	-0.978926	-1.618335	0.005247	-0.271539	-0.115220	-0.403665	-0.542070	-0.551894	0.488495
65291	-9.508047	-1.132463	-1.714492	-0.137449	-0.171178	-0.087632	-0.403748	-0.541868	-0.552380	0.488102
65292	-9.437124	-1.059284	-1.662020	-0.074364	-0.219690	-0.174747	-0.403396	-0.542048	-0.552488	0.488070
65293	-9.489342	-0.874846	-1.596273	0.108874	-0.315777	-0.156111	-0.403246	-0.542049	-0.552882	0.487748
65294	-9.553281	-1.078056	-1.719006	-0.074753	-0.203225	-0.048699	-0.403253	-0.541923	-0.553411	0.487280
65295	-9.459314	-1.153181	-1.717059	-0.156863	-0.188253	-0.132983	-0.403178	-0.541893	-0.553771	0.486967
65296	-9.492288	-1.059461	-1.789397	-0.053204	-0.139331	-0.096429	-0.402840	-0.542096	-0.553966	0.486799
65297	-9.529134	-0.996820	-1.804801	0.014382	-0.145614	-0.064153	-0.402696	-0.542137	-0.554332	0.486456
65298	-9.513192	-1.017877	-1.875469	-0.000650	-0.078602	-0.063426	-0.402586	-0.542157	-0.554558	0.486267
65299	-9.529442	-1.025169	-1.842423	-0.009174	-0.119201	-0.053514	-0.402633	-0.542052	-0.554883	0.485975
65300	-9.511034	-1.082711	-1.817632	-0.069666	-0.139313	-0.070431	-0.402665	-0.541951	-0.555102	0.485810
65301	-9.495321	-1.050154	-1.825491	-0.037612	-0.133697	-0.087613	-0.402652	-0.541923	-0.555274	0.485656
65302	-9.532591	-1.047597	-1.845600	-0.030290	-0.124935	-0.047573	-0.402645	-0.541911	-0.555387	0.485546
65303	-9.489456	-1.050865	-1.764217	-0.044518	-0.196077	-0.105673	-0.402735	-0.541820	-0.555473	0.485474
65304	-9.495272	-1.032281	-1.749614	-0.027416	-0.213901	-0.104936	-0.402805	-0.541755	-0.555643	0.485294
65305	-9.541178	-1.026704	-1.722850	-0.020661	-0.250613	-0.066243	-0.402947	-0.541643	-0.555730	0.485202
65306	-9.487035	-0.991904	-1.791758	0.014246	-0.174828	-0.108702	-0.403097	-0.541522	-0.555889	0.485030
65307	-9.520742	-1.021727	-1.798232	-0.012442	-0.173843	-0.071450	-0.403373	-0.541267	-0.556148	0.484788
65308	-9.506739	-1.178884	-1.854273	-0.165087	-0.105487	-0.057288	-0.403461	-0.541166	-0.556174	0.484797
65309	-9.481415	-0.965875	-1.803177	0.038963	-0.162268	-0.114556	-0.403493	-0.541195	-0.556072	0.484856
65310	-9.535959	-0.985983	-1.862878	0.028076	-0.111295	-0.047247	-0.403751	-0.541022	-0.556089	0.484814
65311	-9.472202	-1.014045	-1.804978	-0.011766	-0.148664	-0.118018	-0.404101	-0.540764	-0.556136	0.484757
65312	-9.510931	-1.009500	-1.818517	-0.003709	-0.139521	-0.077985	-0.404448	-0.540474	-0.556227	0.484687
65313	-9.482699	-1.060331	-1.811763	-0.058474	-0.132087	-0.101483	-0.404759	-0.540251	-0.556195	0.484712
65314	-9.493533	-1.027518	-1.806314	-0.026305	-0.136393	-0.095361	-0.404990	-0.540078	-0.556136	0.484780
65315	-9.535312	-0.978190	-1.778844	0.023288	-0.169523	-0.065173	-0.405274	-0.539873	-0.556073	0.484843
65316	-9.513616	-0.991133	-1.750346	0.005542	-0.185969	-0.090531	-0.405648	-0.539554	-0.556096	0.484858
65317	-9.488071	-1.065648	-1.845172	-0.064201	-0.076402	-0.088810	-0.406067	-0.539244	-0.556084	0.484867
65318	-9.528713	-1.024668	-1.767925	-0.027171	-0.155238	-0.068610	-0.406404	-0.538993	-0.555950	0.485018
65319	-9.524915	-0.979215	-1.766636	0.016128	-0.149678	-0.077124	-0.406950	-0.538587	-0.555944	0.485019
65320	-9.523470	-1.062698	-1.806083	-0.065327	-0.096555	-0.062090	-0.407435	-0.538220	-0.555858	0.485117
65321	-9.524740	-0.987472	-1.734267	0.002297	-0.160938	-0.082449	-0.407902	-0.537897	-0.555668	0.485299
65322	-9.532282	-0.962811	-1.787713	0.030257	-0.100713	-0.067111	-0.408415	-0.537510	-0.555551	0.485431
65323	-9.553197	-0.999795	-1.792356	-0.006030	-0.085324	-0.041895	-0.409010	-0.537077	-0.555343	0.485647
65324	-9.570874	-1.004898	-1.851766	-0.006271	-0.015102	-0.012677	-0.409702	-0.536545	-0.555116	0.485911
65325	-9.572009	-1.027169	-1.871982	-0.028179	0.023416	-0.005476	-0.410359	-0.536055	-0.554738	0.486329
65326	-9.597917	-0.917043	-1.809519	0.077639	-0.028405	-0.003077	-0.411160	-0.535436	-0.554322	0.486809
65327	-9.554426	-0.964019	-1.856986	0.029465	0.053508	-0.032043	-0.412187	-0.534603	-0.553969	0.487258
65328	-9.573303	-0.937148	-1.848558	0.056332	0.068040	-0.018012	-0.413294	-0.533660	-0.553524	0.487859
65329	-9.580706	-0.950652	-1.790622	0.039198	0.042332	-0.020007	-0.414537	-0.532580	-0.553063	0.488507
65330	-9.646067	-0.940182	-1.748595	0.052439	0.023191	0.035396	-0.415898	-0.531347	-0.552596	0.489221
65331	-9.592256	-0.992755	-1.648809	-0.010414	-0.023854	-0.029298	-0.417369	-0.529973	-0.552077	0.490044
65332	-9.546786	-0.998553	-1.573218	-0.024101	-0.048934	-0.085914	-0.418785	-0.528678	-0.551400	0.490995
65333	-9.584225	-0.876513	-1.345177	0.087556	-0.244068	-0.098380	-0.420227	-0.527272	-0.550815	0.491931
65334	-9.605176	-1.047764	-1.295912	-0.080850	-0.245347	-0.067446	-0.421805	-0.525718	-0.550354	0.492760
65335	-9.495391	-1.012923	-1.170832	-0.059693	-0.310444	-0.197115	-0.423083	-0.524347	-0.549692	0.493862
65336	-9.489606	-0.876950	-0.925742	0.065113	-0.518641	-0.252074	-0.424205	-0.523099	-0.549142	0.494834
65337	-9.503353	-0.921945	-0.841072	0.022486	-0.567697	-0.244603	-0.425412	-0.521736	-0.548930	0.495471
65338	-9.514843	-1.056879	-0.843132	-0.104798	-0.532658	-0.217619	-0.426353	-0.520616	-0.548782	0.496004
65339	-9.550674	-1.070737	-0.819760	-0.111800	-0.536941	-0.182889	-0.427145	-0.519719	-0.548613	0.496449
65340	-9.528359	-1.022337	-0.735478	-0.067970	-0.600485	-0.220477	-0.427832	-0.519011	-0.548536	0.496684
65341	-9.489491	-1.074522	-0.782802	-0.118983	-0.532530	-0.246075	-0.428483	-0.518338	-0.548666	0.496682
65342	-9.543079	-1.071393	-0.843253	-0.107104	-0.472682	-0.184893	-0.428985	-0.517889	-0.548838	0.496527
65343	-9.590891	-1.031829	-0.977965	-0.056689	-0.344124	-0.123279	-0.429381	-0.517550	-0.549058	0.496296
65344	-9.614646	-0.982888	-1.056570	-0.002232	-0.270231	-0.094107	-0.429624	-0.517323	-0.549253	0.496105
65345	-9.634083	-0.980107	-1.065050	0.002223	-0.265071	-0.074092	-0.429854	-0.517133	-0.549477	0.495858
65346	-9.594389	-1.009192	-1.122858	-0.029365	-0.202354	-0.102396	-0.430082	-0.516982	-0.549694	0.495576
65347	-9.613924	-1.022536	-1.104931	-0.043004	-0.224339	-0.084285	-0.430208	-0.516906	-0.549884	0.495335
65348	-9.613378	-1.004329	-1.136895	-0.025061	-0.195565	-0.082355	-0.430398	-0.516791	-0.550084	0.495068
65349	-9.607832	-1.003267	-1.186100	-0.023436	-0.148200	-0.081228	-0.430532	-0.516717	-0.550246	0.494849
65350	-9.622111	-0.976521	-1.205491	0.003231	-0.133990	-0.067234	-0.430677	-0.516669	-0.550393	0.494608
65351	-9.636763	-0.966357	-1.196108	0.012359	-0.146972	-0.055128	-0.430864	-0.516566	-0.550527	0.494405
65352	-9.656538	-0.979299	-1.176723	-0.001217	-0.169042	-0.037011	-0.431082	-0.516425	-0.550675	0.494197
65353	-9.607990	-0.990784	-1.162613	-0.020121	-0.175638	-0.085636	-0.431330	-0.516291	-0.550776	0.494008
65354	-9.598792	-0.934901	-1.116749	0.030614	-0.220758	-0.106591	-0.431529	-0.516179	-0.550857	0.493860
65355	-9.603890	-0.975898	-1.113258	-0.011853	-0.223645	-0.097943	-0.431798	-0.516020	-0.551026	0.493603
65356	-9.613300	-0.945798	-1.144695	0.017838	-0.195690	-0.087371	-0.432018	-0.515916	-0.551176	0.493352
65357	-9.598854	-0.927531	-1.122347	0.031627	-0.217439	-0.106519	-0.432206	-0.515807	-0.551353	0.493103
65358	-9.612707	-0.985275	-1.191435	-0.023628	-0.151270	-0.077649	-0.432345	-0.515768	-0.551494	0.492864
65359	-9.631974	-0.961367	-1.197262	0.000420	-0.150528	-0.060255	-0.432414	-0.515767	-0.551563	0.492728
65360	-9.646151	-0.935230	-1.216142	0.027067	-0.135971	-0.046283	-0.432474	-0.515755	-0.551632	0.492611
65361	-9.650702	-0.960630	-1.241492	0.002288	-0.111540	-0.035791	-0.432575	-0.515712	-0.551673	0.492521
65362	-9.592018	-0.947137	-1.249382	0.009342	-0.095457	-0.093859	-0.432684	-0.515653	-0.551694	0.492464
65363	-9.636069	-0.966187	-1.254326	-0.005986	-0.095262	-0.047874	-0.432809	-0.515557	-0.551726	0.492418
65364	-9.640960	-0.951368	-1.268026	0.009322	-0.080275	-0.042602	-0.432981	-0.515420	-0.551700	0.492439
65365	-9.636372	-0.927142	-1.274215	0.032575	-0.069880	-0.048624	-0.433164	-0.515289	-0.551582	0.492549
65366	-9.632406	-0.939897	-1.254970	0.017831	-0.081936	-0.053868	-0.433434	-0.515087	-0.551463	0.492655
65367	-9.628963	-0.969413	-1.206270	-0.014325	-0.121961	-0.060934	-0.433733	-0.514834	-0.551351	0.492781
65368	-9.644397	-0.964042	-1.219283	-0.007317	-0.102489	-0.044378	-0.434051	-0.514571	-0.551144	0.493008
65369	-9.621738	-0.954376	-1.151953	-0.002983	-0.155907	-0.076603	-0.434444	-0.514248	-0.550952	0.493212
65370	-9.598738	-0.947961	-1.117062	-0.001243	-0.176999	-0.104398	-0.434873	-0.513923	-0.550781	0.493365
65371	-9.634301	-0.933120	-1.070922	0.013914	-0.218151	-0.076695	-0.435319	-0.513572	-0.550677	0.493453
65372	-9.650209	-0.963631	-1.059300	-0.016631	-0.221597	-0.059337	-0.435763	-0.513230	-0.550550	0.493559
65373	-9.587787	-0.943226	-1.039753	-0.004212	-0.223877	-0.125259	-0.436127	-0.512953	-0.550403	0.493689
65374	-9.642248	-0.910148	-1.030313	0.032084	-0.233432	-0.075781	-0.436430	-0.512750	-0.550278	0.493771
65375	-9.613928	-0.961461	-1.025611	-0.023273	-0.226402	-0.099187	-0.436769	-0.512499	-0.550205	0.493814
65376	-9.644076	-0.984495	-1.005041	-0.045159	-0.244028	-0.069693	-0.436975	-0.512372	-0.550063	0.493922
65377	-9.620143	-0.937610	-0.966359	-0.003409	-0.274989	-0.102668	-0.437106	-0.512332	-0.549873	0.494058
65378	-9.605901	-0.943886	-0.976194	-0.011731	-0.259434	-0.114761	-0.437219	-0.512299	-0.549778	0.494098
65379	-9.606258	-0.962192	-0.979864	-0.031121	-0.253416	-0.112123	-0.437279	-0.512322	-0.549696	0.494113
65380	-9.620776	-0.938802	-1.028821	-0.006634	-0.206516	-0.093816	-0.437323	-0.512392	-0.549622	0.494083
65381	-9.635498	-0.928386	-1.018079	0.002549	-0.219531	-0.081654	-0.437355	-0.512479	-0.549574	0.494019
65382	-9.610965	-0.904261	-1.022449	0.022126	-0.213513	-0.107655	-0.437393	-0.512566	-0.549546	0.493926
65383	-9.601210	-0.912633	-1.024076	0.010764	-0.212078	-0.116309	-0.437414	-0.512649	-0.549574	0.493790
65384	-9.635296	-0.944416	-1.063759	-0.018791	-0.178718	-0.074610	-0.437456	-0.512737	-0.549617	0.493614
65385	-9.610964	-0.933262	-1.009213	-0.014235	-0.232620	-0.106720	-0.437489	-0.512819	-0.549665	0.493445
65386	-9.644993	-0.964683	-1.049793	-0.043743	-0.199490	-0.065029	-0.437474	-0.512974	-0.549715	0.493242
