// General information: 
//  MT Manager version: 2021.0.0 
//  XDA version: 2021.0.0 build 5908 rev 109668 built on 2021-04-19
// Device information: 
//  DeviceId: 00B43DF6
//  ProductCode: MTW2-3A7G6
//  Firmware Version: 4.3.5
//  Hardware Version: 1.1.0
// Device settings: 
//  Filter Profile: human(46.1)
//  Option Flags: Orientation Smoother Disabled, Position/Velocity Smoother Disabled, Continuous Zero Rotation Update Disabled, AHS Disabled, ICC Disabled
// Coordinate system: ENU
PacketCounter	Acc_X	Acc_Y	Acc_Z	FreeAcc_E	FreeAcc_N	FreeAcc_U	Quat_q0	Quat_q1	Quat_q2	Quat_q3
64468	-8.802055	1.666889	3.334158	0.165885	0.389073	-0.263217	0.211585	0.555241	0.021194	-0.804046
64469	-8.845443	1.752069	3.434917	0.112070	0.277647	-0.167971	0.210912	0.555847	0.022066	-0.803781
64470	-8.860921	1.815968	3.526229	0.048918	0.174889	-0.106251	0.210312	0.556532	0.023211	-0.803431
64471	-8.908265	1.860318	3.585778	0.016346	0.104550	-0.031865	0.209824	0.557177	0.024626	-0.803070
64472	-8.907275	1.860389	3.627245	-0.028458	0.062418	-0.017142	0.209448	0.557784	0.026171	-0.802698
64473	-8.947325	1.839042	3.665453	-0.064921	0.052985	0.029322	0.209170	0.558304	0.027769	-0.802355
64474	-8.968499	1.810628	3.711422	-0.114859	0.042530	0.060100	0.208897	0.558778	0.029331	-0.802041
64475	-8.972907	1.805780	3.737294	-0.142046	0.011111	0.072701	0.208575	0.559193	0.030880	-0.801777
64476	-8.942863	1.816149	3.716899	-0.131264	-0.031708	0.039735	0.208187	0.559584	0.032378	-0.801545
64477	-8.964842	1.819560	3.770430	-0.173660	-0.072690	0.079725	0.207774	0.559962	0.033812	-0.801330
64478	-8.952231	1.840461	3.809510	-0.206795	-0.135653	0.085841	0.207313	0.560366	0.035211	-0.801106
64479	-8.938133	1.829390	3.843543	-0.247450	-0.168089	0.082774	0.206816	0.560742	0.036543	-0.800912
64480	-8.918990	1.837359	3.851374	-0.258876	-0.210626	0.068907	0.206198	0.561089	0.037685	-0.800775
64481	-8.937775	1.892647	3.852673	-0.235775	-0.281644	0.095595	0.205511	0.561357	0.038665	-0.800718
64482	-8.983717	1.918080	3.837945	-0.200207	-0.310255	0.136164	0.204807	0.561528	0.039438	-0.800740
64483	-8.998201	1.944702	3.805942	-0.155916	-0.340147	0.141942	0.204164	0.561577	0.040029	-0.800841
64484	-8.961493	1.950652	3.777288	-0.134532	-0.362370	0.098512	0.203573	0.561510	0.040444	-0.801017
64485	-8.983623	1.959735	3.724908	-0.073169	-0.360833	0.101213	0.203036	0.561388	0.040733	-0.801225
64486	-9.043217	1.918556	3.695200	-0.039669	-0.306655	0.138168	0.202596	0.561274	0.040928	-0.801406
64487	-9.038544	1.913845	3.683246	-0.027515	-0.306881	0.128612	0.202185	0.561166	0.041050	-0.801579
64488	-8.984446	1.886212	3.638500	-0.009607	-0.288847	0.058140	0.201786	0.561113	0.041067	-0.801716
64489	-8.974547	1.904859	3.631419	0.003063	-0.309752	0.049474	0.201360	0.561042	0.040908	-0.801880
64490	-8.945604	1.917605	3.599311	0.030908	-0.321077	0.013402	0.200962	0.560904	0.040657	-0.802090
64491	-8.959412	1.959848	3.619864	0.035419	-0.361378	0.040416	0.200697	0.560741	0.040469	-0.802280
64492	-8.987914	1.941334	3.558034	0.095720	-0.318410	0.041268	0.200586	0.560583	0.040404	-0.802421
64493	-9.016883	1.942537	3.580203	0.088087	-0.317189	0.076049	0.200565	0.560456	0.040380	-0.802516
64494	-8.985179	1.925174	3.543266	0.108362	-0.297965	0.030785	0.200663	0.560330	0.040332	-0.802582
64495	-9.017688	1.892717	3.507477	0.139441	-0.244884	0.042467	0.200820	0.560240	0.040085	-0.802618
64496	-9.025269	1.860038	3.465167	0.168089	-0.192949	0.028913	0.200950	0.560126	0.039586	-0.802690
64497	-8.979439	1.861629	3.499425	0.124483	-0.205766	-0.000241	0.201157	0.560073	0.038973	-0.802705
64498	-8.972419	1.811669	3.521233	0.081707	-0.155361	-0.006837	0.201491	0.560161	0.038352	-0.802589
64499	-8.999826	1.728671	3.536372	0.040297	-0.062424	0.010019	0.201846	0.560305	0.037696	-0.802431
64500	-9.011992	1.688339	3.549334	0.011040	-0.010996	0.019098	0.202169	0.560424	0.036895	-0.802304
64501	-8.970376	1.659717	3.523919	0.006104	0.028042	-0.033145	0.202473	0.560414	0.035888	-0.802280
64502	-8.996051	1.560582	3.427049	0.061243	0.173350	-0.062037	0.202665	0.560298	0.034695	-0.802365
64503	-8.889132	1.565741	3.390719	0.063542	0.168575	-0.172527	0.202749	0.560164	0.033523	-0.802487
64504	-8.822038	1.633089	3.428444	0.032576	0.093549	-0.208536	0.202862	0.560171	0.032748	-0.802486
64505	-8.820470	1.646881	3.490778	-0.023764	0.072285	-0.184986	0.203149	0.560419	0.032582	-0.802246
64506	-8.899555	1.547867	3.529755	-0.078413	0.177457	-0.116323	0.203498	0.560709	0.032755	-0.801948
64507	-8.955437	1.439699	3.497236	-0.078185	0.302689	-0.096438	0.203611	0.560894	0.032636	-0.801795
64508	-8.979066	1.431237	3.450329	-0.035524	0.334952	-0.093460	0.203313	0.560877	0.031958	-0.801910
64509	-8.913150	1.569299	3.404557	0.035185	0.210000	-0.145599	0.202730	0.560825	0.030970	-0.802133
64510	-8.839195	1.661384	3.353308	0.091266	0.125399	-0.215178	0.202207	0.560890	0.030203	-0.802248
64511	-8.895077	1.685271	3.329642	0.132890	0.128404	-0.168264	0.201878	0.561129	0.029958	-0.802174
64512	-9.002877	1.651247	3.416899	0.067254	0.163037	-0.044244	0.201716	0.561517	0.030254	-0.801931
64513	-9.130658	1.601870	3.475215	0.025721	0.219255	0.084952	0.201661	0.561997	0.030881	-0.801585
64514	-9.153586	1.588462	3.535741	-0.035139	0.208919	0.125517	0.201522	0.562439	0.031494	-0.801286
64515	-9.094037	1.600337	3.588648	-0.102338	0.153744	0.092203	0.201309	0.562832	0.032030	-0.801043
64516	-9.050208	1.684423	3.600700	-0.101081	0.049047	0.071439	0.201034	0.563079	0.032440	-0.800922
64517	-9.011051	1.666284	3.595875	-0.116098	0.046770	0.030594	0.200772	0.563186	0.032718	-0.800901
64518	-9.011847	1.624374	3.522530	-0.065385	0.098425	-0.002171	0.200451	0.563269	0.032874	-0.800916
64519	-8.994735	1.593318	3.475298	-0.038757	0.128482	-0.040093	0.200003	0.563340	0.032971	-0.800974
64520	-8.957833	1.622977	3.462707	-0.028076	0.085732	-0.073128	0.199523	0.563515	0.033246	-0.800959
64521	-8.966898	1.695799	3.517564	-0.051028	-0.006603	-0.032525	0.199115	0.563755	0.033897	-0.800865
64522	-8.935443	1.750919	3.538336	-0.061386	-0.090497	-0.044593	0.198885	0.564058	0.035036	-0.800660
64523	-8.992316	1.759446	3.626321	-0.123164	-0.130118	0.040000	0.198809	0.564351	0.036492	-0.800407
64524	-9.038283	1.686645	3.673284	-0.178553	-0.088247	0.086233	0.198720	0.564568	0.037897	-0.800211
64525	-9.053908	1.713972	3.736802	-0.220122	-0.149943	0.127315	0.198478	0.564675	0.039057	-0.800140
64526	-9.089947	1.795966	3.754485	-0.193741	-0.240453	0.179981	0.198111	0.564683	0.039909	-0.800183
64527	-9.085033	1.834497	3.751576	-0.173464	-0.291870	0.180422	0.197800	0.564538	0.040543	-0.800330
64528	-9.076891	1.856661	3.667438	-0.085410	-0.301459	0.146683	0.197531	0.564301	0.040936	-0.800543
64529	-9.099320	1.832779	3.594593	-0.014069	-0.258565	0.137727	0.197298	0.563971	0.041055	-0.800827
64530	-9.105449	1.771584	3.538216	0.025014	-0.186054	0.113613	0.197049	0.563642	0.040958	-0.801126
64531	-9.110292	1.779898	3.478223	0.090384	-0.174695	0.098155	0.196855	0.563359	0.040801	-0.801380
64532	-9.038434	1.799253	3.468673	0.091486	-0.208721	0.031618	0.196820	0.563151	0.040885	-0.801530
64533	-9.031063	1.784980	3.504585	0.056836	-0.209583	0.035217	0.197033	0.563024	0.041275	-0.801548
64534	-8.951845	1.757520	3.519777	0.014602	-0.213887	-0.036835	0.197429	0.562931	0.041899	-0.801483
64535	-8.904064	1.663537	3.556845	-0.062474	-0.155770	-0.082698	0.197876	0.562862	0.042568	-0.801386
64536	-8.917208	1.586963	3.586743	-0.109858	-0.094442	-0.072113	0.198187	0.562746	0.043003	-0.801367
64537	-8.927101	1.563064	3.596217	-0.120434	-0.073691	-0.063372	0.198272	0.562569	0.043069	-0.801467
64538	-8.975046	1.585261	3.566658	-0.067589	-0.070752	-0.026167	0.198186	0.562293	0.042858	-0.801693
64539	-8.986298	1.611304	3.538850	-0.023796	-0.079821	-0.021550	0.198097	0.561968	0.042613	-0.801956
64540	-9.005558	1.582749	3.513569	0.000765	-0.037564	-0.017335	0.198021	0.561682	0.042458	-0.802183
64541	-8.998085	1.581076	3.407150	0.098671	-0.005806	-0.062598	0.197969	0.561449	0.042402	-0.802363
64542	-8.992278	1.600005	3.416278	0.100263	-0.026545	-0.061724	0.197971	0.561289	0.042427	-0.802473
64543	-8.973026	1.594486	3.457764	0.059090	-0.038258	-0.065444	0.198009	0.561181	0.042494	-0.802535
64544	-9.034951	1.543890	3.454444	0.063544	0.026057	-0.017668	0.198071	0.561131	0.042519	-0.802553
64545	-8.996363	1.514826	3.449966	0.047849	0.044519	-0.059368	0.198083	0.561020	0.042490	-0.802629
64546	-8.964316	1.585318	3.527342	-0.002130	-0.049858	-0.049909	0.198149	0.560872	0.042516	-0.802715
64547	-8.881551	1.528777	3.505158	-0.023527	-0.012993	-0.142914	0.198371	0.560763	0.042663	-0.802729
64548	-8.982304	1.355787	3.462061	-0.015941	0.186326	-0.093076	0.198487	0.560659	0.042707	-0.802770
64549	-9.032151	1.311255	3.433641	0.010588	0.250418	-0.064549	0.198260	0.560507	0.042450	-0.802946
64550	-8.993173	1.448518	3.430481	0.055202	0.116062	-0.079905	0.197788	0.560348	0.042106	-0.803192
64551	-8.965198	1.560850	3.401393	0.116819	0.013151	-0.098436	0.197424	0.560239	0.041958	-0.803365
64552	-8.942576	1.569339	3.381626	0.133377	0.002015	-0.125062	0.197279	0.560214	0.042148	-0.803408
64553	-8.930087	1.539801	3.413620	0.091611	0.010982	-0.129623	0.197280	0.560285	0.042609	-0.803334
64554	-8.956891	1.539449	3.481330	0.038026	-0.009224	-0.080580	0.197358	0.560444	0.043243	-0.803171
64555	-9.000227	1.513805	3.568902	-0.038215	-0.008546	-0.013136	0.197496	0.560585	0.043908	-0.803002
64556	-9.046403	1.450879	3.600471	-0.075940	0.044062	0.030998	0.197553	0.560620	0.044418	-0.802935
64557	-9.024844	1.455392	3.546505	-0.030786	0.043574	-0.007544	0.197434	0.560540	0.044632	-0.803008
64558	-8.987800	1.504577	3.524387	-0.002060	-0.009053	-0.042041	0.197151	0.560530	0.044652	-0.803084
64559	-9.013773	1.587128	3.512912	0.046060	-0.079033	-0.009664	0.196842	0.560566	0.044736	-0.803130
64560	-9.045377	1.583661	3.530501	0.038671	-0.077849	0.025184	0.196609	0.560619	0.044931	-0.803139
64561	-9.021215	1.626533	3.532050	0.045328	-0.130237	0.009954	0.196463	0.560712	0.045204	-0.803094
64562	-9.032213	1.585832	3.582719	-0.011934	-0.110243	0.032073	0.196346	0.560808	0.045449	-0.803042
64563	-9.047969	1.609711	3.611465	-0.025293	-0.140620	0.060467	0.196224	0.560870	0.045538	-0.803024
64564	-9.025785	1.621997	3.622366	-0.037315	-0.162433	0.045782	0.196156	0.560871	0.045498	-0.803042
64565	-9.052754	1.591108	3.604561	-0.023784	-0.120061	0.059590	0.196099	0.560767	0.045265	-0.803142
64566	-8.990927	1.594328	3.600697	-0.034500	-0.133279	0.001828	0.196070	0.560580	0.044907	-0.803299
64567	-8.951057	1.500836	3.535943	-0.019542	-0.032386	-0.072288	0.196095	0.560465	0.044491	-0.803397
64568	-8.975326	1.460119	3.533404	-0.024189	0.019916	-0.057054	0.196020	0.560406	0.043951	-0.803486
64569	-9.002729	1.385809	3.538915	-0.047515	0.102828	-0.041266	0.195817	0.560338	0.043235	-0.803622
64570	-9.066842	1.322336	3.466694	0.013557	0.209153	-0.018289	0.195419	0.560219	0.042263	-0.803853
64571	-9.054931	1.367597	3.416899	0.072853	0.189047	-0.040470	0.194844	0.560028	0.041260	-0.804178
64572	-8.955064	1.421252	3.293686	0.175452	0.155265	-0.168694	0.194324	0.559895	0.040533	-0.804433
64573	-8.923830	1.489569	3.270895	0.211229	0.092823	-0.195044	0.193925	0.559974	0.040267	-0.804488
64574	-8.928122	1.524514	3.369009	0.134222	0.030257	-0.150038	0.193773	0.560254	0.040626	-0.804312
64575	-9.005105	1.533684	3.477682	0.057447	0.001620	-0.038484	0.193828	0.560624	0.041386	-0.804002
64576	-9.060556	1.487208	3.601198	-0.058799	0.012390	0.049891	0.194000	0.560955	0.042193	-0.803687
64577	-9.107898	1.425921	3.662509	-0.125021	0.054309	0.106105	0.194037	0.561095	0.042660	-0.803556
64578	-9.069281	1.440508	3.600361	-0.075471	0.042863	0.050476	0.193886	0.561024	0.042735	-0.803638
64579	-9.054275	1.480379	3.599816	-0.062285	0.001337	0.042575	0.193617	0.560881	0.042552	-0.803812
64580	-9.039436	1.452708	3.570503	-0.046953	0.031563	0.014166	0.193334	0.560785	0.042378	-0.803956
64581	-9.046591	1.462959	3.537344	-0.010267	0.032342	0.010383	0.192981	0.560808	0.042243	-0.804032
64582	-9.038895	1.500437	3.546040	-0.008092	-0.009107	0.012138	0.192648	0.560935	0.042168	-0.804028
64583	-9.047776	1.513368	3.574062	-0.028502	-0.029705	0.032350	0.192367	0.561100	0.042147	-0.803981
64584	-9.050759	1.530228	3.622106	-0.066454	-0.061041	0.054903	0.192038	0.561171	0.042102	-0.804012
64585	-9.037361	1.501108	3.589668	-0.051130	-0.030794	0.026488	0.191778	0.561133	0.042012	-0.804106
64586	-9.008583	1.515689	3.589557	-0.052124	-0.052713	0.002164	0.191517	0.561031	0.041911	-0.804244
64587	-8.961455	1.521780	3.563415	-0.038290	-0.065015	-0.049710	0.191312	0.561003	0.041936	-0.804311
64588	-9.010046	1.442508	3.559542	-0.047949	0.018875	-0.018329	0.191040	0.561099	0.041970	-0.804307
64589	-8.954404	1.543588	3.648425	-0.110286	-0.118023	-0.022441	0.190747	0.561246	0.042062	-0.804269
64590	-9.006252	1.564527	3.676661	-0.114336	-0.136420	0.038529	0.190566	0.561297	0.042181	-0.804270
64591	-9.028376	1.535002	3.710703	-0.146882	-0.115522	0.066696	0.190477	0.561180	0.042255	-0.804369
64592	-9.104887	1.387323	3.669784	-0.134205	0.052077	0.100446	0.190356	0.560927	0.042159	-0.804579
64593	-9.111413	1.348563	3.664173	-0.134305	0.093328	0.098714	0.190004	0.560661	0.041819	-0.804865
64594	-9.104824	1.363514	3.577033	-0.047082	0.104587	0.063496	0.189449	0.560422	0.041307	-0.805189
64595	-9.089501	1.418391	3.500721	0.041308	0.074503	0.030007	0.188760	0.560177	0.040589	-0.805558
64596	-9.053960	1.519014	3.441614	0.124348	-0.007834	-0.009077	0.188119	0.559885	0.039982	-0.805941
64597	-8.919004	1.572744	3.384331	0.160373	-0.074921	-0.146017	0.187700	0.559631	0.039713	-0.806229
64598	-8.883997	1.658802	3.433722	0.139709	-0.179404	-0.147504	0.187604	0.559548	0.040019	-0.806293
64599	-8.982684	1.604909	3.560144	0.039435	-0.145854	-0.019009	0.187950	0.559642	0.040915	-0.806103
64600	-9.092584	1.457314	3.663978	-0.070295	-0.019740	0.097824	0.188423	0.559670	0.041944	-0.805920
64601	-9.102950	1.344666	3.688431	-0.125459	0.071976	0.099700	0.188748	0.559572	0.042566	-0.805879
64602	-9.096843	1.343383	3.677568	-0.113420	0.071800	0.090025	0.188779	0.559316	0.042615	-0.806047
64603	-9.052977	1.414983	3.633571	-0.055681	0.009195	0.044200	0.188615	0.558953	0.042262	-0.806356
64604	-8.991086	1.496963	3.584253	0.006512	-0.064389	-0.018649	0.188593	0.558534	0.042081	-0.806661
64605	-8.978458	1.449677	3.554732	0.021139	-0.013463	-0.047967	0.188834	0.558218	0.042323	-0.806810
64606	-9.003122	1.327275	3.494467	0.047060	0.121279	-0.065265	0.189204	0.557955	0.042845	-0.806878
64607	-9.011156	1.214487	3.458408	0.048874	0.234338	-0.087504	0.189394	0.557722	0.043276	-0.806972
64608	-9.005013	1.213955	3.480295	0.032357	0.223447	-0.085127	0.189338	0.557589	0.043526	-0.807064
64609	-9.022419	1.337141	3.545988	0.024917	0.090732	-0.027128	0.189152	0.557547	0.043789	-0.807122
64610	-8.970756	1.411238	3.567078	0.019057	-0.004149	-0.056166	0.189110	0.557478	0.044313	-0.807150
64611	-8.970369	1.318852	3.552304	0.003934	0.077460	-0.075145	0.189168	0.557361	0.044871	-0.807187
64612	-8.994170	1.227338	3.479131	0.048558	0.181570	-0.093094	0.189070	0.557246	0.045228	-0.807269
64613	-8.966247	1.237358	3.478673	0.047428	0.159644	-0.117427	0.188702	0.557195	0.045326	-0.807385
64614	-8.959055	1.337655	3.485642	0.076141	0.057068	-0.107295	0.188293	0.557191	0.045454	-0.807476
64615	-8.949560	1.405952	3.519160	0.068611	-0.025706	-0.094125	0.188032	0.557234	0.045851	-0.807485
64616	-8.959730	1.406701	3.482859	0.105277	-0.024949	-0.098051	0.187974	0.557298	0.046624	-0.807410
64617	-8.988596	1.347623	3.507319	0.072148	0.016574	-0.070678	0.187940	0.557434	0.047488	-0.807274
64618	-9.059835	1.350993	3.572891	0.035395	-0.001620	0.019406	0.187808	0.557643	0.048258	-0.807115
64619	-9.120397	1.429354	3.640753	0.018595	-0.091757	0.110568	0.187598	0.557839	0.048834	-0.806993
64620	-9.085493	1.459031	3.627349	0.029067	-0.134467	0.077393	0.187470	0.557927	0.049238	-0.806937
64621	-9.047587	1.477885	3.662853	-0.007103	-0.177969	0.057862	0.187392	0.557941	0.049510	-0.806929
64622	-8.963112	1.452746	3.596219	0.017956	-0.161041	-0.047730	0.187352	0.557993	0.049691	-0.806891
64623	-8.931564	1.417871	3.568262	0.019411	-0.131832	-0.091683	0.187303	0.558140	0.049813	-0.806794
64624	-8.957757	1.423211	3.635773	-0.033804	-0.152191	-0.042248	0.187302	0.558294	0.049932	-0.806680
64625	-8.982166	1.408735	3.619517	-0.019692	-0.130528	-0.027632	0.187313	0.558394	0.050041	-0.806602
64626	-9.000288	1.398566	3.624148	-0.023045	-0.119686	-0.010608	0.187358	0.558415	0.050151	-0.806569
64627	-8.975112	1.376688	3.564298	0.013994	-0.089615	-0.058514	0.187459	0.558472	0.050239	-0.806502
64628	-8.963106	1.368835	3.581748	-0.009675	-0.090701	-0.064274	0.187560	0.558567	0.050310	-0.806408
64629	-8.962916	1.354667	3.591669	-0.026814	-0.080886	-0.062723	0.187667	0.558743	0.050367	-0.806257
64630	-9.038442	1.316021	3.628283	-0.054353	-0.037068	0.015102	0.187760	0.558901	0.050371	-0.806125
64631	-9.028279	1.325157	3.630715	-0.059905	-0.048014	0.007804	0.187789	0.559016	0.050285	-0.806045
64632	-9.000376	1.343219	3.594536	-0.032568	-0.059198	-0.028664	0.187840	0.559091	0.050101	-0.805992
64633	-8.995758	1.300768	3.601256	-0.057495	-0.018824	-0.036132	0.187851	0.559175	0.049778	-0.805951
64634	-9.100886	1.279040	3.581542	-0.018113	0.037712	0.050769	0.187807	0.559173	0.049419	-0.805985
64635	-9.091139	1.253003	3.530816	0.014488	0.078765	0.019864	0.187650	0.559149	0.049021	-0.806062
64636	-9.058553	1.358077	3.499458	0.068998	-0.014185	-0.007433	0.187479	0.559156	0.048730	-0.806115
64637	-8.995477	1.446844	3.493036	0.085029	-0.109190	-0.055940	0.187392	0.559285	0.048669	-0.806050
64638	-8.971759	1.499880	3.558450	0.034800	-0.183033	-0.046933	0.187522	0.559449	0.048740	-0.805901
64639	-8.993226	1.459084	3.601555	-0.015830	-0.152290	-0.017036	0.187765	0.559644	0.048862	-0.805702
64640	-9.035489	1.388879	3.613773	-0.042966	-0.079274	0.016874	0.188010	0.559774	0.048859	-0.805554
64641	-9.082884	1.384759	3.638076	-0.054495	-0.067205	0.068833	0.188169	0.559778	0.048675	-0.805526
64642	-9.070488	1.397573	3.644605	-0.060056	-0.078158	0.061541	0.188327	0.559708	0.048363	-0.805556
64643	-9.067881	1.333469	3.551460	-0.000238	0.015063	0.016719	0.188444	0.559624	0.047867	-0.805617
64644	-9.041125	1.334643	3.448693	0.083268	0.046062	-0.045004	0.188400	0.559572	0.047189	-0.805703
64645	-9.038158	1.396149	3.460005	0.092747	-0.005201	-0.035135	0.188327	0.559557	0.046571	-0.805767
64646	-9.007640	1.473822	3.501329	0.071546	-0.089043	-0.037413	0.188437	0.559638	0.046264	-0.805703
64647	-9.043457	1.410784	3.534887	0.026879	-0.026741	-0.001041	0.188717	0.559767	0.046253	-0.805548
64648	-9.097205	1.341284	3.640022	-0.079051	0.025030	0.076754	0.188982	0.559903	0.046175	-0.805396
64649	-9.144386	1.337626	3.631337	-0.062085	0.047837	0.116537	0.189050	0.559949	0.045784	-0.805370
64650	-9.122872	1.391049	3.616184	-0.037975	0.006277	0.098776	0.189016	0.559880	0.045065	-0.805467
64651	-9.099611	1.376565	3.541818	0.016439	0.047208	0.048337	0.188958	0.559745	0.044169	-0.805624
64652	-9.042926	1.331246	3.477364	0.042691	0.106696	-0.033855	0.188889	0.559563	0.043284	-0.805814
64653	-8.928384	1.365565	3.387432	0.101416	0.082111	-0.167043	0.188909	0.559494	0.042696	-0.805889
64654	-8.933342	1.305601	3.436881	0.036404	0.132467	-0.153367	0.189045	0.559597	0.042492	-0.805796
64655	-8.981979	1.304873	3.524424	-0.031958	0.123031	-0.076977	0.189180	0.559832	0.042618	-0.805595
64656	-9.040831	1.334150	3.693195	-0.160277	0.061699	0.042604	0.189325	0.560071	0.042951	-0.805377
64657	-9.116302	1.276435	3.710698	-0.177381	0.126062	0.109921	0.189362	0.560200	0.043087	-0.805271
64658	-9.157879	1.269782	3.690580	-0.149463	0.148770	0.139950	0.189149	0.560077	0.042779	-0.805423
64659	-9.126448	1.348431	3.559244	-0.010331	0.108741	0.075012	0.188752	0.559809	0.042147	-0.805736
64660	-9.027287	1.418951	3.489218	0.052529	0.043943	-0.031313	0.188418	0.559548	0.041548	-0.806026
64661	-8.966712	1.432528	3.406706	0.116235	0.042318	-0.115038	0.188274	0.559475	0.041371	-0.806120
64662	-8.920437	1.442953	3.443849	0.072816	0.008557	-0.142578	0.188299	0.559599	0.041739	-0.806009
64663	-8.936910	1.455283	3.581254	-0.043600	-0.044262	-0.075762	0.188474	0.559853	0.042486	-0.805753
64664	-9.039133	1.469520	3.729254	-0.144816	-0.082825	0.073915	0.188703	0.560129	0.043263	-0.805466
64665	-9.133046	1.468267	3.814720	-0.196374	-0.090092	0.190999	0.188852	0.560201	0.043738	-0.805355
64666	-9.126233	1.520990	3.845038	-0.204331	-0.152225	0.203346	0.188933	0.559932	0.043853	-0.805517
64667	-9.043230	1.561998	3.797058	-0.164094	-0.196227	0.115659	0.189072	0.559516	0.043832	-0.805775
64668	-9.015243	1.554720	3.733576	-0.109129	-0.175947	0.066000	0.189368	0.559108	0.043965	-0.805981
64669	-9.025387	1.496089	3.723870	-0.110001	-0.113965	0.063446	0.189729	0.558820	0.044162	-0.806085
64670	-9.033376	1.476630	3.769265	-0.148926	-0.104061	0.084619	0.190040	0.558562	0.044266	-0.806185
64671	-9.062238	1.632309	3.837877	-0.141311	-0.256424	0.158881	0.190357	0.558243	0.044306	-0.806329
64672	-9.024251	1.794204	3.954216	-0.191878	-0.443538	0.190239	0.190977	0.557816	0.044500	-0.806467
64673	-9.089313	1.923073	4.232498	-0.363973	-0.617899	0.371299	0.192357	0.557275	0.045189	-0.806475
64674	-9.184898	1.792929	4.469742	-0.575744	-0.535227	0.528374	0.194608	0.556458	0.046603	-0.806418
64675	-9.240295	1.335629	4.537252	-0.759274	-0.115415	0.539305	0.197202	0.555254	0.048260	-0.806520
64676	-9.030011	1.105018	4.571457	-0.907245	0.037055	0.328113	0.199454	0.553745	0.049439	-0.806933
64677	-9.126712	1.079891	4.693518	-0.963618	0.061414	0.461539	0.201121	0.552289	0.049907	-0.807488
64678	-9.098066	1.349391	5.105774	-1.203793	-0.302257	0.633558	0.202569	0.550944	0.050415	-0.808013
64679	-9.084896	1.688659	5.607073	-1.488565	-0.758154	0.866051	0.204430	0.549633	0.051469	-0.808371
64680	-8.885944	1.912894	6.121604	-1.873384	-1.172665	0.920826	0.207668	0.547832	0.053622	-0.808628
64681	-9.135412	2.068872	6.532106	-2.028450	-1.378214	1.340329	0.212377	0.545008	0.056703	-0.809102
64682	-9.463178	1.433543	6.319582	-1.898110	-0.642374	1.480114	0.218430	0.540531	0.060135	-0.810246
64683	-9.635662	1.203863	6.590464	-2.040804	-0.449803	1.735489	0.224741	0.534622	0.062556	-0.812254
64684	-9.391932	1.304265	7.107828	-2.358035	-0.738359	1.777072	0.231183	0.527818	0.064518	-0.814740
64685	-9.441287	1.240044	7.625492	-2.621231	-0.796706	2.074900	0.238154	0.520300	0.067387	-0.817331
64686	-9.103007	0.909375	7.647654	-2.701210	-0.593342	1.785841	0.245456	0.512050	0.071619	-0.820016
64687	-9.262628	0.225682	7.434814	-2.581557	0.146772	1.781873	0.252028	0.503391	0.075821	-0.823001
64688	-9.386635	-0.240336	7.356742	-2.490964	0.649753	1.834521	0.257215	0.494667	0.078313	-0.826445
64689	-9.411780	-0.343897	7.519686	-2.453126	0.760000	1.962097	0.260741	0.485764	0.077690	-0.830670
64690	-9.129912	-0.237722	7.764819	-2.491106	0.610935	1.897118	0.263274	0.476606	0.074113	-0.835489
64691	-9.038488	-0.227133	8.061703	-2.542799	0.645206	2.013030	0.264514	0.467365	0.068292	-0.840796
64692	-9.160054	-0.105213	8.372212	-2.450143	0.692515	2.333112	0.264157	0.457839	0.061661	-0.846642
64693	-9.217118	0.169622	8.444336	-2.109866	0.678808	2.490544	0.262369	0.447965	0.054630	-0.852939
64694	-9.356903	0.488057	8.667310	-1.803535	0.618717	2.807383	0.260219	0.437397	0.047285	-0.859496
64695	-9.351811	0.542368	8.482104	-1.366733	0.867640	2.719823	0.258145	0.425691	0.039453	-0.866367
64696	-9.207464	0.594389	8.253744	-0.947055	1.089043	2.481933	0.256040	0.412669	0.030353	-0.873628
64697	-9.123070	0.636064	7.849402	-0.354341	1.405498	2.151013	0.253717	0.397963	0.020106	-0.881390
64698	-8.658378	0.718926	7.430134	0.063152	1.517097	1.517339	0.250687	0.382729	0.009188	-0.889151
64699	-8.537068	1.332274	7.443136	0.591241	1.201771	1.511959	0.247298	0.367553	-0.002094	-0.896518
64700	-8.019632	1.908423	7.524725	0.791782	0.711651	1.297302	0.244426	0.352733	-0.012174	-0.903154
64701	-7.912244	1.978093	7.358370	1.167149	0.849203	1.076184	0.241898	0.338039	-0.020277	-0.909288
64702	-7.713780	2.065800	7.112627	1.530132	0.898313	0.732509	0.239217	0.323411	-0.027595	-0.915106
64703	-7.862058	2.017488	6.911310	2.029622	1.208701	0.582377	0.236773	0.308341	-0.035975	-0.920636
64704	-7.408829	2.176235	6.924038	2.067157	1.062743	0.294482	0.234837	0.292473	-0.045971	-0.925850
64705	-6.512594	2.579911	7.423809	1.579863	0.495452	0.258601	0.233173	0.277415	-0.056604	-0.930305
64706	-6.229771	2.919005	8.130828	1.387040	0.270203	0.743551	0.231686	0.262526	-0.064660	-0.934463
64707	-5.803609	2.607461	8.059039	1.263942	0.519887	0.363384	0.229998	0.247533	-0.069945	-0.938582
64708	-5.921047	2.234071	7.732010	1.658844	1.024421	-0.013473	0.227563	0.232460	-0.074156	-0.942698
64709	-6.335056	2.436832	7.692673	2.375689	1.164566	0.098830	0.225226	0.216276	-0.080522	-0.946580
64710	-5.267550	2.861634	7.410642	2.102855	0.445494	-0.527033	0.223989	0.199247	-0.088789	-0.949866
64711	-4.652226	3.175634	7.362547	2.006836	0.069403	-0.763147	0.222956	0.183061	-0.097790	-0.952479
64712	-4.710018	3.415384	7.370504	2.391299	0.071638	-0.732927	0.221303	0.167238	-0.106399	-0.954848
64713	-3.944139	3.642601	7.308699	2.093484	-0.322073	-0.995157	0.219305	0.151715	-0.113811	-0.957045
64714	-3.188175	3.860302	7.862456	1.560483	-0.625340	-0.644648	0.218173	0.137912	-0.119459	-0.958703
64715	-3.035856	3.979423	8.303922	1.553384	-0.599989	-0.261300	0.218610	0.124787	-0.122705	-0.959990
64716	-3.262431	3.819150	8.875519	1.765560	-0.148683	0.230115	0.220896	0.110805	-0.124419	-0.960962
64717	-2.679737	3.714363	9.433925	1.357179	-0.116068	0.584971	0.224841	0.094958	-0.124916	-0.961679
64718	-2.308313	3.187559	9.467615	1.148104	0.252198	0.372208	0.228921	0.077873	-0.123287	-0.962461
64719	-1.648023	2.685683	9.500748	0.703244	0.426762	0.162570	0.232027	0.060482	-0.120097	-0.963370
64720	-1.279994	1.866107	9.222597	0.421673	0.914739	-0.370592	0.233845	0.043370	-0.115945	-0.964361
64721	-0.655143	1.243564	9.158974	-0.077729	1.148438	-0.618668	0.234064	0.027561	-0.112197	-0.965332
64722	-0.394892	0.938601	9.201005	-0.162654	1.299888	-0.649003	0.232195	0.013373	-0.108760	-0.966477
64723	-0.093988	0.583149	9.170846	-0.328582	1.466889	-0.746891	0.228709	0.000581	-0.105994	-0.967707
64724	0.129672	0.293017	9.005261	-0.416819	1.600672	-0.955059	0.224005	-0.011098	-0.104554	-0.968900
64725	0.001004	0.227499	8.958870	-0.120334	1.741389	-1.022766	0.218057	-0.022039	-0.104894	-0.970032
64726	0.188740	0.389861	8.689549	-0.026637	1.517047	-1.245853	0.210773	-0.032589	-0.106273	-0.971195
64727	0.407460	0.715978	8.576442	0.081382	1.176373	-1.277990	0.202287	-0.042311	-0.107803	-0.972455
64728	0.736882	0.862923	8.360830	-0.013777	0.918256	-1.425443	0.192620	-0.051170	-0.108123	-0.973955
64729	0.658057	0.767312	7.961658	0.138796	0.967688	-1.846965	0.181581	-0.059132	-0.107589	-0.975683
64730	0.740966	0.717660	7.380535	0.120831	0.861077	-2.411376	0.168851	-0.066084	-0.106792	-0.977608
64731	0.553645	0.775597	6.893009	0.364258	0.765133	-2.905947	0.154690	-0.071644	-0.107083	-0.979526
64732	0.726551	1.460940	6.824472	0.465829	0.087033	-2.811908	0.139956	-0.075685	-0.108831	-0.981244
64733	0.730065	1.933634	6.571289	0.586469	-0.382417	-2.959699	0.125521	-0.078354	-0.111633	-0.982671
64734	0.400077	2.386519	6.402466	0.990718	-0.728231	-3.079562	0.112270	-0.080430	-0.116390	-0.983555
64735	0.246038	3.031412	6.337200	1.265740	-1.257182	-3.013650	0.100425	-0.083232	-0.123153	-0.983779
64736	0.404419	3.821064	6.147903	1.237751	-1.992401	-2.952802	0.089329	-0.086647	-0.131516	-0.983471
64737	0.802325	4.517573	6.057831	0.948131	-2.625798	-2.744859	0.078738	-0.090106	-0.140290	-0.982853
64738	0.898764	5.103697	6.010532	0.916659	-3.086487	-2.559154	0.069075	-0.093246	-0.148550	-0.982073
64739	1.230676	5.562251	5.847416	0.607791	-3.496588	-2.460900	0.061131	-0.096267	-0.155105	-0.981294
64740	1.749505	5.538192	5.836662	0.074381	-3.434883	-2.329750	0.055416	-0.099179	-0.159720	-0.980603
64741	1.980232	5.155909	6.046558	-0.177085	-2.949048	-2.174831	0.051928	-0.100975	-0.163779	-0.979941
64742	2.253629	4.917176	6.557158	-0.393548	-2.501285	-1.698377	0.050214	-0.101306	-0.167710	-0.979331
64743	1.885896	4.612596	6.960265	-0.017499	-1.984372	-1.485654	0.049294	-0.100722	-0.171621	-0.978760
64744	1.719770	4.413892	7.558343	0.209863	-1.503450	-1.022713	0.048926	-0.100470	-0.176034	-0.978020
64745	2.169200	4.457120	7.654486	-0.210716	-1.445413	-0.811135	0.048877	-0.100518	-0.181766	-0.976969
64746	2.319932	4.746905	7.848412	-0.287419	-1.538625	-0.482009	0.048973	-0.100434	-0.188114	-0.975770
64747	1.951634	5.068743	8.007071	0.138826	-1.622067	-0.275279	0.049320	-0.100097	-0.195382	-0.974358
64748	1.985570	5.553503	8.411946	0.251452	-1.762131	0.305338	0.050681	-0.101076	-0.202569	-0.972718
64749	2.600959	5.711190	8.162778	-0.329937	-1.914196	0.298656	0.052934	-0.102785	-0.208332	-0.971201
64750	2.717722	5.662894	7.889608	-0.447349	-1.895119	0.082155	0.055375	-0.104477	-0.212631	-0.969952
64751	2.967937	5.759469	7.971729	-0.616867	-1.892892	0.265240	0.058151	-0.105431	-0.215787	-0.968989
64752	2.969118	5.812652	8.245073	-0.524539	-1.775856	0.538873	0.061636	-0.105879	-0.217753	-0.968284
64753	2.581575	5.618453	8.547131	-0.091670	-1.417324	0.640429	0.065792	-0.106296	-0.218669	-0.967758
64754	2.622447	5.351494	8.465007	-0.147744	-1.207955	0.467919	0.070278	-0.107259	-0.219594	-0.967127
64755	2.869506	5.588153	8.571917	-0.274111	-1.377893	0.721319	0.075005	-0.108149	-0.220929	-0.966369
64756	2.509315	5.960604	9.043327	0.289389	-1.436106	1.208227	0.080446	-0.109755	-0.222334	-0.965427
64757	2.480690	5.951185	9.195836	0.441624	-1.333663	1.329969	0.087071	-0.113326	-0.223032	-0.964278
64758	2.406520	5.501789	9.279447	0.576805	-0.868602	1.190926	0.094636	-0.118998	-0.224020	-0.962652
64759	2.871971	5.223716	8.888541	0.172785	-0.830825	0.855891	0.101797	-0.125636	-0.225809	-0.960658
64760	3.356855	5.223314	8.293683	-0.228274	-1.126186	0.483617	0.107480	-0.131819	-0.228482	-0.958576
64761	3.425186	5.760815	7.981027	-0.065528	-1.692303	0.470592	0.111817	-0.136756	-0.231091	-0.956761
64762	3.759710	5.889741	7.567818	-0.316203	-2.007091	0.285190	0.115660	-0.139919	-0.232839	-0.955422
64763	3.446384	5.889474	7.443954	0.020807	-1.984427	0.088690	0.120027	-0.140454	-0.234776	-0.954330
64764	2.455916	6.468757	8.114088	1.295714	-1.939285	0.592820	0.125522	-0.140076	-0.237811	-0.952927
64765	2.089159	7.185312	8.727449	2.040778	-2.118662	1.300697	0.132359	-0.141020	-0.239697	-0.951388
64766	1.547654	6.978872	8.626647	2.561996	-1.859233	0.934263	0.139319	-0.144115	-0.239027	-0.950099
64767	1.660012	6.013973	7.869558	2.114811	-1.445580	-0.102394	0.145340	-0.148704	-0.237683	-0.948826
64768	2.204810	5.163675	7.078968	1.279419	-1.232263	-0.953787	0.150834	-0.152899	-0.238147	-0.947184
64769	2.547452	5.254944	6.666190	1.003518	-1.547752	-1.144428	0.156386	-0.154861	-0.241403	-0.945138
64770	2.492075	5.614354	6.662239	1.242539	-1.763724	-1.011464	0.162330	-0.154843	-0.245653	-0.943041
64771	2.455712	5.943516	7.296726	1.570303	-1.614111	-0.350857	0.169245	-0.154089	-0.249630	-0.940903
64772	1.959821	6.251533	8.020784	2.331904	-1.280909	0.196117	0.177289	-0.154563	-0.252261	-0.938639
64773	2.167462	6.281475	8.290524	2.307004	-1.165616	0.492909	0.185570	-0.157477	-0.251893	-0.936651
64774	2.633965	5.470979	7.816948	1.583449	-0.906913	-0.084239	0.193251	-0.161091	-0.249018	-0.935251
64775	2.948024	4.853080	7.390167	1.065163	-0.784851	-0.587395	0.200071	-0.163523	-0.244911	-0.934479
64776	3.013011	3.886941	6.692300	0.498338	-0.474498	-1.536250	0.206021	-0.163226	-0.241140	-0.934218
64777	2.826039	3.662482	6.435340	0.509862	-0.426596	-1.915109	0.211490	-0.159285	-0.239948	-0.933984
64778	2.208511	4.451687	7.468412	1.560552	-0.329572	-0.985009	0.216563	-0.153895	-0.240897	-0.933480
64779	2.119485	4.913552	7.657393	1.828841	-0.547649	-0.667966	0.221501	-0.149025	-0.242954	-0.932578
64780	2.257103	5.210194	7.475356	1.773954	-0.889533	-0.637552	0.226223	-0.144952	-0.245203	-0.931497
64781	2.619972	4.914017	6.817516	1.175942	-1.102097	-1.158634	0.230810	-0.140793	-0.247863	-0.930305
64782	2.612647	4.889510	6.170618	1.035031	-1.386385	-1.699979	0.235164	-0.135837	-0.251388	-0.929005
64783	2.992249	5.175048	5.920588	0.769100	-1.836184	-1.638063	0.239819	-0.129731	-0.255269	-0.927628
64784	3.417704	5.784137	6.227541	0.689112	-2.256026	-0.960892	0.245783	-0.122550	-0.258374	-0.926183
64785	3.302411	6.280226	6.948239	1.045917	-2.183113	-0.181234	0.253667	-0.114465	-0.258957	-0.924928
64786	2.906298	6.368738	8.021879	1.448225	-1.558420	0.619522	0.262769	-0.106890	-0.255627	-0.924220
64787	2.436628	5.514100	8.200417	1.354125	-0.756028	0.246255	0.272082	-0.100410	-0.249454	-0.923938
64788	2.079789	4.818593	8.223549	1.245847	-0.213801	-0.139432	0.280979	-0.094970	-0.243455	-0.923451
64789	1.938594	4.364133	7.881692	1.068884	-0.093741	-0.659927	0.289491	-0.089386	-0.240262	-0.922214
64790	1.445771	4.550234	7.915179	1.532740	0.000427	-0.697021	0.298082	-0.083684	-0.240745	-0.919884
64791	1.621858	5.124380	7.809317	1.671590	-0.515773	-0.495265	0.307151	-0.077947	-0.243556	-0.916659
64792	1.808245	5.451909	7.607381	1.670401	-0.887275	-0.469916	0.316435	-0.072114	-0.246269	-0.913247
64793	2.000903	5.921900	7.773251	1.758025	-1.188930	-0.066325	0.326157	-0.065981	-0.247254	-0.910019
64794	2.007453	5.806026	8.026332	1.643986	-0.996915	0.110274	0.336617	-0.060387	-0.245193	-0.907151
64795	1.531556	5.430462	8.481412	1.734461	-0.294245	0.220996	0.348026	-0.055634	-0.241902	-0.904028
64796	1.386628	5.053291	8.800639	1.579900	0.141948	0.306272	0.359819	-0.052039	-0.238658	-0.900480
64797	1.446771	4.693619	8.805162	1.307605	0.296733	0.180116	0.371361	-0.048921	-0.236278	-0.896588
64798	1.278707	4.378627	8.628343	1.232296	0.500016	-0.143810	0.382382	-0.045648	-0.235189	-0.892405
64799	1.070406	4.349588	8.310537	1.375183	0.521219	-0.487088	0.393103	-0.041789	-0.235674	-0.887796
64800	1.191394	4.913427	8.460244	1.647811	0.213582	-0.097965	0.403923	-0.037605	-0.236492	-0.882895
64801	1.187551	5.130282	8.711558	1.753001	0.240698	0.211797	0.414973	-0.034009	-0.236341	-0.877943
64802	1.465800	4.717765	8.663525	1.271101	0.255101	0.075779	0.426305	-0.031046	-0.234839	-0.873013
64803	1.575649	4.548585	8.870649	1.046541	0.339713	0.219759	0.437707	-0.027350	-0.232758	-0.868037
64804	1.351973	4.760790	9.351812	1.268829	0.573215	0.675910	0.449086	-0.023552	-0.229623	-0.863157
64805	1.301993	4.612204	9.694572	1.132329	0.778265	0.914110	0.460793	-0.020364	-0.225668	-0.858096
64806	0.695369	4.208561	9.938856	1.132902	1.502142	0.837965	0.472543	-0.018668	-0.222413	-0.852577
64807	1.063247	4.078440	10.025554	0.837911	1.293658	0.953004	0.483923	-0.018495	-0.220668	-0.846630
64808	1.514773	3.853768	9.829356	0.492921	0.958295	0.798667	0.494961	-0.018511	-0.219375	-0.840563
64809	1.603155	3.650503	9.398277	0.403056	0.813678	0.355855	0.505383	-0.018229	-0.218260	-0.834637
64810	1.609746	3.510985	8.958986	0.390592	0.701841	-0.089695	0.515267	-0.016468	-0.217668	-0.828764
64811	1.351999	3.664774	8.830418	0.655871	0.818033	-0.213973	0.525030	-0.012887	-0.217602	-0.822695
64812	1.079759	4.126339	9.440370	0.997989	1.125450	0.436713	0.535544	-0.008576	-0.218124	-0.815807
64813	1.290932	4.325015	9.987870	0.908280	1.089334	1.055527	0.546709	-0.005061	-0.217861	-0.808468
64814	1.004406	3.941235	10.329143	0.574561	1.584940	1.159604	0.557860	-0.002537	-0.216614	-0.801164
64815	0.579934	3.744963	10.453841	0.510241	2.059196	1.102586	0.568362	-0.000638	-0.215071	-0.794171
64816	0.233716	3.474779	10.123768	0.456881	2.328524	0.627074	0.577901	0.000645	-0.213684	-0.787635
64817	0.186136	3.306687	9.664721	0.408256	2.265498	0.141022	0.586735	0.002802	-0.213604	-0.781094
64818	0.174981	3.835345	9.559381	0.861155	2.146218	0.225931	0.595220	0.006043	-0.214701	-0.774326
64819	0.236890	4.225618	9.499602	1.146865	2.023491	0.323591	0.603885	0.009024	-0.215398	-0.767362
64820	0.022822	4.213834	9.406408	1.161489	2.226008	0.183961	0.612999	0.011563	-0.215258	-0.760107
64821	-0.195696	4.177807	9.490505	1.115739	2.485613	0.194250	0.622374	0.013315	-0.213904	-0.752807
64822	-0.292675	3.838804	9.466135	0.808765	2.627545	0.029654	0.631878	0.014243	-0.211687	-0.745464
64823	-0.316139	3.643556	9.602573	0.578123	2.718651	0.079711	0.641635	0.015066	-0.209479	-0.737697
64824	-0.178404	3.719224	9.818289	0.550987	2.647364	0.333796	0.651489	0.015761	-0.206953	-0.729715
64825	-0.194306	3.500231	9.978978	0.299156	2.718196	0.404517	0.661276	0.016225	-0.203800	-0.721745
64826	-0.447804	3.025709	10.078749	-0.143150	2.993831	0.284494	0.670794	0.016450	-0.200504	-0.713837
64827	-0.664069	2.577612	9.763636	-0.459154	3.110969	-0.193713	0.679647	0.017054	-0.198213	-0.706046
64828	-0.749988	2.608778	9.578206	-0.404118	3.136026	-0.372771	0.687750	0.018595	-0.197521	-0.698312
64829	-0.600328	3.111504	9.504948	0.023784	2.986239	-0.248837	0.695473	0.020882	-0.197775	-0.690482
64830	-0.560187	3.274465	9.439146	0.120353	2.947549	-0.250766	0.703271	0.023355	-0.198235	-0.682325
64831	-0.582394	3.220500	9.273585	0.037548	2.938233	-0.427865	0.711089	0.025990	-0.199106	-0.673820
64832	-0.423550	3.327389	9.181279	0.080130	2.783525	-0.442968	0.718614	0.029073	-0.200060	-0.665375
64833	-0.252988	3.565710	9.228734	0.204641	2.659404	-0.282059	0.726058	0.032515	-0.200464	-0.656961
64834	-0.433586	3.869898	9.473906	0.307612	2.924011	-0.000761	0.733606	0.035952	-0.200311	-0.648387
64835	-0.390222	3.924600	9.597604	0.241377	2.908913	0.144639	0.741421	0.038789	-0.199310	-0.639583
64836	-0.463530	3.591742	9.770408	-0.201114	2.942614	0.181141	0.749432	0.041106	-0.198150	-0.630396
64837	-0.451920	3.284224	9.921877	-0.598962	2.884331	0.225021	0.757395	0.043110	-0.197275	-0.620948
64838	-0.407446	3.055877	9.950234	-0.873771	2.783570	0.187287	0.765124	0.044902	-0.196818	-0.611417
64839	-0.392609	2.868679	9.870546	-1.076459	2.700773	0.054320	0.772378	0.046540	-0.196841	-0.602097
64840	-0.168593	2.678078	9.692691	-1.202444	2.399939	-0.120274	0.779089	0.048294	-0.197161	-0.593140
64841	-0.010194	2.696988	9.540702	-1.158209	2.220375	-0.219620	0.785375	0.050640	-0.197646	-0.584429
64842	0.109805	2.936707	9.644530	-1.018695	2.180987	-0.021953	0.791416	0.053024	-0.197868	-0.575932
64843	0.009515	3.035026	9.886855	-1.107689	2.324536	0.203833	0.797328	0.054839	-0.197753	-0.567586
64844	0.134535	2.838046	9.846677	-1.276618	2.120746	0.132271	0.803035	0.056240	-0.197425	-0.559459
64845	-0.034090	2.859371	9.843952	-1.350968	2.273040	0.091279	0.808282	0.057531	-0.197582	-0.551663
64846	0.282853	2.815903	9.733059	-1.297350	1.950936	0.048966	0.813178	0.058813	-0.198637	-0.543898
64847	0.351400	2.880330	9.366039	-1.142087	1.878121	-0.257047	0.817773	0.060771	-0.200687	-0.535984
64848	0.556260	3.007548	8.997074	-0.900356	1.716231	-0.509714	0.822282	0.063098	-0.203529	-0.527680
64849	1.005217	3.154022	8.597317	-0.541124	1.351515	-0.715868	0.826870	0.065724	-0.206351	-0.519024
64850	1.443470	3.195730	8.502272	-0.374155	0.983581	-0.676101	0.831706	0.068268	-0.207837	-0.510301
64851	1.990081	3.020968	8.605963	-0.379615	0.431762	-0.495030	0.836853	0.070312	-0.207353	-0.501734
64852	2.344870	2.762930	8.946651	-0.574990	0.006671	-0.177132	0.842270	0.072459	-0.204686	-0.493391
64853	2.288130	2.637335	9.580726	-0.914250	-0.007615	0.343333	0.847854	0.074312	-0.199994	-0.485411
64854	1.911309	2.766141	10.558621	-1.310111	0.375464	1.184164	0.853473	0.075806	-0.194706	-0.477417
64855	1.562314	2.412485	10.893934	-1.797502	0.443276	1.300831	0.858873	0.075700	-0.189874	-0.469633
64856	1.327714	1.851032	10.724620	-2.204519	0.293010	0.923259	0.863580	0.075493	-0.187169	-0.462058
64857	1.519121	1.428779	10.112310	-2.163881	-0.140018	0.282161	0.867353	0.076242	-0.187442	-0.454698
64858	1.982995	1.734631	9.531605	-1.496375	-0.379591	-0.044932	0.870178	0.079610	-0.189900	-0.447650
64859	2.335497	2.458554	9.141606	-0.684385	-0.281776	-0.090569	0.872584	0.084217	-0.192346	-0.441031
64860	2.458167	2.864854	8.840141	-0.272800	-0.185194	-0.205988	0.874873	0.089523	-0.194241	-0.434573
64861	2.519319	3.296537	8.704818	0.060206	-0.021079	-0.169897	0.877196	0.094593	-0.195296	-0.428298
64862	2.570596	3.394384	8.533847	0.179258	-0.044334	-0.277386	0.879620	0.098983	-0.195597	-0.422154
64863	2.469608	3.647556	8.485865	0.280767	0.155721	-0.257048	0.882154	0.102914	-0.195530	-0.415910
64864	2.615712	3.979765	8.568267	0.530831	0.223260	-0.026780	0.884945	0.105997	-0.194935	-0.409435
64865	2.542986	4.015196	8.625214	0.474853	0.286447	0.019675	0.888144	0.108177	-0.193754	-0.402439
64866	2.330554	3.715847	8.733759	0.099491	0.244811	-0.042953	0.891636	0.109619	-0.192458	-0.394879
64867	2.234694	3.249130	8.663093	-0.236563	0.008509	-0.297235	0.894996	0.111523	-0.191687	-0.387042
64868	2.259155	3.142691	8.605306	-0.276316	-0.089506	-0.381507	0.898062	0.114160	-0.191354	-0.379257
64869	2.210902	3.386256	8.612565	-0.179022	0.092512	-0.300044	0.900911	0.117210	-0.191249	-0.371544
64870	2.315284	3.565803	8.652261	-0.043794	0.121795	-0.173170	0.903803	0.119961	-0.191078	-0.363646
64871	2.392725	3.540522	8.754220	-0.072747	0.032550	-0.071516	0.906809	0.121926	-0.190709	-0.355616
64872	2.608929	3.089765	8.707726	-0.182012	-0.432942	-0.223262	0.909793	0.123262	-0.190212	-0.347711
64873	2.573449	2.873103	8.476466	-0.235747	-0.540946	-0.518623	0.912459	0.125086	-0.189956	-0.340131
64874	2.636280	3.152787	8.368410	0.004938	-0.369273	-0.496898	0.914878	0.127142	-0.189733	-0.332919
64875	2.676594	3.386929	8.334711	0.167074	-0.217846	-0.430392	0.917315	0.128800	-0.189463	-0.325649
64876	2.831517	3.217310	8.269680	0.207628	-0.428180	-0.510553	0.919882	0.129922	-0.189073	-0.318102
64877	3.014116	2.941601	8.272107	0.192864	-0.741966	-0.561853	0.922402	0.131284	-0.188635	-0.310411
64878	2.709650	3.041778	8.383201	-0.027298	-0.484312	-0.504768	0.924704	0.132727	-0.188067	-0.303212
64879	2.829670	2.864737	8.332945	-0.004828	-0.684516	-0.583216	0.926795	0.133922	-0.187581	-0.296530
64880	2.872322	3.169826	8.564439	0.080842	-0.501684	-0.252906	0.928715	0.135318	-0.186966	-0.290208
64881	2.948088	3.176418	8.539461	0.158863	-0.531255	-0.252575	0.930749	0.136038	-0.185957	-0.283938
64882	2.665167	3.013063	8.597148	-0.153795	-0.499495	-0.335374	0.932721	0.137052	-0.185291	-0.277338
64883	2.515497	2.899512	8.546952	-0.308683	-0.497808	-0.461636	0.934425	0.138720	-0.185502	-0.270546
64884	2.382608	2.999841	8.602515	-0.419620	-0.362709	-0.412084	0.935636	0.141146	-0.186608	-0.264273
64885	2.493356	3.594264	8.686750	-0.156786	0.030616	-0.088010	0.936395	0.143788	-0.188446	-0.258801
64886	2.696048	3.861527	8.521748	0.131173	0.160968	-0.078373	0.937156	0.145715	-0.190269	-0.253582
64887	2.901555	4.114192	8.503765	0.356877	0.264912	0.059592	0.938159	0.147356	-0.191528	-0.247915
64888	3.015862	4.222931	8.739227	0.354606	0.257151	0.341658	0.939674	0.148751	-0.191616	-0.241182
64889	2.785732	4.172269	9.037327	0.001767	0.279603	0.519941	0.941622	0.150157	-0.190614	-0.233381
64890	2.361173	4.258574	9.498319	-0.516908	0.471436	0.838097	0.943763	0.151258	-0.189160	-0.225056
64891	1.980298	3.815029	9.543291	-1.014017	0.264786	0.601346	0.945902	0.152438	-0.187635	-0.216392
64892	1.427774	3.868673	9.866359	-1.608104	0.478596	0.748327	0.947706	0.154346	-0.187097	-0.207427
64893	1.459514	3.714679	9.743892	-1.620891	0.336162	0.585963	0.949318	0.155913	-0.187803	-0.198034
64894	1.897726	3.561911	9.605230	-1.287722	0.028392	0.526063	0.950806	0.157892	-0.188639	-0.188292
64895	2.057311	3.544733	9.479095	-1.140171	-0.034568	0.451311	0.952459	0.159163	-0.188399	-0.178871
64896	1.661367	3.186406	9.326312	-1.536231	-0.163294	0.061862	0.954154	0.160175	-0.187644	-0.169480
64897	1.609329	2.724500	9.023578	-1.582575	-0.485861	-0.394769	0.955816	0.160856	-0.186836	-0.160103
64898	1.221882	2.854508	8.882914	-1.851249	-0.209137	-0.589002	0.957073	0.162547	-0.187101	-0.150278
64899	1.728447	3.251220	8.926430	-1.367110	-0.060604	-0.254116	0.958130	0.164051	-0.187806	-0.140726
64900	1.776021	3.426035	9.070703	-1.380472	0.031461	-0.052417	0.959332	0.165093	-0.187572	-0.131312
64901	1.515204	3.580126	9.396978	-1.736823	0.161598	0.205978	0.960705	0.165018	-0.186931	-0.121952
64902	1.363110	3.414453	9.399180	-1.918422	0.070423	0.095681	0.962080	0.163913	-0.186500	-0.112924
64903	1.395487	3.244854	9.498843	-1.973470	-0.094967	0.127169	0.963251	0.162535	-0.186757	-0.104171
64904	1.470303	2.987393	9.381574	-1.920856	-0.288805	-0.049132	0.964169	0.161267	-0.187432	-0.096131
64905	1.406195	2.833252	9.401804	-2.042364	-0.407933	-0.114193	0.964613	0.161449	-0.188896	-0.088174
64906	2.096916	3.015261	9.424773	-1.451875	-0.404539	0.189478	0.964803	0.162123	-0.190921	-0.080133
64907	2.456185	2.884312	9.198172	-1.099111	-0.539332	0.059463	0.964903	0.163107	-0.192500	-0.072817
64908	2.799273	3.004995	9.086783	-0.767980	-0.468815	0.118371	0.965059	0.164385	-0.192966	-0.066358
64909	2.692468	3.397308	9.313045	-0.946969	-0.157527	0.414841	0.965387	0.165284	-0.192476	-0.060519
64910	2.702459	3.472594	9.397571	-0.971642	-0.111783	0.517847	0.965858	0.165314	-0.191766	-0.054923
64911	2.910771	3.326220	9.361721	-0.766833	-0.254034	0.508432	0.966468	0.164699	-0.190625	-0.049759
64912	2.529832	3.079703	9.235529	-1.064440	-0.367362	0.182891	0.966997	0.164481	-0.189249	-0.045252
64913	2.540969	3.151666	9.116408	-0.990559	-0.265858	0.109333	0.967267	0.165571	-0.187804	-0.041366
64914	2.556871	3.609199	9.050512	-0.922304	0.154992	0.217308	0.967428	0.167783	-0.185684	-0.038127
64915	2.284195	4.018080	9.067462	-1.147338	0.527723	0.286136	0.967616	0.170101	-0.183130	-0.035323
64916	1.897257	4.177833	9.053814	-1.472197	0.684632	0.206747	0.967703	0.172592	-0.180900	-0.032219
64917	1.805229	4.217351	8.826370	-1.462407	0.758098	-0.002686	0.967576	0.175261	-0.179603	-0.028700
64918	1.833579	4.272375	8.383941	-1.283808	0.900322	-0.355065	0.967190	0.178549	-0.178961	-0.025230
64919	2.000023	4.489887	8.131360	-1.054910	1.107655	-0.435158	0.966687	0.182373	-0.178282	-0.021728
64920	2.074286	4.661138	7.873446	-0.909688	1.280278	-0.563204	0.966193	0.186507	-0.177093	-0.017999
64921	1.847649	4.827102	7.744147	-1.087696	1.427616	-0.676779	0.965691	0.191007	-0.175393	-0.013942
64922	1.946340	5.056664	7.793110	-1.025546	1.529770	-0.501506	0.965114	0.195826	-0.173572	-0.008886
64923	2.068395	5.261746	8.001448	-1.000219	1.544198	-0.189703	0.964528	0.200445	-0.171753	-0.003082
64924	2.244655	5.069074	7.843427	-0.780737	1.343728	-0.334406	0.964012	0.204369	-0.170016	0.002784
64925	2.315195	4.984965	7.653703	-0.655447	1.275600	-0.499682	0.963470	0.208276	-0.168149	0.008551
64926	2.343375	5.190726	7.529869	-0.615656	1.451942	-0.504277	0.962934	0.212007	-0.166135	0.014485
64927	2.440353	5.602319	7.660863	-0.615874	1.715009	-0.184116	0.962541	0.214868	-0.164032	0.020958
64928	2.396626	5.696372	7.630195	-0.670406	1.786452	-0.180893	0.962450	0.216248	-0.161738	0.027692
64929	2.819618	5.516609	7.567323	-0.234650	1.647713	-0.175387	0.962635	0.216450	-0.158988	0.034715
64930	3.008195	5.246902	7.744345	-0.057676	1.353434	-0.080327	0.963088	0.216023	-0.155020	0.042010
64931	2.949853	5.263479	8.040996	-0.160880	1.279062	0.157327	0.963807	0.214876	-0.149922	0.049268
64932	2.692256	5.284106	8.433386	-0.459562	1.171717	0.419972	0.964622	0.213091	-0.144469	0.056798
64933	2.665997	5.326662	8.816545	-0.533082	1.112515	0.755646	0.965496	0.210299	-0.139300	0.064706
64934	2.371093	5.080294	8.979014	-0.759623	0.888496	0.708092	0.966380	0.206706	-0.134681	0.072414
64935	2.284901	4.741627	8.914678	-0.723712	0.691882	0.491301	0.966990	0.203494	-0.130853	0.079991
64936	2.190669	4.522815	8.601837	-0.680159	0.684686	0.102696	0.967131	0.201535	-0.127938	0.087601
64937	2.184082	4.546383	8.329938	-0.631790	0.850391	-0.132535	0.966680	0.201607	-0.125710	0.095301
64938	2.439059	5.168505	8.125371	-0.502670	1.520737	-0.008671	0.965763	0.203616	-0.123300	0.103150
64939	2.329570	5.655636	7.969608	-0.709144	1.974115	0.012161	0.964734	0.205953	-0.120313	0.111342
64940	2.253058	5.708809	7.805163	-0.774890	2.049006	-0.128246	0.963709	0.207812	-0.116847	0.120110
64941	2.084960	5.780579	7.766819	-0.955493	2.074512	-0.175830	0.962599	0.209279	-0.112892	0.129851
64942	2.075294	5.663228	8.018501	-0.980536	1.852906	-0.000419	0.961509	0.209235	-0.108949	0.140893
64943	2.156247	4.899652	8.189761	-0.693734	1.155885	-0.121934	0.960472	0.208040	-0.104560	0.152576
64944	1.944679	4.323780	8.397477	-0.711146	0.549249	-0.211285	0.959288	0.207143	-0.099865	0.163967
64945	1.700855	3.821184	8.397654	-0.730831	0.070365	-0.459837	0.957747	0.207395	-0.095583	0.174845
64946	1.552330	3.554618	8.163058	-0.710402	-0.111391	-0.803622	0.955723	0.209740	-0.091674	0.184927
64947	1.785440	3.799916	8.020696	-0.541201	0.181458	-0.777622	0.953244	0.214065	-0.087415	0.194577
64948	1.839808	4.283727	8.017268	-0.646491	0.529970	-0.576220	0.950524	0.218883	-0.082878	0.204267
64949	1.904346	4.502078	7.973010	-0.639407	0.677202	-0.506981	0.947716	0.223200	-0.078409	0.214171
64950	1.946183	4.764693	7.968362	-0.686914	0.846478	-0.389520	0.945089	0.226269	-0.074114	0.223866
64951	2.133261	4.907429	8.068278	-0.568102	0.959078	-0.195609	0.942925	0.227119	-0.069970	0.233268
64952	1.906916	4.461312	7.882745	-0.540536	0.609302	-0.592392	0.940959	0.226664	-0.066049	0.242606
64953	1.743472	4.446432	7.854768	-0.662621	0.551719	-0.660400	0.938714	0.226732	-0.062116	0.252092
64954	1.704723	4.587930	7.974279	-0.758657	0.587036	-0.505479	0.936124	0.227018	-0.058872	0.262045
64955	1.877506	4.623724	8.076254	-0.627324	0.645594	-0.361793	0.933481	0.227092	-0.055565	0.271947
64956	1.971505	4.560408	8.212009	-0.504421	0.588708	-0.246068	0.930874	0.226872	-0.051641	0.281666
64957	1.701896	4.503104	8.289316	-0.678914	0.387561	-0.258841	0.928247	0.226581	-0.047459	0.291145
64958	1.557317	4.731850	8.302756	-0.905533	0.479751	-0.184541	0.925519	0.226354	-0.043288	0.300508
64959	1.173974	5.282883	8.574561	-1.504109	0.538735	0.200183	0.922374	0.226213	-0.039682	0.310610
64960	1.016358	5.163938	8.782499	-1.555545	0.261143	0.303811	0.918857	0.225241	-0.037636	0.321796
64961	1.126363	4.754844	8.547740	-1.265592	0.134613	-0.049430	0.915083	0.224522	-0.035494	0.333096
64962	1.203516	4.888285	8.596405	-1.301119	0.241090	0.061061	0.911324	0.223550	-0.032596	0.344168
64963	1.340616	5.170218	9.023939	-1.341291	0.333471	0.582003	0.907332	0.221654	-0.028705	0.356081
64964	1.258804	5.194992	9.570878	-1.365556	0.102846	1.063828	0.903230	0.217811	-0.024589	0.368956
64965	0.402064	4.612220	9.828055	-1.576228	-0.872360	0.900808	0.898939	0.212791	-0.021274	0.382330
64966	0.029354	4.079507	9.733470	-1.494578	-1.364463	0.545306	0.894113	0.208788	-0.018907	0.395742
64967	0.188826	3.766580	9.474076	-1.207757	-1.313244	0.227113	0.888826	0.206000	-0.016985	0.408979
64968	0.004380	3.396231	9.092847	-1.105505	-1.510781	-0.288528	0.883229	0.204748	-0.014166	0.421644
64969	0.310429	3.320792	8.709451	-0.868493	-1.190312	-0.603609	0.877391	0.204864	-0.009659	0.433731
64970	0.489289	3.660877	8.544525	-0.965723	-0.819079	-0.590648	0.871344	0.205657	-0.002617	0.445487
64971	0.259746	4.321480	9.162848	-1.389095	-0.877009	0.187337	0.865109	0.205379	0.005776	0.457572
64972	-0.525859	4.662640	10.118424	-1.794486	-1.656368	1.070066	0.858169	0.203750	0.013098	0.471020
64973	-0.761022	4.415808	10.565148	-1.538408	-2.099075	1.364420	0.850931	0.200625	0.017526	0.485138
64974	-0.768901	3.742179	10.492296	-0.970566	-2.354787	1.059121	0.844097	0.196628	0.019996	0.498436
64975	-0.795597	3.184209	10.452177	-0.514913	-2.567471	0.825123	0.837633	0.193128	0.021362	0.510506
64976	-0.826166	2.656987	10.066136	-0.157595	-2.669122	0.282860	0.831209	0.191363	0.022674	0.521496
64977	-0.972594	2.869339	9.922464	-0.389843	-2.686790	0.200454	0.824497	0.192191	0.024630	0.531659
64978	-1.123539	3.318300	9.685100	-0.828718	-2.645034	0.106519	0.817476	0.194526	0.026168	0.541487
64979	-1.018004	3.438604	9.178774	-0.946765	-2.446390	-0.313852	0.810328	0.197664	0.027308	0.550955
64980	-0.869003	3.709564	8.835699	-1.147559	-2.219429	-0.520662	0.803153	0.200749	0.028489	0.560208
64981	-0.508656	3.792078	8.511290	-1.115296	-1.855217	-0.735560	0.796031	0.202871	0.030025	0.569452
64982	-0.443623	3.862970	8.446011	-1.118228	-1.815729	-0.762454	0.789037	0.203673	0.032441	0.578693
64983	-0.389208	4.007752	8.592606	-1.135891	-1.798735	-0.564954	0.782315	0.202733	0.035439	0.587900
64984	-0.636999	4.027482	8.825340	-1.117399	-2.093010	-0.384876	0.775726	0.200603	0.038233	0.597115
64985	-0.851434	3.933573	8.834860	-1.056072	-2.313105	-0.443223	0.769099	0.198313	0.040500	0.606232
64986	-0.749383	3.868288	8.909677	-0.915262	-2.247584	-0.377744	0.762281	0.196469	0.042487	0.615241
64987	-0.491653	3.907540	8.863828	-0.871753	-1.987992	-0.359334	0.755386	0.195015	0.044791	0.623983
64988	-0.515211	4.030812	8.945138	-0.922630	-2.015839	-0.241201	0.748479	0.193883	0.047699	0.632388
64989	-0.656698	4.254608	8.989088	-1.089302	-2.138855	-0.139266	0.741655	0.192976	0.050874	0.640406
64990	-0.897227	4.423028	8.916846	-1.248668	-2.350123	-0.179635	0.734630	0.192473	0.053935	0.648355
64991	-0.903256	4.370301	8.741580	-1.191179	-2.346516	-0.357261	0.727169	0.192532	0.056761	0.656457
64992	-0.696083	4.457868	8.650198	-1.199343	-2.150761	-0.372445	0.719241	0.193193	0.060189	0.664640
64993	-0.715207	4.854475	8.818441	-1.420009	-2.214654	-0.069976	0.711122	0.193552	0.064414	0.672826
64994	-0.915169	5.068491	8.927476	-1.500893	-2.448457	0.085726	0.702846	0.193183	0.068669	0.681155
64995	-1.081845	5.151497	9.143754	-1.412321	-2.667936	0.296873	0.694061	0.192586	0.072763	0.689851
64996	-0.989576	5.155051	9.338190	-1.248218	-2.627850	0.497082	0.684837	0.191672	0.076218	0.698893
64997	-0.887077	4.904939	9.561610	-0.851962	-2.567302	0.625338	0.675191	0.190552	0.079061	0.708206
64998	-0.696174	4.509588	9.650082	-0.386561	-2.377610	0.586461	0.665120	0.189553	0.081605	0.717653
64999	-0.678389	4.287179	9.583514	-0.137931	-2.339230	0.443646	0.655082	0.188840	0.084448	0.726688
65000	-0.610751	4.435429	9.557099	-0.215978	-2.297185	0.485859	0.645216	0.188213	0.087113	0.735312
65001	-0.606827	4.394906	9.328425	-0.200295	-2.274572	0.261476	0.635501	0.187668	0.089568	0.743570
65002	-0.646422	4.336102	8.944437	-0.227873	-2.278961	-0.118534	0.626040	0.187228	0.091961	0.751374
65003	-0.197446	4.333682	8.621496	-0.359136	-1.822305	-0.341684	0.616586	0.186583	0.094842	0.758956
65004	0.303545	4.593143	8.741772	-0.576935	-1.398807	-0.049593	0.606954	0.184724	0.098635	0.766652
65005	0.619751	4.818859	9.450677	-0.527265	-1.161203	0.736918	0.597332	0.180358	0.102523	0.774696
65006	0.419069	4.761784	10.053466	-0.209155	-1.304785	1.240615	0.587938	0.173866	0.105553	0.782917
65007	-0.016886	4.704991	10.760316	0.166975	-1.652517	1.813223	0.578760	0.166249	0.106779	0.791199
65008	-0.400805	4.233595	10.898952	0.640924	-1.816910	1.726722	0.569739	0.158891	0.105839	0.799343
65009	-0.280229	3.640040	10.564537	0.892385	-1.480707	1.230330	0.560806	0.153204	0.103988	0.806977
65010	-0.128276	3.452242	10.050446	0.743861	-1.273611	0.712058	0.551855	0.149685	0.102759	0.813935
65011	-0.031239	3.542912	9.558572	0.428208	-1.230010	0.297863	0.542802	0.147875	0.102957	0.820304
65012	-0.225125	4.229567	9.393619	-0.127864	-1.689232	0.351466	0.533271	0.147020	0.104299	0.826516
65013	-0.298004	4.421533	9.114482	-0.320327	-1.864546	0.143876	0.522946	0.146365	0.104988	0.833116
65014	-0.111585	4.247745	8.880413	-0.291958	-1.666468	-0.114498	0.511590	0.145846	0.105467	0.840167
65015	0.192114	4.041526	8.876717	-0.218437	-1.345571	-0.153058	0.499391	0.145022	0.105652	0.847593
65016	0.361169	3.604126	8.895257	0.087189	-1.025218	-0.263499	0.486743	0.143585	0.105804	0.855143
65017	0.443884	3.209424	8.955774	0.392860	-0.775723	-0.328637	0.474045	0.141955	0.106235	0.862464
65018	0.486554	2.959454	8.935617	0.568468	-0.621932	-0.424909	0.461520	0.140795	0.106872	0.869342
65019	0.665219	2.871562	8.830461	0.520030	-0.439379	-0.528189	0.449011	0.140183	0.108170	0.875806
65020	0.926576	2.907670	8.785192	0.352738	-0.253750	-0.522701	0.436494	0.139662	0.109896	0.881981
65021	1.029829	2.943238	8.834838	0.302956	-0.188877	-0.450525	0.424192	0.138832	0.111734	0.887864
65022	1.039712	2.918227	8.777147	0.308815	-0.170048	-0.511555	0.412162	0.137801	0.113379	0.893464
65023	0.943968	2.985380	8.814674	0.346453	-0.281732	-0.469100	0.400311	0.136772	0.114881	0.898803
65024	0.997274	2.894071	8.767818	0.369453	-0.190381	-0.535183	0.388497	0.135789	0.115943	0.903985
65025	1.152655	2.893621	8.804759	0.287518	-0.074493	-0.477955	0.376951	0.134741	0.117490	0.908817
65026	0.976503	3.081249	9.074545	0.386886	-0.290282	-0.191822	0.365432	0.133503	0.119331	0.913453
65027	0.779277	3.124144	9.307118	0.589651	-0.415127	0.009224	0.354041	0.132277	0.121061	0.917879
65028	0.220718	3.213243	9.333594	0.968746	-0.837652	-0.022418	0.342772	0.131461	0.122852	0.922026
65029	-0.111198	3.364797	9.081058	1.079696	-1.187579	-0.261585	0.331514	0.131121	0.124270	0.925993
65030	-0.053857	3.342930	8.999011	1.071082	-1.128022	-0.339546	0.320002	0.130687	0.126045	0.929856
65031	0.452423	3.318402	9.270932	0.823425	-0.723233	-0.016491	0.308000	0.129256	0.128059	0.933825
65032	0.077548	3.201790	9.716272	1.336615	-0.747478	0.302547	0.296124	0.126802	0.130086	0.937715
65033	-0.160301	3.189827	10.176722	1.678267	-0.749614	0.693869	0.284435	0.124150	0.131385	0.941500
65034	-0.211701	3.071226	10.378418	1.836905	-0.607332	0.838399	0.272636	0.121739	0.132106	0.945197
65035	-0.016284	2.970645	10.542985	1.767176	-0.362923	0.991241	0.260570	0.119700	0.132053	0.948861
65036	0.043382	2.463246	10.439459	1.910087	0.074907	0.741824	0.248456	0.118168	0.131334	0.952396
65037	-0.050113	2.036885	10.343810	2.139308	0.368716	0.503960	0.236636	0.117200	0.130511	0.955633
65038	0.030441	1.554365	10.066463	2.184566	0.768750	0.106351	0.225203	0.116583	0.130090	0.958524
65039	-0.006003	1.354972	9.932225	2.250889	0.917704	-0.087652	0.214442	0.116055	0.130662	0.960975
65040	0.095694	1.264435	9.704668	2.125904	1.032664	-0.315189	0.204577	0.115386	0.132210	0.962993
65041	-0.071218	1.790907	9.916414	2.141461	0.600521	0.015887	0.195417	0.114651	0.134521	0.964661
65042	-0.132674	2.189608	9.930502	2.069416	0.283970	0.140378	0.186894	0.113903	0.136495	0.966160
65043	-0.308494	2.424776	9.953520	2.164171	0.059683	0.205292	0.178832	0.112981	0.137831	0.967604
65044	-0.561384	2.459685	9.915625	2.379973	-0.034127	0.138154	0.170988	0.112180	0.138876	0.968964
65045	-0.702737	2.397251	9.720831	2.489969	-0.031478	-0.089826	0.163113	0.111859	0.140395	0.970140
65046	-0.819842	2.556679	9.504711	2.522632	-0.213997	-0.266044	0.155222	0.112058	0.142647	0.971082
65047	-0.716623	2.671295	9.285619	2.376341	-0.272752	-0.423857	0.147063	0.112461	0.145510	0.971881
65048	-0.670616	2.898761	9.274625	2.313486	-0.394601	-0.359505	0.138573	0.112582	0.148596	0.972647
65049	-0.576329	2.783785	9.192777	2.264065	-0.212006	-0.462959	0.129931	0.112284	0.151089	0.973490
65050	-0.468379	2.538698	9.103192	2.214187	0.082739	-0.613629	0.121355	0.111725	0.153408	0.974298
65051	-0.522123	2.567615	9.142342	2.285281	0.116126	-0.581690	0.112967	0.111186	0.155831	0.974984
65052	-0.232990	2.708710	9.180362	2.007313	0.130170	-0.451922	0.104467	0.110392	0.157926	0.975684
65053	-0.121332	2.559101	9.384021	1.979351	0.406219	-0.297407	0.095957	0.109164	0.159515	0.976438
65054	-0.145354	2.141911	9.420518	2.066445	0.848506	-0.412439	0.087932	0.107860	0.161382	0.977031
65055	0.057298	2.222075	9.492461	1.866348	0.894158	-0.285640	0.080574	0.106647	0.163850	0.977388
65056	0.141771	2.425517	9.693407	1.793482	0.842731	-0.017877	0.073705	0.105154	0.166143	0.977705
65057	-0.073998	2.446897	9.789295	2.006283	0.867693	0.038445	0.067303	0.103788	0.167877	0.978016
65058	0.062707	2.244779	9.678095	1.853629	1.089047	-0.112876	0.061466	0.102651	0.169667	0.978212
65059	-0.015373	2.472815	9.603703	1.883739	0.892521	-0.117286	0.056392	0.101714	0.172185	0.978175
65060	-0.020552	2.801944	9.294913	1.795625	0.543307	-0.287619	0.051810	0.101058	0.175093	0.977980
65061	0.108043	3.016487	9.039404	1.603026	0.339865	-0.424604	0.047508	0.100236	0.178349	0.977695
65062	0.201653	3.307968	8.979499	1.479474	0.134820	-0.357152	0.043172	0.098913	0.182262	0.977309
65063	0.305364	3.585073	9.144181	1.388723	0.031647	-0.084794	0.038601	0.097177	0.186216	0.976929
65064	0.266688	3.864711	9.276486	1.430068	-0.103780	0.137387	0.034056	0.095493	0.189592	0.976615
65065	0.299437	3.765954	8.956204	1.333241	-0.065285	-0.184415	0.029557	0.094508	0.192142	0.976359
65066	0.934664	3.859814	8.655790	0.652719	-0.157362	-0.313031	0.024814	0.093557	0.194655	0.976084
65067	1.634537	4.148955	9.031471	0.021914	-0.189333	0.257895	0.019436	0.091149	0.195938	0.976177
65068	1.789117	3.753505	9.470312	-0.094542	0.350081	0.523882	0.013981	0.087221	0.195193	0.976779
65069	1.724394	3.318077	10.026240	-0.016291	0.924204	0.848146	0.008906	0.082527	0.193362	0.977610
65070	1.459792	3.170250	10.502907	0.227362	1.178641	1.189615	0.004462	0.078012	0.191099	0.978456
65071	1.120143	3.203954	10.735555	0.516880	1.167670	1.373951	0.000947	0.074574	0.188759	0.979187
65072	1.096510	3.265710	10.634457	0.472117	1.020007	1.309148	-0.002091	0.072470	0.186798	0.979719
65073	1.324233	3.355550	10.233376	0.167392	0.757479	1.010133	-0.004983	0.071404	0.186091	0.979922
65074	1.426845	3.790176	9.925452	0.032912	0.234347	0.904585	-0.008178	0.070782	0.186630	0.979843
65075	1.414181	4.231550	9.784375	0.049373	-0.219972	0.938549	-0.011969	0.070325	0.187277	0.979713
65076	1.430060	4.215098	9.591024	0.019314	-0.279115	0.757155	-0.016460	0.070049	0.187054	0.979711
65077	1.486041	3.850899	9.333650	-0.071029	-0.055876	0.392533	-0.021691	0.070165	0.186421	0.979721
65078	1.664425	3.575013	9.193895	-0.254988	0.121594	0.187252	-0.027628	0.070873	0.185803	0.979638
65079	1.990374	3.301230	9.210100	-0.561623	0.346819	0.149731	-0.034011	0.071765	0.185214	0.979484
65080	2.031828	3.106932	9.064652	-0.599424	0.442573	-0.045709	-0.040226	0.072949	0.184465	0.979302
65081	2.107577	2.752764	8.695088	-0.713165	0.599820	-0.498423	-0.046089	0.074685	0.183797	0.979039
65082	2.124042	2.449826	8.235298	-0.776027	0.692107	-1.023379	-0.051584	0.076636	0.184368	0.978506
65083	2.265483	2.479616	7.957851	-0.901014	0.558370	-1.240377	-0.056657	0.078680	0.186234	0.977710
65084	2.561899	2.498424	7.731880	-1.179634	0.457852	-1.387365	-0.061418	0.080050	0.189185	0.976744
65085	2.762864	2.805703	7.845745	-1.290989	0.240095	-1.133019	-0.066028	0.080476	0.192485	0.975763
65086	2.624051	3.012417	7.977861	-1.093134	0.155324	-0.959022	-0.070469	0.080186	0.195306	0.974915
65087	1.846086	3.105696	8.058761	-0.300693	0.220455	-0.988975	-0.074636	0.079869	0.197506	0.974188
65088	1.398690	3.245314	8.169654	0.185571	0.215714	-0.916024	-0.078465	0.080220	0.198650	0.973625
65089	1.195377	2.996002	8.039731	0.339915	0.423916	-1.167055	-0.082291	0.080673	0.198873	0.973226
65090	1.231027	2.802320	8.167867	0.292334	0.643602	-1.118851	-0.086150	0.080224	0.198525	0.973001
65091	1.806104	2.656347	8.578740	-0.266850	0.845475	-0.695299	-0.090317	0.077717	0.197679	0.972998
65092	1.363929	2.770057	9.479978	0.228858	1.139830	0.089398	-0.094544	0.073495	0.196102	0.973244
65093	1.042923	2.561474	10.167412	0.488531	1.597467	0.590850	-0.098206	0.069378	0.193038	0.973796
65094	0.845881	2.101940	10.201569	0.516913	1.985056	0.434132	-0.101181	0.066401	0.189842	0.974327
65095	0.840663	1.822902	9.966349	0.398886	2.085840	0.129530	-0.103709	0.064809	0.187683	0.974587
65096	0.916497	1.747281	9.709512	0.270429	2.012775	-0.115102	-0.105982	0.064451	0.187297	0.974440
65097	1.201971	1.988904	9.278245	0.012342	1.575481	-0.378495	-0.107885	0.064412	0.187925	0.974113
65098	1.250475	2.326231	9.125025	0.028582	1.211977	-0.390830	-0.109499	0.063947	0.188493	0.973854
65099	1.381719	2.489477	9.188442	-0.067760	1.061602	-0.252223	-0.111142	0.062813	0.187979	0.973841
65100	1.061799	2.390406	9.261221	0.201981	1.217212	-0.268625	-0.112728	0.061240	0.186410	0.974060
65101	0.749520	2.019956	9.313670	0.397216	1.595923	-0.395600	-0.113974	0.060127	0.184414	0.974365
65102	0.598017	1.793529	9.090856	0.460249	1.717895	-0.699235	-0.114772	0.059476	0.183641	0.974457
65103	0.775137	2.064628	9.087752	0.343302	1.431738	-0.577807	-0.115401	0.058744	0.184112	0.974338
65104	0.574435	2.396866	9.025185	0.600176	1.163816	-0.549094	-0.115634	0.057976	0.185323	0.974127
65105	0.938682	2.533802	8.918046	0.256588	0.944396	-0.545809	-0.115538	0.056984	0.186442	0.973983
65106	1.090118	2.424314	8.663497	0.042467	0.932565	-0.798795	-0.115001	0.055484	0.187638	0.973904
65107	0.877780	2.647159	8.523288	0.260868	0.742800	-0.879356	-0.113896	0.053659	0.189155	0.973842
65108	0.990091	3.004644	8.391234	0.191158	0.369727	-0.854588	-0.112472	0.051548	0.190557	0.973848
65109	0.857821	3.201196	8.248021	0.313514	0.179737	-0.931102	-0.110914	0.049163	0.191417	0.973982
65110	0.801903	3.163466	7.922567	0.295574	0.103716	-1.250018	-0.109295	0.046557	0.191860	0.974206
65111	0.523020	3.215344	7.713128	0.521682	0.033156	-1.456199	-0.107783	0.044002	0.192401	0.974386
65112	0.868416	3.240404	7.559416	0.135833	-0.117469	-1.544274	-0.106553	0.041026	0.192475	0.974637
65113	0.700245	3.105076	7.506430	0.211135	0.012108	-1.662025	-0.105234	0.037480	0.192631	0.974892
65114	0.335196	3.041953	7.426117	0.489266	0.100175	-1.796249	-0.103771	0.033698	0.192348	0.975243
65115	0.058716	2.596330	6.903428	0.594282	0.342025	-2.468896	-0.101950	0.030093	0.192449	0.975533
65116	-0.359047	2.522803	6.258719	0.924104	0.243266	-3.123026	-0.099678	0.026444	0.194428	0.975481
65117	0.578781	3.527016	6.559979	0.145604	-0.693371	-2.375915	-0.097855	0.021632	0.196888	0.975290
65118	0.354186	3.880970	7.031958	0.339523	-0.774480	-1.817707	-0.096271	0.014960	0.196797	0.975592
65119	-0.401539	3.267549	7.128420	0.847111	-0.076412	-2.007069	-0.094605	0.007367	0.194377	0.976326
65120	-0.951660	2.485302	6.886650	1.134258	0.596730	-2.541884	-0.092600	-0.000168	0.193167	0.976786
65121	-1.113632	2.703608	6.757720	1.227475	0.367476	-2.561918	-0.090036	-0.007472	0.194481	0.976737
65122	-0.736325	3.701342	7.071584	0.889252	-0.466285	-1.860346	-0.087565	-0.015111	0.196821	0.976404
65123	-0.773377	4.035231	7.207462	0.833867	-0.694602	-1.587775	-0.085483	-0.023490	0.197778	0.976230
65124	-1.064770	3.655119	7.154448	0.919592	-0.329070	-1.767570	-0.083629	-0.032626	0.197283	0.976228
65125	-2.030857	2.579006	6.486103	1.636887	0.544950	-2.751014	-0.081065	-0.041866	0.198010	0.975945
65126	-2.148231	3.057011	6.120908	1.724373	0.011791	-2.852074	-0.077597	-0.051346	0.202356	0.974882
65127	-1.797243	4.343241	6.539174	1.323573	-0.989775	-1.931075	-0.074519	-0.062079	0.207524	0.973410
65128	-1.701717	5.118785	7.338584	0.986875	-1.332133	-0.857266	-0.072820	-0.074759	0.210056	0.972103
65129	-2.578066	4.939060	7.762446	1.510289	-0.847770	-0.416329	-0.072048	-0.088078	0.208541	0.971371
65130	-3.748832	3.039135	6.961164	2.410382	0.708423	-1.723634	-0.071127	-0.099685	0.206136	0.970830
65131	-4.917983	2.006600	5.985559	3.505518	1.456515	-2.767991	-0.068504	-0.109313	0.208846	0.969403
65132	-3.354766	3.822425	6.466367	1.865145	-0.209520	-1.803150	-0.065132	-0.120006	0.215892	0.966823
65133	-2.996125	4.519535	6.860398	1.244702	-0.663921	-1.182947	-0.062768	-0.133966	0.219472	0.964337
65134	-3.699562	4.443873	7.155791	1.555011	-0.315436	-0.750935	-0.061035	-0.149820	0.220476	0.961883
65135	-4.686912	3.633885	6.962903	2.229482	0.506189	-0.957137	-0.059494	-0.165185	0.219505	0.959683
65136	-5.740389	3.575927	6.703406	3.045241	0.637018	-0.813237	-0.056770	-0.178286	0.219631	0.957472
65137	-5.248966	4.277844	6.659906	2.379503	-0.123251	-0.619031	-0.054185	-0.191298	0.218123	0.955453
65138	-5.330414	4.681728	6.528188	2.252904	-0.573099	-0.456504	-0.052595	-0.206245	0.214523	0.953245
65139	-4.633831	5.126387	7.085660	1.099549	-0.970947	-0.025019	-0.053672	-0.223225	0.208263	0.950745
65140	-5.509749	4.238254	7.734414	1.252717	0.116915	0.509399	-0.057761	-0.242087	0.198165	0.948044
65141	-7.035309	2.832607	8.058226	2.039500	1.666420	0.934490	-0.062056	-0.260509	0.187421	0.945070
65142	-8.147474	2.193818	7.884703	2.689291	2.275970	1.184401	-0.064214	-0.276727	0.177687	0.942192
65143	-7.378571	3.299228	7.903653	1.708784	0.933308	1.322569	-0.063947	-0.291432	0.170218	0.939151
65144	-6.399599	4.449832	8.470723	0.263703	-0.358573	1.689412	-0.064524	-0.307133	0.161683	0.935609
65145	-7.167905	3.989712	8.976311	0.187323	0.173792	2.344084	-0.067356	-0.324984	0.151122	0.931134
65146	-8.315451	2.766934	8.673710	0.835268	1.284179	2.421338	-0.070172	-0.341311	0.140007	0.926812
65147	-9.213968	1.499073	7.173949	2.108541	2.171085	1.564485	-0.070141	-0.354182	0.132264	0.923115
65148	-9.264881	2.364454	6.956313	2.025812	1.193219	1.775413	-0.066414	-0.365401	0.130101	0.919318
65149	-8.035497	3.768490	7.710257	0.340889	-0.345124	1.933545	-0.062739	-0.378438	0.128606	0.914499
65150	-8.757679	3.973965	7.809034	0.413188	-0.457233	2.559720	-0.060687	-0.393708	0.124843	0.908694
65151	-8.947184	3.604081	7.339967	0.492670	-0.271956	2.294591	-0.059189	-0.408897	0.119430	0.902794
65152	-9.494665	2.847039	6.361401	1.220659	0.260233	1.898502	-0.057136	-0.423085	0.113658	0.897116
65153	-9.899293	2.748856	5.669871	1.664071	0.192583	1.801196	-0.052951	-0.436570	0.110073	0.891340
65154	-9.985546	3.842490	6.568510	0.619969	-0.820549	2.699282	-0.048598	-0.450859	0.107529	0.884761
65155	-9.444320	4.499330	7.346488	-0.759449	-1.550770	2.852668	-0.047817	-0.467067	0.102651	0.876940
65156	-10.262494	3.663683	6.954801	-0.401745	-0.776591	3.084155	-0.049940	-0.483299	0.095585	0.868787
65157	-10.086489	2.931398	6.190161	-0.245028	-0.317653	2.372303	-0.052183	-0.498096	0.089049	0.860957
65158	-9.430034	3.399193	6.502749	-1.216236	-0.962904	2.034171	-0.054648	-0.512154	0.083798	0.853047
65159	-10.254557	2.955395	6.400689	-1.104174	-0.477389	2.572798	-0.057827	-0.525659	0.078872	0.845055
65160	-10.548716	2.629933	6.362911	-1.303114	-0.182703	2.714739	-0.061231	-0.538164	0.074467	0.837308
65161	-10.247330	2.569100	6.435249	-1.837223	-0.235816	2.417586	-0.064779	-0.550320	0.070757	0.829425
65162	-9.666472	2.591732	6.334993	-2.292137	-0.425278	1.799646	-0.068556	-0.562285	0.067347	0.821341
65163	-9.502249	2.582662	6.487908	-2.809780	-0.494275	1.628799	-0.073072	-0.574334	0.063739	0.812858
65164	-9.365231	2.223508	6.652197	-3.326339	-0.223234	1.402519	-0.078683	-0.585540	0.059640	0.804609
65165	-9.451805	1.669272	6.593188	-3.545552	0.268948	1.275300	-0.084848	-0.595233	0.055062	0.797162
65166	-9.452569	0.830234	6.266880	-3.516600	1.012883	0.953793	-0.090569	-0.602932	0.049642	0.791079
65167	-9.605357	0.294509	5.501284	-2.973951	1.501562	0.747206	-0.093502	-0.609465	0.045181	0.785982
65168	-9.671325	1.462900	5.554706	-3.081162	0.287125	1.001686	-0.093876	-0.615385	0.041483	0.781516
65169	-9.681325	1.971525	5.767836	-3.377883	-0.320957	1.112848	-0.094684	-0.620235	0.035983	0.777849
65170	-11.696297	1.545945	11.583340	-8.698645	0.097545	4.247566	-0.090812	-0.619016	0.035170	0.779317
65171	-10.419500	-1.780604	12.184388	-9.639213	3.119956	2.738417	-0.083369	-0.609180	0.036678	0.787784
65172	-8.128168	1.355575	9.230724	-6.775728	-0.114543	0.539877	-0.068914	-0.598688	0.045752	0.796699
65173	-7.063020	3.496645	4.682288	-2.403970	-2.288198	-1.267477	-0.060685	-0.591356	0.048609	0.802654
65174	-7.937759	3.273851	2.799350	-0.263925	-1.979927	-1.005183	-0.057885	-0.587549	0.047779	0.805700
65175	-8.193456	3.212488	2.147954	0.482967	-1.927966	-0.974358	-0.058956	-0.587067	0.044573	0.806158
65176	-8.881991	3.008793	2.430903	0.417776	-1.654353	-0.276422	-0.062960	-0.588943	0.039168	0.804766
65177	-9.440030	2.729034	2.779519	0.212097	-1.332911	0.309845	-0.068618	-0.591634	0.032441	0.802626
65178	-9.821814	2.695290	3.048905	0.033507	-1.286591	0.740599	-0.075274	-0.593817	0.025447	0.800667
65179	-10.119224	2.199706	3.016397	0.099570	-0.782121	0.944374	-0.083135	-0.594543	0.018036	0.799551
65180	-10.049450	1.396927	2.550256	0.463624	0.014835	0.638696	-0.091228	-0.593529	0.011394	0.799544
65181	-9.581739	0.981024	2.146809	0.707293	0.396435	0.022112	-0.098348	-0.591502	0.006860	0.800253
65182	-9.185425	0.989501	1.921867	0.856270	0.380073	-0.422972	-0.104451	-0.589353	0.004317	0.801084
65183	-8.967669	1.200150	2.122433	0.677728	0.157778	-0.545557	-0.110078	-0.587461	0.002216	0.801728
65184	-8.643797	1.113052	2.381294	0.358458	0.190332	-0.787177	-0.115583	-0.586184	-0.000255	0.801891
65185	-8.836800	0.634699	2.838563	-0.088032	0.655329	-0.533027	-0.120806	-0.585434	-0.003219	0.801663
65186	-9.005942	0.129094	3.128440	-0.405630	1.148566	-0.356100	-0.124592	-0.584976	-0.005421	0.801405
65187	-9.198819	0.234945	3.418898	-0.603500	1.044470	-0.070655	-0.126615	-0.584630	-0.006660	0.801331
65188	-9.093481	0.496241	3.281792	-0.448258	0.791555	-0.175244	-0.127047	-0.584423	-0.007047	0.801411
65189	-9.193587	1.163544	3.194145	-0.200117	0.175019	-0.014332	-0.126952	-0.584369	-0.007228	0.801463
65190	-9.289464	1.474237	3.061367	0.016779	-0.091568	0.078258	-0.127122	-0.584260	-0.007650	0.801512
65191	-9.250909	1.707844	3.006162	0.110674	-0.320747	0.057365	-0.127760	-0.583996	-0.008359	0.801596
65192	-9.094866	1.795514	3.078908	0.024389	-0.449537	-0.054745	-0.128983	-0.583735	-0.009410	0.801579
65193	-9.116597	1.739653	3.231147	-0.117301	-0.416697	0.005238	-0.130689	-0.583573	-0.010734	0.801404
65194	-9.104939	1.662504	3.346602	-0.240699	-0.364748	0.019535	-0.132627	-0.583488	-0.012221	0.801126
65195	-9.169757	1.660380	3.464199	-0.329462	-0.372011	0.116816	-0.134653	-0.583377	-0.013794	0.800843
65196	-9.116542	1.745203	3.405374	-0.263625	-0.457248	0.060259	-0.137060	-0.583070	-0.015662	0.800624
65197	-9.242960	1.629369	3.224394	-0.074752	-0.290006	0.106696	-0.139934	-0.582556	-0.017838	0.800455
65198	-9.287090	1.523572	3.103148	0.040167	-0.155889	0.095638	-0.143001	-0.581869	-0.020022	0.800361
65199	-9.265348	1.466338	3.020036	0.112963	-0.085498	0.041112	-0.146012	-0.581183	-0.022051	0.800263
65200	-9.221479	1.544646	3.046202	0.110893	-0.169442	0.018890	-0.149084	-0.580517	-0.024108	0.800121
65201	-9.130855	1.477343	3.059336	0.070347	-0.121056	-0.071282	-0.152388	-0.579876	-0.026277	0.799894
65202	-9.088676	1.336009	3.102185	-0.006288	0.001460	-0.116685	-0.155751	-0.579275	-0.028476	0.799607
65203	-9.061783	1.153082	3.144632	-0.093714	0.165734	-0.153600	-0.158878	-0.578776	-0.030463	0.799279
65204	-9.182695	1.030074	3.103142	-0.050928	0.323957	-0.070774	-0.161541	-0.578345	-0.032018	0.798997
65205	-9.332732	1.026793	3.048343	0.044857	0.379933	0.051400	-0.163638	-0.577886	-0.033127	0.798857
65206	-9.224881	1.086695	3.016982	0.068435	0.313908	-0.051628	-0.165332	-0.577408	-0.034050	0.798816
65207	-9.141878	1.216255	2.984018	0.120157	0.186859	-0.122062	-0.166760	-0.577096	-0.034788	0.798712
65208	-9.227164	1.227125	3.027501	0.109698	0.189972	-0.026778	-0.168148	-0.576937	-0.035618	0.798500
65209	-9.303648	1.207766	3.051909	0.102935	0.223538	0.049876	-0.169415	-0.576827	-0.036283	0.798281
65210	-9.248046	1.113161	3.096217	0.019233	0.293973	-0.001202	-0.170573	-0.576661	-0.036826	0.798129
65211	-9.217391	1.062854	3.201171	-0.100453	0.314273	-0.003071	-0.171503	-0.576606	-0.037064	0.797959
65212	-9.269764	1.057228	3.206103	-0.092672	0.336499	0.046498	-0.172300	-0.576458	-0.037303	0.797883
65213	-9.252138	1.018282	3.192528	-0.094886	0.376727	0.019924	-0.172826	-0.576261	-0.037530	0.797901
65214	-9.133951	1.065618	3.178588	-0.096255	0.310431	-0.088367	-0.173174	-0.576095	-0.037748	0.797935
65215	-9.057472	1.119155	3.127056	-0.051713	0.255519	-0.168994	-0.173320	-0.576085	-0.037903	0.797903
65216	-9.113408	1.229826	3.199561	-0.069105	0.144387	-0.077276	-0.173443	-0.576169	-0.038146	0.797804
65217	-9.118347	1.232443	3.261935	-0.125039	0.124260	-0.051933	-0.173548	-0.576219	-0.038424	0.797732
65218	-9.118279	1.281397	3.269598	-0.116724	0.072487	-0.042509	-0.173723	-0.576207	-0.038813	0.797684
65219	-9.084980	1.350144	3.297559	-0.129560	-0.011287	-0.054781	-0.173883	-0.576251	-0.039199	0.797598
65220	-9.147056	1.362046	3.284657	-0.096880	-0.009631	0.000736	-0.174156	-0.576220	-0.039719	0.797536
65221	-9.145078	1.407012	3.260868	-0.060075	-0.051414	-0.002533	-0.174452	-0.576175	-0.040278	0.797475
65222	-9.106599	1.401332	3.196578	-0.012303	-0.043406	-0.060254	-0.174771	-0.576146	-0.040798	0.797400
65223	-9.152469	1.409914	3.223994	-0.022101	-0.052229	-0.007257	-0.174953	-0.576218	-0.041170	0.797289
65224	-9.178134	1.478371	3.220932	0.007310	-0.113412	0.025261	-0.175151	-0.576342	-0.041491	0.797139
65225	-9.194007	1.517892	3.201123	0.040426	-0.144367	0.039138	-0.175475	-0.576379	-0.041829	0.797024
65226	-9.208604	1.438670	3.145019	0.069985	-0.051944	0.023557	-0.175916	-0.576317	-0.042029	0.796961
65227	-9.252954	1.347901	3.122491	0.074370	0.052148	0.045086	-0.176293	-0.576212	-0.042093	0.796950
65228	-9.116668	1.391685	3.115930	0.058803	-0.014547	-0.078430	-0.176591	-0.576140	-0.042045	0.796938
65229	-9.164287	1.373366	3.153821	0.031015	0.007710	-0.024130	-0.176896	-0.576137	-0.042020	0.796874
65230	-9.154101	1.333035	3.149473	0.018068	0.048377	-0.040735	-0.177188	-0.576152	-0.041949	0.796802
65231	-9.146767	1.301956	3.079340	0.068929	0.098903	-0.074811	-0.177478	-0.576096	-0.041844	0.796783
65232	-9.088848	1.295418	3.156432	-0.018496	0.076705	-0.104851	-0.177717	-0.576031	-0.041648	0.796787
65233	-9.062238	1.266703	3.180769	-0.056188	0.096355	-0.125916	-0.178024	-0.575926	-0.041580	0.796799
65234	-9.082116	1.196946	3.223656	-0.111992	0.158933	-0.103327	-0.178212	-0.575918	-0.041518	0.796765
65235	-9.129608	1.244601	3.256043	-0.114789	0.119367	-0.041650	-0.178215	-0.575989	-0.041391	0.796720
65236	-9.183995	1.289334	3.300485	-0.128454	0.079935	0.029998	-0.178133	-0.576080	-0.041237	0.796681
65237	-9.295646	1.263821	3.287195	-0.096001	0.134896	0.126353	-0.177968	-0.576096	-0.041029	0.796717
65238	-9.367528	1.290803	3.255275	-0.038379	0.136809	0.186981	-0.177673	-0.576022	-0.040686	0.796854
65239	-9.345560	1.350466	3.228980	0.002126	0.084163	0.166415	-0.177360	-0.575846	-0.040483	0.797061
65240	-9.228374	1.423834	3.187786	0.036174	-0.002966	0.053966	-0.177127	-0.575709	-0.040579	0.797207
65241	-9.223320	1.512893	3.274542	-0.012283	-0.116187	0.090213	-0.177055	-0.575693	-0.041068	0.797209
65242	-9.157591	1.635584	3.379893	-0.085379	-0.282735	0.080394	-0.177140	-0.575766	-0.041685	0.797106
65243	-9.020903	1.779476	3.475635	-0.161660	-0.482732	0.003834	-0.177606	-0.575729	-0.042479	0.796986
65244	-8.987413	1.899257	3.550792	-0.195651	-0.627870	0.013624	-0.178536	-0.575505	-0.043378	0.796892
65245	-9.152637	1.776061	3.599956	-0.227639	-0.488101	0.167030	-0.180252	-0.575055	-0.044554	0.796766
65246	-9.499813	1.554581	3.640554	-0.232184	-0.208333	0.474172	-0.182428	-0.574409	-0.045968	0.796656
65247	-9.585810	1.353160	3.618396	-0.242333	0.010551	0.519434	-0.184854	-0.573645	-0.047442	0.796561
65248	-9.608311	1.182148	3.499956	-0.173690	0.216519	0.477586	-0.187024	-0.572884	-0.048481	0.796540
65249	-9.452010	1.280587	3.408329	-0.086126	0.128213	0.315156	-0.188802	-0.572091	-0.048774	0.796672
65250	-9.189044	1.254097	3.210674	0.023116	0.169488	0.000078	-0.190283	-0.571361	-0.048132	0.796883
65251	-8.979807	1.249336	3.119986	0.053795	0.182401	-0.226458	-0.191554	-0.570769	-0.046662	0.797090
65252	-8.970568	1.060082	2.938397	0.150621	0.448640	-0.325596	-0.192387	-0.570353	-0.044416	0.797315
65253	-9.067848	1.051603	2.987274	0.129783	0.513976	-0.222363	-0.192832	-0.570008	-0.041616	0.797606
65254	-9.111195	1.071912	3.019517	0.119845	0.546598	-0.170747	-0.193177	-0.569564	-0.038758	0.797983
65255	-9.160518	1.172306	3.116382	0.085146	0.487095	-0.078390	-0.193728	-0.568882	-0.036446	0.798445
65256	-9.156105	1.049925	3.038530	0.121343	0.661390	-0.131934	-0.194512	-0.568085	-0.034799	0.798895
65257	-9.245226	0.871335	2.908097	0.214364	0.920498	-0.127798	-0.195139	-0.567259	-0.033346	0.799391
65258	-9.286850	0.750284	2.829253	0.268292	1.095993	-0.141084	-0.195126	-0.566557	-0.031567	0.799964
65259	-9.183757	0.802893	2.815805	0.280600	1.050886	-0.235024	-0.194310	-0.566150	-0.029278	0.800538
65260	-9.116700	0.996297	2.950123	0.211228	0.843725	-0.218235	-0.192920	-0.566080	-0.026748	0.801012
65261	-9.060198	1.117214	3.060867	0.134347	0.708676	-0.211440	-0.191254	-0.566295	-0.024285	0.801338
65262	-9.198938	1.141147	3.174941	0.074136	0.714121	-0.040919	-0.189456	-0.566498	-0.021910	0.801689
65263	-9.267997	1.070398	3.328494	-0.067156	0.778800	0.061993	-0.187342	-0.566422	-0.019345	0.802306
65264	-9.154848	0.977107	3.363029	-0.147387	0.846872	-0.048623	-0.184787	-0.565733	-0.016320	0.803451
65265	-8.894018	0.876679	3.425524	-0.287882	0.879223	-0.286391	-0.181423	-0.564963	-0.012580	0.804826
65266	-8.883871	0.775914	3.550976	-0.411135	0.971983	-0.272208	-0.176656	-0.564364	-0.007812	0.806365
65267	-8.882206	1.113566	3.749192	-0.476865	0.643989	-0.140675	-0.170534	-0.564004	-0.002187	0.807968
65268	-8.831472	1.526540	3.786944	-0.403800	0.261555	-0.094939	-0.163809	-0.563684	0.003639	0.809577
65269	-8.668444	1.769064	3.623275	-0.238167	0.038301	-0.255417	-0.156824	-0.563551	0.009414	0.811004
65270	-8.691298	2.096684	3.545837	-0.090666	-0.239919	-0.198017	-0.149625	-0.563794	0.015200	0.812107
65271	-8.691197	2.508998	3.580174	-0.053150	-0.631453	-0.104545	-0.142810	-0.564228	0.020102	0.812926
65272	-8.673549	2.830021	3.705077	-0.136305	-0.961145	-0.013472	-0.136961	-0.564726	0.023743	0.813488
65273	-8.686213	3.024624	3.814025	-0.219912	-1.166518	0.073478	-0.132654	-0.564984	0.025870	0.813958
65274	-8.717889	2.825292	3.708572	-0.158825	-0.971723	0.024379	-0.129728	-0.565047	0.026691	0.814358
65275	-8.704995	2.696852	3.694467	-0.175612	-0.870312	-0.019286	-0.127579	-0.565093	0.026725	0.814665
65276	-8.685401	2.542610	3.573217	-0.096478	-0.739063	-0.111483	-0.125816	-0.565215	0.026311	0.814868
65277	-8.691778	2.485212	3.489162	-0.027810	-0.699233	-0.147917	-0.124271	-0.565408	0.025907	0.814985
65278	-8.824970	2.451540	3.446050	0.047702	-0.654893	-0.048763	-0.122915	-0.565541	0.025480	0.815111
65279	-8.858814	2.461099	3.415937	0.087948	-0.675392	-0.027990	-0.121890	-0.565593	0.024887	0.815247
65280	-8.949698	2.318521	3.328511	0.177428	-0.529727	-0.002514	-0.121119	-0.565624	0.024129	0.815363
65281	-9.025733	2.234549	3.375948	0.146269	-0.455444	0.067861	-0.120368	-0.565656	0.023470	0.815472
65282	-9.073436	2.166322	3.339414	0.186354	-0.392994	0.085933	-0.119405	-0.565671	0.023160	0.815612
65283	-9.061347	2.233620	3.346658	0.187774	-0.476259	0.088580	-0.118372	-0.565625	0.023086	0.815796
65284	-8.968106	2.340200	3.372796	0.150329	-0.613418	0.030093	-0.117330	-0.565628	0.023285	0.815939
65285	-9.003439	2.365063	3.436313	0.105339	-0.643175	0.088773	-0.116481	-0.565678	0.023472	0.816021
65286	-8.980660	2.420462	3.540169	0.007247	-0.715578	0.113620	-0.115823	-0.565757	0.023766	0.816051
65287	-8.997899	2.467607	3.626713	-0.062577	-0.766191	0.167962	-0.115611	-0.565768	0.023936	0.816069
65288	-8.981587	2.446325	3.714465	-0.150280	-0.756064	0.180132	-0.116110	-0.565562	0.023579	0.816151
65289	-8.871992	2.222957	3.620806	-0.124868	-0.554622	0.007741	-0.117346	-0.565242	0.022684	0.816221
65290	-8.768825	2.013719	3.605094	-0.166929	-0.372874	-0.128827	-0.119051	-0.564961	0.021428	0.816203
65291	-8.875368	1.787845	3.608510	-0.163030	-0.132833	-0.068680	-0.121079	-0.564744	0.019825	0.816095
65292	-8.956464	1.589485	3.589188	-0.144869	0.075293	-0.035146	-0.123168	-0.564569	0.018102	0.815944
65293	-8.981369	1.542126	3.628554	-0.175901	0.117359	-0.006320	-0.125198	-0.564394	0.016343	0.815792
65294	-8.961660	1.576285	3.609809	-0.153318	0.075152	-0.025063	-0.127150	-0.564226	0.014559	0.815641
65295	-8.959101	1.601627	3.599643	-0.134378	0.043786	-0.026567	-0.129121	-0.564050	0.012744	0.815483
65296	-8.990329	1.604272	3.573897	-0.094129	0.044365	-0.006485	-0.131241	-0.563883	0.010883	0.815287
65297	-8.996446	1.472965	3.488345	-0.033136	0.177570	-0.053508	-0.133275	-0.563710	0.009167	0.815098
65298	-8.949691	1.421633	3.460238	-0.028681	0.216851	-0.115090	-0.135055	-0.563583	0.007801	0.814907
65299	-8.921833	1.377881	3.422201	-0.010018	0.256637	-0.161617	-0.136459	-0.563567	0.006815	0.814693
65300	-8.963503	1.432822	3.469529	-0.029929	0.206584	-0.097162	-0.137591	-0.563620	0.006021	0.814472
65301	-8.982505	1.432573	3.426751	0.013840	0.216906	-0.095021	-0.138462	-0.563691	0.005435	0.814280
65302	-9.003117	1.452529	3.400287	0.047022	0.206788	-0.082172	-0.139077	-0.563761	0.005094	0.814129
65303	-9.024449	1.485249	3.438371	0.023390	0.176624	-0.043486	-0.139328	-0.563836	0.005069	0.814034
65304	-9.008939	1.641012	3.467707	0.021504	0.021626	-0.020958	-0.139384	-0.563953	0.005248	0.813942
65305	-8.985057	1.771398	3.514609	-0.005265	-0.112939	-0.004080	-0.139452	-0.564076	0.005408	0.813844
65306	-9.018033	1.804005	3.579037	-0.050099	-0.142607	0.054735	-0.139690	-0.564137	0.005453	0.813761
65307	-8.984558	1.771688	3.558113	-0.049114	-0.113173	0.011065	-0.140074	-0.564109	0.005381	0.813715
65308	-8.947987	1.776052	3.638503	-0.133228	-0.134576	0.006868	-0.140563	-0.564036	0.005169	0.813682
65309	-8.932067	1.805550	3.647021	-0.139030	-0.166083	0.000349	-0.141138	-0.564037	0.004873	0.813583
65310	-8.909977	1.827632	3.689368	-0.180353	-0.197587	-0.001072	-0.141995	-0.564046	0.004331	0.813431
65311	-8.948745	1.791511	3.701755	-0.186359	-0.155284	0.032804	-0.143173	-0.563994	0.003542	0.813265
65312	-8.909157	1.684382	3.648567	-0.171544	-0.054206	-0.040794	-0.144569	-0.563930	0.002560	0.813066
65313	-8.903570	1.619126	3.646580	-0.184804	0.007139	-0.057767	-0.146066	-0.563907	0.001563	0.812817
65314	-8.972930	1.589683	3.596748	-0.123347	0.060338	-0.016856	-0.147555	-0.563878	0.000639	0.812569
65315	-8.953574	1.580924	3.572370	-0.108149	0.069671	-0.044828	-0.149030	-0.563784	-0.000242	0.812365
65316	-8.938328	1.555926	3.464475	-0.018608	0.109532	-0.101619	-0.150397	-0.563741	-0.001039	0.812143
65317	-8.866531	1.640368	3.404487	0.032451	0.024386	-0.174479	-0.151666	-0.563851	-0.001651	0.811829
65318	-8.842908	1.721462	3.368786	0.072884	-0.048891	-0.194919	-0.152881	-0.564042	-0.002197	0.811468
65319	-8.871018	1.761699	3.450047	0.010506	-0.088919	-0.133155	-0.154189	-0.564300	-0.002672	0.811039
65320	-8.940100	1.638764	3.482485	-0.034926	0.047112	-0.079487	-0.155657	-0.564509	-0.003117	0.810611
65321	-9.028434	1.474859	3.423270	0.001062	0.244938	-0.048129	-0.157064	-0.564545	-0.003419	0.810313
65322	-9.034778	1.266637	3.334820	0.029480	0.471006	-0.110632	-0.158122	-0.564510	-0.003487	0.810132
65323	-8.921844	1.231586	3.202470	0.104463	0.507643	-0.267882	-0.158656	-0.564609	-0.003449	0.809959
65324	-8.826804	1.383273	3.268746	0.045863	0.329840	-0.304811	-0.158691	-0.565032	-0.003502	0.809656
65325	-8.880619	1.703892	3.438475	-0.025632	0.002868	-0.138441	-0.158505	-0.565758	-0.003810	0.809185
65326	-9.016057	1.924750	3.689507	-0.175295	-0.228403	0.113212	-0.158491	-0.566500	-0.004401	0.808665
65327	-9.173545	2.134520	3.850953	-0.236334	-0.428603	0.350991	-0.158798	-0.567006	-0.005116	0.808246
65328	-9.064428	2.170655	3.721751	-0.146682	-0.474293	0.211312	-0.159650	-0.567110	-0.005937	0.808000
65329	-8.809952	2.163243	3.563490	-0.079252	-0.504020	-0.079599	-0.161088	-0.567111	-0.006911	0.807705
65330	-8.751214	1.920455	3.518243	-0.118658	-0.279782	-0.192002	-0.162875	-0.567258	-0.008128	0.807233
65331	-8.829463	1.796230	3.513687	-0.128519	-0.143794	-0.143424	-0.164708	-0.567579	-0.009587	0.806619
65332	-9.013100	1.847174	3.604637	-0.151245	-0.168504	0.066085	-0.166533	-0.567943	-0.011144	0.805967
65333	-9.060720	1.981214	3.557917	-0.064060	-0.280612	0.116954	-0.168570	-0.568215	-0.012923	0.805325
65334	-9.146353	2.004708	3.468421	0.047338	-0.268152	0.168817	-0.170926	-0.568249	-0.014846	0.804771
65335	-9.187640	1.861498	3.318843	0.157662	-0.092797	0.130106	-0.173551	-0.568091	-0.016745	0.804284
65336	-9.188812	1.722432	3.270988	0.165128	0.051027	0.090369	-0.176270	-0.567839	-0.018543	0.803830
65337	-9.190084	1.555082	3.250298	0.136933	0.215443	0.055200	-0.178915	-0.567712	-0.020427	0.803291
65338	-9.201159	1.474850	3.314515	0.056055	0.277707	0.073781	-0.181300	-0.567728	-0.022330	0.802694
65339	-9.222357	1.451621	3.363349	0.007514	0.288753	0.106373	-0.183469	-0.567782	-0.024238	0.802107
65340	-9.232067	1.518915	3.299528	0.086988	0.237261	0.105034	-0.185511	-0.567770	-0.026122	0.801587
65341	-9.245613	1.607675	3.321316	0.099208	0.145159	0.140513	-0.187558	-0.567697	-0.028144	0.801093
65342	-9.177791	1.619202	3.340667	0.068081	0.101934	0.086741	-0.189747	-0.567603	-0.030394	0.800562
65343	-9.155535	1.614601	3.451023	-0.037133	0.060333	0.103727	-0.191999	-0.567520	-0.032757	0.799990
65344	-9.115720	1.546289	3.494383	-0.107621	0.090030	0.070550	-0.194271	-0.567362	-0.035025	0.799458
65345	-9.145092	1.513987	3.592488	-0.195025	0.091336	0.126349	-0.196322	-0.567151	-0.037036	0.799016
65346	-9.080858	1.551690	3.568164	-0.172715	0.037747	0.065078	-0.198258	-0.566866	-0.038837	0.798654
65347	-9.022178	1.604256	3.544677	-0.143373	-0.025952	0.011611	-0.200248	-0.566563	-0.040577	0.798286
65348	-9.043041	1.615962	3.473897	-0.064316	-0.015220	0.008286	-0.202299	-0.566251	-0.042301	0.797901
65349	-9.026072	1.621002	3.504335	-0.088082	-0.036267	0.004080	-0.204488	-0.565894	-0.044033	0.797503
65350	-9.059118	1.584196	3.502364	-0.083495	0.005895	0.027883	-0.206659	-0.565430	-0.045656	0.797181
65351	-9.024094	1.563875	3.472668	-0.065076	0.025325	-0.018070	-0.208795	-0.564867	-0.047065	0.796941
65352	-8.976501	1.551756	3.451861	-0.053835	0.034197	-0.071190	-0.210866	-0.564244	-0.048281	0.796764
65353	-8.959292	1.559546	3.435707	-0.031782	0.033803	-0.091421	-0.212824	-0.563710	-0.049333	0.796557
65354	-8.994701	1.559036	3.389417	0.025988	0.065680	-0.075214	-0.214640	-0.563242	-0.050272	0.796342
65355	-9.042348	1.605795	3.446459	0.013527	0.026412	-0.003517	-0.216441	-0.562773	-0.051161	0.796129
65356	-9.132397	1.549034	3.444352	0.025380	0.111832	0.069144	-0.218268	-0.562180	-0.052135	0.795987
65357	-9.125987	1.488079	3.442241	0.011829	0.173506	0.052239	-0.219942	-0.561505	-0.052978	0.795946
65358	-9.059177	1.487571	3.417753	0.026522	0.171392	-0.018174	-0.221486	-0.560833	-0.053655	0.795947
65359	-8.956602	1.503908	3.380647	0.048131	0.147653	-0.123152	-0.222929	-0.560284	-0.054331	0.795885
65360	-8.959436	1.520598	3.387719	0.056219	0.137518	-0.115354	-0.224316	-0.559924	-0.055068	0.795698
65361	-8.976095	1.532104	3.535614	-0.059356	0.087258	-0.045034	-0.225637	-0.559636	-0.055850	0.795472
65362	-8.979044	1.580677	3.631675	-0.117989	0.016025	0.000398	-0.227007	-0.559315	-0.056635	0.795253
65363	-9.019145	1.675335	3.636903	-0.066481	-0.054500	0.055007	-0.228605	-0.558851	-0.057568	0.795054
65364	-8.916429	1.673245	3.578053	-0.034571	-0.057794	-0.060745	-0.230508	-0.558240	-0.058671	0.794854
65365	-8.898413	1.552676	3.566380	-0.070190	0.054820	-0.101679	-0.232501	-0.557604	-0.059744	0.794639
65366	-8.899481	1.456786	3.566209	-0.101905	0.147727	-0.116883	-0.234372	-0.557039	-0.060713	0.794412
65367	-8.822424	1.539780	3.664644	-0.164330	0.022420	-0.137555	-0.236142	-0.556587	-0.061683	0.794130
65368	-8.826006	1.587430	3.677939	-0.148692	-0.018269	-0.121294	-0.237951	-0.556202	-0.062685	0.793782
65369	-8.835860	1.647422	3.691087	-0.125848	-0.068935	-0.097238	-0.239792	-0.555792	-0.063837	0.793423
65370	-8.752552	1.685131	3.629384	-0.072121	-0.102416	-0.189613	-0.241677	-0.555373	-0.065025	0.793048
65371	-8.877152	1.789105	3.679624	-0.030377	-0.169844	-0.039531	-0.243675	-0.554967	-0.066221	0.792622
65372	-8.992564	1.772278	3.653169	0.020885	-0.104384	0.053491	-0.245875	-0.554465	-0.067502	0.792185
65373	-9.005953	1.768509	3.632852	0.046728	-0.083223	0.057638	-0.248132	-0.553959	-0.068822	0.791722
65374	-9.053007	1.751805	3.557861	0.122265	-0.020138	0.070064	-0.250473	-0.553392	-0.070329	0.791249
65375	-9.079302	1.693353	3.534064	0.130099	0.052906	0.075237	-0.252788	-0.552795	-0.071845	0.790793
65376	-9.030430	1.593326	3.418130	0.175418	0.174573	-0.029554	-0.254947	-0.552257	-0.073098	0.790361
65377	-8.948016	1.571008	3.372475	0.185924	0.192587	-0.125738	-0.256873	-0.551917	-0.074057	0.789886
65378	-8.893322	1.568382	3.381309	0.161606	0.180669	-0.172901	-0.258506	-0.551879	-0.074789	0.789310
65379	-8.868248	1.581290	3.477233	0.074159	0.129194	-0.157882	-0.259991	-0.552032	-0.075401	0.788657
65380	-8.854450	1.592940	3.530006	0.022000	0.098332	-0.148862	-0.261451	-0.552300	-0.075979	0.787931
65381	-8.855174	1.566839	3.596894	-0.058848	0.098722	-0.127982	-0.262891	-0.552627	-0.076468	0.787175
65382	-8.848441	1.529621	3.631256	-0.118792	0.119358	-0.128044	-0.264421	-0.552794	-0.077076	0.786486
65383	-8.862664	1.403357	3.663875	-0.214588	0.222748	-0.125349	-0.265763	-0.553005	-0.077587	0.785835
65384	-8.838538	1.340250	3.684639	-0.278173	0.263259	-0.151119	-0.266873	-0.553172	-0.078042	0.785295
65385	-8.884399	1.372206	3.730222	-0.297878	0.234384	-0.087135	-0.267604	-0.553427	-0.078319	0.784839
65386	-8.944711	1.477968	3.754987	-0.260019	0.154514	-0.004493	-0.268028	-0.553729	-0.078504	0.784463
