// General information: 
//  MT Manager version: 2021.0.0 
//  XDA version: 2021.0.0 build 5908 rev 109668 built on 2021-04-19
// Device information: 
//  DeviceId: 00B43DFB
//  ProductCode: MTW2-3A7G6
//  Firmware Version: 4.3.5
//  Hardware Version: 1.1.0
// Device settings: 
//  Filter Profile: human(46.1)
//  Option Flags: Orientation Smoother Disabled, Position/Velocity Smoother Disabled, Continuous Zero Rotation Update Disabled, AHS Disabled, ICC Disabled
// Coordinate system: ENU
PacketCounter	Acc_X	Acc_Y	Acc_Z	FreeAcc_E	FreeAcc_N	FreeAcc_U	Quat_q0	Quat_q1	Quat_q2	Quat_q3
64468	-9.528652	0.786979	2.669970	-0.076346	-0.210308	0.111688	0.073480	0.607987	0.019707	-0.790293
64469	-9.528902	0.747748	2.687252	-0.106027	-0.172280	0.114018	0.073281	0.608330	0.019514	-0.790053
64470	-9.492615	0.714623	2.663892	-0.106074	-0.141996	0.070901	0.073218	0.608719	0.019661	-0.789756
64471	-9.532701	0.623848	2.648057	-0.102866	-0.051885	0.099956	0.073167	0.609138	0.019994	-0.789429
64472	-9.544758	0.588979	2.650250	-0.116148	-0.024002	0.109966	0.073087	0.609519	0.020415	-0.789132
64473	-9.542436	0.588852	2.608891	-0.086100	-0.028190	0.097051	0.072881	0.609919	0.020820	-0.788831
64474	-9.568869	0.620595	2.624463	-0.099347	-0.068867	0.128217	0.072580	0.610309	0.021190	-0.788547
64475	-9.582671	0.624344	2.601898	-0.082807	-0.079219	0.135886	0.072241	0.610708	0.021577	-0.788258
64476	-9.598310	0.629485	2.600413	-0.085243	-0.093633	0.150741	0.071892	0.611051	0.021961	-0.788014
64477	-9.583994	0.638419	2.612514	-0.106871	-0.115888	0.140246	0.071502	0.611401	0.022299	-0.787768
64478	-9.572596	0.626071	2.606402	-0.112156	-0.113970	0.126845	0.071070	0.611662	0.022542	-0.787598
64479	-9.532133	0.594749	2.574709	-0.101347	-0.091685	0.078002	0.070623	0.611923	0.022719	-0.787430
64480	-9.517454	0.619456	2.619709	-0.150179	-0.130080	0.076148	0.070151	0.612149	0.022741	-0.787296
64481	-9.478485	0.645129	2.595457	-0.136694	-0.162135	0.033595	0.069664	0.612289	0.022758	-0.787230
64482	-9.495967	0.644898	2.610891	-0.149944	-0.168525	0.054184	0.069098	0.612409	0.022715	-0.787188
64483	-9.493142	0.595204	2.612954	-0.160644	-0.126440	0.049348	0.068542	0.612463	0.022742	-0.787194
64484	-9.534868	0.609972	2.615616	-0.152019	-0.145072	0.091002	0.067968	0.612530	0.022750	-0.787191
64485	-9.544554	0.627404	2.611563	-0.143624	-0.167481	0.100119	0.067480	0.612522	0.022745	-0.787239
64486	-9.587735	0.684889	2.590744	-0.105144	-0.224373	0.139413	0.067073	0.612522	0.022796	-0.787273
64487	-9.608612	0.651513	2.581543	-0.093957	-0.194508	0.155642	0.066793	0.612436	0.022975	-0.787358
64488	-9.556967	0.522705	2.536883	-0.077728	-0.071442	0.088498	0.066444	0.612392	0.023042	-0.787420
64489	-9.532850	0.515690	2.582298	-0.126563	-0.075515	0.076080	0.065896	0.612353	0.022821	-0.787503
64490	-9.487487	0.654948	2.616406	-0.151175	-0.222380	0.047061	0.065243	0.612300	0.022354	-0.787612
64491	-9.515616	0.791099	2.622683	-0.131807	-0.355656	0.082129	0.064671	0.612227	0.021888	-0.787728
64492	-9.549787	0.806941	2.567279	-0.066205	-0.362105	0.102200	0.064404	0.612124	0.021652	-0.787837
64493	-9.553513	0.734856	2.586854	-0.090378	-0.291885	0.107397	0.064427	0.612012	0.021648	-0.787923
64494	-9.492602	0.601440	2.576565	-0.109553	-0.162721	0.039796	0.064613	0.611953	0.021782	-0.787949
64495	-9.532254	0.517760	2.612576	-0.144320	-0.080717	0.083279	0.064794	0.611957	0.021932	-0.787927
64496	-9.535318	0.496295	2.593003	-0.127790	-0.056771	0.080376	0.064947	0.611974	0.021991	-0.787900
64497	-9.478226	0.470764	2.569601	-0.122528	-0.032299	0.018141	0.065165	0.611966	0.022096	-0.787885
64498	-9.520529	0.432806	2.463760	-0.016140	0.021642	0.030949	0.065325	0.612030	0.022076	-0.787823
64499	-9.525783	0.416104	2.463747	-0.018594	0.041534	0.035240	0.065384	0.612079	0.021874	-0.787785
64500	-9.481572	0.407171	2.446947	-0.015975	0.051777	-0.012146	0.065115	0.612164	0.021524	-0.787751
64501	-9.399382	0.519048	2.484419	-0.059840	-0.068594	-0.077091	0.064681	0.612242	0.021207	-0.787735
64502	-9.500558	0.658667	2.582918	-0.116002	-0.210641	0.051798	0.064252	0.612415	0.020935	-0.787643
64503	-9.601765	0.748849	2.580367	-0.082553	-0.292124	0.153296	0.063900	0.612591	0.020583	-0.787544
64504	-9.574902	0.759797	2.495428	-0.009218	-0.294027	0.106822	0.063920	0.612664	0.020398	-0.787490
64505	-9.517188	0.724056	2.441107	0.023114	-0.253422	0.035936	0.064376	0.612707	0.020454	-0.787419
64506	-9.440365	0.497504	2.471418	-0.053152	-0.033555	-0.041712	0.065059	0.612715	0.020713	-0.787349
64507	-9.450968	0.295799	2.395194	-0.003908	0.179642	-0.060100	0.065321	0.612813	0.020615	-0.787254
64508	-9.450347	0.361943	2.501632	-0.101487	0.106859	-0.031251	0.064922	0.612949	0.020036	-0.787196
64509	-9.472642	0.570872	2.579069	-0.150084	-0.102983	0.019673	0.064101	0.613208	0.019172	-0.787083
64510	-9.515845	0.700772	2.544688	-0.098028	-0.222264	0.059436	0.063394	0.613501	0.018493	-0.786928
64511	-9.606346	0.766938	2.521452	-0.053768	-0.277519	0.144615	0.062950	0.613795	0.018103	-0.786743
64512	-9.711707	0.808766	2.573561	-0.080057	-0.316844	0.261426	0.062923	0.613970	0.018171	-0.786607
64513	-9.722740	0.676662	2.519473	-0.044452	-0.182126	0.252209	0.063159	0.614109	0.018564	-0.786471
64514	-9.738209	0.509695	2.436613	0.015654	-0.011249	0.238642	0.063406	0.614292	0.019059	-0.786296
64515	-9.601457	0.448709	2.430874	-0.023080	0.033995	0.101785	0.063466	0.614502	0.019454	-0.786118
64516	-9.524543	0.339527	2.444151	-0.072268	0.129049	0.025209	0.063341	0.614739	0.019736	-0.785935
64517	-9.522022	0.366834	2.466652	-0.096573	0.092629	0.029564	0.062795	0.614972	0.019768	-0.785796
64518	-9.562236	0.531849	2.491420	-0.096164	-0.079027	0.082306	0.061976	0.615183	0.019725	-0.785697
64519	-9.614646	0.681304	2.578898	-0.155413	-0.242828	0.160937	0.061049	0.615409	0.019717	-0.785593
64520	-9.629172	0.825189	2.596896	-0.157895	-0.398182	0.185426	0.060317	0.615653	0.019909	-0.785453
64521	-9.673415	0.887096	2.578738	-0.127515	-0.467157	0.226101	0.060040	0.615842	0.020478	-0.785312
64522	-9.621713	0.738541	2.500868	-0.084153	-0.327914	0.150371	0.060147	0.615948	0.021329	-0.785198
64523	-9.585307	0.620482	2.482329	-0.089625	-0.223079	0.105340	0.060412	0.616005	0.022242	-0.785107
64524	-9.554613	0.472322	2.456453	-0.089593	-0.086080	0.063163	0.060729	0.616029	0.023126	-0.785039
64525	-9.603171	0.404972	2.372331	-0.004816	-0.016136	0.087442	0.060950	0.616012	0.023817	-0.785014
64526	-9.549843	0.299091	2.367645	-0.023988	0.078792	0.030478	0.061032	0.615933	0.024285	-0.785055
64527	-9.554229	0.297538	2.410121	-0.061782	0.070474	0.044885	0.060908	0.615847	0.024514	-0.785126
64528	-9.524371	0.297138	2.425160	-0.080850	0.062422	0.019551	0.060590	0.615771	0.024583	-0.785207
64529	-9.580959	0.405819	2.482936	-0.107474	-0.053032	0.092365	0.060079	0.615670	0.024549	-0.785327
64530	-9.629256	0.503425	2.574521	-0.169464	-0.162409	0.164740	0.059527	0.615552	0.024532	-0.785462
64531	-9.670905	0.632904	2.558685	-0.125520	-0.293764	0.205884	0.059009	0.615446	0.024668	-0.785580
64532	-9.661111	0.687577	2.597552	-0.155303	-0.362353	0.207376	0.058740	0.615328	0.025159	-0.785676
64533	-9.617723	0.653499	2.575702	-0.144504	-0.340028	0.158540	0.058740	0.615204	0.025891	-0.785751
64534	-9.556615	0.561439	2.551294	-0.141956	-0.261116	0.090083	0.059029	0.615045	0.026850	-0.785820
64535	-9.451917	0.359922	2.469149	-0.107091	-0.068968	-0.037784	0.059434	0.614867	0.027806	-0.785897
64536	-9.405914	0.239046	2.393305	-0.055571	0.048078	-0.104399	0.059626	0.614727	0.028448	-0.785968
64537	-9.421923	0.301178	2.408446	-0.055248	-0.020705	-0.083326	0.059537	0.614608	0.028744	-0.786057
64538	-9.494585	0.377614	2.416474	-0.032784	-0.098001	-0.008688	0.059372	0.614470	0.028903	-0.786172
64539	-9.552930	0.388472	2.432584	-0.029482	-0.110806	0.052083	0.059258	0.614336	0.029015	-0.786281
64540	-9.588630	0.386958	2.483644	-0.067020	-0.115382	0.099035	0.059091	0.614222	0.029014	-0.786383
64541	-9.578406	0.449544	2.523296	-0.096834	-0.183914	0.100525	0.058966	0.614103	0.028994	-0.786486
64542	-9.524501	0.489901	2.538823	-0.116087	-0.229907	0.053183	0.058982	0.613948	0.029101	-0.786602
64543	-9.528678	0.380224	2.509019	-0.096748	-0.119361	0.046919	0.059098	0.613855	0.029357	-0.786656
64544	-9.538896	0.325895	2.503959	-0.093664	-0.067236	0.054088	0.059324	0.613750	0.029757	-0.786706
64545	-9.521550	0.344541	2.411392	-0.004034	-0.079267	0.015188	0.059450	0.613670	0.030048	-0.786748
64546	-9.495021	0.336844	2.437479	-0.033912	-0.079169	-0.004386	0.059465	0.613555	0.030282	-0.786827
64547	-9.401590	0.319317	2.398725	-0.018115	-0.066378	-0.104906	0.059625	0.613435	0.030700	-0.786892
64548	-9.515893	0.266278	2.381648	0.021027	-0.009169	0.000307	0.059719	0.613394	0.030989	-0.786906
64549	-9.551670	0.288413	2.470824	-0.051839	-0.041947	0.057374	0.059514	0.613322	0.030936	-0.786980
64550	-9.545213	0.342406	2.520306	-0.092484	-0.102477	0.064621	0.059174	0.613280	0.030696	-0.787048
64551	-9.550242	0.448670	2.510693	-0.067946	-0.207309	0.069844	0.058847	0.613285	0.030541	-0.787074
64552	-9.560848	0.506012	2.576756	-0.122042	-0.274029	0.097688	0.058685	0.613321	0.030676	-0.787053
64553	-9.558679	0.436758	2.561495	-0.116403	-0.207697	0.090023	0.058821	0.613293	0.031029	-0.787051
64554	-9.511568	0.332075	2.492631	-0.073078	-0.102687	0.024870	0.059156	0.613206	0.031586	-0.787071
64555	-9.509133	0.238602	2.439002	-0.032128	-0.008096	0.007098	0.059477	0.613143	0.032097	-0.787075
64556	-9.515036	0.203680	2.430701	-0.026430	0.023966	0.009962	0.059570	0.613143	0.032408	-0.787056
64557	-9.542241	0.241044	2.475982	-0.058651	-0.020775	0.048300	0.059410	0.613158	0.032525	-0.787051
64558	-9.560387	0.295757	2.479131	-0.050199	-0.077483	0.067901	0.059087	0.613165	0.032428	-0.787074
64559	-9.572754	0.383082	2.490487	-0.047351	-0.166364	0.084634	0.058909	0.613205	0.032341	-0.787060
64560	-9.624781	0.352024	2.486723	-0.035846	-0.132721	0.133428	0.058765	0.613230	0.032224	-0.787056
64561	-9.570205	0.342070	2.514365	-0.076894	-0.128332	0.087085	0.058766	0.613209	0.032145	-0.787076
64562	-9.540813	0.300816	2.448490	-0.025285	-0.079847	0.041535	0.058753	0.613187	0.032042	-0.787098
64563	-9.554732	0.305379	2.447588	-0.019565	-0.082143	0.054922	0.058773	0.613128	0.031980	-0.787145
64564	-9.471587	0.265533	2.440496	-0.036268	-0.045269	-0.028306	0.058858	0.613059	0.032015	-0.787191
64565	-9.518241	0.191653	2.442628	-0.035583	0.030628	0.015734	0.058886	0.613050	0.032022	-0.787196
64566	-9.522546	0.173164	2.444976	-0.038075	0.050574	0.020052	0.058876	0.612965	0.031826	-0.787271
64567	-9.518549	0.186128	2.436095	-0.027134	0.042401	0.014288	0.058846	0.612900	0.031510	-0.787336
64568	-9.461331	0.242567	2.440115	-0.035592	-0.011573	-0.038826	0.058762	0.612788	0.031041	-0.787448
64569	-9.475973	0.240985	2.431097	-0.021677	-0.001830	-0.026886	0.058493	0.612737	0.030434	-0.787532
64570	-9.572325	0.290634	2.439235	0.000965	-0.041111	0.069724	0.057948	0.612713	0.029699	-0.787618
64571	-9.591442	0.489867	2.576808	-0.102131	-0.248849	0.127298	0.057124	0.612727	0.028828	-0.787700
64572	-9.598590	0.625798	2.625478	-0.131906	-0.385968	0.149808	0.056457	0.612790	0.028216	-0.787722
64573	-9.618105	0.673559	2.617254	-0.115335	-0.430635	0.167939	0.056132	0.612855	0.027964	-0.787703
64574	-9.609706	0.575995	2.616181	-0.128683	-0.334121	0.156988	0.056310	0.612854	0.028098	-0.787686
64575	-9.570988	0.421764	2.520226	-0.063430	-0.172859	0.091823	0.056770	0.612813	0.028470	-0.787672
64576	-9.508489	0.240514	2.429519	-0.011958	0.012808	0.004209	0.057369	0.612754	0.029019	-0.787655
64577	-9.512072	0.142481	2.406328	-0.000776	0.111291	-0.000560	0.057659	0.612794	0.029364	-0.787589
64578	-9.546422	0.139794	2.432825	-0.019325	0.110835	0.039201	0.057692	0.612825	0.029525	-0.787556
64579	-9.564599	0.195842	2.434962	-0.010945	0.054172	0.058781	0.057449	0.612872	0.029425	-0.787542
64580	-9.614193	0.274027	2.484515	-0.037607	-0.026965	0.121017	0.057074	0.612887	0.029136	-0.787568
64581	-9.633096	0.344980	2.517534	-0.056377	-0.099796	0.149260	0.056684	0.612903	0.028805	-0.787596
64582	-9.619710	0.355626	2.549900	-0.088925	-0.113926	0.144541	0.056372	0.612856	0.028513	-0.787666
64583	-9.555871	0.362286	2.536005	-0.089343	-0.121477	0.079456	0.055980	0.612849	0.028154	-0.787712
64584	-9.528375	0.369785	2.569829	-0.127495	-0.133431	0.061351	0.055710	0.612852	0.027932	-0.787736
64585	-9.528457	0.369917	2.569507	-0.127279	-0.133591	0.061352	0.055423	0.612876	0.027738	-0.787745
64586	-9.559082	0.377952	2.586227	-0.135003	-0.142099	0.095343	0.055194	0.612860	0.027591	-0.787778
64587	-9.575642	0.358724	2.565667	-0.112918	-0.120249	0.105832	0.054947	0.612849	0.027422	-0.787810
64588	-9.595903	0.394420	2.549957	-0.088211	-0.152788	0.122506	0.054695	0.612825	0.027194	-0.787854
64589	-9.496774	0.412601	2.518117	-0.078107	-0.172115	0.019105	0.054612	0.612744	0.027095	-0.787927
64590	-9.479714	0.319863	2.468427	-0.042581	-0.075433	-0.012028	0.054534	0.612637	0.027055	-0.788016
64591	-9.522389	0.254276	2.462830	-0.030996	-0.007522	0.026269	0.054442	0.612483	0.026997	-0.788145
64592	-9.598268	0.238125	2.449531	0.002395	0.013720	0.096069	0.054345	0.612322	0.026962	-0.788277
64593	-9.609637	0.189464	2.468305	-0.013515	0.061755	0.110495	0.054028	0.612105	0.026577	-0.788481
64594	-9.584647	0.165817	2.477873	-0.027043	0.085985	0.088054	0.053396	0.611999	0.025873	-0.788629
64595	-9.675832	0.345499	2.558106	-0.059128	-0.092215	0.200954	0.052500	0.611900	0.024967	-0.788796
64596	-9.557868	0.619560	2.701913	-0.193694	-0.383143	0.129783	0.051578	0.611760	0.024299	-0.788986
64597	-9.589196	0.702778	2.744375	-0.215179	-0.470181	0.172842	0.050990	0.611668	0.024102	-0.789101
64598	-9.570182	0.602974	2.675209	-0.160683	-0.369484	0.134491	0.050886	0.611537	0.024328	-0.789203
64599	-9.566903	0.419906	2.593557	-0.097675	-0.184468	0.106230	0.051310	0.611336	0.024953	-0.789312
64600	-9.553465	0.213610	2.516781	-0.042830	0.022809	0.068919	0.051899	0.611035	0.025724	-0.789482
64601	-9.491986	0.066419	2.522353	-0.072672	0.160208	0.007370	0.052326	0.610773	0.026451	-0.789632
64602	-9.473791	0.041413	2.477753	-0.031886	0.182324	-0.021904	0.052304	0.610614	0.026876	-0.789742
64603	-9.563387	0.208736	2.537652	-0.044921	0.008118	0.083753	0.051912	0.610492	0.026975	-0.789859
64604	-9.597999	0.304539	2.517237	-0.001303	-0.089090	0.114188	0.051645	0.610267	0.027137	-0.790045
64605	-9.538270	0.321402	2.578486	-0.066919	-0.120818	0.072220	0.051392	0.610020	0.027374	-0.790244
64606	-9.550885	0.340914	2.621669	-0.096564	-0.151304	0.095720	0.051214	0.609778	0.027785	-0.790428
64607	-9.564928	0.348288	2.654742	-0.118100	-0.169697	0.117774	0.051044	0.609582	0.028212	-0.790574
64608	-9.563029	0.350580	2.667836	-0.126138	-0.181918	0.119219	0.050806	0.609441	0.028583	-0.790685
64609	-9.544333	0.334822	2.631072	-0.093532	-0.171874	0.091385	0.050702	0.609329	0.029054	-0.790761
64610	-9.471663	0.260213	2.541891	-0.031384	-0.100879	-0.002991	0.050873	0.609236	0.029811	-0.790794
64611	-9.470486	0.136228	2.585332	-0.085182	0.007722	0.004913	0.050935	0.609182	0.030527	-0.790804
64612	-9.487033	0.055732	2.600768	-0.103676	0.075879	0.023693	0.050669	0.609171	0.031057	-0.790809
64613	-9.501366	0.122674	2.602211	-0.092771	-0.000938	0.038906	0.050243	0.609148	0.031378	-0.790841
64614	-9.509897	0.184988	2.541461	-0.024889	-0.065669	0.032436	0.049646	0.609210	0.031502	-0.790827
64615	-9.516868	0.331345	2.608038	-0.071330	-0.226921	0.057765	0.049177	0.609255	0.031719	-0.790812
64616	-9.515512	0.320644	2.586094	-0.052195	-0.223078	0.050535	0.049002	0.609290	0.032160	-0.790778
64617	-9.576184	0.240424	2.585285	-0.045830	-0.149376	0.108017	0.049092	0.609345	0.032718	-0.790708
64618	-9.572420	0.154826	2.539121	-0.012878	-0.066929	0.091740	0.049389	0.609367	0.033389	-0.790644
64619	-9.565901	0.041526	2.547857	-0.036861	0.037713	0.086655	0.049675	0.609421	0.034010	-0.790558
64620	-9.519293	-0.027466	2.545121	-0.055822	0.098418	0.040359	0.049654	0.609526	0.034386	-0.790462
64621	-9.505071	0.049827	2.557101	-0.064247	0.013898	0.030244	0.049442	0.609623	0.034572	-0.790393
64622	-9.480712	0.128741	2.612333	-0.116211	-0.076484	0.021203	0.049150	0.609710	0.034634	-0.790341
64623	-9.457672	0.173588	2.618087	-0.124578	-0.126710	0.000594	0.048919	0.609832	0.034698	-0.790258
64624	-9.467521	0.180706	2.582005	-0.089118	-0.133057	0.000962	0.048798	0.609931	0.034806	-0.790184
64625	-9.458769	0.230000	2.586015	-0.091999	-0.185404	-0.006268	0.048756	0.610046	0.034894	-0.790094
64626	-9.467939	0.211537	2.626000	-0.132462	-0.173446	0.012528	0.048871	0.610114	0.035139	-0.790024
64627	-9.509014	0.165258	2.633163	-0.137194	-0.129769	0.053748	0.048930	0.610274	0.035366	-0.789886
64628	-9.497935	0.138178	2.612001	-0.126165	-0.103631	0.037478	0.049169	0.610387	0.035685	-0.789770
64629	-9.489885	0.079324	2.562404	-0.090536	-0.041312	0.016871	0.049331	0.610520	0.035821	-0.789651
64630	-9.515942	0.071023	2.505450	-0.033094	-0.025727	0.027725	0.049454	0.610602	0.035867	-0.789578
64631	-9.508641	0.027759	2.486979	-0.024696	0.020519	0.015794	0.049494	0.610709	0.035741	-0.789498
64632	-9.481780	0.037514	2.518412	-0.062826	0.008734	-0.002288	0.049324	0.610796	0.035452	-0.789454
64633	-9.513289	0.099369	2.497761	-0.030019	-0.046192	0.023385	0.049121	0.610885	0.035034	-0.789417
64634	-9.595027	0.165084	2.523747	-0.029430	-0.107588	0.109443	0.049024	0.610976	0.034707	-0.789367
64635	-9.648176	0.225386	2.553329	-0.039943	-0.164678	0.168739	0.048774	0.611054	0.034218	-0.789344
64636	-9.608874	0.213118	2.568171	-0.067225	-0.150225	0.134387	0.048427	0.611126	0.033578	-0.789337
64637	-9.570022	0.275748	2.586231	-0.089502	-0.210296	0.101833	0.048274	0.611232	0.033127	-0.789283
64638	-9.508048	0.300396	2.599511	-0.117220	-0.233769	0.045420	0.048246	0.611302	0.032843	-0.789242
64639	-9.505720	0.180131	2.495127	-0.032262	-0.099261	0.016144	0.048612	0.611331	0.032858	-0.789197
64640	-9.503340	0.107962	2.470657	-0.018210	-0.020950	0.007114	0.048918	0.611333	0.032826	-0.789178
64641	-9.536383	0.173286	2.471718	-0.004429	-0.079896	0.040009	0.049138	0.611359	0.032636	-0.789152
64642	-9.538403	0.082203	2.448643	0.007099	0.018534	0.035325	0.049354	0.611374	0.032467	-0.789134
64643	-9.548239	0.036537	2.441509	0.010378	0.070609	0.042568	0.049353	0.611410	0.032082	-0.789122
64644	-9.564759	0.146843	2.502926	-0.033340	-0.038262	0.075095	0.049086	0.611450	0.031411	-0.789134
64645	-9.609533	0.315022	2.525034	-0.025534	-0.197922	0.126042	0.048879	0.611446	0.030694	-0.789178
64646	-9.565259	0.400848	2.543749	-0.045259	-0.278028	0.089139	0.048867	0.611435	0.030114	-0.789210
64647	-9.602075	0.351202	2.504188	-0.003687	-0.214285	0.114458	0.049148	0.611421	0.029774	-0.789216
64648	-9.588817	0.172322	2.451283	0.024578	-0.023197	0.085936	0.049637	0.611376	0.029634	-0.789226
64649	-9.570087	0.048490	2.446320	0.011761	0.107742	0.064643	0.049937	0.611322	0.029351	-0.789259
64650	-9.579643	0.029724	2.480427	-0.020381	0.131780	0.082016	0.049967	0.611312	0.028813	-0.789285
64651	-9.545040	0.138122	2.495873	-0.032017	0.029342	0.054144	0.049649	0.611318	0.028059	-0.789327
64652	-9.581220	0.309006	2.580540	-0.086881	-0.140087	0.113403	0.049190	0.611364	0.027289	-0.789347
64653	-9.573472	0.480873	2.679626	-0.166644	-0.314961	0.133971	0.048797	0.611355	0.026651	-0.789401
64654	-9.565669	0.490740	2.627478	-0.117766	-0.315238	0.113704	0.048627	0.611379	0.026257	-0.789406
64655	-9.620824	0.568943	2.593661	-0.063311	-0.382709	0.160303	0.048845	0.611323	0.026110	-0.789441
64656	-9.566876	0.341321	2.499358	-0.007817	-0.144955	0.080104	0.049422	0.611217	0.026274	-0.789481
64657	-9.526743	0.076581	2.448126	0.004640	0.125009	0.023082	0.049898	0.611207	0.026463	-0.789453
64658	-9.538170	-0.008940	2.508118	-0.059588	0.207616	0.047371	0.049933	0.611206	0.026299	-0.789457
64659	-9.610559	0.110130	2.562071	-0.081280	0.090026	0.133391	0.049472	0.611236	0.025798	-0.789479
64660	-9.639876	0.269728	2.585220	-0.079277	-0.067526	0.170924	0.048813	0.611210	0.025194	-0.789560
64661	-9.617275	0.484392	2.649532	-0.124390	-0.286621	0.169748	0.048137	0.611222	0.024606	-0.789611
64662	-9.581298	0.596109	2.673332	-0.144445	-0.401027	0.143297	0.047855	0.611170	0.024406	-0.789674
64663	-9.539586	0.551169	2.631882	-0.117254	-0.354541	0.091597	0.048057	0.611055	0.024578	-0.789746
64664	-9.507776	0.341569	2.513264	-0.028996	-0.137360	0.026584	0.048550	0.610924	0.025060	-0.789801
64665	-9.542347	0.165369	2.498882	-0.021774	0.039174	0.052713	0.049056	0.610805	0.025572	-0.789846
64666	-9.542179	0.088180	2.498803	-0.026473	0.113514	0.050952	0.049268	0.610641	0.025946	-0.789947
64667	-9.578988	0.250956	2.607826	-0.100528	-0.059818	0.117422	0.049321	0.610420	0.026152	-0.790108
64668	-9.599024	0.185313	2.554864	-0.045433	0.009920	0.122139	0.049544	0.610157	0.026394	-0.790289
64669	-9.625741	0.141074	2.594850	-0.074540	0.051896	0.157257	0.049612	0.609825	0.026348	-0.790543
64670	-9.576079	0.154669	2.607488	-0.088511	0.038223	0.112780	0.049463	0.609420	0.025969	-0.790877
64671	-9.615941	0.343500	2.679779	-0.116486	-0.149525	0.173783	0.049319	0.608883	0.025568	-0.791313
64672	-9.655602	0.405992	2.787809	-0.189705	-0.216170	0.241398	0.049309	0.608288	0.025464	-0.791774
64673	-9.716758	0.251471	2.836579	-0.217536	-0.063864	0.310225	0.049582	0.607337	0.025839	-0.792475
64674	-9.717163	0.054493	2.840450	-0.213045	0.129199	0.308192	0.050109	0.606004	0.026543	-0.793438
64675	-9.778838	0.013557	2.900563	-0.225450	0.164575	0.383445	0.050205	0.604681	0.026810	-0.794432
64676	-9.665108	0.172210	3.135760	-0.428598	-0.022470	0.340768	0.049799	0.603259	0.026674	-0.795542
64677	-9.855717	0.388438	3.259330	-0.433610	-0.242268	0.563363	0.048818	0.601647	0.026321	-0.796834
64678	-10.076110	0.697282	3.329314	-0.357767	-0.551549	0.801739	0.048246	0.599431	0.026571	-0.798529
64679	-9.930184	0.505753	3.417575	-0.436174	-0.386557	0.685123	0.048634	0.596685	0.027814	-0.800517
64680	-9.535060	-0.042370	3.479843	-0.589895	0.121875	0.319692	0.049659	0.593556	0.029487	-0.802718
64681	-9.541688	-0.511156	3.561593	-0.636692	0.568798	0.349033	0.050200	0.590217	0.030686	-0.805097
64682	-9.780366	-0.444209	3.686113	-0.585431	0.494828	0.620524	0.049336	0.586457	0.030490	-0.807902
64683	-10.070146	0.029052	3.937347	-0.572822	0.011766	0.984624	0.047726	0.582048	0.029777	-0.811206
64684	-10.138419	0.092979	3.981908	-0.458191	-0.056836	1.070190	0.046380	0.576975	0.029754	-0.814901
64685	-9.991691	-0.373060	4.041684	-0.468176	0.383148	0.954874	0.045473	0.571349	0.030465	-0.818880
64686	-9.799336	-0.867347	4.131443	-0.516229	0.845920	0.811058	0.044347	0.565387	0.030768	-0.823058
64687	-9.755622	-0.997486	4.395145	-0.625570	0.947035	0.873461	0.042296	0.558973	0.029664	-0.827575
64688	-9.781407	-0.842406	4.600508	-0.606908	0.786497	0.983615	0.039060	0.551801	0.027362	-0.832611
64689	-9.657024	-0.561325	4.710935	-0.528597	0.510619	0.921477	0.035096	0.543946	0.024542	-0.838026
64690	-9.393112	-0.389811	4.641898	-0.347321	0.354589	0.660114	0.030637	0.535652	0.021348	-0.843613
64691	-9.301561	-0.452323	4.677388	-0.205324	0.428004	0.597507	0.025971	0.526931	0.018181	-0.849316
64692	-9.340523	-0.564538	4.827070	-0.098932	0.546218	0.701677	0.020660	0.517682	0.014677	-0.855198
64693	-9.533216	-0.549683	5.082996	0.013346	0.539399	0.991220	0.015023	0.507694	0.010673	-0.861340
64694	-9.423483	-0.745008	5.208428	0.114129	0.751595	0.953014	0.009208	0.496975	0.005953	-0.867695
64695	-9.047292	-0.585977	5.302393	0.123259	0.621629	0.670829	0.002235	0.485992	-0.000257	-0.873960
64696	-8.806325	-0.053412	5.660014	-0.032950	0.136814	0.654579	-0.005141	0.474589	-0.007246	-0.880162
64697	-8.798200	0.399464	5.767186	0.136404	-0.260927	0.710398	-0.012400	0.462926	-0.014194	-0.886196
64698	-8.799545	0.884440	6.147767	0.081386	-0.679575	0.935991	-0.019469	0.450683	-0.020789	-0.892230
64699	-8.759905	1.013553	6.366649	0.157691	-0.756537	1.035969	-0.025535	0.438242	-0.025828	-0.898123
64700	-8.578472	0.623358	6.302122	0.417170	-0.351698	0.835805	-0.030823	0.425289	-0.029494	-0.904052
64701	-7.977431	-0.047700	6.245768	0.426798	0.330083	0.304297	-0.035981	0.412475	-0.032541	-0.909676
64702	-7.795186	-0.211387	6.380274	0.510432	0.514546	0.236450	-0.041724	0.399397	-0.036753	-0.915090
64703	-7.672510	0.029729	6.393421	0.678015	0.297601	0.146687	-0.048174	0.386357	-0.042174	-0.920125
64704	-7.909480	0.768969	6.647453	0.851804	-0.389424	0.505064	-0.054922	0.373296	-0.048572	-0.924810
64705	-7.543169	1.328363	6.834413	0.656504	-0.858629	0.395094	-0.060945	0.360179	-0.054375	-0.929301
64706	-6.977110	0.974789	6.691219	0.648456	-0.468387	-0.129827	-0.065828	0.347816	-0.058273	-0.933432
64707	-6.699181	0.830804	6.910534	0.566723	-0.255689	-0.172496	-0.070259	0.335680	-0.062371	-0.937279
64708	-6.597498	0.832304	7.241540	0.526261	-0.170850	0.003037	-0.074409	0.323637	-0.066688	-0.940890
64709	-6.794211	0.891761	7.731081	0.627261	-0.127927	0.498014	-0.078607	0.311447	-0.071815	-0.944280
64710	-6.443109	0.913006	7.852807	0.540076	-0.046995	0.371300	-0.082807	0.298535	-0.077177	-0.947662
64711	-5.275027	0.335933	7.292841	0.275130	0.566105	-0.828050	-0.087183	0.286470	-0.081523	-0.950625
64712	-5.609416	0.502123	7.167378	0.798449	0.374317	-0.740337	-0.092231	0.275521	-0.087576	-0.952844
64713	-6.436336	1.994690	7.769493	1.054829	-0.978748	0.370392	-0.097516	0.264211	-0.095120	-0.954796
64714	-5.814838	2.681405	8.269641	0.346391	-1.379529	0.548872	-0.101417	0.252845	-0.099659	-0.957002
64715	-5.197788	1.779687	8.121414	0.323669	-0.447008	-0.023217	-0.104213	0.242476	-0.101644	-0.959173
64716	-5.173957	1.421768	8.528727	0.417258	0.005037	0.254717	-0.106928	0.232148	-0.104473	-0.961124
64717	-4.962788	1.310965	8.649014	0.427832	0.192091	0.233664	-0.109902	0.221168	-0.107994	-0.962987
64718	-4.367631	1.407730	8.672371	0.091334	0.235725	-0.004531	-0.113189	0.210283	-0.112417	-0.964537
64719	-4.405040	1.580481	8.762711	0.259787	0.133090	0.116975	-0.116281	0.199634	-0.116967	-0.965890
64720	-4.285196	1.922311	8.842315	0.246386	-0.099265	0.195810	-0.119282	0.188837	-0.121714	-0.967108
64721	-4.152437	2.351024	9.009086	0.167975	-0.382159	0.373349	-0.122216	0.178081	-0.126223	-0.968204
64722	-3.944190	2.534091	9.213557	0.081900	-0.412969	0.516227	-0.124825	0.167186	-0.129999	-0.969313
64723	-3.622367	2.507528	9.223246	0.014423	-0.290092	0.404405	-0.127066	0.156189	-0.133366	-0.970398
64724	-3.328006	2.719834	9.262427	-0.106876	-0.386939	0.390273	-0.129067	0.145225	-0.136692	-0.971374
64725	-3.118732	2.834703	9.367650	-0.139058	-0.393370	0.450681	-0.130595	0.134310	-0.139370	-0.972359
64726	-3.132333	2.905629	9.216066	0.105869	-0.488227	0.333076	-0.132049	0.123445	-0.142380	-0.973166
64727	-3.014097	2.923221	9.249989	0.198917	-0.445438	0.333763	-0.133303	0.112773	-0.145197	-0.973874
64728	-2.705092	2.723411	9.125940	0.202382	-0.209183	0.083210	-0.134436	0.102038	-0.148124	-0.974461
64729	-2.469665	2.647759	9.034796	0.226879	-0.084916	-0.082579	-0.135494	0.091403	-0.151744	-0.974813
64730	-2.332096	2.870517	9.123363	0.231619	-0.182756	0.027185	-0.136459	0.080543	-0.156195	-0.974933
64731	-2.057584	3.106322	9.091171	0.121027	-0.287636	0.007232	-0.137212	0.069816	-0.160767	-0.974911
64732	-1.860182	3.276184	8.981054	0.105061	-0.376913	-0.081499	-0.138026	0.059140	-0.165019	-0.974792
64733	-1.191292	3.002968	8.323382	-0.215521	-0.143308	-0.888232	-0.138670	0.049234	-0.168619	-0.974635
64734	-0.820119	2.727640	7.974606	-0.309040	0.117115	-1.351265	-0.139153	0.040407	-0.172112	-0.974362
64735	-1.011924	2.975883	8.176978	-0.049997	-0.045290	-1.052765	-0.139864	0.031866	-0.175611	-0.973952
64736	-0.769921	3.019118	8.081473	-0.148724	-0.024572	-1.152795	-0.140625	0.023916	-0.177918	-0.973652
64737	-0.446141	2.719224	7.749374	-0.255658	0.229789	-1.595210	-0.141195	0.017648	-0.179794	-0.973358
64738	-0.614752	2.795241	7.828573	-0.018737	0.168499	-1.479116	-0.141653	0.012606	-0.182278	-0.972908
64739	-0.428484	3.211030	8.302422	-0.216025	0.051841	-0.903450	-0.141937	0.008133	-0.184751	-0.972448
64740	-0.095027	3.405004	8.430740	-0.511031	0.044138	-0.734309	-0.141869	0.004658	-0.186319	-0.972181
64741	-0.143351	3.813928	8.515128	-0.513593	-0.284673	-0.499851	-0.141637	0.001769	-0.187408	-0.972016
64742	-0.014287	3.950731	8.410485	-0.632999	-0.405070	-0.550947	-0.141166	-0.000302	-0.187481	-0.972071
64743	-0.240134	3.707876	8.665794	-0.304154	-0.166423	-0.390282	-0.140269	-0.001505	-0.186946	-0.972303
64744	-0.553224	3.694992	9.135077	0.049932	-0.072463	0.056500	-0.139197	-0.002434	-0.187349	-0.972378
64745	-0.363712	3.728014	9.000782	-0.128455	-0.088492	-0.064864	-0.137995	-0.002983	-0.188381	-0.972348
64746	0.034380	3.774351	8.852629	-0.515692	-0.050820	-0.202937	-0.136634	-0.003271	-0.190345	-0.972157
64747	-0.146065	3.955922	8.939717	-0.372004	-0.185708	-0.044570	-0.135110	-0.003108	-0.192889	-0.971869
64748	-0.555337	4.394816	9.215166	-0.067977	-0.523674	0.398234	-0.133333	-0.002563	-0.195846	-0.971525
64749	-0.352715	4.841947	9.442053	-0.358404	-0.725043	0.773477	-0.131443	-0.002120	-0.198168	-0.971312
64750	-0.081014	4.933129	9.478171	-0.637537	-0.685282	0.831650	-0.129225	-0.001371	-0.199445	-0.971350
64751	-0.171988	4.998978	9.541546	-0.561207	-0.727737	0.921180	-0.126754	-0.000760	-0.199675	-0.971629
64752	-0.162575	4.941965	9.335314	-0.566719	-0.767379	0.708123	-0.124089	-0.000075	-0.198618	-0.972190
64753	-0.133090	4.808546	9.307642	-0.569139	-0.685829	0.626546	-0.121159	0.000885	-0.196792	-0.972930
64754	-0.587581	4.650024	9.461352	-0.091281	-0.629954	0.726757	-0.118124	0.001876	-0.195125	-0.973637
64755	-0.455072	4.656468	9.457547	-0.227654	-0.643879	0.716721	-0.115075	0.002668	-0.193341	-0.974356
64756	-0.272437	4.482785	9.350874	-0.374615	-0.526776	0.540595	-0.112012	0.003439	-0.191598	-0.975055
64757	-0.216737	4.652752	9.330904	-0.469518	-0.706855	0.581575	-0.109006	0.004182	-0.190520	-0.975604
64758	-0.635648	4.902405	9.316978	-0.114700	-1.049613	0.681540	-0.105665	0.005040	-0.189435	-0.976178
64759	-0.824915	4.946330	9.240683	0.062360	-1.178536	0.634513	-0.102121	0.005734	-0.188409	-0.976750
64760	-0.902099	4.945687	9.412492	0.151412	-1.149645	0.795044	-0.098217	0.006297	-0.187389	-0.977343
64761	-0.914629	5.061302	9.282625	0.156026	-1.323796	0.715541	-0.093793	0.006423	-0.186606	-0.977926
64762	-1.096697	5.257232	9.360852	0.331300	-1.517471	0.866928	-0.089122	0.006171	-0.186244	-0.978434
64763	-1.156526	5.088445	9.085056	0.453480	-1.497375	0.546850	-0.084053	0.005647	-0.184380	-0.979238
64764	-1.499856	4.709490	8.671056	0.890503	-1.397328	0.029580	-0.078511	0.004886	-0.181898	-0.980166
64765	-1.738381	4.660449	8.676905	1.183707	-1.423844	0.015924	-0.072891	0.003757	-0.179755	-0.981000
64766	-1.706139	4.207450	8.599372	1.265683	-1.061899	-0.229740	-0.066877	0.002894	-0.177406	-0.981859
64767	-1.933536	4.030656	8.865017	1.564528	-0.853384	-0.045543	-0.060818	0.002113	-0.176277	-0.982458
64768	-1.723479	4.231258	9.055937	1.380337	-0.947820	0.191314	-0.054707	0.001427	-0.175852	-0.982894
64769	-1.451145	4.154121	9.004425	1.160399	-0.858707	0.104881	-0.048474	0.000967	-0.175564	-0.983273
64770	-1.487283	4.422052	9.140371	1.213897	-1.049215	0.323306	-0.042124	0.000701	-0.176014	-0.983486
64771	-1.373149	4.937601	9.106526	1.101866	-1.509916	0.468366	-0.035687	0.000412	-0.176463	-0.983660
64772	-1.305448	4.946781	8.991971	1.078365	-1.542350	0.360243	-0.028816	0.000495	-0.175851	-0.983995
64773	-1.859697	4.619959	8.811665	1.693725	-1.323276	0.078115	-0.021736	0.000303	-0.175450	-0.984248
64774	-1.714645	4.623104	8.648818	1.596118	-1.363991	-0.080943	-0.014449	-0.000032	-0.174907	-0.984479
64775	-1.879571	4.443880	8.656528	1.818536	-1.185553	-0.142969	-0.006790	-0.000611	-0.174245	-0.984679
64776	-1.858649	4.219432	8.982133	1.855881	-0.844448	0.075650	0.001072	-0.001355	-0.173879	-0.984765
64777	-1.718225	4.035366	9.196492	1.771524	-0.572770	0.204558	0.009089	-0.002434	-0.173972	-0.984706
64778	-1.275701	3.767680	8.978799	1.379794	-0.371591	-0.096753	0.017455	-0.003458	-0.174755	-0.984451
64779	-0.794321	3.719013	8.923226	0.947321	-0.311344	-0.164314	0.026049	-0.004163	-0.177116	-0.983836
64780	-0.528984	3.893882	9.223651	0.730096	-0.315726	0.181544	0.034800	-0.003979	-0.179916	-0.983058
64781	-0.212614	4.052932	9.450380	0.443921	-0.334244	0.457267	0.043483	-0.002586	-0.182881	-0.982170
64782	0.016795	3.844062	9.660801	0.191576	-0.017456	0.583024	0.052452	-0.000323	-0.185707	-0.981204
64783	0.206279	4.060496	9.621243	0.006807	-0.187867	0.630624	0.061525	0.002601	-0.188811	-0.980081
64784	0.407765	4.764359	9.339978	-0.116486	-0.908241	0.640155	0.070815	0.005439	-0.191215	-0.978975
64785	0.505846	5.187194	8.935175	-0.135543	-1.440589	0.429701	0.080417	0.007942	-0.191071	-0.978244
64786	-0.008080	5.103356	8.569659	0.396403	-1.444620	0.048300	0.090325	0.010364	-0.188358	-0.977883
64787	-0.346111	4.553204	8.762079	0.649924	-0.872486	0.007764	0.100625	0.012211	-0.183635	-0.977754
64788	-0.157750	3.375715	8.783850	0.255967	0.088853	-0.405118	0.111019	0.014192	-0.178823	-0.977495
64789	0.020645	2.687353	8.671732	-0.063399	0.575274	-0.752549	0.121329	0.016843	-0.176747	-0.976604
64790	-0.181914	2.991537	8.707596	0.168253	0.358767	-0.612288	0.131465	0.020402	-0.178342	-0.974933
64791	-0.457125	4.261031	9.109655	0.670505	-0.520149	0.218786	0.141489	0.024615	-0.181192	-0.972905
64792	-0.394991	5.127015	9.548621	0.760257	-1.105322	0.949216	0.151861	0.028946	-0.181997	-0.971070
64793	-0.292745	5.076947	9.327258	0.653518	-1.165182	0.726480	0.162636	0.033082	-0.180102	-0.969546
64794	-0.195689	4.514169	9.021582	0.425202	-0.849638	0.232309	0.173911	0.036661	-0.176344	-0.968150
64795	-0.380606	3.957365	8.785152	0.452272	-0.434495	-0.190270	0.185674	0.039921	-0.172651	-0.966501
64796	-0.572936	3.721269	8.767492	0.550080	-0.209360	-0.289112	0.197408	0.043066	-0.169629	-0.964573
64797	-0.594334	3.620547	8.620126	0.548520	-0.193058	-0.462289	0.209103	0.046302	-0.167102	-0.962397
64798	-0.702190	3.736207	8.644048	0.675793	-0.256056	-0.397296	0.220874	0.049683	-0.165597	-0.959856
64799	-1.010168	4.054639	9.218900	0.962769	-0.215679	0.260800	0.232406	0.053418	-0.164602	-0.957100
64800	-0.994381	4.220032	9.575102	0.927626	-0.251456	0.654225	0.243607	0.057148	-0.163359	-0.954308
64801	-0.682277	4.136664	9.436280	0.619008	-0.379006	0.487507	0.254899	0.060958	-0.161757	-0.951391
64802	-0.844038	4.637341	9.381381	0.984216	-0.726414	0.614742	0.266530	0.064669	-0.160339	-0.948194
64803	-0.905148	4.828560	9.434735	1.119192	-0.842428	0.731798	0.278784	0.067653	-0.157324	-0.944961
64804	-1.156538	3.998821	9.236660	0.971477	-0.130180	0.271118	0.291263	0.069999	-0.152912	-0.941745
64805	-1.130915	3.331138	8.982498	0.669030	0.276787	-0.193102	0.303445	0.072017	-0.149455	-0.938295
64806	-0.852165	3.150449	9.106728	0.318001	0.258324	-0.147485	0.315400	0.074242	-0.147354	-0.934504
64807	-1.070083	3.539753	9.462057	0.614758	0.179924	0.326104	0.327003	0.076757	-0.146671	-0.930411
64808	-0.879319	3.951436	9.555508	0.672540	-0.211566	0.540945	0.338437	0.079175	-0.145601	-0.926279
64809	-0.689176	3.823646	9.846629	0.378452	-0.176540	0.764502	0.350118	0.081253	-0.143858	-0.922020
64810	-0.911662	3.714941	10.330788	0.355026	0.143447	1.196875	0.361715	0.083255	-0.141940	-0.917651
64811	-1.027710	3.615553	10.403299	0.352326	0.294274	1.239293	0.373062	0.085455	-0.139906	-0.913208
64812	-1.273745	3.849050	10.230833	0.712828	0.267076	1.165841	0.384139	0.087883	-0.138239	-0.908627
64813	-1.120816	4.078749	9.712138	0.893094	-0.089368	0.742522	0.395142	0.089968	-0.136642	-0.903934
64814	-1.341292	4.030394	9.258935	1.133116	0.032204	0.310851	0.406301	0.091884	-0.134532	-0.899098
64815	-2.009072	3.955751	9.304451	1.502374	0.607129	0.367262	0.417606	0.093454	-0.132511	-0.894043
64816	-2.473200	3.480634	9.535271	1.373728	1.319012	0.459892	0.428615	0.094914	-0.130817	-0.888914
64817	-2.455187	3.039252	9.620255	0.977969	1.606463	0.398920	0.439212	0.096818	-0.129870	-0.883659
64818	-2.226361	3.081400	9.725021	0.788206	1.445891	0.498250	0.449448	0.099131	-0.130248	-0.878183
64819	-1.956425	3.624671	9.902044	0.935454	0.987257	0.825271	0.459684	0.101522	-0.130604	-0.872540
64820	-2.069121	4.137217	9.897668	1.355932	0.839510	0.995559	0.470311	0.103349	-0.129411	-0.866821
64821	-2.479275	3.959747	9.761221	1.465235	1.282304	0.832340	0.481220	0.104164	-0.126380	-0.861165
64822	-2.667133	3.432933	9.633207	1.186642	1.694824	0.551516	0.492230	0.104287	-0.122091	-0.855528
64823	-2.671832	2.913789	9.538398	0.807310	1.929680	0.298418	0.503150	0.104077	-0.117927	-0.849765
64824	-2.634959	2.518287	9.495843	0.481512	2.066048	0.134945	0.513881	0.103802	-0.114337	-0.843848
64825	-2.609181	2.627966	9.166670	0.653889	1.965517	-0.145681	0.524274	0.103892	-0.111936	-0.837743
64826	-2.589160	3.304915	9.190927	1.200319	1.682021	0.078182	0.534549	0.104196	-0.110070	-0.831436
64827	-2.756795	3.315338	9.359643	1.215780	1.871247	0.247857	0.545016	0.104018	-0.107564	-0.824966
64828	-2.911234	2.793212	9.373724	0.799012	2.236285	0.112259	0.555435	0.104044	-0.105260	-0.818283
64829	-2.850634	2.502398	9.381332	0.483621	2.303149	0.029005	0.565597	0.104649	-0.103880	-0.811392
64830	-2.623799	2.612311	9.369332	0.452234	2.074259	0.035427	0.575439	0.106220	-0.103719	-0.804257
64831	-2.678604	3.129041	9.586090	0.794013	2.004106	0.395707	0.584970	0.108483	-0.104216	-0.796982
64832	-2.487602	3.510384	9.671520	0.981378	1.751319	0.580509	0.594499	0.110287	-0.104252	-0.789645
64833	-2.381792	3.250627	9.410053	0.733168	1.741071	0.248101	0.604002	0.111947	-0.103362	-0.782283
64834	-2.573305	2.930314	9.374107	0.440240	2.021213	0.127288	0.613330	0.113502	-0.102320	-0.774903
64835	-2.508994	3.084500	9.365383	0.514975	1.936965	0.162396	0.622304	0.114977	-0.101426	-0.767614
64836	-2.434458	3.073924	9.185943	0.493070	1.876772	-0.015160	0.631122	0.116414	-0.100243	-0.760318
64837	-2.587115	3.192340	9.177153	0.579954	2.017663	0.020762	0.639664	0.117937	-0.099337	-0.753030
64838	-2.389875	3.331777	9.208173	0.620185	1.816956	0.082592	0.648049	0.119028	-0.098307	-0.745789
64839	-2.432185	3.287825	9.081455	0.579154	1.883368	-0.049723	0.656322	0.120109	-0.097193	-0.738491
64840	-2.628324	3.474233	9.237818	0.679295	2.072384	0.165247	0.664353	0.121238	-0.096377	-0.731196
64841	-2.570973	3.396939	9.272232	0.539801	2.044493	0.169888	0.672258	0.122037	-0.095612	-0.723902
64842	-2.383196	3.397220	9.206726	0.497950	1.884847	0.096078	0.679962	0.122870	-0.095371	-0.716560
64843	-2.368393	3.364028	9.192754	0.416124	1.902522	0.068588	0.687724	0.123655	-0.095376	-0.708977
64844	-2.403354	3.228971	9.198756	0.229069	1.974530	0.029459	0.695409	0.124293	-0.095648	-0.701291
64845	-2.112985	2.845420	9.309867	-0.227779	1.715229	-0.002461	0.702976	0.124879	-0.096069	-0.693543
64846	-1.930384	3.048370	9.419688	-0.126292	1.554536	0.153081	0.710126	0.126081	-0.096888	-0.685884
64847	-1.540559	3.138649	9.542780	-0.118577	1.186510	0.280231	0.717205	0.126778	-0.097212	-0.678302
64848	-1.300884	3.029526	10.041544	-0.402911	0.933259	0.707272	0.724003	0.127616	-0.096901	-0.670927
64849	-1.117903	3.198107	10.594008	-0.429428	0.732138	1.277404	0.730604	0.128673	-0.095875	-0.663679
64850	-0.865807	2.919792	10.488921	-0.651417	0.450206	1.080668	0.736981	0.130109	-0.094587	-0.656494
64851	-0.623031	3.091276	10.297323	-0.420365	0.217729	0.946254	0.743104	0.132161	-0.093524	-0.649294
64852	-0.478616	3.561424	10.324219	0.014097	0.113061	1.118429	0.749216	0.133720	-0.092320	-0.642084
64853	-0.665218	3.298721	10.005612	-0.163083	0.281124	0.738650	0.755420	0.134129	-0.090545	-0.634942
64854	-0.635862	2.786595	9.565931	-0.493147	0.208679	0.156752	0.761447	0.134515	-0.089262	-0.627803
64855	-0.417555	2.657167	9.308906	-0.494251	-0.005731	-0.135585	0.767175	0.135317	-0.088591	-0.620713
64856	-0.498282	2.831669	9.295424	-0.364266	0.105857	-0.090158	0.772608	0.136808	-0.088573	-0.613609
64857	-0.432413	3.122988	9.215458	-0.089510	0.112449	-0.073903	0.777801	0.138471	-0.089057	-0.606565
64858	-0.499692	3.135563	9.265038	-0.150729	0.179163	-0.021497	0.782688	0.140201	-0.089635	-0.599758
64859	-0.287929	3.331327	9.531319	-0.043106	-0.003590	0.288037	0.787357	0.142000	-0.090446	-0.593063
64860	-0.091889	3.312551	9.588122	-0.068398	-0.197055	0.329790	0.791865	0.143851	-0.091425	-0.586429
64861	0.244387	3.490705	9.596742	0.141800	-0.463518	0.390599	0.796184	0.145893	-0.092654	-0.579846
64862	0.419225	3.892676	9.685685	0.482339	-0.514797	0.610525	0.800564	0.147718	-0.093589	-0.573164
64863	0.498211	3.844966	9.848895	0.383381	-0.609337	0.747350	0.805224	0.148841	-0.093703	-0.566287
64864	0.468786	3.371506	9.700757	-0.007228	-0.695559	0.444390	0.810002	0.149575	-0.093388	-0.559288
64865	0.611675	3.086273	9.532073	-0.157386	-0.891349	0.184331	0.814685	0.150754	-0.093202	-0.552154
64866	0.624237	3.342344	9.428443	0.091567	-0.797513	0.177910	0.819269	0.152398	-0.093112	-0.544888
64867	0.418796	3.618363	9.352497	0.257588	-0.497256	0.208465	0.823800	0.154088	-0.092714	-0.537601
64868	0.375002	3.785481	9.380087	0.360449	-0.397706	0.295153	0.828340	0.155467	-0.091966	-0.530306
64869	0.319012	3.670974	9.337753	0.248252	-0.382821	0.215437	0.832823	0.156599	-0.090805	-0.523103
64870	0.324755	3.508869	9.267724	0.134304	-0.443868	0.091517	0.837069	0.157984	-0.089794	-0.516037
64871	0.414406	3.644318	9.151963	0.315649	-0.452807	0.031424	0.841092	0.159733	-0.089074	-0.509033
64872	0.488591	4.031758	9.104879	0.668984	-0.348016	0.128335	0.844911	0.161668	-0.088491	-0.502154
64873	0.687644	4.244099	9.216925	0.891226	-0.446993	0.308718	0.848906	0.162929	-0.087489	-0.495135
64874	0.585324	4.009658	9.241394	0.645266	-0.461932	0.246813	0.852867	0.163750	-0.086019	-0.488267
64875	0.662613	3.792926	9.097446	0.567347	-0.595029	0.031748	0.856797	0.164437	-0.084358	-0.481397
64876	0.698496	3.807707	9.182114	0.583202	-0.632630	0.114920	0.860499	0.165561	-0.082956	-0.474604
64877	0.826233	4.025122	9.122198	0.847169	-0.617895	0.137150	0.864159	0.166693	-0.081650	-0.467735
64878	0.726351	3.988065	9.055012	0.790695	-0.533572	0.062311	0.867879	0.167675	-0.080081	-0.460716
64879	0.478350	4.002540	9.070299	0.666677	-0.318239	0.085481	0.871635	0.168414	-0.078460	-0.453579
64880	0.526502	3.665570	9.055318	0.451825	-0.525983	-0.054021	0.875340	0.169019	-0.076932	-0.446423
64881	0.564032	3.720582	9.112878	0.503438	-0.535929	0.019135	0.878779	0.170200	-0.075888	-0.439341
64882	0.433358	3.796399	9.118979	0.476186	-0.386954	0.055430	0.882109	0.171006	-0.075030	-0.432448
64883	0.544341	3.764448	9.226180	0.487599	-0.510984	0.141755	0.885275	0.171764	-0.074157	-0.425777
64884	0.459421	3.657878	9.372181	0.315856	-0.541040	0.239000	0.888311	0.172887	-0.072956	-0.419155
64885	0.331993	3.822263	9.579622	0.295269	-0.406727	0.494419	0.891173	0.174250	-0.071657	-0.412691
64886	0.460158	3.885098	9.813898	0.364713	-0.535583	0.732380	0.894096	0.175170	-0.069937	-0.406222
64887	0.365989	3.738458	9.922744	0.189430	-0.587089	0.779303	0.897082	0.175620	-0.067821	-0.399752
64888	0.103390	3.690498	9.889591	0.015081	-0.416168	0.735345	0.900126	0.175835	-0.065544	-0.393140
64889	0.063698	3.546652	9.485373	0.023555	-0.365160	0.307644	0.903298	0.175439	-0.063248	-0.386359
64890	-0.296117	2.989639	9.457890	-0.562251	-0.447837	0.084813	0.906431	0.174837	-0.060877	-0.379617
64891	-0.608033	2.928976	9.651151	-0.839420	-0.323532	0.251305	0.909218	0.174865	-0.058618	-0.373241
64892	-0.872580	2.902351	9.548626	-1.000396	-0.150162	0.154150	0.911668	0.175880	-0.056441	-0.367073
64893	-0.947942	3.275208	9.586401	-0.815242	0.099927	0.328805	0.913638	0.177891	-0.054678	-0.361428
64894	-0.949702	3.409645	9.515654	-0.711032	0.168584	0.313574	0.915579	0.179467	-0.052586	-0.356008
64895	-1.091034	3.514345	9.250172	-0.681504	0.375656	0.112079	0.917441	0.180770	-0.050482	-0.350821
64896	-1.239135	3.814628	9.273828	-0.602301	0.642268	0.252867	0.919269	0.181696	-0.048431	-0.345811
64897	-1.489019	3.962704	9.501485	-0.736097	0.822944	0.530393	0.921241	0.181357	-0.046249	-0.341008
64898	-1.148613	3.559835	9.728685	-0.741773	0.256990	0.580706	0.923543	0.179873	-0.043756	-0.335857
64899	-1.427210	2.911520	9.686772	-1.306732	-0.006604	0.318442	0.925625	0.179198	-0.041658	-0.330714
64900	-1.495001	2.733542	9.442643	-1.399134	-0.029635	0.031716	0.927535	0.179563	-0.040084	-0.325313
64901	-1.612546	3.131850	9.540995	-1.277693	0.273241	0.273547	0.929250	0.180694	-0.039181	-0.319859
64902	-1.517975	3.345227	9.934404	-1.159209	0.223729	0.713154	0.931107	0.180940	-0.037882	-0.314428
64903	-1.653201	2.840260	9.842526	-1.531118	-0.049638	0.450288	0.933064	0.180554	-0.036403	-0.308977
64904	-1.445699	2.707408	9.690596	-1.400287	-0.237087	0.252634	0.934850	0.180884	-0.034999	-0.303499
64905	-1.584854	3.042999	9.817818	-1.347562	0.024828	0.499660	0.936469	0.182092	-0.033733	-0.297876
64906	-1.335313	3.749137	9.948855	-0.786953	0.339666	0.868326	0.937998	0.183224	-0.032614	-0.292448
64907	-0.970385	3.703540	9.882611	-0.495835	0.105566	0.773475	0.939756	0.183146	-0.030883	-0.286988
64908	-1.346891	3.578152	9.660061	-0.831421	0.277997	0.539389	0.941368	0.183726	-0.029427	-0.281434
64909	-1.360782	3.702570	9.604012	-0.775158	0.381662	0.533869	0.942830	0.184388	-0.028673	-0.276133
64910	-1.219865	3.833287	9.503302	-0.589773	0.424899	0.481315	0.944196	0.185270	-0.028216	-0.270873
64911	-1.141707	4.106252	9.469378	-0.406629	0.591615	0.546775	0.945465	0.186340	-0.028170	-0.265671
64912	-0.983301	3.885169	9.396669	-0.396249	0.349692	0.389246	0.946901	0.186816	-0.028118	-0.260170
64913	-1.393829	3.712895	9.439621	-0.868970	0.393533	0.381659	0.948255	0.187667	-0.028251	-0.254550
64914	-1.174855	3.706397	9.380446	-0.705659	0.288415	0.312983	0.949632	0.188190	-0.028614	-0.248926
64915	-1.144142	3.519388	9.122432	-0.761127	0.200513	0.000277	0.950905	0.189195	-0.029055	-0.243188
64916	-1.444394	3.731252	9.069277	-0.964260	0.510127	0.039724	0.952035	0.190681	-0.029856	-0.237442
64917	-1.235333	4.017849	8.969567	-0.686532	0.657416	0.047259	0.953124	0.191971	-0.030631	-0.231869
64918	-1.143656	4.031920	8.974244	-0.641310	0.608151	0.052409	0.954282	0.192823	-0.030869	-0.226302
64919	-1.219224	4.084766	9.137804	-0.746361	0.612370	0.224201	0.955409	0.193577	-0.031104	-0.220801
64920	-0.910469	3.965885	9.065467	-0.536581	0.396143	0.101696	0.956590	0.194014	-0.031018	-0.215250
64921	-1.056644	3.982548	9.115824	-0.693187	0.440951	0.157289	0.957713	0.194878	-0.030564	-0.209463
64922	-1.010879	4.235445	9.094692	-0.574868	0.618780	0.235239	0.958739	0.196146	-0.030151	-0.203562
64923	-0.754977	4.051985	8.857205	-0.401021	0.425329	-0.060926	0.959726	0.197394	-0.029566	-0.197706
64924	-0.662160	4.391576	8.757711	-0.199614	0.684357	-0.019140	0.960596	0.199173	-0.028798	-0.191721
64925	-0.477993	5.038865	8.916314	0.156287	1.075005	0.382368	0.961555	0.200573	-0.027800	-0.185496
64926	-0.442780	5.178040	9.277203	0.174124	1.035958	0.768953	0.962849	0.200467	-0.026230	-0.179019
64927	-0.364814	4.869998	9.479887	0.118343	0.686112	0.828431	0.964386	0.199300	-0.024264	-0.172191
64928	-0.116286	4.255497	9.517340	0.164626	0.087719	0.611689	0.965928	0.198039	-0.021860	-0.165186
64929	-0.379151	4.372942	9.531229	-0.029573	0.286087	0.676734	0.967226	0.197898	-0.019449	-0.157898
64930	-0.110358	5.051794	9.503050	0.439659	0.811020	0.910637	0.968525	0.197669	-0.017162	-0.150306
64931	-0.114347	5.070947	9.333268	0.462753	0.920797	0.759697	0.970088	0.196117	-0.014670	-0.142314
64932	-0.276029	4.804901	9.140536	0.258279	0.851577	0.479083	0.971749	0.193907	-0.012365	-0.133982
64933	-0.115909	4.580988	9.113806	0.359996	0.675565	0.359533	0.973419	0.191434	-0.010356	-0.125306
64934	-0.186835	3.951008	9.001988	0.149960	0.224773	0.016248	0.974980	0.189313	-0.008456	-0.116205
64935	-0.286393	3.916259	9.079466	0.038589	0.220186	0.076995	0.976222	0.188514	-0.006901	-0.106799
64936	0.154802	3.945708	9.157073	0.461821	0.145999	0.147730	0.977365	0.187935	-0.005548	-0.096986
64937	0.129253	3.744905	9.186827	0.387191	-0.023174	0.101360	0.978378	0.187647	-0.004129	-0.086881
64938	0.080787	3.669092	9.186009	0.317961	-0.067882	0.073959	0.979295	0.187245	-0.002766	-0.076901
64939	0.306380	3.505975	8.929823	0.521342	-0.139254	-0.229564	0.980104	0.186886	-0.000992	-0.066846
64940	0.036830	3.821342	9.070096	0.291849	0.142222	0.024246	0.980668	0.187263	0.001109	-0.056752
64941	0.149381	4.419095	9.421726	0.461317	0.554878	0.569938	0.981224	0.187108	0.003349	-0.046673
64942	0.218844	4.513292	9.327283	0.537181	0.692618	0.514342	0.981841	0.186061	0.005885	-0.036542
64943	0.281235	4.356567	8.994850	0.586792	0.703717	0.143536	0.982454	0.184452	0.008439	-0.026277
64944	0.280173	4.060540	9.023674	0.569996	0.453250	0.059637	0.982811	0.183606	0.011024	-0.015784
64945	0.260159	3.842372	8.952403	0.546487	0.290192	-0.086734	0.982799	0.184094	0.013820	-0.004975
64946	0.032143	3.853354	8.899200	0.328494	0.295029	-0.125069	0.982216	0.186899	0.016928	0.005760
64947	-0.057128	4.422560	8.855946	0.246787	0.769471	0.053238	0.981202	0.191226	0.020248	0.016298
64948	0.048092	4.863473	8.730380	0.341801	1.140943	0.109809	0.979984	0.195859	0.023605	0.026696
64949	0.220133	5.271786	8.684183	0.493266	1.462129	0.230898	0.978754	0.199825	0.027005	0.037165
64950	0.125413	5.377798	8.694277	0.387878	1.489506	0.294621	0.977763	0.201919	0.030371	0.047805
64951	0.049002	5.250142	8.537983	0.300414	1.402689	0.107280	0.976986	0.202361	0.033545	0.058508
64952	0.264533	4.741872	8.481139	0.548569	0.997677	-0.159257	0.976341	0.201499	0.036467	0.069468
64953	0.124893	4.383208	8.729728	0.471802	0.575269	-0.071913	0.975572	0.200594	0.039299	0.080477
64954	0.096823	4.341571	8.766984	0.451754	0.536893	-0.054293	0.974632	0.199874	0.042138	0.091469
64955	0.025764	4.370459	8.740568	0.373258	0.572544	-0.064254	0.973522	0.199353	0.045039	0.102392
64956	0.024728	4.401956	8.722007	0.362941	0.614717	-0.068888	0.972217	0.199115	0.047892	0.113374
64957	0.011566	4.431058	8.938945	0.373463	0.559263	0.141552	0.970756	0.198803	0.050802	0.124614
64958	-0.117370	4.575806	9.170901	0.249694	0.570280	0.418130	0.969166	0.198384	0.053576	0.135983
64959	-0.234553	4.622620	9.353377	0.151274	0.517347	0.609344	0.967526	0.197395	0.056383	0.147480
64960	-0.314550	4.770978	9.651059	0.082264	0.532470	0.944345	0.965882	0.195605	0.059303	0.159043
64961	-0.390632	4.366101	9.762631	0.144229	0.157009	0.886782	0.964326	0.192438	0.062421	0.170721
64962	-0.794825	3.847767	9.837878	-0.048473	-0.405489	0.772862	0.962561	0.189248	0.065849	0.182554
64963	-0.988908	4.015413	9.697929	-0.290491	-0.241077	0.723378	0.960615	0.186519	0.069034	0.194069
64964	-0.678895	4.066818	9.353800	-0.089619	0.084070	0.408770	0.958653	0.183324	0.071664	0.205525
64965	-0.876203	3.882797	9.317944	-0.214014	-0.091650	0.317143	0.956570	0.179436	0.074131	0.217441
64966	-1.441607	3.675242	9.503590	-0.598651	-0.526089	0.447359	0.954254	0.175726	0.076642	0.229446
64967	-1.440018	3.160598	9.400417	-0.401399	-0.879466	0.162087	0.951774	0.172090	0.078970	0.241402
64968	-1.546316	2.671814	9.346877	-0.270281	-1.286533	-0.057412	0.948829	0.169862	0.081808	0.253333
64969	-1.713305	3.154649	9.708066	-0.494984	-1.085212	0.468886	0.945376	0.169843	0.085160	0.264887
64970	-1.423841	3.534600	9.798356	-0.352189	-0.676556	0.672850	0.941800	0.169784	0.088608	0.276288
64971	-1.496945	3.888224	9.670739	-0.572937	-0.428734	0.693026	0.938055	0.169813	0.091932	0.287690
64972	-1.480161	3.967206	9.529396	-0.604693	-0.346543	0.591790	0.934231	0.169223	0.094616	0.299372
64973	-1.784993	3.753544	9.432247	-0.741015	-0.682139	0.445387	0.930413	0.167822	0.097093	0.311030
64974	-1.940309	2.991533	9.194207	-0.493241	-1.293490	-0.048925	0.926657	0.165941	0.098974	0.322450
64975	-2.005967	2.881976	9.014991	-0.507347	-1.379414	-0.250289	0.922760	0.164922	0.100781	0.333404
64976	-1.961686	3.445307	9.049622	-0.766962	-0.970317	-0.010432	0.918874	0.163775	0.102334	0.344057
64977	-2.087771	3.419595	9.203805	-0.786290	-1.120780	0.131559	0.915079	0.161643	0.103610	0.354637
64978	-2.263052	3.244534	9.304747	-0.765028	-1.383568	0.173662	0.911318	0.159032	0.104992	0.364944
64979	-2.241831	3.217222	9.503791	-0.659270	-1.420420	0.348322	0.907557	0.156250	0.106305	0.375000
64980	-2.220673	3.318648	9.631378	-0.660015	-1.347984	0.505042	0.903724	0.153242	0.107728	0.384960
64981	-2.405625	3.467011	9.629302	-0.878104	-1.366201	0.574470	0.899895	0.149906	0.108959	0.394772
64982	-2.343203	3.522282	9.539898	-0.903313	-1.248064	0.508798	0.896016	0.146379	0.109925	0.404531
64983	-2.452470	3.523927	9.313142	-1.052023	-1.274384	0.308403	0.891963	0.143042	0.110815	0.414319
64984	-2.211654	3.515643	9.247154	-0.920267	-1.070897	0.225604	0.887734	0.139705	0.111715	0.424182
64985	-2.217365	3.433254	9.259517	-0.861688	-1.114188	0.210219	0.883261	0.136610	0.113032	0.434063
64986	-2.402445	3.393036	9.361839	-0.903480	-1.289506	0.309039	0.878655	0.133603	0.114277	0.443910
64987	-2.255738	3.214488	9.127195	-0.754028	-1.230650	0.018076	0.873906	0.130584	0.115405	0.453782
64988	-2.126030	3.044895	8.995292	-0.585502	-1.191601	-0.171944	0.868883	0.127917	0.116775	0.463727
64989	-2.265314	3.215798	9.071686	-0.751665	-1.219685	-0.029241	0.863561	0.125461	0.118376	0.473824
64990	-2.396565	3.257923	9.209224	-0.786086	-1.321306	0.127311	0.858051	0.122943	0.120048	0.483965
64991	-2.423422	3.017725	9.311835	-0.547329	-1.469595	0.148766	0.852351	0.120456	0.121733	0.494135
64992	-2.401429	2.914598	9.349664	-0.406608	-1.496659	0.150871	0.846369	0.118349	0.123701	0.504332
64993	-2.451478	2.847843	9.324580	-0.340468	-1.565784	0.112028	0.840113	0.116577	0.125735	0.514598
64994	-2.566146	2.750783	9.199846	-0.298017	-1.701557	-0.024702	0.833644	0.115188	0.128199	0.524723
64995	-2.595706	3.091765	9.358403	-0.476986	-1.597800	0.241937	0.827033	0.114431	0.131080	0.534547
64996	-2.397151	3.444591	9.418018	-0.613592	-1.284245	0.399293	0.820360	0.113105	0.133800	0.544348
64997	-2.480389	3.545531	9.453236	-0.666070	-1.327822	0.477105	0.813596	0.111348	0.136167	0.554185
64998	-2.396973	3.726230	9.456152	-0.749878	-1.189248	0.534889	0.806744	0.109402	0.138209	0.563998
64999	-2.285100	3.822804	9.521451	-0.743904	-1.057023	0.619129	0.799777	0.107052	0.139917	0.573864
65000	-2.391312	3.730397	9.578422	-0.648945	-1.191863	0.653385	0.792612	0.104738	0.141381	0.583787
65001	-2.263387	3.880532	9.863228	-0.622289	-1.030519	0.958359	0.785204	0.102502	0.142964	0.593725
65002	-2.246965	3.778438	10.293238	-0.348825	-1.036522	1.326435	0.777492	0.099969	0.144808	0.603775
65003	-2.312706	3.866445	10.543286	-0.321037	-1.059877	1.599250	0.769550	0.097601	0.147283	0.613657
65004	-1.938762	3.932557	10.646180	-0.232769	-0.661577	1.679614	0.761295	0.095243	0.149577	0.623687
65005	-1.781505	3.908377	10.246683	-0.296521	-0.517767	1.281799	0.752583	0.092856	0.151610	0.634044
65006	-1.818694	3.873713	9.839825	-0.394909	-0.582656	0.894319	0.743468	0.090496	0.152859	0.644747
65007	-1.900270	3.815273	9.452152	-0.475673	-0.712554	0.520582	0.734108	0.088196	0.153368	0.655580
65008	-2.029577	3.774891	9.339947	-0.482726	-0.881523	0.414404	0.724656	0.085988	0.153298	0.666318
65009	-1.709299	3.357610	9.375926	-0.066799	-0.633060	0.271850	0.715056	0.083443	0.152147	0.677188
65010	-1.401371	2.523340	9.210357	0.651698	-0.420071	-0.191849	0.705157	0.081060	0.150969	0.688034
65011	-1.317847	2.315671	9.267334	0.854553	-0.349339	-0.214238	0.695158	0.079631	0.150532	0.698394
65012	-1.294828	2.643099	9.594074	0.650598	-0.300372	0.197073	0.685178	0.078382	0.150268	0.708383
65013	-1.271814	2.838673	9.716958	0.499384	-0.280081	0.373921	0.675383	0.076500	0.149834	0.718021
65014	-1.165398	2.965667	9.819508	0.382399	-0.181501	0.502195	0.665780	0.074029	0.148764	0.727410
65015	-0.825557	2.901224	9.682544	0.323395	0.128538	0.322842	0.656300	0.071005	0.147283	0.736571
65016	-0.701671	2.761393	9.544691	0.346762	0.235406	0.139343	0.646890	0.068079	0.146131	0.745348
65017	-0.606648	2.786672	9.281613	0.188901	0.282734	-0.108762	0.637409	0.065595	0.145570	0.753801
65018	-0.457783	3.108876	9.259167	-0.173563	0.367543	-0.043266	0.627839	0.063729	0.145721	0.761920
65019	-0.391405	3.390735	9.266234	-0.467091	0.370012	0.044200	0.618110	0.061709	0.146046	0.769937
65020	-0.421085	3.424526	9.246070	-0.514767	0.313455	0.037754	0.608307	0.059694	0.146307	0.777813
65021	-0.252927	3.215455	9.161145	-0.405325	0.488361	-0.121100	0.598359	0.057773	0.146467	0.785606
65022	-0.298734	3.107593	9.160144	-0.308374	0.452793	-0.150676	0.588155	0.056218	0.146938	0.793299
65023	-0.387986	3.191801	9.174156	-0.357306	0.331216	-0.103626	0.577813	0.055121	0.147682	0.800802
65024	-0.443141	3.442217	9.291676	-0.530852	0.206959	0.089625	0.567607	0.053990	0.148244	0.808042
65025	-0.398480	3.291286	9.334308	-0.401397	0.277045	0.080881	0.557454	0.052591	0.148087	0.815199
65026	-0.382571	2.930540	9.338271	-0.091795	0.388211	-0.026036	0.547140	0.051426	0.148084	0.822231
65027	-0.708460	2.768862	9.349538	0.187918	0.134732	-0.038800	0.536527	0.050747	0.148653	0.829135
65028	-0.880476	2.942752	9.789792	0.238316	-0.005859	0.444903	0.525826	0.050091	0.149726	0.835811
65029	-1.230367	3.192009	10.376045	0.348532	-0.294546	1.103206	0.515142	0.048845	0.150984	0.842287
65030	-1.646221	3.069632	10.442978	0.682178	-0.578175	1.159494	0.504492	0.046754	0.151742	0.848691
65031	-1.517789	2.744760	10.001145	0.798423	-0.397804	0.630710	0.493728	0.044836	0.152042	0.855047
65032	-1.154212	2.333791	9.732282	0.894549	0.063548	0.221844	0.482496	0.042897	0.152408	0.861469
65033	-1.874247	2.592109	9.852923	1.105309	-0.615712	0.468895	0.471112	0.041229	0.153502	0.867635
65034	-1.849910	2.777582	9.877692	0.973881	-0.657174	0.547116	0.460066	0.039738	0.153902	0.873541
65035	-1.397869	2.400533	9.673450	0.979410	-0.123951	0.203181	0.449358	0.037967	0.153586	0.879231
65036	-1.144937	2.092627	9.656519	1.061071	0.254322	0.074060	0.438978	0.036437	0.153500	0.884539
65037	-1.448860	2.304289	9.789731	1.119795	-0.050616	0.286380	0.428893	0.035447	0.154573	0.889326
65038	-1.744977	3.122535	9.915977	0.749345	-0.697376	0.678914	0.419201	0.034843	0.155940	0.893722
65039	-1.813652	3.261479	9.888714	0.724397	-0.821246	0.699874	0.409652	0.033947	0.156443	0.898086
65040	-1.942151	3.051637	9.861103	0.988521	-0.783859	0.614876	0.400111	0.033148	0.156704	0.902361
65041	-1.880820	2.654156	9.755877	1.241499	-0.503251	0.383611	0.390420	0.032681	0.156932	0.906574
65042	-2.108525	2.319555	9.639227	1.649554	-0.456069	0.177888	0.380598	0.032600	0.158082	0.910545
65043	-2.183528	2.301112	9.532606	1.748669	-0.485013	0.068605	0.370707	0.033147	0.159687	0.914318
65044	-2.291459	2.329201	9.598670	1.881003	-0.516461	0.137439	0.360936	0.033741	0.161247	0.917925
65045	-2.305991	2.111184	9.542616	2.079862	-0.348309	0.005086	0.351430	0.034181	0.162467	0.921376
65046	-2.289190	2.047942	9.609455	2.169315	-0.227420	0.037085	0.342176	0.034511	0.163996	0.924570
65047	-2.226042	2.359087	9.755271	2.001364	-0.315569	0.266024	0.333303	0.034609	0.165631	0.927512
65048	-2.283903	2.414459	9.547008	2.016926	-0.402241	0.084842	0.324667	0.034253	0.166985	0.930341
65049	-2.288715	2.490482	9.425831	1.990183	-0.448472	-0.008363	0.316342	0.033892	0.168321	0.932977
65050	-2.154529	2.775662	9.470395	1.759406	-0.522034	0.120410	0.308177	0.033350	0.169474	0.935517
65051	-2.100507	2.688139	9.517538	1.800238	-0.369524	0.129352	0.300171	0.032528	0.170493	0.937961
65052	-2.175514	2.860726	9.518941	1.790841	-0.500078	0.190783	0.292604	0.031754	0.171827	0.940133
65053	-1.825592	2.881505	9.450575	1.500434	-0.302591	0.117381	0.285280	0.030890	0.172613	0.942266
65054	-1.760197	2.752328	9.385789	1.519042	-0.148458	0.007543	0.278240	0.029862	0.174127	0.944124
65055	-1.985092	3.064087	9.438053	1.579289	-0.442611	0.173083	0.271433	0.029257	0.176559	0.945672
65056	-1.914668	3.508639	9.319031	1.312603	-0.735792	0.215080	0.264864	0.028897	0.178940	0.947097
65057	-2.000689	3.653533	9.309453	1.349562	-0.847117	0.260931	0.258460	0.028372	0.180730	0.948541
65058	-2.114188	3.631954	9.475723	1.516071	-0.785335	0.411535	0.252282	0.027983	0.182454	0.949885
65059	-1.859071	3.275169	9.412666	1.481197	-0.351300	0.210466	0.246147	0.027562	0.183943	0.951219
65060	-1.972669	3.161316	9.565870	1.682033	-0.211404	0.312377	0.240140	0.027176	0.186217	0.952322
65061	-1.991407	3.284178	9.738775	1.697601	-0.198678	0.515600	0.234335	0.026849	0.188740	0.953280
65062	-1.894346	3.211660	9.714385	1.667145	-0.039717	0.458206	0.228607	0.026390	0.191224	0.954188
65063	-1.706230	3.599758	9.579919	1.341873	-0.258610	0.472079	0.223034	0.025954	0.193909	0.954977
65064	-1.318547	3.807108	9.735427	0.948560	-0.153344	0.679585	0.217521	0.025018	0.195364	0.955977
65065	-1.240991	3.725806	9.988430	0.944436	0.071355	0.878118	0.212239	0.023194	0.196046	0.957070
65066	-1.248341	3.957132	10.304591	0.881913	0.016247	1.260874	0.207374	0.021061	0.196438	0.958105
65067	-0.820756	4.119387	10.279885	0.399395	0.054847	1.284899	0.202752	0.018884	0.196067	0.959215
65068	-0.565959	3.793880	9.871894	0.211901	0.271615	0.772650	0.197948	0.016671	0.195371	0.960400
65069	-0.641087	3.953767	9.878587	0.200674	0.107043	0.844611	0.192845	0.015130	0.195392	0.961459
65070	-0.626846	4.062244	9.682359	0.121404	-0.052206	0.705172	0.187380	0.014017	0.195349	0.962565
65071	-0.690985	3.780858	9.588361	0.273513	0.123399	0.512959	0.181744	0.013269	0.194902	0.963746
65072	-0.726366	3.320250	9.568205	0.468372	0.485109	0.318822	0.176062	0.012872	0.194073	0.964973
65073	-0.510684	2.824861	9.627054	0.441069	0.992758	0.174339	0.170573	0.012589	0.193316	0.966114
65074	-0.294315	2.568383	9.689684	0.329978	1.300420	0.125784	0.165275	0.012585	0.193118	0.967074
65075	-0.194029	2.681342	9.794019	0.215959	1.270602	0.261486	0.160070	0.012645	0.193198	0.967932
65076	-0.062893	2.975801	9.634247	-0.004928	0.989060	0.222240	0.155059	0.012525	0.192852	0.968818
65077	0.159186	3.249763	9.508729	-0.303742	0.747499	0.204853	0.150298	0.012294	0.191495	0.969840
65078	0.253268	3.163739	9.228849	-0.393330	0.704002	-0.086718	0.145670	0.011835	0.189164	0.971008
65079	0.360176	3.153887	9.043986	-0.511079	0.622070	-0.261667	0.141364	0.011562	0.186694	0.972125
65080	0.660262	2.872805	8.885913	-0.738116	0.843310	-0.517949	0.137153	0.011305	0.184241	0.973199
65081	0.595745	2.807237	8.870789	-0.660767	0.837957	-0.550531	0.133183	0.011200	0.183191	0.973950
65082	0.711937	3.198880	8.901328	-0.863716	0.514051	-0.380665	0.129372	0.011264	0.183569	0.974391
65083	0.653780	3.486404	8.999110	-0.860394	0.281413	-0.182167	0.125486	0.011124	0.184658	0.974695
65084	0.595779	3.868781	9.157437	-0.869470	-0.003897	0.108251	0.121625	0.011243	0.186055	0.974918
65085	0.835351	3.761410	8.910811	-1.075233	0.073931	-0.164530	0.117603	0.011275	0.187068	0.975217
65086	0.842489	3.539932	8.887462	-1.016972	0.272770	-0.267048	0.113199	0.011379	0.187893	0.975578
65087	0.570364	3.457565	9.412426	-0.687334	0.489034	0.195420	0.108739	0.011026	0.189041	0.975868
65088	-0.171529	3.717023	10.062449	0.024637	0.353778	0.909848	0.104690	0.009968	0.190011	0.976133
65089	-0.400431	3.883615	10.158018	0.209541	0.203393	1.065862	0.100822	0.008540	0.190049	0.976547
65090	-0.791101	3.460803	10.023879	0.642442	0.458312	0.791948	0.096916	0.006462	0.189577	0.977050
65091	-1.146500	3.247799	9.746818	0.988051	0.480226	0.466233	0.093207	0.004672	0.189275	0.977479
65092	-0.765476	2.901287	9.204305	0.628442	0.660905	-0.174696	0.089659	0.003198	0.188664	0.977935
65093	-1.037602	2.841045	8.958961	0.878861	0.579874	-0.415748	0.086558	0.001962	0.189017	0.978150
65094	-0.914437	3.171049	9.200360	0.700567	0.402990	-0.071786	0.083848	0.001234	0.189416	0.978310
65095	-0.650103	3.131921	9.287982	0.440783	0.521966	-0.013125	0.081642	0.000334	0.189372	0.978505
65096	-0.582738	2.947505	9.516080	0.396613	0.785877	0.127545	0.079923	-0.000695	0.189064	0.978707
65097	-0.598627	2.946001	9.787583	0.402187	0.882686	0.380111	0.078552	-0.001763	0.188737	0.978879
65098	-0.681896	2.830446	9.830873	0.482291	0.987324	0.381184	0.077348	-0.002971	0.188359	0.979045
65099	-0.831279	3.031595	9.853659	0.578669	0.784859	0.484171	0.076350	-0.004001	0.188030	0.979183
65100	-0.605182	3.098107	9.683574	0.321983	0.679540	0.344605	0.075317	-0.005022	0.186741	0.979505
65101	-0.834240	2.875863	9.555726	0.557785	0.777367	0.155408	0.074338	-0.006183	0.185313	0.979844
65102	-1.162151	2.630573	9.388837	0.891707	0.872913	-0.072894	0.073613	-0.007471	0.184301	0.980081
65103	-1.209797	2.687881	9.248521	0.906829	0.758326	-0.178061	0.073541	-0.008474	0.184675	0.980008
65104	-1.196594	2.985888	9.309587	0.830537	0.523417	-0.012077	0.073783	-0.009614	0.185606	0.979803
65105	-1.365592	3.201488	9.358021	0.943596	0.348272	0.120847	0.074522	-0.010840	0.187412	0.979390
65106	-0.913387	3.681348	9.359461	0.401938	0.010574	0.278115	0.075287	-0.011916	0.189206	0.978975
65107	-0.660575	3.949012	9.405444	0.085361	-0.147508	0.408088	0.075819	-0.013453	0.190485	0.978665
65108	-0.972763	4.041669	9.350737	0.344233	-0.279219	0.410867	0.076273	-0.015352	0.190715	0.978557
65109	-0.874463	3.543203	9.043104	0.283390	0.069623	-0.065309	0.076573	-0.017490	0.189781	0.978680
65110	-0.974606	3.207570	8.926023	0.389939	0.309766	-0.290919	0.076936	-0.019958	0.189530	0.978653
65111	-1.047565	3.172992	9.017539	0.416714	0.370677	-0.212166	0.077303	-0.022667	0.189879	0.978497
65112	-0.996918	3.418582	8.826757	0.277961	0.096840	-0.299260	0.077874	-0.025454	0.190733	0.978217
65113	-0.797812	3.220367	8.591504	0.061384	0.233170	-0.606018	0.078283	-0.028797	0.191153	0.978010
65114	-0.971558	3.496302	8.540458	0.125784	-0.040997	-0.534241	0.078584	-0.032397	0.192491	0.977611
65115	-1.113080	3.552729	8.556299	0.182853	-0.077317	-0.483641	0.078668	-0.036863	0.193528	0.977241
65116	-1.411917	3.356630	8.790805	0.409898	0.176942	-0.308029	0.078654	-0.042315	0.194322	0.976863
65117	-1.942812	3.450475	8.832261	0.815351	0.064478	-0.168035	0.079335	-0.047401	0.195605	0.976318
65118	-0.984402	3.598881	8.525992	-0.228897	-0.043086	-0.509002	0.080144	-0.052356	0.195282	0.976064
65119	-1.380411	3.477810	8.402752	0.086338	-0.028649	-0.614991	0.080581	-0.058591	0.195365	0.975657
65120	-2.077209	3.504411	8.495022	0.639454	-0.095123	-0.413649	0.080713	-0.065164	0.195603	0.975181
65121	-2.006409	2.907801	8.442814	0.559051	0.454175	-0.688990	0.080860	-0.072373	0.195950	0.974591
65122	-2.141276	2.730122	8.329131	0.605544	0.584520	-0.829195	0.081449	-0.079780	0.197612	0.973628
65123	-1.907912	3.315038	8.401187	0.122974	0.160227	-0.584092	0.082228	-0.087386	0.199669	0.972489
65124	-1.885383	3.643106	8.248504	-0.085135	-0.146518	-0.602149	0.082738	-0.095585	0.201431	0.971310
65125	-2.086564	3.561078	8.223949	-0.027294	-0.063746	-0.611538	0.082576	-0.104918	0.202575	0.970122
65126	-3.233390	2.677103	8.151139	1.097600	0.617857	-0.731205	0.082482	-0.115033	0.204483	0.968582
65127	-3.459557	3.060132	8.106070	1.064370	0.298947	-0.549002	0.083648	-0.124756	0.207915	0.966546
65128	-3.016996	4.322340	8.396954	0.125082	-0.587337	0.083256	0.085034	-0.134539	0.210221	0.964612
65129	-2.509895	4.576283	8.355438	-0.606567	-0.744910	-0.008161	0.085742	-0.145486	0.209233	0.963174
65130	-2.716119	3.257724	7.866705	-0.213699	0.195106	-0.880326	0.085803	-0.158227	0.206828	0.961678
65131	-4.173453	2.039466	7.660107	1.245407	1.053001	-1.004222	0.085606	-0.172442	0.205386	0.959558
65132	-5.894007	2.253114	7.308258	2.645147	0.589433	-0.545708	0.088032	-0.184975	0.207881	0.956462
65133	-4.431619	4.907493	7.674624	0.283688	-1.417781	0.213557	0.091726	-0.197255	0.211461	0.952870
65134	-3.936147	5.544041	8.728437	-0.976720	-1.448239	1.112293	0.093103	-0.211770	0.207964	0.950387
65135	-4.218087	3.731277	8.163469	-0.352304	-0.164881	0.096749	0.092989	-0.227362	0.201546	0.948176
65136	-4.958639	1.516160	7.562953	0.818347	1.429157	-0.792481	0.092502	-0.243806	0.194677	0.945570
65137	-6.195897	1.920234	6.938829	1.743384	0.671283	-0.499951	0.095134	-0.258083	0.193422	0.941770
65138	-5.740274	4.235880	7.991028	-0.073531	-0.954415	0.856170	0.097867	-0.272804	0.191015	0.937824
65139	-6.097455	4.936630	8.314811	-0.481882	-1.551030	1.502579	0.098322	-0.288758	0.183350	0.934524
65140	-5.438223	3.468401	7.507418	-0.525508	-0.632797	0.050268	0.096267	-0.305015	0.171721	0.931778
65141	-6.167395	1.119668	7.018640	0.657893	1.135356	-0.495042	0.093092	-0.321859	0.159850	0.928541
65142	-7.418697	0.658064	7.366822	1.213401	1.512901	0.481418	0.091779	-0.337380	0.154091	0.924125
65143	-7.690496	1.470023	7.794234	0.590267	0.859013	1.185416	0.091412	-0.352278	0.150900	0.919116
65144	-7.563766	2.554337	7.448584	0.066362	-0.278287	1.101771	0.091084	-0.366913	0.147970	0.913884
65145	-6.822456	2.811662	6.801310	-0.434923	-0.726939	0.186518	0.089439	-0.381312	0.142702	0.908976
65146	-6.910692	1.605319	6.464198	-0.123192	0.233862	-0.218829	0.086543	-0.396727	0.135302	0.903776
65147	-7.598233	0.923345	6.447970	0.198313	0.785296	0.162068	0.083733	-0.412747	0.129149	0.897747
65148	-9.537772	0.944598	6.485857	1.040429	0.673045	1.692913	0.081064	-0.428723	0.125082	0.891055
65149	-9.924684	1.569796	5.708342	1.326927	-0.152227	1.665776	0.079475	-0.442433	0.123212	0.884735
65150	-8.464787	2.313093	5.646340	-0.004803	-0.818759	0.589537	0.076798	-0.456217	0.119860	0.878409
65151	-8.981305	2.004912	6.369610	-0.523539	-0.347034	1.360983	0.072426	-0.470808	0.113984	0.871838
65152	-8.688146	1.299195	6.144684	-0.680583	0.236415	0.883099	0.068091	-0.485424	0.107764	0.864936
65153	-9.802381	0.767600	5.534359	0.154032	0.548869	1.455299	0.063523	-0.500739	0.102100	0.857205
65154	-10.893189	0.773760	5.312474	0.492550	0.469424	2.312003	0.059303	-0.514350	0.097006	0.850010
65155	-9.582471	1.616462	4.808486	-0.192648	-0.483932	1.016864	0.055315	-0.527151	0.091566	0.843011
65156	-9.682124	1.958008	5.304723	-0.968153	-0.764453	1.331196	0.047936	-0.541119	0.081985	0.835566
65157	-9.625687	1.077575	5.430448	-1.279229	0.023323	1.217169	0.038937	-0.554407	0.070435	0.828345
65158	-9.163562	0.627045	4.975534	-1.295002	0.268687	0.548844	0.029667	-0.567425	0.058273	0.820824
65159	-9.724883	-0.209915	4.278390	-0.683665	0.900218	0.752960	0.019055	-0.580699	0.044949	0.812653
65160	-10.459342	-0.262181	4.314863	-0.828717	0.877243	1.439754	0.010516	-0.593042	0.034935	0.804344
65161	-10.265603	0.850639	4.382300	-1.350115	-0.321951	1.294770	0.002496	-0.604717	0.024842	0.796049
65162	-10.140620	0.423129	3.871247	-1.167897	-0.034753	0.986607	-0.008101	-0.615341	0.011544	0.788135
65163	-9.711487	-0.242014	3.541295	-1.214976	0.500289	0.443020	-0.018185	-0.624660	-0.000390	0.780685
65164	-9.417427	-0.095659	3.817362	-1.782530	0.245450	0.188661	-0.026772	-0.632931	-0.009758	0.773684
65165	-9.354598	0.168844	3.338710	-1.522547	-0.070321	0.003488	-0.034224	-0.640706	-0.016973	0.766835
65166	-9.655931	0.430651	2.955124	-1.266990	-0.341256	0.208816	-0.040759	-0.647840	-0.022705	0.760346
65167	-10.102954	0.785969	2.647695	-1.037628	-0.683566	0.586906	-0.046850	-0.653963	-0.027784	0.754563
65168	-10.264055	0.787332	2.523156	-1.037701	-0.689282	0.712696	-0.053405	-0.658720	-0.033217	0.749755
65169	-9.966653	0.403297	2.288385	-1.006901	-0.314922	0.366680	-0.060494	-0.662524	-0.039368	0.745555
65170	-9.862812	-0.022352	2.211166	-1.106430	0.085086	0.233825	-0.067446	-0.665937	-0.045720	0.741545
65171	-9.647627	-0.066328	1.934864	-0.960361	0.133515	-0.020651	-0.074264	-0.668772	-0.051956	0.737922
65172	-9.855636	-0.245120	1.826575	-0.950821	0.308204	0.163803	-0.080844	-0.671099	-0.058286	0.734638
65173	-10.437455	-1.006142	2.206570	-1.492151	0.974690	0.753521	-0.086281	-0.672430	-0.063621	0.732357
65174	-10.879376	-1.700920	2.758104	-2.178735	1.533384	1.221935	-0.089307	-0.672248	-0.066405	0.731914
65175	-10.809036	-1.602007	2.552925	-1.950915	1.469141	1.139689	-0.089683	-0.670809	-0.066796	0.733151
65176	-10.087756	-0.557823	1.449541	-0.662544	0.660984	0.350924	-0.087356	-0.669034	-0.064706	0.735239
65177	-9.739322	1.068277	1.069400	0.066806	-0.857242	0.005651	-0.084534	-0.667563	-0.062145	0.737124
65178	-9.588261	1.688263	0.971630	0.314403	-1.448680	-0.141525	-0.085160	-0.665972	-0.063026	0.738415
65179	-9.540217	1.143290	0.749351	0.456074	-0.872374	-0.225445	-0.088874	-0.664469	-0.066940	0.738987
65180	-9.704443	0.406914	0.882513	0.216117	-0.177655	-0.063723	-0.093570	-0.663251	-0.071935	0.739032
65181	-9.502392	-0.283754	1.002917	-0.060865	0.451220	-0.264154	-0.097766	-0.662106	-0.076447	0.739062
65182	-9.393224	-0.547158	0.915831	-0.041310	0.713137	-0.386102	-0.099789	-0.661438	-0.079062	0.739115
65183	-9.470893	-0.239487	1.115274	-0.139605	0.359918	-0.281163	-0.100234	-0.660895	-0.080213	0.739417
65184	-9.369094	0.049573	1.104146	-0.053398	0.070281	-0.379040	-0.099810	-0.660315	-0.080472	0.739964
65185	-9.458579	0.161784	1.189714	-0.083077	-0.061294	-0.278767	-0.099012	-0.659845	-0.080189	0.740521
65186	-9.717939	0.395589	1.349662	-0.137902	-0.318871	0.000350	-0.097808	-0.659486	-0.079310	0.741095
65187	-9.749747	0.720492	1.488563	-0.177979	-0.665083	0.052325	-0.097183	-0.659139	-0.078668	0.741554
65188	-9.739088	0.628553	1.557395	-0.260385	-0.588870	0.049149	-0.097394	-0.658913	-0.078563	0.741738
65189	-9.721644	0.349064	1.571890	-0.340085	-0.317293	0.030418	-0.097981	-0.658743	-0.078785	0.741789
65190	-9.814771	0.074507	1.677551	-0.495729	-0.069106	0.132107	-0.098566	-0.658587	-0.079097	0.741816
65191	-9.823464	-0.025340	1.747854	-0.583683	0.013134	0.147997	-0.098866	-0.658397	-0.079272	0.741926
65192	-9.742820	0.095718	1.745267	-0.555745	-0.105960	0.069498	-0.098911	-0.658190	-0.079320	0.742099
65193	-9.745437	0.353217	1.648703	-0.392952	-0.332050	0.064146	-0.098943	-0.657928	-0.079450	0.742313
65194	-9.711181	0.454263	1.627474	-0.343165	-0.425978	0.029205	-0.099492	-0.657518	-0.079898	0.742555
65195	-9.689301	0.287291	1.546640	-0.299723	-0.243976	-0.004129	-0.100380	-0.657078	-0.080608	0.742748
65196	-9.702765	0.173116	1.556337	-0.326912	-0.133066	0.009289	-0.101248	-0.656652	-0.081218	0.742941
65197	-9.724358	0.156912	1.580612	-0.343271	-0.119140	0.033838	-0.101901	-0.656264	-0.081571	0.743156
65198	-9.805541	0.201181	1.596905	-0.329092	-0.157038	0.117380	-0.102503	-0.655825	-0.081698	0.743446
65199	-9.787611	0.138697	1.511880	-0.255455	-0.068366	0.088444	-0.103080	-0.655353	-0.081727	0.743779
65200	-9.721571	0.132206	1.493929	-0.237591	-0.052346	0.020879	-0.103670	-0.654898	-0.081764	0.744094
65201	-9.655011	0.144750	1.497530	-0.236658	-0.060037	-0.044209	-0.104215	-0.654503	-0.081721	0.744370
65202	-9.619062	0.237351	1.532111	-0.241309	-0.150569	-0.073636	-0.104937	-0.654033	-0.081730	0.744681
65203	-9.546381	0.117750	1.474919	-0.217295	-0.013747	-0.154777	-0.105778	-0.653612	-0.081815	0.744922
65204	-9.661843	0.082233	1.467287	-0.198400	0.038604	-0.041810	-0.106334	-0.653329	-0.081656	0.745109
65205	-9.838050	0.170074	1.550598	-0.227961	-0.047650	0.145538	-0.106756	-0.653026	-0.081317	0.745351
65206	-9.740433	0.125920	1.543921	-0.238584	0.003727	0.047264	-0.107198	-0.652694	-0.080911	0.745622
65207	-9.687892	0.110488	1.571691	-0.269878	0.020798	-0.001246	-0.107447	-0.652460	-0.080403	0.745846
65208	-9.721254	0.188477	1.618808	-0.285936	-0.053947	0.039935	-0.107675	-0.652250	-0.079995	0.746041
65209	-9.766510	0.232784	1.596849	-0.243546	-0.079916	0.082924	-0.107989	-0.652052	-0.079796	0.746190
65210	-9.726460	0.144475	1.581559	-0.253867	0.013239	0.039297	-0.108288	-0.651925	-0.079740	0.746263
65211	-9.775174	0.166417	1.629071	-0.285117	-0.013254	0.094589	-0.108584	-0.651791	-0.079786	0.746332
65212	-9.750263	0.141986	1.539120	-0.206861	0.035241	0.057097	-0.108777	-0.651730	-0.079759	0.746360
65213	-9.810344	0.177766	1.668349	-0.312559	-0.025870	0.135151	-0.108775	-0.651690	-0.079549	0.746418
65214	-9.743150	0.080093	1.655342	-0.333291	0.071715	0.064524	-0.108652	-0.651655	-0.079180	0.746506
65215	-9.677893	0.233524	1.701116	-0.344651	-0.088675	0.009904	-0.108397	-0.651664	-0.078844	0.746570
65216	-9.638714	0.356690	1.675454	-0.292304	-0.202810	-0.029405	-0.108217	-0.651641	-0.078752	0.746627
65217	-9.722897	0.289472	1.697241	-0.319012	-0.139058	0.055344	-0.108216	-0.651604	-0.078795	0.746654
65218	-9.671496	0.198733	1.618306	-0.271421	-0.035211	-0.008538	-0.108341	-0.651482	-0.078994	0.746722
65219	-9.706461	0.211400	1.667494	-0.307686	-0.059152	0.033248	-0.108283	-0.651365	-0.079075	0.746823
65220	-9.691161	0.259773	1.665939	-0.292186	-0.107854	0.019120	-0.108215	-0.651236	-0.079154	0.746937
65221	-9.669069	0.211555	1.649450	-0.287604	-0.059512	-0.006053	-0.108247	-0.651054	-0.079263	0.747080
65222	-9.714301	0.220291	1.665340	-0.290818	-0.070327	0.041246	-0.108146	-0.650956	-0.079281	0.747178
65223	-9.696371	0.207770	1.639687	-0.267852	-0.053002	0.019749	-0.108150	-0.650757	-0.079276	0.747352
65224	-9.700890	0.224634	1.612605	-0.232290	-0.060349	0.020960	-0.108182	-0.650584	-0.079166	0.747509
65225	-9.653010	0.199121	1.656448	-0.282801	-0.046675	-0.020756	-0.108356	-0.650388	-0.079142	0.747657
65226	-9.703539	0.146086	1.688981	-0.317506	0.001860	0.032710	-0.108340	-0.650275	-0.079025	0.747770
65227	-9.716626	0.232351	1.642570	-0.246132	-0.066749	0.041236	-0.108217	-0.650160	-0.078797	0.747912
65228	-9.709803	0.308841	1.641841	-0.223210	-0.137930	0.036294	-0.108067	-0.650053	-0.078479	0.748060
65229	-9.639676	0.292220	1.657141	-0.249086	-0.126773	-0.031238	-0.108264	-0.649961	-0.078453	0.748114
65230	-9.686589	0.242236	1.667161	-0.264298	-0.074859	0.015468	-0.108552	-0.649915	-0.078459	0.748112
65231	-9.640864	0.154317	1.702882	-0.326342	0.001542	-0.026811	-0.108865	-0.649820	-0.078528	0.748141
65232	-9.632090	0.169494	1.674684	-0.296130	-0.003332	-0.039113	-0.108893	-0.649815	-0.078336	0.748162
65233	-9.634102	0.234989	1.700680	-0.302931	-0.070057	-0.031748	-0.108769	-0.649766	-0.078061	0.748251
65234	-9.673156	0.322684	1.710558	-0.283253	-0.151772	0.010592	-0.108642	-0.649733	-0.077765	0.748329
65235	-9.676108	0.333633	1.743686	-0.310367	-0.167587	0.018610	-0.108747	-0.649646	-0.077675	0.748398
65236	-9.737641	0.277731	1.739998	-0.311630	-0.105715	0.077615	-0.108954	-0.649572	-0.077665	0.748434
65237	-9.811917	0.243973	1.756075	-0.324321	-0.070418	0.152597	-0.109019	-0.649496	-0.077610	0.748496
65238	-9.923153	0.330352	1.824994	-0.352925	-0.163553	0.274800	-0.108769	-0.649525	-0.077467	0.748522
65239	-9.903934	0.479081	1.870450	-0.359594	-0.322709	0.266130	-0.108473	-0.649487	-0.077512	0.748593
65240	-9.877616	0.618735	1.864405	-0.318741	-0.462085	0.242710	-0.108320	-0.649422	-0.077744	0.748648
65241	-9.869872	0.578876	1.853617	-0.317744	-0.428217	0.232264	-0.108711	-0.649342	-0.078566	0.748575
65242	-9.798382	0.390761	1.772059	-0.294481	-0.237006	0.145138	-0.109610	-0.649120	-0.079702	0.748517
65243	-9.601472	0.089176	1.760281	-0.384551	0.041017	-0.058445	-0.110816	-0.648836	-0.080847	0.748462
65244	-9.564589	-0.042572	1.697801	-0.361014	0.181774	-0.106899	-0.112005	-0.648521	-0.081752	0.748460
65245	-9.752705	0.025807	1.565308	-0.186544	0.165208	0.061725	-0.112947	-0.648201	-0.082309	0.748534
65246	-10.108552	0.214986	1.446282	0.034537	0.042751	0.400918	-0.113943	-0.647601	-0.082803	0.748848
65247	-10.157435	-0.013257	1.370554	0.065978	0.295364	0.432333	-0.115368	-0.646758	-0.083450	0.749286
65248	-10.111047	-0.365441	1.336165	0.011692	0.653472	0.371857	-0.116934	-0.645879	-0.083975	0.749743
65249	-9.884669	-0.640882	1.363244	-0.105558	0.912673	0.143802	-0.118092	-0.644998	-0.083898	0.750329
65250	-9.589279	-0.700808	1.350083	-0.132224	0.973108	-0.153307	-0.118342	-0.644129	-0.082940	0.751141
65251	-9.343052	-0.484609	1.385559	-0.117640	0.757940	-0.386190	-0.117827	-0.643258	-0.081471	0.752129
65252	-9.336120	-0.203638	1.403145	-0.033917	0.499244	-0.382790	-0.116876	-0.642462	-0.079842	0.753132
65253	-9.457033	0.002790	1.410796	0.055934	0.321625	-0.256579	-0.115718	-0.641708	-0.078173	0.754128
65254	-9.598793	0.209210	1.456658	0.112113	0.135067	-0.103332	-0.114455	-0.640884	-0.076362	0.755206
65255	-9.582961	0.418113	1.488610	0.159409	-0.061953	-0.107297	-0.113396	-0.639957	-0.074715	0.756316
65256	-9.601754	0.364622	1.548304	0.115149	-0.009266	-0.080757	-0.112607	-0.639129	-0.073197	0.757282
65257	-9.721580	0.187843	1.622499	0.036707	0.167855	0.043648	-0.111855	-0.638508	-0.071631	0.758067
65258	-9.805102	-0.029095	1.571981	0.058908	0.412071	0.108939	-0.110683	-0.638059	-0.069791	0.758788
65259	-9.822944	-0.016917	1.627610	0.026550	0.402121	0.136041	-0.108719	-0.637761	-0.067342	0.759544
65260	-9.729396	0.088253	1.631440	0.047928	0.305625	0.048083	-0.106351	-0.637446	-0.064529	0.760387
65261	-9.582893	0.098006	1.710860	-0.037565	0.280900	-0.081904	-0.103800	-0.637306	-0.061464	0.761110
65262	-9.642224	0.074818	1.857283	-0.165928	0.291041	0.001350	-0.101047	-0.637380	-0.058280	0.761669
65263	-9.582167	-0.031623	1.965287	-0.298740	0.380971	-0.042996	-0.097852	-0.637563	-0.054907	0.762184
65264	-9.514846	-0.128769	2.042587	-0.400940	0.466140	-0.099655	-0.093654	-0.637908	-0.051052	0.762690
65265	-9.542731	-0.004325	2.042302	-0.367670	0.355433	-0.067267	-0.088300	-0.638352	-0.046365	0.763256
65266	-9.537933	0.397019	2.111075	-0.361057	-0.043920	-0.042625	-0.082184	-0.638906	-0.041237	0.763770
65267	-9.617392	0.860748	2.297421	-0.458664	-0.520684	0.088412	-0.076073	-0.639498	-0.036363	0.764155
65268	-9.605289	1.063380	2.412913	-0.556301	-0.738441	0.104959	-0.070867	-0.639980	-0.032619	0.764421
65269	-9.617154	1.085806	2.478216	-0.629634	-0.773661	0.127894	-0.066185	-0.640460	-0.029602	0.764562
65270	-9.681494	1.120331	2.596419	-0.745735	-0.826924	0.211678	-0.061907	-0.640972	-0.027055	0.764585
65271	-9.732379	1.167665	2.569476	-0.719514	-0.877446	0.256931	-0.058210	-0.641346	-0.024976	0.764633
65272	-9.636948	1.112013	2.534862	-0.719384	-0.833889	0.153252	-0.055125	-0.641591	-0.023394	0.764705
65273	-9.614093	1.027616	2.453124	-0.659146	-0.754751	0.112053	-0.052549	-0.641723	-0.022284	0.764810
65274	-9.613233	1.015230	2.427758	-0.639197	-0.751486	0.105258	-0.050327	-0.641765	-0.021306	0.764952
65275	-9.560089	0.924904	2.358053	-0.589494	-0.667746	0.037072	-0.048535	-0.641680	-0.020571	0.765159
65276	-9.469550	0.794232	2.290300	-0.548670	-0.545008	-0.068428	-0.047098	-0.641566	-0.020066	0.765358
65277	-9.428959	0.655784	2.236623	-0.514171	-0.412842	-0.122332	-0.045819	-0.641528	-0.019622	0.765479
65278	-9.481171	0.665312	2.290607	-0.555257	-0.430806	-0.061368	-0.044635	-0.641424	-0.019077	0.765650
65279	-9.537903	0.725902	2.265870	-0.513285	-0.491481	-0.008215	-0.043553	-0.641298	-0.018539	0.765831
65280	-9.573559	0.790749	2.211617	-0.446416	-0.553948	0.019068	-0.042738	-0.641257	-0.018164	0.765920
65281	-9.638799	0.723349	2.154870	-0.384518	-0.483819	0.071199	-0.042270	-0.641249	-0.018090	0.765954
65282	-9.663866	0.606936	2.150874	-0.386670	-0.371381	0.091730	-0.042029	-0.641321	-0.018235	0.765903
65283	-9.660645	0.542096	2.217931	-0.460796	-0.317560	0.098315	-0.041821	-0.641459	-0.018413	0.765795
65284	-9.633083	0.542542	2.227922	-0.478676	-0.324869	0.072635	-0.041733	-0.641614	-0.018637	0.765665
65285	-9.621869	0.513474	2.206258	-0.466223	-0.298796	0.056707	-0.041889	-0.641812	-0.018965	0.765483
65286	-9.652660	0.431504	2.184173	-0.449981	-0.217174	0.080796	-0.042244	-0.641930	-0.019369	0.765354
65287	-9.648996	0.386739	2.185317	-0.458875	-0.174784	0.076053	-0.042602	-0.642075	-0.019738	0.765203
65288	-9.661946	0.422342	2.207024	-0.478221	-0.212990	0.093294	-0.042862	-0.642185	-0.020011	0.765089
65289	-9.575424	0.448105	2.257602	-0.542821	-0.246618	0.017411	-0.043253	-0.642255	-0.020280	0.765001
65290	-9.531541	0.414944	2.224954	-0.521556	-0.212491	-0.032314	-0.043850	-0.642212	-0.020712	0.764992
65291	-9.630580	0.489704	2.190911	-0.463483	-0.279751	0.061263	-0.044510	-0.642163	-0.021200	0.764981
65292	-9.691484	0.481767	2.182260	-0.444017	-0.268927	0.119571	-0.045333	-0.642102	-0.021898	0.764964
65293	-9.689048	0.339955	2.165585	-0.439620	-0.128164	0.110683	-0.046310	-0.642026	-0.022795	0.764943
65294	-9.688543	0.291266	2.107476	-0.385686	-0.077117	0.098895	-0.047492	-0.641939	-0.023902	0.764910
65295	-9.638416	0.233206	2.100276	-0.391250	-0.024022	0.046875	-0.048823	-0.641835	-0.025163	0.764873
65296	-9.644911	0.130299	2.013678	-0.314081	0.083019	0.035695	-0.050210	-0.641723	-0.026549	0.764830
65297	-9.584334	0.012527	1.960167	-0.282277	0.197896	-0.036031	-0.051546	-0.641541	-0.027961	0.764844
65298	-9.585162	-0.059533	1.882447	-0.211443	0.272769	-0.050343	-0.052523	-0.641387	-0.029047	0.764866
65299	-9.590710	0.021629	1.854687	-0.171964	0.191134	-0.047650	-0.053155	-0.641271	-0.029827	0.764890
65300	-9.611419	0.141353	1.874589	-0.171900	0.067973	-0.020892	-0.053797	-0.641146	-0.030495	0.764923
65301	-9.599437	0.103955	1.848392	-0.150834	0.105848	-0.038098	-0.054404	-0.641075	-0.031065	0.764917
65302	-9.629406	0.133124	1.883360	-0.175748	0.073811	-0.001780	-0.054955	-0.641028	-0.031509	0.764899
65303	-9.618416	0.195078	1.901448	-0.187337	0.009710	-0.007979	-0.055391	-0.640988	-0.031869	0.764886
65304	-9.675088	0.253456	1.950710	-0.218714	-0.050861	0.057795	-0.055874	-0.640981	-0.032178	0.764844
65305	-9.629691	0.244547	1.937127	-0.214457	-0.040326	0.010530	-0.056475	-0.640955	-0.032459	0.764809
65306	-9.642786	0.200755	2.031253	-0.310921	-0.004100	0.038857	-0.056988	-0.641029	-0.032639	0.764702
65307	-9.673314	0.286885	2.050607	-0.315333	-0.087038	0.074338	-0.057452	-0.641009	-0.032778	0.764678
65308	-9.667250	0.376929	2.129254	-0.382322	-0.182206	0.084390	-0.057938	-0.641013	-0.032891	0.764633
65309	-9.644030	0.354649	2.133866	-0.394426	-0.157543	0.061830	-0.058623	-0.641019	-0.033139	0.764566
65310	-9.648638	0.286558	2.147657	-0.416339	-0.086618	0.067086	-0.059521	-0.640993	-0.033491	0.764502
65311	-9.644963	0.237115	2.141308	-0.416803	-0.032285	0.061115	-0.060417	-0.640904	-0.033914	0.764488
65312	-9.661864	0.245288	2.160859	-0.429812	-0.038335	0.081497	-0.061278	-0.640744	-0.034397	0.764532
65313	-9.582755	0.249640	2.155289	-0.433899	-0.043328	0.002945	-0.062282	-0.640546	-0.035045	0.764588
65314	-9.592772	0.209878	2.074680	-0.355640	0.009134	-0.002333	-0.063347	-0.640386	-0.035745	0.764602
65315	-9.625163	0.154732	2.012131	-0.293541	0.075658	0.017088	-0.064357	-0.640188	-0.036423	0.764651
65316	-9.582500	0.145905	2.022043	-0.308415	0.082481	-0.023289	-0.065265	-0.640019	-0.037075	0.764684
65317	-9.522748	0.133149	2.012827	-0.309434	0.095340	-0.084014	-0.066121	-0.639914	-0.037558	0.764675
65318	-9.441618	0.127289	1.974912	-0.285867	0.105982	-0.170712	-0.067078	-0.639786	-0.038002	0.764677
65319	-9.496030	0.071771	1.938359	-0.248367	0.174775	-0.125338	-0.067963	-0.639726	-0.038245	0.764637
65320	-9.506750	0.071921	1.989144	-0.296673	0.175550	-0.105920	-0.068704	-0.639712	-0.038301	0.764579
65321	-9.543608	0.206432	2.028149	-0.310580	0.046342	-0.058825	-0.069061	-0.639805	-0.038156	0.764477
65322	-9.652706	0.463783	2.132084	-0.358190	-0.212089	0.074796	-0.068940	-0.639957	-0.037874	0.764374
65323	-9.678325	0.696938	2.248078	-0.437353	-0.456480	0.127629	-0.068773	-0.640215	-0.037763	0.764179
65324	-9.651926	0.882584	2.257250	-0.430063	-0.643623	0.108734	-0.069163	-0.640500	-0.038085	0.763889
65325	-9.640185	0.783348	2.203424	-0.402041	-0.539407	0.084246	-0.070486	-0.640805	-0.039096	0.763461
65326	-9.654396	0.487959	2.100280	-0.352527	-0.232661	0.070543	-0.072450	-0.641086	-0.040635	0.762961
65327	-9.726162	0.184879	2.048796	-0.347041	0.076358	0.122286	-0.074387	-0.641306	-0.042311	0.762498
65328	-9.649954	0.087257	2.065659	-0.400621	0.161162	0.046810	-0.075738	-0.641543	-0.043666	0.762089
65329	-9.582294	0.149677	2.108599	-0.450436	0.082495	-0.010685	-0.076549	-0.641732	-0.044706	0.761789
65330	-9.546039	0.402788	2.090984	-0.400922	-0.171903	-0.041760	-0.077250	-0.641846	-0.045526	0.761573
65331	-9.632649	0.583150	2.057680	-0.325863	-0.341994	0.043219	-0.078308	-0.641861	-0.046441	0.761397
65332	-9.716605	0.564018	1.979963	-0.240063	-0.304929	0.112038	-0.079788	-0.641770	-0.047485	0.761255
65333	-9.688111	0.433566	1.882537	-0.172474	-0.159152	0.063362	-0.081499	-0.641653	-0.048673	0.761098
65334	-9.660832	0.375474	1.898136	-0.202655	-0.103590	0.037378	-0.083315	-0.641575	-0.049986	0.760882
65335	-9.738735	0.342654	1.935624	-0.234071	-0.071691	0.119436	-0.085046	-0.641568	-0.051314	0.760608
65336	-9.840356	0.412928	1.916022	-0.186411	-0.130583	0.218387	-0.086727	-0.641452	-0.052716	0.760420
65337	-9.860596	0.473082	1.859376	-0.116087	-0.178801	0.230568	-0.088294	-0.641355	-0.054107	0.760224
65338	-9.880830	0.528460	1.887033	-0.127843	-0.239174	0.256941	-0.089889	-0.641246	-0.055601	0.760021
65339	-9.795805	0.482010	1.858247	-0.122588	-0.197993	0.166740	-0.091571	-0.641170	-0.057336	0.759755
65340	-9.849872	0.477148	1.898777	-0.155245	-0.203933	0.226601	-0.093267	-0.641167	-0.059155	0.759412
65341	-9.888385	0.447596	1.899206	-0.157079	-0.180176	0.263540	-0.095090	-0.641098	-0.061141	0.759087
65342	-9.818617	0.391651	1.855108	-0.138068	-0.129174	0.185527	-0.097119	-0.640982	-0.063348	0.758747
65343	-9.782200	0.278478	1.824021	-0.139920	-0.023718	0.141000	-0.099303	-0.640860	-0.065762	0.758362
65344	-9.732768	0.151855	1.782767	-0.138581	0.095824	0.081741	-0.101465	-0.640729	-0.068124	0.757978
65345	-9.721318	0.120715	1.759424	-0.126251	0.122095	0.065740	-0.103478	-0.640535	-0.070316	0.757670
65346	-9.701828	0.057195	1.726424	-0.112794	0.182582	0.039379	-0.105307	-0.640323	-0.072286	0.757411
65347	-9.693499	0.027120	1.725158	-0.119549	0.205068	0.030304	-0.106959	-0.640087	-0.074054	0.757209
65348	-9.676121	0.055261	1.772207	-0.157754	0.159565	0.021983	-0.108383	-0.639802	-0.075580	0.757096
65349	-9.665120	0.090504	1.778713	-0.152088	0.119239	0.013259	-0.109764	-0.639430	-0.076959	0.757072
65350	-9.611035	0.088122	1.739597	-0.118295	0.125152	-0.046608	-0.111126	-0.639034	-0.078279	0.757073
65351	-9.622327	0.108319	1.764972	-0.129251	0.099250	-0.030588	-0.112530	-0.638637	-0.079467	0.757077
65352	-9.595839	0.117668	1.723043	-0.084667	0.100632	-0.063556	-0.113821	-0.638219	-0.080431	0.757134
65353	-9.587448	0.157523	1.754825	-0.098585	0.056864	-0.065359	-0.115029	-0.637795	-0.081214	0.757225
65354	-9.633938	0.178518	1.807981	-0.128640	0.030599	-0.009834	-0.116089	-0.637378	-0.081800	0.757352
65355	-9.639947	0.215617	1.827817	-0.128885	-0.004004	0.000536	-0.117103	-0.636955	-0.082269	0.757501
65356	-9.698445	0.226239	1.836548	-0.117517	-0.005041	0.060007	-0.117970	-0.636576	-0.082550	0.757654
65357	-9.727288	0.247550	1.871429	-0.134087	-0.025224	0.095140	-0.118730	-0.636271	-0.082732	0.757772
65358	-9.681286	0.339255	1.955431	-0.190256	-0.131965	0.067216	-0.119434	-0.636007	-0.082875	0.757867
65359	-9.643751	0.383110	2.001621	-0.223103	-0.182942	0.039822	-0.120258	-0.635742	-0.083200	0.757924
65360	-9.652606	0.356364	2.012358	-0.235212	-0.154461	0.049878	-0.121287	-0.635474	-0.083772	0.757921
65361	-9.650264	0.261459	2.018585	-0.264410	-0.061311	0.046165	-0.122454	-0.635182	-0.084466	0.757901
65362	-9.608938	0.173196	1.978644	-0.255569	0.035740	-0.004012	-0.123585	-0.634922	-0.085074	0.757867
65363	-9.628222	0.116373	1.993972	-0.280793	0.092227	0.016086	-0.124519	-0.634702	-0.085515	0.757849
65364	-9.552407	0.119999	2.009837	-0.304254	0.083837	-0.055499	-0.125213	-0.634486	-0.085710	0.757893
65365	-9.575551	0.205273	2.027463	-0.289083	0.004635	-0.026967	-0.125626	-0.634309	-0.085745	0.757970
65366	-9.606830	0.314145	2.046487	-0.266758	-0.097049	0.010622	-0.126060	-0.634105	-0.085777	0.758065
65367	-9.590055	0.368195	2.047951	-0.251057	-0.145679	-0.003785	-0.126492	-0.633888	-0.085882	0.758162
65368	-9.560040	0.371887	2.068017	-0.269384	-0.152758	-0.029362	-0.127065	-0.633645	-0.086073	0.758248
65369	-9.498443	0.332758	2.099555	-0.316703	-0.124723	-0.085231	-0.127592	-0.633423	-0.086184	0.758332
65370	-9.486383	0.269539	2.099271	-0.333683	-0.059694	-0.098978	-0.128052	-0.633213	-0.086192	0.758430
65371	-9.515622	0.326883	2.103883	-0.312351	-0.106842	-0.067368	-0.128360	-0.633021	-0.086034	0.758555
65372	-9.685989	0.434361	2.121214	-0.265166	-0.192809	0.106945	-0.128660	-0.632857	-0.085845	0.758663
65373	-9.700738	0.390316	2.127965	-0.279782	-0.144360	0.121384	-0.128957	-0.632710	-0.085650	0.758757
65374	-9.709176	0.350416	2.092451	-0.256007	-0.088470	0.121892	-0.129152	-0.632692	-0.085388	0.758768
65375	-9.697663	0.457568	2.125456	-0.257870	-0.195079	0.120441	-0.129399	-0.632702	-0.085202	0.758739
65376	-9.693056	0.498104	2.170398	-0.291141	-0.242366	0.125651	-0.129871	-0.632774	-0.085326	0.758584
65377	-9.624591	0.406377	2.011348	-0.183305	-0.112436	0.025868	-0.130641	-0.632795	-0.085790	0.758382
65378	-9.601013	0.312201	1.949037	-0.160883	-0.005737	-0.012191	-0.131485	-0.632877	-0.086409	0.758098
65379	-9.547417	0.251205	1.968096	-0.210479	0.042398	-0.063658	-0.132377	-0.632937	-0.087031	0.757821
65380	-9.527701	0.192217	1.896729	-0.170032	0.118589	-0.098335	-0.133095	-0.633073	-0.087505	0.757527
65381	-9.566760	0.234089	1.920960	-0.178834	0.075792	-0.054099	-0.133607	-0.633198	-0.087809	0.757297
65382	-9.550291	0.272284	1.870595	-0.126981	0.054980	-0.078101	-0.133963	-0.633310	-0.087873	0.757133
65383	-9.554276	0.336046	1.914893	-0.152315	-0.015154	-0.063816	-0.134226	-0.633444	-0.087774	0.756986
65384	-9.575540	0.380038	1.922079	-0.146893	-0.051635	-0.039994	-0.134532	-0.633597	-0.087533	0.756831
65385	-9.642919	0.391386	1.959745	-0.173912	-0.059971	0.033420	-0.134839	-0.633786	-0.087176	0.756660
65386	-9.689412	0.366774	1.987265	-0.205404	-0.031607	0.083031	-0.135095	-0.633905	-0.086738	0.756565
