// General information: 
//  MT Manager version: 2021.0.0 
//  XDA version: 2021.0.0 build 5908 rev 109668 built on 2021-04-19
// Device information: 
//  DeviceId: 00B48506
//  ProductCode: MTW2-3A7G6
//  Firmware Version: 4.6.0
//  Hardware Version: 2.0.0
// Device settings: 
//  Filter Profile: human(46.1)
//  Option Flags: Orientation Smoother Disabled, Position/Velocity Smoother Disabled, Continuous Zero Rotation Update Disabled, AHS Disabled, ICC Disabled
// Coordinate system: ENU
PacketCounter	Acc_X	Acc_Y	Acc_Z	FreeAcc_E	FreeAcc_N	FreeAcc_U	Quat_q0	Quat_q1	Quat_q2	Quat_q3
06823	0.019632	0.112937	9.827200	0.021089	-0.007691	0.015155	-1.000000	0.000125	-0.000378	0.000024
06824	0.020307	0.142074	9.797692	0.021820	0.021750	-0.013993	-1.000000	0.000126	-0.000381	0.000022
06825	-0.005599	0.109682	9.794097	-0.004121	-0.010501	-0.017981	-1.000000	0.000135	-0.000375	0.000013
06826	0.019790	0.141908	9.797695	0.021318	0.021775	-0.013992	-1.000000	0.000136	-0.000385	0.000011
06827	0.019413	0.141898	9.797696	0.021065	0.021784	-0.013992	-1.000000	0.000137	-0.000388	0.000010
06828	0.026613	0.112808	9.769194	0.028093	-0.007029	-0.042848	-1.000000	0.000128	-0.000368	0.000015
06829	0.016025	0.171191	9.797190	0.017413	0.050933	-0.014136	-1.000000	0.000130	-0.000378	0.000013
06830	0.025103	0.083744	9.798703	0.026614	-0.036434	-0.013698	-1.000000	0.000138	-0.000381	0.000019
06831	-0.010325	0.138650	9.793594	-0.008772	0.018691	-0.018128	-1.000000	0.000146	-0.000383	0.000018
06832	0.021361	0.112644	9.798203	0.022964	-0.007283	-0.013843	-1.000000	0.000146	-0.000386	0.000024
06833	-0.006709	0.138446	9.764592	-0.005140	0.019015	-0.047131	-1.000000	0.000155	-0.000380	0.000015
06834	0.024978	0.112441	9.769203	0.026597	-0.006958	-0.042844	-1.000000	0.000155	-0.000390	0.000028
06835	0.020462	0.112507	9.798207	0.022212	-0.007249	-0.013841	-1.000000	0.000155	-0.000393	0.000042
06836	0.024291	0.112608	9.769203	0.026099	-0.006935	-0.042843	-1.000000	0.000141	-0.000397	0.000039
06837	-0.011990	0.138665	9.793592	-0.010272	0.018757	-0.018130	-1.000000	0.000148	-0.000383	0.000037
06838	0.016767	0.141799	9.797702	0.018312	0.021912	-0.013986	-1.000000	0.000148	-0.000379	0.000043
06839	0.016460	0.141873	9.797702	0.018059	0.021921	-0.013986	-1.000000	0.000142	-0.000389	0.000041
06840	0.011937	0.141997	9.826704	0.013674	0.021632	0.015016	-1.000000	0.000142	-0.000392	0.000046
06841	0.015860	0.141799	9.797704	0.017557	0.021945	-0.013985	-1.000000	0.000158	-0.000386	0.000046
06842	0.015415	0.141647	9.797707	0.017309	0.021957	-0.013985	-1.000000	0.000159	-0.000412	0.000059
06843	0.014053	0.112568	9.827213	0.016076	-0.007459	0.015165	-1.000000	0.000160	-0.000399	0.000042
06844	-0.007700	0.080263	9.794600	-0.005706	-0.039417	-0.017837	-1.000000	0.000153	-0.000410	0.000047
06845	-0.011171	0.109538	9.794094	-0.009114	-0.010280	-0.017984	-1.000000	0.000145	-0.000405	0.000052
06846	0.021570	0.112839	9.769206	0.023610	-0.006818	-0.042836	-1.000000	0.000139	-0.000408	0.000050
06847	0.013046	0.113012	9.827210	0.015077	-0.007411	0.015166	-1.000000	0.000140	-0.000403	0.000040
06848	0.013807	0.142074	9.797703	0.015812	0.022029	-0.013982	-1.000000	0.000141	-0.000406	0.000038
06849	0.013510	0.141989	9.797705	0.015560	0.022040	-0.013982	-1.000000	0.000149	-0.000408	0.000029
06850	0.017508	0.141939	9.768703	0.019456	0.022355	-0.042982	-1.000000	0.000141	-0.000396	0.000035
06851	0.008982	0.142043	9.826706	0.010915	0.021761	0.015020	-1.000000	0.000151	-0.000406	0.000026
06852	0.013818	0.171054	9.768199	0.015796	0.051503	-0.043130	-1.000000	0.000143	-0.000401	0.000031
06853	0.012522	0.142070	9.797705	0.014561	0.022086	-0.013980	-1.000000	0.000143	-0.000412	0.000044
06854	-0.009362	0.109624	9.765088	-0.007206	-0.009876	-0.046987	-1.000000	0.000151	-0.000414	0.000050
06855	0.010861	0.112859	9.827214	0.013075	-0.007319	0.015169	-1.000000	0.000152	-0.000416	0.000049
06856	0.014790	0.112801	9.798214	0.016975	-0.007004	-0.013830	-1.000000	0.000153	-0.000411	0.000039
06857	0.011468	0.141993	9.797707	0.013560	0.022131	-0.013979	-1.000000	0.000146	-0.000407	0.000037
06858	0.010316	0.113151	9.827211	0.012327	-0.007283	0.015170	-1.000000	0.000131	-0.000403	0.000034
06859	0.011008	0.142134	9.797706	0.013059	0.022155	-0.013978	-1.000000	0.000156	-0.000411	0.000026
06860	-0.013805	0.138728	9.764581	-0.011865	0.019315	-0.047137	-1.000000	0.000147	-0.000392	0.000031
06861	0.039533	0.145290	9.801834	0.041388	0.025334	-0.009817	-1.000000	0.000147	-0.000402	0.000044
06862	0.010397	0.142166	9.797706	0.012312	0.022190	-0.013978	-1.000000	0.000140	-0.000398	0.000050
06863	0.010170	0.142170	9.797706	0.012059	0.022201	-0.013977	-1.000000	0.000148	-0.000400	0.000048
06864	0.013115	0.113049	9.798213	0.014979	-0.006911	-0.013827	-1.000000	0.000141	-0.000395	0.000046
06865	-0.015946	0.109990	9.794082	-0.014100	-0.010058	-0.017990	-1.000000	0.000134	-0.000398	0.000051
06866	-0.013067	0.080715	9.794590	-0.011177	-0.039171	-0.017840	-1.000000	0.000158	-0.000400	0.000043
06867	0.012299	0.112813	9.798217	0.014227	-0.006876	-0.013826	-1.000000	0.000159	-0.000402	0.000041
06868	0.007905	0.112943	9.827216	0.009822	-0.007166	0.015173	-1.000000	0.000151	-0.000398	0.000047
06869	0.007669	0.113096	9.827214	0.009570	-0.007155	0.015173	-1.000000	0.000145	-0.000401	0.000044
06870	0.015695	0.112993	9.769216	0.017639	-0.006536	-0.042824	-1.000000	0.000152	-0.000403	0.000050
06871	0.008133	0.142094	9.797709	0.010056	0.022296	-0.013975	-1.000000	0.000153	-0.000398	0.000049
06872	0.012071	0.142047	9.768710	0.013968	0.022611	-0.042973	-1.000000	0.000153	-0.000401	0.000054
06873	-0.029475	0.138908	9.851573	-0.027594	0.018549	0.039853	-1.000000	0.000162	-0.000395	0.000045
06874	0.011552	0.141898	9.768713	0.013467	0.022634	-0.042973	-1.000000	0.000162	-0.000406	0.000059
06875	0.007070	0.142171	9.797709	0.009054	0.022341	-0.013974	-1.000000	0.000140	-0.000402	0.000048
06876	-0.014645	0.109999	9.765078	-0.012682	-0.009631	-0.046992	-1.000000	0.000141	-0.000404	0.000046
06877	-0.020182	0.080977	9.823583	-0.018085	-0.039352	0.011154	-1.000000	0.000142	-0.000415	0.000051
06878	0.009260	0.113191	9.798216	0.011481	-0.006748	-0.013822	-1.000000	0.000150	-0.000417	0.000058
06879	0.012213	0.084075	9.798725	0.014406	-0.035859	-0.013671	-1.000000	0.000143	-0.000412	0.000055
06880	0.037627	0.116483	9.802357	0.039806	-0.003557	-0.009647	-1.000000	0.000144	-0.000415	0.000046
06881	0.034151	0.145517	9.801850	0.036375	0.025579	-0.009798	-1.000000	0.000153	-0.000417	0.000045
06882	-0.023648	0.139083	9.793565	-0.021521	0.019258	-0.018149	-1.000000	0.000144	-0.000405	0.000050
06883	0.009123	0.142252	9.768710	0.011218	0.022740	-0.042970	-1.000000	0.000154	-0.000414	0.000041
06884	0.001465	0.171417	9.797199	0.003623	0.051573	-0.014125	-1.000000	0.000146	-0.000410	0.000046
06885	0.032169	0.116526	9.831360	0.034382	-0.003798	0.019355	-1.000000	0.000148	-0.000420	0.000044
06886	0.003959	0.142442	9.797706	0.006300	0.022473	-0.013972	-1.000000	0.000140	-0.000423	0.000049
06887	0.006911	0.113401	9.798215	0.009230	-0.006641	-0.013820	-1.000000	0.000141	-0.000418	0.000047
06888	0.038616	0.087507	9.802874	0.040987	-0.032581	-0.009487	-1.000000	0.000141	-0.000429	0.000053
06889	-0.022593	0.110246	9.794066	-0.020092	-0.009789	-0.018000	-1.000000	0.000135	-0.000432	0.000051
06890	0.005999	0.113545	9.798214	0.008484	-0.006605	-0.013819	-1.000000	0.000135	-0.000427	0.000049
06891	0.009952	0.113503	9.769217	0.012408	-0.006289	-0.042815	-1.000000	0.000135	-0.000430	0.000062
06892	0.026850	0.145872	9.830853	0.029451	0.025411	0.019208	-1.000000	0.000144	-0.000439	0.000053
06893	0.006099	0.142453	9.768710	0.008726	0.022857	-0.042968	-1.000000	0.000145	-0.000434	0.000044
06894	0.005874	0.142446	9.768710	0.008479	0.022869	-0.042968	-1.000000	0.000146	-0.000437	0.000042
06895	0.001468	0.142420	9.797708	0.004052	0.022576	-0.013972	-1.000000	0.000154	-0.000431	0.000040
06896	0.004429	0.113306	9.798218	0.006990	-0.006534	-0.013818	-1.000000	0.000147	-0.000435	0.000046
06897	0.008392	0.113185	9.769223	0.010918	-0.006220	-0.042814	-1.000000	0.000163	-0.000429	0.000045
06898	0.003975	0.113314	9.798218	0.006492	-0.006511	-0.013818	-1.000000	0.000140	-0.000433	0.000049
06899	0.007777	0.113413	9.769220	0.010418	-0.006199	-0.042813	-1.000000	0.000148	-0.000443	0.000055
06900	0.003438	0.113466	9.798216	0.005991	-0.006490	-0.013817	-1.000000	0.000141	-0.000423	0.000045
06901	0.027993	0.116755	9.831370	0.030379	-0.003607	0.019368	-1.000000	0.000149	-0.000425	0.000052
06902	-0.000053	0.142520	9.797706	0.002303	0.022655	-0.013971	-1.000000	0.000149	-0.000420	0.000050
06903	0.032799	0.145786	9.772868	0.035053	0.026149	-0.038775	-1.000000	0.000142	-0.000415	0.000055
06904	-0.001363	0.113617	9.827211	0.000808	-0.006749	0.015178	-1.000000	0.000142	-0.000410	0.000053
06905	0.002680	0.113490	9.798216	0.004739	-0.006435	-0.013817	-1.000000	0.000151	-0.000405	0.000044
06906	0.000185	0.171601	9.768199	0.002294	0.052127	-0.043120	-1.000000	0.000151	-0.000415	0.000057
06907	0.027692	0.145992	9.801864	0.029868	0.025891	-0.009777	-1.000000	0.000129	-0.000411	0.000046
06908	0.001839	0.113706	9.798214	0.003992	-0.006399	-0.013816	-1.000000	0.000145	-0.000413	0.000045
06909	0.001467	0.113622	9.798215	0.003740	-0.006390	-0.013816	-1.000000	0.000139	-0.000424	0.000043
06910	0.028906	0.087861	9.831886	0.031317	-0.032622	0.019530	-1.000000	0.000139	-0.000427	0.000049
06911	-0.002416	0.142884	9.797701	0.000047	0.022754	-0.013971	-1.000000	0.000132	-0.000430	0.000046
06912	0.004747	0.113789	9.769218	0.007183	-0.006051	-0.042810	-1.000000	0.000133	-0.000425	0.000045
06913	0.000390	0.113996	9.798211	0.002741	-0.006344	-0.013816	-1.000000	0.000118	-0.000420	0.000049
06914	0.000167	0.113931	9.798212	0.002493	-0.006332	-0.013816	-1.000000	0.000141	-0.000422	0.000057
06915	0.024558	0.117231	9.831373	0.026867	-0.003441	0.019378	-1.000000	0.000118	-0.000418	0.000061
06916	0.025325	0.146376	9.801864	0.027615	0.025999	-0.009771	-1.000000	0.000134	-0.000420	0.000060
06917	-0.004862	0.113920	9.827207	-0.002452	-0.006604	0.015178	-1.000000	0.000134	-0.000430	0.000073
06918	-0.001042	0.113940	9.798212	0.001493	-0.006287	-0.013815	-1.000000	0.000128	-0.000433	0.000063
06919	-0.000268	0.143000	9.768703	0.002240	0.023152	-0.042965	-1.000000	0.000136	-0.000428	0.000062
06920	0.027327	0.117101	9.802384	0.029814	-0.003075	-0.009612	-1.000000	0.000137	-0.000431	0.000060
06921	-0.001785	0.113767	9.798213	0.000744	-0.006252	-0.013815	-1.000000	0.000146	-0.000433	0.000043
06922	-0.005360	0.142799	9.797701	-0.002703	0.022882	-0.013972	-1.000000	0.000147	-0.000443	0.000057
06923	0.026284	0.116917	9.802389	0.029060	-0.003040	-0.009610	-1.000000	0.000149	-0.000445	0.000040
06924	-0.005965	0.142857	9.797699	-0.003206	0.022904	-0.013972	-1.000000	0.000141	-0.000441	0.000045
06925	0.022618	0.146180	9.801874	0.025356	0.026104	-0.009765	-1.000000	0.000142	-0.000443	0.000043
06926	0.025592	0.117142	9.802388	0.028310	-0.003004	-0.009607	-1.000000	0.000134	-0.000439	0.000048
06927	-0.002373	0.142972	9.768704	0.000240	0.023241	-0.042965	-1.000000	0.000142	-0.000433	0.000047
06928	-0.007732	0.113882	9.827205	-0.005207	-0.006479	0.015177	-1.000000	0.000142	-0.000428	0.000045
06929	0.021788	0.146116	9.801877	0.024354	0.026151	-0.009762	-1.000000	0.000151	-0.000438	0.000044
06930	-0.004045	0.113745	9.798213	-0.001506	-0.006151	-0.013815	-1.000000	0.000144	-0.000426	0.000034
06931	0.024615	0.117065	9.802391	0.027058	-0.002945	-0.009604	-1.000000	0.000145	-0.000428	0.000032
06932	0.021115	0.146027	9.801880	0.023605	0.026188	-0.009761	-1.000000	0.000161	-0.000430	0.000031
06933	0.024103	0.116766	9.802396	0.026557	-0.002923	-0.009602	-1.000000	0.000161	-0.000425	0.000037
06934	-0.008143	0.142563	9.797702	-0.005712	0.023014	-0.013973	-1.000000	0.000170	-0.000427	0.000035
06935	0.020449	0.145736	9.801885	0.022850	0.026220	-0.009759	-1.000000	0.000170	-0.000422	0.000033
06936	0.023432	0.116619	9.802400	0.025809	-0.002887	-0.009600	-1.000000	0.000171	-0.000425	0.000032
06937	-0.009978	0.113486	9.827208	-0.007466	-0.006379	0.015176	-1.000000	0.000164	-0.000436	0.000037
06938	0.019685	0.145877	9.801885	0.022101	0.026257	-0.009757	-1.000000	0.000165	-0.000415	0.000020
06939	0.019608	0.145884	9.801885	0.021848	0.026268	-0.009757	-1.000000	0.000164	-0.000418	0.000033
06940	0.022445	0.116701	9.802401	0.024810	-0.002839	-0.009598	-1.000000	0.000173	-0.000428	0.000039
06941	-0.005586	0.142447	9.768710	-0.003255	0.023399	-0.042966	-1.000000	0.000173	-0.000415	0.000038
06942	-0.007752	0.084392	9.827721	-0.005504	-0.035442	0.015334	-1.000000	0.000166	-0.000419	0.000043
06943	0.022769	0.145783	9.772896	0.025058	0.026621	-0.038746	-1.000000	0.000174	-0.000420	0.000041
06944	0.021537	0.116713	9.802403	0.023810	-0.002792	-0.009595	-1.000000	0.000167	-0.000416	0.000039
06945	0.021310	0.116718	9.802403	0.023555	-0.002782	-0.009595	-1.000000	0.000175	-0.000418	0.000045
06946	0.020936	0.116651	9.802405	0.023307	-0.002769	-0.009594	-1.000000	0.000175	-0.000429	0.000059
06947	0.042003	0.149144	9.835072	0.044438	0.029259	0.023461	-1.000000	0.000168	-0.000424	0.000049
06948	-0.011551	0.142585	9.797698	-0.009222	0.023171	-0.013976	-1.000000	0.000176	-0.000418	0.000055
06949	0.017041	0.145699	9.801892	0.019339	0.026386	-0.009752	-1.000000	0.000184	-0.000421	0.000054
06950	0.016741	0.145688	9.801893	0.019091	0.026399	-0.009751	-1.000000	0.000178	-0.000424	0.000044
06951	-0.009082	0.113381	9.798214	-0.006759	-0.005917	-0.013817	-1.000000	0.000179	-0.000418	0.000042
06952	0.024883	0.145676	9.743911	0.027028	0.027034	-0.067730	-1.000000	0.000178	-0.000406	0.000048
06953	0.016200	0.145852	9.801892	0.018337	0.026430	-0.009750	-1.000000	0.000171	-0.000417	0.000053
06954	0.015896	0.145915	9.801891	0.018089	0.026443	-0.009750	-1.000000	0.000173	-0.000412	0.000036
06955	0.018978	0.116575	9.802410	0.021058	-0.002665	-0.009589	-1.000000	0.000195	-0.000405	0.000043
06956	0.018753	0.116516	9.802411	0.020810	-0.002652	-0.009588	-1.000000	0.000180	-0.000409	0.000055
06957	0.022817	0.116702	9.773418	0.024781	-0.002335	-0.038577	-1.000000	0.000173	-0.000397	0.000045
06958	0.018508	0.116829	9.802408	0.020311	-0.002629	-0.009587	-1.000000	0.000173	-0.000392	0.000051
06959	-0.017907	0.142733	9.826684	-0.016199	0.022985	0.015009	-1.000000	0.000173	-0.000387	0.000049
06960	0.022359	0.116790	9.773418	0.024034	-0.002297	-0.038575	-1.000000	0.000174	-0.000389	0.000047
06961	0.011370	0.175214	9.801374	0.013116	0.055642	-0.009908	-1.000000	0.000159	-0.000393	0.000052
06962	0.017584	0.117138	9.802406	0.019311	-0.002583	-0.009585	-1.000000	0.000160	-0.000388	0.000050
06963	-0.014750	0.142912	9.797689	-0.012973	0.023335	-0.013981	-1.000000	0.000168	-0.000398	0.000056
06964	0.012680	0.117031	9.831398	0.014585	-0.002866	0.019404	-1.000000	0.000169	-0.000401	0.000054
06965	0.025229	0.116897	9.744430	0.027016	-0.001934	-0.067561	-1.000000	0.000169	-0.000388	0.000053
06966	0.016611	0.116986	9.802409	0.018311	-0.002536	-0.009583	-1.000000	0.000170	-0.000390	0.000043
06967	0.016385	0.116979	9.802410	0.018058	-0.002525	-0.009583	-1.000000	0.000171	-0.000385	0.000041
06968	0.017237	0.146124	9.772903	0.018816	0.026914	-0.038732	-1.000000	0.000164	-0.000381	0.000039
06969	0.016079	0.117053	9.802409	0.017558	-0.002501	-0.009582	-1.000000	0.000172	-0.000375	0.000030
06970	-0.009736	0.084818	9.798721	-0.008273	-0.034822	-0.013660	-1.000000	0.000150	-0.000379	0.000034
06971	-0.015349	0.172344	9.768174	-0.013973	0.052849	-0.043134	-1.000000	0.000150	-0.000366	0.000032
06972	0.048505	0.120575	9.777624	0.049852	0.001059	-0.034327	-1.000000	0.000159	-0.000376	0.000023
06973	-0.012563	0.143073	9.768694	-0.011244	0.023753	-0.042973	-1.000000	0.000159	-0.000364	0.000029
06974	0.015159	0.117288	9.802408	0.016311	-0.002443	-0.009580	-1.000000	0.000159	-0.000359	0.000027
06975	0.015941	0.146354	9.772901	0.017064	0.026992	-0.038729	-1.000000	0.000160	-0.000361	0.000025
06976	0.014707	0.117286	9.802409	0.015809	-0.002421	-0.009579	-1.000000	0.000160	-0.000356	0.000023
06977	0.010236	0.117405	9.831397	0.011322	-0.002719	0.019409	-1.000000	0.000154	-0.000359	0.000021
06978	-0.010321	0.114113	9.769210	-0.009259	-0.005310	-0.042811	-1.000000	0.000154	-0.000354	0.000019
06979	0.014020	0.117430	9.802408	0.015058	-0.002389	-0.009578	-1.000000	0.000155	-0.000357	0.000017
06980	0.038211	0.120672	9.835609	0.039379	0.000537	0.023657	-1.000000	0.000163	-0.000367	0.000023
06981	0.013198	0.117275	9.802411	0.014560	-0.002365	-0.009577	-1.000000	0.000164	-0.000377	0.000029
06982	0.009738	0.146387	9.801892	0.011079	0.026765	-0.009740	-1.000000	0.000164	-0.000377	0.000029
06983	0.013831	0.146344	9.772905	0.015313	0.027070	-0.038727	-1.000000	0.000164	-0.000379	0.000035
06984	0.009354	0.146468	9.801891	0.010824	0.026775	-0.009740	-1.000000	0.000157	-0.000375	0.000032
06985	-0.012209	0.114254	9.769206	-0.010760	-0.005248	-0.042813	-1.000000	0.000143	-0.000378	0.000029
06986	0.004560	0.146810	9.830875	0.006079	0.026489	0.019247	-1.000000	0.000151	-0.000381	0.000036
06987	-0.015987	0.143598	9.768682	-0.014496	0.023892	-0.042977	-1.000000	0.000128	-0.000377	0.000040
06988	0.014816	0.088765	9.802927	0.016290	-0.031413	-0.009411	-1.000000	0.000145	-0.000378	0.000024
06989	0.018849	0.088563	9.773942	0.020285	-0.031094	-0.038397	-1.000000	0.000145	-0.000373	0.000030
06990	-0.017746	0.114442	9.798190	-0.016250	-0.005499	-0.013828	-1.000000	0.000146	-0.000384	0.000028
06991	0.036246	0.150179	9.806106	0.037875	0.030081	-0.005484	-1.000000	0.000139	-0.000387	0.000025
06992	0.013613	0.088743	9.802929	0.015296	-0.031367	-0.009409	-1.000000	0.000140	-0.000390	0.000023
06993	0.039891	0.150197	9.777121	0.041621	0.030413	-0.034467	-1.000000	0.000141	-0.000392	0.000021
06994	0.006604	0.146972	9.801886	0.008319	0.026889	-0.009738	-1.000000	0.000140	-0.000387	0.000035
06995	0.009617	0.117869	9.802408	0.011305	-0.002217	-0.009573	-1.000000	0.000141	-0.000390	0.000033
06996	0.010393	0.147151	9.772897	0.012068	0.027221	-0.038723	-1.000000	0.000120	-0.000386	0.000022
06997	0.013405	0.118112	9.773419	0.015055	-0.001884	-0.038557	-1.000000	0.000135	-0.000388	0.000029
06998	0.033327	0.121336	9.835618	0.035109	0.000742	0.023673	-1.000000	0.000136	-0.000398	0.000027
06999	0.005156	0.147182	9.801884	0.007063	0.026948	-0.009737	-1.000000	0.000130	-0.000401	0.000024
07000	0.003910	0.118195	9.831392	0.005803	-0.002465	0.019413	-1.000000	0.000130	-0.000396	0.000030
07001	0.007861	0.118234	9.802405	0.009805	-0.002147	-0.009571	-1.000000	0.000122	-0.000407	0.000043
07002	0.007554	0.118314	9.802404	0.009557	-0.002134	-0.009571	-1.000000	0.000123	-0.000402	0.000041
07003	0.031869	0.121647	9.835619	0.033855	0.000801	0.023677	-1.000000	0.000123	-0.000405	0.000039
07004	0.011366	0.118196	9.773421	0.013315	-0.001802	-0.038555	-1.000000	0.000131	-0.000399	0.000046
07005	-0.025098	0.144073	9.797651	-0.023244	0.023782	-0.014001	-1.000000	0.000124	-0.000395	0.000043
07006	0.034508	0.092554	9.836145	0.036348	-0.028278	0.023846	-1.000000	0.000124	-0.000397	0.000049
07007	0.007433	0.147400	9.772896	0.007708	0.026806	-0.038717	-1.000000	0.000097	-0.000318	0.000042
07008	0.006116	0.118334	9.802405	0.006442	-0.002609	-0.009568	-1.000000	0.000098	-0.000320	0.000040
07009	0.030497	0.121750	9.835622	0.030727	0.000326	0.023688	-1.000000	0.000090	-0.000308	0.000037
07010	0.002479	0.147596	9.801879	0.002693	0.026528	-0.009734	-1.000000	0.000091	-0.000318	0.000035
07011	-0.002086	0.147567	9.830864	-0.001830	0.026227	0.019249	-1.000000	0.000099	-0.000313	0.000042
07012	0.000869	0.118312	9.831391	0.001169	-0.002876	0.019415	-1.000000	0.000107	-0.000323	0.000048
07013	0.004837	0.118255	9.802407	0.005182	-0.002554	-0.009568	-1.000000	0.000101	-0.000318	0.000031
07014	-0.020945	0.085992	9.798693	-0.020618	-0.034897	-0.013678	-1.000000	0.000094	-0.000321	0.000036
07015	0.032084	0.092633	9.836153	0.032465	-0.028719	0.023858	-1.000000	0.000101	-0.000323	0.000042
07016	-0.003374	0.147498	9.830865	-0.003089	0.026283	0.019249	-1.000000	0.000101	-0.000310	0.000048
07017	0.036050	0.092616	9.807170	0.036231	-0.028385	-0.005122	-1.000000	0.000094	-0.000313	0.000052
07018	0.003613	0.118500	9.802404	0.003929	-0.002499	-0.009567	-1.000000	0.000095	-0.000324	0.000051
07019	0.000130	0.147609	9.801879	0.000425	0.026625	-0.009733	-1.000000	0.000095	-0.000311	0.000048
07020	0.032107	0.121873	9.806645	0.032230	0.000765	-0.005286	-1.000000	0.000088	-0.000306	0.000038
07021	0.004092	0.147717	9.772893	0.004197	0.026959	-0.038715	-1.000000	0.000088	-0.000309	0.000051
07022	-0.000560	0.147764	9.801876	-0.000326	0.026659	-0.009734	-1.000000	0.000089	-0.000319	0.000050
07023	0.031049	0.121871	9.806648	0.031477	0.000798	-0.005284	-1.000000	0.000097	-0.000329	0.000055
07024	0.027414	0.150972	9.806123	0.027972	0.029926	-0.005450	-1.000000	0.000091	-0.000332	0.000045
07025	0.001493	0.118631	9.802403	0.002175	-0.002424	-0.009567	-1.000000	0.000091	-0.000342	0.000059
07026	0.008652	0.089545	9.773947	0.009460	-0.031215	-0.038380	-1.000000	0.000085	-0.000345	0.000049
07027	0.029757	0.122064	9.806650	0.030471	0.000844	-0.005280	-1.000000	0.000086	-0.000332	0.000031
07028	0.005159	0.118791	9.773419	0.005702	-0.002079	-0.038547	-1.000000	0.000079	-0.000328	0.000036
07029	-0.003704	0.118883	9.831383	-0.003108	-0.002694	0.019415	-1.000000	0.000087	-0.000338	0.000035
07030	0.025812	0.151245	9.806123	0.026462	0.029994	-0.005446	-1.000000	0.000080	-0.000333	0.000032
07031	0.001067	0.147963	9.772890	0.001689	0.027068	-0.038715	-1.000000	0.000082	-0.000335	0.000023
07032	-0.000180	0.118897	9.802400	0.000419	-0.002346	-0.009566	-1.000000	0.000082	-0.000330	0.000029
07033	0.000614	0.147965	9.772890	0.001190	0.027090	-0.038715	-1.000000	0.000082	-0.000333	0.000028
07034	-0.000634	0.118900	9.802400	-0.000080	-0.002324	-0.009566	-1.000000	0.000083	-0.000328	0.000026
07035	0.020388	0.151359	9.835106	0.020920	0.029739	0.023538	-1.000000	0.000084	-0.000331	0.000024
07036	0.003201	0.118793	9.773419	0.003703	-0.001990	-0.038546	-1.000000	0.000090	-0.000325	0.000045
07037	0.002974	0.118803	9.773419	0.003452	-0.001980	-0.038546	-1.000000	0.000084	-0.000328	0.000035
07038	0.002670	0.118866	9.773419	0.003204	-0.001967	-0.038546	-1.000000	0.000085	-0.000331	0.000033
07039	-0.001998	0.118976	9.802399	-0.001335	-0.002270	-0.009566	-1.000000	0.000078	-0.000342	0.000031
07040	-0.003255	0.090059	9.831908	-0.002606	-0.031684	0.019582	-1.000000	0.000071	-0.000329	0.000029
07041	0.055130	0.125815	9.810911	0.055757	0.004262	-0.000974	-1.000000	0.000072	-0.000339	0.000027
07042	-0.001812	0.148180	9.772887	-0.001063	0.027192	-0.038715	-1.000000	0.000080	-0.000342	0.000034
07043	0.025664	0.122341	9.806658	0.026459	0.001032	-0.005269	-1.000000	0.000082	-0.000344	0.000017
07044	-0.002188	0.148170	9.772887	-0.001563	0.027214	-0.038715	-1.000000	0.000074	-0.000324	0.000022
07045	0.054156	0.125665	9.810919	0.054753	0.004311	-0.000968	-1.000000	0.000090	-0.000341	0.000029
07046	0.004783	0.118804	9.744439	0.005495	-0.001565	-0.067525	-1.000000	0.000090	-0.000336	0.000035
07047	0.024838	0.122215	9.806661	0.025454	0.001077	-0.005266	-1.000000	0.000090	-0.000331	0.000033
07048	-0.008555	0.118946	9.831380	-0.007884	-0.002482	0.019412	-1.000000	0.000091	-0.000342	0.000039
07049	0.024238	0.122141	9.806664	0.024951	0.001101	-0.005265	-1.000000	0.000099	-0.000336	0.000038
07050	-0.000557	0.118702	9.773421	0.000202	-0.001833	-0.038546	-1.000000	0.000100	-0.000346	0.000036
07051	-0.000783	0.118701	9.773421	-0.000051	-0.001824	-0.038546	-1.000000	0.000100	-0.000333	0.000034
07052	0.023413	0.122054	9.806667	0.024199	0.001135	-0.005263	-1.000000	0.000102	-0.000351	0.000032
07053	-0.037830	0.144596	9.797603	-0.036914	0.023737	-0.014043	-1.000000	0.000095	-0.000347	0.000029
07054	0.023902	0.151261	9.777157	0.024723	0.030585	-0.034410	-1.000000	0.000095	-0.000342	0.000027
07055	-0.010450	0.119003	9.831377	-0.009647	-0.002406	0.019410	-1.000000	0.000088	-0.000345	0.000033
07056	0.022338	0.122350	9.806666	0.023197	0.001182	-0.005260	-1.000000	0.000089	-0.000347	0.000031
07057	-0.010985	0.119081	9.831376	-0.010150	-0.002385	0.019410	-1.000000	0.000089	-0.000342	0.000036
07058	0.049575	0.096610	9.840448	0.050462	-0.024958	0.028198	-1.000000	0.000090	-0.000353	0.000035
07059	-0.007361	0.119026	9.802396	-0.006352	-0.002050	-0.009568	-1.000000	0.000091	-0.000355	0.000033
07060	-0.010720	0.148221	9.801864	-0.009876	0.027074	-0.009740	-1.000000	0.000082	-0.000335	0.000038
07061	-0.007669	0.119111	9.802395	-0.006855	-0.002028	-0.009569	-1.000000	0.000092	-0.000353	0.000029
07062	0.029288	0.122318	9.748712	0.030297	0.001877	-0.063212	-1.000000	0.000086	-0.000356	0.000019
07063	0.020370	0.122470	9.806669	0.021439	0.001260	-0.005256	-1.000000	0.000087	-0.000358	0.000017
07064	0.020069	0.122464	9.806669	0.021189	0.001272	-0.005256	-1.000000	0.000088	-0.000361	0.000015
07065	0.025101	0.151558	9.748180	0.026270	0.031021	-0.063381	-1.000000	0.000080	-0.000364	0.000020
07066	0.011790	0.151762	9.835114	0.013102	0.030092	0.023550	-1.000000	0.000081	-0.000374	0.000018
07067	0.023386	0.122640	9.777691	0.024741	0.001619	-0.034231	-1.000000	0.000074	-0.000369	0.000023
07068	-0.009957	0.119588	9.802387	-0.008607	-0.001952	-0.009570	-1.000000	0.000059	-0.000373	0.000020
07069	0.015251	0.152014	9.806133	0.016650	0.030441	-0.005426	-1.000000	0.000076	-0.000374	0.000020
07070	-0.006163	0.119387	9.773411	-0.004801	-0.001615	-0.038547	-1.000000	0.000076	-0.000369	0.000018
07071	-0.010627	0.119428	9.802388	-0.009363	-0.001919	-0.009571	-1.000000	0.000077	-0.000364	0.000009
07072	0.017941	0.122683	9.806671	0.019179	0.001364	-0.005252	-1.000000	0.000084	-0.000367	0.000022
07073	0.021958	0.122571	9.777695	0.023238	0.001689	-0.034227	-1.000000	0.000085	-0.000369	0.000021
07074	0.017266	0.122605	9.806673	0.018677	0.001387	-0.005251	-1.000000	0.000086	-0.000379	0.000019
07075	-0.015036	0.148383	9.801855	-0.013650	0.027235	-0.009745	-1.000000	0.000086	-0.000367	0.000017
07076	0.020172	0.093511	9.807207	0.021460	-0.027703	-0.005077	-1.000000	0.000086	-0.000369	0.000030
07077	0.013447	0.151734	9.806140	0.014637	0.030532	-0.005423	-1.000000	0.000086	-0.000369	0.000030
07078	-0.012211	0.119369	9.802387	-0.010869	-0.001854	-0.009572	-1.000000	0.000079	-0.000372	0.000028
07079	0.016276	0.122698	9.806673	0.017669	0.001431	-0.005249	-1.000000	0.000087	-0.000374	0.000034
07080	0.020370	0.122654	9.777697	0.021736	0.001758	-0.034224	-1.000000	0.000081	-0.000370	0.000024
07081	-0.012896	0.119449	9.802385	-0.011624	-0.001822	-0.009573	-1.000000	0.000080	-0.000365	0.000037
07082	0.012453	0.151890	9.806139	0.013630	0.030578	-0.005421	-1.000000	0.000082	-0.000360	0.000020
07083	0.019828	0.122887	9.777695	0.020984	0.001792	-0.034222	-1.000000	0.000066	-0.000363	0.000033
07084	0.018564	0.093914	9.807206	0.019705	-0.027622	-0.005073	-1.000000	0.000074	-0.000358	0.000039
07085	-0.012711	0.148754	9.772870	-0.011593	0.027648	-0.038723	-1.000000	0.000067	-0.000361	0.000037
07086	0.019064	0.123050	9.777695	0.020237	0.001827	-0.034221	-1.000000	0.000068	-0.000364	0.000035
07087	0.011068	0.152265	9.806135	0.012371	0.030634	-0.005420	-1.000000	0.000061	-0.000374	0.000032
07088	0.021672	0.094083	9.778230	0.023024	-0.027261	-0.034045	-1.000000	0.000061	-0.000369	0.000038
07089	0.035070	0.155723	9.839403	0.036334	0.033623	0.027886	-1.000000	0.000062	-0.000364	0.000029
07090	0.018156	0.123125	9.777696	0.019233	0.001874	-0.034219	-1.000000	0.000069	-0.000351	0.000035
07091	0.018006	0.123070	9.777697	0.018980	0.001883	-0.034218	-1.000000	0.000069	-0.000353	0.000048
07092	0.010009	0.152153	9.806138	0.011114	0.030691	-0.005419	-1.000000	0.000077	-0.000363	0.000055
07093	0.021586	0.122956	9.748724	0.022806	0.002222	-0.063191	-1.000000	0.000071	-0.000366	0.000052
07094	0.012622	0.123111	9.806674	0.013905	0.001604	-0.005243	-1.000000	0.000071	-0.000369	0.000051
07095	0.012320	0.123106	9.806674	0.013649	0.001615	-0.005243	-1.000000	0.000072	-0.000371	0.000049
07096	-0.012440	0.119791	9.773400	-0.011060	-0.001342	-0.038552	-1.000000	0.000066	-0.000374	0.000046
07097	0.007601	0.123300	9.835647	0.008817	0.001322	0.023732	-1.000000	0.000065	-0.000354	0.000044
07098	0.011630	0.123262	9.806673	0.012897	0.001649	-0.005242	-1.000000	0.000066	-0.000380	0.000058
07099	0.015437	0.123212	9.777699	0.016972	0.001974	-0.034215	-1.000000	0.000067	-0.000382	0.000056
07100	-0.013428	0.119944	9.773397	-0.012064	-0.001300	-0.038553	-1.000000	0.000060	-0.000362	0.000046
07101	0.007575	0.152365	9.806137	0.008842	0.030789	-0.005417	-1.000000	0.000075	-0.000372	0.000052
07102	0.010506	0.123106	9.806676	0.011891	0.001691	-0.005240	-1.000000	0.000076	-0.000374	0.000050
07103	0.010200	0.123180	9.806675	0.011638	0.001702	-0.005240	-1.000000	0.000069	-0.000377	0.000056
07104	0.009888	0.123335	9.806674	0.011389	0.001714	-0.005240	-1.000000	0.000062	-0.000380	0.000061
07105	0.041749	0.097581	9.811518	0.043219	-0.024096	-0.000721	-1.000000	0.000070	-0.000375	0.000060
07106	0.009364	0.123259	9.806675	0.010885	0.001737	-0.005239	-1.000000	0.000071	-0.000385	0.000058
07107	0.009057	0.123334	9.806675	0.010630	0.001750	-0.005239	-1.000000	0.000063	-0.000380	0.000063
07108	0.004564	0.123379	9.835648	0.006044	0.001447	0.023734	-1.000000	0.000072	-0.000375	0.000055
07109	0.008680	0.123329	9.806675	0.010128	0.001772	-0.005238	-1.000000	0.000065	-0.000378	0.000052
07110	-0.019443	0.149033	9.772854	-0.017870	0.027918	-0.038733	-1.000000	0.000074	-0.000388	0.000051
07111	0.035602	0.097517	9.840499	0.037376	-0.024341	0.028258	-1.000000	0.000075	-0.000398	0.000048
07112	0.008598	0.152213	9.777167	0.010415	0.031230	-0.034387	-1.000000	0.000083	-0.000392	0.000047
07113	0.010718	0.093980	9.807217	0.012428	-0.027295	-0.005060	-1.000000	0.000083	-0.000387	0.000053
07114	0.007179	0.123169	9.806678	0.008875	0.001827	-0.005237	-1.000000	0.000076	-0.000390	0.000058
07115	0.011447	0.123145	9.777705	0.012963	0.002154	-0.034209	-1.000000	0.000082	-0.000370	0.000065
07116	0.006955	0.123052	9.806680	0.008372	0.001850	-0.005237	-1.000000	0.000091	-0.000380	0.000071
07117	0.006653	0.123052	9.806680	0.008120	0.001859	-0.005237	-1.000000	0.000084	-0.000375	0.000068
07118	0.006420	0.123136	9.806679	0.007871	0.001871	-0.005236	-1.000000	0.000083	-0.000378	0.000082
07119	0.001768	0.123183	9.835652	0.003274	0.001566	0.023735	-1.000000	0.000084	-0.000380	0.000080
07120	0.005741	0.123132	9.806680	0.007370	0.001895	-0.005236	-1.000000	0.000085	-0.000390	0.000078
07121	0.038647	0.126451	9.782026	0.040247	0.005520	-0.029852	-1.000000	0.000085	-0.000378	0.000084
07122	0.006473	0.152212	9.777169	0.007907	0.031343	-0.034385	-1.000000	0.000085	-0.000373	0.000082
07123	0.000856	0.123199	9.835651	0.002266	0.001613	0.023735	-1.000000	0.000085	-0.000375	0.000096
07124	0.030451	0.155550	9.810461	0.031838	0.034350	-0.001057	-1.000000	0.000094	-0.000370	0.000087
07125	0.009113	0.123035	9.777709	0.010460	0.002267	-0.034206	-1.000000	0.000087	-0.000373	0.000076
07126	0.037590	0.126457	9.782030	0.038994	0.005579	-0.029847	-1.000000	0.000088	-0.000375	0.000075
07127	0.007465	0.094109	9.807219	0.008920	-0.027136	-0.005056	-1.000000	0.000081	-0.000378	0.000080
07128	0.000675	0.152399	9.806139	0.002047	0.031093	-0.005414	-1.000000	0.000081	-0.000366	0.000078
07129	0.008271	0.123262	9.777707	0.009458	0.002313	-0.034205	-1.000000	0.000082	-0.000361	0.000076
07130	0.032384	0.126818	9.811000	0.033639	0.005311	-0.000874	-1.000000	0.000067	-0.000372	0.000089
07131	0.007654	0.123490	9.777705	0.008958	0.002335	-0.034204	-1.000000	0.000075	-0.000366	0.000080
07132	0.028467	0.155831	9.810463	0.029822	0.034443	-0.001051	-1.000000	0.000085	-0.000376	0.000071
07133	0.010384	0.094204	9.778248	0.011772	-0.026750	-0.034024	-1.000000	0.000078	-0.000371	0.000061
07134	0.002549	0.123431	9.806677	0.003853	0.002053	-0.005234	-1.000000	0.000077	-0.000366	0.000074
07135	0.031179	0.126740	9.811005	0.032383	0.005369	-0.000869	-1.000000	0.000085	-0.000361	0.000080
07136	0.002171	0.123385	9.806678	0.003353	0.002076	-0.005234	-1.000000	0.000077	-0.000364	0.000086
07137	0.030719	0.126830	9.811005	0.031880	0.005392	-0.000868	-1.000000	0.000078	-0.000359	0.000084
07138	0.001788	0.123467	9.806677	0.002850	0.002098	-0.005234	-1.000000	0.000078	-0.000354	0.000082
07139	0.002748	0.152547	9.777166	0.003638	0.031532	-0.034383	-1.000000	0.000077	-0.000341	0.000095
07140	0.029225	0.097731	9.840518	0.030085	-0.023998	0.028284	-1.000000	0.000085	-0.000351	0.000102
07141	0.005546	0.123386	9.777708	0.006455	0.002446	-0.034202	-1.000000	0.000078	-0.000347	0.000099
07142	0.034094	0.126827	9.782038	0.034987	0.005768	-0.029832	-1.000000	0.000079	-0.000349	0.000097
07143	0.000645	0.123573	9.806676	0.001592	0.002150	-0.005233	-1.000000	0.000072	-0.000352	0.000102
07144	0.033553	0.127056	9.782037	0.034485	0.005790	-0.029831	-1.000000	0.000065	-0.000348	0.000100
07145	0.000178	0.123798	9.806673	0.001089	0.002171	-0.005233	-1.000000	0.000065	-0.000350	0.000098
07146	0.000909	0.152945	9.777160	0.001883	0.031609	-0.034383	-1.000000	0.000057	-0.000353	0.000118
07147	0.028419	0.127266	9.811006	0.029364	0.005505	-0.000860	-1.000000	0.000065	-0.000348	0.000109
07148	0.003717	0.123698	9.777704	0.004702	0.002523	-0.034201	-1.000000	0.000074	-0.000358	0.000116
07149	-0.000953	0.123733	9.806674	0.000083	0.002215	-0.005233	-1.000000	0.000067	-0.000353	0.000106
07150	-0.000069	0.152872	9.777161	0.000877	0.031652	-0.034383	-1.000000	0.000067	-0.000348	0.000111
07151	-0.001261	0.123812	9.806673	-0.000420	0.002237	-0.005233	-1.000000	0.000068	-0.000343	0.000102
07152	0.024034	0.156286	9.810467	0.024783	0.034671	-0.001038	-1.000000	0.000068	-0.000338	0.000100
07153	0.031511	0.127143	9.782042	0.032225	0.005892	-0.029823	-1.000000	0.000069	-0.000340	0.000098
07154	0.002429	0.123842	9.777703	0.003199	0.002589	-0.034201	-1.000000	0.000062	-0.000343	0.000103
07155	0.001083	0.094843	9.807214	0.001899	-0.026825	-0.005051	-1.000000	0.000064	-0.000345	0.000086
07156	0.033933	0.098174	9.782587	0.034800	-0.023177	-0.029638	-1.000000	0.000064	-0.000348	0.000099
07157	-0.006187	0.153040	9.806127	-0.005257	0.031411	-0.005416	-1.000000	0.000065	-0.000351	0.000090
07158	0.025697	0.127309	9.811013	0.026599	0.005634	-0.000852	-1.000000	0.000066	-0.000346	0.000088
07159	0.001068	0.123964	9.777702	0.001941	0.002644	-0.034200	-1.000000	0.000059	-0.000349	0.000086
07160	0.029534	0.127486	9.782044	0.030469	0.005976	-0.029817	-1.000000	0.000052	-0.000352	0.000083
07161	0.029158	0.127476	9.782045	0.030217	0.005986	-0.029817	-1.000000	0.000061	-0.000361	0.000082
07162	-0.000879	0.094891	9.807214	0.000147	-0.026746	-0.005051	-1.000000	0.000068	-0.000348	0.000088
07163	0.000017	0.123886	9.777703	0.000941	0.002689	-0.034200	-1.000000	0.000069	-0.000351	0.000086
07164	0.024109	0.127312	9.811017	0.025091	0.005704	-0.000848	-1.000000	0.000069	-0.000354	0.000100
07165	-0.001635	0.094904	9.807214	-0.000609	-0.026716	-0.005051	-1.000000	0.000062	-0.000356	0.000089
07166	-0.005203	0.124072	9.806668	-0.004190	0.002402	-0.005234	-1.000000	0.000063	-0.000351	0.000088
07167	-0.005429	0.124071	9.806668	-0.004442	0.002413	-0.005234	-1.000000	0.000064	-0.000354	0.000086
07168	0.030836	0.098392	9.782595	0.031799	-0.023038	-0.029628	-1.000000	0.000056	-0.000349	0.000091
07169	0.022885	0.127543	9.811017	0.023828	0.005759	-0.000845	-1.000000	0.000064	-0.000351	0.000097
07170	0.026968	0.127498	9.782051	0.027961	0.006091	-0.029810	-1.000000	0.000058	-0.000354	0.000087
07171	-0.003153	0.095104	9.807212	-0.002112	-0.026650	-0.005051	-1.000000	0.000060	-0.000357	0.000070
07172	0.022050	0.127656	9.811018	0.023078	0.005794	-0.000843	-1.000000	0.000052	-0.000352	0.000075
07173	-0.010296	0.153451	9.806117	-0.009287	0.031584	-0.005420	-1.000000	0.000053	-0.000355	0.000073
07174	-0.002868	0.124304	9.777697	-0.001814	0.002810	-0.034200	-1.000000	0.000054	-0.000358	0.000071
07175	-0.007559	0.124344	9.806663	-0.006453	0.002501	-0.005235	-1.000000	0.000054	-0.000360	0.000077
07176	0.017573	0.156756	9.810474	0.018733	0.034946	-0.001026	-1.000000	0.000062	-0.000362	0.000076
07177	-0.003763	0.124149	9.777699	-0.002567	0.002841	-0.034200	-1.000000	0.000063	-0.000365	0.000074
07178	-0.003991	0.124158	9.777699	-0.002816	0.002853	-0.034201	-1.000000	0.000063	-0.000360	0.000087
07179	0.023358	0.098476	9.811570	0.024654	-0.023231	-0.000654	-1.000000	0.000065	-0.000377	0.000070
07180	-0.009052	0.124032	9.806666	-0.007708	0.002556	-0.005236	-1.000000	0.000080	-0.000364	0.000085
07181	0.022917	0.098256	9.811573	0.024153	-0.023211	-0.000653	-1.000000	0.000073	-0.000367	0.000075
07182	-0.005036	0.124000	9.777700	-0.003818	0.002895	-0.034201	-1.000000	0.000073	-0.000362	0.000080
07183	-0.005192	0.124083	9.777699	-0.004072	0.002904	-0.034201	-1.000000	0.000066	-0.000357	0.000078
07184	0.023348	0.127553	9.782060	0.024452	0.006248	-0.029801	-1.000000	0.000066	-0.000360	0.000084
07185	0.022972	0.127543	9.782061	0.024200	0.006261	-0.029800	-1.000000	0.000068	-0.000370	0.000074
07186	0.022603	0.127447	9.782063	0.023951	0.006273	-0.029799	-1.000000	0.000077	-0.000372	0.000065
07187	-0.010714	0.124027	9.806664	-0.009470	0.002629	-0.005238	-1.000000	0.000076	-0.000360	0.000079
07188	-0.006475	0.124140	9.777697	-0.005323	0.002961	-0.034202	-1.000000	0.000063	-0.000363	0.000060
07189	0.046436	0.131033	9.815392	0.047572	0.009323	0.003570	-1.000000	0.000070	-0.000357	0.000067
07190	-0.006926	0.124131	9.777697	-0.005822	0.002984	-0.034202	-1.000000	0.000072	-0.000360	0.000057
07191	-0.014908	0.153341	9.806113	-0.013820	0.031778	-0.005425	-1.000000	0.000064	-0.000355	0.000062
07192	0.024808	0.098582	9.782610	0.025794	-0.022762	-0.029609	-1.000000	0.000064	-0.000350	0.000060
07193	0.021230	0.127686	9.782063	0.022194	0.006353	-0.029795	-1.000000	0.000065	-0.000353	0.000066
07194	-0.040937	0.120925	9.802290	-0.039996	-0.000631	-0.009648	-1.000000	0.000066	-0.000348	0.000049
07195	0.020929	0.127686	9.782064	0.021691	0.006377	-0.029794	-1.000000	0.000065	-0.000335	0.000063
07196	0.020706	0.127616	9.782065	0.021442	0.006390	-0.029794	-1.000000	0.000075	-0.000345	0.000054
07197	-0.012843	0.124241	9.806659	-0.011983	0.002740	-0.005241	-1.000000	0.000068	-0.000348	0.000051
07198	0.015625	0.127633	9.811030	0.016537	0.006091	-0.000830	-1.000000	0.000076	-0.000350	0.000050
07199	0.024141	0.127477	9.753105	0.025092	0.006743	-0.058754	-1.000000	0.000077	-0.000352	0.000048
07200	0.018454	0.098458	9.811580	0.019386	-0.022989	-0.000642	-1.000000	0.000077	-0.000347	0.000054
07201	-0.012922	0.153293	9.777146	-0.011935	0.032209	-0.034392	-1.000000	0.000071	-0.000358	0.000051
07202	0.014489	0.127689	9.811031	0.015532	0.006138	-0.000829	-1.000000	0.000072	-0.000353	0.000034
07203	0.021801	0.098595	9.782617	0.023037	-0.022635	-0.029602	-1.000000	0.000068	-0.000379	0.000024
07204	0.010373	0.156962	9.810481	0.011675	0.035264	-0.001016	-1.000000	0.000060	-0.000359	0.000014
07205	0.013576	0.127866	9.811030	0.014774	0.006171	-0.000827	-1.000000	0.000068	-0.000368	0.000020
07206	0.046379	0.131224	9.786447	0.047702	0.009848	-0.025372	-1.000000	0.000062	-0.000371	0.000018
07207	-0.015875	0.124530	9.806651	-0.014496	0.002849	-0.005244	-1.000000	0.000063	-0.000374	0.000016
07208	0.012736	0.128008	9.811030	0.014023	0.006206	-0.000826	-1.000000	0.000055	-0.000362	0.000013
07209	0.013712	0.157150	9.781516	0.014824	0.035642	-0.029976	-1.000000	0.000055	-0.000357	0.000012
07210	0.015790	0.098921	9.811580	0.016877	-0.022874	-0.000637	-1.000000	0.000063	-0.000359	0.000018
07211	-0.015654	0.153667	9.777136	-0.014444	0.032317	-0.034395	-1.000000	0.000058	-0.000369	0.000008
07212	0.020579	0.128076	9.753105	0.021845	0.006895	-0.058747	-1.000000	0.000050	-0.000365	0.000013
07213	-0.013890	0.095655	9.807197	-0.012646	-0.026189	-0.005057	-1.000000	0.000058	-0.000367	0.000012
07214	0.006725	0.128117	9.839992	0.008098	0.005953	0.028136	-1.000000	0.000059	-0.000377	0.000018
07215	0.014274	0.099054	9.811581	0.015620	-0.022818	-0.000635	-1.000000	0.000052	-0.000365	0.000007
07216	0.015174	0.128259	9.782067	0.016427	0.006618	-0.029784	-1.000000	0.000045	-0.000368	0.000005
07217	0.010443	0.128441	9.811027	0.011758	0.006308	-0.000824	-1.000000	0.000039	-0.000371	0.000003
07218	0.011275	0.157562	9.781512	0.012565	0.035745	-0.029973	-1.000000	0.000040	-0.000366	-0.000015
07219	0.009988	0.128501	9.811026	0.011255	0.006330	-0.000823	-1.000000	0.000040	-0.000368	-0.000001
07220	0.042801	0.131803	9.786455	0.044190	0.010016	-0.025356	-1.000000	0.000048	-0.000378	0.000005
07221	0.009316	0.128348	9.811029	0.010749	0.006351	-0.000822	-1.000000	0.000050	-0.000373	-0.000012
07222	-0.019670	0.124858	9.806640	-0.018266	0.003009	-0.005250	-1.000000	0.000058	-0.000375	-0.000006
07223	0.013297	0.128158	9.782071	0.014665	0.006695	-0.029781	-1.000000	0.000058	-0.000370	-0.000008
07224	0.016290	0.098976	9.782624	0.017781	-0.022395	-0.029591	-1.000000	0.000067	-0.000387	-0.000009
07225	-0.020708	0.124539	9.806642	-0.019022	0.003041	-0.005252	-1.000000	0.000076	-0.000389	-0.000010
07226	0.011349	0.098783	9.811588	0.012859	-0.022694	-0.000630	-1.000000	0.000075	-0.000369	-0.000012
07227	0.008970	0.156949	9.781524	0.010297	0.035843	-0.029971	-1.000000	0.000076	-0.000372	-0.000014
07228	0.003104	0.127845	9.839998	0.004564	0.006109	0.028138	-1.000000	0.000085	-0.000381	-0.000008
07229	0.036069	0.131225	9.815433	0.037501	0.009797	0.003613	-1.000000	0.000077	-0.000369	-0.000010
07230	0.011580	0.127854	9.782077	0.012914	0.006774	-0.029779	-1.000000	0.000078	-0.000372	-0.000012
07231	0.006848	0.127885	9.811037	0.008235	0.006462	-0.000820	-1.000000	0.000079	-0.000374	-0.000014
07232	0.011053	0.127853	9.782078	0.012414	0.006796	-0.029778	-1.000000	0.000078	-0.000369	-0.000008
07233	0.006318	0.127889	9.811037	0.007733	0.006484	-0.000820	-1.000000	0.000080	-0.000380	-0.000010
07234	0.013820	0.098750	9.782630	0.015283	-0.022284	-0.029586	-1.000000	0.000080	-0.000375	-0.000012
07235	0.010222	0.127857	9.782078	0.011660	0.006829	-0.029777	-1.000000	0.000080	-0.000377	0.000001
07236	0.006477	0.156887	9.781527	0.008040	0.035943	-0.029969	-1.000000	0.000088	-0.000387	0.000007
07237	0.009473	0.127780	9.782080	0.011160	0.006853	-0.029777	-1.000000	0.000082	-0.000390	-0.000003
07238	0.008107	0.098713	9.811592	0.009851	-0.022559	-0.000627	-1.000000	0.000090	-0.000392	0.000004
07239	0.029892	0.160397	9.814890	0.031615	0.039016	0.003430	-1.000000	0.000076	-0.000388	-0.000007
07240	-0.000096	0.128071	9.839995	0.001542	0.006242	0.028139	-1.000000	0.000076	-0.000383	-0.000001
07241	0.008480	0.127999	9.782078	0.010159	0.006897	-0.029776	-1.000000	0.000077	-0.000393	-0.000003
07242	-0.020731	0.124565	9.777672	-0.018852	0.003545	-0.034219	-1.000000	0.000078	-0.000404	-0.000005
07243	0.011107	0.098813	9.782633	0.013031	-0.022182	-0.029583	-1.000000	0.000086	-0.000398	0.000001
07244	0.002996	0.127802	9.811040	0.004971	0.006608	-0.000818	-1.000000	0.000094	-0.000408	0.000008
07245	0.011586	0.127652	9.753125	0.013595	0.007264	-0.058732	-1.000000	0.000095	-0.000403	-0.000002
07246	-0.021845	0.124269	9.777674	-0.019853	0.003587	-0.034221	-1.000000	0.000095	-0.000406	0.000012
07247	0.002238	0.127810	9.811040	0.002036	0.006306	-0.000817	-1.000000	0.000070	-0.000290	0.000031
07248	0.002011	0.127808	9.811040	0.001785	0.006318	-0.000817	-1.000000	0.000079	-0.000292	0.000030
07249	-0.031488	0.124264	9.835588	-0.031677	0.002635	0.023684	-1.000000	0.000087	-0.000294	0.000027
07250	0.002564	0.156640	9.781533	0.002349	0.035762	-0.029965	-1.000000	0.000088	-0.000289	0.000025
07251	0.037854	0.101883	9.787052	0.037611	-0.019062	-0.025122	-1.000000	0.000087	-0.000291	0.000038
07252	-0.027794	0.124156	9.806629	-0.027986	0.002990	-0.005273	-1.000000	0.000089	-0.000294	0.000021
07253	0.033952	0.130892	9.786502	0.033730	0.010061	-0.025314	-1.000000	0.000097	-0.000288	0.000026
07254	0.000591	0.127508	9.811044	0.000270	0.006379	-0.000817	-1.000000	0.000089	-0.000284	0.000024
07255	0.033641	0.131047	9.786501	0.033227	0.010083	-0.025312	-1.000000	0.000083	-0.000279	0.000013
07256	0.000281	0.127651	9.811043	-0.000234	0.006400	-0.000817	-1.000000	0.000091	-0.000273	0.000012
07257	0.028740	0.131010	9.815461	0.028269	0.009782	0.003644	-1.000000	0.000091	-0.000283	0.000026
07258	0.004282	0.127552	9.782087	0.003713	0.006747	-0.029771	-1.000000	0.000092	-0.000263	0.000009
07259	0.032966	0.130975	9.786505	0.032219	0.010127	-0.025309	-1.000000	0.000092	-0.000265	0.000005
07260	-0.000616	0.127490	9.811045	-0.001244	0.006442	-0.000817	-1.000000	0.000102	-0.000275	-0.000004
07261	0.002391	0.098384	9.811598	0.001884	-0.022649	-0.000622	-1.000000	0.000095	-0.000278	0.000000
07262	0.003230	0.127525	9.782088	0.002706	0.006787	-0.029771	-1.000000	0.000095	-0.000273	-0.000002
07263	-0.001382	0.127641	9.811043	-0.002004	0.006471	-0.000817	-1.000000	0.000087	-0.000268	0.000003
07264	0.002842	0.127687	9.782086	0.002204	0.006808	-0.029771	-1.000000	0.000088	-0.000271	0.000001
07265	0.002616	0.127685	9.782086	0.001951	0.006818	-0.029771	-1.000000	0.000088	-0.000266	-0.000001
07266	-0.002062	0.127636	9.811042	-0.002759	0.006505	-0.000817	-1.000000	0.000097	-0.000268	-0.000010
07267	0.026397	0.130994	9.815467	0.025743	0.009891	0.003651	-1.000000	0.000097	-0.000270	0.000003
07268	-0.002733	0.127482	9.811044	-0.003264	0.006525	-0.000817	-1.000000	0.000107	-0.000280	-0.000006
07269	-0.002878	0.127394	9.811045	-0.003517	0.006534	-0.000817	-1.000000	0.000107	-0.000259	-0.000024
07270	-0.028248	0.094872	9.807174	-0.029136	-0.025932	-0.005092	-1.000000	0.000107	-0.000254	-0.000018
07271	0.030109	0.130811	9.786516	0.029198	0.010261	-0.025300	-1.000000	0.000107	-0.000257	-0.000012
07272	-0.006800	0.156504	9.810491	-0.007662	0.035668	-0.001013	-1.000000	0.000108	-0.000260	-0.000014
07273	-0.003637	0.127407	9.811045	-0.004525	0.006578	-0.000818	-1.000000	0.000109	-0.000254	-0.000016
07274	0.029280	0.130805	9.786519	0.028445	0.010296	-0.025298	-1.000000	0.000110	-0.000265	-0.000018
07275	-0.004315	0.127391	9.811045	-0.005031	0.006600	-0.000818	-1.000000	0.000111	-0.000267	-0.000018
07276	0.024137	0.130832	9.815475	0.023473	0.009994	0.003656	-1.000000	0.000110	-0.000270	-0.000005
07277	0.028444	0.130891	9.786520	0.027688	0.010330	-0.025295	-1.000000	0.000103	-0.000258	-0.000007
07278	-0.000467	0.127530	9.782088	-0.001317	0.006959	-0.029771	-1.000000	0.000104	-0.000260	-0.000009
07279	-0.005164	0.127635	9.811041	-0.006041	0.006644	-0.000819	-1.000000	0.000097	-0.000255	-0.000011
07280	-0.004318	0.156701	9.781532	-0.005216	0.036080	-0.029968	-1.000000	0.000104	-0.000258	-0.000005
07281	-0.002370	0.098465	9.811597	-0.003150	-0.022434	-0.000622	-1.000000	0.000106	-0.000268	-0.000006
07282	0.019362	0.160172	9.814920	0.018563	0.039161	0.003463	-1.000000	0.000097	-0.000255	-0.000001
07283	-0.006152	0.127709	9.811040	-0.007052	0.006686	-0.000819	-1.000000	0.000099	-0.000258	-0.000018
07284	-0.002986	0.098682	9.811595	-0.003906	-0.022401	-0.000622	-1.000000	0.000092	-0.000253	-0.000013
07285	-0.005535	0.156843	9.781529	-0.006480	0.036131	-0.029969	-1.000000	0.000100	-0.000255	-0.000015
07286	0.026392	0.131121	9.786523	0.025420	0.010432	-0.025289	-1.000000	0.000100	-0.000250	-0.000009
07287	-0.002593	0.127757	9.782085	-0.003588	0.007053	-0.029771	-1.000000	0.000093	-0.000253	-0.000012
07288	-0.011694	0.127897	9.839991	-0.012790	0.006413	0.028131	-1.000000	0.000093	-0.000240	-0.000014
07289	0.025852	0.131286	9.786522	0.024661	0.010462	-0.025287	-1.000000	0.000093	-0.000243	-0.000009
07290	0.024551	0.102229	9.816032	0.023333	-0.018950	0.003862	-1.000000	0.000094	-0.000238	-0.000011
07291	0.025248	0.131293	9.786523	0.024156	0.010484	-0.025286	-1.000000	0.000094	-0.000256	0.000002
07292	-0.003879	0.127780	9.782084	-0.004846	0.007106	-0.029772	-1.000000	0.000102	-0.000250	0.000009
07293	-0.004026	0.127708	9.782085	-0.005100	0.007115	-0.029772	-1.000000	0.000103	-0.000245	-0.000001
07294	-0.008579	0.127746	9.811038	-0.009831	0.006801	-0.000822	-1.000000	0.000102	-0.000232	0.000005
07295	0.020024	0.131128	9.815481	0.018666	0.010203	0.003667	-1.000000	0.000110	-0.000234	0.000004
07296	-0.004548	0.127575	9.782086	-0.005855	0.007148	-0.029772	-1.000000	0.000111	-0.000237	0.000010
07297	0.023977	0.131028	9.786530	0.022645	0.010552	-0.025283	-1.000000	0.000111	-0.000232	0.000008
07298	-0.001601	0.098564	9.782642	-0.002953	-0.021928	-0.029574	-1.000000	0.000104	-0.000235	0.000013
07299	0.019037	0.131148	9.815482	0.017656	0.010246	0.003668	-1.000000	0.000111	-0.000229	0.000019
07300	-0.002120	0.098419	9.782643	-0.003456	-0.021908	-0.029574	-1.000000	0.000121	-0.000239	0.000010
07301	-0.010309	0.127536	9.811039	-0.011599	0.006873	-0.000824	-1.000000	0.000113	-0.000234	0.000015
07302	0.054853	0.105335	9.791538	0.053543	-0.015094	-0.020587	-1.000000	0.000120	-0.000237	0.000029
07303	-0.006429	0.127448	9.782087	-0.007618	0.007220	-0.029774	-1.000000	0.000121	-0.000247	0.000027
07304	0.017536	0.130925	9.815488	0.016394	0.010302	0.003670	-1.000000	0.000122	-0.000242	0.000025
07305	0.021793	0.130901	9.786537	0.020627	0.010639	-0.025278	-1.000000	0.000122	-0.000244	0.000031
07306	0.021566	0.130906	9.786537	0.020376	0.010651	-0.025278	-1.000000	0.000123	-0.000239	0.000029
07307	-0.007340	0.127533	9.782085	-0.008627	0.007264	-0.029775	-1.000000	0.000115	-0.000234	0.000034
07308	0.021327	0.131077	9.786536	0.019872	0.010675	-0.025277	-1.000000	0.000115	-0.000222	0.000033
07309	0.029084	0.101805	9.758144	0.027520	-0.018086	-0.054025	-1.000000	0.000131	-0.000223	0.000024
07310	0.016407	0.130793	9.815492	0.014876	0.010369	0.003673	-1.000000	0.000132	-0.000226	0.000022
07311	-0.008082	0.127312	9.782087	-0.009634	0.007305	-0.029776	-1.000000	0.000132	-0.000220	0.000028
07312	0.020440	0.130774	9.786542	0.018864	0.010718	-0.025275	-1.000000	0.000133	-0.000223	0.000026
07313	-0.005126	0.098302	9.782643	-0.006724	-0.021770	-0.029575	-1.000000	0.000125	-0.000218	0.000031
07314	0.018826	0.101864	9.816049	0.017279	-0.018683	0.003875	-1.000000	0.000126	-0.000229	0.000030
07315	0.043783	0.134406	9.819949	0.042361	0.013829	0.008178	-1.000000	0.000127	-0.000231	0.000028
07316	-0.009452	0.127524	9.782083	-0.010889	0.007361	-0.029777	-1.000000	0.000121	-0.000226	0.000018
07317	-0.009752	0.127512	9.782083	-0.011143	0.007370	-0.029777	-1.000000	0.000130	-0.000236	0.000016
07318	0.014052	0.130986	9.815493	0.012856	0.010459	0.003676	-1.000000	0.000123	-0.000247	0.000014
07319	0.018166	0.131023	9.786543	0.017098	0.010796	-0.025272	-1.000000	0.000124	-0.000249	0.000012
07320	-0.011887	0.098496	9.811590	-0.012983	-0.022022	-0.000629	-1.000000	0.000125	-0.000244	0.000010
07321	0.014365	0.160196	9.785983	0.013177	0.039914	-0.025473	-1.000000	0.000117	-0.000239	0.000015
07322	0.017626	0.131188	9.786541	0.016343	0.010830	-0.025270	-1.000000	0.000117	-0.000234	0.000013
07323	0.017400	0.131187	9.786542	0.016091	0.010840	-0.025270	-1.000000	0.000118	-0.000237	0.000011
07324	0.008100	0.131248	9.844441	0.006836	0.010196	0.032624	-1.000000	0.000118	-0.000239	0.000025
07325	0.021369	0.131169	9.757593	0.020090	0.011190	-0.054216	-1.000000	0.000119	-0.000234	0.000015
07326	0.016724	0.131120	9.786544	0.015336	0.010874	-0.025269	-1.000000	0.000127	-0.000229	0.000014
07327	0.012151	0.131080	9.815494	0.010576	0.010557	0.003678	-1.000000	0.000127	-0.000216	0.000012
07328	0.019917	0.102039	9.787104	0.018251	-0.018199	-0.025065	-1.000000	0.000120	-0.000219	0.000010
07329	-0.016831	0.127767	9.811027	-0.018675	0.007167	-0.000835	-1.000000	0.000120	-0.000198	0.000000
07330	0.016263	0.131215	9.786543	0.014326	0.010918	-0.025267	-1.000000	0.000120	-0.000209	0.000014
07331	0.011453	0.131329	9.815492	0.009563	0.010601	0.003679	-1.000000	0.000112	-0.000204	0.000019
07332	0.014724	0.102241	9.816052	0.012734	-0.018483	0.003882	-1.000000	0.000121	-0.000198	0.000010
07333	-0.013172	0.127902	9.782074	-0.015179	0.007538	-0.029783	-1.000000	0.000107	-0.000201	0.000007
07334	0.015264	0.131514	9.786541	0.013315	0.010963	-0.025266	-1.000000	0.000108	-0.000204	0.000006
07335	-0.013708	0.128048	9.782072	-0.015685	0.007560	-0.029784	-1.000000	0.000107	-0.000199	0.000012
07336	0.048065	0.134886	9.762065	0.046064	0.014730	-0.049692	-1.000000	0.000117	-0.000201	0.000003
07337	-0.014230	0.127960	9.782072	-0.016188	0.007581	-0.029784	-1.000000	0.000110	-0.000204	0.000000
07338	0.009625	0.131535	9.815491	0.007793	0.010679	0.003681	-1.000000	0.000110	-0.000214	0.000014
07339	0.013905	0.131518	9.786543	0.012051	0.011017	-0.025264	-1.000000	0.000110	-0.000201	0.000012
07340	-0.019430	0.128159	9.811017	-0.021457	0.007283	-0.000841	-1.000000	0.000102	-0.000197	0.000017
07341	0.042269	0.135005	9.791018	0.040290	0.014456	-0.020741	-1.000000	0.000118	-0.000206	0.000016
07342	-0.020097	0.127930	9.811018	-0.021962	0.007303	-0.000842	-1.000000	0.000119	-0.000209	0.000022
07343	0.008419	0.131409	9.815494	0.006527	0.010730	0.003682	-1.000000	0.000119	-0.000203	0.000019
07344	0.011622	0.102324	9.816055	0.009705	-0.018353	0.003886	-1.000000	0.000119	-0.000206	0.000025
07345	0.012324	0.131394	9.786547	0.010541	0.011080	-0.025263	-1.000000	0.000119	-0.000216	0.000038
07346	0.015375	0.102375	9.787108	0.013721	-0.018003	-0.025058	-1.000000	0.000113	-0.000219	0.000028
07347	0.011640	0.131515	9.786546	0.010037	0.011102	-0.025262	-1.000000	0.000115	-0.000222	0.000011
07348	0.007978	0.160672	9.785983	0.006355	0.040208	-0.025467	-1.000000	0.000107	-0.000217	0.000016
07349	-0.018568	0.099061	9.811574	-0.020299	-0.021722	-0.000641	-1.000000	0.000114	-0.000211	0.000031
07350	0.011028	0.131613	9.786545	0.009282	0.011136	-0.025262	-1.000000	0.000108	-0.000215	0.000028
07351	0.009645	0.102544	9.816055	0.007937	-0.018277	0.003888	-1.000000	0.000116	-0.000216	0.000027
07352	0.010432	0.131521	9.786547	0.008777	0.011159	-0.025261	-1.000000	0.000118	-0.000219	0.000018
07353	0.006699	0.160530	9.785986	0.005089	0.040263	-0.025466	-1.000000	0.000125	-0.000221	0.000024
07354	-0.018829	0.127889	9.782065	-0.020469	0.007755	-0.029793	-1.000000	0.000126	-0.000216	0.000022
07355	0.008602	0.102306	9.816059	0.006927	-0.018233	0.003889	-1.000000	0.000127	-0.000218	0.000020
07356	-0.019278	0.127817	9.782065	-0.020974	0.007776	-0.029794	-1.000000	0.000134	-0.000213	0.000027
07357	0.005798	0.160393	9.785989	0.004077	0.040307	-0.025466	-1.000000	0.000127	-0.000216	0.000024
07358	0.036658	0.105866	9.820546	0.034912	-0.014772	0.008424	-1.000000	0.000121	-0.000211	0.000014
07359	0.004174	0.131534	9.815495	0.002481	0.010906	0.003683	-1.000000	0.000122	-0.000221	0.000013
07360	0.011756	0.102483	9.787112	0.010197	-0.017846	-0.025053	-1.000000	0.000115	-0.000224	0.000010
07361	0.036752	0.135125	9.791038	0.035245	0.014686	-0.020722	-1.000000	0.000116	-0.000227	0.000008
07362	0.007786	0.131639	9.786548	0.006255	0.011269	-0.025259	-1.000000	0.000117	-0.000222	0.000006
07363	0.011149	0.102557	9.787112	0.009438	-0.017816	-0.025052	-1.000000	0.000116	-0.000209	0.000004
07364	0.031701	0.135076	9.819986	0.029955	0.014390	0.008223	-1.000000	0.000126	-0.000218	-0.000004
07365	0.010553	0.102465	9.787114	0.008934	-0.017794	-0.025052	-1.000000	0.000119	-0.000221	0.000001
07366	-0.001165	0.160748	9.814929	-0.002732	0.040075	0.003476	-1.000000	0.000119	-0.000224	0.000007
07367	0.038605	0.106104	9.791608	0.037169	-0.014341	-0.020510	-1.000000	0.000113	-0.000234	0.000004
07368	0.030250	0.135288	9.819988	0.028941	0.014435	0.008226	-1.000000	0.000113	-0.000237	0.000010
07369	0.005742	0.131768	9.786548	0.004484	0.011343	-0.025258	-1.000000	0.000114	-0.000239	0.000000
07370	0.029572	0.135267	9.819990	0.028435	0.014458	0.008227	-1.000000	0.000116	-0.000249	-0.000001
07371	0.000457	0.131767	9.815492	-0.000559	0.011036	0.003683	-1.000000	0.000117	-0.000252	-0.000003
07372	0.004759	0.131820	9.786548	0.003728	0.011378	-0.025258	-1.000000	0.000109	-0.000247	0.000002
07373	0.012587	0.102715	9.758170	0.011458	-0.017375	-0.053991	-1.000000	0.000117	-0.000242	0.000001
07374	0.000935	0.160915	9.785982	-0.000221	0.040493	-0.025466	-1.000000	0.000110	-0.000245	-0.000001
07375	0.031726	0.106251	9.820559	0.030611	-0.014578	0.008439	-1.000000	0.000118	-0.000247	-0.000003
07376	0.003857	0.131751	9.786549	0.002718	0.011421	-0.025258	-1.000000	0.000118	-0.000242	0.000003
07377	-0.000989	0.131856	9.815491	-0.002078	0.011099	0.003683	-1.000000	0.000111	-0.000252	0.000008
07378	0.003174	0.131821	9.786548	0.002213	0.011442	-0.025258	-1.000000	0.000120	-0.000254	-0.000001
07379	0.002878	0.131735	9.786550	0.001959	0.011453	-0.025258	-1.000000	0.000121	-0.000257	-0.000002
07380	0.002648	0.131802	9.786549	0.001709	0.011464	-0.025258	-1.000000	0.000115	-0.000252	-0.000012
07381	-0.002121	0.131831	9.815491	-0.003087	0.011144	0.003683	-1.000000	0.000122	-0.000254	0.000002
07382	0.030859	0.135233	9.791057	0.029943	0.014927	-0.020705	-1.000000	0.000123	-0.000257	0.000000
07383	0.000729	0.102668	9.816059	-0.000144	-0.017927	0.003892	-1.000000	0.000124	-0.000259	-0.000002
07384	0.030331	0.135226	9.791059	0.029437	0.014949	-0.020704	-1.000000	0.000124	-0.000254	-0.000004
07385	0.030181	0.135224	9.791059	0.029183	0.014958	-0.020703	-1.000000	0.000125	-0.000249	-0.000013
07386	-0.003403	0.131751	9.815492	-0.004351	0.011197	0.003682	-1.000000	0.000125	-0.000259	0.000000
07387	-0.003630	0.131749	9.815492	-0.004605	0.011206	0.003682	-1.000000	0.000126	-0.000246	-0.000017
07388	0.000836	0.131800	9.786549	-0.000306	0.011549	-0.025258	-1.000000	0.000119	-0.000242	-0.000012
07389	0.008534	0.102695	9.758174	0.007445	-0.017202	-0.053987	-1.000000	0.000127	-0.000251	-0.000006
07390	-0.004318	0.131836	9.815491	-0.005361	0.011239	0.003682	-1.000000	0.000119	-0.000247	-0.000000
07391	-0.007928	0.161000	9.814922	-0.009069	0.040339	0.003471	-1.000000	0.000120	-0.000242	-0.000010
07392	0.028653	0.135467	9.791060	0.027421	0.015036	-0.020698	-1.000000	0.000112	-0.000237	-0.000005
07393	0.003064	0.103027	9.787113	0.001889	-0.017491	-0.025047	-1.000000	0.000106	-0.000248	-0.000007
07394	0.023488	0.135698	9.820001	0.022362	0.014727	0.008242	-1.000000	0.000108	-0.000242	-0.000024
07395	-0.000922	0.132169	9.786544	-0.002069	0.011622	-0.025258	-1.000000	0.000107	-0.000245	-0.000011
07396	-0.001147	0.132111	9.786545	-0.002319	0.011633	-0.025258	-1.000000	0.000115	-0.000240	-0.000004
07397	-0.004830	0.161196	9.785976	-0.006033	0.040736	-0.025469	-1.000000	0.000109	-0.000242	-0.000014
07398	0.030593	0.106519	9.791631	0.029365	-0.013986	-0.020483	-1.000000	0.000117	-0.000237	-0.000015
07399	-0.006375	0.132056	9.815487	-0.007641	0.011333	0.003680	-1.000000	0.000117	-0.000239	-0.000010
07400	-0.006604	0.132066	9.815486	-0.007892	0.011344	0.003680	-1.000000	0.000117	-0.000234	-0.000004
07401	-0.002281	0.132120	9.786545	-0.003588	0.011686	-0.025258	-1.000000	0.000110	-0.000237	-0.000006
07402	0.026221	0.135699	9.791064	0.024894	0.015149	-0.020691	-1.000000	0.000110	-0.000232	-0.000008
07403	0.000645	0.103169	9.787112	-0.000633	-0.017384	-0.025047	-1.000000	0.000104	-0.000242	-0.000018
07404	-0.003124	0.132386	9.786541	-0.004345	0.011718	-0.025259	-1.000000	0.000098	-0.000238	-0.000029
07405	0.020818	0.135997	9.820003	0.019572	0.014849	0.008248	-1.000000	0.000098	-0.000240	-0.000015
07406	-0.003658	0.132470	9.786539	-0.004848	0.011740	-0.025259	-1.000000	0.000098	-0.000243	-0.000017
07407	0.024771	0.135979	9.791064	0.023630	0.015203	-0.020688	-1.000000	0.000099	-0.000245	-0.000011
07408	-0.004112	0.132472	9.786539	-0.005352	0.011761	-0.025259	-1.000000	0.000099	-0.000245	-0.000011
07409	-0.000803	0.103452	9.787109	-0.001891	-0.017332	-0.025047	-1.000000	0.000092	-0.000248	-0.000021
07410	0.019752	0.136076	9.820004	0.018560	0.014892	0.008250	-1.000000	0.000099	-0.000235	-0.000015
07411	-0.004567	0.132486	9.786539	-0.005860	0.011779	-0.025260	-1.000000	0.000099	-0.000238	-0.000002
07412	-0.001326	0.103342	9.787110	-0.002645	-0.017300	-0.025047	-1.000000	0.000106	-0.000232	0.000005
07413	0.023782	0.136024	9.791066	0.022364	0.015258	-0.020685	-1.000000	0.000092	-0.000228	0.000002
07414	-0.005114	0.132736	9.786535	-0.006617	0.011813	-0.025260	-1.000000	0.000085	-0.000223	-0.000001
07415	0.026928	0.107242	9.791634	0.025326	-0.013812	-0.020471	-1.000000	0.000085	-0.000218	-0.000003
07416	-0.001949	0.103656	9.787107	-0.003654	-0.017258	-0.025047	-1.000000	0.000093	-0.000212	-0.000004
07417	0.023017	0.136176	9.791065	0.021358	0.015301	-0.020683	-1.000000	0.000094	-0.000223	-0.000006
07418	0.030822	0.107133	9.762698	0.029147	-0.013444	-0.049405	-1.000000	0.000087	-0.000210	-0.000016
07419	-0.010667	0.132836	9.815472	-0.012451	0.011531	0.003675	-1.000000	0.000087	-0.000213	-0.000002
07420	-0.006412	0.132965	9.786531	-0.008130	0.011875	-0.025261	-1.000000	0.000072	-0.000216	-0.000005
07421	-0.002225	0.133015	9.757592	-0.003807	0.012217	-0.054197	-1.000000	0.000080	-0.000226	0.000009
07422	-0.011736	0.132986	9.815469	-0.013205	0.011563	0.003674	-1.000000	0.000082	-0.000229	-0.000001
07423	0.020160	0.107476	9.820576	0.018740	-0.014055	0.008469	-1.000000	0.000075	-0.000231	-0.000011
07424	0.024501	0.107518	9.791638	0.023065	-0.013710	-0.020466	-1.000000	0.000076	-0.000226	-0.000013
07425	-0.012503	0.133188	9.815465	-0.013970	0.011593	0.003673	-1.000000	0.000068	-0.000229	-0.000008
07426	-0.008304	0.133084	9.786528	-0.009644	0.011938	-0.025263	-1.000000	0.000085	-0.000238	-0.000008
07427	-0.009702	0.103949	9.816040	-0.011003	-0.017476	0.003886	-1.000000	0.000077	-0.000234	-0.000003
07428	0.015399	0.136569	9.820005	0.013999	0.015090	0.008257	-1.000000	0.000085	-0.000228	0.000003
07429	-0.008981	0.133021	9.786528	-0.010408	0.011969	-0.025264	-1.000000	0.000078	-0.000231	-0.000006
07430	0.018411	0.107631	9.820578	0.016964	-0.013976	0.008473	-1.000000	0.000071	-0.000226	-0.000001
07431	-0.004867	0.133148	9.757589	-0.006328	0.012323	-0.054199	-1.000000	0.000079	-0.000228	-0.000003
07432	0.018987	0.136615	9.791068	0.017567	0.015468	-0.020676	-1.000000	0.000080	-0.000231	-0.000005
07433	0.017659	0.107560	9.820580	0.016205	-0.013944	0.008474	-1.000000	0.000080	-0.000226	0.000001
07434	-0.005541	0.133080	9.757589	-0.007083	0.012357	-0.054199	-1.000000	0.000080	-0.000221	-0.000001
07435	0.017430	0.107577	9.820580	0.015700	-0.013922	0.008475	-1.000000	0.000080	-0.000208	-0.000002
07436	0.021786	0.107483	9.791644	0.020034	-0.013576	-0.020459	-1.000000	0.000088	-0.000218	0.000004
07437	0.018001	0.136641	9.791070	0.016300	0.015523	-0.020674	-1.000000	0.000074	-0.000213	0.000001
07438	-0.010886	0.133266	9.786523	-0.012677	0.012065	-0.025266	-1.000000	0.000074	-0.000208	-0.000001
07439	0.017613	0.136798	9.791068	0.015793	0.015545	-0.020673	-1.000000	0.000074	-0.000211	0.000005
07440	0.012803	0.136826	9.820005	0.010955	0.015223	0.008261	-1.000000	0.000075	-0.000206	0.000003
07441	-0.011637	0.133193	9.786523	-0.013435	0.012095	-0.025267	-1.000000	0.000084	-0.000215	0.000002
07442	0.020343	0.107643	9.791646	0.018521	-0.013510	-0.020456	-1.000000	0.000075	-0.000203	0.000007
07443	0.012049	0.136761	9.820007	0.010196	0.015253	0.008262	-1.000000	0.000084	-0.000213	0.000013
07444	-0.012387	0.133064	9.786524	-0.014189	0.012126	-0.025269	-1.000000	0.000091	-0.000207	0.000019
07445	0.015081	0.107612	9.820584	0.013173	-0.013813	0.008479	-1.000000	0.000077	-0.000203	0.000009
07446	0.019507	0.107741	9.791646	0.017514	-0.013467	-0.020454	-1.000000	0.000077	-0.000198	0.000015
07447	0.015869	0.136833	9.791071	0.013779	0.015632	-0.020670	-1.000000	0.000077	-0.000193	0.000013
07448	-0.013078	0.133224	9.786521	-0.015196	0.012169	-0.025270	-1.000000	0.000086	-0.000195	0.000011
07449	0.015346	0.136751	9.791072	0.013271	0.015654	-0.020669	-1.000000	0.000079	-0.000198	0.000009
07450	0.039099	0.140385	9.824560	0.037149	0.018808	0.012865	-1.000000	0.000079	-0.000208	0.000022
07451	0.014737	0.136826	9.791072	0.012766	0.015676	-0.020669	-1.000000	0.000080	-0.000195	0.000005
07452	-0.015168	0.104296	9.816030	-0.017317	-0.017213	0.003878	-1.000000	0.000073	-0.000190	-0.000005
07453	0.013254	0.107830	9.820584	0.011152	-0.013726	0.008481	-1.000000	0.000081	-0.000200	0.000009
07454	0.013982	0.136823	9.791074	0.012011	0.015709	-0.020668	-1.000000	0.000081	-0.000203	0.000015
07455	0.012577	0.107764	9.820585	0.010645	-0.013704	0.008482	-1.000000	0.000082	-0.000205	0.000013
07456	0.009887	0.165906	9.790497	0.008015	0.044818	-0.020885	-1.000000	0.000082	-0.000208	0.000019
07457	0.016642	0.107740	9.791652	0.014740	-0.013347	-0.020449	-1.000000	0.000083	-0.000203	0.000009
07458	-0.020469	0.133306	9.815450	-0.022323	0.011936	0.003657	-1.000000	0.000084	-0.000213	0.000023
07459	0.012473	0.136812	9.791076	0.010744	0.015762	-0.020666	-1.000000	0.000086	-0.000215	0.000005
07460	0.015885	0.107805	9.791652	0.013985	-0.013313	-0.020448	-1.000000	0.000077	-0.000195	0.000011
07461	-0.016409	0.133366	9.786514	-0.018481	0.012302	-0.025276	-1.000000	0.000085	-0.000197	0.000017
07462	0.040658	0.140444	9.795637	0.038711	0.019280	-0.016055	-1.000000	0.000079	-0.000208	0.000014
07463	-0.013672	0.104343	9.787090	-0.015492	-0.016764	-0.025058	-1.000000	0.000079	-0.000211	0.000013
07464	0.040046	0.140588	9.795637	0.038206	0.019304	-0.016053	-1.000000	0.000072	-0.000206	0.000018
07465	-0.014055	0.104429	9.787089	-0.015995	-0.016743	-0.025059	-1.000000	0.000080	-0.000200	0.000017
07466	0.010944	0.137059	9.791074	0.008980	0.015841	-0.020665	-1.000000	0.000072	-0.000204	0.000022
07467	0.018736	0.108029	9.762719	0.016830	-0.012902	-0.049376	-1.000000	0.000073	-0.000206	0.000020
07468	0.013831	0.108058	9.791653	0.011973	-0.013225	-0.020445	-1.000000	0.000073	-0.000209	0.000033
07469	0.013600	0.108136	9.791652	0.011719	-0.013215	-0.020445	-1.000000	0.000066	-0.000204	0.000023
07470	0.009866	0.137365	9.791071	0.007972	0.015884	-0.020664	-1.000000	0.000059	-0.000207	0.000028
07471	0.009634	0.137450	9.791070	0.007717	0.015893	-0.020664	-1.000000	0.000059	-0.000202	0.000034
07472	-0.015734	0.104750	9.787083	-0.017755	-0.016670	-0.025062	-1.000000	0.000067	-0.000196	0.000025
07473	0.012911	0.108299	9.791651	0.010711	-0.013170	-0.020443	-1.000000	0.000060	-0.000184	0.000023
07474	0.000046	0.137434	9.848936	-0.002263	0.015256	0.037196	-1.000000	0.000068	-0.000186	0.000029
07475	0.045786	0.111773	9.767290	0.043540	-0.009321	-0.044752	-1.000000	0.000067	-0.000189	0.000043
07476	0.008583	0.137260	9.791074	0.006458	0.015950	-0.020663	-1.000000	0.000075	-0.000199	0.000049
07477	-0.020438	0.133708	9.786502	-0.022517	0.012468	-0.025285	-1.000000	0.000068	-0.000194	0.000046
07478	0.035669	0.111751	9.825159	0.033555	-0.009959	0.013109	-1.000000	0.000077	-0.000196	0.000045
07479	0.007832	0.137188	9.791075	0.005693	0.015981	-0.020663	-1.000000	0.000076	-0.000191	0.000051
07480	0.011035	0.108107	9.791656	0.008945	-0.013093	-0.020442	-1.000000	0.000078	-0.000201	0.000049
07481	0.015341	0.108154	9.762724	0.013309	-0.012747	-0.049370	-1.000000	0.000071	-0.000196	0.000047
07482	0.031102	0.140836	9.824582	0.029037	0.019173	0.012892	-1.000000	0.000078	-0.000198	0.000053
07483	-0.018293	0.104645	9.787079	-0.020530	-0.016555	-0.025067	-1.000000	0.000070	-0.000178	0.000058
07484	0.038992	0.111758	9.796232	0.036654	-0.009553	-0.015814	-1.000000	0.000079	-0.000188	0.000049
07485	0.006391	0.137267	9.791075	0.004178	0.016047	-0.020662	-1.000000	0.000073	-0.000191	0.000047
07486	0.009598	0.108180	9.791656	0.007433	-0.013027	-0.020440	-1.000000	0.000081	-0.000193	0.000046
07487	0.001177	0.137201	9.820008	0.000271	0.015433	0.008267	-1.000000	0.000067	-0.000257	0.000027
07488	0.008930	0.108015	9.791659	0.008148	-0.013303	-0.020441	-1.000000	0.000076	-0.000267	0.000026
07489	0.000355	0.137032	9.820010	-0.000232	0.015453	0.008267	-1.000000	0.000076	-0.000278	0.000033
07490	0.008184	0.107920	9.791660	0.007647	-0.013283	-0.020441	-1.000000	0.000078	-0.000272	0.000015
07491	0.009147	0.136903	9.762151	0.008505	0.016150	-0.049589	-1.000000	0.000085	-0.000267	0.000022
07492	0.003267	0.107865	9.820592	0.002521	-0.013600	0.008488	-1.000000	0.000079	-0.000262	0.000012
07493	-0.024569	0.133376	9.786497	-0.025336	0.012332	-0.025291	-1.000000	0.000085	-0.000264	0.000033
07494	0.003847	0.136873	9.791082	0.003131	0.015844	-0.020661	-1.000000	0.000086	-0.000267	0.000032
07495	0.032257	0.140502	9.795667	0.031592	0.019355	-0.016030	-1.000000	0.000079	-0.000270	0.000029
07496	-0.025475	0.133374	9.786495	-0.026089	0.012362	-0.025293	-1.000000	0.000088	-0.000272	0.000028
07497	0.006378	0.107851	9.791663	0.005884	-0.013213	-0.020439	-1.000000	0.000081	-0.000283	0.000034
07498	0.031271	0.140568	9.795669	0.030837	0.019387	-0.016027	-1.000000	0.000081	-0.000278	0.000032
07499	0.010621	0.107914	9.762733	0.010008	-0.012852	-0.049366	-1.000000	0.000081	-0.000265	0.000030
07500	-0.002307	0.137183	9.820008	-0.003011	0.015567	0.008266	-1.000000	0.000067	-0.000268	0.000027
07501	0.006564	0.137214	9.762148	0.005994	0.016255	-0.049588	-1.000000	0.000075	-0.000278	0.000033
07502	0.030274	0.140794	9.795669	0.029829	0.019434	-0.016024	-1.000000	0.000068	-0.000281	0.000030
07503	0.000292	0.108252	9.820588	-0.000254	-0.013485	0.008488	-1.000000	0.000068	-0.000268	0.000036
07504	0.001175	0.137316	9.791077	0.000611	0.015949	-0.020661	-1.000000	0.000069	-0.000279	0.000034
07505	0.033027	0.111874	9.796252	0.032588	-0.009616	-0.015799	-1.000000	0.000062	-0.000282	0.000039
07506	-0.004069	0.137484	9.820003	-0.004525	0.015634	0.008265	-1.000000	0.000062	-0.000277	0.000037
07507	0.008489	0.108352	9.762730	0.008004	-0.012762	-0.049364	-1.000000	0.000064	-0.000279	0.000019
07508	0.000038	0.137433	9.791075	-0.000397	0.015994	-0.020661	-1.000000	0.000065	-0.000281	0.000017
07509	0.028520	0.141074	9.795671	0.028061	0.019514	-0.016019	-1.000000	0.000058	-0.000277	0.000015
07510	0.003101	0.108431	9.791658	0.002618	-0.013069	-0.020438	-1.000000	0.000066	-0.000279	0.000021
07511	0.027994	0.141011	9.795673	0.027558	0.019536	-0.016018	-1.000000	0.000066	-0.000281	0.000027
07512	-0.021576	0.104778	9.758132	-0.021959	-0.016220	-0.054007	-1.000000	0.000066	-0.000284	0.000033
07513	0.027308	0.141088	9.795674	0.027053	0.019559	-0.016016	-1.000000	0.000060	-0.000295	0.000030
07514	-0.001558	0.137581	9.791073	-0.001909	0.016058	-0.020661	-1.000000	0.000061	-0.000274	0.000013
07515	-0.002818	0.108445	9.820586	-0.003280	-0.013355	0.008488	-1.000000	0.000069	-0.000284	0.000019
07516	0.001448	0.108347	9.791659	0.001110	-0.013005	-0.020437	-1.000000	0.000070	-0.000286	0.000017
07517	-0.002234	0.137508	9.791074	-0.002666	0.016089	-0.020661	-1.000000	0.000062	-0.000274	0.000022
07518	0.029845	0.112093	9.796260	0.029320	-0.009468	-0.015789	-1.000000	0.000062	-0.000277	0.000028
07519	0.026021	0.141097	9.795677	0.025544	0.019626	-0.016012	-1.000000	0.000070	-0.000279	0.000027
07520	0.000465	0.108359	9.791659	0.000108	-0.012961	-0.020437	-1.000000	0.000072	-0.000289	0.000025
07521	-0.003361	0.137374	9.791075	-0.003670	0.016133	-0.020662	-1.000000	0.000078	-0.000284	0.000046
07522	-0.008235	0.137414	9.820001	-0.008564	0.015805	0.008262	-1.000000	0.000071	-0.000287	0.000051
07523	0.028343	0.111959	9.796266	0.028063	-0.009412	-0.015785	-1.000000	0.000073	-0.000289	0.000034
07524	0.024662	0.141039	9.795681	0.024286	0.019683	-0.016009	-1.000000	0.000071	-0.000277	0.000047
07525	0.004049	0.108379	9.762732	0.003496	-0.012569	-0.049361	-1.000000	0.000072	-0.000271	0.000038
07526	-0.004428	0.137468	9.791073	-0.004929	0.016186	-0.020662	-1.000000	0.000073	-0.000282	0.000044
07527	0.032084	0.111942	9.767343	0.031704	-0.009027	-0.044706	-1.000000	0.000074	-0.000284	0.000034
07528	-0.000387	0.137512	9.762146	-0.000784	0.016547	-0.049586	-1.000000	0.000067	-0.000280	0.000039
07529	0.023367	0.141191	9.795682	0.023023	0.019737	-0.016006	-1.000000	0.000067	-0.000290	0.000045
07530	0.030051	0.083113	9.796855	0.029834	-0.038416	-0.015555	-1.000000	0.000060	-0.000293	0.000050
07531	0.018028	0.141348	9.824607	0.017867	0.019419	0.012918	-1.000000	0.000062	-0.000295	0.000033
07532	0.005609	0.079651	9.763316	0.005275	-0.041576	-0.049135	-1.000000	0.000053	-0.000275	0.000038
07533	0.022446	0.141415	9.795681	0.022014	0.019781	-0.016004	-1.000000	0.000062	-0.000285	0.000037
07534	0.030256	0.112316	9.767344	0.029950	-0.008949	-0.044701	-1.000000	0.000055	-0.000288	0.000042
07535	-0.002294	0.137882	9.762141	-0.002544	0.016622	-0.049587	-1.000000	0.000056	-0.000291	0.000039
07536	-0.007327	0.137964	9.791065	-0.007448	0.016293	-0.020664	-1.000000	0.000050	-0.000301	0.000037
07537	-0.004022	0.108960	9.791652	-0.004168	-0.012779	-0.020438	-1.000000	0.000050	-0.000289	0.000035
07538	0.020992	0.141706	9.795680	0.020755	0.019840	-0.016002	-1.000000	0.000042	-0.000292	0.000040
07539	-0.009141	0.109136	9.820574	-0.009327	-0.013098	0.008484	-1.000000	0.000043	-0.000294	0.000038
07540	-0.008395	0.138115	9.791062	-0.008455	0.016336	-0.020665	-1.000000	0.000051	-0.000304	0.000044
07541	0.044060	0.145296	9.829228	0.044048	0.023059	0.017587	-1.000000	0.000045	-0.000299	0.000027
07542	-0.000726	0.109068	9.762725	-0.000762	-0.012384	-0.049361	-1.000000	0.000046	-0.000302	0.000025
07543	0.014821	0.141763	9.824607	0.014835	0.019555	0.012923	-1.000000	0.000047	-0.000304	0.000023
07544	-0.009453	0.138161	9.791060	-0.009462	0.016379	-0.020666	-1.000000	0.000047	-0.000299	0.000028
07545	0.018956	0.141669	9.795685	0.018991	0.019918	-0.015998	-1.000000	0.000056	-0.000309	0.000020
07546	-0.015831	0.108965	9.849498	-0.015750	-0.013364	0.037404	-1.000000	0.000056	-0.000304	0.000033
07547	0.020921	0.083557	9.825787	0.020907	-0.038565	0.013380	-1.000000	0.000048	-0.000300	0.000038
07548	0.018269	0.141758	9.795685	0.018240	0.019951	-0.015997	-1.000000	0.000050	-0.000302	0.000021
07549	0.021516	0.112595	9.796276	0.021527	-0.009121	-0.015768	-1.000000	0.000058	-0.000304	0.000028
07550	0.021218	0.112521	9.796278	0.021277	-0.009109	-0.015768	-1.000000	0.000059	-0.000307	0.000026
07551	0.017447	0.141602	9.795689	0.017481	0.019982	-0.015996	-1.000000	0.000058	-0.000302	0.000032
07552	-0.007945	0.109012	9.791649	-0.007931	-0.012621	-0.020440	-1.000000	0.000052	-0.000305	0.000029
07553	-0.011796	0.138156	9.791058	-0.011729	0.016469	-0.020669	-1.000000	0.000052	-0.000307	0.000027
07554	0.020229	0.112660	9.796278	0.020270	-0.009066	-0.015766	-1.000000	0.000054	-0.000302	0.000010
07555	-0.008701	0.109065	9.791647	-0.008688	-0.012591	-0.020441	-1.000000	0.000054	-0.000304	0.000023
07556	0.015110	0.112619	9.825202	0.015098	-0.009385	0.013156	-1.000000	0.000061	-0.000299	0.000030
07557	0.016006	0.141676	9.795690	0.015967	0.020046	-0.015993	-1.000000	0.000055	-0.000302	0.000020
07558	0.023987	0.112736	9.767357	0.023934	-0.008681	-0.044684	-1.000000	0.000046	-0.000297	0.000033
07559	-0.009541	0.109178	9.791645	-0.009695	-0.012550	-0.020442	-1.000000	0.000054	-0.000292	0.000039
07560	0.015384	0.141867	9.795688	0.015212	0.020079	-0.015992	-1.000000	0.000046	-0.000295	0.000052
07561	-0.013550	0.138341	9.791053	-0.013745	0.016553	-0.020672	-1.000000	0.000048	-0.000290	0.000034
07562	0.017351	0.083875	9.825792	0.017131	-0.038400	0.013388	-1.000000	0.000040	-0.000293	0.000039
07563	0.014616	0.142081	9.795687	0.014456	0.020113	-0.015991	-1.000000	0.000041	-0.000295	0.000038
07564	0.017858	0.113137	9.796277	0.017755	-0.008955	-0.015761	-1.000000	0.000028	-0.000299	0.000019
07565	0.009331	0.142218	9.824607	0.009277	0.019794	0.012929	-1.000000	0.000043	-0.000300	0.000026
07566	-0.011441	0.109450	9.791640	-0.011449	-0.012474	-0.020443	-1.000000	0.000037	-0.000303	0.000024
07567	-0.015221	0.138529	9.791048	-0.015253	0.016617	-0.020674	-1.000000	0.000044	-0.000298	0.000030
07568	0.012138	0.112929	9.825203	0.012072	-0.009251	0.013160	-1.000000	0.000053	-0.000300	0.000029
07569	0.013041	0.141904	9.795691	0.012943	0.020181	-0.015989	-1.000000	0.000054	-0.000295	0.000019
07570	0.011614	0.112846	9.825204	0.011566	-0.009230	0.013161	-1.000000	0.000054	-0.000305	0.000032
07571	-0.016341	0.138302	9.791049	-0.016263	0.016659	-0.020676	-1.000000	0.000055	-0.000308	0.000030
07572	0.012271	0.142130	9.795689	0.012188	0.020214	-0.015988	-1.000000	0.000032	-0.000289	0.000019
07573	0.010914	0.113146	9.825202	0.010807	-0.009199	0.013162	-1.000000	0.000048	-0.000305	0.000026
07574	0.006909	0.142137	9.824610	0.007002	0.019892	0.012931	-1.000000	0.000042	-0.000309	0.000024
07575	0.011365	0.142118	9.795690	0.011430	0.020243	-0.015987	-1.000000	0.000049	-0.000303	0.000023
07576	0.014775	0.112973	9.796284	0.014736	-0.008824	-0.015756	-1.000000	0.000050	-0.000298	0.000021
07577	0.039616	0.145654	9.800339	0.039627	0.023812	-0.011295	-1.000000	0.000050	-0.000308	0.000027
07578	0.014173	0.112961	9.796285	0.014233	-0.008803	-0.015755	-1.000000	0.000052	-0.000303	0.000009
07579	0.013947	0.112960	9.796286	0.013978	-0.008793	-0.015754	-1.000000	0.000052	-0.000305	0.000023
07580	0.008886	0.112909	9.825206	0.009041	-0.009124	0.013163	-1.000000	0.000060	-0.000315	0.000029
07581	0.013196	0.112889	9.796288	0.013477	-0.008771	-0.015754	-1.000000	0.000053	-0.000318	0.000027
07582	0.012886	0.113031	9.796286	0.013227	-0.008760	-0.015753	-1.000000	0.000047	-0.000321	0.000024
07583	0.012580	0.113106	9.796286	0.012976	-0.008750	-0.015753	-1.000000	0.000047	-0.000324	0.000030
07584	0.008795	0.142109	9.795693	0.009166	0.020340	-0.015985	-1.000000	0.000055	-0.000318	0.000029
07585	-0.016558	0.109268	9.791635	-0.016226	-0.012280	-0.020450	-1.000000	0.000064	-0.000320	0.000020
07586	0.011769	0.112801	9.796290	0.012223	-0.008717	-0.015752	-1.000000	0.000064	-0.000331	0.000033
07587	0.036675	0.145498	9.800353	0.037107	0.023924	-0.011285	-1.000000	0.000064	-0.000318	0.000031
07588	-0.012544	0.109259	9.762715	-0.012285	-0.011906	-0.049368	-1.000000	0.000057	-0.000313	0.000021
07589	0.002896	0.142044	9.824614	0.003209	0.020050	0.012932	-1.000000	0.000058	-0.000323	0.000027
07590	0.010774	0.113019	9.796289	0.011216	-0.008673	-0.015751	-1.000000	0.000052	-0.000326	0.000017
07591	0.006825	0.142224	9.795693	0.007399	0.020415	-0.015984	-1.000000	0.000046	-0.000337	0.000014
07592	0.010089	0.113145	9.796288	0.010713	-0.008652	-0.015750	-1.000000	0.000054	-0.000331	0.000013
07593	0.038558	0.116772	9.800949	0.039157	-0.005086	-0.011046	-1.000000	0.000046	-0.000335	0.000026
07594	-0.018005	0.138597	9.762114	-0.017355	0.017235	-0.049603	-1.000000	0.000055	-0.000337	0.000017
07595	0.009413	0.113079	9.796290	0.009957	-0.008621	-0.015749	-1.000000	0.000055	-0.000324	0.000015
07596	0.034462	0.145844	9.800356	0.034838	0.024026	-0.011277	-1.000000	0.000048	-0.000319	0.000005
07597	0.009031	0.113154	9.796289	0.009453	-0.008598	-0.015749	-1.000000	0.000056	-0.000329	0.000019
07598	0.008733	0.113086	9.796290	0.009204	-0.008587	-0.015749	-1.000000	0.000056	-0.000324	0.000017
07599	0.005012	0.142162	9.795695	0.005383	0.020501	-0.015982	-1.000000	0.000057	-0.000319	0.000015
07600	0.032348	0.116722	9.829873	0.032696	-0.005350	0.017876	-1.000000	0.000057	-0.000321	0.000013
07601	0.004558	0.142165	9.795695	0.004880	0.020521	-0.015982	-1.000000	0.000057	-0.000316	0.000019
07602	0.007974	0.113113	9.796291	0.008200	-0.008545	-0.015748	-1.000000	0.000056	-0.000311	0.000033
07603	-0.000531	0.142211	9.824612	-0.000328	0.020199	0.012933	-1.000000	0.000057	-0.000314	0.000031
07604	0.007365	0.113194	9.796290	0.007697	-0.008523	-0.015747	-1.000000	0.000050	-0.000325	0.000036
07605	0.011695	0.113175	9.767374	0.012149	-0.008169	-0.044662	-1.000000	0.000059	-0.000327	0.000035
07606	0.003113	0.142255	9.795694	0.003622	0.020576	-0.015982	-1.000000	0.000052	-0.000330	0.000032
07607	-0.022313	0.109633	9.791619	-0.021753	-0.012056	-0.020460	-1.000000	0.000052	-0.000332	0.000038
07608	0.031203	0.145873	9.800366	0.031813	0.024161	-0.011267	-1.000000	0.000061	-0.000334	0.000029
07609	0.005789	0.113084	9.796292	0.006440	-0.008471	-0.015746	-1.000000	0.000063	-0.000337	0.000020
07610	0.038889	0.116763	9.772050	0.039594	-0.004549	-0.039944	-1.000000	0.000055	-0.000340	0.000025
07611	0.001751	0.142307	9.795694	0.002364	0.020627	-0.015982	-1.000000	0.000055	-0.000327	0.000023
07612	0.006240	0.142224	9.766780	0.006825	0.020983	-0.044895	-1.000000	0.000064	-0.000337	0.000029
07613	-0.003487	0.142245	9.824610	-0.002852	0.020303	0.012932	-1.000000	0.000057	-0.000332	0.000019
07614	0.005784	0.142289	9.766779	0.006321	0.021004	-0.044895	-1.000000	0.000057	-0.000327	0.000017
07615	0.004421	0.113235	9.796291	0.004937	-0.008407	-0.015745	-1.000000	0.000058	-0.000330	0.000023
07616	0.029236	0.145867	9.800372	0.029803	0.024250	-0.011261	-1.000000	0.000066	-0.000332	0.000030
07617	0.003892	0.113240	9.796292	0.004433	-0.008385	-0.015745	-1.000000	0.000051	-0.000328	0.000019
07618	0.003581	0.113388	9.796290	0.004183	-0.008374	-0.015745	-1.000000	0.000051	-0.000338	0.000032
07619	-0.001434	0.113327	9.825205	-0.000786	-0.008709	0.013168	-1.000000	0.000060	-0.000333	0.000023
07620	0.007781	0.113218	9.767378	0.008397	-0.008007	-0.044657	-1.000000	0.000061	-0.000335	0.000021
07621	0.027874	0.145866	9.800376	0.028540	0.024306	-0.011258	-1.000000	0.000068	-0.000337	0.000035
07622	-0.002179	0.113118	9.825208	-0.001540	-0.008676	0.013168	-1.000000	0.000068	-0.000332	0.000041
07623	-0.001200	0.142260	9.795695	-0.000656	0.020756	-0.015982	-1.000000	0.000061	-0.000328	0.000039
07624	0.030848	0.116821	9.800976	0.031368	-0.004736	-0.011018	-1.000000	0.000069	-0.000330	0.000037
07625	0.001863	0.113095	9.796294	0.002419	-0.008299	-0.015744	-1.000000	0.000071	-0.000332	0.000020
07626	0.025605	0.116739	9.829892	0.026140	-0.005059	0.017895	-1.000000	0.000070	-0.000327	0.000034
07627	-0.002175	0.142162	9.795696	-0.001666	0.020797	-0.015982	-1.000000	0.000072	-0.000329	0.000016
07628	0.002169	0.142207	9.766782	0.002807	0.021155	-0.044894	-1.000000	0.000066	-0.000340	0.000022
07629	0.025832	0.145861	9.800382	0.026520	0.024393	-0.011252	-1.000000	0.000073	-0.000335	0.000028
07630	-0.004292	0.113023	9.825208	-0.003559	-0.008593	0.013167	-1.000000	0.000081	-0.000345	0.000034
07631	0.025238	0.145645	9.800387	0.026016	0.024416	-0.011251	-1.000000	0.000082	-0.000339	0.000033
07632	-0.008405	0.142017	9.824611	-0.007650	0.020504	0.012929	-1.000000	0.000083	-0.000342	0.000031
07633	0.036694	0.087423	9.772672	0.037411	-0.033367	-0.039684	-1.000000	0.000090	-0.000336	0.000037
07634	0.004120	0.112780	9.767385	0.004886	-0.007858	-0.044655	-1.000000	0.000091	-0.000347	0.000035
07635	0.019536	0.145497	9.829304	0.020280	0.024115	0.017663	-1.000000	0.000092	-0.000334	0.000018
07636	0.032505	0.116481	9.772076	0.033074	-0.004256	-0.039920	-1.000000	0.000085	-0.000329	0.000023
07637	-0.005871	0.112862	9.825209	-0.005327	-0.008519	0.013167	-1.000000	0.000094	-0.000331	0.000014
07638	0.032059	0.116399	9.772079	0.032571	-0.004234	-0.039918	-1.000000	0.000094	-0.000326	0.000012
07639	0.027176	0.116412	9.800991	0.027586	-0.004570	-0.011007	-1.000000	0.000094	-0.000321	0.000011
07640	0.023428	0.145560	9.800393	0.023746	0.024517	-0.011245	-1.000000	0.000087	-0.000316	0.000008
07641	-0.001820	0.112852	9.796297	-0.001606	-0.008130	-0.015744	-1.000000	0.000095	-0.000310	0.000007
07642	0.027782	0.145558	9.771481	0.027974	0.024886	-0.040154	-1.000000	0.000088	-0.000314	0.000012
07643	-0.002354	0.112931	9.796296	-0.002108	-0.008108	-0.015744	-1.000000	0.000089	-0.000316	0.000010
07644	-0.002653	0.112912	9.796296	-0.002357	-0.008096	-0.015744	-1.000000	0.000091	-0.000319	-0.000007
07645	0.025665	0.116457	9.800995	0.026079	-0.004503	-0.011003	-1.000000	0.000100	-0.000328	-0.000008
07646	0.001342	0.112726	9.767386	0.001877	-0.007729	-0.044654	-1.000000	0.000100	-0.000331	-0.000002
07647	0.016737	0.145388	9.829311	0.017244	0.024247	0.017668	-1.000000	0.000108	-0.000325	-0.000004
07648	-0.003840	0.112595	9.796299	-0.003362	-0.008055	-0.015744	-1.000000	0.000108	-0.000328	0.000002
07649	-0.008885	0.112673	9.825209	-0.008353	-0.008393	0.013165	-1.000000	0.000102	-0.000331	-0.000008
07650	0.020646	0.145359	9.800402	0.021226	0.024627	-0.011240	-1.000000	0.000111	-0.000333	-0.000017
07651	-0.009483	0.112579	9.825210	-0.008856	-0.008371	0.013164	-1.000000	0.000111	-0.000336	-0.000004
07652	-0.008711	0.141560	9.795701	-0.007964	0.021062	-0.015985	-1.000000	0.000120	-0.000345	-0.000012
07653	0.014926	0.145277	9.829316	0.015730	0.024312	0.017670	-1.000000	0.000106	-0.000341	-0.000015
07654	0.027699	0.116340	9.772093	0.028560	-0.004055	-0.039905	-1.000000	0.000106	-0.000352	-0.000010
07655	-0.009632	0.141776	9.795697	-0.008721	0.021091	-0.015986	-1.000000	0.000106	-0.000346	-0.000004
07656	0.014149	0.145523	9.829313	0.014972	0.024346	0.017672	-1.000000	0.000098	-0.000342	0.000001
07657	0.027008	0.116516	9.772093	0.027803	-0.004023	-0.039903	-1.000000	0.000099	-0.000344	-0.000001
07658	-0.010249	0.141942	9.795694	-0.009476	0.021123	-0.015987	-1.000000	0.000099	-0.000339	-0.000003
07659	0.021738	0.116449	9.801005	0.022557	-0.004349	-0.010994	-1.000000	0.000108	-0.000349	0.000004
07660	-0.011847	0.112822	9.825204	-0.011123	-0.008277	0.013162	-1.000000	0.000099	-0.000329	0.000009
07661	0.017910	0.145467	9.800406	0.018453	0.024746	-0.011234	-1.000000	0.000116	-0.000331	0.000001
07662	0.026046	0.116234	9.772099	0.026553	-0.003968	-0.039900	-1.000000	0.000116	-0.000326	-0.000001
07663	-0.007614	0.112594	9.796297	-0.007132	-0.007901	-0.015746	-1.000000	0.000116	-0.000328	0.000005
07664	0.020767	0.116247	9.801009	0.021303	-0.004295	-0.010991	-1.000000	0.000117	-0.000331	0.000003
07665	-0.006924	0.141669	9.766787	-0.006490	0.021541	-0.044896	-1.000000	0.000116	-0.000318	0.000016
07666	0.016858	0.145279	9.800410	0.017194	0.024800	-0.011232	-1.000000	0.000124	-0.000320	0.000023
07667	0.024990	0.116202	9.772102	0.025296	-0.003914	-0.039896	-1.000000	0.000117	-0.000316	0.000012
07668	0.021303	0.145346	9.771501	0.021442	0.025171	-0.040138	-1.000000	0.000117	-0.000303	0.000011
07669	0.015253	0.116302	9.829919	0.015291	-0.004589	0.017918	-1.000000	0.000117	-0.000306	0.000016
07670	0.024456	0.116294	9.772102	0.024547	-0.003881	-0.039894	-1.000000	0.000117	-0.000308	0.000022
07671	-0.009282	0.112643	9.796295	-0.009141	-0.007818	-0.015748	-1.000000	0.000118	-0.000311	0.000020
07672	0.015562	0.145380	9.800411	0.015684	0.024865	-0.011230	-1.000000	0.000117	-0.000306	0.000034
07673	0.047626	0.119984	9.805729	0.047719	-0.000598	-0.006224	-1.000000	0.000118	-0.000308	0.000032
07674	-0.009894	0.112735	9.796293	-0.009895	-0.007786	-0.015749	-1.000000	0.000111	-0.000296	0.000022
07675	0.018483	0.116457	9.801011	0.018532	-0.004176	-0.010985	-1.000000	0.000113	-0.000314	0.000020
07676	0.018251	0.116536	9.801011	0.018283	-0.004164	-0.010985	-1.000000	0.000104	-0.000294	0.000025
07677	0.018178	0.116476	9.801011	0.018031	-0.004153	-0.010984	-1.000000	0.000120	-0.000296	0.000024
07678	-0.010799	0.112733	9.796292	-0.010900	-0.007744	-0.015750	-1.000000	0.000114	-0.000299	0.000022
07679	0.009277	0.145549	9.829318	0.009155	0.024593	0.017678	-1.000000	0.000113	-0.000294	0.000028
07680	0.021112	0.087418	9.801614	0.020889	-0.033191	-0.010739	-1.000000	0.000114	-0.000289	0.000026
07681	0.013726	0.145635	9.800410	0.013411	0.024964	-0.011227	-1.000000	0.000106	-0.000284	0.000031
07682	-0.006807	0.112907	9.767382	-0.007144	-0.007352	-0.044656	-1.000000	0.000114	-0.000286	0.000037
07683	0.016816	0.116493	9.801014	0.016521	-0.004086	-0.010982	-1.000000	0.000116	-0.000288	0.000020
07684	-0.015860	0.141951	9.795687	-0.016023	0.021391	-0.015996	-1.000000	0.000109	-0.000299	0.000025
07685	0.016064	0.116471	9.801015	0.016018	-0.004065	-0.010981	-1.000000	0.000125	-0.000301	0.000025
07686	0.012299	0.145473	9.800414	0.012153	0.025018	-0.011225	-1.000000	0.000117	-0.000289	0.000030
07687	0.020524	0.116484	9.772109	0.020281	-0.003693	-0.039885	-1.000000	0.000118	-0.000291	0.000028
07688	0.016755	0.145554	9.771507	0.016415	0.025390	-0.040129	-1.000000	0.000118	-0.000279	0.000026
07689	-0.009684	0.083837	9.796890	-0.010049	-0.036701	-0.015508	-1.000000	0.000111	-0.000289	0.000031
07690	0.016147	0.145622	9.771507	0.015913	0.025412	-0.040128	-1.000000	0.000120	-0.000291	0.000022
07691	0.011236	0.145538	9.800414	0.010892	0.025073	-0.011224	-1.000000	0.000121	-0.000278	0.000005
07692	-0.018672	0.112884	9.825193	-0.019188	-0.007946	0.013150	-1.000000	0.000113	-0.000274	0.000010
07693	0.014628	0.116476	9.801017	0.014008	-0.003977	-0.010978	-1.000000	0.000129	-0.000268	0.000002
07694	-0.013189	0.141638	9.766781	-0.013769	0.021844	-0.044904	-1.000000	0.000138	-0.000278	0.000009
07695	0.014043	0.116173	9.801022	0.013505	-0.003955	-0.010977	-1.000000	0.000138	-0.000272	0.000007
07696	-0.019633	0.112511	9.825195	-0.020195	-0.007906	0.013148	-1.000000	0.000138	-0.000275	0.000013
07697	0.014737	0.145244	9.771514	0.014154	0.025487	-0.040126	-1.000000	0.000139	-0.000270	0.000011
07698	0.013366	0.116113	9.801024	0.012753	-0.003922	-0.010976	-1.000000	0.000146	-0.000272	0.000017
07699	0.041894	0.119734	9.805759	0.041177	-0.000297	-0.006195	-1.000000	0.000145	-0.000260	0.000030
07700	0.014204	0.145274	9.771515	0.013402	0.025521	-0.040125	-1.000000	0.000132	-0.000263	0.000012
07701	-0.015997	0.112520	9.796288	-0.016681	-0.007504	-0.015758	-1.000000	0.000148	-0.000272	0.000019
07702	0.040989	0.119717	9.805763	0.040423	-0.000262	-0.006191	-1.000000	0.000149	-0.000275	0.000017
07703	-0.021442	0.112363	9.825193	-0.021961	-0.007834	0.013144	-1.000000	0.000150	-0.000277	0.000015
07704	0.016487	0.116026	9.772122	0.016022	-0.003505	-0.039877	-1.000000	0.000151	-0.000280	0.000014
07705	0.011407	0.116030	9.801027	0.010990	-0.003845	-0.010974	-1.000000	0.000151	-0.000282	0.000019
07706	0.007555	0.145087	9.800425	0.007114	0.025237	-0.011221	-1.000000	0.000153	-0.000277	0.000002
07707	0.006098	0.116087	9.829931	0.005708	-0.004174	0.017929	-1.000000	0.000146	-0.000288	0.000007
07708	0.006867	0.145219	9.800423	0.006611	0.025259	-0.011221	-1.000000	0.000147	-0.000291	0.000005
07709	0.010264	0.116226	9.801026	0.009984	-0.003802	-0.010973	-1.000000	0.000139	-0.000286	0.000003
07710	-0.013856	0.112543	9.767379	-0.014158	-0.007060	-0.044663	-1.000000	0.000148	-0.000288	0.000002
07711	0.033633	0.119826	9.834676	0.033374	-0.000508	0.022719	-1.000000	0.000149	-0.000290	-0.000000
07712	0.017853	0.087070	9.772728	0.017646	-0.032486	-0.039625	-1.000000	0.000150	-0.000293	-0.000002
07713	0.005658	0.145206	9.800424	0.005346	0.025313	-0.011220	-1.000000	0.000149	-0.000280	-0.000004
07714	0.013766	0.116213	9.772124	0.013512	-0.003394	-0.039873	-1.000000	0.000143	-0.000299	0.000001
07715	0.008453	0.116208	9.801028	0.008475	-0.003737	-0.010971	-1.000000	0.000151	-0.000308	0.000008
07716	0.009245	0.145042	9.771524	0.009381	0.025696	-0.040121	-1.000000	0.000167	-0.000310	0.000007
07717	0.012657	0.115902	9.772129	0.012760	-0.003363	-0.039872	-1.000000	0.000160	-0.000305	0.000005
07718	0.007712	0.115981	9.801031	0.007722	-0.003702	-0.010971	-1.000000	0.000161	-0.000300	0.000003
07719	0.007480	0.116060	9.801030	0.007469	-0.003692	-0.010970	-1.000000	0.000153	-0.000303	0.000008
07720	0.007178	0.116060	9.801031	0.007219	-0.003680	-0.010970	-1.000000	0.000162	-0.000305	0.000007
07721	-0.017000	0.112293	9.767377	-0.016918	-0.006946	-0.044668	-1.000000	0.000163	-0.000308	0.000005
07722	0.006805	0.115987	9.801032	0.006715	-0.003660	-0.010970	-1.000000	0.000162	-0.000288	0.000003
07723	-0.001769	0.144975	9.829331	-0.001965	0.025069	0.017681	-1.000000	0.000172	-0.000297	-0.000006
07724	0.006296	0.115682	9.801036	0.006214	-0.003638	-0.010970	-1.000000	0.000186	-0.000299	0.000009
07725	0.026385	0.148443	9.834089	0.026204	0.028718	0.022481	-1.000000	0.000172	-0.000287	-0.000002
07726	0.007140	0.144900	9.771528	0.006869	0.025804	-0.040119	-1.000000	0.000173	-0.000290	-0.000004
07727	0.005753	0.115904	9.801033	0.004774	-0.004864	-0.010969	-1.000000	0.000102	-0.000250	0.000022
07728	0.034190	0.119732	9.805789	0.033195	-0.001226	-0.006164	-1.000000	0.000095	-0.000253	0.000020
07729	0.001503	0.145104	9.800427	0.000632	0.024227	-0.011216	-1.000000	0.000103	-0.000263	0.000027
07730	0.004922	0.115902	9.801034	0.004019	-0.004832	-0.010969	-1.000000	0.000110	-0.000250	0.000033
07731	0.009574	0.115824	9.772133	0.008565	-0.004468	-0.039868	-1.000000	0.000112	-0.000252	0.000015
07732	0.023772	0.119591	9.863596	0.022584	-0.001894	0.051636	-1.000000	0.000103	-0.000232	0.000020
07733	-0.000178	0.115908	9.829935	-0.001541	-0.005160	0.017930	-1.000000	0.000112	-0.000234	0.000011
07734	-0.004117	0.144891	9.829332	-0.005432	0.023919	0.017682	-1.000000	0.000113	-0.000237	0.000017
07735	0.008820	0.115827	9.772134	0.007561	-0.004428	-0.039867	-1.000000	0.000114	-0.000239	0.000015
07736	-0.004723	0.144884	9.829332	-0.005937	0.023940	0.017682	-1.000000	0.000114	-0.000242	0.000013
07737	-0.020532	0.112204	9.767371	-0.021613	-0.008042	-0.044678	-1.000000	0.000107	-0.000252	0.000025
07738	-0.001623	0.115986	9.829934	-0.002803	-0.005110	0.017930	-1.000000	0.000106	-0.000232	0.000023
07739	-0.034014	0.141363	9.824565	-0.035369	0.020334	0.012869	-1.000000	0.000107	-0.000235	0.000022
07740	0.031461	0.119831	9.805797	0.030168	-0.001102	-0.006155	-1.000000	0.000093	-0.000238	0.000019
07741	0.027515	0.148888	9.805191	0.026271	0.027976	-0.006402	-1.000000	0.000109	-0.000240	0.000019
07742	0.035671	0.119677	9.776900	0.034472	-0.000725	-0.035051	-1.000000	0.000109	-0.000242	0.000024
07743	-0.001602	0.145053	9.800428	-0.002904	0.024361	-0.011217	-1.000000	0.000109	-0.000229	0.000023
07744	0.030561	0.119696	9.805801	0.029159	-0.001061	-0.006152	-1.000000	0.000109	-0.000232	0.000029
07745	0.002674	0.145058	9.771528	0.001403	0.024736	-0.040114	-1.000000	0.000110	-0.000242	0.000025
07746	0.001292	0.115925	9.801035	-0.000012	-0.004677	-0.010968	-1.000000	0.000117	-0.000229	0.000032
07747	0.005954	0.115848	9.772136	0.004546	-0.004312	-0.039865	-1.000000	0.000119	-0.000231	0.000015
07748	-0.002804	0.144903	9.800430	-0.004163	0.024410	-0.011217	-1.000000	0.000119	-0.000234	0.000028
07749	0.029207	0.119608	9.805806	0.027896	-0.001010	-0.006148	-1.000000	0.000113	-0.000237	0.000011
07750	0.000235	0.115964	9.801034	-0.001022	-0.004639	-0.010968	-1.000000	0.000114	-0.000239	0.000009
07751	0.028671	0.119743	9.805806	0.027390	-0.000990	-0.006146	-1.000000	0.000106	-0.000235	0.000014
07752	0.001006	0.145196	9.771526	-0.000361	0.024805	-0.040114	-1.000000	0.000106	-0.000230	0.000020
07753	0.028360	0.119844	9.805806	0.026888	-0.000971	-0.006145	-1.000000	0.000106	-0.000225	0.000019
07754	-0.029055	0.112516	9.796258	-0.030695	-0.008243	-0.015792	-1.000000	0.000099	-0.000212	0.000009
07755	-0.000543	0.116289	9.801031	-0.002282	-0.004592	-0.010968	-1.000000	0.000100	-0.000215	0.000007
07756	0.024170	0.149047	9.805198	0.022483	0.028128	-0.006393	-1.000000	0.000101	-0.000218	0.000006
07757	0.026288	0.090837	9.835314	0.024714	-0.030353	0.023003	-1.000000	0.000109	-0.000227	0.000004
07758	-0.001514	0.116123	9.801032	-0.003034	-0.004562	-0.010968	-1.000000	0.000109	-0.000222	0.000010
07759	0.028087	0.148894	9.776304	0.026544	0.028515	-0.035287	-1.000000	0.000110	-0.000225	0.000008
07760	-0.002117	0.116116	9.801032	-0.003539	-0.004543	-0.010969	-1.000000	0.000111	-0.000235	0.000007
07761	0.002469	0.116196	9.772133	0.001029	-0.004177	-0.039864	-1.000000	0.000103	-0.000223	0.000011
07762	0.017691	0.148964	9.834101	0.016144	0.027832	0.022505	-1.000000	0.000112	-0.000225	0.000003
07763	-0.007616	0.116109	9.829930	-0.009123	-0.004872	0.017926	-1.000000	0.000113	-0.000227	0.000001
07764	0.030388	0.119812	9.776916	0.028940	-0.000500	-0.035033	-1.000000	0.000114	-0.000230	-0.000001
07765	0.006386	0.116191	9.743236	0.004846	-0.003780	-0.068758	-1.000000	0.000105	-0.000217	0.000004
07766	0.025257	0.119911	9.805813	0.023610	-0.000837	-0.006137	-1.000000	0.000113	-0.000219	0.000011
07767	-0.002542	0.145192	9.771526	-0.004139	0.024949	-0.040115	-1.000000	0.000114	-0.000222	0.000010
07768	0.019904	0.119915	9.834712	0.018278	-0.001173	0.022759	-1.000000	0.000106	-0.000217	0.000015
07769	0.005551	0.116294	9.743235	0.003844	-0.003741	-0.068758	-1.000000	0.000106	-0.000212	0.000012
07770	-0.012961	0.145419	9.829316	-0.014550	0.024263	0.017672	-1.000000	0.000100	-0.000231	0.000017
07771	0.028558	0.120125	9.776918	0.027177	-0.000429	-0.035028	-1.000000	0.000102	-0.000233	-0.000000
07772	-0.009900	0.116264	9.829926	-0.011396	-0.004785	0.017924	-1.000000	0.000116	-0.000219	0.000014
07773	-0.008885	0.145268	9.800421	-0.010481	0.024647	-0.011222	-1.000000	0.000109	-0.000222	0.000012
07774	0.018383	0.119984	9.834714	0.016761	-0.001115	0.022761	-1.000000	0.000110	-0.000217	0.000003
07775	0.023054	0.120064	9.805817	0.021339	-0.000748	-0.006131	-1.000000	0.000102	-0.000213	0.000007
07776	0.022822	0.120143	9.805817	0.021089	-0.000737	-0.006131	-1.000000	0.000103	-0.000215	0.000005
07777	-0.001239	0.116430	9.772131	-0.002992	-0.004024	-0.039864	-1.000000	0.000103	-0.000210	0.000004
07778	-0.006139	0.116355	9.801028	-0.008076	-0.004372	-0.010971	-1.000000	0.000111	-0.000197	-0.000005
07779	0.018643	0.148979	9.805211	0.016669	0.028358	-0.006382	-1.000000	0.000119	-0.000207	0.000001
07780	-0.010324	0.145271	9.800419	-0.012244	0.024713	-0.011225	-1.000000	0.000112	-0.000202	0.000006
07781	-0.001981	0.116228	9.772133	-0.003996	-0.003986	-0.039864	-1.000000	0.000119	-0.000196	0.000013
07782	0.002548	0.116237	9.743237	0.000592	-0.003617	-0.068757	-1.000000	0.000112	-0.000207	0.000018
07783	0.021160	0.120093	9.805821	0.019324	-0.000667	-0.006127	-1.000000	0.000105	-0.000210	0.000016
07784	-0.040059	0.141721	9.795621	-0.041915	0.021094	-0.016072	-1.000000	0.000113	-0.000205	0.000022
07785	0.020780	0.120107	9.805822	0.018818	-0.000647	-0.006126	-1.000000	0.000105	-0.000200	0.000019
07786	0.020473	0.120176	9.805821	0.018568	-0.000636	-0.006126	-1.000000	0.000107	-0.000210	0.000018
07787	0.024933	0.120168	9.776927	0.023154	-0.000268	-0.035017	-1.000000	0.000107	-0.000213	0.000016
07788	-0.007630	0.145586	9.771517	-0.009425	0.025147	-0.040119	-1.000000	0.000099	-0.000208	0.000021
07789	-0.009099	0.116529	9.801023	-0.010852	-0.004268	-0.010974	-1.000000	0.000108	-0.000218	0.000027
07790	0.019193	0.120098	9.805825	0.017558	-0.000596	-0.006124	-1.000000	0.000116	-0.000220	0.000026
07791	0.019050	0.119958	9.805827	0.017306	-0.000587	-0.006123	-1.000000	0.000123	-0.000207	0.000032
07792	0.014138	0.119894	9.834722	0.012210	-0.000936	0.022768	-1.000000	0.000123	-0.000202	0.000030
07793	0.015078	0.148950	9.805217	0.013132	0.028498	-0.006377	-1.000000	0.000125	-0.000204	0.000021
07794	0.014700	0.148945	9.805218	0.012881	0.028508	-0.006377	-1.000000	0.000125	-0.000215	0.000034
07795	-0.015436	0.116243	9.829919	-0.017206	-0.004570	0.017915	-1.000000	0.000117	-0.000210	0.000039
07796	0.017835	0.120040	9.805828	0.016050	-0.000536	-0.006121	-1.000000	0.000119	-0.000212	0.000022
07797	0.012690	0.120023	9.834723	0.010948	-0.000886	0.022770	-1.000000	0.000119	-0.000215	0.000028
07798	0.047060	0.152811	9.781130	0.045380	0.032573	-0.030410	-1.000000	0.000121	-0.000218	0.000018
07799	-0.016497	0.116282	9.829917	-0.018215	-0.004532	0.017913	-1.000000	0.000121	-0.000212	0.000016
07800	0.020461	0.090879	9.806443	0.018718	-0.029560	-0.005864	-1.000000	0.000129	-0.000215	0.000015
07801	-0.012175	0.116204	9.801024	-0.013868	-0.004154	-0.010978	-1.000000	0.000123	-0.000217	0.000013
07802	0.012577	0.149050	9.805219	0.010863	0.028588	-0.006375	-1.000000	0.000124	-0.000212	-0.000004
07803	-0.012631	0.116262	9.801023	-0.014373	-0.004135	-0.010978	-1.000000	0.000124	-0.000215	0.000009
07804	-0.004327	0.087139	9.772742	-0.006091	-0.032829	-0.039613	-1.000000	0.000132	-0.000209	0.000001
07805	0.015578	0.119919	9.805834	0.013782	-0.000446	-0.006118	-1.000000	0.000125	-0.000212	0.000006
07806	0.011595	0.148984	9.805222	0.009853	0.028628	-0.006374	-1.000000	0.000133	-0.000215	0.000012
07807	0.015052	0.119850	9.805835	0.013278	-0.000426	-0.006117	-1.000000	0.000134	-0.000209	0.000003
07808	0.014827	0.119842	9.805836	0.013027	-0.000416	-0.006117	-1.000000	0.000135	-0.000212	0.000001
07809	-0.017885	0.145096	9.800411	-0.019562	0.024986	-0.011237	-1.000000	0.000142	-0.000222	0.000015
07810	0.039131	0.152479	9.810041	0.037499	0.032340	-0.001508	-1.000000	0.000144	-0.000216	-0.000002
07811	0.010398	0.148755	9.805227	0.008587	0.028676	-0.006373	-1.000000	0.000142	-0.000204	0.000011
07812	0.013855	0.119640	9.805840	0.012018	-0.000377	-0.006116	-1.000000	0.000151	-0.000214	0.000017
07813	-0.018786	0.144958	9.800412	-0.020572	0.025022	-0.011239	-1.000000	0.000144	-0.000209	0.000007
07814	0.013469	0.119778	9.805838	0.011515	-0.000357	-0.006115	-1.000000	0.000137	-0.000197	-0.000003
07815	-0.010408	0.116058	9.772130	-0.012532	-0.003663	-0.039872	-1.000000	0.000144	-0.000191	0.000003
07816	0.008457	0.119800	9.834730	0.006148	-0.000699	0.022774	-1.000000	0.000136	-0.000179	0.000008
07817	0.041887	0.123631	9.810655	0.039414	0.003348	-0.001244	-1.000000	0.000136	-0.000174	0.000006
07818	-0.015726	0.116152	9.801020	-0.018145	-0.003994	-0.010985	-1.000000	0.000137	-0.000184	0.000005
07819	0.012633	0.119802	9.805839	0.010256	-0.000308	-0.006114	-1.000000	0.000146	-0.000178	-0.000004
07820	0.008655	0.148704	9.805229	0.006319	0.028766	-0.006371	-1.000000	0.000154	-0.000188	0.000002
07821	-0.020297	0.144886	9.800410	-0.022588	0.025097	-0.011244	-1.000000	0.000155	-0.000183	-0.000007
07822	0.011813	0.119639	9.805842	0.009502	-0.000277	-0.006113	-1.000000	0.000148	-0.000186	-0.000002
07823	0.011506	0.119713	9.805842	0.009250	-0.000268	-0.006113	-1.000000	0.000149	-0.000189	-0.000004
07824	-0.017450	0.115968	9.801019	-0.019653	-0.003937	-0.010987	-1.000000	0.000150	-0.000191	-0.000006
07825	0.012162	0.148616	9.776341	0.009925	0.029175	-0.035258	-1.000000	0.000166	-0.000185	-0.000014
07826	0.005984	0.119390	9.834737	0.003624	-0.000599	0.022775	-1.000000	0.000166	-0.000180	-0.000016
07827	0.039193	0.123213	9.810671	0.036893	0.003454	-0.001234	-1.000000	0.000159	-0.000190	-0.000011
07828	-0.017323	0.144879	9.771516	-0.019482	0.025525	-0.040135	-1.000000	0.000159	-0.000193	0.000003
07829	0.009845	0.119698	9.805844	0.007737	-0.000207	-0.006111	-1.000000	0.000146	-0.000197	-0.000016
07830	0.014476	0.119846	9.776952	0.012360	0.000165	-0.034998	-1.000000	0.000145	-0.000192	-0.000010
07831	0.009377	0.119918	9.805841	0.007234	-0.000188	-0.006111	-1.000000	0.000139	-0.000195	-0.000013
07832	0.005449	0.149122	9.805225	0.003291	0.028885	-0.006370	-1.000000	0.000131	-0.000190	-0.000015
07833	0.010162	0.149200	9.776334	0.007910	0.029255	-0.035256	-1.000000	0.000132	-0.000185	-0.000025
07834	0.009931	0.149272	9.776334	0.007660	0.029265	-0.035256	-1.000000	0.000125	-0.000188	-0.000020
07835	0.008380	0.120185	9.805839	0.006225	-0.000149	-0.006110	-1.000000	0.000136	-0.000197	-0.000044
07836	0.008020	0.119932	9.805842	0.005974	-0.000139	-0.006110	-1.000000	0.000152	-0.000199	-0.000044
07837	0.007722	0.119858	9.805844	0.005720	-0.000130	-0.006110	-1.000000	0.000144	-0.000202	-0.000039
07838	0.036070	0.123609	9.810678	0.034120	0.003568	-0.001224	-1.000000	0.000152	-0.000204	-0.000033
07839	0.007197	0.119788	9.805845	0.005215	-0.000111	-0.006110	-1.000000	0.000153	-0.000199	-0.000043
07840	0.008221	0.148924	9.776340	0.006148	0.029323	-0.035255	-1.000000	0.000146	-0.000194	-0.000045
07841	-0.021991	0.116176	9.801007	-0.023938	-0.003780	-0.010997	-1.000000	0.000148	-0.000212	-0.000047
07842	0.006434	0.119921	9.805844	0.004461	-0.000080	-0.006109	-1.000000	0.000147	-0.000192	-0.000049
07843	0.034925	0.123765	9.810680	0.032855	0.003618	-0.001220	-1.000000	0.000139	-0.000202	-0.000028
07844	0.006040	0.120109	9.805842	0.003956	-0.000062	-0.006109	-1.000000	0.000139	-0.000190	-0.000030
07845	0.004709	0.091048	9.835346	0.002519	-0.029476	0.023037	-1.000000	0.000139	-0.000192	-0.000032
07846	0.001958	0.149241	9.805224	-0.000247	0.029019	-0.006370	-1.000000	0.000132	-0.000188	-0.000034
07847	0.005580	0.120193	9.805841	0.003199	-0.000033	-0.006109	-1.000000	0.000140	-0.000174	-0.000035
07848	0.034078	0.123946	9.810681	0.031597	0.003670	-0.001216	-1.000000	0.000133	-0.000177	-0.000038
07849	-0.022423	0.145578	9.771495	-0.024767	0.025717	-0.040148	-1.000000	0.000133	-0.000188	-0.000032
07850	0.008596	0.091206	9.806458	0.006149	-0.029063	-0.005847	-1.000000	0.000134	-0.000167	-0.000049
07851	0.001118	0.149326	9.805223	-0.001511	0.029069	-0.006370	-1.000000	0.000134	-0.000170	-0.000036
07852	0.034276	0.153007	9.781180	0.031775	0.033137	-0.030358	-1.000000	0.000143	-0.000179	-0.000044
07853	0.004225	0.120108	9.805843	0.001689	0.000027	-0.006108	-1.000000	0.000143	-0.000167	-0.000046
07854	0.004073	0.120118	9.805843	0.001439	0.000037	-0.006108	-1.000000	0.000143	-0.000169	-0.000040
07855	0.037377	0.123886	9.781800	0.034724	0.004106	-0.030094	-1.000000	0.000144	-0.000164	-0.000042
07856	0.008503	0.120130	9.776956	0.005828	0.000419	-0.034991	-1.000000	0.000144	-0.000167	-0.000044
07857	0.028260	0.152931	9.810072	0.025623	0.032823	-0.001471	-1.000000	0.000145	-0.000169	-0.000039
07858	0.003010	0.120189	9.805842	0.000432	0.000075	-0.006108	-1.000000	0.000138	-0.000172	-0.000049
07859	0.004036	0.149324	9.776337	0.001366	0.029507	-0.035254	-1.000000	0.000138	-0.000160	-0.000050
07860	0.002693	0.120412	9.805840	-0.000071	0.000094	-0.006108	-1.000000	0.000124	-0.000163	-0.000054
07861	0.031108	0.124248	9.810687	0.028322	0.003803	-0.001206	-1.000000	0.000131	-0.000158	-0.000047
07862	0.002239	0.120415	9.805840	-0.000574	0.000114	-0.006108	-1.000000	0.000133	-0.000160	-0.000056
07863	0.002013	0.120407	9.805840	-0.000826	0.000123	-0.006108	-1.000000	0.000133	-0.000155	-0.000058
07864	0.021912	0.153214	9.838957	0.018960	0.032532	0.027415	-1.000000	0.000133	-0.000150	-0.000060
07865	0.011490	0.120424	9.748068	0.008468	0.000870	-0.063873	-1.000000	0.000134	-0.000145	-0.000069
07866	0.001408	0.120406	9.805840	-0.001580	0.000153	-0.006108	-1.000000	0.000134	-0.000155	-0.000056
07867	-0.002679	0.149462	9.805221	-0.005545	0.029221	-0.006372	-1.000000	0.000135	-0.000158	-0.000058
07868	0.000728	0.120401	9.805840	-0.002084	0.000172	-0.006108	-1.000000	0.000136	-0.000160	-0.000060
07869	0.032926	0.095192	9.811312	0.030020	-0.025175	-0.000936	-1.000000	0.000128	-0.000148	-0.000055
07870	0.001595	0.149638	9.776333	-0.001399	0.029614	-0.035254	-1.000000	0.000128	-0.000151	-0.000049
07871	0.000185	0.120579	9.805838	-0.002841	0.000201	-0.006109	-1.000000	0.000128	-0.000145	-0.000050
07872	0.037214	0.095228	9.782429	0.034170	-0.024778	-0.029815	-1.000000	0.000136	-0.000148	-0.000044
07873	-0.003898	0.149492	9.805220	-0.007059	0.029279	-0.006373	-1.000000	0.000136	-0.000148	-0.000044
07874	0.004556	0.120513	9.776954	0.001561	0.000584	-0.034990	-1.000000	0.000130	-0.000151	-0.000054
07875	0.000468	0.149555	9.776334	-0.002407	0.029653	-0.035254	-1.000000	0.000138	-0.000160	-0.000048
07876	0.003809	0.120422	9.776955	0.001059	0.000604	-0.034990	-1.000000	0.000139	-0.000163	-0.000050
07877	0.032293	0.124339	9.781813	0.029449	0.004322	-0.030077	-1.000000	0.000124	-0.000151	-0.000053
07878	-0.001412	0.120716	9.805836	-0.004351	0.000260	-0.006109	-1.000000	0.000124	-0.000154	-0.000055
07879	0.026926	0.124550	9.810695	0.024039	0.003976	-0.001195	-1.000000	0.000118	-0.000157	-0.000057
07880	-0.005665	0.149910	9.805213	-0.008572	0.029336	-0.006375	-1.000000	0.000118	-0.000152	-0.000059
07881	-0.002179	0.120917	9.805833	-0.005105	0.000286	-0.006110	-1.000000	0.000112	-0.000155	-0.000077
07882	-0.007462	0.120971	9.834716	-0.010266	-0.000069	0.022770	-1.000000	0.000112	-0.000165	-0.000063
07883	0.030608	0.124758	9.781813	0.027944	0.004381	-0.030072	-1.000000	0.000113	-0.000167	-0.000065
07884	-0.001984	0.150122	9.776325	-0.004668	0.029738	-0.035256	-1.000000	0.000105	-0.000163	-0.000060
07885	-0.003402	0.121133	9.805830	-0.006111	0.000324	-0.006110	-1.000000	0.000107	-0.000165	-0.000069
07886	0.001282	0.121059	9.776948	-0.001448	0.000699	-0.034990	-1.000000	0.000115	-0.000160	-0.000071
07887	0.001056	0.121057	9.776948	-0.001699	0.000707	-0.034990	-1.000000	0.000108	-0.000163	-0.000073
07888	0.025679	0.153874	9.781193	0.022969	0.033490	-0.030335	-1.000000	0.000116	-0.000165	-0.000074
07889	-0.000654	0.091912	9.806455	-0.003394	-0.028698	-0.005844	-1.000000	0.000117	-0.000160	-0.000076
07890	0.029096	0.124822	9.781816	0.026190	0.004451	-0.030067	-1.000000	0.000110	-0.000148	-0.000086
07891	0.000228	0.121049	9.776948	-0.002703	0.000744	-0.034990	-1.000000	0.000118	-0.000157	-0.000080
07892	0.023658	0.124818	9.810701	0.020770	0.004105	-0.001187	-1.000000	0.000110	-0.000153	-0.000075
07893	0.014799	0.153867	9.838960	0.011873	0.032807	0.027425	-1.000000	0.000118	-0.000155	-0.000076
07894	0.023282	0.124759	9.810702	0.020266	0.004126	-0.001186	-1.000000	0.000118	-0.000142	-0.000070
07895	-0.000606	0.121078	9.776948	-0.003706	0.000782	-0.034990	-1.000000	0.000111	-0.000145	-0.000073
07896	0.022893	0.124916	9.810701	0.019762	0.004146	-0.001185	-1.000000	0.000111	-0.000140	-0.000074
07897	-0.001064	0.121155	9.776947	-0.004209	0.000802	-0.034991	-1.000000	0.000111	-0.000143	-0.000069
07898	0.027352	0.124923	9.781820	0.024180	0.004531	-0.030062	-1.000000	0.000113	-0.000138	-0.000086
07899	-0.006429	0.121136	9.805829	-0.009635	0.000456	-0.006113	-1.000000	0.000113	-0.000140	-0.000072
07900	-0.006801	0.121056	9.805830	-0.009885	0.000467	-0.006113	-1.000000	0.000122	-0.000150	-0.000081
07901	0.002884	0.120993	9.748067	-0.000290	0.001207	-0.063869	-1.000000	0.000122	-0.000129	-0.000090
07902	0.022809	0.153807	9.781201	0.019444	0.033631	-0.030328	-1.000000	0.000124	-0.000132	-0.000100
07903	0.026160	0.124737	9.781826	0.022918	0.004583	-0.030059	-1.000000	0.000125	-0.000142	-0.000102
07904	-0.003973	0.091891	9.806454	-0.007165	-0.028552	-0.005846	-1.000000	0.000125	-0.000137	-0.000103
07905	-0.003007	0.120952	9.776949	-0.006222	0.000878	-0.034992	-1.000000	0.000126	-0.000139	-0.000105
07906	0.049199	0.128569	9.815587	0.045875	0.007970	0.003754	-1.000000	0.000119	-0.000127	-0.000115
07907	-0.003317	0.121094	9.776947	-0.006726	0.000897	-0.034992	-1.000000	0.000120	-0.000129	-0.000117
07908	0.021285	0.154066	9.781200	0.017928	0.033689	-0.030325	-1.000000	0.000105	-0.000133	-0.000120
07909	-0.008931	0.121301	9.805825	-0.012158	0.000549	-0.006116	-1.000000	0.000113	-0.000143	-0.000106
07910	-0.013032	0.150273	9.805200	-0.016143	0.029616	-0.006385	-1.000000	0.000114	-0.000145	-0.000116
07911	0.018959	0.124991	9.810709	0.015975	0.004294	-0.001178	-1.000000	0.000115	-0.000155	-0.000110
07912	-0.001329	0.092168	9.777570	-0.004244	-0.028112	-0.034724	-1.000000	0.000115	-0.000150	-0.000112
07913	0.023427	0.125011	9.781829	0.020403	0.004681	-0.030054	-1.000000	0.000115	-0.000145	-0.000106
07914	0.018200	0.125001	9.810710	0.015219	0.004325	-0.001177	-1.000000	0.000116	-0.000156	-0.000108
07915	0.014242	0.154051	9.810084	0.011228	0.033391	-0.001446	-1.000000	0.000116	-0.000143	-0.000110
07916	-0.010745	0.121292	9.805823	-0.013920	0.000616	-0.006118	-1.000000	0.000110	-0.000138	-0.000120
07917	0.017741	0.125079	9.810710	0.014461	0.004355	-0.001176	-1.000000	0.000117	-0.000132	-0.000113
07918	0.046155	0.128794	9.815598	0.042845	0.008096	0.003768	-1.000000	0.000118	-0.000135	-0.000115
07919	-0.006423	0.121308	9.776943	-0.009740	0.001010	-0.034995	-1.000000	0.000110	-0.000130	-0.000117
07920	0.013321	0.154207	9.810083	0.009967	0.033441	-0.001445	-1.000000	0.000111	-0.000133	-0.000119
07921	0.021756	0.125171	9.781831	0.018391	0.004760	-0.030050	-1.000000	0.000111	-0.000128	-0.000113
07922	0.016603	0.125098	9.810711	0.013201	0.004403	-0.001174	-1.000000	0.000119	-0.000130	-0.000107
07923	0.016307	0.125011	9.810713	0.012947	0.004413	-0.001174	-1.000000	0.000121	-0.000132	-0.000124
07924	0.012341	0.154128	9.810086	0.008954	0.033479	-0.001444	-1.000000	0.000113	-0.000128	-0.000119
07925	0.039551	0.128866	9.844484	0.036134	0.007797	0.032650	-1.000000	0.000121	-0.000130	-0.000112
07926	0.015624	0.125019	9.810714	0.012192	0.004441	-0.001173	-1.000000	0.000121	-0.000125	-0.000114
07927	-0.008305	0.121240	9.776942	-0.011751	0.001083	-0.034997	-1.000000	0.000122	-0.000127	-0.000116
07928	0.020105	0.125028	9.781836	0.016633	0.004829	-0.030047	-1.000000	0.000122	-0.000122	-0.000118
07929	-0.013542	0.121234	9.805820	-0.017200	0.000735	-0.006123	-1.000000	0.000122	-0.000109	-0.000120
07930	0.043569	0.128913	9.815609	0.039815	0.008219	0.003780	-1.000000	0.000113	-0.000113	-0.000099
07931	0.019560	0.125220	9.781835	0.015877	0.004860	-0.030045	-1.000000	0.000114	-0.000115	-0.000101
07932	0.005636	0.154390	9.838962	0.001987	0.033190	0.027431	-1.000000	0.000100	-0.000119	-0.000104
07933	-0.009617	0.121648	9.776936	-0.013257	0.001141	-0.034999	-1.000000	0.000107	-0.000113	-0.000098
07934	0.013782	0.125356	9.810712	0.010177	0.004522	-0.001171	-1.000000	0.000108	-0.000124	-0.000100
07935	-0.015153	0.121555	9.805814	-0.018709	0.000792	-0.006126	-1.000000	0.000109	-0.000118	-0.000101
07936	0.018272	0.125297	9.781837	0.014622	0.004911	-0.030043	-1.000000	0.000116	-0.000113	-0.000095
07937	0.018046	0.125296	9.781837	0.014372	0.004920	-0.030043	-1.000000	0.000110	-0.000116	-0.000105
07938	0.017664	0.125365	9.781837	0.014122	0.004930	-0.030043	-1.000000	0.000110	-0.000126	-0.000092
07939	0.017289	0.125354	9.781838	0.013870	0.004938	-0.030042	-1.000000	0.000112	-0.000129	-0.000109
07940	0.012195	0.125346	9.810715	0.008667	0.004580	-0.001169	-1.000000	0.000111	-0.000116	-0.000095
07941	0.012113	0.125428	9.810714	0.008412	0.004588	-0.001169	-1.000000	0.000105	-0.000111	-0.000113
07942	0.021770	0.125518	9.752960	0.018071	0.005336	-0.058914	-1.000000	0.000105	-0.000114	-0.000107
07943	0.011729	0.125504	9.810713	0.007906	0.004608	-0.001169	-1.000000	0.000105	-0.000101	-0.000109
07944	-0.012036	0.121725	9.776932	-0.016019	0.001243	-0.035003	-1.000000	0.000105	-0.000096	-0.000111
07945	0.012851	0.154519	9.781208	0.008607	0.034050	-0.030314	-1.000000	0.000111	-0.000075	-0.000104
07946	-0.022071	0.121579	9.834687	-0.026434	0.000523	0.022740	-1.000000	0.000112	-0.000086	-0.000106
07947	0.016225	0.125403	9.781839	0.011859	0.005016	-0.030040	-1.000000	0.000112	-0.000073	-0.000108
07948	0.039609	0.129186	9.815622	0.035279	0.008405	0.003797	-1.000000	0.000114	-0.000091	-0.000110
07949	0.015548	0.125386	9.781840	0.011356	0.005034	-0.030039	-1.000000	0.000114	-0.000086	-0.000112
07950	0.015317	0.125459	9.781840	0.011106	0.005045	-0.030039	-1.000000	0.000108	-0.000089	-0.000114
07951	0.010212	0.125524	9.810715	0.005891	0.004684	-0.001167	-1.000000	0.000107	-0.000076	-0.000116
07952	0.015083	0.125551	9.781839	0.010602	0.005063	-0.030038	-1.000000	0.000107	-0.000071	-0.000110
07953	0.043556	0.129446	9.786747	0.038976	0.008822	-0.025069	-1.000000	0.000099	-0.000066	-0.000105
07954	-0.010260	0.092862	9.777559	-0.014771	-0.027721	-0.034733	-1.000000	0.000101	-0.000076	-0.000107
07955	0.033191	0.129581	9.844498	0.028544	0.008104	0.032674	-1.000000	0.000092	-0.000056	-0.000102
07956	-0.019272	0.121984	9.805802	-0.023998	0.000982	-0.006138	-1.000000	0.000101	-0.000066	-0.000111
07957	0.014007	0.125851	9.781836	0.009341	0.005113	-0.030037	-1.000000	0.000088	-0.000062	-0.000129
07958	0.005142	0.155027	9.810078	0.000365	0.033807	-0.001441	-1.000000	0.000088	-0.000057	-0.000131
07959	-0.014935	0.122193	9.776923	-0.019789	0.001379	-0.035010	-1.000000	0.000088	-0.000052	-0.000125
07960	0.008514	0.125999	9.810710	0.003621	0.004773	-0.001166	-1.000000	0.000088	-0.000054	-0.000119
07961	-0.015464	0.122203	9.776922	-0.020292	0.001398	-0.035011	-1.000000	0.000089	-0.000057	-0.000121
07962	0.012870	0.125924	9.781837	0.008085	0.005162	-0.030036	-1.000000	0.000098	-0.000059	-0.000130
07963	0.007540	0.125888	9.810712	0.002864	0.004801	-0.001166	-1.000000	0.000092	-0.000069	-0.000140
07964	0.007307	0.125967	9.810712	0.002613	0.004811	-0.001166	-1.000000	0.000091	-0.000057	-0.000127
07965	0.003471	0.155036	9.810079	-0.001407	0.033874	-0.001442	-1.000000	0.000091	-0.000052	-0.000128
07966	0.035626	0.129871	9.815628	0.030732	0.008588	0.003813	-1.000000	0.000084	-0.000055	-0.000131
07967	-0.016906	0.122341	9.776918	-0.019178	0.001856	-0.035009	-1.000000	0.000104	-0.000184	-0.000026
07968	0.010294	0.097103	9.811343	0.007995	-0.023802	-0.000890	-1.000000	0.000105	-0.000187	-0.000020
07969	0.011272	0.126094	9.781837	0.008949	0.005627	-0.030037	-1.000000	0.000112	-0.000181	-0.000020
07970	0.010974	0.126026	9.781838	0.008701	0.005638	-0.030037	-1.000000	0.000112	-0.000191	-0.000007
07971	0.010748	0.126025	9.781838	0.008449	0.005648	-0.030037	-1.000000	0.000114	-0.000178	-0.000025
07972	0.014429	0.097053	9.782471	0.011963	-0.023394	-0.029760	-1.000000	0.000106	-0.000174	-0.000020
07973	0.009309	0.097131	9.811344	0.006741	-0.023753	-0.000889	-1.000000	0.000105	-0.000169	-0.000013
07974	0.014044	0.097155	9.782471	0.011463	-0.023374	-0.029759	-1.000000	0.000106	-0.000172	-0.000007
07975	0.006284	0.155335	9.781201	0.003685	0.034740	-0.030313	-1.000000	0.000098	-0.000167	-0.000002
07976	-0.000113	0.126348	9.839581	-0.002743	0.004961	0.027704	-1.000000	0.000098	-0.000170	0.000004
07977	0.038288	0.130208	9.786759	0.035574	0.009465	-0.025057	-1.000000	0.000097	-0.000157	0.000009
07978	0.004469	0.126381	9.810708	0.001728	0.005350	-0.001166	-1.000000	0.000098	-0.000168	0.000007
07979	0.005292	0.155430	9.781200	0.002683	0.034781	-0.030313	-1.000000	0.000099	-0.000170	0.000005
07980	0.012525	0.097330	9.782471	0.009967	-0.023313	-0.029757	-1.000000	0.000100	-0.000173	0.000004
07981	0.032188	0.130189	9.815636	0.029597	0.009138	0.003816	-1.000000	0.000100	-0.000168	0.000010
07982	0.003335	0.126373	9.810709	0.000724	0.005389	-0.001166	-1.000000	0.000101	-0.000171	0.000009
07983	0.041666	0.130300	9.757891	0.039052	0.009896	-0.053920	-1.000000	0.000093	-0.000166	0.000013
07984	0.026525	0.130341	9.844508	0.023871	0.008801	0.032686	-1.000000	0.000094	-0.000169	0.000011
07985	-0.017317	0.093674	9.777541	-0.019902	-0.027027	-0.034740	-1.000000	0.000094	-0.000172	0.000017
07986	0.007161	0.126539	9.781835	0.004704	0.005797	-0.030034	-1.000000	0.000095	-0.000182	0.000016
07987	0.025463	0.130326	9.844511	0.023117	0.008830	0.032688	-1.000000	0.000096	-0.000185	0.000013
07988	0.006563	0.126458	9.781836	0.004206	0.005817	-0.030034	-1.000000	0.000103	-0.000179	0.000020
07989	0.001362	0.126443	9.810708	-0.001029	0.005456	-0.001166	-1.000000	0.000097	-0.000182	0.000012
07990	0.001205	0.126521	9.810707	-0.001278	0.005467	-0.001166	-1.000000	0.000096	-0.000170	0.000018
07991	0.004826	0.097484	9.811344	0.002243	-0.023574	-0.000887	-1.000000	0.000097	-0.000172	0.000014
07992	0.005727	0.126537	9.781836	0.003206	0.005858	-0.030034	-1.000000	0.000098	-0.000175	0.000012
07993	0.005425	0.126537	9.781836	0.002956	0.005868	-0.030034	-1.000000	0.000098	-0.000178	0.000017
07994	0.000220	0.126528	9.810707	-0.002277	0.005509	-0.001166	-1.000000	0.000099	-0.000173	0.000015
07995	0.029818	0.159415	9.786137	0.027303	0.038707	-0.025322	-1.000000	0.000099	-0.000175	0.000012
07996	0.004599	0.126461	9.781838	0.002208	0.005899	-0.030033	-1.000000	0.000108	-0.000185	0.000019
07997	-0.000682	0.126440	9.810708	-0.003030	0.005538	-0.001166	-1.000000	0.000101	-0.000180	0.000008
07998	0.007920	0.097480	9.782474	0.005486	-0.023132	-0.029753	-1.000000	0.000101	-0.000175	0.000007
07999	0.027633	0.130345	9.815647	0.025090	0.009326	0.003828	-1.000000	0.000102	-0.000170	0.000006
08000	0.003760	0.126607	9.781836	0.001210	0.005938	-0.030033	-1.000000	0.000094	-0.000174	0.000012
08001	0.027171	0.130437	9.815648	0.024587	0.009346	0.003829	-1.000000	0.000102	-0.000168	0.000019
08002	-0.001599	0.126539	9.810707	-0.004282	0.005587	-0.001167	-1.000000	0.000102	-0.000163	0.000018
08003	-0.001905	0.126601	9.810706	-0.004534	0.005596	-0.001167	-1.000000	0.000096	-0.000174	0.000007
08004	0.002770	0.126744	9.781835	0.000210	0.005977	-0.030033	-1.000000	0.000090	-0.000169	-0.000003
08005	0.006324	0.097697	9.782473	0.003740	-0.023065	-0.029752	-1.000000	0.000098	-0.000171	0.000003
08006	0.002322	0.126673	9.781836	-0.000288	0.005996	-0.030033	-1.000000	0.000098	-0.000166	0.000002
08007	-0.002741	0.126666	9.810705	-0.005535	0.005636	-0.001168	-1.000000	0.000098	-0.000154	0.000000
08008	0.007155	0.126703	9.752966	0.004207	0.006388	-0.058899	-1.000000	0.000098	-0.000149	-0.000002
08009	0.000807	0.097713	9.811343	-0.002253	-0.023395	-0.000886	-1.000000	0.000090	-0.000144	0.000004
08010	-0.002008	0.155964	9.781193	-0.005070	0.035087	-0.030315	-1.000000	0.000084	-0.000147	-0.000006
08011	0.033873	0.101773	9.787419	0.030862	-0.019228	-0.024748	-1.000000	0.000085	-0.000150	-0.000008
08012	-0.003810	0.126811	9.810703	-0.006786	0.005686	-0.001168	-1.000000	0.000101	-0.000152	-0.000009
08013	0.004816	0.097710	9.782474	0.001744	-0.022985	-0.029751	-1.000000	0.000093	-0.000139	-0.000011
08014	0.024579	0.130667	9.815651	0.021331	0.009482	0.003837	-1.000000	0.000093	-0.000134	-0.000005
08015	-0.000409	0.097800	9.811342	-0.003754	-0.023336	-0.000887	-1.000000	0.000093	-0.000129	0.000001
