// General information: 
//  MT Manager version: 2021.0.0 
//  XDA version: 2021.0.0 build 5908 rev 109668 built on 2021-04-19
// Device information: 
//  DeviceId: 00B47ACA
//  ProductCode: MTW2-3A7G6
//  Firmware Version: 4.4.0
//  Hardware Version: 2.0.0
// Device settings: 
//  Filter Profile: human(46.1)
//  Option Flags: Orientation Smoother Disabled, Position/Velocity Smoother Disabled, Continuous Zero Rotation Update Disabled, AHS Disabled, ICC Disabled
// Coordinate system: ENU
PacketCounter	Acc_X	Acc_Y	Acc_Z	FreeAcc_E	FreeAcc_N	FreeAcc_U	Quat_q0	Quat_q1	Quat_q2	Quat_q3
17883	0.005691	0.136787	9.889861	-0.025831	0.004206	0.078087	1.000000	-0.000062	0.000142	-0.000425
17884	0.015654	0.072632	9.880936	-0.015891	-0.059755	0.068335	1.000000	-0.000068	0.000157	-0.000434
17885	0.032846	0.132083	9.861104	0.001484	0.000020	0.049356	1.000000	-0.000070	0.000149	-0.000423
17886	0.036947	0.104635	9.870510	0.005510	-0.027493	0.058407	1.000000	-0.000074	0.000155	-0.000420
17887	0.069121	0.091870	9.906616	0.037590	-0.040792	0.094440	1.000000	-0.000068	0.000152	-0.000416
17888	0.000572	0.126495	9.862146	-0.030755	-0.005534	0.050220	1.000000	-0.000072	0.000158	-0.000412
17889	0.028222	0.131554	9.861126	-0.003071	-0.000508	0.049356	1.000000	-0.000066	0.000155	-0.000408
17890	0.026512	0.140789	9.888860	-0.005005	0.008417	0.077206	1.000000	-0.000078	0.000144	-0.000408
17891	0.026022	0.131148	9.861137	-0.005345	-0.000771	0.049355	1.000000	-0.000074	0.000162	-0.000407
17892	0.023919	0.140444	9.888872	-0.007288	0.008152	0.077204	1.000000	-0.000078	0.000168	-0.000404
17893	-0.005332	0.125618	9.862156	-0.036445	-0.006217	0.050201	1.000000	-0.000081	0.000164	-0.000399
17894	0.032135	0.085538	9.907685	0.000806	-0.046865	0.095308	1.000000	-0.000085	0.000164	-0.000401
17895	0.055274	0.108449	9.869557	0.024113	-0.023485	0.057563	1.000000	-0.000079	0.000167	-0.000391
17896	0.020832	0.120963	9.833432	-0.010218	-0.010488	0.021499	1.000000	-0.000083	0.000163	-0.000387
17897	0.018243	0.139608	9.888896	-0.013005	0.007489	0.077199	1.000000	-0.000087	0.000163	-0.000388
17898	0.073941	0.159348	9.914646	0.042658	0.026815	0.103387	1.000000	-0.000081	0.000166	-0.000379
17899	0.035740	0.180339	9.813649	0.004787	0.049066	0.002560	1.000000	-0.000074	0.000162	-0.000375
17900	0.067329	0.177073	9.877531	0.035991	0.044881	0.066493	1.000000	-0.000077	0.000148	-0.000369
17901	0.038195	0.162330	9.850793	0.006871	0.030486	0.039467	1.000000	-0.000071	0.000156	-0.000355
17902	0.041451	0.144490	9.887931	0.010095	0.012037	0.076373	1.000000	-0.000065	0.000158	-0.000357
17903	0.012320	0.129713	9.861183	-0.019008	-0.002370	0.049338	1.000000	-0.000069	0.000152	-0.000363
17904	0.044584	0.116930	9.897348	0.013032	-0.015592	0.085431	1.000000	-0.000073	0.000148	-0.000358
17905	0.044179	0.107403	9.869625	0.012756	-0.024773	0.057581	1.000000	-0.000067	0.000157	-0.000345
17906	0.014146	0.102040	9.870597	-0.017192	-0.030144	0.058386	1.000000	-0.000071	0.000157	-0.000347
17907	0.013189	0.101829	9.870600	-0.018326	-0.030279	0.058383	1.000000	-0.000074	0.000139	-0.000362
17908	0.035785	0.134215	9.860238	0.004116	0.002200	0.048528	1.000000	-0.000068	0.000135	-0.000358
17909	0.039053	0.116368	9.897378	0.007332	-0.016248	0.085436	1.000000	-0.000064	0.000147	-0.000361
17910	0.056056	0.175988	9.877621	0.024517	0.043607	0.066534	1.000000	-0.000067	0.000143	-0.000357
17911	0.060235	0.148643	9.887035	0.028612	0.016117	0.075594	1.000000	-0.000062	0.000144	-0.000358
17912	0.030276	0.143248	9.887989	-0.001341	0.010722	0.076380	1.000000	-0.000066	0.000144	-0.000360
17913	0.052597	0.175536	9.877648	0.021069	0.043227	0.066543	1.000000	-0.000072	0.000147	-0.000378
17914	0.028749	0.133373	9.860273	-0.002724	0.001415	0.048529	1.000000	-0.000076	0.000147	-0.000379
17915	0.061612	0.111500	9.868747	0.030201	-0.020795	0.056813	1.000000	-0.000052	0.000158	-0.000366
17916	0.060341	0.111557	9.868754	0.029065	-0.020922	0.056817	1.000000	-0.000057	0.000161	-0.000384
17917	0.029544	0.115354	9.897423	-0.001799	-0.017294	0.085436	1.000000	-0.000071	0.000160	-0.000386
17918	0.052676	0.138254	9.859367	0.021522	0.006183	0.047764	1.000000	-0.000066	0.000166	-0.000394
17919	0.056917	0.110814	9.868783	0.025653	-0.021303	0.056825	1.000000	-0.000079	0.000154	-0.000394
17920	0.020860	0.141931	9.888033	-0.010495	0.009665	0.076376	1.000000	-0.000075	0.000160	-0.000401
17921	0.048463	0.147027	9.887124	0.017162	0.014840	0.075622	1.000000	-0.000088	0.000159	-0.000403
17922	0.053608	0.110099	9.868809	0.022243	-0.021687	0.056833	1.000000	-0.000091	0.000151	-0.000392
17923	0.046298	0.146627	9.887140	0.014875	0.014580	0.075626	1.000000	-0.000086	0.000156	-0.000400
17924	0.017010	0.131918	9.860320	-0.014116	0.000089	0.048519	1.000000	-0.000074	0.000173	-0.000410
17925	0.048987	0.119406	9.896560	0.017879	-0.013032	0.084690	1.000000	-0.000076	0.000171	-0.000395
17926	0.047885	0.119201	9.896568	0.016738	-0.013161	0.084692	1.000000	-0.000081	0.000169	-0.000407
17927	0.013591	0.131464	9.860331	-0.017532	-0.000311	0.048514	1.000000	-0.000084	0.000160	-0.000396
17928	0.011575	0.140761	9.888065	-0.019642	0.008592	0.076363	1.000000	-0.000079	0.000168	-0.000393
17929	0.011141	0.131307	9.860336	-0.019813	-0.000579	0.048509	1.000000	-0.000075	0.000179	-0.000397
17930	0.044146	0.109228	9.868866	0.013152	-0.022716	0.056847	1.000000	-0.000087	0.000168	-0.000396
17931	0.008002	0.140191	9.888076	-0.023072	0.008184	0.076356	1.000000	-0.000091	0.000175	-0.000394
17932	0.041787	0.108982	9.868879	0.010883	-0.022979	0.056849	1.000000	-0.000068	0.000182	-0.000402
17933	0.005603	0.140210	9.888078	-0.025359	0.007914	0.076350	1.000000	-0.000080	0.000172	-0.000391
17934	0.033338	0.145294	9.887212	0.002291	0.013144	0.075639	1.000000	-0.000085	0.000173	-0.000393
17935	0.004321	0.130380	9.860354	-0.026640	-0.001391	0.048493	1.000000	-0.000080	0.000174	-0.000394
17936	0.064320	0.132623	9.923500	0.033114	-0.000054	0.111852	1.000000	-0.000084	0.000168	-0.000400
17937	0.035346	0.117513	9.896641	0.004189	-0.014593	0.084703	1.000000	-0.000098	0.000171	-0.000408
17938	0.028867	0.144429	9.887239	-0.002284	0.012620	0.075640	1.000000	-0.000101	0.000163	-0.000397
17939	0.033337	0.117300	9.896651	0.001910	-0.014854	0.084703	1.000000	-0.000076	0.000149	-0.000401
17940	0.055660	0.149993	9.886390	0.024217	0.017751	0.074952	1.000000	-0.000081	0.000155	-0.000398
17941	0.032069	0.107842	9.868928	0.000661	-0.024149	0.056852	1.000000	-0.000075	0.000150	-0.000405
17942	0.019271	0.171555	9.877839	-0.012203	0.039433	0.066574	1.000000	-0.000079	0.000146	-0.000400
17943	0.028970	0.116918	9.896669	-0.002653	-0.015381	0.084702	1.000000	-0.000083	0.000146	-0.000402
17944	0.057550	0.112732	9.868105	0.026037	-0.019131	0.056176	1.000000	-0.000087	0.000148	-0.000392
17945	0.050967	0.139743	9.858702	0.019541	0.008082	0.047114	1.000000	-0.000091	0.000150	-0.000384
17946	0.021013	0.134284	9.859540	-0.010382	0.002531	0.047784	1.000000	-0.000076	0.000152	-0.000385
17947	0.076365	0.154524	9.885618	0.044986	0.022278	0.074305	1.000000	-0.000081	0.000158	-0.000383
17948	0.046327	0.148951	9.886454	0.015060	0.016722	0.074972	1.000000	-0.000077	0.000164	-0.000390
17949	0.045170	0.148827	9.886461	0.013916	0.016593	0.074973	1.000000	-0.000080	0.000160	-0.000386
17950	0.045102	0.139229	9.858738	0.013845	0.007436	0.047124	1.000000	-0.000084	0.000155	-0.000381
17951	0.048494	0.121212	9.895890	0.017002	-0.011000	0.084043	1.000000	-0.000088	0.000149	-0.000387
17952	0.042972	0.138900	9.858752	0.011564	0.007179	0.047127	1.000000	-0.000083	0.000150	-0.000389
17953	0.012979	0.133398	9.859566	-0.018354	0.001597	0.047772	1.000000	-0.000078	0.000158	-0.000386
17954	0.045975	0.111534	9.868179	0.014670	-0.020414	0.056197	1.000000	-0.000083	0.000158	-0.000388
17955	0.038325	0.147999	9.886503	0.007049	0.015815	0.074982	1.000000	-0.000079	0.000163	-0.000395
17956	0.042718	0.120679	9.895924	0.011297	-0.011648	0.084051	1.000000	-0.000081	0.000148	-0.000389
17957	0.008523	0.132895	9.859578	-0.022909	0.001056	0.047763	1.000000	-0.000076	0.000150	-0.000392
17958	0.007371	0.132764	9.859580	-0.024048	0.000920	0.047760	1.000000	-0.000080	0.000150	-0.000393
17959	0.034978	0.138042	9.858796	0.003583	0.006267	0.047134	1.000000	-0.000084	0.000151	-0.000384
17960	0.009515	0.114530	9.896735	-0.022043	-0.017657	0.084674	1.000000	-0.000088	0.000147	-0.000379
17961	0.055903	0.170318	9.848613	0.024665	0.038820	0.037449	1.000000	-0.000093	0.000164	-0.000379
17962	0.035922	0.119679	9.895963	0.004445	-0.012436	0.084055	1.000000	-0.000087	0.000142	-0.000388
17963	0.000617	0.141232	9.887327	-0.030883	0.009265	0.075596	1.000000	-0.000094	0.000157	-0.000397
17964	0.056759	0.152120	9.885787	0.025513	0.020133	0.074379	1.000000	-0.000088	0.000166	-0.000383
17965	0.004597	0.104372	9.869016	-0.026609	-0.027349	0.056808	1.000000	-0.000093	0.000160	-0.000389
17966	0.025711	0.146358	9.886568	-0.005548	0.014368	0.074985	1.000000	-0.000087	0.000163	-0.000380
17967	-0.004274	0.140610	9.887335	-0.035459	0.008720	0.075581	1.000000	-0.000101	0.000168	-0.000377
17968	0.058595	0.114871	9.867509	0.027518	-0.016716	0.055611	1.000000	-0.000096	0.000170	-0.000379
17969	0.027581	0.118690	9.896001	-0.003545	-0.013353	0.084055	1.000000	-0.000091	0.000172	-0.000370
17970	0.022122	0.136293	9.858857	-0.008957	0.004820	0.047131	1.000000	-0.000104	0.000161	-0.000370
17971	0.047609	0.160304	9.913580	0.016325	0.028252	0.102250	1.000000	-0.000108	0.000167	-0.000367
17972	0.024175	0.118037	9.896018	-0.006968	-0.013752	0.084052	1.000000	-0.000104	0.000173	-0.000375
17973	0.051769	0.123556	9.895281	0.020651	-0.008341	0.083475	1.000000	-0.000099	0.000169	-0.000371
17974	0.021940	0.117976	9.896024	-0.009251	-0.014019	0.084050	1.000000	-0.000093	0.000166	-0.000366
17975	0.045154	0.141127	9.858145	0.014108	0.009706	0.046556	1.000000	-0.000108	0.000170	-0.000374
17976	-0.007927	0.102576	9.869033	-0.039093	-0.028855	0.056762	1.000000	-0.000102	0.000160	-0.000374
17977	0.046264	0.132263	9.923043	0.014892	0.000153	0.111334	1.000000	-0.000117	0.000164	-0.000382
17978	0.047395	0.113383	9.867586	0.016152	-0.018000	0.055634	1.000000	-0.000101	0.000157	-0.000371
17979	0.016483	0.117260	9.896043	-0.014949	-0.014691	0.084042	1.000000	-0.000095	0.000154	-0.000367
17980	0.068431	0.146205	9.857458	0.037166	0.014628	0.046011	1.000000	-0.000091	0.000159	-0.000375
17981	0.038460	0.140576	9.858181	0.007270	0.008926	0.046564	1.000000	-0.000086	0.000162	-0.000366
17982	0.041783	0.122658	9.895339	0.010385	-0.009509	0.083490	1.000000	-0.000089	0.000152	-0.000366
17983	0.035143	0.149720	9.885924	0.003766	0.017672	0.074416	1.000000	-0.000085	0.000159	-0.000363
17984	0.005231	0.144074	9.886633	-0.026131	0.011947	0.074955	1.000000	-0.000080	0.000154	-0.000369
17985	0.039556	0.113000	9.867625	0.008201	-0.018906	0.055642	1.000000	-0.000084	0.000156	-0.000360
17986	0.037240	0.122161	9.895364	0.005825	-0.010030	0.083494	1.000000	-0.000088	0.000156	-0.000361
17987	0.030606	0.149035	9.885950	-0.000811	0.017150	0.074418	1.000000	-0.000102	0.000151	-0.000356
17988	0.029441	0.148995	9.885954	-0.001955	0.017017	0.074418	1.000000	-0.000079	0.000158	-0.000364
17989	0.063740	0.118031	9.866961	0.032404	-0.013810	0.055123	1.000000	-0.000092	0.000153	-0.000360
17990	0.027181	0.148646	9.885965	-0.004242	0.016753	0.074418	1.000000	-0.000097	0.000153	-0.000361
17991	0.020477	0.175599	9.876549	-0.010890	0.043928	0.065340	1.000000	-0.000102	0.000153	-0.000363
17992	0.053609	0.153846	9.885300	0.022218	0.022119	0.073906	1.000000	-0.000106	0.000155	-0.000353
17993	0.030503	0.111443	9.867675	-0.000889	-0.019952	0.055644	1.000000	-0.000109	0.000151	-0.000349
17994	0.029407	0.111227	9.867681	-0.002025	-0.020084	0.055643	1.000000	-0.000114	0.000151	-0.000351
17995	0.027085	0.120658	9.895415	-0.004447	-0.011215	0.083493	1.000000	-0.000090	0.000149	-0.000347
17996	0.055864	0.116907	9.867022	0.024442	-0.014702	0.055144	1.000000	-0.000105	0.000153	-0.000355
17997	0.024552	0.120375	9.895425	-0.006730	-0.011482	0.083491	1.000000	-0.000100	0.000173	-0.000343
17998	0.018784	0.138128	9.858273	-0.012103	0.006685	0.046561	1.000000	-0.000096	0.000180	-0.000340
17999	0.046290	0.143673	9.857624	0.015497	0.012211	0.046072	1.000000	-0.000100	0.000182	-0.000332
18000	0.020851	0.120077	9.895437	-0.010153	-0.011885	0.083488	1.000000	-0.000094	0.000172	-0.000332
18001	0.014182	0.147314	9.886013	-0.016834	0.015279	0.074407	1.000000	-0.000080	0.000176	-0.000324
18002	0.047233	0.125777	9.894799	0.016302	-0.006479	0.083008	1.000000	-0.000086	0.000185	-0.000338
18003	0.017419	0.119863	9.895447	-0.013580	-0.012288	0.083483	1.000000	-0.000089	0.000170	-0.000332
18004	0.039497	0.152517	9.885387	0.008468	0.020557	0.073930	1.000000	-0.000094	0.000176	-0.000329
18005	0.017705	0.100784	9.839991	-0.013206	-0.030548	0.027780	1.000000	-0.000089	0.000171	-0.000335
18006	0.065974	0.157960	9.884770	0.034913	0.025987	0.073469	1.000000	-0.000094	0.000171	-0.000337
18007	0.014223	0.109878	9.867729	-0.016806	-0.021823	0.055626	1.000000	-0.000089	0.000172	-0.000339
18008	0.034932	0.151986	9.885413	0.003889	0.020031	0.073934	1.000000	-0.000094	0.000172	-0.000341
18009	0.039318	0.124778	9.894846	0.008309	-0.007393	0.083017	1.000000	-0.000080	0.000180	-0.000338
18010	0.033871	0.142539	9.857691	0.002953	0.010774	0.046086	1.000000	-0.000084	0.000168	-0.000349
18011	0.004186	0.136589	9.858311	-0.026919	0.004928	0.046533	1.000000	-0.000089	0.000162	-0.000355
18012	0.031767	0.142093	9.857704	0.000672	0.010512	0.046086	1.000000	-0.000094	0.000169	-0.000352
18013	0.063751	0.129807	9.894264	0.032471	-0.002193	0.082580	1.000000	-0.000098	0.000156	-0.000363
18014	0.033997	0.123937	9.894876	0.002601	-0.008049	0.083020	1.000000	-0.000094	0.000157	-0.000365
18015	0.062902	0.120200	9.866549	0.031560	-0.011438	0.054737	1.000000	-0.000098	0.000153	-0.000361
18016	0.003068	0.117837	9.895486	-0.028409	-0.014052	0.083450	1.000000	-0.000102	0.000153	-0.000363
18017	0.030583	0.123360	9.894895	-0.000824	-0.008447	0.083020	1.000000	-0.000107	0.000159	-0.000360
18018	0.066328	0.083119	9.848275	0.035129	-0.048095	0.035982	1.000000	-0.000102	0.000162	-0.000351
18019	0.021278	0.159529	9.913208	-0.010097	0.027558	0.101784	1.000000	-0.000115	0.000157	-0.000347
18020	0.027180	0.122803	9.894911	-0.004249	-0.008847	0.083019	1.000000	-0.000110	0.000153	-0.000343
18021	0.044855	0.173501	9.847742	0.013529	0.042364	0.036585	1.000000	-0.000105	0.000148	-0.000349
18022	0.024961	0.122724	9.894918	-0.006531	-0.009111	0.083017	1.000000	-0.000101	0.000156	-0.000346
18023	0.048063	0.146259	9.857185	0.016847	0.014824	0.045675	1.000000	-0.000097	0.000163	-0.000343
18024	0.052573	0.118972	9.866624	0.021319	-0.012587	0.054763	1.000000	-0.000102	0.000157	-0.000349
18025	0.050146	0.128194	9.894363	0.018759	-0.003731	0.082615	1.000000	-0.000097	0.000158	-0.000351
18026	0.048852	0.128240	9.894369	0.017618	-0.003860	0.082617	1.000000	-0.000084	0.000172	-0.000344
18027	0.047654	0.128097	9.894377	0.016476	-0.003989	0.082619	1.000000	-0.000098	0.000163	-0.000361
18028	0.017834	0.122048	9.894942	-0.013382	-0.009911	0.083009	1.000000	-0.000095	0.000169	-0.000369
18029	0.041070	0.145520	9.857228	0.010002	0.014048	0.045685	1.000000	-0.000099	0.000164	-0.000364
18030	0.016998	0.112252	9.867220	-0.014221	-0.019160	0.055157	1.000000	-0.000112	0.000159	-0.000360
18031	0.071995	0.133030	9.893861	0.040620	0.001301	0.082246	1.000000	-0.000107	0.000156	-0.000355
18032	0.009085	0.139143	9.857793	-0.022133	0.007849	0.046064	1.000000	-0.000103	0.000163	-0.000352
18033	0.040894	0.127032	9.894420	0.009623	-0.004768	0.082627	1.000000	-0.000108	0.000163	-0.000355
18034	0.036792	0.135353	9.829531	0.005762	0.004418	0.017841	1.000000	-0.000103	0.000166	-0.000346
18035	0.009815	0.120831	9.894968	-0.021369	-0.010853	0.082994	1.000000	-0.000118	0.000170	-0.000353
18036	0.061742	0.150181	9.856745	0.030729	0.018962	0.045329	1.000000	-0.000103	0.000169	-0.000338
18037	0.007553	0.120848	9.894970	-0.023650	-0.011123	0.082989	1.000000	-0.000089	0.000165	-0.000344
18038	0.058088	0.159646	9.884488	0.026967	0.027685	0.073185	1.000000	-0.000094	0.000171	-0.000342
18039	0.005223	0.120662	9.894974	-0.025929	-0.011393	0.082983	1.000000	-0.000089	0.000168	-0.000337
18040	0.034119	0.117033	9.866728	0.003125	-0.014659	0.054783	1.000000	-0.000095	0.000178	-0.000340
18041	0.055902	0.149807	9.856786	0.025028	0.018331	0.045347	1.000000	-0.000099	0.000174	-0.000335
18042	0.024781	0.153164	9.885034	-0.006316	0.021321	0.073540	1.000000	-0.000094	0.000165	-0.000335
18043	0.023581	0.153015	9.885040	-0.007462	0.021191	0.073539	1.000000	-0.000101	0.000180	-0.000344
18044	0.029456	0.116567	9.866749	-0.001421	-0.015181	0.054782	1.000000	-0.000077	0.000178	-0.000340
18045	0.057037	0.122413	9.866253	0.026139	-0.009445	0.054451	1.000000	-0.000091	0.000177	-0.000342
18046	0.025785	0.125453	9.894492	-0.005216	-0.006475	0.082630	1.000000	-0.000106	0.000176	-0.000344
18047	0.024536	0.125208	9.894498	-0.006361	-0.006608	0.082629	1.000000	-0.000102	0.000188	-0.000348
18048	0.023279	0.125056	9.894503	-0.007502	-0.006742	0.082628	1.000000	-0.000107	0.000188	-0.000349
18049	0.050827	0.130725	9.894023	0.020052	-0.000987	0.082309	1.000000	-0.000112	0.000188	-0.000351
18050	0.022430	0.115435	9.866781	-0.008251	-0.015977	0.054778	1.000000	-0.000099	0.000190	-0.000353
18051	0.045493	0.139085	9.829137	0.015149	0.008080	0.017523	1.000000	-0.000105	0.000208	-0.000341
18052	0.019716	0.115220	9.866789	-0.010524	-0.016242	0.054775	1.000000	-0.000101	0.000214	-0.000349
18053	0.047327	0.120909	9.866323	0.017031	-0.010471	0.054469	1.000000	-0.000115	0.000202	-0.000349
18054	0.044851	0.130127	9.894060	0.014339	-0.001634	0.082319	1.000000	-0.000100	0.000200	-0.000345
18055	0.010764	0.141953	9.857360	-0.019646	0.010611	0.045675	1.000000	-0.000105	0.000200	-0.000347
18056	0.021152	0.087460	9.876244	-0.009354	-0.044037	0.063864	1.000000	-0.000110	0.000200	-0.000349
18057	0.008499	0.141588	9.857367	-0.021923	0.010342	0.045670	1.000000	-0.000104	0.000199	-0.000333
18058	0.041742	0.120258	9.866356	0.011349	-0.011121	0.054477	1.000000	-0.000111	0.000208	-0.000347
18059	0.040645	0.120213	9.866361	0.010213	-0.011252	0.054478	1.000000	-0.000096	0.000195	-0.000342
18060	0.039601	0.120085	9.866367	0.009075	-0.011383	0.054479	1.000000	-0.000111	0.000198	-0.000349
18061	0.032576	0.146966	9.856933	0.002204	0.015745	0.045383	1.000000	-0.000107	0.000205	-0.000346
18062	0.035740	0.129039	9.894111	0.005207	-0.002678	0.082328	1.000000	-0.000111	0.000195	-0.000346
18063	0.034692	0.128910	9.894116	0.004061	-0.002807	0.082328	1.000000	-0.000107	0.000196	-0.000348
18064	0.063722	0.125417	9.865957	0.033204	-0.005945	0.054215	1.000000	-0.000111	0.000198	-0.000339
18065	0.032396	0.128648	9.894127	0.001776	-0.003070	0.082329	1.000000	-0.000106	0.000194	-0.000334
18066	0.054282	0.161534	9.884262	0.023569	0.030009	0.072970	1.000000	-0.000120	0.000183	-0.000334
18067	0.030312	0.128115	9.894141	-0.000510	-0.003333	0.082329	1.000000	-0.000125	0.000189	-0.000331
18068	0.088146	0.130550	9.865572	0.057328	-0.000478	0.053975	1.000000	-0.000128	0.000174	-0.000325
18069	0.023841	0.145549	9.856979	-0.006926	0.014692	0.045382	1.000000	-0.000126	0.000190	-0.000335
18070	0.026844	0.127777	9.894155	-0.003934	-0.003730	0.082328	1.000000	-0.000113	0.000186	-0.000341
18071	0.025777	0.127830	9.894158	-0.005077	-0.003860	0.082327	1.000000	-0.000108	0.000182	-0.000336
18072	0.020400	0.145579	9.856987	-0.010348	0.014295	0.045380	1.000000	-0.000103	0.000183	-0.000338
18073	0.023540	0.127744	9.894164	-0.007360	-0.004127	0.082326	1.000000	-0.000098	0.000180	-0.000333
18074	0.045278	0.160739	9.884321	0.014399	0.028982	0.072991	1.000000	-0.000104	0.000180	-0.000335
18075	0.022799	0.118046	9.866445	-0.007993	-0.013347	0.054477	1.000000	-0.000109	0.000186	-0.000333
18076	0.020039	0.127413	9.894176	-0.010786	-0.004528	0.082323	1.000000	-0.000085	0.000185	-0.000328
18077	0.047561	0.133497	9.893785	0.016744	0.001352	0.082098	1.000000	-0.000090	0.000186	-0.000319
18078	0.017673	0.127233	9.894183	-0.013070	-0.004796	0.082320	1.000000	-0.000096	0.000193	-0.000316
18079	0.046725	0.123710	9.866073	0.016129	-0.007859	0.054256	1.000000	-0.000101	0.000193	-0.000318
18080	0.072707	0.138933	9.893427	0.041986	0.006988	0.081891	1.000000	-0.000096	0.000188	-0.000325
18081	0.042923	0.132849	9.893815	0.012173	0.000834	0.082105	1.000000	-0.000092	0.000190	-0.000315
18082	0.014607	0.117324	9.866469	-0.015953	-0.014282	0.054466	1.000000	-0.000099	0.000199	-0.000329
18083	0.036340	0.150252	9.856653	0.005773	0.018861	0.045158	1.000000	-0.000102	0.000184	-0.000323
18084	0.010873	0.126269	9.894205	-0.019921	-0.005602	0.082308	1.000000	-0.000099	0.000190	-0.000331
18085	0.061112	0.165447	9.884027	0.030457	0.033597	0.072810	1.000000	-0.000094	0.000192	-0.000322
18086	0.037079	0.132135	9.893848	0.006459	0.000183	0.082111	1.000000	-0.000100	0.000199	-0.000319
18087	0.035875	0.131896	9.893856	0.005318	0.000053	0.082111	1.000000	-0.000105	0.000199	-0.000320
18088	0.034776	0.131668	9.893863	0.004176	-0.000079	0.082112	1.000000	-0.000110	0.000194	-0.000316
18089	0.039529	0.104343	9.903319	0.008854	-0.027437	0.091218	1.000000	-0.000115	0.000196	-0.000306
18090	0.028248	0.149189	9.856696	-0.002215	0.017947	0.045161	1.000000	-0.000101	0.000198	-0.000308
18091	0.032929	0.121932	9.866151	0.002471	-0.009412	0.054267	1.000000	-0.000117	0.000202	-0.000316
18092	0.030052	0.130987	9.893887	-0.000397	-0.000602	0.082113	1.000000	-0.000114	0.000207	-0.000324
18093	0.028889	0.130933	9.893891	-0.001546	-0.000732	0.082112	1.000000	-0.000109	0.000203	-0.000319
18094	0.029475	0.121587	9.866166	-0.000948	-0.009806	0.054267	1.000000	-0.000104	0.000200	-0.000315
18095	0.026635	0.130849	9.893899	-0.003834	-0.000997	0.082112	1.000000	-0.000100	0.000207	-0.000312
18096	0.025411	0.130791	9.893903	-0.004976	-0.001131	0.082111	1.000000	-0.000096	0.000208	-0.000314
18097	0.025960	0.121351	9.866179	-0.004365	-0.010204	0.054266	1.000000	-0.000100	0.000205	-0.000299
18098	0.059287	0.100321	9.875315	0.029002	-0.031452	0.063222	1.000000	-0.000089	0.000216	-0.000313
18099	0.050608	0.136676	9.893596	0.020248	0.004580	0.081961	1.000000	-0.000092	0.000201	-0.000307
18100	0.021054	0.130232	9.893921	-0.009545	-0.001666	0.082108	1.000000	-0.000107	0.000192	-0.000324
18101	0.044286	0.153999	9.856432	0.013874	0.022602	0.045012	1.000000	-0.000094	0.000207	-0.000318
18102	0.053173	0.109071	9.903074	0.022684	-0.023032	0.091077	1.000000	-0.000098	0.000202	-0.000314
18103	0.047907	0.126639	9.865900	0.017457	-0.004877	0.054125	1.000000	-0.000103	0.000198	-0.000310
18104	0.046802	0.126504	9.865907	0.016319	-0.005007	0.054127	1.000000	-0.000099	0.000199	-0.000311
18105	0.009371	0.156688	9.884485	-0.021132	0.024879	0.072990	1.000000	-0.000095	0.000200	-0.000312
18106	0.073135	0.132467	9.865625	0.042686	0.000881	0.054006	1.000000	-0.000101	0.000200	-0.000314
18107	0.041670	0.135471	9.893655	0.011103	0.003540	0.081976	1.000000	-0.000096	0.000196	-0.000310
18108	0.070985	0.132206	9.865644	0.040408	0.000629	0.054016	1.000000	-0.000101	0.000190	-0.000316
18109	0.041251	0.125807	9.865941	0.010627	-0.005654	0.054134	1.000000	-0.000106	0.000192	-0.000307
18110	0.067043	0.141061	9.893394	0.036316	0.009308	0.081868	1.000000	-0.000110	0.000188	-0.000303
18111	0.031357	0.161830	9.884226	0.000636	0.030228	0.072867	1.000000	-0.000106	0.000189	-0.000305
18112	0.007553	0.128419	9.893964	-0.023253	-0.003288	0.082085	1.000000	-0.000111	0.000184	-0.000301
18113	0.063722	0.140567	9.893423	0.032882	0.008930	0.081880	1.000000	-0.000116	0.000184	-0.000302
18114	0.028084	0.161236	9.884246	-0.002802	0.029833	0.072868	1.000000	-0.000120	0.000175	-0.000291
18115	0.034673	0.124632	9.865981	0.003796	-0.006437	0.054139	1.000000	-0.000126	0.000181	-0.000289
18116	0.033507	0.124490	9.865987	0.002658	-0.006569	0.054139	1.000000	-0.000121	0.000178	-0.000284
18117	0.061084	0.130655	9.865731	0.030154	-0.000506	0.054052	1.000000	-0.000117	0.000173	-0.000291
18118	0.007026	0.100404	9.903436	-0.024187	-0.031311	0.091181	1.000000	-0.000112	0.000163	-0.000291
18119	0.026915	0.142862	9.921454	-0.004470	0.010887	0.109825	1.000000	-0.000116	0.000159	-0.000287
18120	0.057994	0.130267	9.865755	0.026735	-0.000888	0.054062	1.000000	-0.000122	0.000159	-0.000288
18121	0.020481	0.160256	9.884281	-0.010826	0.028902	0.072865	1.000000	-0.000119	0.000158	-0.000301
18122	0.084328	0.136294	9.865527	0.053086	0.005074	0.053998	1.000000	-0.000114	0.000161	-0.000292
18123	0.026061	0.123707	9.866019	-0.005315	-0.007490	0.054137	1.000000	-0.000118	0.000146	-0.000286
18124	0.051609	0.139173	9.893513	0.020297	0.007523	0.081915	1.000000	-0.000108	0.000175	-0.000286
18125	0.021606	0.132762	9.893756	-0.009478	0.001163	0.081978	1.000000	-0.000121	0.000169	-0.000283
18126	0.071756	0.172014	9.883844	0.040689	0.040697	0.072746	1.000000	-0.000126	0.000171	-0.000274
18127	0.019280	0.132200	9.893768	-0.011762	0.000893	0.081975	1.000000	-0.000132	0.000177	-0.000271
18128	0.048518	0.129010	9.865823	0.017616	-0.001917	0.054082	1.000000	-0.000129	0.000177	-0.000284
18129	0.016992	0.131772	9.893778	-0.014048	0.000625	0.081973	1.000000	-0.000145	0.000172	-0.000307
18130	0.042125	0.146206	9.828655	0.011290	0.016105	0.017126	1.000000	-0.000149	0.000176	-0.000288
18131	0.092166	0.186152	9.911429	0.061663	0.055236	0.100572	1.000000	-0.000178	0.000229	-0.000392
18132	-0.011544	0.371425	9.873400	-0.040372	0.241877	0.064659	0.999999	-0.000228	0.000303	-0.000993
18133	-0.019684	-0.142943	9.859160	-0.049080	-0.271934	0.043656	0.999999	-0.000207	0.000257	-0.000955
18134	0.029734	0.039285	9.894460	0.000069	-0.090548	0.081481	1.000000	-0.000201	0.000249	-0.000944
18135	0.055647	0.187128	9.846784	0.026322	0.057837	0.035826	1.000000	-0.000205	0.000248	-0.000918
18136	0.043947	0.099393	9.875361	0.014482	-0.030147	0.063215	1.000000	-0.000211	0.000260	-0.000911
18137	0.034728	0.135373	9.893639	0.005429	0.005831	0.081936	1.000000	-0.000227	0.000264	-0.000919
18138	0.033619	0.135230	9.893645	0.004287	0.005700	0.081937	1.000000	-0.000212	0.000257	-0.000908
18139	0.034460	0.126017	9.865921	0.005087	-0.003340	0.054096	1.000000	-0.000208	0.000253	-0.000904
18140	0.035500	0.117338	9.930841	0.006031	-0.012839	0.118900	1.000000	-0.000215	0.000268	-0.000914
18141	0.031998	0.125695	9.865933	0.002812	-0.003600	0.054097	1.000000	-0.000210	0.000260	-0.000903
18142	0.008462	0.092243	9.875568	-0.020943	-0.037225	0.063222	1.000000	-0.000206	0.000255	-0.000909
18143	0.050679	0.168299	9.884038	0.021185	0.038546	0.072816	1.000000	-0.000201	0.000240	-0.000914
18144	0.051581	0.158987	9.856317	0.022008	0.029510	0.044978	1.000000	-0.000197	0.000241	-0.000915
18145	-0.000837	0.118994	9.866112	-0.030347	-0.010440	0.054090	0.999999	-0.000208	0.000257	-0.000953
18146	0.061184	0.104479	9.875260	0.031734	-0.025112	0.063232	0.999999	-0.000206	0.000253	-0.000986
18147	0.025433	0.125203	9.865958	-0.004015	-0.004383	0.054096	0.999999	-0.000189	0.000250	-0.001059
18148	0.063143	0.086691	9.912462	0.033487	-0.043642	0.100203	0.999999	-0.000200	0.000255	-0.001133
18149	-0.037603	-0.002013	9.904266	-0.068041	-0.132384	0.090531	0.999999	-0.000147	0.000194	-0.001432
18150	0.321308	0.136345	9.883389	0.290627	0.004282	0.072591	0.999998	-0.000126	0.000187	-0.002069
18151	0.018907	0.268055	9.911132	-0.010069	0.136873	0.101137	0.999995	-0.000163	0.000303	-0.003155
18152	-0.138494	0.155808	9.875453	-0.166771	0.026474	0.063523	0.999994	-0.000154	0.000302	-0.003568
18153	0.011288	0.152071	9.856512	-0.016880	0.022021	0.044965	0.999993	-0.000167	0.000310	-0.003763
18154	0.014311	0.134027	9.893708	-0.014006	0.003617	0.081929	0.999993	-0.000169	0.000312	-0.003831
18155	0.013103	0.133891	9.893712	-0.015152	0.003493	0.081927	0.999993	-0.000167	0.000317	-0.003838
18156	0.055599	0.077732	9.884792	0.026404	-0.053517	0.072386	0.999992	-0.000104	0.000258	-0.003879
18157	0.017425	0.117531	9.930887	-0.013429	-0.015038	0.118890	0.999992	-0.000065	0.000134	-0.004081
18158	0.093662	0.182683	9.883816	0.061154	0.049419	0.072948	0.999990	-0.000035	0.000021	-0.004379
18159	-0.026780	0.183506	9.874869	-0.060418	0.050950	0.063607	0.999990	-0.000017	0.000013	-0.004560
18160	0.015587	0.127112	9.865954	-0.018828	-0.006037	0.054078	0.999990	-0.000000	-0.000009	-0.004541
18161	0.071651	0.140386	9.865701	0.037212	0.006620	0.054200	0.999990	-0.000006	-0.000002	-0.004529
18162	0.034533	0.159984	9.856376	0.001423	0.027279	0.045009	0.999990	-0.000062	0.000103	-0.004525
18163	0.092690	0.154261	9.893380	0.061460	0.021685	0.082115	0.999990	-0.000124	0.000207	-0.004495
18164	-0.018453	0.099360	9.903302	-0.047975	-0.031218	0.090964	0.999990	-0.000175	0.000328	-0.004422
18165	0.031881	0.129914	9.865922	0.004058	-0.000256	0.054141	0.999990	-0.000162	0.000340	-0.004399
18166	0.030601	0.129949	9.865926	0.002918	-0.000379	0.054141	0.999990	-0.000158	0.000342	-0.004390
18167	0.027343	0.139038	9.893655	-0.000297	0.008391	0.081979	0.999990	-0.000164	0.000344	-0.004381
18168	0.063108	0.109331	9.875326	0.035301	-0.021368	0.063359	0.999990	-0.000160	0.000347	-0.004372
18169	0.004851	0.095809	9.875493	-0.023002	-0.034339	0.063185	0.999990	-0.000168	0.000351	-0.004380
18170	0.052372	0.145149	9.893597	0.024853	0.014452	0.082071	0.999990	-0.000172	0.000342	-0.004369
18171	0.037395	0.075276	9.884896	0.009394	-0.055319	0.072407	0.999990	-0.000152	0.000362	-0.004368
18172	0.021401	0.138423	9.893678	-0.006018	0.007773	0.081978	0.999990	-0.000165	0.000347	-0.004351
18173	0.057253	0.108661	9.875369	0.029611	-0.021956	0.063376	0.999990	-0.000162	0.000360	-0.004344
18174	0.014747	0.155759	9.856493	-0.012297	0.025797	0.045006	0.999990	-0.000169	0.000360	-0.004346
18175	0.042116	0.162295	9.856439	0.015139	0.032126	0.045114	0.999990	-0.000166	0.000361	-0.004348
18176	0.016578	0.137753	9.893697	-0.010597	0.007273	0.081974	0.999990	-0.000164	0.000373	-0.004352
18177	-0.013195	0.130856	9.893752	-0.040313	0.000684	0.081857	0.999990	-0.000171	0.000373	-0.004354
18178	0.016289	0.128260	9.865982	-0.010755	-0.001864	0.054136	0.999990	-0.000158	0.000375	-0.004355
18179	0.021569	0.101207	9.875460	-0.005783	-0.029147	0.063270	0.999990	-0.000164	0.000369	-0.004362
18180	0.011897	0.137340	9.893709	-0.015171	0.006768	0.081969	0.999990	-0.000152	0.000377	-0.004360
18181	0.043571	0.125457	9.838231	0.016540	-0.004642	0.026425	0.999990	-0.000166	0.000367	-0.004349
18182	0.009764	0.136954	9.893717	-0.017457	0.006516	0.081965	0.999990	-0.000162	0.000363	-0.004345
18183	0.037156	0.143626	9.893688	0.009971	0.012880	0.082099	0.999990	-0.000159	0.000365	-0.004346
18184	0.009640	0.127577	9.866000	-0.017587	-0.002619	0.054126	0.999990	-0.000156	0.000366	-0.004348
18185	0.041280	0.116420	9.903177	0.013812	-0.014516	0.091240	0.999990	-0.000162	0.000361	-0.004344
18186	0.005374	0.136496	9.893727	-0.022030	0.006008	0.081956	0.999990	-0.000157	0.000351	-0.004344
18187	0.061192	0.149832	9.893693	0.033958	0.018898	0.082253	0.999990	-0.000166	0.000366	-0.004354
18188	0.031407	0.143075	9.893716	0.004248	0.012267	0.082104	0.999990	-0.000144	0.000365	-0.004349
18189	0.038847	0.106912	9.875477	0.011425	-0.023884	0.063410	0.999990	-0.000149	0.000367	-0.004341
18190	0.059812	0.140594	9.865994	0.032701	0.009662	0.054431	0.999991	-0.000136	0.000364	-0.004337
18191	0.034419	0.116012	9.903208	0.006964	-0.015252	0.091246	0.999991	-0.000143	0.000364	-0.004339
18192	0.035524	0.106624	9.875493	0.008015	-0.024251	0.063412	0.999990	-0.000139	0.000359	-0.004345
18193	0.025779	0.142754	9.893737	-0.001472	0.011648	0.082106	0.999991	-0.000135	0.000363	-0.004325
18194	0.026795	0.133375	9.866022	-0.000415	0.002649	0.054272	0.999991	-0.000142	0.000363	-0.004327
18195	0.045464	0.176090	9.884275	0.018634	0.045085	0.073140	0.999991	-0.000149	0.000370	-0.004325
18196	0.059266	0.112675	9.875529	0.032030	-0.018193	0.063594	0.999991	-0.000155	0.000376	-0.004322
18197	0.016695	0.159545	9.856560	-0.010000	0.029417	0.045129	0.999991	-0.000161	0.000377	-0.004313
18198	0.056935	0.112271	9.875548	0.029756	-0.018431	0.063600	0.999991	-0.000157	0.000374	-0.004309
18199	0.020946	0.132277	9.866051	-0.006109	0.002026	0.054270	0.999991	-0.000163	0.000369	-0.004305
18200	0.054936	0.111902	9.875563	0.027481	-0.018671	0.063607	0.999991	-0.000167	0.000354	-0.004299
18201	0.018953	0.131806	9.866061	-0.008387	0.001781	0.054269	0.999991	-0.000174	0.000360	-0.004296
18202	0.050544	0.120637	9.903300	0.022969	-0.010038	0.091445	0.999991	-0.000179	0.000351	-0.004285
18203	0.025519	0.095244	9.847833	-0.002233	-0.034473	0.035579	0.999991	-0.000175	0.000348	-0.004281
18204	0.041913	0.147383	9.893830	0.014494	0.016857	0.082305	0.999991	-0.000173	0.000353	-0.004289
18205	0.047156	0.120253	9.903321	0.019550	-0.010398	0.091452	0.999991	-0.000179	0.000355	-0.004280
18206	0.041770	0.137842	9.866126	0.014465	0.007749	0.054476	0.999991	-0.000176	0.000358	-0.004271
18207	0.018613	0.103981	9.875568	-0.009017	-0.026101	0.063407	0.999991	-0.000172	0.000354	-0.004266
18208	0.045883	0.110746	9.875622	0.018389	-0.019624	0.063626	0.999991	-0.000170	0.000366	-0.004269
18209	0.042408	0.119784	9.903349	0.014984	-0.010880	0.091459	0.999991	-0.000176	0.000362	-0.004264
18210	0.043703	0.110245	9.875638	0.016116	-0.019865	0.063629	0.999991	-0.000191	0.000350	-0.004265
18211	0.014005	0.103302	9.875582	-0.013559	-0.026601	0.063400	0.999991	-0.000171	0.000370	-0.004263
18212	0.041332	0.110087	9.875650	0.013843	-0.020107	0.063632	0.999991	-0.000185	0.000352	-0.004268
18213	0.031480	0.146078	9.893888	0.004195	0.015758	0.082316	0.999991	-0.000174	0.000364	-0.004272
18214	0.039093	0.109844	9.875662	0.011568	-0.020353	0.063635	0.999991	-0.000180	0.000354	-0.004273
18215	0.057757	0.152630	9.893975	0.030440	0.022145	0.082561	0.999991	-0.000186	0.000354	-0.004274
18216	0.036920	0.109425	9.875675	0.009294	-0.020596	0.063637	0.999991	-0.000184	0.000354	-0.004276
18217	0.033343	0.118627	9.903397	0.005848	-0.011861	0.091468	0.999991	-0.000173	0.000367	-0.004280
18218	-0.000580	0.129381	9.866111	-0.027751	-0.000366	0.054233	0.999991	-0.000180	0.000367	-0.004282
18219	0.055263	0.143014	9.866290	0.028168	0.012810	0.054746	0.999991	-0.000176	0.000363	-0.004278
18220	0.027494	0.127492	9.931130	0.000099	-0.003376	0.119298	0.999991	-0.000174	0.000369	-0.004286
18221	0.024484	0.135860	9.866211	-0.002645	0.005913	0.054488	0.999991	-0.000180	0.000364	-0.004281
18222	0.062595	0.097844	9.913011	0.034913	-0.032932	0.100888	0.999991	-0.000186	0.000359	-0.004277
18223	0.020053	0.144569	9.893940	-0.007262	0.014519	0.082316	0.999991	-0.000191	0.000355	-0.004273
18224	0.025461	0.117464	9.903434	-0.002150	-0.012725	0.091468	0.999991	-0.000189	0.000356	-0.004275
18225	0.048663	0.141963	9.866340	0.021315	0.012095	0.054764	0.999991	-0.000195	0.000349	-0.004281
18226	0.019187	0.134978	9.866235	-0.008349	0.005291	0.054485	0.999991	-0.000181	0.000343	-0.004271
18227	0.018028	0.135010	9.866237	-0.009491	0.005167	0.054484	0.999991	-0.000178	0.000351	-0.004257
18228	0.051762	0.114737	9.875852	0.024160	-0.015380	0.063925	0.999991	-0.000195	0.000355	-0.004265
18229	0.041692	0.150595	9.894087	0.014385	0.020463	0.082601	0.999991	-0.000193	0.000355	-0.004267
18230	0.018602	0.116631	9.903460	-0.009004	-0.013473	0.091463	0.999991	-0.000190	0.000356	-0.004269
18231	0.035241	0.168187	9.856890	0.008184	0.038484	0.045622	0.999991	-0.000186	0.000353	-0.004265
18232	0.016354	0.116490	9.903465	-0.011288	-0.013724	0.091461	0.999991	-0.000183	0.000355	-0.004256
18233	0.017479	0.107223	9.875752	-0.010049	-0.022694	0.063631	0.999991	-0.000180	0.000364	-0.004242
18234	0.026831	0.186444	9.912335	-0.000021	0.055809	0.101280	0.999991	-0.000168	0.000366	-0.004244
18235	0.043597	0.114123	9.875898	0.016189	-0.016222	0.063940	0.999991	-0.000175	0.000360	-0.004251
18236	0.036004	0.140895	9.866410	0.008755	0.010764	0.054784	0.999991	-0.000171	0.000356	-0.004246
18237	0.034839	0.140727	9.866416	0.007613	0.010642	0.054785	0.999991	-0.000178	0.000362	-0.004244
18238	0.040233	0.113632	9.875918	0.012773	-0.016587	0.063944	0.999991	-0.000175	0.000359	-0.004240
18239	0.060978	0.147374	9.866584	0.033840	0.017137	0.055113	0.999991	-0.000183	0.000363	-0.004248
18240	0.035500	0.122369	9.903648	0.008084	-0.007990	0.091773	0.999991	-0.000189	0.000363	-0.004250
18241	0.005814	0.115291	9.903491	-0.021566	-0.014861	0.091442	0.999991	-0.000177	0.000373	-0.004236
18242	0.028990	0.139870	9.866448	0.001905	0.010028	0.054789	0.999991	-0.000192	0.000361	-0.004236
18243	0.034396	0.112577	9.875952	0.007081	-0.017195	0.063949	0.999991	-0.000201	0.000376	-0.004246
18244	0.026662	0.139417	9.866461	-0.000378	0.009783	0.054789	0.999991	-0.000187	0.000363	-0.004240
18245	0.032294	0.112439	9.875961	0.004803	-0.017440	0.063950	0.999991	-0.000194	0.000356	-0.004246
18246	0.048234	0.164580	9.922075	0.020957	0.033983	0.110789	0.999991	-0.000190	0.000353	-0.004242
18247	0.023566	0.139033	9.866474	-0.003804	0.009412	0.054789	0.999991	-0.000197	0.000353	-0.004244
18248	0.052542	0.137416	9.931588	0.024987	0.006643	0.119957	0.999991	-0.000185	0.000355	-0.004246
18249	0.056370	0.118998	9.876167	0.028747	-0.011146	0.064310	0.999991	-0.000190	0.000346	-0.004235
18250	0.048819	0.145778	9.866675	0.021267	0.015829	0.055150	0.999991	-0.000186	0.000336	-0.004235
18251	0.025790	0.111636	9.875989	-0.002028	-0.018180	0.063950	0.999991	-0.000195	0.000351	-0.004245
18252	0.022076	0.120620	9.903708	-0.005634	-0.009472	0.091774	0.999991	-0.000192	0.000347	-0.004241
18253	-0.011568	0.131243	9.866297	-0.039148	0.001861	0.054412	0.999991	-0.000188	0.000344	-0.004236
18254	0.044242	0.145191	9.866706	0.016697	0.015348	0.055160	0.999991	-0.000194	0.000339	-0.004232
18255	0.014748	0.137977	9.866506	-0.012938	0.008416	0.054782	0.999991	-0.000191	0.000335	-0.004227
18256	0.055237	0.091136	9.885721	0.027130	-0.039072	0.073494	0.999991	-0.000189	0.000342	-0.004224
18257	0.009964	0.146906	9.894225	-0.017712	0.016993	0.082603	0.999991	-0.000194	0.000333	-0.004214
18258	0.039834	0.144555	9.866734	0.012127	0.014864	0.055167	0.999991	-0.000201	0.000333	-0.004216
18259	0.033619	0.162808	9.922164	0.005983	0.032398	0.110815	0.999991	-0.000189	0.000341	-0.004213
18260	0.044170	0.117494	9.876247	0.016215	-0.012466	0.064337	0.999991	-0.000194	0.000326	-0.004208
18261	0.008116	0.137166	9.866525	-0.019785	0.007659	0.054771	0.999991	-0.000191	0.000327	-0.004209
18262	0.028749	0.171073	9.857253	0.001178	0.041461	0.046005	0.999991	-0.000189	0.000328	-0.004211
18263	0.040862	0.117175	9.876265	0.012797	-0.012831	0.064341	0.999991	-0.000187	0.000329	-0.004214
18264	0.037241	0.126176	9.903983	0.009134	-0.004129	0.092165	0.999991	-0.000192	0.000324	-0.004210
18265	0.029507	0.153022	9.894484	0.001601	0.022831	0.082997	0.999991	-0.000179	0.000323	-0.004194
18266	0.005041	0.127500	9.838824	-0.022959	-0.001800	0.026937	0.999991	-0.000187	0.000320	-0.004218
18267	0.062516	0.132891	9.904245	0.034179	0.002371	0.092587	0.999991	-0.000192	0.000305	-0.004212
18268	0.028929	0.143266	9.866790	0.000702	0.013639	0.055176	0.999991	-0.000199	0.000311	-0.004209
18269	0.031836	0.125345	9.904013	0.003413	-0.004742	0.092168	0.999991	-0.000197	0.000311	-0.004211
18270	0.023955	0.152153	9.894512	-0.004134	0.022212	0.082998	0.999991	-0.000195	0.000318	-0.004208
18271	0.051145	0.159191	9.894775	0.023190	0.028973	0.083431	0.999991	-0.000193	0.000319	-0.004210
18272	0.028184	0.124978	9.904028	-0.000018	-0.005113	0.092168	0.999991	-0.000200	0.000325	-0.004208
18273	-0.005431	0.135314	9.866552	-0.033483	0.006128	0.054735	0.999991	-0.000206	0.000314	-0.004208
18274	0.054353	0.131679	9.904309	0.026164	0.001537	0.092612	0.999991	-0.000205	0.000326	-0.004211
18275	0.027314	0.115101	9.876337	-0.000877	-0.014300	0.064347	0.999991	-0.000220	0.000320	-0.004207
18276	0.019682	0.141851	9.866834	-0.008439	0.012648	0.055174	0.999991	-0.000206	0.000307	-0.004201
18277	0.025359	0.114979	9.876343	-0.003156	-0.014547	0.064346	0.999991	-0.000204	0.000306	-0.004214
18278	0.052584	0.122035	9.876629	0.024171	-0.007756	0.064803	0.999991	-0.000203	0.000311	-0.004222
18279	0.020391	0.123927	9.904061	-0.008026	-0.005983	0.092165	0.999991	-0.000201	0.000312	-0.004224
18280	0.040936	0.157813	9.894845	0.012858	0.027885	0.083453	0.999991	-0.000207	0.000314	-0.004215
18281	0.039723	0.157630	9.894853	0.011709	0.027765	0.083455	0.999991	-0.000206	0.000319	-0.004223
18282	0.043615	0.139213	9.839442	0.015775	0.010022	0.027818	0.999991	-0.000205	0.000330	-0.004226
18283	0.039885	0.148380	9.867155	0.012024	0.018711	0.055639	0.999991	-0.000191	0.000317	-0.004220
18284	0.045547	0.121330	9.876673	0.017330	-0.008476	0.064817	0.999991	-0.000209	0.000321	-0.004229
18285	0.034984	0.157079	9.894879	0.007118	0.027276	0.083460	0.999991	-0.000207	0.000328	-0.004226
18286	0.043031	0.120948	9.876689	0.015051	-0.008718	0.064820	0.999991	-0.000205	0.000335	-0.004223
18287	0.041870	0.120775	9.876696	0.013911	-0.008839	0.064822	0.999991	-0.000211	0.000330	-0.004219
18288	0.012374	0.113398	9.876386	-0.015682	-0.015921	0.064332	0.999991	-0.000209	0.000331	-0.004221
18289	0.036992	0.129773	9.904414	0.008993	-0.000278	0.092642	0.999991	-0.000196	0.000330	-0.004206
18290	0.038497	0.120555	9.876712	0.010493	-0.009205	0.064826	0.999991	-0.000203	0.000330	-0.004208
18291	0.028119	0.156517	9.894910	0.000232	0.026535	0.083465	0.999991	-0.000189	0.000317	-0.004202
18292	0.029690	0.147303	9.867207	0.001737	0.017608	0.055648	0.999991	-0.000197	0.000323	-0.004200
18293	0.063604	0.127467	9.877061	0.035520	-0.002588	0.065336	0.999991	-0.000194	0.000324	-0.004201
18294	0.003008	0.121972	9.904106	-0.025175	-0.007881	0.092135	0.999991	-0.000201	0.000325	-0.004192
18295	0.001898	0.121710	9.904109	-0.026321	-0.008009	0.092132	0.999991	-0.000207	0.000320	-0.004189
18296	0.025147	0.146521	9.867231	-0.002836	0.017114	0.055649	0.999991	-0.000204	0.000317	-0.004185
18297	0.030870	0.119672	9.876750	0.002511	-0.010062	0.064830	0.999991	-0.000191	0.000308	-0.004184
18298	0.048779	0.162860	9.895291	0.020640	0.032670	0.083989	0.999991	-0.000198	0.000308	-0.004187
18299	0.028868	0.119334	9.876760	0.000231	-0.010308	0.064830	0.999991	-0.000204	0.000289	-0.004202
18300	0.025145	0.128304	9.904471	-0.003597	-0.001636	0.092646	0.999991	-0.000202	0.000298	-0.004188
18301	0.048232	0.153206	9.867610	0.019889	0.023513	0.056181	0.999991	-0.000200	0.000297	-0.004201
18302	0.015957	0.154973	9.894961	-0.012391	0.025164	0.083461	0.999991	-0.000199	0.000304	-0.004198
18303	0.014672	0.154870	9.894965	-0.013538	0.025037	0.083459	0.999991	-0.000197	0.000311	-0.004196
18304	0.022930	0.118677	9.876783	-0.005464	-0.010929	0.064828	0.999991	-0.000204	0.000311	-0.004198
18305	0.052908	0.116452	9.849457	0.024542	-0.012809	0.037561	0.999991	-0.000221	0.000308	-0.004211
18306	0.027347	0.091150	9.886315	-0.001223	-0.038224	0.074012	0.999991	-0.000219	0.000323	-0.004193
18307	0.012567	0.144612	9.867284	-0.015406	0.015742	0.055639	0.999991	-0.000235	0.000317	-0.004189
18308	0.018207	0.117383	9.876809	-0.010022	-0.011428	0.064824	0.999991	-0.000243	0.000323	-0.004186
18309	0.042684	0.133810	9.904901	0.014537	0.004293	0.093198	0.999991	-0.000222	0.000320	-0.004192
18310	0.044230	0.124775	9.877201	0.016128	-0.004618	0.065386	0.999991	-0.000220	0.000327	-0.004189
18311	0.014645	0.117370	9.876815	-0.013441	-0.011803	0.064819	0.999991	-0.000218	0.000328	-0.004191
18312	0.041911	0.124508	9.877214	0.013846	-0.004862	0.065390	0.999991	-0.000224	0.000323	-0.004187
18313	0.033941	0.151283	9.867699	0.006165	0.022056	0.056203	0.999991	-0.000213	0.000331	-0.004184
18314	0.011254	0.117197	9.876821	-0.016857	-0.012182	0.064814	0.999991	-0.000201	0.000321	-0.004195
18315	0.038644	0.124442	9.877228	0.010425	-0.005226	0.065394	0.999991	-0.000208	0.000314	-0.004202
18316	0.030681	0.151207	9.867711	0.002734	0.021687	0.056205	0.999991	-0.000197	0.000323	-0.004199
18317	0.043201	0.097407	9.886763	0.014698	-0.032506	0.074586	0.999991	-0.000203	0.000310	-0.004211
18318	0.031365	0.141829	9.840018	0.003217	0.012658	0.028394	0.999991	-0.000200	0.000306	-0.004206
18319	0.041188	0.097074	9.886775	0.012421	-0.032748	0.074588	0.999991	-0.000207	0.000300	-0.004213
18320	0.061643	0.131099	9.877677	0.033137	0.001266	0.065996	0.999991	-0.000205	0.000301	-0.004215
18321	0.050877	0.166895	9.895864	0.022641	0.036960	0.084620	0.999991	-0.000212	0.000302	-0.004205
18322	0.059306	0.130840	9.877695	0.030853	0.001030	0.066004	0.999991	-0.000201	0.000304	-0.004207
18323	0.032617	0.114370	9.849569	0.004093	-0.014984	0.037588	0.999991	-0.000198	0.000301	-0.004203
18324	0.032797	0.105684	9.914503	0.003936	-0.024580	0.102402	0.999991	-0.000195	0.000297	-0.004198
18325	0.056095	0.130633	9.877716	0.027428	0.000675	0.066014	0.999991	-0.000200	0.000288	-0.004188
18326	0.023873	0.132304	9.904985	-0.004931	0.002201	0.093208	0.999991	-0.000189	0.000290	-0.004189
18327	0.051061	0.139589	9.905432	0.022332	0.009211	0.093830	0.999991	-0.000196	0.000290	-0.004192
18328	0.055545	0.121084	9.850040	0.026823	-0.008459	0.038213	0.999991	-0.000204	0.000289	-0.004194
18329	0.016469	0.149582	9.867769	-0.012136	0.020076	0.056201	0.999991	-0.000190	0.000282	-0.004183
18330	0.022161	0.122641	9.877302	-0.006683	-0.007073	0.065396	0.999991	-0.000200	0.000291	-0.004197
18331	0.046487	0.138868	9.905464	0.017746	0.008729	0.093840	0.999991	-0.000206	0.000288	-0.004182
18332	0.015779	0.139904	9.840083	-0.012731	0.010928	0.028389	0.999991	-0.000205	0.000293	-0.004190
18333	0.049794	0.120272	9.850081	0.021137	-0.009056	0.038227	0.999991	-0.000212	0.000293	-0.004193
18334	0.039006	0.155955	9.868260	0.010546	0.026613	0.056840	0.999991	-0.000218	0.000288	-0.004189
18335	0.047612	0.119833	9.850097	0.018862	-0.009297	0.038231	0.999991	-0.000217	0.000289	-0.004191
18336	0.015213	0.121420	9.877330	-0.013526	-0.007825	0.065388	0.999991	-0.000215	0.000296	-0.004189
18337	0.045186	0.119637	9.850111	0.016590	-0.009538	0.038235	0.999991	-0.000213	0.000297	-0.004190
18338	0.069377	0.136162	9.878296	0.040985	0.006292	0.066704	0.999991	-0.000203	0.000311	-0.004183
18339	0.032946	0.155467	9.868289	0.004824	0.026000	0.056846	0.999991	-0.000210	0.000305	-0.004190
18340	0.035801	0.137641	9.905526	0.007435	0.007628	0.093854	0.999991	-0.000199	0.000313	-0.004187
18341	0.030681	0.155194	9.868301	0.002535	0.025755	0.056848	0.999991	-0.000215	0.000301	-0.004188
18342	0.005436	0.129765	9.905045	-0.023246	0.000180	0.093182	0.999991	-0.000211	0.000291	-0.004188
18343	0.007304	0.120589	9.877349	-0.021507	-0.008710	0.065373	0.999991	-0.000208	0.000287	-0.004184
18344	0.034459	0.127952	9.877851	0.005741	-0.001627	0.066050	0.999991	-0.000207	0.000294	-0.004182
18345	0.011727	0.093537	9.886888	-0.017142	-0.035975	0.074570	0.999991	-0.000207	0.000304	-0.004196
18346	0.032009	0.127640	9.877863	0.003459	-0.001874	0.066051	0.999991	-0.000212	0.000295	-0.004186
18347	0.030995	0.127483	9.877868	0.002316	-0.001995	0.066052	0.999991	-0.000210	0.000291	-0.004181
18348	0.055258	0.143959	9.906083	0.026648	0.013869	0.094550	0.999991	-0.000209	0.000297	-0.004190
18349	0.028633	0.127191	9.877879	0.000032	-0.002243	0.066052	0.999991	-0.000216	0.000298	-0.004181
18350	0.024614	0.136021	9.905582	-0.004028	0.006390	0.093856	0.999991	-0.000222	0.000293	-0.004177
18351	0.026365	0.126742	9.877891	-0.002250	-0.002491	0.066052	0.999991	-0.000221	0.000300	-0.004175
18352	0.018228	0.153461	9.868359	-0.010056	0.024387	0.056846	0.999991	-0.000219	0.000301	-0.004177
18353	0.021077	0.135539	9.905597	-0.007466	0.006015	0.093855	0.999991	-0.000227	0.000300	-0.004179
18354	0.022963	0.126271	9.877906	-0.005674	-0.002864	0.066050	0.999991	-0.000223	0.000291	-0.004179
18355	0.046388	0.151358	9.841212	0.017823	0.022517	0.029756	0.999991	-0.000228	0.000275	-0.004174
18356	0.018086	0.134949	9.905611	-0.010904	0.005637	0.093852	0.999991	-0.000236	0.000281	-0.004172
18357	0.019968	0.125689	9.877920	-0.009100	-0.003239	0.066047	0.999991	-0.000232	0.000267	-0.004166
18358	0.044427	0.142238	9.906162	0.015174	0.012659	0.094576	0.999991	-0.000229	0.000257	-0.004167
18359	0.046320	0.133070	9.878473	0.016988	0.003786	0.066775	0.999991	-0.000227	0.000258	-0.004169
18360	0.038168	0.159692	9.868942	0.009155	0.030660	0.057569	0.999991	-0.000235	0.000264	-0.004167
18361	0.015613	0.125057	9.877936	-0.013660	-0.003744	0.066042	0.999991	-0.000243	0.000264	-0.004169
18362	0.042762	0.132493	9.878497	0.013565	0.003420	0.066781	0.999991	-0.000232	0.000266	-0.004171
18363	0.013240	0.124848	9.877942	-0.015944	-0.003997	0.066038	0.999991	-0.000240	0.000271	-0.004169
18364	0.040382	0.132206	9.878511	0.011279	0.003177	0.066784	0.999991	-0.000237	0.000268	-0.004165
18365	0.007999	0.133557	9.905643	-0.021215	0.004496	0.093836	0.999991	-0.000245	0.000267	-0.004167
18366	0.038239	0.131852	9.878524	0.008993	0.002934	0.066786	0.999991	-0.000241	0.000258	-0.004167
18367	0.037125	0.131764	9.878529	0.007849	0.002812	0.066787	0.999991	-0.000240	0.000264	-0.004165
18368	0.007665	0.124015	9.877958	-0.021650	-0.004629	0.066027	0.999991	-0.000247	0.000260	-0.004161
18369	0.037875	0.122315	9.850849	0.008572	-0.006176	0.038988	0.999991	-0.000246	0.000259	-0.004174
18370	0.036839	0.122140	9.850855	0.007435	-0.006298	0.038989	0.999991	-0.000251	0.000250	-0.004164
18371	0.039803	0.104251	9.888096	0.010009	-0.024666	0.076003	0.999991	-0.000248	0.000246	-0.004160
18372	0.028656	0.140031	9.906252	-0.000879	0.010934	0.094590	0.999991	-0.000248	0.000251	-0.004168
18373	0.030465	0.130844	9.878564	0.001000	0.002073	0.066790	0.999991	-0.000246	0.000252	-0.004170
18374	0.057549	0.138237	9.879169	0.028209	0.009294	0.067571	0.999991	-0.000254	0.000258	-0.004168
18375	0.028054	0.130448	9.878577	-0.001284	0.001824	0.066790	0.999991	-0.000253	0.000259	-0.004170
18376	0.026885	0.130438	9.878580	-0.002425	0.001700	0.066790	0.999991	-0.000242	0.000261	-0.004172
18377	0.018639	0.157228	9.869038	-0.010315	0.028556	0.057574	0.999991	-0.000240	0.000269	-0.004159
18378	0.024391	0.130419	9.878587	-0.004710	0.001452	0.066789	0.999991	-0.000229	0.000271	-0.004161
18379	0.023295	0.130321	9.878591	-0.005853	0.001329	0.066789	0.999991	-0.000237	0.000265	-0.004167
18380	-0.005882	0.122350	9.877980	-0.035338	-0.006167	0.065987	0.999991	-0.000251	0.000247	-0.004173
18381	0.025289	0.111957	9.915841	-0.004440	-0.017164	0.103802	0.999991	-0.000252	0.000258	-0.004176
18382	0.012942	0.156259	9.869063	-0.016040	0.027929	0.057568	0.999991	-0.000260	0.000270	-0.004170
18383	0.057150	0.100961	9.861100	0.027752	-0.027489	0.049018	0.999991	-0.000266	0.000261	-0.004160
18384	0.017795	0.129019	9.878619	-0.011563	0.000704	0.066784	0.999991	-0.000264	0.000255	-0.004166
18385	0.048013	0.127394	9.851568	0.018710	-0.000754	0.039804	0.999991	-0.000273	0.000259	-0.004174
18386	0.022461	0.101922	9.888175	-0.007073	-0.026516	0.076001	0.999991	-0.000261	0.000265	-0.004155
18387	0.045448	0.127180	9.851583	0.016436	-0.000996	0.039808	0.999991	-0.000271	0.000279	-0.004165
18388	0.002727	0.164227	9.896776	-0.026002	0.035896	0.085352	0.999991	-0.000268	0.000276	-0.004161
18389	0.043209	0.126807	9.851598	0.014161	-0.001240	0.039811	0.999991	-0.000275	0.000265	-0.004162
18390	0.013903	0.118968	9.850953	-0.015307	-0.008777	0.038978	0.999991	-0.000273	0.000266	-0.004164
18391	0.038037	0.135510	9.879301	0.008779	0.007242	0.067609	0.999991	-0.000279	0.000255	-0.004164
18392	0.040953	0.117510	9.916547	0.011318	-0.011124	0.104628	0.999991	-0.000287	0.000254	-0.004166
18393	0.028692	0.161820	9.869766	-0.000303	0.033961	0.058388	0.999991	-0.000287	0.000268	-0.004159
18394	0.041528	0.108046	9.888873	0.012151	-0.020089	0.076835	0.999991	-0.000295	0.000267	-0.004161
18395	0.033403	0.134548	9.879331	0.004206	0.006752	0.067613	0.999991	-0.000302	0.000260	-0.004169
18396	0.032269	0.134260	9.879338	0.003064	0.006628	0.067613	0.999991	-0.000310	0.000266	-0.004166
18397	0.002902	0.126296	9.878670	-0.026400	-0.000942	0.066755	0.999991	-0.000316	0.000257	-0.004156
18398	0.058347	0.141519	9.880030	0.029101	0.013832	0.068475	0.999991	-0.000314	0.000260	-0.004148
18399	0.057128	0.141414	9.880038	0.027955	0.013712	0.068479	0.999991	-0.000313	0.000265	-0.004156
18400	-0.000593	0.125803	9.878677	-0.029823	-0.001327	0.066745	0.999991	-0.000321	0.000266	-0.004148
18401	0.033637	0.106546	9.888919	0.004172	-0.020948	0.076840	0.999991	-0.000319	0.000261	-0.004155
18402	0.025478	0.133131	9.879373	-0.003791	0.005884	0.067613	0.999991	-0.000327	0.000260	-0.004157
18403	0.024285	0.132836	9.879380	-0.004932	0.005761	0.067613	0.999991	-0.000335	0.000266	-0.004154
18404	0.008246	0.080244	9.832863	-0.021222	-0.046220	0.020375	0.999991	-0.000314	0.000265	-0.004150
18405	0.025122	0.123874	9.851698	-0.004048	-0.003200	0.039820	0.999991	-0.000312	0.000266	-0.004152
18406	0.056143	0.113770	9.889648	0.026787	-0.014079	0.077728	0.999991	-0.000311	0.000266	-0.004155
18407	-0.005418	0.115831	9.850999	-0.034632	-0.010939	0.038927	0.999991	-0.000319	0.000266	-0.004157
18408	0.046755	0.140067	9.880112	0.017663	0.012631	0.068504	0.999991	-0.000326	0.000267	-0.004148
18409	0.042383	0.149014	9.907804	0.013330	0.021219	0.096297	0.999991	-0.000315	0.000271	-0.004139
18410	0.023362	0.105283	9.888963	-0.006078	-0.022063	0.076837	0.999991	-0.000331	0.000259	-0.004140
18411	0.015097	0.131656	9.879414	-0.014070	0.004759	0.067605	0.999991	-0.000341	0.000274	-0.004150
18412	0.038870	0.148418	9.907828	0.009888	0.020852	0.096301	0.999991	-0.000320	0.000272	-0.004146
18413	0.047976	0.112702	9.889703	0.018806	-0.014920	0.077745	0.999991	-0.000319	0.000279	-0.004143
18414	0.011402	0.131503	9.879421	-0.017496	0.004381	0.067599	0.999991	-0.000327	0.000281	-0.004135
18415	0.045639	0.112327	9.889719	0.016525	-0.015162	0.077749	0.999991	-0.000324	0.000277	-0.004131
18416	0.009159	0.131311	9.879426	-0.019781	0.004128	0.067595	0.999991	-0.000314	0.000279	-0.004133
18417	0.015218	0.104547	9.888986	-0.014051	-0.022939	0.076827	0.999991	-0.000311	0.000269	-0.004133
18418	0.035287	0.138909	9.880176	0.006230	0.011415	0.068519	0.999991	-0.000319	0.000269	-0.004135
18419	0.037410	0.129692	9.852499	0.008319	0.002593	0.040732	0.999991	-0.000317	0.000265	-0.004131
18420	0.040272	0.111695	9.889749	0.010823	-0.015768	0.077756	0.999991	-0.000333	0.000259	-0.004127
18421	0.028819	0.147287	9.907879	-0.000449	0.019746	0.096309	0.999991	-0.000323	0.000259	-0.004140
18422	0.030900	0.138238	9.880200	0.001653	0.010925	0.068522	0.999991	-0.000321	0.000260	-0.004142
18423	0.029742	0.138130	9.880205	0.000511	0.010802	0.068522	0.999991	-0.000320	0.000261	-0.004144
18424	0.031893	0.129002	9.852528	0.002626	0.001982	0.040736	0.999991	-0.000318	0.000256	-0.004150
18425	0.034767	0.110998	9.889778	0.005121	-0.016379	0.077760	0.999991	-0.000335	0.000249	-0.004147
18426	0.054849	0.145223	9.880995	0.025365	0.018005	0.069478	0.999991	-0.000340	0.000240	-0.004137
18427	0.053808	0.145244	9.881000	0.024219	0.017885	0.069481	0.999991	-0.000320	0.000239	-0.004132
18428	0.021164	0.146330	9.907913	-0.008483	0.018872	0.096307	0.999991	-0.000338	0.000242	-0.004141
18429	0.054712	0.135917	9.853336	0.025213	0.008956	0.041702	0.999991	-0.000327	0.000246	-0.004132
18430	0.029141	0.110335	9.889803	-0.000577	-0.016995	0.077760	0.999991	-0.000326	0.000252	-0.004129
18431	0.017478	0.145987	9.907925	-0.011923	0.018497	0.096304	0.999991	-0.000325	0.000253	-0.004131
18432	0.026711	0.110106	9.889813	-0.002855	-0.017244	0.077759	0.999991	-0.000324	0.000260	-0.004129
18433	0.057098	0.108757	9.862932	0.027581	-0.018448	0.050954	0.999991	-0.000330	0.000251	-0.004119
18434	0.045475	0.144412	9.881054	0.016215	0.017043	0.069499	0.999991	-0.000322	0.000262	-0.004133
18435	0.054765	0.108444	9.862949	0.025309	-0.018689	0.050959	0.999991	-0.000338	0.000256	-0.004130
18436	0.040028	0.153056	9.908749	0.010614	0.025483	0.097286	0.999991	-0.000325	0.000243	-0.004124
18437	0.013994	0.136167	9.880267	-0.015489	0.009053	0.068512	0.999991	-0.000325	0.000254	-0.004128
18438	0.019919	0.109211	9.889839	-0.009692	-0.017994	0.077753	0.999991	-0.000333	0.000256	-0.004119
18439	0.078531	0.115771	9.863793	0.049029	-0.011538	0.051969	0.999991	-0.000330	0.000252	-0.004116
18440	0.038757	0.143466	9.881097	0.009349	0.016309	0.069509	0.999991	-0.000337	0.000247	-0.004112
18441	0.037638	0.143282	9.881104	0.008205	0.016186	0.069510	0.999991	-0.000336	0.000250	-0.004104
18442	0.043681	0.116435	9.890678	0.014013	-0.010854	0.078757	0.999991	-0.000335	0.000249	-0.004117
18443	0.035289	0.142960	9.881117	0.005918	0.015940	0.069512	0.999991	-0.000344	0.000254	-0.004115
18444	0.009179	0.125834	9.852616	-0.020137	-0.000516	0.040716	0.999991	-0.000344	0.000260	-0.004123
18445	0.011999	0.108008	9.889865	-0.017667	-0.018878	0.077741	0.999991	-0.000340	0.000245	-0.004117
18446	0.031974	0.142565	9.881134	0.002488	0.015572	0.069514	0.999991	-0.000339	0.000246	-0.004119
18447	0.059058	0.150466	9.881978	0.029600	0.023118	0.070541	0.999991	-0.000328	0.000242	-0.004125
18448	0.033166	0.133454	9.853466	0.003568	0.006651	0.041735	0.999991	-0.000335	0.000237	-0.004121
18449	0.025432	0.151088	9.908827	-0.004315	0.023873	0.097295	0.999991	-0.000352	0.000229	-0.004129
18450	0.030922	0.132975	9.853480	0.001291	0.006403	0.041736	0.999991	-0.000333	0.000247	-0.004111
18451	0.029674	0.132870	9.853485	0.000150	0.006282	0.041736	0.999991	-0.000349	0.000241	-0.004107
18452	0.028633	0.132598	9.853492	-0.000989	0.006158	0.041736	0.999991	-0.000347	0.000237	-0.004103
18453	0.059641	0.122623	9.891605	0.029716	-0.004507	0.079811	0.999991	-0.000355	0.000230	-0.004110
18454	-0.005010	0.133276	9.880315	-0.034910	0.006880	0.068464	0.999991	-0.000352	0.000227	-0.004106
18455	0.053633	0.140073	9.854373	0.023838	0.013490	0.042789	0.999991	-0.000351	0.000227	-0.004108
18456	0.031494	0.105190	9.863086	0.001450	-0.021241	0.050987	0.999991	-0.000360	0.000233	-0.004106
18457	0.023533	0.123070	9.918440	-0.006505	-0.004032	0.106541	0.999991	-0.000349	0.000231	-0.004102
18458	0.021967	0.131704	9.853521	-0.007824	0.005412	0.041733	0.999991	-0.000357	0.000230	-0.004104
18459	0.052929	0.121651	9.891655	0.022863	-0.005225	0.079829	0.999991	-0.000365	0.000224	-0.004111
18460	0.023620	0.113386	9.890782	-0.006517	-0.013072	0.078762	0.999991	-0.000373	0.000229	-0.004109
18461	0.015155	0.139892	9.881212	-0.014671	0.013701	0.069506	0.999991	-0.000372	0.000230	-0.004111
18462	0.024622	0.104066	9.863117	-0.005367	-0.021984	0.050984	0.999991	-0.000372	0.000237	-0.004109
18463	0.037540	0.156535	9.909787	0.007841	0.029851	0.098359	0.999991	-0.000380	0.000230	-0.004115
18464	0.039923	0.147362	9.882121	0.010133	0.021067	0.070585	0.999991	-0.000378	0.000227	-0.004111
18465	0.010588	0.139170	9.881229	-0.019244	0.013198	0.069499	0.999991	-0.000386	0.000232	-0.004109
18466	0.041064	0.138085	9.854461	0.011295	0.012165	0.042813	0.999992	-0.000374	0.000226	-0.004098
18467	0.043867	0.120369	9.891715	0.013731	-0.006191	0.079846	0.999992	-0.000372	0.000222	-0.004094
18468	0.042711	0.120257	9.891721	0.012590	-0.006313	0.079847	0.999991	-0.000372	0.000227	-0.004103
18469	0.006119	0.138838	9.881237	-0.023815	0.012689	0.069490	0.999991	-0.000370	0.000222	-0.004109
18470	0.040490	0.119941	9.891734	0.010309	-0.006557	0.079849	0.999991	-0.000379	0.000221	-0.004112
18471	0.035569	0.137385	9.854492	0.005597	0.011553	0.042818	0.999991	-0.000386	0.000217	-0.004108
18472	0.030994	0.146261	9.882169	0.000980	0.020083	0.070592	0.999991	-0.000376	0.000219	-0.004110
18473	0.037166	0.119342	9.891755	0.006882	-0.006925	0.079852	0.999991	-0.000394	0.000215	-0.004124
18474	0.004017	0.128838	9.853582	-0.026045	0.003398	0.041703	0.999991	-0.000383	0.000221	-0.004104
18475	0.027452	0.145825	9.882186	-0.002457	0.019714	0.070592	0.999991	-0.000383	0.000226	-0.004112
18476	0.037199	0.109871	9.864103	0.006954	-0.015943	0.052082	0.999992	-0.000397	0.000211	-0.004096
18477	0.025391	0.145375	9.882198	-0.004750	0.019466	0.070592	0.999992	-0.000387	0.000213	-0.004098
18478	0.031584	0.118747	9.891781	0.001172	-0.007540	0.079854	0.999991	-0.000376	0.000208	-0.004105
18479	0.023096	0.145424	9.882203	-0.007037	0.019215	0.070591	0.999991	-0.000376	0.000215	-0.004103
18480	0.053849	0.135633	9.920408	0.023589	0.008671	0.108762	0.999991	-0.000375	0.000216	-0.004105
18481	0.003383	0.101456	9.863175	-0.026943	-0.024376	0.050943	0.999992	-0.000373	0.000219	-0.004096
18482	-0.004982	0.127874	9.853594	-0.035156	0.002373	0.041675	0.999992	-0.000389	0.000206	-0.004097
18483	0.046791	0.152896	9.883179	0.016595	0.026543	0.071735	0.999992	-0.000369	0.000205	-0.004093
18484	0.024493	0.126868	9.826888	-0.005692	0.001304	0.015048	0.999992	-0.000378	0.000211	-0.004090
18485	0.044511	0.152594	9.883194	0.014306	0.026300	0.071739	0.999992	-0.000385	0.000200	-0.004091
18486	0.022654	0.117717	9.891818	-0.007953	-0.008536	0.079850	0.999992	-0.000374	0.000202	-0.004093
18487	0.042343	0.152480	9.883205	0.012014	0.026058	0.071743	0.999992	-0.000373	0.000197	-0.004100
18488	0.045112	0.134563	9.920466	0.014415	0.007703	0.108780	0.999992	-0.000380	0.000192	-0.004096
18489	0.047578	0.125308	9.892808	0.016824	-0.001056	0.081014	0.999991	-0.000389	0.000190	-0.004109
18490	0.039079	0.151791	9.883229	0.008578	0.025691	0.071748	0.999992	-0.000388	0.000192	-0.004100
18491	0.034518	0.160664	9.910901	0.003866	0.034204	0.099516	0.999991	-0.000385	0.000176	-0.004106
18492	0.016222	0.116810	9.891841	-0.014801	-0.009289	0.079842	0.999992	-0.000384	0.000185	-0.004093
18493	0.039377	0.142542	9.855580	0.008712	0.016689	0.043984	0.999992	-0.000383	0.000179	-0.004099
18494	0.014029	0.116495	9.891848	-0.017084	-0.009541	0.079838	0.999991	-0.000391	0.000173	-0.004106
18495	0.037317	0.142156	9.855594	0.006429	0.016442	0.043987	0.999991	-0.000389	0.000169	-0.004103
18496	0.040008	0.124323	9.892854	0.008824	-0.001912	0.081024	0.999991	-0.000388	0.000170	-0.004105
18497	0.038895	0.124218	9.892859	0.007679	-0.002033	0.081025	0.999992	-0.000386	0.000166	-0.004101
18498	0.034000	0.141835	9.855610	0.003005	0.016076	0.043989	0.999991	-0.000386	0.000165	-0.004114
18499	0.012380	0.098122	9.929117	-0.019261	-0.028407	0.116863	0.999991	-0.000384	0.000161	-0.004110
18500	0.003620	0.133284	9.854612	-0.027462	0.007928	0.042785	0.999992	-0.000402	0.000167	-0.004097
18501	0.034319	0.123496	9.892885	0.003110	-0.002523	0.081027	0.999992	-0.000392	0.000169	-0.004099
18502	0.025788	0.150250	9.883296	-0.005173	0.024211	0.071754	0.999992	-0.000381	0.000167	-0.004095
18503	0.035554	0.114592	9.865230	0.004447	-0.011395	0.053264	0.999992	-0.000382	0.000178	-0.004099
18504	0.030764	0.123318	9.892899	-0.000314	-0.002894	0.081028	0.999991	-0.000390	0.000172	-0.004106
18505	0.022280	0.149786	9.883312	-0.008606	0.023839	0.071752	0.999991	-0.000389	0.000172	-0.004107
18506	0.056536	0.131152	9.893943	0.025580	0.004790	0.082252	0.999991	-0.000390	0.000184	-0.004111
18507	-0.004693	0.132396	9.854624	-0.035437	0.007034	0.042760	0.999991	-0.000388	0.000180	-0.004107
18508	0.026349	0.122874	9.892917	-0.004884	-0.003387	0.081026	0.999991	-0.000374	0.000155	-0.004110
18509	0.025388	0.122881	9.892920	-0.006026	-0.003514	0.081026	0.999991	-0.000374	0.000162	-0.004109
18510	0.052219	0.130943	9.893969	0.021004	0.004308	0.082263	0.999991	-0.000374	0.000169	-0.004106
18511	0.026548	0.113588	9.865270	-0.004656	-0.012381	0.053263	0.999991	-0.000382	0.000168	-0.004109
18512	0.021870	0.122334	9.892935	-0.009453	-0.003889	0.081023	0.999991	-0.000380	0.000158	-0.004109
18513	0.013407	0.148889	9.883342	-0.017773	0.022832	0.071742	0.999991	-0.000380	0.000157	-0.004122
18514	0.044003	0.148040	9.856742	0.012918	0.022055	0.045232	0.999991	-0.000379	0.000160	-0.004114
18515	0.007576	0.157523	9.911009	-0.023735	0.031193	0.099498	0.999991	-0.000385	0.000144	-0.004108
18516	0.021079	0.112669	9.865293	-0.010342	-0.013004	0.053258	0.999991	-0.000397	0.000171	-0.004110
18517	0.044268	0.129598	9.894026	0.013001	0.003461	0.082277	0.999991	-0.000394	0.000155	-0.004115
18518	0.007736	0.147932	9.883362	-0.023494	0.022198	0.071732	0.999991	-0.000394	0.000156	-0.004117
18519	0.017743	0.112228	9.865305	-0.013753	-0.013377	0.053253	0.999991	-0.000392	0.000152	-0.004112
18520	0.033643	0.155957	9.884444	0.002373	0.029937	0.072998	0.999991	-0.000390	0.000149	-0.004108
18521	0.019306	0.094100	9.902571	-0.012526	-0.031857	0.090291	0.999991	-0.000409	0.000153	-0.004106
18522	0.010650	0.120535	9.892976	-0.020869	-0.005146	0.081005	0.999991	-0.000399	0.000155	-0.004108
18523	0.022606	0.181967	9.874865	-0.008273	0.056403	0.063715	0.999991	-0.000408	0.000160	-0.004106
18524	0.008123	0.128970	9.828066	-0.022933	0.004223	0.016201	0.999991	-0.000409	0.000166	-0.004114
18525	0.031638	0.137174	9.921737	0.000136	0.011091	0.110042	0.999991	-0.000413	0.000140	-0.004107
18526	0.038095	0.119152	9.866428	0.006437	-0.006241	0.054529	0.999991	-0.000413	0.000146	-0.004105
18527	0.036883	0.119025	9.866434	0.005301	-0.006365	0.054530	0.999991	-0.000412	0.000147	-0.004107
18528	0.060201	0.136119	9.895199	0.028576	0.010141	0.083584	0.999991	-0.000410	0.000138	-0.004108
18529	0.002895	0.119352	9.892995	-0.028858	-0.006041	0.080984	0.999991	-0.000420	0.000147	-0.004112
18530	0.029923	0.127526	9.894106	-0.001856	0.001866	0.082286	0.999991	-0.000407	0.000128	-0.004111
18531	0.036462	0.109702	9.838797	0.004496	-0.015455	0.026776	0.999991	-0.000405	0.000125	-0.004106
18532	0.027818	0.127517	9.894113	-0.004141	0.001618	0.082285	0.999991	-0.000396	0.000133	-0.004104
18533	0.026514	0.127363	9.894118	-0.005285	0.001494	0.082285	0.999991	-0.000407	0.000141	-0.004119
18534	0.029071	0.118219	9.866470	-0.002667	-0.007227	0.054530	0.999991	-0.000406	0.000138	-0.004115
18535	0.024259	0.127035	9.894128	-0.007571	0.001247	0.082283	0.999991	-0.000404	0.000134	-0.004110
18536	0.019380	0.144654	9.856872	-0.012192	0.019350	0.045238	0.999991	-0.000403	0.000136	-0.004102
18537	0.057550	0.117203	9.839962	0.025826	-0.008127	0.028104	0.999991	-0.000412	0.000136	-0.004105
18538	0.017078	0.135321	9.921798	-0.014777	0.009461	0.110032	0.999991	-0.000420	0.000135	-0.004108
18539	0.023478	0.117474	9.866493	-0.008358	-0.007850	0.054527	0.999991	-0.000400	0.000134	-0.004104
18540	0.042966	0.152338	9.858031	0.011373	0.026923	0.046571	0.999991	-0.000417	0.000128	-0.004100
18541	0.045474	0.134288	9.895302	0.013702	0.008573	0.083617	0.999991	-0.000419	0.000144	-0.004111
18542	0.016046	0.125794	9.894161	-0.015568	0.000363	0.082274	0.999991	-0.000420	0.000150	-0.004108
18543	0.042890	0.134002	9.895318	0.011412	0.008329	0.083620	0.999991	-0.000419	0.000151	-0.004111
18544	0.017402	0.116621	9.866516	-0.014048	-0.008478	0.054520	0.999991	-0.000419	0.000158	-0.004109
18545	0.040528	0.133658	9.895332	0.009122	0.008083	0.083623	0.999991	-0.000428	0.000151	-0.004116
18546	0.007755	0.142754	9.856916	-0.023606	0.018082	0.045220	0.999991	-0.000434	0.000142	-0.004106
18547	0.030792	0.159882	9.885736	-0.000450	0.034650	0.074329	0.999991	-0.000427	0.000159	-0.004116
18548	0.033322	0.150928	9.858090	0.002228	0.025943	0.046580	0.999991	-0.000426	0.000155	-0.004112
18549	0.039703	0.124090	9.867709	0.008375	-0.000991	0.055878	0.999991	-0.000435	0.000161	-0.004111
18550	0.010453	0.115496	9.866539	-0.020879	-0.009237	0.054507	0.999991	-0.000435	0.000161	-0.004113
18551	0.033469	0.132637	9.895372	0.002258	0.007347	0.083628	0.999991	-0.000435	0.000168	-0.004110
18552	0.056605	0.158517	9.859301	0.025770	0.033582	0.047960	0.999991	-0.000444	0.000166	-0.004123
18553	0.031156	0.132185	9.895386	-0.000031	0.007102	0.083628	0.999991	-0.000444	0.000166	-0.004125
18554	0.029894	0.132040	9.895392	-0.001174	0.006978	0.083628	0.999991	-0.000446	0.000178	-0.004129
18555	0.028767	0.132018	9.895395	-0.002319	0.006855	0.083628	0.999991	-0.000433	0.000165	-0.004123
18556	0.031455	0.122998	9.867752	0.000398	-0.001845	0.055881	0.999991	-0.000445	0.000179	-0.004134
18557	0.030152	0.122756	9.867759	-0.000742	-0.001970	0.055881	0.999991	-0.000444	0.000181	-0.004126
18558	0.021400	0.149345	9.858147	-0.009199	0.024706	0.046579	0.999991	-0.000434	0.000184	-0.004128
18559	-0.000190	0.114291	9.866559	-0.031124	-0.010382	0.054479	0.999991	-0.000433	0.000180	-0.004124
18560	0.054727	0.130908	9.868984	0.023940	0.005825	0.057286	0.999991	-0.000442	0.000185	-0.004122
18561	0.021610	0.131246	9.895424	-0.009185	0.006105	0.083624	0.999991	-0.000433	0.000187	-0.004124
18562	0.024236	0.122120	9.867783	-0.006440	-0.002590	0.055879	0.999991	-0.000453	0.000196	-0.004128
18563	0.023050	0.121802	9.867790	-0.007578	-0.002712	0.055878	0.999991	-0.000451	0.000192	-0.004124
18564	0.046192	0.147934	9.831754	0.015939	0.023574	0.020247	0.999991	-0.000442	0.000200	-0.004121
18565	0.020712	0.121557	9.867798	-0.009856	-0.002966	0.055876	0.999991	-0.000459	0.000194	-0.004119
18566	0.055234	0.103095	9.878655	0.024439	-0.021689	0.066606	0.999991	-0.000458	0.000197	-0.004110
18567	0.010908	0.147755	9.858188	-0.019480	0.023574	0.046567	0.999991	-0.000458	0.000191	-0.004117
18568	0.041550	0.138263	9.896696	0.010901	0.013424	0.085046	0.999991	-0.000467	0.000191	-0.004120
18569	0.016319	0.120612	9.867818	-0.014412	-0.003472	0.055870	0.999991	-0.000476	0.000188	-0.004134
18570	0.007452	0.138256	9.923110	-0.023399	0.013526	0.111352	0.999991	-0.000464	0.000181	-0.004124
18571	0.034468	0.155435	9.859453	0.004037	0.031280	0.048000	0.999991	-0.000476	0.000196	-0.004134
18572	0.033338	0.155124	9.859461	0.002894	0.031157	0.048001	0.999991	-0.000482	0.000180	-0.004129
18573	0.011865	0.119857	9.867834	-0.018964	-0.003974	0.055862	0.999991	-0.000482	0.000189	-0.004115
18574	0.006708	0.128598	9.895480	-0.024045	0.004457	0.083600	0.999991	-0.000482	0.000190	-0.004118
18575	0.041430	0.119204	9.841459	0.010784	-0.004551	0.029573	0.999991	-0.000482	0.000190	-0.004120
18576	0.036298	0.127851	9.869109	0.005697	0.003883	0.057314	0.999991	-0.000491	0.000196	-0.004118
18577	0.035084	0.127716	9.869115	0.004557	0.003759	0.057315	0.999991	-0.000482	0.000198	-0.004121
18578	0.030103	0.136384	9.896763	-0.000543	0.012190	0.085054	0.999991	-0.000498	0.000185	-0.004122
18579	0.032979	0.127124	9.869130	0.002278	0.003512	0.057315	0.999991	-0.000508	0.000191	-0.004120
18580	0.003703	0.118562	9.867856	-0.026933	-0.004867	0.055843	0.999991	-0.000490	0.000199	-0.004128
18581	0.026570	0.135988	9.896779	-0.003980	0.011816	0.085054	0.999991	-0.000489	0.000195	-0.004125
18582	0.029359	0.126998	9.869143	-0.001145	0.003141	0.057316	0.999991	-0.000489	0.000202	-0.004122
18583	0.020439	0.153448	9.859523	-0.009686	0.029791	0.048001	0.999991	-0.000490	0.000208	-0.004120
18584	0.058531	0.117518	9.907713	0.028047	-0.007058	0.095853	0.999991	-0.000489	0.000211	-0.004112
18585	0.045957	0.161802	9.860827	0.016091	0.037820	0.049488	0.999991	-0.000480	0.000219	-0.004109
18586	0.052486	0.135189	9.870460	0.022352	0.010927	0.058807	0.999991	-0.000478	0.000209	-0.004110
18587	0.047314	0.143818	9.898108	0.017209	0.019353	0.086545	0.999991	-0.000490	0.000223	-0.004120
18588	-0.006079	0.117811	9.867864	-0.036048	-0.005895	0.055814	0.999991	-0.000472	0.000235	-0.004107
18589	0.024413	0.108497	9.906442	-0.005725	-0.015952	0.094365	0.999991	-0.000490	0.000226	-0.004114
18590	0.047655	0.134471	9.870494	0.017788	0.010446	0.058817	0.999991	-0.000489	0.000229	-0.004106
18591	0.018537	0.125807	9.869184	-0.011409	0.002021	0.057310	0.999991	-0.000488	0.000225	-0.004102
18592	0.045520	0.134263	9.870507	0.015505	0.010204	0.058821	0.999991	-0.000486	0.000215	-0.004103
18593	0.008746	0.151966	9.859563	-0.021116	0.028536	0.047987	0.999991	-0.000507	0.000222	-0.004117
18594	0.015288	0.125244	9.869197	-0.014828	0.001647	0.057305	0.999991	-0.000486	0.000215	-0.004117
18595	0.042236	0.133810	9.870528	0.012077	0.009843	0.058826	0.999991	-0.000494	0.000212	-0.004103
18596	0.009432	0.142577	9.831938	-0.020505	0.019619	0.020247	0.999991	-0.000512	0.000217	-0.004090
18597	0.035748	0.141932	9.898184	0.005751	0.018134	0.086561	0.999991	-0.000514	0.000227	-0.004105
18598	0.010665	0.124364	9.869214	-0.019386	0.001141	0.057297	0.999991	-0.000513	0.000217	-0.004106
18599	0.037577	0.132842	9.870560	0.007516	0.009352	0.058831	0.999991	-0.000512	0.000220	-0.004098
18600	0.032346	0.141654	9.898200	0.002315	0.017762	0.086563	0.999991	-0.000502	0.000222	-0.004100
18601	0.007247	0.124086	9.869221	-0.022807	0.000760	0.057290	0.999991	-0.000511	0.000223	-0.004092
18602	0.009605	0.106213	9.906493	-0.020561	-0.017591	0.094342	0.999992	-0.000503	0.000237	-0.004085
18603	0.032686	0.132502	9.870582	0.002952	0.008860	0.058834	0.999992	-0.000502	0.000233	-0.004081
18604	0.027467	0.141212	9.898221	-0.002268	0.017265	0.086564	0.999991	-0.000503	0.000238	-0.004090
18605	0.038135	0.105680	9.880229	0.008135	-0.018138	0.068161	0.999992	-0.000501	0.000230	-0.004080
18606	0.049666	0.167335	9.862327	0.020094	0.043608	0.051067	0.999991	-0.000500	0.000225	-0.004087
18607	0.000357	0.123399	9.869232	-0.029644	-0.000009	0.057272	0.999991	-0.000500	0.000226	-0.004089
18608	0.055133	0.140516	9.871980	0.025277	0.016619	0.060400	0.999991	-0.000500	0.000226	-0.004091
18609	0.026093	0.131756	9.870612	-0.003896	0.008115	0.058834	0.999991	-0.000500	0.000219	-0.004110
18610	0.020908	0.140464	9.898248	-0.009142	0.016513	0.086561	0.999991	-0.000499	0.000221	-0.004101
18611	0.051801	0.140250	9.872002	0.021847	0.016260	0.060409	0.999992	-0.000488	0.000221	-0.004086
18612	0.022658	0.131571	9.870623	-0.007319	0.007743	0.058832	0.999991	-0.000489	0.000226	-0.004095
18613	0.009493	0.166718	9.888618	-0.020073	0.042882	0.077227	0.999992	-0.000500	0.000239	-0.004077
18614	0.055753	0.113098	9.881670	0.025911	-0.010842	0.069747	0.999992	-0.000508	0.000240	-0.004069
18615	0.011143	0.157433	9.860998	-0.018239	0.034110	0.049498	0.999992	-0.000499	0.000242	-0.004071
18616	0.025466	0.104272	9.880285	-0.004384	-0.019496	0.068160	0.999992	-0.000499	0.000243	-0.004073
18617	-0.011356	0.121844	9.869245	-0.041043	-0.001301	0.057231	0.999992	-0.000518	0.000241	-0.004076
18618	0.015572	0.130210	9.870654	-0.014167	0.006991	0.058825	0.999992	-0.000516	0.000231	-0.004077
18619	0.042393	0.138766	9.872068	0.012704	0.015291	0.060426	0.999992	-0.000516	0.000239	-0.004064
18620	-0.005849	0.192181	9.878997	-0.035624	0.068720	0.067877	0.999992	-0.000487	0.000181	-0.003940
18621	-0.819992	0.853313	9.857050	-0.848958	0.733541	0.051548	0.999998	-0.000401	-0.000056	-0.001749
18622	-1.135997	1.091385	9.952391	-1.171068	0.965931	0.148601	0.999999	-0.000469	-0.000030	0.001288
18623	-0.160733	0.125880	9.722698	-0.193818	0.001838	-0.089778	0.999987	-0.000428	0.000112	0.005023
18624	-0.325434	0.343341	9.909114	-0.361631	0.213286	0.098824	0.999965	-0.000465	0.000006	0.008387
18625	-1.183299	-0.168043	9.828556	-1.210017	-0.313744	0.009042	0.999941	-0.000605	0.000161	0.010851
18626	-0.793410	0.447311	10.089210	-0.831278	0.304663	0.278789	0.999934	-0.000617	0.000250	0.011441
18627	-0.807521	-0.048897	9.967935	-0.829358	-0.188676	0.151788	0.999936	-0.000785	0.000621	0.011235
18628	0.444079	-0.125391	10.080635	0.435580	-0.241532	0.266203	0.999951	-0.000344	0.001498	0.009806
18629	1.855032	-0.142288	10.207776	1.868497	-0.243174	0.390724	0.999965	-0.000113	0.002855	0.007922
18630	1.966903	-0.460362	9.907016	2.014461	-0.567396	0.079204	0.999971	0.000158	0.004622	0.006048
18631	1.810817	0.148283	10.045248	1.887349	0.024253	0.219522	0.999970	0.000525	0.006506	0.004271
18632	-0.010022	0.584953	10.062973	0.104283	0.433483	0.257403	0.999960	0.001010	0.008612	0.002244
18633	0.204901	1.063552	9.986304	0.364555	0.899557	0.185164	0.999938	0.001918	0.011010	-0.000303
18634	-0.146804	0.666254	10.289844	0.075655	0.474443	0.488532	0.999894	0.003198	0.013914	-0.002884
18635	-0.155932	1.411401	10.500494	0.151594	1.185870	0.715689	0.999817	0.004735	0.017886	-0.004773
18636	-0.310070	1.193580	10.566735	0.098726	0.937959	0.783820	0.999698	0.006012	0.023236	-0.005348
18637	-0.031147	0.895341	10.280484	0.488291	0.619735	0.476471	0.999511	0.007022	0.029985	-0.005354
18638	-0.034316	0.521638	10.824111	0.671493	0.212721	1.000993	0.999223	0.007715	0.038418	-0.004192
18639	0.079560	1.515956	10.307225	0.950365	1.206216	0.491759	0.998778	0.008481	0.048648	-0.001721
18640	-0.877706	1.935856	10.253365	0.207252	1.619709	0.530371	0.998164	0.008694	0.059909	0.001858
18641	-1.735093	2.612967	9.684254	-0.495390	2.295470	0.092085	0.997395	0.009464	0.071329	0.005151
18642	-1.514894	2.539572	10.129340	-0.000819	2.195806	0.508277	0.996527	0.009697	0.082366	0.007524
18643	-1.613640	2.095408	11.958274	0.439862	1.697464	2.308132	0.995551	0.008981	0.093337	0.009230
18644	-2.102385	1.902964	11.507522	0.138442	1.546201	1.936721	0.994454	0.006524	0.104456	0.010369
18645	-4.939685	2.064257	12.958360	-2.093885	1.618314	3.955833	0.993477	0.008048	0.113249	0.010671
18646	-3.940218	3.226635	13.973787	-0.704443	2.722997	4.791741	0.992797	0.010418	0.118940	0.009905
18647	-4.299541	2.339877	13.179197	-1.084933	1.790525	4.089393	0.992322	0.012998	0.122673	0.008947
18648	-5.170214	1.250538	13.553055	-1.739244	0.604059	4.629945	0.992025	0.015862	0.124840	0.007100
18649	-5.759050	0.841009	13.549534	-2.245726	0.119768	4.761453	0.991749	0.018678	0.126731	0.004914
18650	-5.612379	0.934214	13.087231	-2.144889	0.177503	4.294549	0.991306	0.021279	0.129804	0.003269
18651	-5.855625	0.932483	12.828793	-2.336152	0.127423	4.125038	0.990641	0.023784	0.134382	0.002364
18652	-6.004273	0.731176	12.791124	-2.352298	-0.129949	4.138888	0.989870	0.026050	0.139559	0.001375
18653	-5.568675	1.002215	12.105220	-1.962507	0.141316	3.403856	0.988936	0.027923	0.145690	0.000436
18654	-6.250279	1.396861	11.654469	-2.560492	0.518941	3.226292	0.987782	0.029766	0.152971	-0.000426
18655	-7.304974	2.073432	11.073023	-3.527452	1.190381	3.087290	0.986450	0.031662	0.160970	-0.001823
18656	-7.408621	2.377774	10.436052	-3.599326	1.514873	2.604954	0.984922	0.033593	0.169651	-0.004362
18657	-7.426479	2.552299	10.497718	-3.350738	1.668458	2.751225	0.983180	0.035545	0.178967	-0.008075
18658	-8.045707	2.872675	10.503436	-3.653768	1.982806	3.072162	0.981244	0.037796	0.188585	-0.012942
18659	-7.780214	2.974664	10.473770	-3.131858	2.084102	3.029464	0.979121	0.039818	0.198497	-0.018311
18660	-7.986537	2.482970	9.589939	-3.401493	1.697842	2.330478	0.976713	0.041591	0.209066	-0.024362
18661	-9.450987	3.283933	8.982519	-4.627171	2.639093	2.532604	0.974126	0.043532	0.219453	-0.031986
18662	-10.386036	3.719567	9.793219	-4.788298	3.096699	3.791936	0.971813	0.045203	0.227564	-0.041835
18663	-9.160324	3.921148	13.939653	-1.612271	2.784413	7.017178	0.970225	0.047610	0.231704	-0.052056
18664	-7.077879	-0.143115	15.827578	0.687283	-1.586339	7.439535	0.969126	0.046863	0.233887	-0.062414
18665	-5.317242	-0.835105	16.141361	2.354938	-2.403034	6.866420	0.967744	0.045328	0.236886	-0.072818
18666	-4.982524	1.003380	15.505314	2.806979	-0.462650	6.254366	0.965962	0.042503	0.241964	-0.081022
18667	-4.746126	2.352750	13.089790	2.357160	1.243577	4.054417	0.963952	0.039391	0.248219	-0.087360
18668	-4.050644	3.523039	10.851562	2.341552	2.657096	1.764410	0.961892	0.036225	0.254850	-0.092210
18669	-4.619633	3.992338	8.378649	0.945055	3.587685	-0.132073	0.959844	0.033392	0.261159	-0.096852
18670	-5.912353	4.187238	6.490166	-0.870045	4.294704	-1.128959	0.957625	0.031134	0.267397	-0.102388
18671	-6.095930	4.576902	5.227833	-1.401659	4.922545	-2.115950	0.955051	0.030005	0.274018	-0.109049
18672	-7.978447	4.354076	-0.258251	-5.636171	5.853475	-5.732741	0.951582	0.033298	0.281732	-0.118364
18673	-6.442489	5.631185	6.287457	-0.389103	5.868577	-0.972608	0.947031	0.038749	0.290783	-0.130675
18674	-3.428983	5.788238	5.757934	2.077893	5.383912	-3.096680	0.942380	0.040291	0.299651	-0.143199
18675	-1.958063	5.642685	9.832419	5.672103	4.078034	-0.672707	0.937984	0.043100	0.306357	-0.156441
18676	-1.822021	3.515200	12.876015	6.962106	1.303405	1.645686	0.934402	0.045095	0.309620	-0.170281
18677	-1.210564	2.911141	10.697197	6.105694	0.848499	-0.519230	0.931135	0.047766	0.311624	-0.183295
18678	-2.463630	3.885037	10.410784	5.485091	2.054855	-0.053814	0.927843	0.051962	0.314735	-0.193257
18679	-4.577566	4.136572	9.801121	3.828586	2.969997	0.706116	0.924862	0.057202	0.318937	-0.199090
18680	-5.562239	3.532208	7.704294	1.820344	3.121320	-0.341034	0.922179	0.063417	0.324155	-0.201216
18681	-4.617494	2.845793	5.234137	0.915609	2.698443	-2.834581	0.919066	0.070750	0.330835	-0.202141
18682	-3.253704	2.501778	4.375019	1.332631	2.067249	-4.341390	0.915040	0.078879	0.338323	-0.204981
18683	-3.875011	3.152605	5.199230	1.773401	2.497871	-3.285827	0.910670	0.086978	0.344009	-0.211595
18684	-3.336445	4.250649	5.958792	3.189307	2.928403	-3.033521	0.906691	0.095172	0.346746	-0.220504
18685	-1.782691	3.789504	7.203205	4.801512	1.420686	-3.153204	0.903060	0.103387	0.347749	-0.229920
18686	-1.617372	3.217538	8.059102	5.152779	0.377259	-2.655798	0.899380	0.111376	0.348315	-0.239556
18687	-2.661446	2.449615	8.851109	4.538318	-0.391875	-1.405933	0.895947	0.119205	0.348126	-0.248753
18688	-3.150988	1.359242	9.697377	4.091641	-1.623929	-0.515639	0.893010	0.125178	0.347502	-0.257112
18689	-3.152129	1.166291	9.446748	3.822109	-1.804938	-0.720397	0.890457	0.130445	0.347935	-0.262699
18690	-4.136415	0.395630	9.418081	2.755155	-2.163597	-0.133138	0.888097	0.135325	0.349741	-0.265805
18691	-4.746567	-0.439220	8.608938	1.477427	-2.357538	-0.373666	0.885568	0.139863	0.352066	-0.268809
18692	-5.542308	-0.310462	7.995317	0.758951	-1.755725	-0.269123	0.882817	0.143976	0.354195	-0.272856
18693	-2.305951	4.041844	5.448281	3.944703	1.573034	-4.041979	0.879514	0.151691	0.356480	-0.276345
18694	-1.423987	4.012245	7.038477	5.340448	0.340411	-3.565419	0.877063	0.159680	0.363086	-0.270982
18695	-5.411505	-1.544064	9.212796	0.923086	-3.885839	0.216467	0.874006	0.168354	0.372067	-0.263316
18696	-7.037423	-1.738096	10.615605	0.775143	-4.449938	2.221698	0.870615	0.175400	0.380035	-0.258529
18697	-5.573021	0.994737	7.188114	1.443504	-1.184207	-0.855676	0.867211	0.181047	0.387324	-0.255238
18698	-3.148796	3.582458	4.039571	2.646824	1.655137	-4.397830	0.863326	0.187873	0.395587	-0.250764
18699	-2.818035	3.369466	4.613672	3.100304	0.971978	-4.333417	0.859240	0.196242	0.404872	-0.243462
18700	-3.182287	1.821638	6.990864	3.466018	-1.607236	-2.904906	0.855519	0.205866	0.413475	-0.233974
18701	-4.129324	-0.474183	10.206931	3.637696	-5.196179	-0.800574	0.853023	0.214711	0.419544	-0.224130
18702	-5.836010	-3.450454	8.909789	0.289715	-6.685983	-0.837262	0.851662	0.221262	0.423016	-0.216268
18703	-4.545818	-2.015436	8.232525	1.431816	-5.537874	-2.080887	0.850815	0.227696	0.424478	-0.209966
18704	-3.184857	0.465958	7.714905	3.276349	-3.558245	-2.994745	0.851542	0.229843	0.426226	-0.200944
18705	-5.594115	0.702283	5.330316	0.582364	-1.698201	-2.264440	0.852692	0.232148	0.426828	-0.191944
18706	-8.504554	-0.331961	2.931160	-3.150985	-0.870418	-1.425666	0.854831	0.231992	0.426178	-0.183890
18707	-8.055383	-0.898770	2.601788	-3.441454	-1.263997	-2.129934	0.856616	0.232007	0.424230	-0.180030
18708	-7.252122	-1.586082	3.429944	-2.847799	-2.390268	-2.529150	0.858435	0.230789	0.421433	-0.179500
18709	-8.323801	-2.186772	3.192531	-3.971597	-2.574174	-1.947627	0.859555	0.228967	0.418532	-0.183225
18710	-8.241510	-1.036579	1.819759	-4.221680	-0.771162	-2.471711	0.859589	0.227890	0.415694	-0.190714
18711	-5.556117	2.300587	3.324531	0.025659	0.814395	-2.989817	0.859078	0.228222	0.412980	-0.198360
18712	-4.958857	2.992915	4.123995	1.233870	0.852232	-2.862407	0.858600	0.229896	0.410571	-0.203433
18713	-5.826973	1.733202	5.147208	0.638629	-0.621306	-1.897049	0.858159	0.233207	0.408725	-0.205233
18714	-7.097819	0.059725	6.807521	-0.063915	-2.767273	-0.375398	0.857554	0.237313	0.408377	-0.203746
18715	-8.482288	-1.398337	7.878538	-1.055005	-4.431478	0.921541	0.856807	0.241258	0.409295	-0.200387
18716	-8.073154	-1.154429	8.570116	-0.262042	-4.824158	0.986046	0.856226	0.245172	0.410589	-0.195406
18717	-6.917786	0.146018	9.338443	1.596670	-4.525657	0.772733	0.856481	0.248981	0.411592	-0.187193
18718	-5.963629	1.144980	9.477077	2.791864	-4.017626	0.324105	0.858286	0.250491	0.412377	-0.174770
18719	-5.199002	1.383191	8.056704	2.510052	-3.109807	-0.987608	0.861543	0.249936	0.412168	-0.159356
18720	-4.520392	1.375393	7.214755	2.386594	-2.685401	-1.972337	0.865526	0.247955	0.411164	-0.142576
18721	-4.842628	1.659433	6.215807	1.650565	-1.867616	-2.155766	0.870212	0.244482	0.409282	-0.124286
18722	-6.153781	1.405957	4.364021	-0.559705	-1.083286	-2.236243	0.875313	0.240690	0.405784	-0.105996
18723	-7.536397	0.900945	3.499894	-2.325311	-1.139129	-1.865861	0.880302	0.236010	0.401227	-0.091566
18724	-8.991362	1.495478	3.268739	-3.350464	-0.592511	-0.746964	0.884661	0.231522	0.396136	-0.082759
18725	-9.103672	1.907394	2.632170	-3.823876	0.073950	-0.934925	0.888401	0.226136	0.391871	-0.077740
18726	-8.082770	2.878835	3.123461	-2.583180	0.762053	-1.087971	0.891069	0.221942	0.388899	-0.074130
18727	-6.848530	4.509989	4.063470	-0.688907	1.830527	-0.872432	0.892927	0.219884	0.386778	-0.068812
18728	-6.264482	5.849066	4.729300	0.448599	2.701995	-0.414940	0.894286	0.221350	0.384333	-0.059536
18729	-5.533156	6.234660	5.560963	1.451095	2.598542	-0.244641	0.895514	0.226137	0.380713	-0.044439
18730	-5.938781	3.828216	5.891899	0.571280	0.089181	-0.631283	0.896410	0.232679	0.376424	-0.024785
18731	-7.894904	1.413960	5.890530	-1.519718	-2.554681	-0.316234	0.896930	0.239367	0.371741	-0.005343
18732	-8.104298	2.157474	6.488025	-1.261512	-2.481915	0.418093	0.897746	0.246374	0.365023	0.010458
18733	-5.953481	3.102126	6.863478	0.558942	-1.623496	-0.366994	0.899082	0.252415	0.356967	0.022618
18734	-5.788810	3.537525	6.907561	0.594724	-1.379383	-0.248251	0.900822	0.256484	0.348864	0.032081
18735	-6.032535	4.158478	6.767669	0.213483	-0.944838	0.114234	0.903021	0.258639	0.340641	0.040280
18736	-5.317749	4.566868	6.351849	0.354275	-0.300584	-0.364842	0.905397	0.259274	0.332710	0.048339
18737	-5.589825	5.536392	6.375228	0.052768	0.392683	0.305645	0.907661	0.259582	0.324924	0.056510
18738	-4.548960	6.850747	6.463216	0.799360	1.694433	0.477294	0.909928	0.260616	0.316080	0.064837
18739	-2.263439	7.303894	6.224364	2.242588	2.754973	-0.615582	0.912070	0.263338	0.305329	0.074538
18740	-2.738827	6.678033	5.658678	1.233616	2.233645	-1.003669	0.913846	0.268018	0.292836	0.085431
18741	-3.875822	5.852875	5.593967	-0.013930	1.075582	-0.901721	0.915304	0.273530	0.279660	0.095859
18742	-3.879539	4.737084	5.464683	-0.320627	0.064687	-1.612631	0.916370	0.278757	0.267424	0.105097
18743	-4.097214	4.674733	5.461080	-0.706648	-0.192584	-1.571148	0.916846	0.283652	0.257097	0.113294
18744	-4.378987	5.411447	5.784634	-0.988449	0.021319	-0.816011	0.916942	0.287959	0.248653	0.120291
18745	-4.115661	5.236759	5.733054	-0.926927	-0.115829	-1.074537	0.916699	0.291948	0.241889	0.126171
18746	-3.870985	4.774363	5.591072	-0.855108	-0.424971	-1.558833	0.915865	0.295829	0.237575	0.131285
18747	-3.812618	4.586807	6.501990	-0.381737	-1.081827	-1.064312	0.915024	0.298626	0.235199	0.135038
18748	-2.954257	4.921934	7.073749	0.561679	-0.834322	-0.758463	0.914728	0.300631	0.232322	0.137549
18749	-2.378012	5.125820	6.952234	0.908569	-0.434998	-0.910594	0.914957	0.301797	0.228444	0.139947
18750	-2.437863	5.279056	7.249511	0.905077	-0.513569	-0.577789	0.915720	0.301586	0.223912	0.142710
18751	-2.351097	6.125238	7.268998	0.777538	0.146052	-0.052704	0.916587	0.301395	0.218258	0.146267
18752	-3.301940	6.666213	6.925856	-0.420021	0.323930	0.337452	0.917263	0.301694	0.211816	0.150811
18753	-4.949680	6.646394	6.696908	-2.102906	-0.281991	0.628519	0.917919	0.301531	0.205821	0.155373
18754	-5.518043	7.008363	6.607096	-2.823314	-0.226678	0.920255	0.918463	0.301076	0.201440	0.158745
18755	-5.432655	7.548760	6.971960	-2.761868	0.016187	1.477886	0.918851	0.300706	0.198577	0.160795
18756	-4.899965	8.096653	7.321285	-2.293848	0.464167	1.921419	0.919074	0.300723	0.196612	0.161904
18757	-4.052762	7.474807	6.515926	-1.847252	0.718302	0.714728	0.918627	0.302630	0.195671	0.162027
18758	-3.057471	7.328735	7.736028	-0.394698	0.359029	1.260691	0.917951	0.304945	0.195583	0.161622
18759	-2.415313	6.436873	8.675350	0.764025	-0.578917	1.214986	0.917165	0.307587	0.195746	0.160881
18760	-3.207305	4.784268	10.553885	1.224675	-3.162824	1.722348	0.916553	0.309400	0.195817	0.160804
18761	-4.023934	4.489031	11.079908	0.810151	-4.011772	2.118663	0.916540	0.309117	0.196135	0.161037
18762	-4.414734	4.586977	10.769465	0.319600	-3.914166	2.065383	0.916952	0.307244	0.196882	0.161363
18763	-4.101672	5.600687	8.878618	-0.435697	-1.997315	1.270712	0.917709	0.304328	0.197969	0.161252
18764	-3.552493	6.838087	7.624766	-0.729092	-0.119081	1.002588	0.918648	0.300244	0.199821	0.161276
18765	-3.091967	8.562685	7.054575	-0.872827	1.758616	1.535952	0.919348	0.296182	0.201783	0.162355
18766	-3.706116	9.096227	6.546245	-1.739262	2.223743	1.648541	0.919491	0.293576	0.202946	0.164808
18767	-4.462996	8.073025	5.968842	-2.496368	1.420773	0.792439	0.919225	0.292185	0.203951	0.167503
18768	-4.571316	7.245039	5.987064	-2.428006	0.732145	0.326404	0.918819	0.291317	0.205532	0.169301
18769	-3.001496	7.653627	6.030424	-1.119128	1.696657	0.178403	0.918307	0.291091	0.206991	0.170686
18770	-1.858611	7.767191	5.604191	-0.359496	2.459024	-0.377938	0.917257	0.292519	0.207642	0.173082
18771	-2.285375	6.332290	5.586634	-0.464825	1.132956	-1.150627	0.915724	0.295543	0.207762	0.175894
18772	-2.899238	4.460675	6.202550	-0.330807	-0.913990	-1.699134	0.914563	0.298561	0.207344	0.177328
18773	-2.335327	2.266967	7.595096	1.238683	-3.023827	-2.223192	0.914755	0.299404	0.205767	0.176749
18774	-1.737949	2.011050	8.408893	2.145161	-3.340923	-1.938027	0.916604	0.297130	0.202574	0.174687
18775	-1.905527	2.631443	7.711347	1.468221	-2.554099	-1.980710	0.919893	0.291813	0.197878	0.171714
18776	-2.256066	3.810454	6.339880	0.206045	-1.048343	-2.153693	0.923728	0.284617	0.193116	0.168596
18777	-2.916544	5.152967	5.857468	-0.935933	0.058485	-1.536933	0.927114	0.278164	0.188713	0.165745
18778	-3.569869	5.806998	5.679039	-1.788208	0.498717	-1.136921	0.929856	0.272846	0.185271	0.163090
18779	-3.131531	6.294977	6.285759	-1.288138	0.889042	-0.512515	0.932075	0.267905	0.183313	0.160808
18780	-1.591784	7.145401	7.197821	0.247565	1.858340	0.281056	0.933818	0.263872	0.181102	0.159867
18781	-2.308772	5.940035	7.311437	-0.155663	0.603864	-0.133720	0.934513	0.262830	0.178449	0.160506
18782	-2.961751	6.004744	8.616597	-0.240527	-0.248880	1.093876	0.932745	0.268648	0.176817	0.162946
18783	-1.171777	6.938381	8.993290	1.280175	0.871226	1.500697	0.930263	0.275630	0.174636	0.167750
18784	-1.602771	6.134374	8.468946	0.782111	0.111302	0.736909	0.927220	0.283797	0.170319	0.175252
18785	-2.934619	4.731554	7.380674	-0.618817	-1.224883	-0.670146	0.924001	0.293013	0.164644	0.182366
18786	-2.893942	4.927841	7.418099	-0.695724	-1.307986	-0.566805	0.920587	0.303937	0.158473	0.187158
18787	-2.434115	6.821556	9.346550	-0.053501	-0.921566	1.975444	0.918307	0.311296	0.153399	0.190462
18788	-2.974653	6.775152	8.201327	-1.055213	-0.752490	1.156909	0.917164	0.315047	0.149918	0.192561
18789	-2.281233	6.800810	7.549509	-0.760412	-0.164491	0.572127	0.916428	0.317580	0.147579	0.193707
18790	-2.074722	6.452102	7.120779	-0.685290	-0.150928	-0.007232	0.915716	0.319858	0.146321	0.194280
18791	-2.131806	6.500990	7.583844	-0.569230	-0.435565	0.375949	0.915195	0.321701	0.146227	0.193763
18792	-1.774205	6.600073	7.669431	-0.226553	-0.279371	0.453736	0.914951	0.323043	0.146832	0.192216
18793	-1.579567	6.329291	7.323930	-0.087643	-0.206710	-0.007366	0.914911	0.323771	0.148297	0.190050
18794	-1.998932	6.242392	7.222892	-0.425836	-0.391753	-0.076250	0.915081	0.324128	0.150606	0.186776
18795	-1.029416	7.446462	7.377521	0.286891	0.842942	0.682231	0.915813	0.322702	0.154406	0.182508
18796	0.310580	8.401667	7.494067	1.388502	2.093814	1.166060	0.916216	0.321604	0.157136	0.180074
18797	-0.814103	7.190438	7.087446	0.550787	0.993594	0.252414	0.916168	0.320534	0.159435	0.180208
18798	-1.090103	6.832813	7.313316	0.514074	0.524867	0.228243	0.915948	0.319135	0.162179	0.181355
18799	-1.674356	6.824776	7.636449	0.176661	0.125976	0.562715	0.915520	0.317586	0.165687	0.183061
18800	-2.106915	6.719367	7.826117	-0.042148	-0.206204	0.713105	0.914997	0.316169	0.169737	0.184410
18801	-2.101297	6.719072	7.641692	-0.046680	-0.062355	0.577214	0.914753	0.313968	0.174188	0.185230
18802	-2.602666	6.867270	7.694621	-0.412460	-0.149674	0.814961	0.914367	0.311637	0.179500	0.185997
18803	-3.424325	7.204892	7.733042	-1.104664	-0.233609	1.239952	0.914287	0.309012	0.183537	0.186830
18804	-3.347453	6.438879	7.682896	-0.830375	-0.661992	0.702200	0.914787	0.305365	0.187090	0.186854
18805	-2.933189	6.575989	8.389624	-0.145939	-0.641028	1.223622	0.915674	0.301733	0.188730	0.186761
18806	-3.093638	5.601863	7.471476	-0.502005	-0.918147	-0.031118	0.916837	0.299431	0.187015	0.186484
18807	-3.063261	5.451448	6.694988	-0.848210	-0.609681	-0.711412	0.917936	0.299049	0.183328	0.185350
18808	-1.258614	5.786037	5.501145	0.082091	1.045999	-1.798698	0.918093	0.298781	0.184149	0.184186
18809	-0.637702	6.330280	7.341132	1.384165	0.862911	-0.236182	0.917398	0.296386	0.190819	0.184727
18810	-1.201148	6.944132	8.069764	1.190069	0.780092	0.806124	0.916678	0.294194	0.195967	0.186408
18811	-2.711137	6.340529	7.888191	0.005439	-0.217373	0.662448	0.916504	0.291640	0.199004	0.188053
18812	-3.788300	5.883358	7.233759	-1.093524	-0.701405	0.167516	0.916706	0.289506	0.200429	0.188849
18813	-4.054003	6.102823	7.592361	-1.201571	-0.795379	0.639435	0.917232	0.288386	0.199595	0.188892
18814	-4.088926	6.876803	8.737640	-0.913441	-0.736163	1.976256	0.918379	0.287040	0.196368	0.188751
18815	-3.903132	6.358557	8.652268	-0.797940	-0.981477	1.541840	0.920334	0.285496	0.189567	0.188525
18816	-3.273867	5.427804	7.373149	-0.795304	-0.793781	-0.154668	0.922652	0.284364	0.180305	0.187991
18817	-2.004554	4.720408	6.051061	-0.256389	-0.144243	-1.886262	0.924484	0.284215	0.172483	0.186552
18818	-0.909343	5.775304	7.029528	0.764122	0.672298	-0.726493	0.925553	0.284088	0.167637	0.185861
18819	-0.879769	6.064978	7.503834	0.860397	0.691596	-0.187371	0.926231	0.282212	0.166407	0.186442
18820	-1.466207	5.362874	7.427107	0.471135	-0.024502	-0.547197	0.926596	0.279447	0.167561	0.187756
18821	-2.327981	5.007751	7.743226	-0.053189	-0.774924	-0.333708	0.926770	0.276969	0.169282	0.189023
18822	-2.999933	5.140731	8.321296	-0.417164	-1.193687	0.339732	0.927021	0.274953	0.170336	0.189785
18823	-3.395133	5.177714	8.611183	-0.651817	-1.434748	0.675621	0.927590	0.273097	0.170024	0.189967
18824	-2.977891	5.226380	8.255591	-0.476227	-1.019314	0.339736	0.928327	0.271714	0.168458	0.189745
18825	-2.715619	5.322908	8.302939	-0.296048	-0.826762	0.379237	0.929164	0.270461	0.166189	0.189435
18826	-2.226684	5.361286	8.259909	0.053901	-0.541051	0.268569	0.929959	0.269110	0.163972	0.189391
18827	-2.125673	5.374871	7.885181	-0.058640	-0.294741	-0.040619	0.930683	0.267644	0.162221	0.189420
18828	-0.301106	9.652104	9.071361	0.845740	3.338180	2.981214	0.931163	0.265281	0.160536	0.191804
18829	-2.263238	6.915959	10.792833	0.444183	-0.328931	3.192290	0.932452	0.258431	0.158401	0.196609
18830	-4.095455	-0.836668	6.214751	-0.906616	-5.162348	-4.462574	0.933790	0.255486	0.152393	0.198845
18831	-2.505933	4.774000	7.286267	-0.818031	-0.516966	-0.800339	0.934895	0.256450	0.144367	0.198400
18832	-1.014291	6.203633	8.438670	0.376644	0.713783	0.678831	0.935124	0.258355	0.137746	0.199553
18833	-1.188429	6.092199	8.014858	-0.015793	0.696430	0.300619	0.935430	0.257658	0.133002	0.202224
18834	-2.403310	4.553737	8.441404	-0.575210	-1.240805	-0.019914	0.935626	0.256399	0.128417	0.205848
18835	-2.514551	4.782727	8.632602	-0.772851	-1.198161	0.271249	0.935985	0.255095	0.124690	0.208113
18836	-2.516955	5.910234	8.802946	-1.167083	-0.383341	1.015425	0.936727	0.253074	0.121103	0.209358
18837	-1.598720	5.626504	8.587196	-0.423542	-0.068245	0.568480	0.937513	0.250817	0.117550	0.210577
18838	-1.777664	4.746502	8.805077	-0.292336	-0.891592	0.303531	0.938343	0.247939	0.115356	0.211498
18839	-2.151237	4.891864	8.873427	-0.704591	-0.917039	0.480894	0.939422	0.244100	0.113856	0.211988
18840	-1.555453	4.081827	8.077222	-0.204412	-0.881145	-0.674658	0.940400	0.240386	0.112343	0.212699
18841	-1.240388	3.779494	7.687951	0.024324	-0.768250	-1.190807	0.940712	0.238251	0.112003	0.213900
18842	-1.479793	3.948538	8.157691	-0.103126	-0.917966	-0.676203	0.940400	0.237746	0.112695	0.215462
18843	-2.212758	4.692002	8.594391	-0.855752	-0.849953	0.153252	0.939767	0.238249	0.113928	0.217018
18844	-1.998082	5.765316	8.752048	-0.980204	0.011883	0.811275	0.939321	0.238894	0.113998	0.218197
18845	-1.612466	5.451395	8.980727	-0.462297	-0.163903	0.804781	0.939044	0.238952	0.113790	0.219432
18846	-1.456643	5.360307	9.073460	-0.268939	-0.200148	0.820749	0.938891	0.238344	0.114087	0.220592
18847	-1.628831	5.564044	9.063045	-0.499335	-0.099624	0.933993	0.938971	0.237040	0.114374	0.221505
18848	-1.113645	4.097617	8.873560	0.406480	-0.906659	-0.025787	0.939110	0.235660	0.114159	0.222495
18849	-0.666886	3.375277	8.883220	1.046713	-1.245938	-0.426484	0.939088	0.234481	0.113752	0.224039
18850	-0.844050	4.831554	8.584705	0.245408	-0.055059	0.071147	0.938848	0.233671	0.112927	0.226296
18851	-1.712110	6.316275	8.445709	-1.135725	0.755165	0.784312	0.938580	0.232594	0.112143	0.228893
18852	-1.095428	6.031530	9.782968	-0.101664	0.312994	1.727560	0.938379	0.230822	0.111691	0.231711
18853	-1.230760	6.333619	9.474077	-0.478611	0.649394	1.621309	0.938699	0.227347	0.110704	0.234311
18854	-1.205435	5.764296	9.106174	-0.411860	0.429223	1.015420	0.939257	0.222997	0.109657	0.236738
18855	-1.932665	5.524939	9.334914	-0.933552	-0.118220	1.165213	0.940072	0.218109	0.108596	0.238535
18856	-2.158788	4.617118	9.360363	-0.815161	-0.857717	0.779447	0.941123	0.212910	0.107600	0.239540
18857	-1.433292	3.298310	8.844876	0.135122	-1.259841	-0.349139	0.942229	0.207955	0.106694	0.239950
18858	-0.730475	2.847255	8.905618	0.909713	-1.206190	-0.557020	0.943116	0.203436	0.106589	0.240386
18859	-0.652081	4.024718	9.267950	0.586344	-0.272902	0.291748	0.943767	0.199412	0.106736	0.241135
18860	-0.889858	4.584294	9.213661	0.118056	0.149538	0.515062	0.944158	0.195900	0.107116	0.242313
18861	-1.453656	5.516506	9.825943	-0.586542	0.483086	1.523813	0.944514	0.192536	0.107296	0.243537
18862	-1.686624	5.445696	9.539178	-0.866838	0.471498	1.256281	0.944986	0.189192	0.107229	0.244357
18863	-1.701683	4.362009	9.163762	-0.564723	-0.226631	0.459935	0.945515	0.186197	0.106822	0.244786
18864	-1.690967	4.103347	9.059079	-0.508097	-0.344478	0.256405	0.946173	0.183502	0.105779	0.244735
18865	-1.808105	4.047432	8.984274	-0.645242	-0.379058	0.177699	0.946970	0.181061	0.104204	0.244143
18866	-1.691844	3.702067	8.856561	-0.481482	-0.520562	-0.091413	0.947895	0.178740	0.102198	0.243112
18867	-1.236109	3.385990	8.755482	-0.035139	-0.483704	-0.356694	0.948853	0.176466	0.099756	0.242047
18868	-0.717494	3.649117	8.692057	0.229117	0.038458	-0.361318	0.949732	0.174327	0.097047	0.241251
18869	-0.341613	3.559122	8.567867	0.499359	0.213212	-0.544612	0.950496	0.172327	0.094051	0.240865
18870	-0.156030	3.645081	8.807068	0.621797	0.328752	-0.305835	0.951191	0.170181	0.090800	0.240893
18871	-0.396387	3.769661	8.982798	0.329995	0.291731	-0.072899	0.951954	0.167574	0.087153	0.241054
18872	-0.605393	3.380243	8.943497	0.218519	-0.084445	-0.235474	0.952801	0.164630	0.083042	0.241187
18873	-0.371003	3.148021	8.939085	0.426027	-0.124721	-0.338673	0.953659	0.161588	0.078404	0.241406
18874	-0.301330	2.678714	8.225074	0.426048	-0.247490	-1.171244	0.954412	0.158933	0.073265	0.241806
18875	-0.100138	2.809064	8.184087	0.443754	-0.018344	-1.170795	0.954814	0.157676	0.068489	0.242442
18876	0.057795	2.780888	8.770319	0.640459	-0.133386	-0.635170	0.954957	0.157188	0.064897	0.243180
18877	0.598181	2.792525	8.907779	1.079572	0.094707	-0.521297	0.954967	0.156674	0.062664	0.244058
18878	1.122921	2.985648	9.275053	1.492389	0.410258	-0.127334	0.954816	0.156003	0.061907	0.245268
18879	0.966941	3.366644	9.586899	1.237427	0.578558	0.302247	0.954513	0.155064	0.062534	0.246881
18880	0.738986	3.757787	9.850759	0.924559	0.747755	0.689236	0.954164	0.153562	0.064213	0.248729
18881	0.766818	3.198499	9.734275	1.199728	0.370528	0.385238	0.953744	0.152222	0.066275	0.250617
18882	0.570716	3.102157	9.679403	1.091231	0.247919	0.305981	0.953318	0.150787	0.068605	0.252470
18883	0.787736	3.012552	9.808007	1.377291	0.290802	0.381000	0.953018	0.149251	0.070801	0.253905
18884	1.152677	3.110243	9.804556	1.677431	0.601529	0.383178	0.952902	0.147565	0.073129	0.254664
18885	0.575072	3.940916	9.762428	0.821892	1.053451	0.645846	0.952950	0.145658	0.075453	0.254907
18886	-0.053727	4.493418	10.002523	0.110789	1.190552	1.087494	0.953238	0.142884	0.077564	0.254764
18887	-0.928936	8.446942	13.370182	-1.699570	3.314649	5.585265	0.954156	0.136964	0.078704	0.254230
18888	-2.810340	3.096329	6.417548	-2.433181	-0.294015	-2.555836	0.955496	0.127968	0.077677	0.254199
18889	-6.727901	-0.432073	9.295085	-3.603782	-5.836415	-0.604161	0.955206	0.132810	0.072824	0.254242
18890	-1.621316	7.582411	9.065747	-3.065135	3.392294	1.205726	0.955625	0.133459	0.066729	0.254003
18891	0.718466	2.277057	8.681740	1.240684	0.231460	-0.897519	0.956227	0.131208	0.062084	0.254086
18892	1.680344	0.989129	9.202054	2.697103	-0.475843	-0.813875	0.956527	0.130680	0.058864	0.253995
18893	1.528532	1.972584	9.288195	2.080439	0.246943	-0.426058	0.956705	0.130048	0.057737	0.253907
18894	1.007330	2.466743	9.313893	1.389648	0.401326	-0.233755	0.956847	0.129391	0.057715	0.253714
18895	0.408220	2.722363	9.292061	0.750091	0.339139	-0.156468	0.957013	0.128234	0.058432	0.253512
18896	0.075146	2.135192	9.137852	0.724799	-0.252007	-0.459826	0.957147	0.126737	0.060158	0.253356
18897	-0.296422	1.931051	8.991099	0.495564	-0.539994	-0.641027	0.957270	0.125229	0.061858	0.253228
18898	-0.721401	1.834156	8.758753	0.152447	-0.747880	-0.867431	0.957371	0.123736	0.063470	0.253183
18899	-0.966751	1.758549	8.850238	0.012651	-0.920956	-0.784655	0.957468	0.122255	0.064916	0.253168
18900	-0.967025	1.618959	8.902629	0.103462	-1.018704	-0.770319	0.957572	0.120889	0.066036	0.253143
18901	-0.882922	1.467915	8.864391	0.250773	-1.068185	-0.851226	0.957698	0.119666	0.066912	0.253018
18902	-0.631557	1.571899	8.954765	0.446399	-0.849830	-0.749795	0.957846	0.118596	0.067733	0.252740
18903	-0.371616	1.585833	9.075798	0.698314	-0.710512	-0.645869	0.958019	0.117584	0.068638	0.252313
18904	-0.370863	1.659327	9.163551	0.695235	-0.644471	-0.541074	0.958199	0.116721	0.069694	0.251740
18905	-0.663024	1.830399	9.257555	0.398372	-0.645231	-0.383096	0.958371	0.116070	0.070823	0.251072
18906	-0.863576	2.056695	9.252985	0.137064	-0.536511	-0.310751	0.958550	0.115593	0.071850	0.250317
18907	-1.027498	2.189892	9.174118	-0.066780	-0.476607	-0.337236	0.958761	0.115282	0.072588	0.249438
18908	-1.138784	2.234825	9.091437	-0.188646	-0.467795	-0.395094	0.958991	0.115110	0.073156	0.248465
18909	-0.969454	2.100446	9.135356	0.038483	-0.501354	-0.402395	0.959213	0.115162	0.073645	0.247437
18910	-0.581958	2.230008	8.956488	0.286985	-0.166204	-0.570377	0.959443	0.115479	0.073736	0.246366
18911	-0.200266	2.298995	8.784440	0.556429	0.107787	-0.747885	0.959687	0.115905	0.073673	0.245233
18912	-0.159012	2.422656	8.923453	0.569708	0.198245	-0.584541	0.959913	0.116378	0.073810	0.244079
18913	-0.399860	2.527997	9.072431	0.351223	0.134823	-0.393658	0.960144	0.116839	0.074084	0.242865
18914	-0.692500	2.607410	9.159825	0.088449	0.037743	-0.264323	0.960383	0.117348	0.074384	0.241581
18915	-1.028033	2.642097	9.271413	-0.186585	-0.121972	-0.120065	0.960627	0.117858	0.074714	0.240256
18916	-1.270864	2.630799	9.355507	-0.367349	-0.270136	-0.022193	0.960884	0.118379	0.074900	0.238909
18917	-1.461170	2.628260	9.368104	-0.524814	-0.371166	0.005202	0.961163	0.118902	0.074838	0.237546
18918	-1.485304	2.620404	9.336221	-0.548101	-0.388918	-0.025656	0.961458	0.119396	0.074568	0.236185
18919	-1.409259	2.510242	9.355092	-0.431791	-0.458456	-0.044963	0.961755	0.119934	0.074207	0.234813
18920	-1.347949	2.705934	9.337353	-0.468545	-0.266587	-0.012963	0.962058	0.120550	0.073806	0.233377
18921	-1.387062	2.921485	9.362512	-0.591885	-0.113215	0.074299	0.962384	0.121127	0.073490	0.231830
18922	-1.615202	3.049216	9.239057	-0.873371	-0.088650	0.010557	0.962743	0.121593	0.073128	0.230203
18923	-1.523620	3.025083	9.234769	-0.785958	-0.070124	-0.008053	0.963136	0.121984	0.072647	0.228498
18924	-1.131903	3.059222	9.271591	-0.450531	0.127072	0.004813	0.963536	0.122300	0.072101	0.226808
18925	-0.695020	3.065945	9.226720	-0.078458	0.337154	-0.071250	0.963902	0.122589	0.071642	0.225237
18926	-0.418467	3.180003	9.117974	0.098580	0.580874	-0.165001	0.964223	0.122819	0.071462	0.223792
18927	-0.305836	3.276987	9.032498	0.147064	0.733463	-0.228398	0.964505	0.122889	0.071590	0.222494
18928	-0.313920	3.260736	9.008185	0.151380	0.724933	-0.256021	0.964754	0.122746	0.072057	0.221341
18929	-0.473606	3.248019	9.101361	0.045790	0.630533	-0.158207	0.964978	0.122507	0.072733	0.220269
18930	-0.831599	3.355079	9.039474	-0.314472	0.589562	-0.157964	0.965203	0.122153	0.073438	0.219245
18931	-1.310588	3.321272	9.053635	-0.711108	0.360641	-0.113151	0.965424	0.121596	0.074250	0.218305
18932	-1.614565	3.366824	9.255451	-0.947746	0.241257	0.119544	0.965661	0.120938	0.074877	0.217408
18933	-1.672187	3.446859	9.329436	-1.007081	0.288652	0.218157	0.965915	0.120274	0.075295	0.216504
18934	-1.689586	3.490525	9.363501	-1.027463	0.329743	0.264474	0.966194	0.119648	0.075508	0.215526
18935	-1.768960	3.360327	9.110731	-1.096441	0.250153	-0.006482	0.966502	0.119168	0.075389	0.214450
18936	-1.555325	3.325836	9.205953	-0.874214	0.302861	0.055130	0.966820	0.118922	0.075153	0.213234
18937	-1.106124	3.327146	9.211859	-0.472547	0.503504	0.019654	0.967155	0.118685	0.074857	0.211947
18938	-0.770510	3.199577	9.143254	-0.135542	0.556849	-0.112089	0.967447	0.118367	0.074774	0.210817
18939	-0.712226	3.212425	9.251771	-0.063063	0.579529	-0.010526	0.967689	0.117975	0.075051	0.209826
18940	-0.642190	3.215541	9.406119	0.039191	0.592174	0.130900	0.967899	0.117443	0.075708	0.208919
18941	-0.586003	3.095616	9.427094	0.155582	0.523084	0.111951	0.968089	0.116684	0.076682	0.208107
18942	-0.782034	2.996283	9.348907	0.020933	0.391037	0.027938	0.968265	0.115791	0.077913	0.207328
18943	-1.156180	3.017471	9.402811	-0.291768	0.266851	0.122014	0.968441	0.114815	0.079210	0.206556
18944	-1.572711	2.963940	9.495630	-0.608683	0.053109	0.239773	0.968642	0.113779	0.080242	0.205786
18945	-1.734791	2.854705	9.422673	-0.715563	-0.069916	0.158703	0.968878	0.112683	0.080877	0.205030
18946	-1.721825	2.695884	9.274179	-0.669121	-0.151061	-0.026357	0.969140	0.111635	0.081135	0.204263
18947	-1.568682	2.589685	9.083470	-0.529741	-0.122907	-0.253352	0.969404	0.110712	0.081194	0.203485
18948	-1.464739	2.487962	8.988249	-0.419441	-0.134510	-0.382418	0.969679	0.110003	0.081103	0.202592
18949	-1.297897	2.491329	8.908179	-0.288684	-0.032200	-0.476600	0.969966	0.109282	0.081044	0.201629
18950	-1.123263	2.315789	8.878829	-0.071924	-0.096574	-0.569112	0.970240	0.108580	0.081173	0.200640
18951	-1.048891	2.421656	8.927556	-0.030764	0.033239	-0.503350	0.970496	0.108013	0.081448	0.199593
18952	-1.064056	2.613528	8.972488	-0.099681	0.204336	-0.409678	0.970738	0.107407	0.081876	0.198564
18953	-1.193342	2.580677	9.070661	-0.177539	0.118588	-0.309254	0.970956	0.106874	0.082299	0.197609
18954	-1.188608	2.602521	9.126517	-0.162573	0.142115	-0.250649	0.971159	0.106443	0.082657	0.196692
18955	-1.325202	2.670541	9.156096	-0.299409	0.154227	-0.189351	0.971361	0.106049	0.082918	0.195797
18956	-1.501899	2.705295	9.233589	-0.453977	0.111171	-0.085662	0.971572	0.105653	0.082952	0.194946
18957	-1.545512	2.541774	9.256650	-0.432192	-0.047900	-0.099516	0.971800	0.105273	0.082730	0.194108
18958	-1.383643	2.478480	9.331574	-0.251912	-0.047299	-0.062308	0.972026	0.104980	0.082410	0.193268
18959	-1.240798	2.534694	9.252897	-0.162438	0.080448	-0.140693	0.972244	0.104711	0.082171	0.192418
18960	-1.383185	2.449628	9.201909	-0.274637	-0.034989	-0.194353	0.972443	0.104363	0.082169	0.191602
18961	-1.521338	2.428304	9.253331	-0.382218	-0.110901	-0.134006	0.972628	0.104260	0.082204	0.190699
18962	-1.549209	2.605220	9.486404	-0.421326	-0.000003	0.137266	0.972825	0.104119	0.082228	0.189763
18963	-1.635353	2.636152	9.693973	-0.467077	-0.037309	0.354772	0.973023	0.103924	0.082324	0.188808
18964	-1.740383	2.597467	9.728125	-0.541320	-0.111750	0.390580	0.973225	0.103707	0.082321	0.187887
18965	-1.746655	2.711735	9.756656	-0.583492	-0.009629	0.446751	0.973446	0.103531	0.081989	0.186980
18966	-1.552828	2.760957	9.731784	-0.436815	0.117343	0.411656	0.973685	0.103397	0.081296	0.186114
18967	-1.131297	2.639858	9.656448	-0.038476	0.183080	0.260080	0.973930	0.103240	0.080331	0.185335
18968	-0.764402	2.377863	9.444760	0.327496	0.122401	-0.049503	0.974162	0.103181	0.079199	0.184636
18969	-0.443654	2.389236	9.436408	0.598331	0.252120	-0.090059	0.974360	0.103191	0.078227	0.183997
18970	-0.264319	2.347579	9.359500	0.750511	0.293972	-0.193356	0.974518	0.103121	0.077760	0.183396
18971	-0.322471	2.070143	9.346341	0.785982	0.022983	-0.266732	0.974636	0.103096	0.077853	0.182741
18972	-0.674018	2.227235	9.520368	0.450477	0.005674	-0.022422	0.974720	0.103012	0.078532	0.182049
18973	-1.187995	2.191324	9.567398	0.015611	-0.219391	0.071639	0.974792	0.102835	0.079646	0.181281
18974	-1.571955	2.160323	9.426933	-0.332940	-0.355155	-0.026571	0.974855	0.102746	0.080806	0.180473
18975	-1.560930	2.251278	9.408693	-0.335978	-0.258911	-0.022472	0.974928	0.102793	0.081698	0.179649
18976	-1.479698	2.393314	9.374886	-0.299576	-0.090712	-0.029643	0.975011	0.102926	0.082227	0.178880
18977	-1.410010	2.438610	9.293259	-0.257557	-0.007844	-0.105308	0.975113	0.103012	0.082449	0.178175
18978	-1.349371	2.420315	9.391814	-0.171895	-0.019429	-0.022132	0.975227	0.103009	0.082518	0.177519
18979	-1.228328	2.466051	9.499002	-0.052648	0.048552	0.077515	0.975353	0.102937	0.082453	0.176894
18980	-1.093477	2.480053	9.558456	0.078249	0.101466	0.121799	0.975479	0.102851	0.082325	0.176311
18981	-0.990592	2.496386	9.501541	0.155708	0.166899	0.058503	0.975601	0.102712	0.082260	0.175747
18982	-1.006824	2.523528	9.550354	0.142709	0.181162	0.113941	0.975710	0.102517	0.082386	0.175194
18983	-0.920187	2.428106	9.419731	0.231789	0.153783	-0.045580	0.975802	0.102374	0.082618	0.174655
18984	-0.905755	2.479545	9.569010	0.264274	0.182346	0.108573	0.975869	0.102293	0.082947	0.174170
18985	-1.101961	2.611643	9.577550	0.050242	0.236408	0.172603	0.975926	0.102129	0.083413	0.173724
18986	-1.266109	2.597337	9.580817	-0.087013	0.170063	0.192549	0.975977	0.101960	0.083893	0.173307
18987	-1.249752	2.594882	9.587077	-0.060721	0.178528	0.195897	0.976025	0.101754	0.084326	0.172944
18988	-1.181453	2.636298	9.507336	-0.018780	0.261515	0.120418	0.976070	0.101533	0.084700	0.172642
18989	-1.073611	2.687220	9.396072	0.048737	0.373072	0.011690	0.976111	0.101263	0.084989	0.172425
18990	-1.164201	2.509825	9.378102	0.021882	0.188172	-0.036825	0.976148	0.100975	0.085234	0.172262
18991	-1.099407	2.472491	9.454014	0.113288	0.169200	0.018835	0.976179	0.100737	0.085488	0.172100
18992	-1.085584	2.485031	9.485228	0.133692	0.185189	0.049931	0.976198	0.100561	0.085817	0.171932
18993	-1.152746	2.480754	9.470449	0.077245	0.165864	0.043218	0.976213	0.100331	0.086296	0.171743
18994	-1.301980	2.393937	9.415243	-0.034288	0.050164	-0.011199	0.976206	0.100103	0.086973	0.171573
18995	-1.398658	2.414043	9.377114	-0.126200	0.048280	-0.030263	0.976204	0.099875	0.087578	0.171408
18996	-1.364838	2.369308	9.201475	-0.107772	0.056102	-0.214314	0.976209	0.099712	0.087986	0.171266
18997	-1.291547	2.409071	9.231948	-0.040117	0.117440	-0.185373	0.976221	0.099540	0.088244	0.171167
18998	-1.302981	2.417495	9.365560	-0.021654	0.102330	-0.053342	0.976236	0.099294	0.088467	0.171107
18999	-1.261502	2.335801	9.534918	0.081641	0.018072	0.084535	0.976250	0.098985	0.088755	0.171059
19000	-1.272993	2.305534	9.550062	0.088306	-0.009483	0.093461	0.976259	0.098683	0.089051	0.171027
19001	-1.377237	2.354114	9.561038	-0.015477	0.003510	0.129737	0.976262	0.098412	0.089437	0.170962
19002	-1.497371	2.372290	9.515891	-0.134948	-0.007782	0.107181	0.976262	0.098193	0.089839	0.170876
19003	-1.563117	2.302584	9.505974	-0.169519	-0.088191	0.090456	0.976272	0.098042	0.090161	0.170737
19004	-1.619335	2.410473	9.564399	-0.238028	-0.014995	0.179984	0.976287	0.097927	0.090378	0.170606
19005	-1.593391	2.433715	9.556676	-0.219666	0.020249	0.174467	0.976313	0.097788	0.090512	0.170463
19006	-1.577438	2.385365	9.484346	-0.203043	-0.002949	0.091345	0.976341	0.097678	0.090605	0.170318
19007	-1.499033	2.360337	9.521801	-0.113670	-0.002551	0.110521	0.976372	0.097584	0.090630	0.170179
19008	-1.446418	2.363105	9.427467	-0.085341	0.037126	0.013037	0.976404	0.097473	0.090658	0.170044
19009	-1.408814	2.331106	9.386733	-0.047074	0.030775	-0.038927	0.976418	0.097349	0.090865	0.169924
19010	-1.486393	2.357759	9.419261	-0.115395	0.026180	0.009576	0.976421	0.097221	0.091198	0.169801
19011	-1.484926	2.300237	9.385039	-0.096712	-0.016249	-0.036930	0.976422	0.097068	0.091589	0.169673
19012	-1.536930	2.262323	9.430130	-0.115586	-0.072478	0.005102	0.976420	0.096917	0.092053	0.169523
19013	-1.464809	2.331728	9.336497	-0.081547	0.037563	-0.078997	0.976422	0.096754	0.092529	0.169344
19014	-1.561288	2.322902	9.421728	-0.139967	-0.013166	0.014961	0.976416	0.096553	0.093120	0.169166
19015	-1.704697	2.317726	9.561947	-0.229985	-0.085163	0.169723	0.976419	0.096318	0.093704	0.168966
19016	-1.834198	2.285482	9.544336	-0.333461	-0.150178	0.164702	0.976428	0.096103	0.094219	0.168744
19017	-1.891407	2.290062	9.488654	-0.391736	-0.150400	0.121107	0.976456	0.095921	0.094579	0.168484
19018	-1.857295	2.322441	9.442090	-0.375349	-0.095817	0.079040	0.976507	0.095755	0.094746	0.168189
19019	-1.689452	2.284395	9.479367	-0.197335	-0.074653	0.081078	0.976565	0.095593	0.094872	0.167874
19020	-1.609014	2.284466	9.502687	-0.115959	-0.047397	0.091508	0.976615	0.095518	0.094929	0.167596
19021	-1.623158	2.271778	9.541541	-0.115248	-0.067554	0.128076	0.976664	0.095379	0.095017	0.167337
19022	-1.691409	2.219436	9.445995	-0.181002	-0.118711	0.034481	0.976718	0.095155	0.095198	0.167047
19023	-1.653668	2.120633	9.411160	-0.120606	-0.185854	-0.027364	0.976769	0.094955	0.095352	0.166773
19024	-1.545764	2.120998	9.442501	-0.011688	-0.149162	-0.013379	0.976818	0.094785	0.095454	0.166525
19025	-1.530368	2.198621	9.469075	-0.013424	-0.072276	0.027736	0.976869	0.094605	0.095563	0.166265
19026	-1.577321	2.223190	9.509706	-0.054295	-0.067689	0.079607	0.976935	0.094389	0.095611	0.165974
19027	-1.582478	2.066577	9.426157	-0.028801	-0.195067	-0.035749	0.976998	0.094148	0.095717	0.165677
19028	-1.550341	2.134602	9.499460	-0.001134	-0.128186	0.045476	0.977058	0.093975	0.095890	0.165322
19029	-1.716757	2.104438	9.537806	-0.136123	-0.214676	0.100992	0.977122	0.093806	0.095928	0.165019
19030	-1.715756	2.125591	9.523611	-0.145343	-0.188756	0.092078	0.977197	0.093672	0.095840	0.164700
19031	-1.657493	2.149231	9.525334	-0.099506	-0.144011	0.090233	0.977270	0.093519	0.095785	0.164385
19032	-1.711684	2.106884	9.391177	-0.166982	-0.175787	-0.040060	0.977333	0.093364	0.095803	0.164086
19033	-1.786061	2.048696	9.225042	-0.255835	-0.224308	-0.201610	0.977406	0.093260	0.095699	0.163772
19034	-1.709638	2.133986	9.158774	-0.227911	-0.106679	-0.257763	0.977478	0.093194	0.095476	0.163510
19035	-1.551269	2.103177	9.260580	-0.054075	-0.097118	-0.191056	0.977556	0.093085	0.095199	0.163269
19036	-1.347539	2.073273	9.197646	0.126184	-0.044112	-0.289392	0.977619	0.092975	0.095026	0.163056
19037	-1.321150	2.132145	9.310503	0.155625	0.003428	-0.171488	0.977666	0.092814	0.095002	0.162876
19038	-1.349158	2.147607	9.398028	0.144099	-0.002017	-0.079518	0.977707	0.092599	0.095080	0.162710
19039	-1.447352	2.214340	9.503375	0.057319	0.015150	0.051832	0.977744	0.092321	0.095219	0.162562
19040	-1.551845	2.234326	9.528552	-0.038682	0.000771	0.096513	0.977781	0.092033	0.095326	0.162440
19041	-1.553881	2.167589	9.424936	-0.042945	-0.038828	-0.017839	0.977830	0.091735	0.095331	0.162310
19042	-1.574244	2.080774	9.398968	-0.043394	-0.117242	-0.059081	0.977876	0.091547	0.095223	0.162206
19043	-1.570777	2.097482	9.494838	-0.027448	-0.113297	0.036431	0.977937	0.091437	0.095042	0.162005
19044	-1.678312	2.113921	9.449862	-0.146707	-0.125116	0.013202	0.978007	0.091367	0.094752	0.161790
19045	-1.600865	2.018837	9.423700	-0.058449	-0.182507	-0.044993	0.978086	0.091298	0.094385	0.161566
19046	-1.537217	1.958523	9.336369	-0.007599	-0.203183	-0.152186	0.978167	0.091291	0.093963	0.161328
19047	-1.451375	2.000952	9.370787	0.059538	-0.141507	-0.122570	0.978245	0.091296	0.093560	0.161081
19048	-1.391985	2.067321	9.382557	0.091102	-0.062557	-0.105391	0.978314	0.091279	0.093239	0.160859
19049	-1.424075	2.078765	9.399896	0.056255	-0.065428	-0.081302	0.978380	0.091263	0.092984	0.160616
19050	-1.471593	2.119775	9.465551	0.009066	-0.053701	-0.001840	0.978441	0.091248	0.092721	0.160407
19051	-1.445956	2.074227	9.393767	0.026339	-0.076404	-0.084916	0.978501	0.091280	0.092448	0.160176
19052	-1.468195	2.097334	9.372096	-0.010413	-0.059900	-0.097396	0.978555	0.091335	0.092191	0.159966
19053	-1.496044	2.074944	9.270099	-0.056120	-0.074773	-0.196579	0.978606	0.091398	0.091892	0.159789
19054	-1.484011	2.059786	9.246728	-0.051153	-0.082854	-0.224283	0.978663	0.091459	0.091536	0.159610
19055	-1.404726	2.058578	9.199996	0.006939	-0.052507	-0.281259	0.978719	0.091562	0.091153	0.159427
19056	-1.439560	2.111857	9.226997	-0.042166	-0.021395	-0.238372	0.978778	0.091658	0.090771	0.159227
19057	-1.438349	2.146664	9.347022	-0.032581	-0.010189	-0.115128	0.978834	0.091693	0.090440	0.159048
19058	-1.425991	2.035998	9.452647	0.027757	-0.127885	-0.039553	0.978877	0.091745	0.090177	0.158908
19059	-1.427436	2.076318	9.462721	0.012295	-0.094584	-0.020718	0.978906	0.091860	0.089936	0.158796
19060	-1.581085	2.164002	9.468626	-0.161040	-0.067460	0.026374	0.978946	0.092014	0.089553	0.158676
19061	-1.620787	2.172236	9.415553	-0.219063	-0.067757	-0.017504	0.978999	0.092156	0.089079	0.158537
19062	-1.422685	2.113372	9.404168	-0.028774	-0.060161	-0.069777	0.979061	0.092313	0.088482	0.158395
19063	-1.322431	2.079336	9.418482	0.066708	-0.066412	-0.077627	0.979120	0.092504	0.087850	0.158271
19064	-1.186458	2.123103	9.396136	0.165428	0.017052	-0.108309	0.979177	0.092691	0.087234	0.158150
19065	-1.165345	2.130348	9.467660	0.187300	0.013672	-0.040394	0.979225	0.092871	0.086712	0.158031
19066	-1.115272	2.164058	9.531826	0.228523	0.046502	0.022367	0.979275	0.092977	0.086270	0.157900
19067	-1.160938	2.121330	9.507944	0.186665	-0.007234	-0.003818	0.979308	0.093101	0.085955	0.157800
19068	-1.281750	2.170410	9.512536	0.055013	-0.004767	0.027986	0.979331	0.093233	0.085676	0.157727
19069	-1.489161	2.188762	9.509929	-0.150927	-0.057600	0.057516	0.979361	0.093333	0.085299	0.157688
19070	-1.401586	2.083040	9.457851	-0.056112	-0.121856	-0.028188	0.979394	0.093433	0.084855	0.157659
19071	-1.251713	2.031833	9.391040	0.077501	-0.113512	-0.124144	0.979422	0.093606	0.084366	0.157648
19072	-1.213945	2.060879	9.384182	0.095642	-0.077983	-0.129272	0.979434	0.093817	0.084010	0.157636
19073	-1.204389	2.084199	9.479067	0.111195	-0.074124	-0.033665	0.979440	0.094008	0.083763	0.157617
19074	-1.257616	2.144404	9.568725	0.057443	-0.055398	0.073373	0.979447	0.094232	0.083541	0.157559
19075	-1.296917	2.175328	9.609737	0.016214	-0.051157	0.125029	0.979457	0.094443	0.083333	0.157481
19076	-1.364041	2.204219	9.643639	-0.052497	-0.056514	0.172952	0.979470	0.094644	0.083058	0.157424
19077	-1.394298	2.219547	9.660879	-0.087476	-0.059552	0.196900	0.979489	0.094818	0.082704	0.157387
19078	-1.364937	2.147657	9.712898	-0.037004	-0.130984	0.227101	0.979512	0.095024	0.082193	0.157386
19079	-1.164387	2.206546	9.664141	0.114660	-0.008674	0.167645	0.979536	0.095241	0.081626	0.157400
19080	-1.114373	2.155590	9.638161	0.161508	-0.041066	0.124856	0.979557	0.095435	0.081121	0.157413
19081	-1.052156	2.135873	9.667621	0.223240	-0.049380	0.141186	0.979572	0.095610	0.080755	0.157405
19082	-1.038154	2.148672	9.628576	0.220154	-0.030604	0.104703	0.979572	0.095802	0.080537	0.157398
19083	-1.143677	2.165332	9.694538	0.125788	-0.065043	0.185347	0.979574	0.095987	0.080385	0.157354
19084	-1.261972	2.175819	9.690040	0.008462	-0.096837	0.198016	0.979577	0.096177	0.080220	0.157301
19085	-1.281524	2.251867	9.638429	-0.044585	-0.026931	0.167784	0.979587	0.096310	0.080026	0.157259
19086	-1.252620	2.168933	9.556129	-0.012479	-0.083289	0.065867	0.979591	0.096439	0.079803	0.157264
19087	-1.282465	2.208944	9.558588	-0.055600	-0.059632	0.080953	0.979592	0.096596	0.079572	0.157278
19088	-1.248577	2.237810	9.550880	-0.037566	-0.024077	0.075895	0.979596	0.096734	0.079351	0.157283
