// General information: 
//  MT Manager version: 2021.0.0 
//  XDA version: 2021.0.0 build 5908 rev 109668 built on 2021-04-19
// Device information: 
//  DeviceId: 00B47AB0
//  ProductCode: MTW2-3A7G6
//  Firmware Version: 4.4.0
//  Hardware Version: 2.0.0
// Device settings: 
//  Filter Profile: human(46.1)
//  Option Flags: Orientation Smoother Disabled, Position/Velocity Smoother Disabled, Continuous Zero Rotation Update Disabled, AHS Disabled, ICC Disabled
// Coordinate system: ENU
PacketCounter	Acc_X	Acc_Y	Acc_Z	FreeAcc_E	FreeAcc_N	FreeAcc_U	Quat_q0	Quat_q1	Quat_q2	Quat_q3
26986	-0.085235	0.056882	9.644181	0.001445	-0.056054	-0.168125	-0.999946	-0.000517	-0.000480	-0.010413
26987	-0.065525	0.100444	9.660386	0.020179	-0.012176	-0.151586	-0.999945	-0.000525	-0.000466	-0.010430
26988	-0.074402	0.061167	9.670773	0.012123	-0.051771	-0.141581	-0.999945	-0.000518	-0.000469	-0.010435
26989	-0.051865	0.074711	9.658614	0.034124	-0.037554	-0.153778	-0.999945	-0.000520	-0.000454	-0.010449
26990	-0.063650	0.065520	9.697366	0.022780	-0.047488	-0.115034	-0.999945	-0.000522	-0.000456	-0.010469
26991	-0.067005	0.100041	9.660380	0.018399	-0.012603	-0.151583	-0.999945	-0.000519	-0.000458	-0.010482
26992	-0.052994	0.074424	9.658610	0.032812	-0.037889	-0.153775	-0.999945	-0.000519	-0.000443	-0.010497
26993	-0.078842	0.095180	9.633782	0.005974	-0.017310	-0.178130	-0.999945	-0.000511	-0.000425	-0.010512
26994	-0.053482	0.074159	9.658610	0.031933	-0.038100	-0.153773	-0.999944	-0.000520	-0.000435	-0.010548
26995	-0.065443	0.069500	9.632008	0.019935	-0.042687	-0.180322	-0.999944	-0.000511	-0.000437	-0.010557
26996	-0.042936	0.078464	9.685207	0.042592	-0.033818	-0.127220	-0.999944	-0.000514	-0.000420	-0.010583
26997	-0.088916	0.055617	9.644155	-0.003419	-0.057216	-0.168132	-0.999944	-0.000518	-0.000422	-0.010600
26998	-0.055148	0.073893	9.658602	0.030164	-0.038527	-0.153769	-0.999943	-0.000527	-0.000426	-0.010625
26999	-0.009865	0.101291	9.634305	0.074661	-0.009994	-0.178140	-0.999943	-0.000530	-0.000426	-0.010659
27000	-0.018766	0.061979	9.644686	0.066610	-0.049591	-0.168142	-0.999943	-0.000524	-0.000416	-0.010681
27001	-0.033556	0.087336	9.646452	0.051318	-0.024529	-0.165950	-0.999943	-0.000527	-0.000428	-0.010697
27002	0.014575	0.079886	9.659145	0.099741	-0.031000	-0.153765	-0.999942	-0.000514	-0.000418	-0.010714
27003	0.028462	0.054088	9.657383	0.114137	-0.056257	-0.155950	-0.999942	-0.000506	-0.000428	-0.010734
27004	-0.020649	0.061331	9.644686	0.064865	-0.050025	-0.168132	-0.999942	-0.000524	-0.000427	-0.010745
27005	0.013165	0.075100	9.724499	0.098997	-0.036626	-0.088463	-0.999942	-0.000526	-0.000419	-0.010770
27006	-0.018421	0.026824	9.681665	0.067890	-0.085213	-0.131581	-0.999942	-0.000536	-0.000406	-0.010783
27007	-0.033016	0.052290	9.683428	0.052587	-0.060153	-0.129392	-0.999942	-0.000533	-0.000402	-0.010784
27008	-0.021890	0.061281	9.644684	0.063108	-0.050446	-0.168123	-0.999942	-0.000532	-0.000398	-0.010782
27009	-0.010715	0.065710	9.671290	0.074175	-0.046045	-0.141562	-0.999942	-0.000530	-0.000378	-0.010772
27010	-0.034069	0.051888	9.683427	0.051277	-0.060486	-0.129387	-0.999942	-0.000528	-0.000401	-0.010776
27011	-0.051839	0.111807	9.648209	0.032082	-0.000431	-0.163745	-0.999942	-0.000519	-0.000396	-0.010773
27012	-0.052107	0.111713	9.648209	0.031657	-0.000551	-0.163743	-0.999942	-0.000529	-0.000384	-0.010786
27013	-0.052465	0.111660	9.648207	0.031188	-0.000655	-0.163742	-0.999942	-0.000524	-0.000387	-0.010787
27014	-0.027155	0.090674	9.673053	0.057132	-0.021440	-0.139364	-0.999942	-0.000535	-0.000378	-0.010782
27015	-0.036130	0.051473	9.683421	0.049062	-0.061028	-0.129378	-0.999942	-0.000533	-0.000385	-0.010775
27016	-0.048010	0.046884	9.656810	0.037122	-0.065641	-0.155939	-0.999942	-0.000542	-0.000385	-0.010770
27017	-0.037112	0.051372	9.683418	0.048188	-0.061239	-0.129375	-0.999942	-0.000536	-0.000389	-0.010773
27018	-0.037466	0.055950	9.618067	0.047213	-0.056019	-0.194664	-0.999942	-0.000551	-0.000390	-0.010772
27019	-0.078080	0.097631	9.660322	0.006099	-0.015631	-0.151572	-0.999942	-0.000529	-0.000391	-0.010772
27020	-0.078716	0.097392	9.660319	0.005673	-0.015751	-0.151571	-0.999942	-0.000536	-0.000410	-0.010762
27021	-0.044934	0.115516	9.674807	0.039229	0.002982	-0.137167	-0.999942	-0.000525	-0.000395	-0.010766
27022	-0.045212	0.115331	9.674808	0.038802	0.002862	-0.137165	-0.999942	-0.000527	-0.000394	-0.010758
27023	-0.008471	0.103408	9.660929	0.075694	-0.008061	-0.151501	-0.999942	-0.000522	-0.000399	-0.010759
27024	-0.017476	0.064050	9.671291	0.067649	-0.047665	-0.141522	-0.999942	-0.000520	-0.000396	-0.010757
27025	-0.069434	0.101411	9.686922	0.015002	-0.011775	-0.125004	-0.999942	-0.000540	-0.000396	-0.010765
27026	-0.029835	0.059519	9.644673	0.055269	-0.052367	-0.168085	-0.999942	-0.000524	-0.000411	-0.010749
27027	-0.044662	0.084914	9.646428	0.039961	-0.027315	-0.165903	-0.999942	-0.000540	-0.000402	-0.010750
27028	-0.056622	0.075629	9.685159	0.028557	-0.037274	-0.127182	-0.999942	-0.000520	-0.000411	-0.010758
27029	-0.034258	0.089172	9.673044	0.050581	-0.023038	-0.139331	-0.999942	-0.000534	-0.000410	-0.010761
27030	-0.091905	0.057300	9.670647	-0.006298	-0.056315	-0.141600	-0.999942	-0.000540	-0.000418	-0.010757
27031	-0.046699	0.080070	9.711770	0.038712	-0.033082	-0.100609	-0.999942	-0.000539	-0.000405	-0.010761
27032	-0.012573	0.102865	9.660930	0.071748	-0.009026	-0.151472	-0.999942	-0.000543	-0.000402	-0.010763
27033	-0.047458	0.079970	9.711767	0.037836	-0.033301	-0.100606	-0.999942	-0.000545	-0.000408	-0.010768
27034	-0.050686	0.114344	9.674792	0.033533	0.001574	-0.137145	-0.999942	-0.000526	-0.000401	-0.010764
27035	-0.036689	0.088614	9.673040	0.047937	-0.023670	-0.139319	-0.999942	-0.000530	-0.000397	-0.010771
27036	-0.060071	0.074964	9.685143	0.025032	-0.038125	-0.127175	-0.999942	-0.000542	-0.000406	-0.010771
27037	-0.046235	0.049442	9.683389	0.039437	-0.063365	-0.129350	-0.999942	-0.000536	-0.000403	-0.010763
27038	-0.060963	0.074820	9.685139	0.024145	-0.038333	-0.127174	-0.999942	-0.000541	-0.000400	-0.010766
27039	-0.035478	0.058440	9.644661	0.049544	-0.053735	-0.168061	-0.999942	-0.000541	-0.000397	-0.010760
27040	-0.047408	0.049177	9.683385	0.038123	-0.063702	-0.129346	-0.999942	-0.000540	-0.000394	-0.010758
27041	-0.024908	0.062779	9.671283	0.060153	-0.049451	-0.141482	-0.999942	-0.000540	-0.000392	-0.010754
27042	-0.039800	0.088203	9.673032	0.044859	-0.024421	-0.139306	-0.999942	-0.000543	-0.000406	-0.010768
27043	-0.028830	0.097393	9.634307	0.055405	-0.014657	-0.178016	-0.999942	-0.000553	-0.000406	-0.010763
27044	-0.075288	0.069801	9.658497	0.010017	-0.043458	-0.153748	-0.999942	-0.000535	-0.000430	-0.010747
27045	-0.064522	0.074175	9.685121	0.021041	-0.039054	-0.127169	-0.999942	-0.000544	-0.000420	-0.010747
27046	-0.041958	0.087837	9.673026	0.043097	-0.024832	-0.139299	-0.999942	-0.000539	-0.000418	-0.010734
27047	-0.028016	0.062216	9.671279	0.057519	-0.050071	-0.141469	-0.999942	-0.000540	-0.000416	-0.010730
27048	-0.054130	0.083104	9.646395	0.030748	-0.029534	-0.165876	-0.999942	-0.000545	-0.000418	-0.010715
27049	-0.028943	0.062082	9.671277	0.056633	-0.050286	-0.141465	-0.999942	-0.000540	-0.000421	-0.010717
27050	-0.055084	0.082751	9.646393	0.029864	-0.029749	-0.165874	-0.999943	-0.000529	-0.000419	-0.010700
27051	-0.006838	0.075494	9.659189	0.078246	-0.036159	-0.153585	-0.999943	-0.000545	-0.000410	-0.010702
27052	-0.058743	0.112713	9.674766	0.025587	-0.000330	-0.137121	-0.999943	-0.000537	-0.000406	-0.010696
27053	-0.044768	0.086997	9.673021	0.040001	-0.025569	-0.139288	-0.999943	-0.000531	-0.000403	-0.010687
27054	-0.022282	0.100582	9.660936	0.062060	-0.011342	-0.151408	-0.999943	-0.000532	-0.000402	-0.010678
27055	-0.031244	0.061279	9.671275	0.053978	-0.050944	-0.141453	-0.999943	-0.000531	-0.000400	-0.010660
27056	-0.080240	0.068374	9.658467	0.004728	-0.044756	-0.153750	-0.999943	-0.000533	-0.000399	-0.010652
27057	-0.035078	0.090978	9.699652	0.049677	-0.021515	-0.112697	-0.999943	-0.000516	-0.000393	-0.010647
27058	-0.032562	0.060729	9.671274	0.052667	-0.051270	-0.141447	-0.999943	-0.000520	-0.000407	-0.010614
27059	-0.047361	0.086230	9.673016	0.037339	-0.026212	-0.139279	-0.999943	-0.000528	-0.000393	-0.010632
27060	-0.058992	0.081648	9.646379	0.025456	-0.030821	-0.165865	-0.999943	-0.000527	-0.000394	-0.010613
27061	-0.048268	0.086059	9.673013	0.036461	-0.026429	-0.139276	-0.999944	-0.000523	-0.000409	-0.010608
27062	-0.025957	0.099671	9.660937	0.058522	-0.012197	-0.151387	-0.999944	-0.000525	-0.000408	-0.010599
27063	-0.049253	0.085804	9.673010	0.035574	-0.026648	-0.139274	-0.999944	-0.000519	-0.000405	-0.010589
27064	-0.035300	0.060255	9.671267	0.050029	-0.051910	-0.141437	-0.999944	-0.000528	-0.000404	-0.010585
27065	-0.061507	0.081235	9.646367	0.023237	-0.031345	-0.165861	-0.999944	-0.000536	-0.000414	-0.010579
27066	-0.047650	0.055637	9.644625	0.037695	-0.056607	-0.168024	-0.999944	-0.000524	-0.000411	-0.010562
27067	-0.062467	0.080944	9.646363	0.022356	-0.031558	-0.165860	-0.999944	-0.000528	-0.000414	-0.010579
27068	-0.063281	0.076136	9.711708	0.022337	-0.037054	-0.100571	-0.999944	-0.000515	-0.000421	-0.010563
27069	-0.051875	0.089677	9.607655	0.032515	-0.021898	-0.204554	-0.999944	-0.000511	-0.000416	-0.010566
27070	-0.063745	0.080376	9.646360	0.021047	-0.031883	-0.165858	-0.999944	-0.000512	-0.000404	-0.010564
27071	-0.052760	0.084819	9.673000	0.032041	-0.027478	-0.139264	-0.999944	-0.000509	-0.000403	-0.010550
27072	-0.064482	0.080096	9.646357	0.020173	-0.032087	-0.165856	-0.999944	-0.000505	-0.000402	-0.010537
27073	-0.050633	0.054627	9.644616	0.034609	-0.057318	-0.168017	-0.999944	-0.000519	-0.000412	-0.010535
27074	-0.051019	0.054671	9.644613	0.034185	-0.057437	-0.168016	-0.999944	-0.000519	-0.000396	-0.010550
27075	-0.028761	0.063546	9.697900	0.056597	-0.048546	-0.114823	-0.999944	-0.000504	-0.000401	-0.010539
27076	-0.080615	0.105243	9.648085	0.003519	-0.007366	-0.163695	-0.999944	-0.000516	-0.000403	-0.010528
27077	-0.066741	0.079740	9.646345	0.017952	-0.032595	-0.165854	-0.999944	-0.000510	-0.000407	-0.010531
27078	-0.041529	0.058727	9.671252	0.043851	-0.053364	-0.141415	-0.999944	-0.000515	-0.000405	-0.010534
27079	-0.067679	0.079567	9.646340	0.017085	-0.032806	-0.165853	-0.999944	-0.000513	-0.000412	-0.010529
27080	-0.045342	0.093159	9.634285	0.039152	-0.018563	-0.177943	-0.999944	-0.000509	-0.000417	-0.010528
27081	-0.068778	0.079288	9.646334	0.016217	-0.033017	-0.165852	-0.999944	-0.000510	-0.000422	-0.010534
27082	-0.023687	0.102132	9.687577	0.061142	-0.009796	-0.124740	-0.999944	-0.000517	-0.000411	-0.010536
27083	-0.069540	0.079097	9.646330	0.015340	-0.033234	-0.165851	-0.999944	-0.000502	-0.000416	-0.010522
27084	-0.084286	0.104418	9.648063	0.000021	-0.008218	-0.163695	-0.999944	-0.000513	-0.000404	-0.010535
27085	-0.032997	0.067243	9.632546	0.051843	-0.044210	-0.180091	-0.999944	-0.000513	-0.000408	-0.010543
27086	-0.081936	0.074384	9.619674	0.002607	-0.038048	-0.192452	-0.999944	-0.000520	-0.000397	-0.010545
27087	-0.048221	0.092650	9.634276	0.036068	-0.019295	-0.177932	-0.999944	-0.000519	-0.000411	-0.010550
27088	-0.060463	0.083312	9.672968	0.024571	-0.029292	-0.139247	-0.999944	-0.000515	-0.000416	-0.010549
27089	-0.046716	0.057761	9.671234	0.039006	-0.054516	-0.141400	-0.999944	-0.000520	-0.000430	-0.010561
27090	-0.038629	0.096928	9.660922	0.046176	-0.015133	-0.151324	-0.999944	-0.000520	-0.000414	-0.010576
27091	-0.024543	0.071151	9.659193	0.060624	-0.040352	-0.153475	-0.999944	-0.000498	-0.000415	-0.010578
27092	-0.036186	0.066450	9.632540	0.048783	-0.044959	-0.180078	-0.999944	-0.000515	-0.000407	-0.010578
27093	-0.039718	0.096523	9.660922	0.044843	-0.015430	-0.151318	-0.999944	-0.000513	-0.000413	-0.010573
27094	-0.048685	0.057141	9.671228	0.036823	-0.055053	-0.141395	-0.999944	-0.000508	-0.000408	-0.010578
27095	-0.026201	0.070720	9.659192	0.058879	-0.040776	-0.153466	-0.999944	-0.000505	-0.000411	-0.010590
27096	-0.075221	0.077834	9.646298	0.009646	-0.034622	-0.165849	-0.999944	-0.000514	-0.000411	-0.010586
27097	-0.041538	0.096137	9.660918	0.043096	-0.015853	-0.151311	-0.999944	-0.000515	-0.000416	-0.010593
27098	-0.036049	0.031439	9.669493	0.049979	-0.080608	-0.143541	-0.999944	-0.000522	-0.000404	-0.010595
27099	-0.076469	0.077636	9.646290	0.008307	-0.034926	-0.165849	-0.999944	-0.000507	-0.000409	-0.010582
27100	-0.040187	0.061048	9.697875	0.045597	-0.051202	-0.114779	-0.999944	-0.000507	-0.000424	-0.010585
27101	-0.054599	0.091106	9.634257	0.029922	-0.020764	-0.177914	-0.999944	-0.000512	-0.000404	-0.010580
27102	-0.052054	0.056408	9.671215	0.033308	-0.055901	-0.141387	-0.999944	-0.000513	-0.000400	-0.010589
27103	-0.078119	0.077139	9.646281	0.006540	-0.035349	-0.165849	-0.999944	-0.000504	-0.000401	-0.010599
27104	-0.044386	0.095251	9.660914	0.040013	-0.016605	-0.151299	-0.999944	-0.000502	-0.000398	-0.010597
27105	-0.030457	0.069686	9.659187	0.054473	-0.041830	-0.153445	-0.999944	-0.000504	-0.000403	-0.010602
27106	-0.042138	0.064867	9.632527	0.042650	-0.046436	-0.180056	-0.999944	-0.000485	-0.000396	-0.010598
27107	-0.057380	0.085323	9.699597	0.027579	-0.026798	-0.112622	-0.999943	-0.000476	-0.000405	-0.010620
27108	-0.069031	0.080560	9.672934	0.015757	-0.031405	-0.139235	-0.999943	-0.000473	-0.000391	-0.010624
27109	-0.072434	0.110480	9.701321	0.011785	-0.001883	-0.110474	-0.999943	-0.000477	-0.000387	-0.010631
27110	-0.061336	0.119622	9.662638	0.022465	0.007890	-0.149143	-0.999943	-0.000477	-0.000402	-0.010634
27111	-0.058741	0.089482	9.634247	0.025528	-0.021819	-0.177904	-0.999943	-0.000474	-0.000397	-0.010635
27112	-0.070838	0.080200	9.672924	0.013993	-0.031832	-0.139234	-0.999943	-0.000479	-0.000402	-0.010649
27113	-0.059611	0.089359	9.634243	0.024645	-0.022035	-0.177902	-0.999943	-0.000479	-0.000395	-0.010661
27114	-0.060419	0.084558	9.699585	0.024495	-0.027563	-0.112616	-0.999943	-0.000474	-0.000397	-0.010677
27115	-0.083380	0.075097	9.646253	0.001257	-0.036633	-0.165852	-0.999943	-0.000452	-0.000397	-0.010677
27116	-0.035229	0.067741	9.659185	0.049631	-0.043009	-0.153424	-0.999943	-0.000463	-0.000391	-0.010701
27117	-0.072926	0.079448	9.672915	0.011744	-0.032364	-0.139233	-0.999942	-0.000464	-0.000392	-0.010724
27118	-0.050403	0.093090	9.660906	0.033819	-0.018099	-0.151278	-0.999942	-0.000461	-0.000385	-0.010740
27119	-0.088065	0.104639	9.674634	-0.004053	-0.007459	-0.137090	-0.999942	-0.000458	-0.000383	-0.010769
27120	-0.074102	0.078968	9.672910	0.010436	-0.032703	-0.139232	-0.999942	-0.000450	-0.000383	-0.010792
27121	-0.074586	0.078954	9.672906	0.009974	-0.032799	-0.139232	-0.999941	-0.000467	-0.000387	-0.010817
27122	-0.074879	0.078949	9.672904	0.009548	-0.032919	-0.139232	-0.999941	-0.000460	-0.000367	-0.010846
27123	-0.060884	0.053115	9.671182	0.024005	-0.058142	-0.141373	-0.999941	-0.000439	-0.000381	-0.010868
27124	-0.052889	0.092138	9.660902	0.031164	-0.018751	-0.151270	-0.999941	-0.000450	-0.000375	-0.010891
27125	-0.030266	0.105889	9.648901	0.053216	-0.004454	-0.163305	-0.999940	-0.000449	-0.000366	-0.010922
27126	-0.039123	0.066508	9.659178	0.045206	-0.044084	-0.153407	-0.999940	-0.000443	-0.000363	-0.010955
27127	0.009064	0.059216	9.672132	0.093551	-0.050428	-0.140953	-0.999940	-0.000446	-0.000356	-0.010978
27128	-0.014225	0.045369	9.684129	0.070621	-0.064936	-0.128917	-0.999939	-0.000444	-0.000356	-0.011004
27129	0.022794	0.033525	9.670414	0.107587	-0.075756	-0.143084	-0.999939	-0.000443	-0.000339	-0.011024
27130	0.011097	0.028779	9.643741	0.095796	-0.080360	-0.169707	-0.999939	-0.000433	-0.000358	-0.011041
27131	-0.012370	0.014800	9.655735	0.072837	-0.094839	-0.157674	-0.999939	-0.000429	-0.000349	-0.011061
27132	0.007161	0.058521	9.672138	0.091359	-0.050960	-0.140935	-0.999939	-0.000439	-0.000337	-0.011073
27133	-0.004519	0.053967	9.645463	0.079530	-0.055532	-0.167560	-0.999938	-0.000438	-0.000349	-0.011082
27134	-0.008193	0.083814	9.673859	0.075543	-0.026045	-0.138792	-0.999938	-0.000433	-0.000344	-0.011086
27135	-0.019796	0.079193	9.647183	0.063728	-0.030629	-0.165418	-0.999938	-0.000440	-0.000342	-0.011085
27136	-0.034596	0.104648	9.648900	0.048378	-0.005629	-0.163281	-0.999939	-0.000442	-0.000342	-0.011076
27137	-0.032413	0.069935	9.685845	0.051696	-0.040747	-0.126760	-0.999938	-0.000446	-0.000349	-0.011077
27138	-0.055319	0.060750	9.632487	0.028559	-0.049837	-0.180021	-0.999938	-0.000441	-0.000343	-0.011081
27139	-0.047076	0.099975	9.622218	0.035684	-0.010415	-0.189906	-0.999938	-0.000457	-0.000334	-0.011085
27140	-0.033127	0.074372	9.620501	0.050188	-0.035652	-0.192039	-0.999938	-0.000437	-0.000343	-0.011092
27141	-0.034133	0.069382	9.685843	0.049936	-0.041176	-0.126752	-0.999939	-0.000434	-0.000342	-0.011076
27142	-0.045778	0.064741	9.659161	0.038159	-0.045780	-0.153385	-0.999939	-0.000436	-0.000341	-0.011067
27143	-0.046189	0.064667	9.659160	0.037703	-0.045865	-0.153383	-0.999939	-0.000436	-0.000339	-0.011065
27144	-0.057877	0.059996	9.632477	0.025930	-0.050470	-0.180017	-0.999939	-0.000432	-0.000344	-0.011063
27145	-0.038510	0.103588	9.648897	0.044395	-0.006562	-0.163262	-0.999939	-0.000428	-0.000332	-0.011054
27146	-0.053235	0.129061	9.650610	0.029038	0.018434	-0.161129	-0.999939	-0.000443	-0.000333	-0.011054
27147	-0.053856	0.128850	9.650609	0.028589	0.018340	-0.161127	-0.999939	-0.000417	-0.000351	-0.011054
27148	-0.051355	0.098681	9.622210	0.031753	-0.011380	-0.189894	-0.999939	-0.000436	-0.000358	-0.011030
27149	-0.074795	0.084855	9.634178	0.008784	-0.025868	-0.177884	-0.999939	-0.000420	-0.000359	-0.011036
27150	-0.038434	0.068247	9.685835	0.045973	-0.042134	-0.126737	-0.999939	-0.000422	-0.000358	-0.011028
27151	-0.038874	0.068271	9.685833	0.045513	-0.042235	-0.126735	-0.999939	-0.000433	-0.000358	-0.011019
27152	-0.047396	0.033760	9.630746	0.037347	-0.076437	-0.182142	-0.999939	-0.000435	-0.000365	-0.011022
27153	-0.077321	0.079871	9.699505	0.007186	-0.031732	-0.112600	-0.999939	-0.000430	-0.000376	-0.011037
27154	-0.051730	0.063388	9.659140	0.032871	-0.047045	-0.153371	-0.999939	-0.000418	-0.000374	-0.011020
27155	-0.066411	0.088724	9.660850	0.017487	-0.022025	-0.151243	-0.999939	-0.000427	-0.000360	-0.011036
27156	-0.066792	0.088705	9.660848	0.017061	-0.022144	-0.151242	-0.999939	-0.000427	-0.000368	-0.011028
27157	-0.044325	0.102371	9.648885	0.039123	-0.007839	-0.163240	-0.999939	-0.000427	-0.000362	-0.011038
27158	-0.067674	0.088490	9.660843	0.016185	-0.022366	-0.151241	-0.999939	-0.000426	-0.000366	-0.011048
27159	-0.030876	0.076705	9.647174	0.053185	-0.033164	-0.165363	-0.999939	-0.000427	-0.000371	-0.011054
27160	-0.031349	0.076574	9.647173	0.052760	-0.033283	-0.165361	-0.999939	-0.000422	-0.000369	-0.011041
27161	-0.028956	0.041639	9.684113	0.056060	-0.068411	-0.128845	-0.999939	-0.000411	-0.000353	-0.011045
27162	-0.043646	0.067036	9.685821	0.040693	-0.043419	-0.126719	-0.999939	-0.000426	-0.000353	-0.011045
27163	-0.081092	0.083272	9.634141	0.002652	-0.027370	-0.177885	-0.999939	-0.000406	-0.000376	-0.011033
27164	-0.044950	0.066656	9.685818	0.039813	-0.043634	-0.126716	-0.999939	-0.000411	-0.000374	-0.011035
27165	-0.056406	0.062023	9.659123	0.028039	-0.048207	-0.153362	-0.999939	-0.000407	-0.000358	-0.011043
27166	-0.045566	0.066382	9.685817	0.038933	-0.043844	-0.126714	-0.999939	-0.000403	-0.000364	-0.011042
27167	-0.034296	0.075489	9.647172	0.049670	-0.034014	-0.165347	-0.999939	-0.000403	-0.000361	-0.011036
27168	-0.049174	0.100812	9.648878	0.034300	-0.009024	-0.163223	-0.999939	-0.000399	-0.000367	-0.011034
27169	-0.038483	0.105192	9.675573	0.045172	-0.004635	-0.136572	-0.999939	-0.000397	-0.000366	-0.011018
27170	-0.027174	0.114456	9.636930	0.055947	0.005177	-0.175203	-0.999939	-0.000412	-0.000367	-0.011018
27171	-0.033481	0.040556	9.684103	0.051670	-0.069488	-0.128829	-0.999939	-0.000410	-0.000367	-0.011000
27172	-0.059577	0.061345	9.659108	0.024986	-0.048982	-0.153357	-0.999939	-0.000409	-0.000375	-0.010992
27173	-0.034488	0.040336	9.684100	0.050788	-0.069704	-0.128825	-0.999939	-0.000410	-0.000372	-0.010986
27174	-0.060477	0.061111	9.659104	0.024105	-0.049199	-0.153356	-0.999940	-0.000405	-0.000371	-0.010974
27175	-0.060853	0.060876	9.659103	0.023647	-0.049292	-0.153355	-0.999940	-0.000396	-0.000365	-0.010971
27176	-0.061235	0.060704	9.659102	0.023222	-0.049412	-0.153355	-0.999940	-0.000398	-0.000364	-0.010962
27177	-0.019051	0.118225	9.663631	0.064155	0.008933	-0.148532	-0.999940	-0.000401	-0.000364	-0.010953
27178	-0.027889	0.078876	9.673864	0.056162	-0.030711	-0.138674	-0.999940	-0.000395	-0.000352	-0.010947
27179	-0.016610	0.087904	9.635228	0.066922	-0.020861	-0.177299	-0.999940	-0.000388	-0.000368	-0.010933
27180	-0.006110	0.092152	9.661933	0.077798	-0.016498	-0.150641	-0.999940	-0.000374	-0.000375	-0.010916
27181	-0.055106	0.099048	9.648864	0.028566	-0.010393	-0.163206	-0.999940	-0.000375	-0.000372	-0.010910
27182	-0.041120	0.073564	9.647160	0.043093	-0.035617	-0.165321	-0.999941	-0.000380	-0.000374	-0.010895
27183	-0.030392	0.078065	9.673863	0.053942	-0.031235	-0.138663	-0.999941	-0.000381	-0.000372	-0.010889
27184	-0.090469	0.080500	9.634081	-0.006548	-0.029635	-0.177893	-0.999941	-0.000377	-0.000370	-0.010876
27185	-0.031218	0.077765	9.673863	0.053065	-0.031452	-0.138658	-0.999941	-0.000374	-0.000369	-0.010859
27186	-0.065789	0.059208	9.659081	0.018826	-0.050476	-0.153351	-0.999941	-0.000364	-0.000374	-0.010853
27187	-0.043454	0.072858	9.647155	0.040899	-0.036143	-0.165314	-0.999941	-0.000369	-0.000386	-0.010836
27188	-0.058435	0.098247	9.648853	0.025518	-0.011159	-0.163198	-0.999941	-0.000368	-0.000387	-0.010816
27189	-0.044503	0.072709	9.647151	0.040033	-0.036353	-0.165311	-0.999941	-0.000369	-0.000392	-0.010822
27190	-0.056763	0.063381	9.685778	0.028376	-0.046417	-0.126689	-0.999941	-0.000371	-0.000391	-0.010814
27191	-0.025738	0.116287	9.663639	0.058008	0.007440	-0.148492	-0.999941	-0.000365	-0.000388	-0.010803
27192	-0.051892	0.137005	9.638627	0.031338	0.027942	-0.173038	-0.999942	-0.000362	-0.000405	-0.010796
27193	-0.046604	0.072148	9.647146	0.038276	-0.036779	-0.165305	-0.999942	-0.000356	-0.000409	-0.010798
27194	-0.069909	0.058263	9.659058	0.015330	-0.051327	-0.153349	-0.999942	-0.000363	-0.000398	-0.010800
27195	-0.047374	0.072020	9.647143	0.037403	-0.036977	-0.165303	-0.999942	-0.000361	-0.000405	-0.010798
27196	-0.056283	0.032703	9.657357	0.029417	-0.076626	-0.155460	-0.999942	-0.000365	-0.000395	-0.010789
27197	-0.036964	0.076373	9.673854	0.047796	-0.032710	-0.138635	-0.999942	-0.000359	-0.000392	-0.010779
27198	-0.037448	0.076151	9.673853	0.047370	-0.032829	-0.138633	-0.999942	-0.000352	-0.000399	-0.010767
27199	-0.037832	0.075980	9.673853	0.046902	-0.032931	-0.138631	-0.999942	-0.000352	-0.000385	-0.010767
27200	-0.063690	0.096753	9.648834	0.020237	-0.012432	-0.163187	-0.999942	-0.000350	-0.000382	-0.010765
27201	-0.038606	0.075699	9.673852	0.046024	-0.033135	-0.138628	-0.999942	-0.000345	-0.000390	-0.010751
27202	-0.050209	0.070965	9.647136	0.034326	-0.037734	-0.165294	-0.999942	-0.000339	-0.000385	-0.010755
27203	-0.039403	0.075453	9.673851	0.045144	-0.033342	-0.138625	-0.999942	-0.000349	-0.000378	-0.010738
27204	-0.088306	0.082335	9.660731	-0.004042	-0.027278	-0.151241	-0.999942	-0.000329	-0.000380	-0.010734
27205	-0.088730	0.082070	9.660730	-0.004501	-0.027366	-0.151241	-0.999942	-0.000332	-0.000376	-0.010741
27206	-0.100235	0.077448	9.634009	-0.016194	-0.031966	-0.177912	-0.999942	-0.000330	-0.000373	-0.010739
27207	-0.075115	0.056387	9.659030	0.009577	-0.052676	-0.153349	-0.999942	-0.000324	-0.000377	-0.010742
27208	-0.090011	0.081653	9.660721	-0.005816	-0.027699	-0.151243	-0.999942	-0.000323	-0.000373	-0.010740
27209	-0.053072	0.069897	9.647129	0.031232	-0.038454	-0.165286	-0.999942	-0.000320	-0.000376	-0.010752
27210	-0.042407	0.074332	9.673847	0.042068	-0.034093	-0.138613	-0.999942	-0.000322	-0.000376	-0.010743
27211	-0.057305	0.099597	9.675539	0.026643	-0.009079	-0.136507	-0.999942	-0.000312	-0.000377	-0.010754
27212	-0.077410	0.055550	9.659017	0.007401	-0.053212	-0.153350	-0.999942	-0.000305	-0.000381	-0.010759
27213	-0.049749	0.138448	9.665340	0.033311	0.030238	-0.146333	-0.999942	-0.000308	-0.000377	-0.010764
27214	-0.081533	0.085326	9.687426	0.002803	-0.023855	-0.124572	-0.999942	-0.000309	-0.000372	-0.010773
27215	-0.032774	0.082855	9.635232	0.051124	-0.024635	-0.177211	-0.999942	-0.000303	-0.000376	-0.010776
27216	-0.056268	0.068882	9.647118	0.028173	-0.039195	-0.165280	-0.999942	-0.000303	-0.000384	-0.010768
27217	-0.034390	0.077840	9.700565	0.050229	-0.030331	-0.111927	-0.999942	-0.000302	-0.000367	-0.010786
27218	-0.031566	0.047738	9.672149	0.053525	-0.060023	-0.140704	-0.999942	-0.000299	-0.000391	-0.010790
27219	-0.032132	0.047647	9.672147	0.053063	-0.060112	-0.140702	-0.999942	-0.000302	-0.000380	-0.010785
27220	-0.058059	0.068397	9.647111	0.026413	-0.039618	-0.165277	-0.999942	-0.000294	-0.000383	-0.010790
27221	-0.038898	0.112046	9.663645	0.044763	0.004302	-0.148419	-0.999942	-0.000298	-0.000379	-0.010795
27222	-0.024922	0.086637	9.661954	0.059312	-0.020909	-0.150518	-0.999942	-0.000306	-0.000387	-0.010802
27223	-0.071287	0.058987	9.685709	0.013795	-0.049889	-0.126674	-0.999942	-0.000307	-0.000384	-0.010798
27224	-0.071035	0.063604	9.620373	0.013411	-0.044521	-0.191954	-0.999942	-0.000303	-0.000390	-0.010796
27225	-0.026402	0.086277	9.661953	0.057983	-0.021202	-0.150510	-0.999941	-0.000293	-0.000392	-0.010806
27226	-0.026968	0.086186	9.661952	0.057557	-0.021321	-0.150508	-0.999942	-0.000303	-0.000403	-0.010795
27227	-0.075927	0.093213	9.648781	0.008364	-0.015243	-0.163173	-0.999941	-0.000299	-0.000395	-0.010815
27228	-0.065151	0.097534	9.675511	0.019177	-0.010884	-0.136491	-0.999941	-0.000290	-0.000391	-0.010809
27229	-0.074015	0.058199	9.685694	0.011171	-0.050512	-0.126674	-0.999941	-0.000300	-0.000388	-0.010820
27230	-0.039593	0.081260	9.635220	0.044570	-0.026212	-0.177182	-0.999941	-0.000295	-0.000383	-0.010825
27231	-0.054460	0.106514	9.636905	0.029126	-0.001208	-0.175084	-0.999941	-0.000292	-0.000385	-0.010839
27232	-0.041179	0.076218	9.700551	0.043619	-0.031909	-0.111900	-0.999941	-0.000293	-0.000380	-0.010848
27233	-0.052727	0.071670	9.673816	0.031944	-0.036475	-0.138583	-0.999941	-0.000300	-0.000386	-0.010859
27234	-0.055944	0.106268	9.636899	0.027835	-0.001534	-0.175080	-0.999941	-0.000290	-0.000399	-0.010864
27235	-0.022431	0.124468	9.651769	0.061153	0.017304	-0.160299	-0.999941	-0.000293	-0.000395	-0.010870
27236	-0.068856	0.096625	9.675494	0.015663	-0.011720	-0.136486	-0.999941	-0.000280	-0.000409	-0.010865
27237	-0.031918	0.084921	9.661948	0.052731	-0.022456	-0.150483	-0.999941	-0.000293	-0.000397	-0.010873
27238	-0.066339	0.066603	9.647070	0.018547	-0.041507	-0.165266	-0.999941	-0.000295	-0.000404	-0.010875
27239	-0.041348	0.045646	9.672122	0.044302	-0.062216	-0.140671	-0.999941	-0.000297	-0.000408	-0.010880
27240	-0.081879	0.091930	9.648744	0.002679	-0.016641	-0.163172	-0.999941	-0.000302	-0.000413	-0.010894
27241	-0.060283	0.100805	9.702218	0.024674	-0.007778	-0.109793	-0.999940	-0.000287	-0.000422	-0.010909
27242	-0.034449	0.084504	9.661943	0.050548	-0.023004	-0.150473	-0.999940	-0.000294	-0.000418	-0.010922
27243	-0.057664	0.070734	9.673795	0.027550	-0.037567	-0.138574	-0.999940	-0.000304	-0.000403	-0.010936
27244	-0.060589	0.105368	9.636881	0.023451	-0.002622	-0.175068	-0.999940	-0.000296	-0.000407	-0.010941
27245	-0.073028	0.095881	9.675471	0.011681	-0.012699	-0.136481	-0.999940	-0.000294	-0.000416	-0.010965
27246	-0.058988	0.070432	9.673789	0.026245	-0.037903	-0.138572	-0.999940	-0.000304	-0.000404	-0.010977
27247	-0.084842	0.091267	9.648725	-0.000405	-0.017373	-0.163173	-0.999939	-0.000297	-0.000405	-0.010999
27248	-0.059713	0.070223	9.673786	0.025374	-0.038099	-0.138570	-0.999939	-0.000298	-0.000400	-0.011008
27249	-0.063438	0.100155	9.702204	0.021128	-0.008621	-0.109786	-0.999939	-0.000304	-0.000394	-0.011027
27250	-0.085963	0.091066	9.648717	-0.001719	-0.017696	-0.163174	-0.999939	-0.000305	-0.000393	-0.011065
27251	-0.049826	0.074646	9.700523	0.035231	-0.033922	-0.111873	-0.999938	-0.000309	-0.000396	-0.011081
27252	-0.024070	0.058385	9.660258	0.061127	-0.049139	-0.152542	-0.999938	-0.000301	-0.000406	-0.011098
27253	-0.038999	0.083734	9.661933	0.045672	-0.024150	-0.150451	-0.999938	-0.000311	-0.000399	-0.011125
27254	-0.035925	0.053742	9.633512	0.049038	-0.053828	-0.179234	-0.999938	-0.000308	-0.000392	-0.011140
27255	-0.016730	0.097343	9.650092	0.067321	-0.009906	-0.162330	-0.999938	-0.000302	-0.000392	-0.011159
27256	-0.025706	0.057946	9.660256	0.059354	-0.049570	-0.152533	-0.999937	-0.000304	-0.000394	-0.011179
27257	-0.026114	0.057861	9.660255	0.058908	-0.049660	-0.152531	-0.999937	-0.000304	-0.000388	-0.011191
27258	-0.026471	0.057644	9.660256	0.058483	-0.049779	-0.152529	-0.999937	-0.000292	-0.000385	-0.011220
27259	-0.026850	0.057462	9.660256	0.058020	-0.049867	-0.152526	-0.999937	-0.000295	-0.000381	-0.011228
27260	-0.027189	0.057372	9.660255	0.057595	-0.049986	-0.152524	-0.999937	-0.000292	-0.000374	-0.011243
27261	-0.004645	0.071023	9.648422	0.079681	-0.035599	-0.164397	-0.999937	-0.000286	-0.000378	-0.011248
27262	-0.053667	0.077889	9.635179	0.030523	-0.029583	-0.177137	-0.999937	-0.000279	-0.000385	-0.011235
27263	-0.020009	0.096033	9.650098	0.063794	-0.010734	-0.162307	-0.999937	-0.000275	-0.000369	-0.011242
27264	-0.017729	0.061206	9.687005	0.067022	-0.045924	-0.125814	-0.999937	-0.000280	-0.000367	-0.011245
27265	-0.009760	0.100274	9.676850	0.074114	-0.006482	-0.135599	-0.999937	-0.000266	-0.000380	-0.011240
27266	-0.047628	0.111709	9.690351	0.036145	0.004006	-0.121643	-0.999937	-0.000273	-0.000369	-0.011242
27267	-0.070135	0.102616	9.636846	0.013313	-0.005044	-0.175050	-0.999937	-0.000271	-0.000375	-0.011236
27268	-0.030642	0.056089	9.660253	0.054081	-0.050842	-0.152508	-0.999937	-0.000263	-0.000371	-0.011230
27269	-0.045387	0.081458	9.661924	0.038624	-0.025862	-0.150425	-0.999937	-0.000276	-0.000360	-0.011239
27270	-0.054305	0.042278	9.672073	0.030662	-0.065530	-0.140640	-0.999937	-0.000282	-0.000368	-0.011235
27271	-0.046387	0.081481	9.661919	0.037747	-0.026071	-0.150422	-0.999937	-0.000280	-0.000375	-0.011231
27272	-0.046862	0.081349	9.661918	0.037322	-0.026191	-0.150421	-0.999937	-0.000278	-0.000372	-0.011228
27273	-0.058277	0.076682	9.635162	0.025683	-0.030763	-0.177127	-0.999937	-0.000275	-0.000367	-0.011229
27274	-0.039230	0.120431	9.651767	0.043971	0.013142	-0.160199	-0.999937	-0.000284	-0.000378	-0.011219
27275	-0.071151	0.067171	9.673731	0.013448	-0.040968	-0.138558	-0.999937	-0.000267	-0.000368	-0.011231
27276	-0.048544	0.080736	9.661915	0.035564	-0.026612	-0.150415	-0.999937	-0.000266	-0.000369	-0.011211
27277	-0.052468	0.110650	9.690338	0.031269	0.002843	-0.121626	-0.999937	-0.000274	-0.000375	-0.011222
27278	-0.052936	0.110609	9.690336	0.030841	0.002723	-0.121625	-0.999937	-0.000272	-0.000372	-0.011220
27279	-0.026898	0.094318	9.650099	0.056754	-0.012443	-0.162265	-0.999937	-0.000265	-0.000364	-0.011228
27280	-0.061253	0.075842	9.635151	0.022615	-0.031515	-0.177122	-0.999937	-0.000270	-0.000362	-0.011230
27281	-0.050613	0.080318	9.661908	0.033328	-0.027137	-0.150409	-0.999937	-0.000271	-0.000359	-0.011224
27282	-0.028117	0.093963	9.650099	0.055446	-0.012778	-0.162258	-0.999937	-0.000260	-0.000364	-0.011218
27283	-0.074444	0.066239	9.673712	0.009913	-0.041830	-0.138557	-0.999937	-0.000276	-0.000355	-0.011221
27284	-0.043405	0.119391	9.651762	0.039562	0.012082	-0.160178	-0.999937	-0.000275	-0.000363	-0.011213
27285	-0.066830	0.105448	9.663566	0.016563	-0.002476	-0.148329	-0.999937	-0.000274	-0.000357	-0.011228
27286	-0.026297	0.063768	9.621669	0.057548	-0.042731	-0.191038	-0.999937	-0.000269	-0.000352	-0.011233
27287	-0.041213	0.089025	9.623334	0.042085	-0.017747	-0.188962	-0.999937	-0.000267	-0.000358	-0.011229
27288	-0.028225	0.058716	9.686995	0.056451	-0.048471	-0.125759	-0.999937	-0.000269	-0.000365	-0.011232
27289	-0.039924	0.054115	9.660230	0.044834	-0.053037	-0.152473	-0.999937	-0.000268	-0.000382	-0.011221
27290	-0.065875	0.074910	9.635127	0.018234	-0.032560	-0.177116	-0.999937	-0.000268	-0.000366	-0.011236
27291	-0.051759	0.049373	9.633463	0.032797	-0.057722	-0.179188	-0.999937	-0.000266	-0.000373	-0.011232
27292	-0.041163	0.053946	9.660226	0.043528	-0.053367	-0.152469	-0.999937	-0.000284	-0.000365	-0.011232
27293	-0.052601	0.049412	9.633458	0.031923	-0.057929	-0.179186	-0.999937	-0.000275	-0.000371	-0.011224
27294	-0.019110	0.067685	9.648428	0.065198	-0.039088	-0.164302	-0.999937	-0.000283	-0.000371	-0.011219
27295	-0.057024	0.079128	9.661882	0.027174	-0.028603	-0.150394	-0.999937	-0.000271	-0.000374	-0.011216
27296	-0.020166	0.067437	9.648428	0.064316	-0.039304	-0.164297	-0.999937	-0.000281	-0.000385	-0.011206
27297	-0.032686	0.058022	9.686986	0.052466	-0.049411	-0.125741	-0.999937	-0.000272	-0.000387	-0.011214
27298	-0.035657	0.092599	9.650087	0.048419	-0.014448	-0.162223	-0.999937	-0.000274	-0.000386	-0.011205
27299	-0.073598	0.104072	9.663532	0.010395	-0.003962	-0.148321	-0.999937	-0.000272	-0.000393	-0.011201
27300	-0.059637	0.078530	9.661871	0.024991	-0.029149	-0.150390	-0.999937	-0.000271	-0.000393	-0.011182
27301	-0.074541	0.103845	9.663527	0.009505	-0.004170	-0.148320	-0.999937	-0.000271	-0.000391	-0.011178
27302	-0.046000	0.052939	9.660209	0.039126	-0.054422	-0.152456	-0.999938	-0.000273	-0.000390	-0.011169
27303	-0.026995	0.096572	9.676855	0.057330	-0.010491	-0.135488	-0.999938	-0.000265	-0.000395	-0.011160
27304	-0.009538	0.041123	9.646768	0.075814	-0.065214	-0.166345	-0.999938	-0.000273	-0.000395	-0.011155
27305	-0.038932	0.091915	9.650081	0.045311	-0.015177	-0.162209	-0.999938	-0.000271	-0.000395	-0.011139
27306	-0.039360	0.091814	9.650080	0.044886	-0.015296	-0.162207	-0.999938	-0.000272	-0.000394	-0.011131
27307	-0.073995	0.073292	9.635081	0.010745	-0.034362	-0.177111	-0.999938	-0.000266	-0.000418	-0.011125
27308	-0.051749	0.087052	9.623301	0.032870	-0.019987	-0.188930	-0.999938	-0.000272	-0.000423	-0.011093
27309	-0.053169	0.082266	9.688624	0.032132	-0.025628	-0.123655	-0.999938	-0.000278	-0.000418	-0.011110
27310	-0.075511	0.073099	9.635071	0.009443	-0.034693	-0.177111	-0.999938	-0.000270	-0.000414	-0.011103
27311	-0.045448	0.121283	9.678503	0.038772	0.013718	-0.133405	-0.999938	-0.000274	-0.000414	-0.011091
27312	-0.042360	0.091212	9.650073	0.042246	-0.015937	-0.162196	-0.999938	-0.000266	-0.000411	-0.011085
27313	-0.054747	0.081738	9.688620	0.030368	-0.026055	-0.123651	-0.999939	-0.000270	-0.000411	-0.011073
27314	-0.054034	0.086367	9.623295	0.030241	-0.020622	-0.188923	-0.999939	-0.000257	-0.000394	-0.011080
27315	-0.028895	0.065241	9.648421	0.055944	-0.041316	-0.164253	-0.999939	-0.000256	-0.000400	-0.011073
27316	-0.055781	0.081235	9.688618	0.029057	-0.026399	-0.123648	-0.999939	-0.000260	-0.000391	-0.011064
27317	-0.044248	0.090511	9.650071	0.040027	-0.016458	-0.162187	-0.999939	-0.000258	-0.000401	-0.011043
27318	-0.079802	0.067154	9.700377	0.005616	-0.041105	-0.111838	-0.999939	-0.000254	-0.000406	-0.011042
27319	-0.045328	0.090296	9.650068	0.039140	-0.016667	-0.162184	-0.999939	-0.000261	-0.000404	-0.011042
27320	-0.054145	0.051095	9.660177	0.031195	-0.056348	-0.152438	-0.999939	-0.000272	-0.000396	-0.011037
27321	-0.023035	0.104251	9.638303	0.060811	-0.002378	-0.173985	-0.999939	-0.000272	-0.000393	-0.011032
27322	-0.035508	0.094838	9.676845	0.048946	-0.012527	-0.135445	-0.999939	-0.000275	-0.000400	-0.011034
27323	-0.050574	0.120152	9.678492	0.033455	0.012443	-0.133383	-0.999939	-0.000272	-0.000406	-0.011030
27324	-0.055953	0.050996	9.660167	0.029434	-0.056769	-0.152435	-0.999939	-0.000290	-0.000398	-0.011030
27325	-0.085278	0.101753	9.663461	-0.001098	-0.006746	-0.148317	-0.999939	-0.000277	-0.000394	-0.011016
27326	-0.033687	0.064583	9.648410	0.051106	-0.042479	-0.164232	-0.999939	-0.000276	-0.000391	-0.011014
27327	-0.060661	0.080508	9.688595	0.024170	-0.027536	-0.123637	-0.999939	-0.000273	-0.000398	-0.011011
27328	-0.072115	0.075912	9.661807	0.012635	-0.032127	-0.150375	-0.999939	-0.000278	-0.000396	-0.011013
27329	-0.087062	0.101238	9.663450	-0.002858	-0.007173	-0.148318	-0.999939	-0.000276	-0.000398	-0.011024
27330	-0.070353	0.041024	9.698694	0.015345	-0.067444	-0.113898	-0.999939	-0.000282	-0.000380	-0.011015
27331	-0.050164	0.089529	9.650051	0.033862	-0.017930	-0.162166	-0.999939	-0.000273	-0.000382	-0.011024
27332	-0.051699	0.084444	9.715375	0.033084	-0.023615	-0.096893	-0.999939	-0.000265	-0.000385	-0.011029
27333	-0.051127	0.089076	9.650050	0.032966	-0.018147	-0.162164	-0.999939	-0.000263	-0.000384	-0.011013
27334	-0.051609	0.089007	9.650048	0.032541	-0.018266	-0.162163	-0.999939	-0.000268	-0.000389	-0.011026
27335	-0.018126	0.107396	9.665091	0.065738	0.000630	-0.147206	-0.999939	-0.000271	-0.000385	-0.011034
27336	-0.075601	0.075022	9.661787	0.009099	-0.032981	-0.150374	-0.999939	-0.000268	-0.000401	-0.011026
27337	-0.064053	0.084334	9.623251	0.020113	-0.023033	-0.188902	-0.999939	-0.000277	-0.000388	-0.011042
27338	-0.076649	0.075014	9.661779	0.008225	-0.033193	-0.150374	-0.999939	-0.000281	-0.000416	-0.011033
27339	-0.028779	0.067926	9.675186	0.056456	-0.039360	-0.137464	-0.999939	-0.000277	-0.000400	-0.011040
27340	-0.062979	0.049426	9.660132	0.022379	-0.058462	-0.152426	-0.999939	-0.000282	-0.000398	-0.011042
27341	-0.081500	0.104647	9.690204	0.002923	-0.003976	-0.121576	-0.999939	-0.000276	-0.000402	-0.011045
27342	-0.029964	0.067561	9.675185	0.055149	-0.039689	-0.137458	-0.999939	-0.000274	-0.000399	-0.011043
27343	-0.041376	0.062932	9.648391	0.043603	-0.044260	-0.164203	-0.999939	-0.000276	-0.000404	-0.011048
27344	-0.056429	0.088205	9.650029	0.028129	-0.019326	-0.162151	-0.999939	-0.000272	-0.000409	-0.011046
27345	-0.056783	0.088088	9.650028	0.027690	-0.019428	-0.162150	-0.999939	-0.000274	-0.000395	-0.011056
27346	-0.017221	0.041831	9.673543	0.068447	-0.065181	-0.139500	-0.999939	-0.000284	-0.000406	-0.011045
27347	-0.023662	0.106466	9.665089	0.060444	-0.000652	-0.147172	-0.999939	-0.000279	-0.000390	-0.011053
27348	-0.055346	0.053260	9.686910	0.029946	-0.054857	-0.125674	-0.999939	-0.000290	-0.000385	-0.011077
27349	-0.058353	0.087918	9.650020	0.025917	-0.019848	-0.162146	-0.999939	-0.000279	-0.000399	-0.011069
27350	-0.069855	0.083239	9.623220	0.014413	-0.024437	-0.188895	-0.999939	-0.000284	-0.000397	-0.011071
27351	-0.056844	0.053021	9.686903	0.028605	-0.055155	-0.125672	-0.999939	-0.000290	-0.000395	-0.011072
27352	-0.059722	0.087795	9.650013	0.024610	-0.020174	-0.162143	-0.999939	-0.000295	-0.000393	-0.011074
27353	-0.034568	0.066926	9.675174	0.050285	-0.040851	-0.137437	-0.999939	-0.000301	-0.000380	-0.011079
27354	-0.060233	0.087824	9.650009	0.023731	-0.020390	-0.162141	-0.999938	-0.000308	-0.000369	-0.011080
27355	-0.046186	0.062385	9.648372	0.038334	-0.045544	-0.164186	-0.999938	-0.000307	-0.000383	-0.011085
27356	-0.064873	0.117393	9.678441	0.018868	0.008904	-0.133340	-0.999938	-0.000286	-0.000385	-0.011081
27357	-0.024231	0.075762	9.636652	0.060019	-0.031232	-0.175945	-0.999938	-0.000296	-0.000382	-0.011091
27358	-0.065667	0.117136	9.678438	0.017986	0.008693	-0.133338	-0.999938	-0.000291	-0.000376	-0.011096
27359	-0.039543	0.100964	9.638285	0.044082	-0.006392	-0.173896	-0.999938	-0.000292	-0.000381	-0.011102
27360	-0.037539	0.066099	9.675169	0.047216	-0.041613	-0.137424	-0.999938	-0.000290	-0.000378	-0.011100
27361	-0.075398	0.077552	9.688516	0.009144	-0.031183	-0.123623	-0.999938	-0.000296	-0.000373	-0.011117
27362	-0.075781	0.077532	9.688513	0.008716	-0.031302	-0.123623	-0.999938	-0.000298	-0.000372	-0.011108
27363	-0.053368	0.091330	9.676797	0.030826	-0.016870	-0.135376	-0.999938	-0.000296	-0.000386	-0.011114
27364	-0.050329	0.061347	9.648358	0.034399	-0.046505	-0.164176	-0.999938	-0.000301	-0.000384	-0.011117
27365	-0.102609	0.098089	9.663330	-0.018741	-0.011026	-0.148339	-0.999938	-0.000290	-0.000367	-0.011121
27366	-0.050938	0.061010	9.648357	0.033520	-0.046710	-0.164174	-0.999938	-0.000292	-0.000374	-0.011124
27367	-0.057434	0.125614	9.639908	0.025507	0.017817	-0.171840	-0.999938	-0.000292	-0.000368	-0.011136
27368	-0.044442	0.095354	9.703597	0.039688	-0.012940	-0.108610	-0.999938	-0.000300	-0.000368	-0.011132
27369	-0.052400	0.060827	9.648351	0.032180	-0.047015	-0.164171	-0.999938	-0.000293	-0.000387	-0.011145
27370	-0.081923	0.111446	9.651607	0.001628	0.002955	-0.160090	-0.999938	-0.000293	-0.000372	-0.011160
27371	-0.056741	0.090506	9.676785	0.027286	-0.017714	-0.135367	-0.999938	-0.000296	-0.000368	-0.011166
27372	-0.068265	0.085800	9.649974	0.015809	-0.022301	-0.162129	-0.999937	-0.000283	-0.000388	-0.011172
27373	-0.068836	0.085608	9.649972	0.015349	-0.022386	-0.162129	-0.999937	-0.000285	-0.000380	-0.011197
27374	-0.069158	0.085545	9.649970	0.014924	-0.022506	-0.162128	-0.999937	-0.000287	-0.000376	-0.011206
27375	-0.054956	0.060026	9.648341	0.029545	-0.047645	-0.164166	-0.999937	-0.000283	-0.000368	-0.011224
27376	-0.058865	0.089842	9.676779	0.025097	-0.018253	-0.135362	-0.999937	-0.000287	-0.000361	-0.011243
27377	-0.044542	0.064337	9.675151	0.039707	-0.043391	-0.137399	-0.999936	-0.000282	-0.000342	-0.011268
27378	-0.047365	0.098984	9.638270	0.035738	-0.008401	-0.173863	-0.999936	-0.000285	-0.000355	-0.011282
27379	-0.056331	0.059590	9.648336	0.027779	-0.048076	-0.164163	-0.999936	-0.000281	-0.000347	-0.011300
27380	-0.026349	0.107877	9.691893	0.056931	0.000316	-0.120325	-0.999936	-0.000291	-0.000341	-0.011324
27381	-0.023133	0.077905	9.663454	0.060507	-0.029285	-0.149126	-0.999936	-0.000285	-0.000341	-0.011343
27382	-0.046604	0.063934	9.675144	0.037511	-0.043940	-0.137392	-0.999935	-0.000293	-0.000345	-0.011368
27383	-0.023947	0.077885	9.663452	0.059627	-0.029495	-0.149121	-0.999935	-0.000302	-0.000331	-0.011384
27384	-0.020673	0.048034	9.635012	0.063238	-0.059121	-0.177922	-0.999935	-0.000310	-0.000334	-0.011408
27385	-0.021066	0.047975	9.635011	0.062781	-0.059209	-0.177920	-0.999935	-0.000306	-0.000325	-0.011428
27386	-0.010587	0.052379	9.661827	0.073388	-0.054860	-0.151147	-0.999935	-0.000308	-0.000331	-0.011431
27387	-0.025524	0.077664	9.663449	0.057864	-0.029914	-0.149112	-0.999934	-0.000304	-0.000323	-0.011449
27388	-0.011249	0.052226	9.661827	0.072512	-0.055072	-0.151142	-0.999934	-0.000314	-0.000310	-0.011462
27389	-0.026024	0.077618	9.663449	0.056994	-0.030126	-0.149107	-0.999934	-0.000314	-0.000305	-0.011474
27390	-0.037367	0.073026	9.636631	0.045541	-0.034711	-0.175878	-0.999934	-0.000316	-0.000311	-0.011477
27391	-0.039118	0.068041	9.701948	0.044556	-0.040419	-0.110609	-0.999934	-0.000311	-0.000315	-0.011478
27392	-0.064911	0.088904	9.676749	0.018028	-0.019968	-0.135350	-0.999934	-0.000324	-0.000305	-0.011484
27393	-0.042409	0.102849	9.665064	0.040139	-0.005516	-0.147068	-0.999934	-0.000326	-0.000320	-0.011484
27394	-0.039332	0.072811	9.636624	0.043768	-0.035138	-0.175871	-0.999934	-0.000321	-0.000315	-0.011489
27395	-0.043286	0.102672	9.665062	0.039255	-0.005724	-0.147064	-0.999934	-0.000331	-0.000309	-0.011471
27396	-0.041193	0.067876	9.701940	0.042353	-0.040958	-0.110601	-0.999934	-0.000328	-0.000302	-0.011486
27397	-0.063341	0.058701	9.648298	0.019856	-0.049990	-0.164153	-0.999934	-0.000326	-0.000301	-0.011469
27398	-0.015370	0.051676	9.661824	0.068100	-0.056134	-0.151116	-0.999934	-0.000335	-0.000301	-0.011465
27399	-0.078714	0.084045	9.649910	0.003892	-0.025172	-0.162124	-0.999934	-0.000335	-0.000298	-0.011459
27400	-0.030701	0.076951	9.663440	0.052135	-0.031315	-0.149083	-0.999934	-0.000334	-0.000295	-0.011457
27401	-0.083134	0.113735	9.678345	-0.001057	0.004120	-0.133318	-0.999934	-0.000334	-0.000293	-0.011453
27402	-0.079910	0.083751	9.649903	0.002587	-0.025500	-0.162124	-0.999934	-0.000336	-0.000292	-0.011444
27403	-0.071762	0.122988	9.639846	0.009630	0.013989	-0.171804	-0.999934	-0.000339	-0.000282	-0.011438
27404	-0.028661	0.046618	9.634998	0.054455	-0.061232	-0.177882	-0.999935	-0.000326	-0.000295	-0.011433
27405	-0.081134	0.083239	9.649897	0.001254	-0.025814	-0.162125	-0.999934	-0.000322	-0.000279	-0.011439
27406	-0.045208	0.066761	9.701930	0.037923	-0.042037	-0.110587	-0.999934	-0.000324	-0.000286	-0.011442
27407	-0.037264	0.105952	9.691878	0.044961	-0.002549	-0.120263	-0.999934	-0.000321	-0.000289	-0.011454
27408	-0.042524	0.036552	9.673486	0.041125	-0.071750	-0.139392	-0.999934	-0.000313	-0.000285	-0.011447
27409	-0.036753	0.110534	9.626562	0.044654	0.002865	-0.185524	-0.999934	-0.000322	-0.000275	-0.011447
27410	-0.049117	0.101209	9.665050	0.032653	-0.007342	-0.147041	-0.999934	-0.000329	-0.000264	-0.011448
27411	-0.064155	0.126312	9.666664	0.017121	0.017603	-0.145016	-0.999934	-0.000302	-0.000282	-0.011450
27412	-0.058599	0.061370	9.675096	0.024293	-0.047133	-0.137365	-0.999934	-0.000312	-0.000270	-0.011462
27413	-0.061292	0.096151	9.638220	0.020328	-0.012113	-0.173822	-0.999934	-0.000313	-0.000267	-0.011456
27414	-0.047154	0.070652	9.636605	0.034992	-0.037263	-0.175843	-0.999934	-0.000311	-0.000264	-0.011454
27415	-0.033085	0.045159	9.634991	0.049637	-0.062380	-0.177863	-0.999934	-0.000312	-0.000270	-0.011461
27416	-0.083222	0.047212	9.686742	-0.000041	-0.062117	-0.125672	-0.999934	-0.000316	-0.000267	-0.011463
27417	-0.060511	0.061057	9.675086	0.022085	-0.047647	-0.137362	-0.999934	-0.000315	-0.000254	-0.011465
27418	-0.050068	0.065560	9.701914	0.032648	-0.043303	-0.110574	-0.999934	-0.000325	-0.000265	-0.011454
27419	-0.061443	0.061074	9.675080	0.021196	-0.047872	-0.137361	-0.999934	-0.000329	-0.000261	-0.011458
27420	-0.061997	0.061009	9.675077	0.020769	-0.047992	-0.137361	-0.999934	-0.000329	-0.000276	-0.011461
27421	-0.031050	0.114110	9.653385	0.050380	0.006066	-0.158711	-0.999934	-0.000328	-0.000270	-0.011474
27422	-0.002384	0.063289	9.650167	0.080141	-0.044109	-0.162746	-0.999934	-0.000334	-0.000272	-0.011459
27423	-0.006559	0.093096	9.678610	0.075580	-0.014714	-0.133934	-0.999934	-0.000328	-0.000276	-0.011460
27424	-0.040982	0.074520	9.663421	0.041591	-0.033857	-0.149041	-0.999934	-0.000328	-0.000284	-0.011451
27425	-0.041373	0.074411	9.663420	0.041130	-0.033954	-0.149039	-0.999934	-0.000327	-0.000271	-0.011452
27426	-0.067168	0.095146	9.638191	0.014628	-0.013509	-0.173813	-0.999935	-0.000324	-0.000280	-0.011433
27427	-0.065229	0.060388	9.675059	0.017670	-0.048731	-0.137359	-0.999935	-0.000340	-0.000271	-0.011435
27428	-0.057244	0.099615	9.665022	0.024727	-0.009262	-0.147019	-0.999935	-0.000327	-0.000285	-0.011429
27429	-0.054186	0.069415	9.636577	0.028403	-0.038840	-0.175828	-0.999935	-0.000318	-0.000291	-0.011421
27430	-0.020825	0.087685	9.651777	0.061533	-0.019932	-0.160706	-0.999935	-0.000320	-0.000290	-0.011412
27431	-0.058871	0.099058	9.665018	0.023397	-0.009560	-0.147016	-0.999935	-0.000318	-0.000297	-0.011408
27432	-0.010987	0.092072	9.678616	0.071623	-0.015677	-0.133905	-0.999935	-0.000326	-0.000297	-0.011403
27433	-0.072034	0.089616	9.703486	0.010901	-0.019877	-0.108547	-0.999935	-0.000327	-0.000301	-0.011409
27434	-0.513425	0.266440	9.852342	-0.434242	0.145093	0.045995	-0.999934	-0.000329	-0.000177	-0.011449
27435	-4.849346	0.803547	9.727066	-4.786662	0.578144	-0.038678	-0.999924	-0.000495	0.000101	-0.012349
27436	-4.685983	0.684506	9.501259	-4.634273	0.448841	-0.272095	-0.999894	-0.000567	0.000924	-0.014548
27437	0.926690	0.493667	9.881891	0.966334	0.405884	0.069401	-0.999844	-0.000866	0.001685	-0.017553
27438	8.670264	-0.390885	9.347892	8.723846	-0.181936	-0.508353	-0.999785	-0.001778	0.001852	-0.020581
27439	2.338988	-0.671678	9.465854	2.410183	-0.710912	-0.367581	-0.999753	-0.002580	0.001867	-0.021992
27440	-0.077114	0.354689	9.782025	-0.042408	0.182440	-0.025728	-0.999751	-0.004278	0.001525	-0.021867
27441	-0.477257	0.534092	9.822598	-0.445124	0.313056	0.020942	-0.999742	-0.005677	0.001460	-0.021933
27442	-0.360471	0.959602	9.769567	-0.348852	0.717767	-0.021964	-0.999712	-0.006945	0.001651	-0.022933
27443	0.296197	0.884968	9.484109	0.302892	0.654304	-0.310092	-0.999654	-0.008396	0.001928	-0.024864
27444	0.180323	0.908795	9.596905	0.181239	0.640289	-0.194158	-0.999615	-0.010047	0.002067	-0.025798
27445	-0.122286	1.627869	9.887652	-0.158566	1.301733	0.122645	-0.999593	-0.011668	0.002121	-0.025928
27446	-0.315035	1.121541	10.861952	-0.313710	0.719413	1.083322	-0.999580	-0.013343	0.001568	-0.025663
27447	-0.162756	0.874913	11.545138	-0.125454	0.436031	1.757804	-0.999593	-0.013532	0.000501	-0.025106
27448	-0.309618	0.968574	11.861672	-0.238471	0.513679	2.079005	-0.999606	-0.013151	-0.001428	-0.024736
27449	-0.964097	1.031560	11.835487	-0.846700	0.559451	2.063432	-0.999615	-0.012433	-0.003608	-0.024559
27450	-0.006557	0.796720	12.431083	0.175002	0.375837	2.636994	-0.999633	-0.011259	-0.005105	-0.024089
27451	0.761746	1.036709	12.290587	0.959037	0.689877	2.488439	-0.999660	-0.009796	-0.006104	-0.023373
27452	0.132323	1.530692	11.673802	0.318039	1.208176	1.895309	-0.999706	-0.008180	-0.006909	-0.021771
27453	-0.337151	1.553220	11.587535	-0.131939	1.251762	1.815409	-0.999754	-0.006459	-0.007650	-0.019815
27454	0.099700	1.561749	11.691616	0.327739	1.316540	1.904907	-0.999789	-0.004678	-0.008374	-0.018163
27455	0.324270	1.360857	12.234771	0.588193	1.157236	2.433184	-0.999815	-0.002748	-0.008686	-0.016933
27456	0.476510	0.995455	12.263261	0.757324	0.846742	2.447607	-0.999837	-0.000504	-0.008581	-0.015873
27457	-0.054838	1.572720	11.861654	0.196266	1.465335	2.061204	-0.999845	0.001797	-0.008472	-0.015309
27458	-0.378226	2.079490	11.809965	-0.146978	2.016783	2.013273	-0.999847	0.004094	-0.008222	-0.014856
27459	0.130656	1.957906	12.017263	0.360700	1.965745	2.198580	-0.999849	0.006500	-0.007582	-0.014238
27460	0.381376	1.841433	11.819004	0.587798	1.914292	1.986244	-0.999848	0.009076	-0.006224	-0.013522
27461	0.710085	2.253004	10.947000	0.850796	2.384848	1.096268	-0.999843	0.011675	-0.004124	-0.012676
27462	1.019185	2.465960	9.988103	1.093078	2.643761	0.121961	-0.999830	0.014154	-0.001473	-0.011754
27463	0.657028	2.930129	9.643765	0.667289	3.135754	-0.234536	-0.999805	0.016227	0.001244	-0.011204
27464	0.788818	3.241542	9.729876	0.743567	3.485152	-0.163808	-0.999768	0.017666	0.003536	-0.011770
27465	1.709736	2.508206	9.944801	1.639366	2.807572	0.063710	-0.999716	0.018783	0.004777	-0.013840
27466	2.170706	2.117245	10.228704	2.083112	2.469320	0.355107	-0.999643	0.019817	0.004936	-0.017201
27467	2.290697	2.081095	10.763231	2.188893	2.491110	0.884432	-0.999544	0.020863	0.004476	-0.021361
27468	2.631782	1.997901	10.955424	2.523896	2.472991	1.070937	-0.999412	0.021931	0.003883	-0.026065
27469	2.627111	2.368342	10.762331	2.490625	2.882022	0.856384	-0.999257	0.022850	0.003149	-0.030870
27470	2.343257	2.455396	10.939258	2.195151	2.999286	1.021179	-0.999083	0.023634	0.002092	-0.035638
27471	2.131032	2.076548	10.940697	2.008202	2.645778	1.027932	-0.998869	0.024451	0.000966	-0.040757
27472	1.475440	2.228176	10.437274	1.330595	2.757629	0.517041	-0.998628	0.025093	0.000567	-0.045952
27473	1.221747	2.149313	9.987613	1.050610	2.658510	0.071288	-0.998396	0.025329	0.001738	-0.050603
27474	1.427246	1.990653	10.184320	1.228209	2.543941	0.273928	-0.998133	0.025529	0.002660	-0.055426
27475	0.417473	1.642099	10.577079	0.233952	2.116003	0.685557	-0.997823	0.025954	0.002587	-0.060567
27476	0.212481	1.268668	10.884339	0.065904	1.748650	1.006802	-0.997449	0.026680	0.001867	-0.066178
27477	0.042618	1.411104	10.531930	-0.122067	1.869763	0.646933	-0.997005	0.027504	0.000803	-0.072274
27478	0.326270	1.687644	10.145676	0.113782	2.182019	0.242916	-0.996507	0.028027	-0.000008	-0.078670
27479	1.348896	1.079670	10.016149	1.204197	1.752635	0.126456	-0.996010	0.028287	0.000063	-0.084636
27480	2.078728	0.922681	9.190204	1.915536	1.699723	-0.698205	-0.995562	0.028185	0.001549	-0.089780
27481	2.367673	1.552767	8.733313	2.038493	2.361615	-1.178177	-0.995108	0.027655	0.003497	-0.094775
27482	2.378997	0.944328	9.622826	2.107567	1.814709	-0.251574	-0.994613	0.026977	0.005592	-0.099934
27483	2.696085	0.841831	9.819515	2.382154	1.792360	-0.039615	-0.994091	0.026222	0.007694	-0.105058
27484	2.103345	1.093220	9.374651	1.704089	1.898459	-0.485575	-0.993543	0.025319	0.009344	-0.110200
27485	1.117817	0.835300	9.151575	0.766499	1.416937	-0.696587	-0.992902	0.024311	0.010052	-0.115987
27486	0.861908	0.848441	9.141978	0.496345	1.357221	-0.704995	-0.992173	0.022942	0.010050	-0.122336
27487	0.707608	0.425335	9.320271	0.438975	0.895073	-0.509185	-0.991372	0.021204	0.009937	-0.128972
27488	0.467547	0.159392	9.370687	0.274129	0.550352	-0.449159	-0.990515	0.019195	0.009754	-0.135707
27489	-0.048110	-0.427675	10.157373	-0.067464	-0.166494	0.352205	-0.989641	0.017286	0.009564	-0.142197
27490	-0.528190	-0.883385	11.436853	-0.400707	-0.745492	1.639147	-0.988814	0.015797	0.009434	-0.148012
27491	-0.304934	-1.751158	12.856086	0.067474	-1.503922	3.078088	-0.988117	0.015302	0.009387	-0.152655
27492	0.465456	-1.953111	12.161459	0.874656	-1.475675	2.393446	-0.987582	0.015744	0.010306	-0.155974
27493	1.084293	-0.969197	9.762585	1.170664	-0.383012	-0.019535	-0.987173	0.016498	0.012180	-0.158334
27494	1.210643	-0.202925	7.813456	1.053658	0.355137	-1.981945	-0.986754	0.017005	0.014032	-0.160720
27495	1.330045	-0.118660	7.637365	1.115055	0.474758	-2.154774	-0.986286	0.016972	0.015684	-0.163418
27496	0.890724	-0.795435	8.487982	0.874138	-0.289259	-1.290708	-0.985721	0.016665	0.016847	-0.166710
27497	-0.270957	-1.336924	9.024580	-0.067311	-1.175917	-0.761913	-0.985075	0.016367	0.017405	-0.170459
27498	-1.448530	-1.241646	9.115248	-1.200100	-1.489077	-0.698411	-0.984373	0.016145	0.017056	-0.174522
27499	-1.961266	-1.484225	9.273234	-1.575959	-1.900794	-0.542003	-0.983724	0.016014	0.016097	-0.178243
27500	-2.230817	-2.094694	9.145880	-1.575748	-2.578317	-0.654053	-0.983067	0.015959	0.015147	-0.181920
27501	-2.626550	-1.956317	9.408334	-1.965795	-2.594765	-0.397517	-0.982442	0.015974	0.014361	-0.185328
27502	-2.561406	-1.829382	9.656245	-1.928696	-2.455042	-0.148146	-0.981967	0.016110	0.013805	-0.187856
27503	-2.170710	-2.004021	9.148230	-1.479712	-2.486893	-0.645135	-0.981746	0.016179	0.014257	-0.188971
27504	-2.004799	-2.009133	8.246972	-1.318147	-2.454318	-1.547875	-0.981737	0.015879	0.015998	-0.188906
27505	-1.806646	-1.752218	7.442340	-1.237567	-2.168763	-2.363697	-0.981804	0.015290	0.018077	-0.188415
27506	-1.624815	-1.664348	7.739474	-1.140956	-2.030514	-2.074169	-0.981878	0.014464	0.020134	-0.187885
27507	-0.661099	-1.847019	7.888493	-0.213908	-1.860586	-1.902617	-0.981960	0.013609	0.022094	-0.187302
27508	-0.276032	-2.163735	8.430359	0.214249	-2.023527	-1.345795	-0.981949	0.013038	0.023507	-0.187227
27509	-0.622846	-2.259230	8.799764	-0.105044	-2.245551	-0.988042	-0.981872	0.012946	0.024359	-0.187528
27510	-1.273144	-2.218504	8.758063	-0.730069	-2.447257	-1.053449	-0.981783	0.013329	0.024553	-0.187941
27511	-1.678420	-1.897347	8.692273	-1.217631	-2.289545	-1.138129	-0.981748	0.014027	0.023804	-0.188168
27512	-1.805186	-1.936808	8.799942	-1.309174	-2.353993	-1.026699	-0.981797	0.014988	0.022378	-0.188012
27513	-1.868161	-2.090857	8.933893	-1.295991	-2.494930	-0.881183	-0.981944	0.016047	0.020835	-0.187335
27514	-1.911213	-2.079115	9.190167	-1.330014	-2.468159	-0.616288	-0.982130	0.017260	0.019270	-0.186415
27515	-1.810036	-2.008605	9.641143	-1.262239	-2.326703	-0.155800	-0.982395	0.018479	0.018143	-0.185012
27516	-1.081955	-2.280091	9.768702	-0.488369	-2.282740	0.002989	-0.982756	0.019772	0.017752	-0.182989
27517	-0.462163	-2.151473	9.320056	0.044522	-1.925165	-0.431986	-0.983139	0.021177	0.017964	-0.180740
27518	-0.307862	-1.759176	9.260969	0.028191	-1.483472	-0.498535	-0.983583	0.022477	0.018769	-0.178066
27519	0.169585	-1.043461	7.190698	0.270731	-0.689181	-2.582516	-0.983959	0.024150	0.019587	-0.175662
27520	-0.095785	-1.204910	7.441802	0.050354	-0.911665	-2.328858	-0.984229	0.024691	0.020362	-0.173980
27521	0.638426	-1.415904	8.036129	0.772600	-0.832901	-1.707067	-0.984432	0.025243	0.021187	-0.172649
27522	0.226959	-1.551371	8.129338	0.415802	-1.090676	-1.616229	-0.984487	0.025876	0.021461	-0.172207
27523	-0.229533	-1.232594	7.896990	-0.114289	-0.944891	-1.873636	-0.984479	0.026505	0.021176	-0.172194
27524	-0.528112	-1.327861	8.380638	-0.371958	-1.105295	-1.391456	-0.984477	0.027156	0.020013	-0.172240
27525	-0.542143	-1.333522	8.629253	-0.368401	-1.088942	-1.140054	-0.984470	0.027939	0.018070	-0.172373
27526	-0.284124	-1.440057	8.938045	-0.065708	-1.068653	-0.818431	-0.984440	0.028699	0.015820	-0.172638
27527	-0.022086	-1.673173	9.788136	0.270891	-1.140057	0.048060	-0.984374	0.029472	0.013917	-0.173045
27528	-0.008280	-1.730132	10.469340	0.313330	-1.134868	0.733133	-0.984352	0.030398	0.012747	-0.173100
27529	-0.180552	-1.631571	10.251294	0.132033	-1.089616	0.511019	-0.984443	0.031405	0.012634	-0.172411
27530	-0.125796	-1.343326	9.564126	0.091634	-0.817751	-0.188982	-0.984580	0.032279	0.013372	-0.171412
27531	0.247035	-1.218449	9.249525	0.383551	-0.581109	-0.505998	-0.984748	0.032908	0.014854	-0.170198
27532	0.204687	-1.012150	9.063477	0.246435	-0.408100	-0.703045	-0.984901	0.033306	0.016717	-0.169062
27533	0.140802	-1.070368	8.813890	0.178729	-0.498141	-0.948716	-0.985027	0.033542	0.018541	-0.168088
27534	0.005201	-1.278595	9.137495	0.077110	-0.723840	-0.614932	-0.985096	0.033742	0.019944	-0.167478
27535	-0.014761	-1.237496	9.155757	0.023822	-0.688697	-0.599403	-0.985094	0.034139	0.020586	-0.167335
27536	-0.415741	-1.484085	9.588207	-0.296446	-1.021098	-0.159785	-0.985049	0.034838	0.020349	-0.167484
27537	-1.103537	-1.019755	9.109144	-1.066751	-0.828356	-0.679778	-0.984994	0.034893	0.019220	-0.167927
27538	-1.080348	-1.325463	9.327571	-0.919232	-1.101667	-0.438855	-0.984906	0.033844	0.017084	-0.168885
27539	-0.829099	-2.005436	9.778818	-0.432905	-1.636593	0.059927	-0.984792	0.034017	0.015502	-0.169668
27540	-1.115704	-0.770292	8.365607	-1.035190	-0.646558	-1.426285	-0.984691	0.033340	0.013392	-0.170567
27541	-0.939970	-2.016966	10.657620	-0.480355	-1.632928	0.940883	-0.984569	0.033788	0.012172	-0.171272
27542	-0.556372	-1.425512	9.218319	-0.267027	-1.008364	-0.526628	-0.984417	0.035002	0.011762	-0.171930
27543	-0.559253	-1.832664	10.218886	-0.161122	-1.301176	0.501277	-0.984226	0.037167	0.012216	-0.172534
27544	-0.761543	-1.001092	8.874524	-0.616705	-0.641590	-0.893759	-0.984126	0.038457	0.013236	-0.172746
27545	-0.797969	-1.204840	8.340196	-0.589546	-0.858347	-1.412518	-0.984004	0.040041	0.014458	-0.172985
27546	-0.626709	-1.247718	8.234804	-0.434697	-0.825152	-1.512589	-0.983832	0.041600	0.015717	-0.173483
27547	-0.829528	-1.355482	8.065251	-0.604409	-0.983878	-1.673872	-0.983560	0.043405	0.016776	-0.174482
27548	-0.883062	-0.813703	8.416983	-0.870771	-0.448804	-1.367109	-0.983349	0.044620	0.017600	-0.175285
27549	-0.661715	-0.354441	8.740122	-0.848048	0.091684	-1.081958	-0.983228	0.045017	0.018301	-0.175786
27550	-0.423227	-2.552389	10.061341	0.064893	-1.776233	0.422798	-0.983063	0.045494	0.019133	-0.176497
27551	-0.228608	-1.831285	10.385235	-0.037137	-1.000656	0.687608	-0.982904	0.046286	0.020401	-0.177034
27552	-0.058889	-1.649808	10.008130	0.042308	-0.784094	0.300236	-0.982644	0.047668	0.022279	-0.177880
27553	0.236603	-2.086488	9.979273	0.425697	-1.068268	0.320063	-0.982328	0.049160	0.024838	-0.178878
27554	0.829052	-2.419557	9.462660	1.067011	-1.191750	-0.141887	-0.981881	0.050377	0.028201	-0.180488
27555	0.827906	-2.995548	9.363153	1.204880	-1.723769	-0.174029	-0.981175	0.051174	0.032854	-0.183298
27556	1.106182	-2.472580	9.461854	1.189232	-1.120340	-0.107332	-0.980154	0.051836	0.037875	-0.187556
27557	1.611433	-2.024876	9.800237	1.390697	-0.474353	0.216370	-0.979070	0.052895	0.041553	-0.192087
27558	1.559606	-2.271993	9.536488	1.425116	-0.709792	-0.014523	-0.978171	0.054274	0.041749	-0.196195
27559	0.665021	-1.836146	8.838088	0.513840	-0.684522	-0.801983	-0.977632	0.054728	0.040465	-0.199006
27560	2.150299	-1.622421	9.561747	1.750302	0.176353	-0.035760	-0.977717	0.055924	0.039560	-0.198434
27561	2.631302	-2.525259	8.779469	2.622697	-0.512727	-0.689185	-0.977796	0.056504	0.038496	-0.198093
27562	-0.053153	-5.315252	10.196490	1.103855	-4.001915	0.910615	-0.978190	0.055397	0.038770	-0.196400
27563	0.904972	-3.549154	10.607732	1.261793	-2.002004	1.157236	-0.978481	0.054531	0.039370	-0.195068
27564	-0.237251	-3.615984	11.702316	0.129568	-2.428951	2.193945	-0.978468	0.054144	0.039641	-0.195185
27565	-0.678246	-3.507950	11.804055	-0.321708	-2.502056	2.259497	-0.978334	0.053588	0.039411	-0.196056
27566	-0.628617	-2.795790	12.018681	-0.541645	-1.822102	2.395783	-0.978175	0.052939	0.038346	-0.197231
27567	-0.600179	-2.340423	11.876180	-0.635083	-1.417079	2.206870	-0.977988	0.051996	0.036607	-0.198735
27568	-0.927824	-1.835505	11.936828	-1.072286	-1.098256	2.202357	-0.977696	0.050436	0.034010	-0.201023
27569	-1.000257	-1.177730	12.139139	-1.325508	-0.541598	2.340299	-0.977269	0.048363	0.030730	-0.204114
27570	-1.059293	-0.787402	12.100165	-1.431413	-0.256985	2.272011	-0.976658	0.045723	0.027066	-0.208124
27571	-1.228334	-0.169624	11.968312	-1.720235	0.165861	2.094870	-0.975845	0.042445	0.023206	-0.213041
27572	-1.372225	0.670323	11.806070	-2.080785	0.788403	1.881882	-0.974997	0.039339	0.018905	-0.217890
27573	-1.503523	0.735696	11.359072	-2.096526	0.710057	1.453611	-0.974339	0.036986	0.014180	-0.221571
27574	-1.407633	1.240717	10.947673	-2.103864	1.151514	1.032546	-0.974002	0.035343	0.009316	-0.223572
27575	-1.629271	1.909412	10.685197	-2.481377	1.631660	0.753924	-0.973952	0.034334	0.004341	-0.224099
27576	-1.871750	2.247161	10.331875	-2.736130	1.813489	0.411042	-0.974081	0.033479	-0.000723	-0.223707
27577	-2.271304	2.920261	10.188790	-3.280670	2.249793	0.270601	-0.974425	0.032716	-0.005806	-0.222242
27578	-2.654815	3.157631	9.612919	-3.621483	2.292122	-0.270330	-0.975103	0.032301	-0.011187	-0.219104
27579	-2.649706	3.634653	9.460426	-3.701001	2.770578	-0.412907	-0.976189	0.032587	-0.016872	-0.213796
27580	-2.646377	3.556460	9.048696	-3.545095	2.758219	-0.793109	-0.977606	0.033679	-0.022669	-0.206489
27581	-2.788640	2.750296	8.682790	-3.232825	2.043864	-1.089127	-0.979258	0.035264	-0.028589	-0.197467
27582	-2.451208	2.060121	8.353755	-2.546873	1.625826	-1.392145	-0.981062	0.037231	-0.034729	-0.186883
27583	-2.165627	1.582598	8.224501	-1.996209	1.385713	-1.510286	-0.982836	0.039488	-0.040658	-0.175559
27584	-1.996935	1.612244	7.925191	-1.767288	1.549663	-1.820857	-0.984603	0.041921	-0.045329	-0.163539
27585	-1.532340	1.248220	7.450237	-1.169549	1.403473	-2.324459	-0.986372	0.044504	-0.048689	-0.150728
27586	-1.292025	0.401572	6.747177	-0.700728	0.677317	-3.000586	-0.988072	0.047241	-0.050920	-0.137437
27587	-0.486879	1.329091	6.298241	-0.183259	1.797135	-3.615307	-0.989614	0.050304	-0.053024	-0.123784
27588	0.057165	2.220875	5.986551	0.152251	2.793794	-4.072879	-0.990681	0.051854	-0.054908	-0.113350
27589	-0.707499	1.461920	6.143755	-0.339611	1.920300	-3.764510	-0.991336	0.051175	-0.056692	-0.106863
27590	-1.191229	0.902672	6.529365	-0.603414	1.308018	-3.271185	-0.991700	0.048770	-0.058908	-0.103360
27591	-1.379924	0.188361	6.870062	-0.561496	0.578018	-2.849367	-0.991944	0.045446	-0.060806	-0.101409
27592	-1.324233	-0.437333	6.641243	-0.378510	-0.086050	-3.037729	-0.992171	0.041685	-0.062328	-0.099876
27593	-1.472149	-0.476191	6.739369	-0.477733	-0.190392	-2.917155	-0.992422	0.037831	-0.063889	-0.097909
27594	-1.328875	-0.373704	7.272067	-0.265743	-0.067329	-2.415853	-0.992723	0.034311	-0.065325	-0.095166
27595	-0.977611	-0.558405	7.186723	0.119731	-0.235134	-2.543113	-0.993051	0.030977	-0.066322	-0.092147
27596	-0.730797	-0.572646	7.308088	0.395741	-0.245740	-2.460621	-0.993322	0.027299	-0.067390	-0.089586
27597	-0.726906	-0.932740	7.667516	0.530465	-0.639543	-2.099169	-0.993530	0.022699	-0.068158	-0.087957
27598	-0.777367	-1.152580	7.650023	0.532196	-0.946619	-2.113627	-0.993642	0.016635	-0.068675	-0.087647
27599	-0.120486	-0.846498	7.629494	1.136352	-0.637231	-2.246862	-0.993507	0.008816	-0.069635	-0.089534
27600	0.435875	-0.941442	8.490948	1.851750	-0.743589	-1.494709	-0.993034	-0.000519	-0.070453	-0.094441
27601	0.591841	-1.009376	8.459053	2.045180	-0.928854	-1.573933	-0.992177	-0.011085	-0.070614	-0.102353
27602	-0.030111	-1.579184	8.733212	1.647099	-1.779120	-1.275556	-0.990819	-0.022245	-0.071186	-0.112766
27603	-0.792949	-2.201168	9.042581	1.178129	-2.742441	-0.962301	-0.989090	-0.033116	-0.072493	-0.123891
27604	-0.278151	-1.783704	9.409790	1.730208	-2.393460	-0.697977	-0.987198	-0.042633	-0.074297	-0.134546
27605	0.333780	-1.411732	9.551623	2.330733	-1.997448	-0.652203	-0.985443	-0.049250	-0.076195	-0.143775
27606	-0.754652	-1.179758	9.722586	1.354152	-2.170552	-0.328800	-0.984079	-0.052137	-0.079360	-0.150242
27607	-1.950323	-0.159169	10.365665	0.152659	-1.635898	0.607280	-0.983191	-0.052048	-0.083965	-0.153547
27608	-2.343271	0.485359	11.011876	-0.167986	-1.172204	1.393749	-0.982536	-0.050439	-0.089422	-0.155183
27609	-2.174702	0.416353	11.349006	0.193912	-1.147762	1.691489	-0.982074	-0.047814	-0.094710	-0.155804
27610	-1.956073	0.178431	10.069082	0.291375	-1.155000	0.376765	-0.981655	-0.046540	-0.098553	-0.156444
27611	-3.455712	0.473572	9.533874	-1.227900	-1.307208	0.179500	-0.981194	-0.048317	-0.102500	-0.156260
27612	-2.663941	2.351541	11.744783	-0.445815	0.534259	2.438062	-0.980916	-0.050795	-0.106609	-0.154460
27613	-2.161848	2.928723	10.678876	-0.293752	1.295041	1.391116	-0.980877	-0.052067	-0.110291	-0.151673
27614	-2.274299	2.747687	9.966427	-0.423749	1.133562	0.703328	-0.980762	-0.053669	-0.114247	-0.148904
27615	-1.887106	2.356397	10.107880	0.177842	0.846702	0.700805	-0.980351	-0.056043	-0.118534	-0.147381
27616	-1.727267	1.789105	10.098073	0.573191	0.307377	0.566685	-0.979581	-0.059805	-0.122290	-0.147952
27617	-1.964162	1.402747	9.747557	0.450569	-0.186052	0.217338	-0.978361	-0.065309	-0.125556	-0.150933
27618	-1.572083	1.693007	10.214260	0.951915	0.052626	0.616014	-0.976609	-0.071526	-0.129757	-0.155827
27619	-2.097361	2.163119	10.342671	0.468355	0.178678	0.948132	-0.974509	-0.078122	-0.133074	-0.162848
27620	-2.280091	2.455862	10.388850	0.311089	0.242968	1.096041	-0.972255	-0.084170	-0.136198	-0.170546
27621	-2.527976	2.727579	9.994596	-0.053032	0.316424	0.846467	-0.970011	-0.089847	-0.138100	-0.178700
27622	-2.247285	2.828770	9.464599	0.041648	0.451533	0.307780	-0.967799	-0.095193	-0.139562	-0.186618
27623	-1.642213	2.557832	9.185436	0.620494	0.360315	-0.164084	-0.965309	-0.100680	-0.141714	-0.194831
27624	-2.227521	2.996374	8.918674	-0.078405	0.449870	-0.154887	-0.962834	-0.105461	-0.144841	-0.202112
27625	-2.380986	3.361647	8.711047	-0.356780	0.662687	-0.206169	-0.961212	-0.108108	-0.147352	-0.206572
27626	-1.626629	2.491882	8.379254	0.536571	0.233795	-0.939995	-0.960788	-0.108464	-0.148812	-0.207309
27627	-0.988542	2.471112	8.397328	1.122602	0.499237	-1.089775	-0.961081	-0.107265	-0.149652	-0.205964
27628	-1.109600	2.517297	8.493304	1.033602	0.503295	-0.959301	-0.961699	-0.105305	-0.149155	-0.204447
27629	-1.355872	1.981179	8.709131	1.053355	-0.078600	-0.840710	-0.962569	-0.103013	-0.146736	-0.203270
27630	-1.468155	1.592229	9.053954	1.144679	-0.490327	-0.586995	-0.963691	-0.100384	-0.142880	-0.202009
27631	-1.940836	1.759078	9.171051	0.621696	-0.521473	-0.309526	-0.964898	-0.097819	-0.138330	-0.200667
27632	-2.944748	2.247168	9.564242	-0.412492	-0.522057	0.422168	-0.966196	-0.095673	-0.133356	-0.198815
27633	-3.183813	2.494186	9.925022	-0.703120	-0.425742	0.873158	-0.967212	-0.094667	-0.129014	-0.197216
27634	-2.698027	2.258319	9.983936	-0.251093	-0.451099	0.760459	-0.967769	-0.094988	-0.125859	-0.196367
27635	-2.248415	1.503185	9.578945	0.247491	-0.919350	0.095111	-0.967913	-0.096402	-0.123807	-0.196274
27636	-1.974564	1.593510	9.581387	0.434452	-0.768428	0.059583	-0.967807	-0.098579	-0.122534	-0.196515
27637	-1.725392	2.154456	9.502127	0.411641	-0.198910	0.071632	-0.967760	-0.100773	-0.120482	-0.196901
27638	-1.613193	1.800401	9.371740	0.563744	-0.500051	-0.163585	-0.967778	-0.102606	-0.117969	-0.197385
27639	-2.039674	1.630193	9.220835	0.162120	-0.839263	-0.267491	-0.967964	-0.103685	-0.115762	-0.197214
27640	-2.343283	1.273550	9.306314	0.002467	-1.318284	-0.221944	-0.968405	-0.104222	-0.113669	-0.195983
27641	-2.079240	1.695034	9.031695	-0.019780	-0.799895	-0.425058	-0.968980	-0.104787	-0.111908	-0.193842
27642	-1.943257	2.561545	8.791881	-0.294901	0.066392	-0.456220	-0.969772	-0.105319	-0.109907	-0.190710
27643	-2.168138	3.168289	8.734160	-0.754664	0.531669	-0.316788	-0.970799	-0.105778	-0.107238	-0.186709
27644	-1.824799	3.690042	8.719416	-0.662170	1.133373	-0.260129	-0.971740	-0.106593	-0.104111	-0.183085
27645	-1.822799	3.445875	7.614582	-0.888994	1.084750	-1.374003	-0.972224	-0.108757	-0.101768	-0.180544
27646	-1.609592	2.958890	7.252897	-0.615229	0.741440	-1.874071	-0.971784	-0.113121	-0.103333	-0.179338
27647	-1.345959	3.275914	8.109495	-0.201268	0.889695	-1.010764	-0.970843	-0.119036	-0.106558	-0.178717
27648	-0.791748	3.312429	7.496429	0.206794	1.156005	-1.663140	-0.969679	-0.125855	-0.109537	-0.178563
27649	-2.924722	2.899585	10.267751	-0.766811	-0.732027	1.199182	-0.968059	-0.133523	-0.113584	-0.179254
27650	-3.028458	2.551776	13.029528	0.104103	-1.845000	3.679355	-0.967323	-0.138609	-0.114701	-0.178656
27651	-2.191132	3.561578	12.099765	0.285200	-0.509479	2.975921	-0.967439	-0.141304	-0.111707	-0.177810
27652	-1.402576	3.762890	9.198339	0.060620	0.607549	0.205416	-0.967996	-0.142437	-0.106607	-0.177002
27653	-1.665444	4.030756	9.049498	-0.379488	0.752862	0.197453	-0.968474	-0.143440	-0.102879	-0.175783
27654	-1.821904	4.387508	9.253312	-0.642448	0.944542	0.525984	-0.969188	-0.143777	-0.099206	-0.173670
27655	-1.547311	4.061967	9.258778	-0.361308	0.749097	0.381746	-0.970209	-0.143346	-0.094605	-0.170872
27656	-1.508292	3.503643	8.998120	-0.309652	0.333898	-0.050083	-0.971401	-0.142509	-0.089095	-0.167730
27657	-1.465956	3.085987	9.140051	-0.213798	-0.054052	-0.057517	-0.972572	-0.141595	-0.083466	-0.164583
27658	-1.542430	2.815914	9.139496	-0.312419	-0.314079	-0.135829	-0.973689	-0.140545	-0.077591	-0.161732
27659	-0.955326	2.769243	9.207483	0.151848	-0.167602	-0.153138	-0.974655	-0.139624	-0.071529	-0.159488
27660	-1.044429	2.245526	9.299283	0.122069	-0.696410	-0.215352	-0.975412	-0.139022	-0.065369	-0.158023
27661	-0.979614	2.043025	8.903984	0.059381	-0.767796	-0.657329	-0.975912	-0.139168	-0.059656	-0.157063
27662	-0.777855	2.503178	8.550988	-0.026414	-0.218399	-0.871685	-0.976115	-0.140681	-0.055663	-0.155919
27663	-0.531100	2.822664	7.093409	-0.159429	0.493077	-2.177429	-0.975958	-0.144031	-0.054133	-0.154373
27664	-0.266411	2.512677	10.243327	0.687523	-0.631657	0.696254	-0.975493	-0.148427	-0.054042	-0.153173
27665	-0.449511	2.615529	9.731842	0.398753	-0.531108	0.252617	-0.975269	-0.151355	-0.052335	-0.152328
27666	-0.261170	3.048363	9.286289	0.367237	-0.010950	-0.042290	-0.975072	-0.153934	-0.051084	-0.151422
27667	-0.253138	3.430087	9.386842	0.267089	0.254264	0.177614	-0.974919	-0.156358	-0.049412	-0.150477
27668	-0.449668	3.341390	9.681972	0.124384	-0.025454	0.438717	-0.974837	-0.158520	-0.047361	-0.149401
27669	-0.441503	3.395675	9.444874	0.048755	0.048175	0.233515	-0.974769	-0.160751	-0.045030	-0.148179
27670	-0.312406	3.221728	9.620922	0.205247	-0.174083	0.334551	-0.974671	-0.162957	-0.042332	-0.147209
27671	-0.462180	3.340944	9.664823	-0.014534	-0.177326	0.422163	-0.974585	-0.165041	-0.038994	-0.146371
27672	-0.202941	3.111053	9.581201	0.225628	-0.327129	0.255128	-0.974491	-0.166766	-0.035729	-0.145873
27673	-0.097995	2.970059	9.214770	0.263160	-0.341242	-0.140208	-0.974394	-0.167892	-0.032964	-0.145885
27674	-0.655845	2.985268	9.236886	-0.318428	-0.526371	-0.102726	-0.974294	-0.168613	-0.030468	-0.146261
27675	-0.755547	3.149864	9.171027	-0.514578	-0.404598	-0.108486	-0.974308	-0.168989	-0.027798	-0.146265
27676	-0.721402	3.010591	8.926794	-0.512838	-0.449777	-0.388976	-0.974377	-0.169156	-0.025974	-0.145950
27677	-0.365205	2.973912	8.725869	-0.209765	-0.317486	-0.594580	-0.974485	-0.169366	-0.024874	-0.145174
27678	-0.006712	3.154738	8.803387	0.082159	-0.081678	-0.461826	-0.974537	-0.169712	-0.024600	-0.144465
27679	0.188151	3.406590	8.919930	0.215190	0.155559	-0.266227	-0.974530	-0.170159	-0.024832	-0.143947
27680	0.325705	3.424235	8.813071	0.340025	0.239189	-0.361294	-0.974520	-0.170644	-0.025281	-0.143360
27681	0.369666	3.272950	8.749187	0.428849	0.130540	-0.474800	-0.974492	-0.171064	-0.025916	-0.142938
27682	0.072297	3.341955	8.781026	0.142411	0.089179	-0.418430	-0.974432	-0.171505	-0.026475	-0.142711
27683	0.050452	3.175619	8.512933	0.148738	0.014785	-0.727823	-0.974303	-0.172149	-0.027093	-0.142705
27684	-0.024688	3.183191	8.642225	0.104972	-0.056191	-0.603608	-0.974062	-0.173084	-0.028039	-0.143034
27685	-0.270373	3.474492	8.692185	-0.184655	0.099047	-0.450246	-0.973752	-0.174202	-0.028898	-0.143614
27686	-0.847536	3.598277	8.891354	-0.729366	-0.045438	-0.211229	-0.973461	-0.175196	-0.029779	-0.144198
27687	-0.834960	3.526823	8.979190	-0.670306	-0.151523	-0.154055	-0.973232	-0.175957	-0.030647	-0.144637
27688	-0.981175	3.525771	8.831109	-0.810474	-0.157261	-0.289000	-0.973028	-0.176554	-0.031540	-0.145086
27689	-0.776517	3.422505	8.777935	-0.576301	-0.179363	-0.378476	-0.972837	-0.176987	-0.032524	-0.145623
27690	-0.560785	3.317384	8.617557	-0.343995	-0.160138	-0.569430	-0.972677	-0.177362	-0.033536	-0.146005
27691	-0.151483	3.400584	8.497826	0.027496	0.073235	-0.658791	-0.972523	-0.177644	-0.034652	-0.146428
27692	-0.159689	3.475640	8.598322	0.031938	0.100611	-0.537692	-0.972366	-0.177903	-0.035797	-0.146879
27693	-0.086431	3.661095	8.685275	0.080073	0.255700	-0.390731	-0.972223	-0.178112	-0.036656	-0.147360
27694	-0.307586	3.846584	8.626025	-0.176547	0.373004	-0.371882	-0.972137	-0.178179	-0.037296	-0.147687
27695	-0.393389	3.885773	8.607590	-0.263349	0.388997	-0.372140	-0.972127	-0.178127	-0.037624	-0.147728
27696	-0.286871	3.715652	8.393434	-0.141641	0.346797	-0.636753	-0.972198	-0.177860	-0.037661	-0.147577
27697	-0.353875	3.494506	8.071360	-0.189768	0.244799	-1.015659	-0.972311	-0.177615	-0.037516	-0.147164
27698	-0.481470	3.204243	7.874801	-0.261571	0.017727	-1.301357	-0.972424	-0.177589	-0.037223	-0.146520
27699	-0.697399	3.114152	7.871347	-0.448039	-0.127677	-1.331805	-0.972512	-0.177824	-0.036705	-0.145779
27700	-0.876631	3.162361	7.966337	-0.626775	-0.176565	-1.221558	-0.972575	-0.178283	-0.035971	-0.144977
27701	-0.982757	3.316036	8.227437	-0.746116	-0.170147	-0.920727	-0.972632	-0.178892	-0.034948	-0.144093
27702	-0.936872	3.580135	8.411525	-0.764412	0.003683	-0.654932	-0.972711	-0.179542	-0.033671	-0.143051
27703	-1.103471	3.481561	8.539830	-0.900539	-0.189050	-0.570347	-0.972842	-0.180178	-0.032200	-0.141697
27704	-0.934653	3.404139	8.754133	-0.712471	-0.294071	-0.405113	-0.973020	-0.180715	-0.030805	-0.140091
27705	-0.747453	3.572636	9.127202	-0.553047	-0.229353	-0.000974	-0.973217	-0.181095	-0.029335	-0.138542
27706	-1.011497	3.698346	9.374875	-0.832984	-0.284577	0.277619	-0.973447	-0.181305	-0.027827	-0.136949
27707	-0.995716	3.408432	9.685251	-0.733777	-0.650979	0.456231	-0.973715	-0.181413	-0.026305	-0.135194
27708	-1.030457	3.362307	10.014242	-0.746873	-0.819437	0.743004	-0.973987	-0.181499	-0.024716	-0.133401
27709	-0.993249	3.325691	10.412870	-0.690189	-0.985141	1.097293	-0.974245	-0.181609	-0.023037	-0.131657
27710	-1.107738	3.285982	10.955398	-0.770904	-1.245215	1.584703	-0.974517	-0.181576	-0.021180	-0.129992
27711	-1.131927	3.315349	11.358515	-0.805225	-1.365461	1.967618	-0.974849	-0.181271	-0.019080	-0.128246
27712	-1.002753	3.580014	12.108173	-0.725447	-1.346039	2.760756	-0.975298	-0.180233	-0.016901	-0.126587
27713	-0.317377	4.430441	12.979654	-0.232990	-0.655154	3.888283	-0.976077	-0.176715	-0.016053	-0.125649
27714	0.789090	5.317283	15.150363	0.837604	-0.088661	6.240568	-0.977853	-0.165267	-0.020389	-0.126787
27715	-3.638092	2.316083	9.993200	-3.119034	-1.962934	0.428254	-0.979395	-0.152951	-0.025151	-0.129458
27716	-3.956382	2.220556	8.776124	-3.479833	-1.576363	-0.701803	-0.980555	-0.145610	-0.027212	-0.128721
27717	-2.263310	2.169269	10.255416	-1.679830	-1.484521	0.674232	-0.981540	-0.141807	-0.027225	-0.125417
27718	-2.539613	0.995871	9.883940	-1.730843	-2.457781	-0.009798	-0.982424	-0.139190	-0.025891	-0.121653
27719	-2.428677	-0.094081	8.472824	-1.560557	-3.010771	-1.676621	-0.983079	-0.138508	-0.022834	-0.117686
27720	-1.925189	-0.070847	8.297936	-1.167693	-2.825587	-1.861652	-0.983244	-0.140664	-0.018195	-0.114518
27721	-0.971002	3.113329	7.980253	-1.023639	0.445870	-1.264395	-0.983782	-0.139560	-0.015433	-0.111618
27722	-1.886782	1.236587	7.566375	-1.567421	-1.357335	-2.194311	-0.984523	-0.136418	-0.015201	-0.108962
27723	-2.349281	0.817630	7.370082	-1.957042	-1.742183	-2.488736	-0.985253	-0.133660	-0.014843	-0.105790
27724	-2.398697	1.230454	7.430484	-2.098702	-1.327195	-2.308449	-0.985961	-0.131006	-0.014453	-0.102517
27725	-2.392975	1.108498	7.424669	-2.079470	-1.381247	-2.339506	-0.986705	-0.127944	-0.014445	-0.099173
27726	-2.896434	0.840803	7.482615	-2.524689	-1.686420	-2.338241	-0.987450	-0.124661	-0.014659	-0.095847
27727	-3.096121	0.608963	7.358767	-2.693381	-1.844035	-2.501529	-0.988241	-0.121346	-0.014867	-0.091834
27728	-2.810249	0.293269	7.525027	-2.356956	-2.059281	-2.409096	-0.989069	-0.118029	-0.015094	-0.087082
27729	-2.985997	0.048111	7.689348	-2.490421	-2.286858	-2.288587	-0.989921	-0.114684	-0.015683	-0.081601
27730	-3.297208	0.097809	7.703477	-2.814968	-2.213342	-2.236332	-0.990736	-0.111598	-0.016237	-0.075660
27731	-3.580355	0.089200	7.731117	-3.109455	-2.189248	-2.188060	-0.991502	-0.108994	-0.016005	-0.069195
27732	-4.054627	-0.108238	7.979044	-3.571323	-2.418550	-1.969706	-0.992221	-0.106826	-0.014916	-0.062152
27733	-3.856990	-0.101212	8.363421	-3.408010	-2.382863	-1.594420	-0.992930	-0.104912	-0.012836	-0.054023
27734	-3.492833	0.142518	9.007486	-3.109490	-2.152198	-0.921519	-0.993646	-0.102722	-0.010110	-0.044881
27735	-2.305009	0.409998	9.344072	-2.013354	-1.755417	-0.557609	-0.994384	-0.099709	-0.006944	-0.034789
27736	-1.237129	0.197684	9.390725	-1.007838	-1.796898	-0.565556	-0.995120	-0.095529	-0.004187	-0.024369
27737	-0.880945	0.118502	9.433734	-0.713048	-1.757789	-0.529057	-0.995826	-0.090221	-0.002194	-0.013654
27738	-1.118077	0.031801	9.175558	-1.004599	-1.674322	-0.777889	-0.996477	-0.083815	-0.000686	-0.002839
27739	-1.065296	-0.359000	8.766133	-1.005445	-1.844504	-1.228186	-0.997011	-0.076783	0.001022	0.008554
27740	-1.056233	-0.600335	8.455679	-1.062095	-1.887486	-1.549410	-0.997362	-0.069579	0.003197	0.020452
27741	-1.113708	-0.833044	7.943828	-1.200907	-1.895584	-2.066651	-0.997482	-0.062470	0.006296	0.032982
27742	-0.910734	-0.755937	7.765188	-1.078754	-1.672212	-2.214213	-0.997318	-0.055736	0.010562	0.046242
27743	0.562303	-0.396656	7.753886	0.324952	-1.340526	-2.151607	-0.996834	-0.049202	0.015488	0.060503
27744	2.046073	-0.380488	7.449467	1.715169	-1.404492	-2.402529	-0.996050	-0.042733	0.019800	0.075275
27745	3.099885	-0.580274	7.285842	2.649638	-1.720316	-2.529224	-0.994991	-0.036714	0.022673	0.090167
27746	3.413321	-0.847588	6.919734	2.853774	-2.014759	-2.881010	-0.993713	-0.031577	0.024326	0.104625
27747	2.937804	-0.715448	6.942396	2.356369	-1.804051	-2.846188	-0.992248	-0.027591	0.024995	0.118567
27748	2.437068	-0.630477	6.661049	1.859001	-1.602227	-3.128140	-0.990611	-0.024714	0.025545	0.132008
27749	2.491494	-0.715615	7.274858	1.807336	-1.751199	-2.511336	-0.988805	-0.022693	0.026893	0.145004
27750	2.484981	-0.375142	7.707522	1.817716	-1.472224	-2.050608	-0.986858	-0.021660	0.028438	0.157584
27751	2.096032	0.728873	8.081885	1.727889	-0.358955	-1.619592	-0.984731	-0.021403	0.029651	0.170196
27752	2.202569	1.648307	8.582820	2.086584	0.397580	-1.053644	-0.982387	-0.021343	0.031017	0.183023
27753	3.363131	1.738039	9.058864	3.155928	-0.026991	-0.515738	-0.979899	-0.021019	0.032142	0.195762
27754	4.540038	2.352615	9.245334	4.458363	-0.014940	-0.234341	-0.977453	-0.020492	0.031984	0.207708
27755	4.785126	2.946568	9.578030	4.924618	0.306917	0.135739	-0.975221	-0.019782	0.030420	0.218237
27756	3.844742	2.712526	9.707042	4.018251	0.406172	0.190037	-0.973274	-0.018561	0.028167	0.227154
27757	2.384012	2.017305	9.508241	2.475679	0.389151	-0.123578	-0.971521	-0.017308	0.025658	0.234922
27758	1.204405	1.523878	9.249586	1.270895	0.475803	-0.459299	-0.969827	-0.016414	0.023779	0.242077
27759	-0.108577	1.345786	9.158227	0.075319	0.930430	-0.602662	-0.967981	-0.016032	0.022745	0.249476
27760	-2.065849	1.175050	9.348786	-1.702035	1.732309	-0.477251	-0.965849	-0.016166	0.023395	0.257540
27761	-2.994386	1.457763	9.646098	-2.379438	2.467803	-0.200892	-0.963197	-0.016587	0.026697	0.266954
27762	-1.960328	2.175101	9.890079	-1.175592	2.589961	0.101808	-0.959996	-0.016895	0.032728	0.277579
27763	-0.833468	2.592804	10.463081	-0.109588	2.362063	0.737263	-0.956361	-0.017122	0.039315	0.289023
27764	1.085777	3.310426	10.618182	1.778853	1.902287	1.054685	-0.952549	-0.016997	0.046370	0.300352
27765	3.292871	3.860622	10.496234	3.805228	1.062504	1.155837	-0.948861	-0.016439	0.052547	0.310857
27766	3.856687	3.980282	10.469781	4.247030	0.776455	1.218730	-0.945548	-0.015727	0.056632	0.320131
27767	4.154881	3.847250	10.374805	4.361690	0.438779	1.163821	-0.942680	-0.014841	0.059076	0.328093
27768	3.337081	3.903664	10.006905	3.784311	0.947127	0.736941	-0.940254	-0.013949	0.060135	0.334831
27769	2.217272	3.523356	9.529898	2.746519	1.328074	0.129249	-0.938102	-0.013144	0.060776	0.340731
27770	1.242493	2.754785	9.153280	1.569285	1.343413	-0.397394	-0.936048	-0.012714	0.061450	0.346233
27771	0.408922	2.381689	9.318493	0.681142	1.591262	-0.342846	-0.933928	-0.012802	0.062563	0.351710
27772	0.941481	2.587114	9.330688	1.197239	1.382769	-0.257805	-0.931661	-0.013241	0.064651	0.357285
27773	1.395280	2.175653	9.505023	1.205716	0.755474	-0.065837	-0.929407	-0.014149	0.066703	0.362702
27774	1.044669	2.020626	9.973286	0.744505	0.855608	0.353636	-0.927240	-0.015670	0.068638	0.367791
27775	1.700507	2.684757	10.611593	1.535806	0.863413	1.123541	-0.925220	-0.017104	0.070652	0.372401
27776	1.905065	3.242505	11.024865	1.972807	1.090234	1.615787	-0.923548	-0.018167	0.071411	0.376338
27777	1.396820	3.543922	10.987234	1.825453	1.624307	1.556527	-0.922194	-0.018683	0.071041	0.379687
27778	1.220356	3.479631	10.589285	1.737478	1.673002	1.137754	-0.921125	-0.018576	0.070044	0.382463
27779	1.113632	3.470734	10.342987	1.728141	1.722615	0.878875	-0.920320	-0.018119	0.068546	0.384688
27780	0.799052	3.316010	10.160195	1.470387	1.825548	0.645282	-0.919704	-0.017270	0.066812	0.386500
27781	0.504712	2.990110	9.751095	1.140130	1.800161	0.174237	-0.919215	-0.016278	0.064905	0.388028
27782	0.229929	2.488100	9.696289	0.644475	1.647873	0.042797	-0.918779	-0.015125	0.063530	0.389333
27783	0.523170	2.266597	9.447579	0.756394	1.288785	-0.198390	-0.918390	-0.013969	0.062409	0.390473
27784	0.740368	2.276781	9.340833	0.957585	1.143369	-0.285951	-0.918147	-0.013212	0.061124	0.391275
27785	0.208104	2.294868	9.764382	0.582550	1.540244	0.083831	-0.918043	-0.012941	0.059594	0.391763
27786	-0.592476	2.365498	10.393945	0.040644	2.164610	0.641661	-0.918002	-0.012604	0.057910	0.392123
27787	-0.820810	2.392731	10.623942	-0.085835	2.346872	0.852758	-0.917891	-0.011864	0.056340	0.392634
27788	-0.943444	2.199480	10.865817	-0.294089	2.307495	1.067689	-0.917677	-0.010826	0.054691	0.393396
27789	-1.133502	1.639397	10.531645	-0.745501	2.064698	0.678693	-0.917254	-0.009536	0.053231	0.394615
27790	-1.050354	1.277934	10.266541	-0.880357	1.764923	0.397509	-0.916625	-0.008461	0.052022	0.396259
27791	-1.210815	0.911763	9.965652	-1.190892	1.637592	0.062108	-0.915767	-0.007713	0.051181	0.398360
27792	-0.830176	1.102925	10.038180	-0.780902	1.499977	0.177855	-0.914674	-0.007327	0.051095	0.400884
27793	-0.091566	2.170457	10.276217	0.484565	1.690199	0.542424	-0.913505	-0.007007	0.051212	0.403532
27794	0.229898	2.538869	10.584344	0.951718	1.706153	0.897602	-0.912492	-0.006601	0.051031	0.405846
27795	0.965524	2.430010	10.461083	1.390781	1.085901	0.824885	-0.911732	-0.005913	0.050541	0.407622
27796	0.862592	2.080092	10.313421	1.102843	0.925764	0.645043	-0.911220	-0.005259	0.049320	0.408922
27797	0.609602	1.665242	10.261950	0.658698	0.836361	0.546793	-0.910963	-0.004744	0.048420	0.409608
27798	0.741006	1.539386	10.416077	0.662622	0.655680	0.701322	-0.910815	-0.004304	0.047158	0.410090
27799	0.372541	1.294415	10.405641	0.265329	0.762828	0.648636	-0.910753	-0.004096	0.045875	0.410375
27800	-0.103687	1.088536	10.433061	-0.181989	0.974209	0.630597	-0.910717	-0.004159	0.044860	0.410567
27801	-0.382757	1.118982	10.902473	-0.371150	1.203156	1.081219	-0.910611	-0.004254	0.044459	0.410844
27802	-0.517795	1.391928	11.361309	-0.290686	1.491616	1.544050	-0.910391	-0.004046	0.044457	0.411333
27803	-0.012568	1.872675	11.948422	0.352975	1.455420	2.188519	-0.910071	-0.003028	0.044914	0.412000
27804	0.665695	1.670387	11.957650	0.654061	0.845533	2.232057	-0.909786	-0.001252	0.045163	0.412612
27805	0.743088	1.064191	11.355796	0.318575	0.416170	1.605014	-0.909583	0.000899	0.045196	0.413055
27806	1.217938	1.086565	11.064312	0.689896	0.112145	1.349492	-0.909497	0.003182	0.045363	0.413216
27807	1.600248	1.015385	10.899166	0.923095	-0.181456	1.209943	-0.909565	0.005506	0.045048	0.413076
27808	1.118538	0.744860	10.454764	0.469158	0.027855	0.717599	-0.909827	0.007708	0.044451	0.412528
27809	0.672815	0.701983	10.425106	0.176353	0.371144	0.649590	-0.910199	0.009906	0.043952	0.411713
27810	0.712919	0.504079	10.389163	0.083681	0.249820	0.609761	-0.910618	0.012264	0.043717	0.410747
27811	1.067683	0.286506	10.029781	0.202274	-0.132802	0.274920	-0.911102	0.014470	0.043768	0.409596
27812	0.834437	0.001190	10.061330	-0.151096	-0.106802	0.281483	-0.911667	0.016423	0.043953	0.408243
27813	0.792194	0.315403	10.382926	0.041532	0.192127	0.603330	-0.912211	0.018364	0.044643	0.406867
27814	1.244871	0.528016	10.471157	0.499925	0.048752	0.733457	-0.912760	0.020357	0.045236	0.405473
27815	0.761241	-0.021655	10.187288	-0.201158	0.061419	0.400855	-0.913304	0.022228	0.045417	0.404128
27816	0.414568	-0.014089	10.321554	-0.423096	0.365976	0.502034	-0.913764	0.024023	0.045456	0.402979
27817	0.069557	0.205007	10.208166	-0.470358	0.795432	0.355864	-0.914122	0.026048	0.045443	0.402041
27818	0.208463	-0.046453	9.907417	-0.525968	0.543670	0.068107	-0.914380	0.028532	0.045576	0.401270
27819	0.535688	-0.231734	9.369199	-0.391640	0.183202	-0.435298	-0.914540	0.031038	0.045809	0.400693
27820	0.966895	-0.488483	8.831292	-0.242029	-0.306618	-0.923791	-0.914698	0.033404	0.046079	0.400111
27821	1.203910	-0.565970	8.562672	-0.111383	-0.517729	-1.163495	-0.914891	0.035374	0.046430	0.399460
27822	1.442714	-0.177748	8.471977	0.347445	-0.405255	-1.233503	-0.915168	0.036875	0.046873	0.398636
27823	1.664803	-0.153352	8.720659	0.505490	-0.501143	-0.961797	-0.915575	0.038091	0.047309	0.397534
27824	2.052170	-0.073596	9.001728	0.816490	-0.679661	-0.641030	-0.916092	0.038969	0.047406	0.396244
27825	1.628303	-0.128329	9.545782	0.467633	-0.344532	-0.145610	-0.916692	0.039573	0.046924	0.394852
27826	0.264089	0.144605	10.569410	-0.311559	0.938110	0.714702	-0.917294	0.040550	0.046639	0.393386
27827	0.160261	-0.335404	10.670062	-0.722703	0.715871	0.815273	-0.917760	0.042207	0.046569	0.392131
27828	-0.136569	-0.764236	10.446336	-1.211683	0.643946	0.572190	-0.917987	0.044118	0.046779	0.391364
27829	0.338587	-0.897066	10.198092	-0.961336	0.226939	0.382636	-0.917896	0.046093	0.047672	0.391241
27830	0.488348	-1.287508	9.648771	-1.111418	-0.168412	-0.131199	-0.917556	0.047857	0.048423	0.391734
27831	0.379890	-1.099114	9.319286	-1.039738	0.039203	-0.478945	-0.916980	0.049277	0.049768	0.392736
27832	0.987208	-0.802387	9.081019	-0.415239	-0.186206	-0.654299	-0.916261	0.050232	0.051681	0.394045
27833	1.326844	-0.105784	9.645795	0.258029	0.145538	-0.080005	-0.915411	0.050986	0.054049	0.395603
27834	1.627838	0.493433	10.095071	0.833207	0.426198	0.381805	-0.914520	0.051974	0.056597	0.397176
27835	2.412856	0.534103	9.923767	1.369674	-0.101564	0.321503	-0.913826	0.052926	0.058685	0.398344
27836	2.742556	1.084337	10.436925	1.935511	0.133593	0.857955	-0.913423	0.054259	0.060188	0.398864
27837	2.330613	0.244228	9.661889	1.091059	-0.216202	0.066904	-0.913403	0.055205	0.059871	0.398827
27838	2.053077	0.828961	10.305233	1.297314	0.485104	0.636320	-0.913688	0.056003	0.060123	0.398024
27839	2.058065	0.963038	10.703013	1.383320	0.646466	1.021795	-0.914156	0.056988	0.059557	0.396893
27840	1.550747	0.796219	10.356876	0.961425	0.868154	0.609671	-0.914761	0.058002	0.058810	0.395462
27841	1.302412	0.547705	10.444953	0.628962	0.902762	0.669806	-0.915486	0.058769	0.057847	0.393808
27842	0.690445	0.407008	10.763668	0.113851	1.294310	0.902286	-0.916298	0.059236	0.056651	0.392020
27843	0.205449	0.488247	11.192140	-0.160970	1.754420	1.252603	-0.917149	0.059547	0.055433	0.390152
27844	-0.014548	0.625247	11.104611	-0.185444	1.989803	1.128509	-0.917954	0.059897	0.054249	0.388368
27845	-0.401315	1.102846	11.433905	-0.105667	2.638871	1.373762	-0.918684	0.060368	0.053066	0.386728
27846	-0.160385	1.067212	11.493495	0.057339	2.456723	1.466774	-0.919360	0.061196	0.051943	0.385141
27847	-0.199268	0.680542	11.204447	-0.200998	2.183014	1.198054	-0.920003	0.062262	0.050468	0.383628
27848	-0.177334	0.452604	11.034224	-0.305221	1.994111	1.046441	-0.920609	0.063362	0.049073	0.382174
27849	-0.252559	0.193207	11.157929	-0.515159	1.891809	1.176220	-0.921178	0.064358	0.047825	0.380790
27850	-0.339066	0.084490	11.333302	-0.632902	1.911214	1.345829	-0.921681	0.065364	0.046966	0.379507
27851	-0.025481	-0.155856	11.053466	-0.550328	1.497372	1.126190	-0.922110	0.066293	0.046544	0.378355
27852	0.238566	-0.304644	10.985609	-0.454907	1.214074	1.103007	-0.922485	0.067040	0.046545	0.377307
27853	0.458260	-0.169948	11.227879	-0.210962	1.206475	1.358887	-0.922825	0.067551	0.046776	0.376355
27854	0.899767	0.297730	11.526618	0.417490	1.290846	1.672979	-0.923212	0.067998	0.047122	0.375281
27855	0.773664	0.494962	11.503948	0.462343	1.528985	1.616782	-0.923629	0.068518	0.047415	0.374120
27856	0.986105	0.658786	11.645552	0.720327	1.537643	1.769283	-0.924098	0.069113	0.047706	0.372814
27857	0.752162	0.744825	11.530639	0.614080	1.759879	1.615429	-0.924629	0.069754	0.047956	0.371343
27858	0.773117	0.876108	11.932118	0.699724	1.921393	2.000834	-0.925178	0.070482	0.048452	0.369770
27859	0.622521	1.010339	11.813010	0.679824	2.127343	1.847832	-0.925756	0.071371	0.049050	0.368071
27860	0.485749	0.984335	11.516367	0.563918	2.183720	1.533892	-0.926316	0.072341	0.049806	0.366368
27861	0.224013	1.051000	11.489745	0.402751	2.435302	1.460111	-0.926824	0.073326	0.051048	0.364712
27862	0.660344	1.342519	11.212259	0.904867	2.346942	1.215732	-0.927259	0.074444	0.052761	0.363132
27863	1.293316	1.342810	11.019001	1.344658	1.935486	1.111586	-0.927705	0.075561	0.054633	0.361481
27864	1.705128	1.434241	10.961659	1.679282	1.762085	1.105066	-0.928250	0.076555	0.056406	0.359596
27865	1.685969	1.513339	11.080233	1.682646	1.894434	1.209284	-0.928982	0.077487	0.057927	0.357257
27866	1.919704	1.651359	11.255891	1.913105	1.917890	1.401983	-0.929930	0.078674	0.059210	0.354309
27867	1.549915	1.575480	11.409490	1.563306	2.179866	1.495047	-0.931051	0.080228	0.059871	0.350889
27868	1.161323	1.232566	11.099146	1.058392	2.173459	1.151553	-0.932175	0.082226	0.060272	0.347356
27869	0.806383	0.707754	10.568663	0.477301	1.962939	0.616439	-0.933193	0.084310	0.060618	0.344048
27870	0.342416	0.305792	10.107916	-0.113152	1.915457	0.122039	-0.934087	0.086259	0.061514	0.340964
27871	0.640359	-0.025170	9.676431	-0.090137	1.439838	-0.222976	-0.934831	0.088008	0.063042	0.338189
27872	1.280425	0.016700	9.789881	0.396790	1.136990	-0.013138	-0.935474	0.089366	0.064883	0.335697
27873	1.761609	0.345350	9.787071	0.950577	1.127751	0.027725	-0.936123	0.090371	0.066558	0.333282
27874	1.741622	0.138140	9.820786	0.780446	1.020927	0.079163	-0.936843	0.091146	0.067755	0.330797
27875	1.767352	0.177243	9.867972	0.808430	1.069477	0.123833	-0.937621	0.091695	0.068467	0.328284
27876	1.303079	0.475621	9.942012	0.622525	1.613227	0.075577	-0.938376	0.092124	0.068815	0.325927
27877	1.237407	-0.051514	9.230049	0.286643	1.112962	-0.571109	-0.939043	0.092516	0.069192	0.323807
27878	1.504685	-0.602795	9.135873	0.153889	0.515576	-0.549744	-0.939647	0.092547	0.069774	0.321917
27879	1.298402	0.121645	9.557593	0.396045	1.295208	-0.262097	-0.940219	0.092494	0.070684	0.320057
27880	1.652540	0.297661	9.571793	0.762079	1.239301	-0.204253	-0.940776	0.092808	0.071887	0.318056
27881	1.731372	-0.054211	9.535407	0.593871	0.929665	-0.184211	-0.941369	0.093364	0.072943	0.315891
27882	1.867324	-0.151396	9.376319	0.642871	0.762427	-0.303189	-0.941957	0.094051	0.073725	0.313746
27883	2.105547	-0.040384	9.087839	0.916504	0.672746	-0.553575	-0.942516	0.094806	0.074179	0.311727
27884	2.256761	-0.579148	8.731329	0.742779	0.104763	-0.807035	-0.943080	0.095560	0.074428	0.309722
27885	2.496582	-0.976188	8.397370	0.729330	-0.401782	-1.037249	-0.943699	0.096079	0.074530	0.307646
27886	2.587815	-0.732180	8.556248	0.941508	-0.213772	-0.895844	-0.944347	0.096333	0.074509	0.305576
27887	2.676251	-0.623802	8.782221	1.065433	-0.119791	-0.673248	-0.945035	0.096479	0.074406	0.303420
27888	2.427120	-0.612269	8.912842	0.870400	0.065555	-0.596255	-0.945769	0.096703	0.074113	0.301126
27889	2.391267	-0.987762	8.879571	0.638650	-0.213254	-0.588413	-0.946527	0.097171	0.073721	0.298681
27890	2.432905	-1.441841	8.892545	0.428061	-0.587425	-0.509627	-0.947310	0.097805	0.073102	0.296131
27891	2.148679	-1.865349	8.805071	-0.015436	-0.782444	-0.592433	-0.948100	0.098395	0.072368	0.293578
27892	1.931075	-1.910106	8.733495	-0.189572	-0.708772	-0.696046	-0.948829	0.098855	0.071761	0.291206
27893	1.805394	-1.883843	8.740086	-0.261330	-0.613243	-0.715817	-0.949449	0.099141	0.071526	0.289140
27894	2.109157	-2.054303	8.577995	-0.084788	-0.946533	-0.793398	-0.949963	0.099260	0.071595	0.287387
27895	2.629204	-1.993307	8.340759	0.400941	-1.224261	-0.936050	-0.950419	0.099001	0.071865	0.285898
27896	3.100943	-1.814231	8.100940	0.909448	-1.382925	-1.106774	-0.950873	0.098343	0.072215	0.284523
27897	3.384789	-1.680275	8.180728	1.209919	-1.413797	-0.995563	-0.951392	0.097326	0.072552	0.283051
27898	3.325736	-2.047870	8.356211	0.942337	-1.660213	-0.788485	-0.952026	0.096122	0.072800	0.281261
27899	3.033747	-1.979803	8.862939	0.694811	-1.360421	-0.360630	-0.952755	0.094818	0.072977	0.279180
27900	2.350626	-1.623118	9.408767	0.274057	-0.611126	-0.002679	-0.953480	0.093949	0.073078	0.276964
27901	2.169284	-1.661272	9.658728	0.082641	-0.502301	0.212157	-0.954109	0.093934	0.073263	0.274745
27902	1.627433	-2.032903	9.580451	-0.559225	-0.540172	0.084874	-0.954611	0.094817	0.073512	0.272622
27903	1.594871	-2.694458	9.077065	-0.889134	-1.158360	-0.322461	-0.954981	0.096277	0.074085	0.270653
27904	1.643250	-3.030430	8.724739	-0.991450	-1.509239	-0.607037	-0.955228	0.097848	0.074879	0.268995
27905	1.759027	-3.293498	8.358768	-0.999941	-1.836735	-0.899957	-0.955342	0.099336	0.075816	0.267779
27906	1.670645	-3.544404	7.887800	-1.169681	-2.080456	-1.334790	-0.955356	0.100393	0.076970	0.267007
27907	1.667086	-3.250013	7.862147	-1.030952	-1.819058	-1.399410	-0.955299	0.100892	0.078561	0.266559
27908	1.927447	-2.974077	8.022232	-0.706949	-1.667695	-1.231584	-0.955158	0.101024	0.080541	0.266422
27909	2.137466	-2.891157	8.215224	-0.537594	-1.648513	-1.014350	-0.954968	0.101012	0.082576	0.266484
27910	2.174083	-2.721011	8.372093	-0.467987	-1.478012	-0.878549	-0.954760	0.101102	0.084626	0.266553
27911	4.084213	-1.805135	8.145118	1.617830	-1.688003	-0.822947	-0.954612	0.101544	0.086547	0.266296
27912	3.341130	-1.933961	8.222010	0.908158	-1.394124	-0.883162	-0.954812	0.102576	0.086131	0.265319
27913	2.532524	-2.244265	7.567186	0.153626	-1.386889	-1.641668	-0.955153	0.104122	0.085520	0.263681
27914	3.370039	-2.487297	7.429354	0.781626	-2.006427	-1.560279	-0.955692	0.105786	0.084476	0.261391
27915	0.993604	-3.236943	7.723294	-1.617907	-1.399990	-1.655693	-0.956285	0.107377	0.083065	0.259017
27916	1.675779	-2.912790	7.874936	-0.856288	-1.399763	-1.409440	-0.956764	0.108797	0.082977	0.256673
27917	1.944615	-3.008772	8.144746	-0.685899	-1.525848	-1.073556	-0.957158	0.109816	0.082959	0.254770
27918	1.712724	-3.129772	8.332671	-0.954057	-1.459635	-0.917659	-0.957457	0.110554	0.083219	0.253234
27919	1.878863	-3.192099	8.192052	-0.823181	-1.613758	-1.006582	-0.957758	0.111019	0.083601	0.251765
27920	1.868271	-3.092245	8.734884	-0.836664	-1.382905	-0.499354	-0.958035	0.111490	0.084200	0.250297
27921	1.763885	-2.854789	9.003625	-0.837902	-1.053781	-0.298812	-0.958242	0.112220	0.084825	0.248965
27922	1.708457	-2.958796	9.044372	-0.944517	-1.087450	-0.252392	-0.958344	0.113321	0.085624	0.247798
27923	1.924922	-2.887217	9.052920	-0.728639	-1.096084	-0.207256	-0.958343	0.114739	0.086565	0.246820
27924	2.357427	-2.965930	8.812969	-0.374320	-1.386686	-0.327989	-0.958274	0.116416	0.087586	0.245941
27925	3.231705	-2.828686	8.478685	0.480137	-1.713844	-0.476437	-0.958250	0.118073	0.088509	0.244913
27926	3.707823	-2.542821	8.115405	1.074284	-1.743003	-0.763851	-0.958385	0.119567	0.088865	0.243525
27927	3.506632	-2.331779	7.804683	1.050135	-1.524221	-1.139705	-0.958704	0.120825	0.088647	0.241723
27928	2.943155	-2.202536	8.053814	0.616066	-1.073362	-1.046530	-0.959162	0.122012	0.088260	0.239441
27929	2.713610	-2.135295	8.244331	0.448925	-0.839727	-0.925315	-0.959675	0.123289	0.087979	0.236819
27930	2.619286	-2.156264	8.445829	0.356106	-0.736750	-0.747785	-0.960207	0.124626	0.087684	0.234058
27931	2.176182	-2.479207	8.502071	-0.170039	-0.783831	-0.728412	-0.960720	0.125920	0.087606	0.231273
27932	2.191245	-2.726962	8.845469	-0.294054	-0.886369	-0.346536	-0.961190	0.127170	0.087915	0.228501
27933	2.047177	-2.766222	9.277265	-0.476722	-0.715759	0.044844	-0.961611	0.128431	0.088454	0.225799
27934	1.735590	-2.875577	9.574815	-0.830789	-0.570324	0.283982	-0.961914	0.129912	0.089276	0.223324
27935	1.749758	-3.035294	9.578874	-0.891864	-0.678873	0.325019	-0.962063	0.131641	0.090229	0.221280
27936	1.771740	-3.415307	9.071770	-0.989323	-1.122566	-0.073009	-0.962068	0.133472	0.091345	0.219697
27937	2.304868	-3.526343	8.828854	-0.545698	-1.464379	-0.155883	-0.962012	0.135076	0.092633	0.218419
27938	3.157632	-2.998441	8.410173	0.487889	-1.430021	-0.463398	-0.962015	0.136446	0.093566	0.217150
27939	3.124044	-2.579463	7.873570	0.710924	-1.181912	-1.066031	-0.962199	0.137429	0.093414	0.215777
27940	2.095268	-2.464093	8.135413	-0.171441	-0.584737	-1.079103	-0.962454	0.138254	0.093065	0.214259
27941	1.926760	-2.508889	8.221212	-0.339157	-0.518600	-1.025694	-0.962683	0.139095	0.093003	0.212706
27942	2.030219	-2.957984	8.001678	-0.408396	-1.001764	-1.110505	-0.962867	0.139790	0.093229	0.211316
27943	1.956769	-3.271410	8.099676	-0.618327	-1.208752	-0.964387	-0.963040	0.140096	0.093638	0.210140
27944	1.641801	-2.994537	8.544744	-0.837733	-0.709348	-0.676472	-0.963191	0.140143	0.094324	0.209110
27945	1.758184	-2.803981	8.736280	-0.687118	-0.525399	-0.510650	-0.963283	0.140185	0.095480	0.208130
27946	2.177406	-2.640153	8.868061	-0.276986	-0.493981	-0.324103	-0.963327	0.140250	0.096880	0.207231
27947	2.216830	-2.759570	8.831881	-0.310361	-0.617205	-0.322989	-0.963361	0.140254	0.098339	0.206384
27948	2.403166	-2.890165	8.952220	-0.240509	-0.759348	-0.136119	-0.963417	0.140100	0.100159	0.205347
27949	2.899365	-2.934456	8.959789	0.154074	-0.974567	0.001668	-0.963559	0.139762	0.102146	0.203928
27950	3.197691	-3.127535	8.854715	0.324371	-1.284132	0.018813	-0.963853	0.139004	0.104179	0.202019
27951	2.540760	-2.764497	9.241288	-0.199147	-0.614721	0.141291	-0.964268	0.138057	0.106120	0.199666
27952	1.963107	-2.551832	9.229970	-0.661299	-0.229045	-0.062400	-0.964713	0.137331	0.108343	0.196804
27953	1.802503	-2.890413	8.965085	-0.937511	-0.553903	-0.284286	-0.965160	0.136867	0.110778	0.193549
27954	1.637154	-3.737612	8.135747	-1.322851	-1.500533	-0.933565	-0.965673	0.136194	0.113010	0.190145
27955	1.305229	-4.399437	7.319000	-1.767421	-2.237258	-1.658103	-0.966311	0.134623	0.115116	0.186728
27956	1.159497	-3.884680	7.280666	-1.708689	-1.774744	-1.851927	-0.967078	0.131785	0.117490	0.183272
27957	2.548959	-1.517595	8.360314	0.228747	0.172783	-0.946316	-0.967795	0.128526	0.120821	0.179602
27958	4.141355	-1.478221	7.698616	1.782495	-0.514181	-1.143032	-0.968697	0.126099	0.121050	0.176273
27959	1.966919	-3.280684	4.955444	-0.327591	-2.259402	-3.983836	-0.970062	0.122493	0.118368	0.173103
27960	2.121787	-2.055474	5.871211	0.125229	-0.996701	-3.317410	-0.971487	0.117801	0.116838	0.169363
27961	2.389089	-1.636420	6.010988	0.531894	-0.721321	-3.201051	-0.973115	0.112608	0.112846	0.166231
27962	0.640209	-1.964393	6.406950	-1.211452	-0.479753	-3.208211	-0.974694	0.107095	0.108724	0.163342
27963	0.251031	-1.398835	7.440413	-1.514363	0.310819	-2.397246	-0.976092	0.101791	0.105622	0.160395
27964	1.055953	-1.148219	7.852141	-0.718104	0.312464	-1.845529	-0.977298	0.097200	0.102892	0.157651
27965	1.545224	-1.578667	7.662583	-0.334052	-0.346438	-1.852604	-0.978384	0.093087	0.100129	0.155155
27966	1.637003	-2.285431	7.950367	-0.480568	-1.048142	-1.459174	-0.979416	0.089075	0.097618	0.152580
27967	2.048655	-2.362227	8.108336	-0.100539	-1.279539	-1.217675	-0.980449	0.084962	0.095011	0.149913
27968	2.552992	-2.414890	8.150303	0.395791	-1.535738	-1.079926	-0.981469	0.080724	0.092632	0.147043
27969	3.327504	-1.845958	8.188700	1.335659	-1.277707	-0.974278	-0.982502	0.076153	0.090148	0.144100
27970	3.964331	-1.519421	8.343949	2.063264	-1.191401	-0.759033	-0.983608	0.071258	0.086713	0.141132
27971	3.141146	-1.791199	8.335657	1.276806	-1.317532	-0.913756	-0.984766	0.066013	0.082320	0.138211
27972	2.537042	-1.466502	8.598855	0.834672	-0.906656	-0.812270	-0.985889	0.060611	0.077938	0.135183
27973	2.421055	-0.858268	8.914104	0.924041	-0.351466	-0.588764	-0.986938	0.055383	0.073550	0.132199
27974	1.922704	-0.922503	8.872114	0.511317	-0.388657	-0.710577	-0.987907	0.050250	0.068959	0.129455
27975	1.472698	-0.876438	9.208625	0.126340	-0.297889	-0.451613	-0.988751	0.044989	0.064668	0.127141
27976	0.613801	-0.538341	10.069173	-0.644592	0.213161	0.266629	-0.989472	0.039979	0.061363	0.124827
27977	0.815210	-0.073062	10.794874	-0.371292	0.570827	0.991695	-0.990032	0.035664	0.059631	0.122509
27978	2.530489	0.621105	11.331173	1.416049	0.788885	1.700638	-0.990494	0.032278	0.058529	0.120227
27979	3.576782	0.623492	10.978869	2.491428	0.464597	1.469789	-0.990967	0.029936	0.056313	0.117974
27980	3.375804	0.236398	10.560342	2.305490	0.072022	1.034051	-0.991511	0.028181	0.052799	0.115433
27981	3.012360	0.048372	10.427294	2.004033	-0.064742	0.854271	-0.992121	0.026746	0.048499	0.112373
27982	2.596017	-0.103015	10.301585	1.672251	-0.151769	0.677889	-0.992776	0.025403	0.043678	0.108825
27983	2.243141	-0.133987	10.115185	1.438983	-0.140243	0.447686	-0.993440	0.023998	0.038567	0.104947
27984	1.871610	-0.116765	9.824424	1.205231	-0.087864	0.115782	-0.994075	0.022376	0.033131	0.101077
27985	1.532854	-0.187554	9.567698	0.981864	-0.135165	-0.172034	-0.994655	0.020393	0.027394	0.097446
27986	0.941325	-0.252586	9.405200	0.507690	-0.135763	-0.371807	-0.995175	0.018016	0.021305	0.094070
27987	0.382256	0.006561	9.502683	0.116019	0.171014	-0.304633	-0.995629	0.015379	0.015188	0.090862
27988	0.235765	0.343194	9.802622	0.137392	0.473815	-0.013706	-0.996020	0.012605	0.009182	0.087753
27989	0.067093	0.766032	10.277222	0.151919	0.863575	0.455825	-0.996364	0.009974	0.003219	0.084556
27990	0.045612	0.944149	10.620015	0.277841	0.985891	0.799926	-0.996665	0.007736	-0.002941	0.081180
27991	0.147019	0.742840	10.747996	0.473764	0.719049	0.927409	-0.996917	0.005884	-0.009525	0.077658
27992	-0.053345	0.603917	10.768547	0.394791	0.566232	0.950709	-0.997106	0.004250	-0.016638	0.074059
27993	-0.544200	0.345156	10.769652	0.023535	0.338373	0.970790	-0.997216	0.002804	-0.024189	0.070484
27994	-1.212542	-0.010752	10.827913	-0.522282	0.032423	1.070223	-0.997242	0.001307	-0.031920	0.066985
27995	-1.741506	0.138594	10.848270	-0.860622	0.199644	1.139667	-0.997187	-0.000252	-0.039437	0.063739
27996	-1.838891	0.296503	10.838988	-0.779878	0.317137	1.152809	-0.997050	-0.001785	-0.046655	0.060914
27997	-1.879440	0.154820	10.758299	-0.694377	0.133657	1.086633	-0.996843	-0.003341	-0.053582	0.058495
27998	-2.234209	0.102052	10.826708	-0.897391	0.070327	1.205820	-0.996580	-0.005047	-0.060189	0.056399
27999	-2.883442	0.297138	10.781021	-1.385762	0.284323	1.261162	-0.996308	-0.006850	-0.066091	0.054366
28000	-3.034355	0.275689	10.737196	-1.426893	0.225422	1.254502	-0.996062	-0.008711	-0.070960	0.052426
28001	-3.142543	0.280586	10.810087	-1.426992	0.184443	1.356067	-0.995838	-0.010608	-0.074942	0.050781
28002	-2.802130	0.534367	10.811969	-0.988393	0.352183	1.319905	-0.995632	-0.012384	-0.078166	0.049543
28003	-2.246657	0.938050	10.870862	-0.326450	0.655453	1.303355	-0.995423	-0.013792	-0.081139	0.048570
28004	-1.880857	1.194592	10.635177	0.082884	0.856712	1.019231	-0.995202	-0.014667	-0.084261	0.047510
28005	-1.311014	1.103035	10.292607	0.639015	0.711556	0.577603	-0.994965	-0.015102	-0.087633	0.046228
28006	-0.819138	1.169605	9.993244	1.147153	0.739568	0.189334	-0.994666	-0.015219	-0.091803	0.044505
28007	-1.034850	1.067550	9.601799	0.941604	0.672932	-0.165674	-0.994270	-0.015040	-0.096991	0.042355
28008	-1.478811	0.820062	9.359545	0.539196	0.472499	-0.328725	-0.993803	-0.014858	-0.102679	0.039900
28009	-2.258463	0.986514	9.697779	-0.028246	0.676461	0.170367	-0.993310	-0.014638	-0.108341	0.037195
28010	-3.037023	1.191533	9.712023	-0.660611	0.929847	0.368902	-0.992837	-0.014122	-0.113572	0.034313
28011	-3.585968	1.055663	9.522805	-1.154218	0.838149	0.317568	-0.992427	-0.013182	-0.117988	0.031525
28012	-3.799644	0.787125	9.385061	-1.337686	0.593944	0.236875	-0.992115	-0.012018	-0.121368	0.028854
28013	-3.904973	0.429501	8.929740	-1.520220	0.270220	-0.179969	-0.991910	-0.010734	-0.123708	0.026365
28014	-3.628748	0.006291	8.786740	-1.277253	-0.151282	-0.393542	-0.991790	-0.009633	-0.125204	0.024160
28015	-3.303264	0.053635	8.761717	-0.940460	-0.109872	-0.496813	-0.991682	-0.008780	-0.126458	0.022305
28016	-3.314733	0.240966	8.564920	-0.969895	0.090981	-0.677352	-0.991566	-0.008039	-0.127679	0.020759
28017	-3.415008	0.251515	8.561698	-1.046553	0.111435	-0.651875	-0.991462	-0.007405	-0.128712	0.019540
28018	-3.137935	0.411970	8.616526	-0.739847	0.265877	-0.667045	-0.991356	-0.006824	-0.129693	0.018633
28019	-3.096873	0.422618	8.451277	-0.723357	0.287740	-0.835649	-0.991204	-0.006154	-0.130967	0.018004
28020	-3.221442	0.339986	8.406085	-0.835498	0.219905	-0.845577	-0.991043	-0.005474	-0.132272	0.017522
28021	-2.923210	0.309261	8.525028	-0.495406	0.185102	-0.810623	-0.990898	-0.004902	-0.133443	0.017058
28022	-2.848109	0.497544	8.743573	-0.335205	0.373329	-0.617169	-0.990750	-0.004334	-0.134634	0.016440
28023	-3.042992	0.732064	8.797710	-0.480409	0.621375	-0.507931	-0.990644	-0.003630	-0.135529	0.015610
28024	-3.159870	0.559936	8.623221	-0.636157	0.466719	-0.645588	-0.990615	-0.002850	-0.135867	0.014641
28025	-3.098201	0.451349	8.635633	-0.575600	0.366891	-0.652404	-0.990643	-0.002051	-0.135773	0.013697
28026	-2.948892	0.269257	8.476726	-0.485115	0.194898	-0.848870	-0.990689	-0.001265	-0.135529	0.012870
28027	-3.029546	0.089915	8.395192	-0.594853	0.028709	-0.907026	-0.990733	-0.000662	-0.135278	0.012188
28028	-2.882896	0.124825	8.556680	-0.411947	0.064172	-0.792176	-0.990757	-0.000290	-0.135140	0.011709
28029	-2.930867	0.095062	8.594298	-0.447786	0.039151	-0.743016	-0.990731	-0.000048	-0.135358	0.011379
28030	-3.046575	0.165302	8.618427	-0.544622	0.113820	-0.687083	-0.990675	0.000053	-0.135778	0.011256
28031	-3.136031	0.162619	8.741078	-0.587770	0.112356	-0.543951	-0.990599	0.000073	-0.136327	0.011310
28032	-3.184777	0.255595	8.843614	-0.592981	0.204817	-0.430574	-0.990515	-0.000006	-0.136915	0.011552
28033	-3.346332	0.436608	8.820081	-0.738473	0.389605	-0.406028	-0.990426	-0.000085	-0.137520	0.011998
28034	-3.305923	0.288551	8.778443	-0.705845	0.241151	-0.457631	-0.990370	-0.000223	-0.137875	0.012576
28035	-2.909645	0.430387	8.961997	-0.266817	0.368088	-0.391330	-0.990366	-0.000556	-0.137845	0.013163
28036	-2.650069	0.518072	9.137200	0.032748	0.441898	-0.295159	-0.990379	-0.000845	-0.137710	0.013582
28037	-2.411522	0.511145	9.241719	0.286413	0.423162	-0.261511	-0.990422	-0.001038	-0.137381	0.013736
28038	-2.110707	0.478560	9.405786	0.614006	0.378059	-0.188085	-0.990465	-0.001033	-0.137093	0.013566
28039	-2.145958	0.312707	9.407659	0.573117	0.214951	-0.177735	-0.990465	-0.000816	-0.137136	0.013139
28040	-2.178712	0.183716	9.400567	0.539849	0.091418	-0.176745	-0.990421	-0.000483	-0.137503	0.012578
28041	-2.175271	0.068579	9.296513	0.521372	-0.015935	-0.279086	-0.990329	-0.000052	-0.138230	0.011907
28042	-2.461927	-0.086664	9.218028	0.236651	-0.156014	-0.275378	-0.990205	0.000455	-0.139184	0.011077
28043	-2.553163	-0.297656	9.073666	0.121767	-0.356046	-0.389470	-0.990080	0.000914	-0.140130	0.010214
28044	-2.556525	-0.328338	9.071140	0.136625	-0.381121	-0.391156	-0.989943	0.001287	-0.141151	0.009361
28045	-2.687551	-0.243969	8.938638	-0.004027	-0.288941	-0.480048	-0.989786	0.001569	-0.142292	0.008594
28046	-2.693029	-0.448756	8.905322	-0.001670	-0.491748	-0.511252	-0.989641	0.001688	-0.143337	0.007865
28047	-2.854175	-0.518471	9.039057	-0.098078	-0.562333	-0.336728	-0.989502	0.001568	-0.144332	0.007129
28048	-3.124963	-0.336950	9.198531	-0.288634	-0.384945	-0.103909	-0.989384	0.001262	-0.145180	0.006414
28049	-3.307520	-0.162674	9.414674	-0.382679	-0.219048	0.157659	-0.989310	0.000934	-0.145712	0.005779
28050	-3.270077	0.022730	9.499133	-0.312083	-0.042817	0.228638	-0.989289	0.000686	-0.145876	0.005266
28051	-3.085282	0.101740	9.444848	-0.147919	0.030760	0.122686	-0.989275	0.000689	-0.145984	0.004792
28052	-3.226190	-0.101516	9.336214	-0.313325	-0.169424	0.059324	-0.989237	0.000891	-0.146253	0.004422
28053	-3.211739	-0.277142	9.242519	-0.323981	-0.341372	-0.035431	-0.989199	0.001094	-0.146514	0.004157
28054	-3.495416	-0.442110	9.045021	-0.649588	-0.499268	-0.140327	-0.989155	0.001255	-0.146817	0.004038
28055	-3.583956	-0.768313	8.803798	-0.805041	-0.821315	-0.345943	-0.989129	0.001189	-0.146986	0.004230
28056	-3.661194	-0.987655	8.785171	-0.886355	-1.043351	-0.342480	-0.989134	0.000703	-0.146939	0.004741
28057	-3.530583	-1.003218	9.053144	-0.688114	-1.073780	-0.127423	-0.989190	-0.000267	-0.146536	0.005556
28058	-3.286447	-0.737257	9.301101	-0.388795	-0.832484	0.036704	-0.989261	-0.001617	-0.146007	0.006539
28059	-2.913411	-0.488017	9.813160	0.109136	-0.621447	0.416000	-0.989350	-0.003151	-0.145329	0.007473
28060	-2.452679	0.039136	10.388689	0.715959	-0.140099	0.836713	-0.989409	-0.004521	-0.144860	0.008110
28061	-2.198637	0.287948	10.632482	1.030385	0.076393	0.999298	-0.989399	-0.005382	-0.144879	0.008398
28062	-2.249880	0.032948	10.650942	0.989791	-0.191081	1.026564	-0.989288	-0.005709	-0.145626	0.008336
28063	-2.727680	-0.352139	10.652471	0.548161	-0.573646	1.160450	-0.989100	-0.005766	-0.146911	0.008055
28064	-3.350919	-0.513763	10.646149	-0.020717	-0.727472	1.336455	-0.988884	-0.005718	-0.148377	0.007755
28065	-4.244758	-0.822666	10.556764	-0.873973	-1.021203	1.515739	-0.988686	-0.005580	-0.149706	0.007528
28066	-4.658541	-0.945894	10.440008	-1.283232	-1.135199	1.529936	-0.988589	-0.005573	-0.150345	0.007591
28067	-4.353745	-0.624609	10.363898	-1.002748	-0.814646	1.371519	-0.988584	-0.005559	-0.150353	0.008027
28068	-3.897963	-0.601562	10.278234	-0.597249	-0.792140	1.151522	-0.988609	-0.005471	-0.150150	0.008752
28069	-3.523613	-0.130531	10.058034	-0.304614	-0.315947	0.836458	-0.988664	-0.005327	-0.149741	0.009615
28070	-3.140357	0.381682	9.621399	-0.068237	0.208375	0.313060	-0.988719	-0.004947	-0.149330	0.010523
28071	-2.768310	0.316236	9.108494	0.123317	0.160009	-0.289695	-0.988750	-0.004358	-0.149083	0.011373
28072	-2.249931	0.254592	8.675616	0.482728	0.108920	-0.860122	-0.988748	-0.003864	-0.149059	0.012019
28073	-2.078100	0.465794	8.448520	0.588082	0.329289	-1.125992	-0.988672	-0.003531	-0.149535	0.012408
28074	-2.188816	0.507419	8.233164	0.432340	0.383140	-1.298016	-0.988507	-0.003308	-0.150611	0.012638
28075	-2.628297	0.259117	8.140341	0.000535	0.150295	-1.255959	-0.988279	-0.003222	-0.152082	0.012846
28076	-3.090511	0.211760	8.038927	-0.444278	0.115550	-1.209802	-0.988017	-0.003430	-0.153752	0.013058
28077	-3.541495	0.401055	8.041763	-0.838657	0.311608	-1.062117	-0.987785	-0.003798	-0.155202	0.013346
28078	-3.781913	0.375438	7.836176	-1.108464	0.291809	-1.179287	-0.987587	-0.004181	-0.156408	0.013852
28079	-3.967438	0.008708	7.720483	-1.314045	-0.071363	-1.232789	-0.987425	-0.004686	-0.157336	0.014669
28080	-3.989166	-0.030496	7.693006	-1.332150	-0.115598	-1.250636	-0.987317	-0.005532	-0.157878	0.015764
28081	-3.988371	0.108871	7.815135	-1.281879	0.010816	-1.132138	-0.987269	-0.006599	-0.158000	0.017082
28082	-3.840011	0.119038	7.870699	-1.124749	0.003654	-1.126913	-0.987281	-0.007691	-0.157712	0.018547
28083	-3.651239	0.089900	7.756330	-0.990660	-0.040206	-1.296983	-0.987320	-0.008947	-0.157204	0.020152
28084	-3.507770	-0.054973	7.756637	-0.871373	-0.204583	-1.346773	-0.987364	-0.010370	-0.156604	0.021888
28085	-3.295848	-0.182253	7.783794	-0.680997	-0.359885	-1.393070	-0.987416	-0.012185	-0.155876	0.023762
28086	-3.187899	-0.087838	8.011327	-0.516173	-0.305274	-1.210823	-0.987453	-0.014315	-0.155160	0.025650
28087	-3.173834	-0.240598	8.173278	-0.475412	-0.496054	-1.068467	-0.987474	-0.016575	-0.154485	0.027484
28088	-3.027859	-0.463990	8.408199	-0.292167	-0.773294	-0.902157	-0.987468	-0.019107	-0.153910	0.029231
28089	-3.049719	-0.444104	8.778226	-0.208358	-0.814120	-0.547219	-0.987404	-0.021743	-0.153655	0.030833
28090	-3.373482	-0.531132	9.060762	-0.439362	-0.945314	-0.186002	-0.987274	-0.024416	-0.153791	0.032278
28091	-3.780118	-0.573875	9.455418	-0.705967	-1.038224	0.308926	-0.987111	-0.027063	-0.154102	0.033631
28092	-4.168254	-0.626883	9.730830	-0.990453	-1.134302	0.684388	-0.986933	-0.029551	-0.154452	0.035125
28093	-4.433302	-0.713032	9.980566	-1.171002	-1.265090	0.994831	-0.986774	-0.031846	-0.154614	0.036848
28094	-4.509615	-0.620501	10.152313	-1.186699	-1.218216	1.182708	-0.986653	-0.033826	-0.154511	0.038713
28095	-4.491190	-0.619998	10.313854	-1.128610	-1.260599	1.325887	-0.986560	-0.035417	-0.154236	0.040689
28096	-4.473170	-0.663285	10.334490	-1.121361	-1.325335	1.333473	-0.986486	-0.036611	-0.153878	0.042744
28097	-4.712897	-0.659912	10.136951	-1.421944	-1.294853	1.219360	-0.986419	-0.037496	-0.153475	0.044912
28098	-4.777535	-0.502842	10.258492	-1.448054	-1.148146	1.363144	-0.986436	-0.038083	-0.152595	0.046990
28099	-4.574928	-0.446180	10.279529	-1.270989	-1.104970	1.321104	-0.986522	-0.038295	-0.151340	0.049035
28100	-4.456226	-0.434052	10.101876	-1.241151	-1.072794	1.114472	-0.986630	-0.038127	-0.150066	0.050864
28101	-4.851412	-0.225328	9.886266	-1.684288	-0.788350	1.043960	-0.986734	-0.037570	-0.148872	0.052740
28102	-5.015670	-0.559041	9.531806	-2.012189	-1.037265	0.732444	-0.986871	-0.036521	-0.147546	0.054611
28103	-4.985515	-1.020609	9.324605	-2.131652	-1.438018	0.494262	-0.987014	-0.035337	-0.146077	0.056710
28104	-5.067393	-1.135832	9.060676	-2.332802	-1.476680	0.259137	-0.987137	-0.034092	-0.144649	0.058954
28105	-5.134053	-1.291101	8.745561	-2.539139	-1.548545	-0.031849	-0.987225	-0.032858	-0.143208	0.061626
28106	-5.364708	-1.591942	8.536330	-2.892432	-1.754772	-0.182650	-0.987286	-0.031820	-0.141672	0.064667
28107	-5.690929	-1.730394	8.415380	-3.296916	-1.792915	-0.215033	-0.987349	-0.030999	-0.139731	0.068240
28108	-5.602631	-1.469698	8.301909	-3.257084	-1.484629	-0.343899	-0.987441	-0.030256	-0.137228	0.072205
28109	-5.450436	-1.383849	8.052913	-3.224755	-1.341624	-0.632703	-0.987516	-0.029444	-0.134398	0.076695
28110	-5.301101	-1.518068	7.711480	-3.258110	-1.405023	-1.021608	-0.987567	-0.028667	-0.131237	0.081645
28111	-4.989433	-1.644841	7.695528	-3.057785	-1.514392	-1.142227	-0.987572	-0.028110	-0.127658	0.087263
28112	-4.375943	-1.345326	7.884951	-2.448719	-1.280393	-1.123912	-0.987518	-0.027779	-0.123798	0.093328
28113	-3.543807	-0.865915	8.096828	-1.588269	-0.925240	-1.124320	-0.987368	-0.027320	-0.120071	0.099705
28114	-2.931565	-0.811594	8.060331	-1.070383	-0.939612	-1.316062	-0.987120	-0.026591	-0.116894	0.105941
28115	-2.732099	-0.884273	8.018452	-0.961454	-1.003835	-1.409745	-0.986765	-0.025705	-0.114353	0.112056
28116	-2.834649	-0.879691	8.157277	-1.073700	-0.945170	-1.250928	-0.986375	-0.024629	-0.111986	0.117970
28117	-2.883815	-1.254457	8.027595	-1.284708	-1.237208	-1.377595	-0.985917	-0.023412	-0.109751	0.123996
28118	-2.969267	-1.679035	7.884068	-1.551587	-1.563468	-1.509559	-0.985397	-0.022300	-0.107472	0.130175
28119	-3.103536	-2.036476	7.760728	-1.854060	-1.810259	-1.609460	-0.984786	-0.021517	-0.104867	0.136882
28120	-3.344183	-2.118879	7.487986	-2.225256	-1.747411	-1.829127	-0.984072	-0.021218	-0.101660	0.144285
28121	-3.787479	-2.295641	7.333717	-2.804764	-1.718087	-1.902015	-0.983227	-0.021517	-0.097339	0.152732
28122	-3.586825	-2.103195	7.309906	-2.667972	-1.525722	-1.984788	-0.982223	-0.022399	-0.091541	0.162345
28123	-2.896938	-1.736563	7.319767	-2.033152	-1.334397	-2.126943	-0.980997	-0.023758	-0.084253	0.173153
28124	-1.599679	-1.204411	7.514625	-0.763316	-1.242997	-2.174005	-0.979507	-0.025330	-0.075980	0.184801
28125	-0.118834	-0.110492	7.635269	0.869857	-0.755073	-2.263173	-0.977761	-0.026901	-0.067469	0.196745
28126	0.953275	0.571121	7.586074	1.974628	-0.550736	-2.424891	-0.975823	-0.028098	-0.059614	0.208390
28127	1.147956	0.795201	7.627227	2.129381	-0.459794	-2.371057	-0.973753	-0.028959	-0.052335	0.219610
28128	1.466716	1.135783	7.790214	2.466783	-0.333323	-2.201418	-0.971622	-0.029417	-0.045187	0.230313
28129	2.005542	1.331708	7.773831	2.926446	-0.428898	-2.231202	-0.969425	-0.029535	-0.038306	0.240572
28130	2.248823	1.266096	7.576034	2.994834	-0.615357	-2.416219	-0.967205	-0.029538	-0.031778	0.250264
28131	2.249015	0.957058	7.413670	2.735604	-0.901853	-2.557439	-0.964951	-0.029674	-0.025447	0.259504
28132	2.478585	0.697127	7.388307	2.697186	-1.267401	-2.578450	-0.962704	-0.030094	-0.019138	0.268196
28133	3.239875	0.785351	7.803391	3.290996	-1.653492	-2.168056	-0.960475	-0.030856	-0.013122	0.276341
28134	4.646241	1.751060	8.123315	4.890800	-1.662141	-1.815312	-0.958360	-0.031635	-0.008294	0.283684
28135	5.086609	2.370733	8.240327	5.520368	-1.460945	-1.640331	-0.956482	-0.032193	-0.005991	0.289949
28136	4.235088	2.293340	8.345585	4.734963	-1.124283	-1.496436	-0.954907	-0.032416	-0.005861	0.295073
28137	3.201028	2.084958	8.278859	3.761784	-0.752525	-1.541308	-0.953583	-0.032190	-0.006559	0.299332
28138	2.045081	1.928857	8.136865	2.737865	-0.235311	-1.654251	-0.952438	-0.031605	-0.007539	0.302994
28139	0.701672	1.743774	8.027862	1.553960	0.387762	-1.724766	-0.951298	-0.030693	-0.008214	0.306632
28140	-0.215072	1.230849	7.719215	0.525116	0.536263	-2.029104	-0.949992	-0.029562	-0.007946	0.310771
28141	-0.666800	0.628537	7.692635	-0.196608	0.339937	-2.075631	-0.948423	-0.028415	-0.006404	0.315666
28142	-0.225496	0.777510	7.851103	0.222006	0.207907	-1.925828	-0.946529	-0.027689	-0.003481	0.321411
28143	1.135964	1.524598	8.054493	1.712601	-0.029909	-1.716049	-0.944437	-0.027223	0.000049	0.327563
28144	2.021514	1.995158	8.030620	2.652148	-0.212076	-1.720780	-0.942382	-0.026827	0.003186	0.333446
28145	2.680077	2.136051	8.183312	3.202782	-0.539270	-1.556583	-0.940502	-0.026416	0.006086	0.338706
28146	3.425555	2.275615	8.514072	3.814100	-0.944265	-1.212507	-0.938971	-0.026207	0.008059	0.342902
28147	3.243911	2.394507	8.627655	3.724682	-0.766014	-1.081538	-0.937804	-0.026262	0.008330	0.346071
28148	2.506023	2.312770	8.375078	3.120185	-0.361995	-1.333047	-0.936948	-0.026760	0.007429	0.348363
28149	1.441424	2.179272	8.455091	2.238326	0.195377	-1.253068	-0.936370	-0.027965	0.005941	0.349848
28150	-0.171700	2.488498	9.488067	1.202733	1.384929	-0.175219	-0.936015	-0.029564	0.005027	0.350681
28151	-1.164275	2.602277	10.082381	0.507986	2.055934	0.448737	-0.935734	-0.030605	0.005487	0.351335
28152	-0.926229	1.986408	10.036792	0.263640	1.432006	0.356909	-0.935471	-0.031034	0.006938	0.351970
28153	-0.382831	1.036977	9.709054	0.027297	0.386609	-0.048606	-0.935147	-0.031559	0.008807	0.352741
28154	-0.674910	0.833668	9.734621	-0.364345	0.422178	-0.035048	-0.934651	-0.032735	0.010532	0.353900
28155	-1.185812	1.004964	10.215634	-0.695818	0.841942	0.462626	-0.933889	-0.034515	0.012323	0.355679
28156	-1.454549	1.398917	10.522280	-0.694218	1.268436	0.803336	-0.932814	-0.036770	0.014160	0.358198
