// General information: 
//  MT Manager version: 2021.0.0 
//  XDA version: 2021.0.0 build 5908 rev 109668 built on 2021-04-19
// Device information: 
//  DeviceId: 00B47ACA
//  ProductCode: MTW2-3A7G6
//  Firmware Version: 4.4.0
//  Hardware Version: 2.0.0
// Device settings: 
//  Filter Profile: human(46.1)
//  Option Flags: Orientation Smoother Disabled, Position/Velocity Smoother Disabled, Continuous Zero Rotation Update Disabled, AHS Disabled, ICC Disabled
// Coordinate system: ENU
PacketCounter	Acc_X	Acc_Y	Acc_Z	FreeAcc_E	FreeAcc_N	FreeAcc_U	Quat_q0	Quat_q1	Quat_q2	Quat_q3
26986	0.020540	0.152687	9.878798	-0.018489	0.076540	0.066998	0.999999	-0.000232	0.000071	0.001159
26987	-0.000221	0.133973	9.890249	-0.039198	0.057701	0.078223	0.999999	-0.000224	0.000084	0.001160
26988	0.044745	0.121148	9.873941	0.006108	0.045078	0.061993	0.999999	-0.000232	0.000096	0.001181
26989	0.018355	0.121677	9.906735	-0.020478	0.045277	0.094688	0.999999	-0.000221	0.000077	0.001199
26990	0.062230	0.139586	9.862513	0.023396	0.063449	0.050778	0.999999	-0.000216	0.000083	0.001211
26991	0.022030	0.102309	9.885394	-0.016863	0.025897	0.073213	0.999999	-0.000218	0.000071	0.001217
26992	0.018020	0.163351	9.829551	-0.020883	0.087274	0.017827	0.999999	-0.000210	0.000075	0.001237
26993	-0.007067	0.133355	9.890255	-0.046044	0.056667	0.078199	0.999999	-0.000207	0.000081	0.001251
26994	-0.002458	0.114006	9.868910	-0.041260	0.037427	0.056724	0.999999	-0.000206	0.000079	0.001264
26995	0.015957	0.132332	9.857486	-0.022842	0.055997	0.045515	0.999999	-0.000216	0.000082	0.001276
26996	0.016214	0.101535	9.885413	-0.022534	0.025007	0.073204	0.999999	-0.000211	0.000087	0.001286
26997	0.009322	0.120746	9.906760	-0.029598	0.043892	0.094671	0.999999	-0.000199	0.000078	0.001314
26998	0.026395	0.169910	9.867419	-0.012643	0.093221	0.055781	0.999999	-0.000194	0.000073	0.001337
26999	0.032608	0.119999	9.874002	-0.006395	0.043260	0.062001	0.999999	-0.000195	0.000071	0.001353
27000	0.050979	0.138443	9.862594	0.012032	0.061788	0.050809	0.999999	-0.000192	0.000079	0.001374
27001	0.064801	0.145498	9.900456	0.025941	0.068625	0.088778	0.999999	-0.000196	0.000098	0.001382
27002	0.054306	0.118876	9.841269	0.015720	0.042429	0.029345	0.999999	-0.000194	0.000075	0.001415
27003	0.053501	0.118691	9.841276	0.014587	0.042289	0.029348	0.999999	-0.000198	0.000065	0.001433
27004	0.067484	0.125709	9.879143	0.028494	0.049097	0.067322	0.999999	-0.000200	0.000084	0.001441
27005	0.087364	0.113652	9.895670	0.048355	0.036921	0.083834	0.999999	-0.000192	0.000067	0.001471
27006	0.051671	0.087710	9.869218	0.012663	0.010987	0.057041	0.999999	-0.000193	0.000066	0.001476
27007	0.050557	0.087507	9.869225	0.011531	0.010846	0.057043	0.999999	-0.000195	0.000065	0.001473
27008	0.041974	0.137021	9.862656	0.002956	0.060451	0.050824	0.999999	-0.000203	0.000079	0.001472
27009	0.026989	0.099027	9.852715	-0.011718	0.022527	0.040529	0.999999	-0.000196	0.000082	0.001463
27010	0.074321	0.162630	9.889149	0.035208	0.085880	0.077643	0.999999	-0.000195	0.000070	0.001468
27011	0.038626	0.136616	9.862675	-0.000457	0.059975	0.050827	0.999999	-0.000194	0.000067	0.001473
27012	0.097595	0.161701	9.856448	0.058461	0.085304	0.045027	0.999999	-0.000201	0.000070	0.001481
27013	0.036296	0.136215	9.862690	-0.002727	0.059627	0.050829	0.999999	-0.000194	0.000073	0.001472
27014	0.048728	0.174022	9.872654	0.009642	0.097222	0.061137	0.999999	-0.000187	0.000078	0.001473
27015	0.020348	0.098213	9.852739	-0.018491	0.021495	0.040521	0.999999	-0.000192	0.000069	0.001471
27016	0.059883	0.104706	9.857911	0.020905	0.028082	0.045899	0.999999	-0.000191	0.000068	0.001466
27017	0.031792	0.135717	9.862712	-0.007264	0.058947	0.050831	0.999999	-0.000187	0.000072	0.001469
27018	0.011040	0.117019	9.874086	-0.027905	0.039951	0.061978	0.999999	-0.000179	0.000077	0.001468
27019	0.004034	0.136044	9.895425	-0.035090	0.058806	0.083437	0.999999	-0.000185	0.000069	0.001448
27020	0.020803	0.185033	9.856150	-0.018179	0.108212	0.044611	0.999999	-0.000187	0.000089	0.001458
27021	0.046489	0.153821	9.851373	0.007733	0.077077	0.039691	0.999999	-0.000180	0.000082	0.001459
27022	0.039636	0.172979	9.872713	0.000547	0.095878	0.061154	0.999999	-0.000173	0.000068	0.001459
27023	0.019136	0.154192	9.884076	-0.020105	0.076924	0.072290	0.999999	-0.000175	0.000067	0.001456
27024	0.043443	0.153438	9.851393	0.004357	0.076547	0.039698	0.999999	-0.000181	0.000069	0.001456
27025	0.022577	0.134499	9.862754	-0.016286	0.057588	0.050828	0.999999	-0.000186	0.000089	0.001445
27026	0.021490	0.134350	9.862759	-0.017412	0.057396	0.050827	0.999999	-0.000179	0.000065	0.001457
27027	0.000925	0.115580	9.874109	-0.038050	0.038427	0.061950	0.999999	-0.000178	0.000081	0.001442
27028	0.020689	0.103560	9.890679	-0.018180	0.026257	0.078504	0.999999	-0.000174	0.000078	0.001445
27029	0.017870	0.133963	9.862771	-0.020817	0.056904	0.050824	0.999999	-0.000179	0.000098	0.001434
27030	0.037549	0.121801	9.879351	-0.000955	0.044754	0.067384	0.999999	-0.000185	0.000100	0.001433
27031	0.055934	0.140289	9.868022	0.017401	0.063445	0.056271	0.999999	-0.000183	0.000096	0.001438
27032	0.008174	0.152568	9.884116	-0.030339	0.075354	0.072276	0.999999	-0.000176	0.000111	0.001429
27033	0.053228	0.140103	9.868039	0.015131	0.063110	0.056277	0.999999	-0.000177	0.000129	0.001426
27034	0.053559	0.109351	9.895959	0.015504	0.032133	0.083956	0.999999	-0.000177	0.000117	0.001432
27035	0.010476	0.132891	9.862796	-0.027630	0.055883	0.050813	0.999999	-0.000183	0.000118	0.001421
27036	0.030398	0.120833	9.879387	-0.007771	0.043738	0.067386	0.999999	-0.000178	0.000114	0.001422
27037	0.009892	0.102100	9.890711	-0.028392	0.024737	0.078484	0.999999	-0.000167	0.000105	0.001431
27038	0.047711	0.139414	9.868077	0.009439	0.062269	0.056289	0.999999	-0.000174	0.000117	0.001422
27039	0.054133	0.089432	9.874667	0.015974	0.012354	0.062512	0.999999	-0.000176	0.000105	0.001429
27040	0.026077	0.120276	9.879406	-0.012324	0.043068	0.067384	0.999999	-0.000175	0.000103	0.001423
27041	0.071528	0.107814	9.863371	0.033181	0.030888	0.051428	0.999999	-0.000176	0.000100	0.001439
27042	0.037234	0.157815	9.889436	-0.001291	0.080592	0.077750	0.999999	-0.000177	0.000109	0.001428
27043	0.036041	0.157666	9.889443	-0.002435	0.080448	0.077751	0.999999	-0.000175	0.000106	0.001433
27044	0.062068	0.126600	9.884726	0.023613	0.049370	0.072892	0.999999	-0.000167	0.000100	0.001414
27045	0.033819	0.157501	9.889454	-0.004714	0.080115	0.077753	0.999999	-0.000169	0.000108	0.001402
27046	0.038666	0.138165	9.868135	0.000341	0.060959	0.056302	0.999999	-0.000169	0.000107	0.001398
27047	0.018096	0.119261	9.879437	-0.020264	0.041928	0.067376	0.999999	-0.000169	0.000104	0.001384
27048	0.036523	0.137761	9.868148	-0.001930	0.060615	0.056304	0.999999	-0.000177	0.000098	0.001383
27049	0.035406	0.137556	9.868155	-0.003069	0.060470	0.056304	0.999999	-0.000172	0.000102	0.001386
27050	0.034300	0.137374	9.868162	-0.004207	0.060278	0.056305	0.999999	-0.000179	0.000095	0.001375
27051	0.073571	0.144093	9.873503	0.035112	0.067136	0.061851	0.999999	-0.000178	0.000111	0.001361
27052	0.052825	0.125023	9.884799	0.014530	0.048048	0.072916	0.999999	-0.000193	0.000109	0.001348
27053	0.044122	0.174530	9.878229	0.005618	0.097663	0.066697	0.999999	-0.000184	0.000101	0.001337
27054	0.035832	0.117440	9.846864	-0.002514	0.040635	0.034858	0.999999	-0.000180	0.000098	0.001319
27055	0.049584	0.124643	9.884821	0.011107	0.047561	0.072923	0.999999	-0.000179	0.000104	0.001314
27056	0.048389	0.124485	9.884829	0.009952	0.047368	0.072925	0.999999	-0.000179	0.000103	0.001289
27057	0.026152	0.136107	9.868204	-0.012184	0.059106	0.056306	0.999999	-0.000181	0.000110	0.001295
27058	0.025037	0.135914	9.868210	-0.013311	0.058908	0.056305	0.999999	-0.000182	0.000101	0.001262
27059	0.023923	0.135734	9.868215	-0.014450	0.058763	0.056305	0.999999	-0.000182	0.000108	0.001238
27060	0.036125	0.173477	9.878280	-0.002396	0.096446	0.066710	0.999999	-0.000183	0.000098	0.001255
27061	0.048894	0.104449	9.863545	0.010564	0.027606	0.051487	0.999999	-0.000183	0.000105	0.001232
27062	0.020441	0.135238	9.868230	-0.017853	0.058231	0.056302	0.999999	-0.000180	0.000111	0.001225
27063	0.038709	0.153916	9.856979	0.000449	0.077024	0.045269	0.999999	-0.000179	0.000108	0.001211
27064	0.039219	0.123195	9.884886	0.000869	0.046028	0.072937	0.999999	-0.000176	0.000105	0.001194
27065	0.051261	0.160914	9.894964	0.012870	0.083772	0.083354	0.999999	-0.000184	0.000117	0.001186
27066	0.042968	0.103672	9.863581	0.004897	0.026753	0.051494	0.999999	-0.000178	0.000112	0.001178
27067	0.008544	0.153643	9.889568	-0.029849	0.076340	0.077739	0.999999	-0.000172	0.000106	0.001160
27068	0.054020	0.141453	9.873668	0.015750	0.064317	0.061920	0.999999	-0.000174	0.000115	0.001158
27069	-0.014968	0.165093	9.872916	-0.053133	0.087843	0.061086	0.999999	-0.000173	0.000122	0.001153
27070	0.036685	0.133742	9.835707	-0.001209	0.056896	0.023833	0.999999	-0.000176	0.000122	0.001141
27071	0.030958	0.122027	9.884930	-0.007103	0.044883	0.072939	0.999999	-0.000181	0.000121	0.001149
27072	0.028165	0.152467	9.857038	-0.009794	0.075494	0.045276	0.999999	-0.000175	0.000127	0.001132
27073	0.047877	0.140681	9.873711	0.010063	0.063516	0.061932	0.999999	-0.000168	0.000140	0.001114
27074	0.052885	0.121365	9.852404	0.015259	0.044406	0.040494	0.999999	-0.000179	0.000134	0.001128
27075	0.026220	0.121415	9.884951	-0.011646	0.044216	0.072938	0.999999	-0.000173	0.000128	0.001110
27076	0.023471	0.151948	9.857058	-0.014355	0.074829	0.045275	0.999999	-0.000168	0.000133	0.001123
27077	0.023817	0.121214	9.884959	-0.013914	0.043879	0.072937	0.999999	-0.000171	0.000142	0.001111
27078	0.041980	0.139977	9.873747	0.004375	0.062673	0.061942	0.999999	-0.000161	0.000145	0.001102
27079	0.019783	0.151592	9.857072	-0.017761	0.074345	0.045273	0.999999	-0.000166	0.000145	0.001110
27080	0.020234	0.120860	9.884972	-0.017296	0.043345	0.072934	0.999999	-0.000159	0.000150	0.001113
27081	0.011165	0.170387	9.878393	-0.026405	0.092924	0.066709	0.999999	-0.000166	0.000150	0.001132
27082	0.016305	0.151237	9.857083	-0.021149	0.073806	0.045271	0.999999	-0.000146	0.000149	0.001126
27083	0.023024	0.101394	9.863671	-0.014304	0.023935	0.051492	0.999999	-0.000164	0.000155	0.001123
27084	0.014020	0.150900	9.857092	-0.023433	0.073460	0.045268	0.999999	-0.000148	0.000145	0.001118
27085	0.040337	0.120094	9.852479	0.002829	0.042602	0.040513	0.999999	-0.000146	0.000141	0.001123
27086	0.032941	0.138985	9.873796	-0.004722	0.061324	0.061950	0.999999	-0.000152	0.000142	0.001121
27087	0.017008	0.131422	9.835792	-0.020442	0.054058	0.023828	0.999999	-0.000147	0.000146	0.001124
27088	0.032212	0.108079	9.901702	-0.005394	0.030181	0.089609	0.999999	-0.000149	0.000145	0.001132
27089	0.029394	0.138521	9.873814	-0.008132	0.060844	0.061951	0.999999	-0.000145	0.000150	0.001116
27090	0.049135	0.126648	9.890527	0.011724	0.048879	0.078645	0.999999	-0.000151	0.000161	0.001126
27091	0.033125	0.119063	9.852518	-0.003974	0.041609	0.040517	0.999999	-0.000149	0.000166	0.001141
27092	0.072560	0.126106	9.858054	0.035286	0.048675	0.046257	0.999999	-0.000151	0.000146	0.001148
27093	0.045828	0.126079	9.890550	0.008313	0.048405	0.078651	0.999999	-0.000153	0.000154	0.001136
27094	0.030056	0.118558	9.852534	-0.007353	0.041075	0.040517	0.999999	-0.000146	0.000140	0.001137
27095	0.043728	0.125906	9.890562	0.006049	0.048065	0.078654	0.999999	-0.000142	0.000144	0.001140
27096	0.042557	0.125768	9.890569	0.004925	0.047871	0.078655	0.999999	-0.000144	0.000144	0.001147
27097	0.047743	0.106573	9.869269	0.010256	0.028830	0.057225	0.999999	-0.000136	0.000147	0.001139
27098	0.019286	0.137364	9.873855	-0.018350	0.059287	0.061946	0.999999	-0.000123	0.000138	0.001145
27099	0.039338	0.125548	9.890585	0.001505	0.047386	0.078659	0.999999	-0.000134	0.000131	0.001147
27100	0.038147	0.125374	9.890592	0.000368	0.047201	0.078660	0.999999	-0.000124	0.000143	0.001148
27101	0.022213	0.117820	9.852564	-0.015275	0.039913	0.040513	0.999999	-0.000132	0.000144	0.001149
27102	-0.004640	0.117753	9.885029	-0.042277	0.039557	0.072874	0.999999	-0.000129	0.000140	0.001154
27103	0.045783	0.117327	9.820115	0.008333	0.039762	0.008151	0.999999	-0.000131	0.000138	0.001152
27104	0.033606	0.124732	9.890616	-0.004182	0.046533	0.078662	0.999999	-0.000126	0.000134	0.001154
27105	0.017855	0.117290	9.852579	-0.019803	0.039237	0.040508	0.999999	-0.000116	0.000135	0.001154
27106	0.010335	0.136117	9.873885	-0.027456	0.057934	0.061933	0.999999	-0.000134	0.000133	0.001151
27107	0.048044	0.173800	9.851599	0.010133	0.095947	0.040090	0.999999	-0.000121	0.000123	0.001149
27108	0.035705	0.105268	9.869334	-0.002212	0.026982	0.057236	0.999999	-0.000109	0.000124	0.001178
27109	-0.020434	0.166548	9.878444	-0.058405	0.088050	0.066617	0.999999	-0.000118	0.000135	0.001169
27110	0.046130	0.143018	9.879508	0.008350	0.064616	0.067749	0.999999	-0.000107	0.000138	0.001179
27111	0.023949	0.154548	9.862762	-0.013785	0.076192	0.051010	0.999999	-0.000111	0.000137	0.001187
27112	0.037462	0.161807	9.900821	-0.000477	0.083156	0.089177	0.999999	-0.000107	0.000133	0.001190
27113	0.002480	0.135178	9.873903	-0.035414	0.056748	0.061915	0.999999	-0.000118	0.000125	0.001212
27114	0.048201	0.123262	9.858239	0.010355	0.045070	0.046332	0.999999	-0.000110	0.000129	0.001213
27115	-0.019133	0.115871	9.885034	-0.057043	0.037295	0.072809	0.999999	-0.000114	0.000127	0.001241
27116	0.020171	0.123056	9.890674	-0.017851	0.044497	0.078656	0.999999	-0.000110	0.000123	0.001243
27117	-0.002027	0.134533	9.873912	-0.039984	0.056050	0.061901	0.999999	-0.000111	0.000130	0.001250
27118	0.017743	0.122780	9.890682	-0.020137	0.044148	0.078653	0.999999	-0.000106	0.000134	0.001261
27119	0.010061	0.141583	9.911983	-0.027865	0.062868	0.100073	0.999999	-0.000119	0.000138	0.001284
27120	-0.031572	0.133897	9.906328	-0.069346	0.055243	0.094199	0.999999	-0.000121	0.000146	0.001300
27121	-0.006969	0.133589	9.873923	-0.044549	0.055348	0.061886	0.999999	-0.000127	0.000145	0.001339
27122	0.013127	0.121897	9.890700	-0.024694	0.043459	0.078646	0.999999	-0.000112	0.000125	0.001374
27123	-0.002560	0.114341	9.852629	-0.040215	0.036131	0.040457	0.999999	-0.000121	0.000146	0.001405
27124	0.010886	0.121570	9.890707	-0.026958	0.043114	0.078642	0.999999	-0.000116	0.000122	0.001428
27125	0.048557	0.159502	9.868508	0.010569	0.081242	0.056889	0.999999	-0.000110	0.000134	0.001460
27126	0.055536	0.109838	9.875105	0.017715	0.031377	0.063119	0.999999	-0.000102	0.000127	0.001489
27127	0.072055	0.159320	9.836134	0.034246	0.081196	0.024606	0.999999	-0.000105	0.000136	0.001507
27128	0.100137	0.097838	9.859526	0.062407	0.019669	0.047616	0.999999	-0.000110	0.000126	0.001535
27129	0.079683	0.078779	9.870629	0.041949	0.000383	0.058488	0.999999	-0.000095	0.000134	0.001552
27130	0.078662	0.078717	9.870637	0.040824	0.000210	0.058493	0.999999	-0.000100	0.000115	0.001572
27131	0.079160	0.047748	9.898531	0.041365	-0.030744	0.086141	0.999999	-0.000117	0.000140	0.001588
27132	0.095548	0.097203	9.859578	0.057881	0.019047	0.047645	0.999999	-0.000101	0.000129	0.001584
27133	0.079818	0.165871	9.874287	0.041747	0.087425	0.062840	0.999999	-0.000102	0.000126	0.001600
27134	0.059311	0.146719	9.885376	0.021282	0.068068	0.073698	0.999999	-0.000098	0.000132	0.001593
27135	0.056435	0.177150	9.857505	0.018463	0.098744	0.046059	0.999999	-0.000102	0.000131	0.001602
27136	0.056930	0.146379	9.885395	0.018997	0.067737	0.073705	0.999999	-0.000099	0.000136	0.001596
27137	0.041288	0.138797	9.847305	0.003549	0.060393	0.035497	0.999999	-0.000098	0.000133	0.001582
27138	0.041906	0.108050	9.875192	0.004108	0.029385	0.063140	0.999999	-0.000097	0.000131	0.001597
27139	0.051819	0.176396	9.857544	0.013902	0.098082	0.046073	0.999999	-0.000114	0.000137	0.001594
27140	0.039649	0.107548	9.875207	0.001839	0.029043	0.063142	0.999999	-0.000098	0.000126	0.001590
27141	0.078961	0.114968	9.880969	0.041001	0.036460	0.069114	0.999999	-0.000103	0.000126	0.001579
27142	0.016489	0.118829	9.858398	-0.021416	0.040337	0.046334	0.999999	-0.000103	0.000124	0.001576
27143	0.055705	0.126082	9.864170	0.017742	0.047762	0.052314	0.999999	-0.000111	0.000125	0.001577
27144	0.014255	0.118368	9.858407	-0.023680	0.039996	0.046331	0.999999	-0.000108	0.000122	0.001562
27145	0.019349	0.175193	9.889933	-0.018975	0.096713	0.078325	0.999999	-0.000122	0.000116	0.001576
27146	0.011520	0.193967	9.911225	-0.026851	0.115346	0.099734	0.999999	-0.000116	0.000131	0.001549
27147	0.015124	0.205581	9.862065	-0.022960	0.127187	0.050685	0.999999	-0.000102	0.000130	0.001557
27148	0.022397	0.155894	9.868660	-0.015658	0.077340	0.056914	0.999999	-0.000105	0.000120	0.001535
27149	0.023072	0.125041	9.896542	-0.015100	0.046373	0.084551	0.999999	-0.000110	0.000119	0.001544
27150	0.020200	0.155345	9.868674	-0.017946	0.076996	0.056913	0.999999	-0.000119	0.000122	0.001535
27151	0.027442	0.105544	9.875270	-0.010623	0.027205	0.063141	0.999999	-0.000111	0.000114	0.001537
27152	0.026423	0.105489	9.875273	-0.011758	0.027010	0.063141	0.999999	-0.000107	0.000110	0.001540
27153	0.037950	0.143491	9.885529	-0.000381	0.064912	0.073742	0.999999	-0.000104	0.000115	0.001524
27154	-0.023014	0.116543	9.890746	-0.061068	0.037850	0.078512	0.999999	-0.000121	0.000131	0.001541
27155	0.048014	0.181026	9.895803	0.009841	0.102629	0.084351	0.999999	-0.000114	0.000125	0.001524
27156	0.019868	0.135382	9.847420	-0.017991	0.057146	0.035501	0.999999	-0.000109	0.000130	0.001536
27157	0.052313	0.161921	9.874536	0.014346	0.083473	0.062952	0.999999	-0.000102	0.000133	0.001528
27158	0.038506	0.123673	9.864282	0.000732	0.045221	0.052342	0.999999	-0.000107	0.000134	0.001527
27159	0.028908	0.173073	9.857697	-0.008924	0.094710	0.046112	0.999999	-0.000106	0.000140	0.001523
27160	0.050449	0.130757	9.902435	0.012654	0.052128	0.090595	0.999999	-0.000112	0.000141	0.001524
27161	0.015606	0.103916	9.875313	-0.021930	0.025492	0.063127	0.999999	-0.000113	0.000148	0.001531
27162	0.021050	0.084808	9.854038	-0.016236	0.006477	0.041723	0.999999	-0.000105	0.000152	0.001531
27163	0.025571	0.141709	9.885594	-0.011750	0.063201	0.073746	0.999999	-0.000116	0.000174	0.001525
27164	0.045493	0.130038	9.902469	0.008113	0.051441	0.090603	0.999999	-0.000107	0.000148	0.001524
27165	0.023430	0.141438	9.885603	-0.014017	0.062854	0.073746	0.999999	-0.000108	0.000165	0.001522
27166	0.028871	0.122302	9.864332	-0.008312	0.043864	0.052344	0.999999	-0.000105	0.000161	0.001527
27167	0.067983	0.129776	9.870221	0.030799	0.051440	0.058439	0.999999	-0.000109	0.000170	0.001526
27168	0.061867	0.117888	9.919376	0.024550	0.039216	0.107474	0.999999	-0.000115	0.000162	0.001515
27169	0.078389	0.167449	9.880528	0.040932	0.089177	0.069083	0.999999	-0.000111	0.000156	0.001509
27170	0.037065	0.159725	9.874641	-0.000446	0.081249	0.062981	0.999999	-0.000104	0.000151	0.001501
27171	0.056816	0.148116	9.891533	0.019399	0.069565	0.079854	0.999999	-0.000109	0.000169	0.001510
27172	0.043153	0.109742	9.881250	0.005901	0.031286	0.069215	0.999999	-0.000112	0.000152	0.001479
27173	0.029579	0.071508	9.870961	-0.007604	-0.006941	0.058572	0.999999	-0.000102	0.000162	0.001470
27174	0.000502	0.101881	9.875346	-0.036614	0.023191	0.063089	0.999999	-0.000102	0.000169	0.001457
27175	0.031107	0.159043	9.874673	-0.006149	0.080426	0.062985	0.999999	-0.000098	0.000164	0.001451
27176	0.010816	0.139820	9.885648	-0.026529	0.060936	0.073732	0.999999	-0.000092	0.000158	0.001445
27177	0.056755	0.128553	9.870308	0.019459	0.049785	0.058476	0.999999	-0.000082	0.000160	0.001426
27178	0.008581	0.139556	9.885654	-0.028808	0.060596	0.073728	0.999999	-0.000101	0.000158	0.001424
27179	0.047858	0.147122	9.891595	0.010276	0.068243	0.079877	0.999999	-0.000082	0.000145	0.001400
27180	0.065872	0.166232	9.880640	0.028372	0.087368	0.069143	0.999999	-0.000091	0.000167	0.001392
27181	0.058903	0.108910	9.849073	0.021839	0.030351	0.037093	0.999999	-0.000087	0.000161	0.001386
27182	0.044175	0.146759	9.891617	0.006856	0.067720	0.079883	0.999999	-0.000083	0.000167	0.001381
27183	0.002641	0.138848	9.885667	-0.034503	0.059756	0.073715	0.999999	-0.000085	0.000175	0.001369
27184	0.027508	0.138908	9.853451	-0.009470	0.060089	0.041594	0.999999	-0.000081	0.000171	0.001351
27185	0.028340	0.108019	9.881323	-0.008849	0.029115	0.069219	0.999999	-0.000096	0.000156	0.001355
27186	0.025430	0.138380	9.853464	-0.011740	0.059746	0.041593	0.999999	-0.000090	0.000170	0.001329
27187	0.026001	0.107725	9.881332	-0.011114	0.028772	0.069218	0.999999	-0.000083	0.000164	0.001312
27188	0.023147	0.138203	9.853473	-0.014001	0.059413	0.041593	0.999999	-0.000086	0.000164	0.001302
27189	0.062337	0.145884	9.859462	0.025067	0.067124	0.047790	0.999999	-0.000079	0.000156	0.001304
27190	0.033414	0.176123	9.863808	-0.004011	0.097175	0.052270	0.999999	-0.000081	0.000157	0.001291
27191	0.034026	0.145353	9.891678	-0.003386	0.066201	0.079895	0.999999	-0.000078	0.000161	0.001276
27192	0.004908	0.175606	9.896016	-0.032505	0.096254	0.084367	0.999999	-0.000074	0.000166	0.001271
27193	-0.001819	0.118235	9.864424	-0.038891	0.039224	0.052291	0.999999	-0.000086	0.000168	0.001264
27194	-0.002794	0.118076	9.864426	-0.040020	0.039031	0.052287	0.999999	-0.000073	0.000150	0.001264
27195	0.036276	0.125766	9.870440	-0.000962	0.046775	0.058510	0.999999	-0.000084	0.000172	0.001257
27196	0.013682	0.136961	9.853508	-0.023066	0.058049	0.041584	0.999999	-0.000075	0.000195	0.001230
27197	0.012416	0.136806	9.853511	-0.024203	0.057901	0.041582	0.999999	-0.000083	0.000186	0.001241
27198	0.072578	0.133114	9.876490	0.035828	0.054152	0.064753	0.999999	-0.000076	0.000190	0.001223
27199	0.005009	0.124854	9.902639	-0.031717	0.045473	0.090585	0.999999	-0.000075	0.000195	0.001219
27200	0.082456	0.171037	9.886860	0.045736	0.091958	0.075462	0.999999	-0.000078	0.000195	0.001208
27201	0.028890	0.124699	9.870478	-0.007760	0.045757	0.058512	0.999999	-0.000086	0.000186	0.001218
27202	0.020791	0.143451	9.891743	-0.015928	0.064317	0.079895	0.999999	-0.000080	0.000200	0.001193
27203	0.024671	0.155084	9.842628	-0.011819	0.076252	0.030891	0.999999	-0.000073	0.000193	0.001176
27204	0.018451	0.143348	9.891749	-0.018219	0.063975	0.079894	0.999999	-0.000069	0.000198	0.001189
27205	0.024139	0.124304	9.870496	-0.012310	0.045082	0.058510	0.999999	-0.000068	0.000203	0.001185
27206	-0.024186	0.135140	9.885690	-0.060679	0.055669	0.073612	0.999999	-0.000070	0.000201	0.001192
27207	0.021755	0.123892	9.870507	-0.014587	0.044741	0.058509	0.999999	-0.000075	0.000210	0.001191
27208	0.039781	0.143013	9.859621	0.003480	0.063948	0.047843	0.999999	-0.000068	0.000205	0.001184
27209	-0.008455	0.153847	9.874800	-0.044898	0.074563	0.062931	0.999999	-0.000073	0.000205	0.001175
27210	0.044494	0.123786	9.838379	0.008286	0.044890	0.026465	0.999999	-0.000067	0.000208	0.001179
27211	0.057587	0.131236	9.876614	0.021051	0.052064	0.064806	0.999999	-0.000072	0.000188	0.001188
27212	0.014442	0.153666	9.842671	-0.022065	0.074714	0.030885	0.999999	-0.000074	0.000205	0.001196
27213	0.029055	0.130475	9.908764	-0.007510	0.051054	0.096844	0.999999	-0.000072	0.000200	0.001201
27214	0.024250	0.191621	9.853055	-0.012261	0.112521	0.041611	0.999999	-0.000065	0.000204	0.001203
27215	0.026794	0.130310	9.908772	-0.009788	0.050709	0.096843	0.999999	-0.000064	0.000199	0.001208
27216	0.050047	0.161157	9.848798	0.013560	0.082044	0.037205	0.999999	-0.000063	0.000198	0.001205
27217	0.031695	0.111007	9.887531	-0.004937	0.031637	0.075466	0.999999	-0.000071	0.000188	0.001216
27218	0.051636	0.099522	9.904526	0.014911	0.020048	0.092441	0.999999	-0.000064	0.000192	0.001218
27219	0.041532	0.148909	9.897929	0.004831	0.069464	0.086204	0.999999	-0.000069	0.000200	0.001218
27220	0.054110	0.110790	9.855440	0.017961	0.031825	0.043456	0.999999	-0.000077	0.000222	0.001210
27221	0.003793	0.152131	9.842704	-0.032272	0.073183	0.030869	0.999999	-0.000070	0.000214	0.001212
27222	0.070965	0.129823	9.844600	0.034855	0.050942	0.032831	0.999999	-0.000072	0.000213	0.001220
27223	0.022606	0.140572	9.859710	-0.013567	0.061455	0.047850	0.999999	-0.000067	0.000216	0.001224
27224	0.002328	0.121192	9.870564	-0.033850	0.041803	0.058474	0.999999	-0.000060	0.000211	0.001216
27225	0.048428	0.110262	9.855475	0.012307	0.031018	0.043467	0.999999	-0.000056	0.000214	0.001220
27226	0.019329	0.140342	9.859720	-0.016958	0.060917	0.047848	0.999999	-0.000055	0.000202	0.001226
27227	0.039219	0.128974	9.876733	0.002884	0.049398	0.064842	0.999999	-0.000047	0.000214	0.001229
27228	0.018857	0.109591	9.887580	-0.017403	0.029741	0.075458	0.999999	-0.000043	0.000209	0.001233
27229	0.015903	0.139999	9.859731	-0.020372	0.060429	0.047844	0.999999	-0.000051	0.000209	0.001234
27230	0.035783	0.128446	9.876753	-0.000521	0.048870	0.064845	0.999999	-0.000054	0.000209	0.001223
27231	0.053818	0.147550	9.865927	0.017484	0.068201	0.054239	0.999999	-0.000059	0.000207	0.001232
27232	0.054576	0.116889	9.893786	0.018191	0.037188	0.081853	0.999999	-0.000043	0.000206	0.001240
27233	0.044525	0.166354	9.887183	0.008011	0.086585	0.075613	0.999999	-0.000047	0.000205	0.001250
27234	0.031460	0.127908	9.876775	-0.005044	0.048207	0.064847	0.999999	-0.000047	0.000193	0.001256
27235	0.049479	0.147182	9.865955	0.012953	0.067551	0.054250	0.999999	-0.000039	0.000204	0.001258
27236	0.027260	0.158393	9.848932	-0.009143	0.078689	0.037238	0.999999	-0.000034	0.000201	0.001261
27237	0.019004	0.177139	9.870179	-0.017507	0.097241	0.058604	0.999999	-0.000035	0.000207	0.001268
27238	0.007651	0.108069	9.887612	-0.028717	0.028002	0.075437	0.999999	-0.000037	0.000205	0.001273
27239	0.018476	0.146082	9.898041	-0.017959	0.066049	0.086212	0.999999	-0.000042	0.000213	0.001273
27240	0.024461	0.126931	9.876807	-0.011852	0.047152	0.064846	0.999999	-0.000047	0.000204	0.001282
27241	0.018113	0.114961	9.925901	-0.018383	0.034859	0.113818	0.999999	-0.000048	0.000211	0.001289
27242	0.022281	0.126524	9.876818	-0.014130	0.046813	0.064845	0.999999	-0.000047	0.000198	0.001295
27243	0.021255	0.126260	9.876823	-0.015268	0.046666	0.064844	0.999999	-0.000058	0.000199	0.001308
27244	0.020120	0.126151	9.876827	-0.016394	0.046457	0.064843	0.999999	-0.000041	0.000198	0.001312
27245	-0.009145	0.156188	9.881019	-0.045775	0.076313	0.069170	0.999999	-0.000048	0.000198	0.001333
27246	-0.010185	0.155894	9.881023	-0.046901	0.076121	0.069166	0.999999	-0.000053	0.000189	0.001344
27247	0.016902	0.125437	9.876842	-0.019790	0.045974	0.064839	0.999999	-0.000066	0.000191	0.001368
27248	0.013832	0.155839	9.849001	-0.022795	0.076632	0.037232	0.999999	-0.000059	0.000194	0.001391
27249	0.014529	0.125182	9.876849	-0.022069	0.045644	0.064836	0.999999	-0.000054	0.000196	0.001413
27250	0.034440	0.113733	9.893913	-0.002235	0.034147	0.081880	0.999999	-0.000065	0.000189	0.001426
27251	-0.008690	0.135919	9.859797	-0.045324	0.056601	0.047784	0.999999	-0.000063	0.000194	0.001441
27252	0.030252	0.144064	9.866079	-0.006387	0.064639	0.054276	0.999999	-0.000051	0.000194	0.001468
27253	0.050089	0.132663	9.883151	0.013449	0.053198	0.071329	0.999999	-0.000064	0.000197	0.001492
27254	0.077178	0.102361	9.878994	0.040603	0.023051	0.067028	0.999999	-0.000057	0.000190	0.001505
27255	0.067073	0.151749	9.872392	0.030273	0.072423	0.060786	0.999999	-0.000058	0.000187	0.001522
27256	0.053999	0.113347	9.861941	0.017363	0.034006	0.049979	0.999999	-0.000054	0.000191	0.001535
27257	0.066517	0.120774	9.900257	0.029873	0.041249	0.088399	0.999999	-0.000065	0.000203	0.001538
27258	0.112551	0.109930	9.885347	0.076134	0.030681	0.073571	0.999999	-0.000058	0.000206	0.001541
27259	0.050471	0.112780	9.861966	0.013957	0.033534	0.049986	0.999999	-0.000062	0.000185	0.001550
27260	0.049561	0.112733	9.861971	0.012828	0.033344	0.049988	0.999999	-0.000046	0.000183	0.001557
27261	0.062218	0.120287	9.900291	0.025316	0.040592	0.088414	0.999999	-0.000056	0.000185	0.001569
27262	0.020954	0.111730	9.893973	-0.015883	0.032101	0.081874	0.999999	-0.000062	0.000185	0.001570
27263	0.065219	0.131567	9.851240	0.028511	0.052449	0.039467	0.999999	-0.000058	0.000188	0.001574
27264	0.049655	0.169227	9.893705	0.012650	0.089568	0.082176	0.999999	-0.000050	0.000182	0.001585
27265	0.036682	0.130910	9.883233	-0.000204	0.051185	0.071348	0.999999	-0.000043	0.000185	0.001559
27266	0.026336	0.180351	9.876623	-0.010604	0.100473	0.065101	0.999999	-0.000036	0.000189	0.001560
27267	0.060824	0.131266	9.851273	0.023991	0.051768	0.039482	0.999999	-0.000047	0.000171	0.001554
27268	0.033527	0.130549	9.883249	-0.003610	0.050633	0.071351	0.999999	-0.000030	0.000170	0.001560
27269	0.025046	0.149309	9.904480	-0.012144	0.069136	0.092701	0.999999	-0.000039	0.000180	0.001552
27270	0.031094	0.130222	9.883261	-0.005879	0.050291	0.071351	0.999999	-0.000038	0.000177	0.001548
27271	0.056371	0.130660	9.851307	0.019457	0.051101	0.039496	0.999999	-0.000040	0.000174	0.001546
27272	0.028882	0.129951	9.883272	-0.008152	0.049952	0.071351	0.999999	-0.000030	0.000177	0.001538
27273	0.018505	0.179230	9.876662	-0.018613	0.099292	0.065101	0.999999	-0.000042	0.000179	0.001532
27274	0.045684	0.149022	9.872555	0.008645	0.069220	0.060852	0.999999	-0.000035	0.000173	0.001525
27275	0.044582	0.148994	9.872561	0.007504	0.069076	0.060854	0.999999	-0.000028	0.000175	0.001518
27276	0.043598	0.149002	9.872565	0.006361	0.068894	0.060856	0.999999	-0.000018	0.000157	0.001529
27277	0.023329	0.129316	9.883295	-0.013838	0.049128	0.071349	0.999999	-0.000033	0.000180	0.001516
27278	0.039129	0.179092	9.844746	0.002159	0.099402	0.033263	0.999999	-0.000035	0.000178	0.001523
27279	0.060882	0.137152	9.889714	0.023902	0.057196	0.077971	0.999999	-0.000033	0.000183	0.001520
27280	0.012329	0.147482	9.904531	-0.024712	0.067216	0.092691	0.999999	-0.000033	0.000180	0.001515
27281	0.025794	0.109645	9.862097	-0.010938	0.029804	0.050001	0.999999	-0.000035	0.000187	0.001504
27282	0.036457	0.147783	9.872612	-0.000479	0.067865	0.060865	0.999999	-0.000033	0.000175	0.001508
27283	0.023763	0.109319	9.862105	-0.013197	0.029450	0.050000	0.999999	-0.000032	0.000170	0.001514
27284	0.034291	0.147590	9.872623	-0.002758	0.067532	0.060867	0.999999	-0.000022	0.000181	0.001516
27285	0.061434	0.117598	9.868547	0.024551	0.037562	0.056649	0.999999	-0.000020	0.000176	0.001522
27286	0.031936	0.147399	9.872634	-0.005018	0.067195	0.060869	0.999999	-0.000020	0.000183	0.001529
27287	0.040041	0.097746	9.879261	0.003261	0.017580	0.067122	0.999999	-0.000025	0.000182	0.001520
27288	0.036927	0.128191	9.851432	0.000203	0.048246	0.039529	0.999999	-0.000022	0.000187	0.001517
27289	0.009369	0.127373	9.883343	-0.027470	0.047060	0.071331	0.999999	-0.000020	0.000182	0.001523
27290	0.055634	0.116822	9.868590	0.018905	0.036728	0.056665	0.999999	-0.000020	0.000189	0.001511
27291	0.035269	0.097215	9.879284	-0.001263	0.016920	0.067124	0.999999	-0.000012	0.000201	0.001513
27292	0.039541	0.108858	9.830242	0.003193	0.028963	0.018194	0.999999	-0.000021	0.000193	0.001516
27293	0.025623	0.115633	9.900508	-0.011044	0.035196	0.088461	0.999999	-0.000017	0.000197	0.001501
27294	0.083534	0.143422	9.896314	0.046848	0.063174	0.084706	0.999999	-0.000023	0.000197	0.001500
27295	0.023239	0.115204	9.900519	-0.013311	0.034846	0.088459	0.999999	-0.000025	0.000204	0.001489
27296	0.067502	0.135389	9.857967	0.031139	0.055397	0.046235	0.999999	-0.000015	0.000206	0.001479
27297	0.007380	0.107270	9.862154	-0.029006	0.027050	0.049973	0.999999	-0.000020	0.000195	0.001479
27298	0.025326	0.126599	9.851489	-0.011116	0.046546	0.039531	0.999999	-0.000020	0.000202	0.001468
27299	0.024104	0.126506	9.851493	-0.012251	0.046399	0.039531	0.999999	-0.000012	0.000204	0.001461
27300	-0.003372	0.125686	9.883368	-0.039961	0.045124	0.071297	0.999999	-0.000010	0.000190	0.001458
27301	0.035480	0.133984	9.889881	-0.001121	0.053519	0.078020	0.999999	-0.000015	0.000208	0.001448
27302	0.034173	0.133738	9.889889	-0.002274	0.053324	0.078021	0.999999	-0.000018	0.000206	0.001436
27303	0.040533	0.114759	9.868688	0.004162	0.034581	0.056690	0.999999	-0.000017	0.000201	0.001423
27304	0.060479	0.103572	9.885872	0.023997	0.023241	0.073856	0.999999	-0.000013	0.000197	0.001408
27305	0.057244	0.134046	9.858050	0.020903	0.053948	0.046270	0.999999	-0.000016	0.000214	0.001388
27306	0.069405	0.141595	9.896449	0.033147	0.061220	0.084773	0.999999	-0.000016	0.000221	0.001376
27307	-0.004379	0.105663	9.862173	-0.040330	0.025322	0.049937	0.999999	-0.000009	0.000223	0.001369
27308	0.034749	0.114196	9.868717	-0.001509	0.033705	0.056693	0.999999	0.000002	0.000195	0.001368
27309	0.018775	0.151699	9.911128	-0.017861	0.070735	0.099351	0.999999	0.000003	0.000210	0.001356
27310	0.030510	0.144639	9.840896	-0.005729	0.064213	0.029107	0.999999	0.000006	0.000207	0.001342
27311	0.002848	0.143666	9.872740	-0.033479	0.062923	0.060841	0.999999	0.000004	0.000213	0.001331
27312	0.049183	0.133293	9.858104	0.012966	0.052751	0.046291	0.999999	0.000007	0.000209	0.001316
27313	0.019637	0.162979	9.862113	-0.016764	0.082305	0.050434	0.999999	0.000009	0.000204	0.001322
27314	0.060404	0.140834	9.896519	0.024020	0.059877	0.084808	0.999999	0.000015	0.000218	0.001295
27315	0.026629	0.113445	9.868750	-0.009431	0.032525	0.056693	0.999999	0.000022	0.000220	0.001288
27316	0.019968	0.101462	9.917784	-0.016218	0.020053	0.105602	0.999999	0.000020	0.000219	0.001277
27317	0.035815	0.151395	9.879339	-0.000353	0.070504	0.067625	0.999999	0.000008	0.000221	0.001271
27318	0.023210	0.112703	9.868768	-0.012817	0.031992	0.056691	0.999999	0.000005	0.000219	0.001261
27319	0.033571	0.150874	9.879355	-0.002635	0.070171	0.067627	0.999999	0.000003	0.000216	0.001260
27320	0.000063	0.123336	9.851563	-0.036050	0.042744	0.039489	0.999999	0.000006	0.000212	0.001245
27321	0.010389	0.161473	9.862152	-0.025882	0.080923	0.050426	0.999999	-0.000005	0.000213	0.001239
27322	0.018771	0.111870	9.868787	-0.017360	0.031307	0.056686	0.999999	0.000002	0.000216	0.001242
27323	0.015605	0.142349	9.840964	-0.020484	0.062012	0.029102	0.999999	-0.000003	0.000215	0.001232
27324	0.027744	0.149873	9.879388	-0.008342	0.069304	0.067630	0.999999	-0.000006	0.000232	0.001242
27325	0.049529	0.108140	9.924444	0.013469	0.027226	0.112423	0.999999	0.000002	0.000224	0.001244
27326	0.014008	0.111306	9.868801	-0.021889	0.030630	0.056679	0.999999	0.000005	0.000229	0.001240
27327	0.029779	0.161557	9.830381	-0.006055	0.081113	0.018730	0.999999	0.000016	0.000229	0.001241
27328	-0.007275	0.091509	9.879399	-0.043108	0.010504	0.067038	0.999999	0.000011	0.000229	0.001242
27329	0.029529	0.130503	9.858220	-0.006320	0.049923	0.046312	0.999999	0.000002	0.000230	0.001225
27330	0.030545	0.099626	9.886050	-0.005438	0.018866	0.073892	0.999999	0.000003	0.000217	0.001230
27331	0.019830	0.148797	9.879423	-0.016301	0.068126	0.067628	0.999999	-0.000002	0.000225	0.001230
27332	0.045205	0.149663	9.847652	0.009230	0.069169	0.035958	0.999999	0.000015	0.000222	0.001236
27333	0.025078	0.130007	9.858238	-0.010861	0.049227	0.046311	0.999999	0.000016	0.000227	0.001232
27334	0.016198	0.148569	9.879434	-0.019741	0.067581	0.067626	0.999999	0.000014	0.000235	0.001231
27335	0.062590	0.138332	9.864921	0.026771	0.057640	0.053198	0.999999	0.000012	0.000231	0.001229
27336	0.034898	0.137343	9.896691	-0.001065	0.056189	0.084859	0.999999	0.000025	0.000231	0.001228
27337	0.014874	0.117676	9.907266	-0.021152	0.036233	0.095200	0.999999	0.000030	0.000224	0.001242
27338	0.011570	0.148126	9.879447	-0.024301	0.066900	0.067620	0.999999	0.000024	0.000244	0.001225
27339	0.038994	0.118172	9.875522	0.003283	0.037172	0.063549	0.999999	0.000019	0.000232	0.001244
27340	0.017037	0.128948	9.858270	-0.018805	0.048011	0.046305	0.999999	0.000023	0.000227	0.001248
27341	0.008139	0.147532	9.879459	-0.027721	0.066401	0.067614	0.999999	0.000022	0.000243	0.001246
27342	0.006844	0.147289	9.879464	-0.028857	0.066201	0.067613	0.999999	0.000016	0.000243	0.001246
27343	0.055310	0.106478	9.892815	0.019703	0.025465	0.080802	0.999999	0.000018	0.000247	0.001243
27344	0.004395	0.146892	9.879471	-0.031124	0.065849	0.067608	0.999999	0.000015	0.000256	0.001242
27345	0.043050	0.155458	9.886195	0.007619	0.074515	0.074540	0.999999	0.000014	0.000262	0.001250
27346	0.030568	0.116918	9.875567	-0.004636	0.035938	0.063553	0.999999	0.000022	0.000265	0.001251
27347	0.048265	0.136483	9.865028	0.013154	0.055633	0.053237	0.999999	0.000017	0.000273	0.001251
27348	0.047044	0.136190	9.865037	0.012004	0.055454	0.053239	0.999999	0.000008	0.000273	0.001263
27349	0.027027	0.116270	9.875585	-0.008056	0.035462	0.063552	0.999999	0.000012	0.000266	0.001258
27350	0.033633	0.097497	9.854408	-0.001367	0.016752	0.042246	0.999999	0.000019	0.000269	0.001262
27351	0.043745	0.135853	9.865057	0.008588	0.054983	0.053245	0.999999	0.000021	0.000264	0.001268
27352	0.042674	0.135675	9.865064	0.007471	0.054791	0.053247	0.999999	0.000018	0.000263	0.001258
27353	0.022666	0.115742	9.875602	-0.012581	0.034786	0.063550	0.999999	0.000017	0.000259	0.001275
27354	0.053759	0.143046	9.903548	0.018303	0.061984	0.091829	0.999999	0.000011	0.000259	0.001276
27355	0.031716	0.153619	9.886267	-0.003794	0.072831	0.074555	0.999999	-0.000000	0.000251	0.001280
27356	0.038415	0.134799	9.865094	0.002935	0.054112	0.053254	0.999999	0.000017	0.000249	0.001286
27357	0.077049	0.143625	9.871875	0.041656	0.062856	0.060245	0.999999	0.000015	0.000265	0.001285
27358	0.030114	0.122674	9.914099	-0.005156	0.041422	0.102129	0.999999	0.000016	0.000271	0.001290
27359	0.015717	0.114684	9.875628	-0.019374	0.033744	0.063542	0.999999	0.000015	0.000267	0.001289
27360	0.025841	0.153020	9.886293	-0.009489	0.071947	0.074557	0.999999	0.000021	0.000260	0.001302
27361	-0.005348	0.094706	9.886144	-0.040544	0.013522	0.073820	0.999999	0.000020	0.000266	0.001310
27362	0.044433	0.141850	9.903612	0.009191	0.060624	0.091850	0.999999	0.000021	0.000273	0.001297
27363	0.051053	0.123005	9.882446	0.015944	0.041977	0.070554	0.999999	0.000022	0.000268	0.001303
27364	0.002478	0.132767	9.896815	-0.032923	0.051362	0.084830	0.999999	0.000032	0.000251	0.001315
27365	0.049036	0.122879	9.882458	0.013684	0.041649	0.070559	0.999999	0.000031	0.000266	0.001314
27366	0.015717	0.095178	9.854476	-0.019368	0.014029	0.042232	0.999999	0.000037	0.000260	0.001328
27367	0.039007	0.141384	9.903641	0.003502	0.059824	0.091858	0.999999	0.000039	0.000254	0.001335
27368	0.024756	0.133385	9.865157	-0.010665	0.052084	0.053259	0.999999	0.000037	0.000252	0.001342
27369	0.031450	0.114430	9.843994	-0.003874	0.033444	0.031964	0.999999	0.000029	0.000252	0.001344
27370	0.014618	0.151508	9.886339	-0.020874	0.070227	0.074552	0.999999	0.000024	0.000260	0.001353
27371	0.013230	0.151437	9.886342	-0.022017	0.070077	0.074551	0.999999	0.000039	0.000277	0.001381
27372	0.040781	0.121916	9.882507	0.005734	0.040462	0.070571	0.999999	0.000043	0.000271	0.001387
27373	-0.002211	0.143506	9.847847	-0.037300	0.062190	0.035939	0.999999	0.000044	0.000266	0.001393
27374	0.017817	0.132511	9.865184	-0.017486	0.051057	0.053255	0.999999	0.000045	0.000253	0.001399
27375	0.037754	0.121525	9.882524	0.002324	0.039978	0.070575	0.999999	0.000047	0.000256	0.001415
27376	0.023480	0.113554	9.844026	-0.011789	0.032222	0.031962	0.999999	0.000049	0.000253	0.001429
27377	0.035567	0.121226	9.882536	0.000055	0.039631	0.070576	0.999999	0.000048	0.000248	0.001447
27378	0.000405	0.124060	9.826692	-0.034990	0.042805	0.014632	0.999999	0.000049	0.000245	0.001463
27379	0.071276	0.160593	9.861610	0.035517	0.079178	0.050106	0.999999	0.000057	0.000236	0.001484
27380	0.032514	0.120944	9.882550	-0.003353	0.039089	0.070578	0.999999	0.000062	0.000230	0.001487
27381	0.050262	0.140616	9.872091	0.014369	0.058890	0.060347	0.999999	0.000061	0.000235	0.001514
27382	0.049055	0.140521	9.872099	0.013232	0.058704	0.060350	0.999999	0.000068	0.000237	0.001536
27383	0.068926	0.129623	9.889459	0.033038	0.047653	0.077691	0.999999	0.000070	0.000232	0.001542
27384	0.075757	0.110819	9.868308	0.039915	0.028999	0.056410	0.999999	0.000071	0.000228	0.001559
27385	0.074598	0.110630	9.868319	0.038780	0.028859	0.056415	0.999999	0.000067	0.000235	0.001578
27386	0.065485	0.129164	9.889488	0.029625	0.047141	0.077705	0.999999	0.000074	0.000237	0.001582
27387	0.051290	0.121237	9.850976	0.015565	0.039430	0.039077	0.999999	0.000075	0.000232	0.001588
27388	0.063341	0.128979	9.889505	0.027365	0.046810	0.077713	0.999999	0.000079	0.000227	0.001593
27389	0.070143	0.110082	9.868358	0.034260	0.028207	0.056434	0.999999	0.000068	0.000229	0.001588
27390	0.042259	0.108643	9.899967	0.006239	0.026497	0.087929	0.999999	0.000069	0.000225	0.001584
27391	0.067859	0.109612	9.868379	0.031987	0.027873	0.056442	0.999999	0.000064	0.000232	0.001584
27392	0.039937	0.108287	9.899981	0.003967	0.026148	0.087931	0.999999	0.000071	0.000226	0.001576
27393	0.036750	0.138925	9.872175	0.000723	0.056865	0.060370	0.999999	0.000081	0.000226	0.001559
27394	0.016664	0.118962	9.882613	-0.019260	0.036688	0.070569	0.999999	0.000076	0.000234	0.001569
27395	0.053300	0.158450	9.861758	0.017268	0.076523	0.050176	0.999999	0.000077	0.000219	0.001566
27396	0.033563	0.138606	9.872191	-0.002704	0.056346	0.060372	0.999999	0.000093	0.000208	0.001565
27397	0.053428	0.127760	9.889579	0.017098	0.045334	0.077743	0.999999	0.000087	0.000216	0.001547
27398	0.052244	0.127547	9.889588	0.015957	0.045140	0.077745	0.999999	0.000088	0.000212	0.001543
27399	0.017108	0.130311	9.833669	-0.018976	0.048270	0.021723	0.999999	0.000089	0.000216	0.001540
27400	0.023173	0.126095	9.921172	-0.013223	0.043236	0.109210	0.999999	0.000096	0.000211	0.001534
27401	0.025752	0.168613	9.844408	-0.010506	0.086374	0.032814	0.999999	0.000095	0.000216	0.001542
27402	0.013656	0.129797	9.833681	-0.022344	0.047731	0.021718	0.999999	0.000082	0.000220	0.001529
27403	0.025600	0.137516	9.872230	-0.010647	0.055172	0.060374	0.999999	0.000096	0.000208	0.001528
27404	0.024501	0.137460	9.872233	-0.011786	0.054971	0.060373	0.999999	0.000094	0.000216	0.001526
27405	0.044077	0.126431	9.889642	0.008014	0.043982	0.077760	0.999999	0.000086	0.000234	0.001529
27406	0.034719	0.144858	9.910798	-0.001250	0.062205	0.099034	0.999999	0.000090	0.000239	0.001521
27407	0.028596	0.118196	9.851105	-0.007072	0.036030	0.039100	0.999999	0.000088	0.000235	0.001520
27408	0.038361	0.156538	9.861858	0.002468	0.074306	0.050207	0.999999	0.000089	0.000231	0.001518
27409	-0.008422	0.135292	9.903799	-0.044425	0.052518	0.091801	0.999999	0.000096	0.000233	0.001512
27410	0.036132	0.156369	9.861869	0.000196	0.073970	0.050210	0.999999	0.000097	0.000229	0.001528
27411	0.034994	0.156044	9.861878	-0.000945	0.073823	0.050211	0.999999	0.000080	0.000233	0.001526
27412	0.041824	0.137178	9.840743	0.006084	0.055201	0.028944	0.999999	0.000090	0.000235	0.001518
27413	0.047784	0.132994	9.928258	0.011700	0.050216	0.116443	0.999999	0.000091	0.000229	0.001524
27414	0.012851	0.135725	9.872279	-0.023136	0.053231	0.060363	0.999999	0.000095	0.000224	0.001529
27415	0.040653	0.106288	9.868565	0.004835	0.023851	0.056504	0.999999	0.000100	0.000237	0.001525
27416	0.039422	0.106144	9.868571	0.003712	0.023663	0.056505	0.999999	0.000097	0.000235	0.001534
27417	0.019489	0.086112	9.878953	-0.016211	0.003457	0.066646	0.999999	0.000105	0.000236	0.001528
27418	0.036912	0.105946	9.868583	0.001438	0.023323	0.056506	0.999999	0.000106	0.000260	0.001534
27419	0.006586	0.135189	9.872293	-0.028825	0.052389	0.060352	0.999999	0.000113	0.000252	0.001519
27420	0.034682	0.105743	9.868594	-0.000831	0.022980	0.056507	0.999999	0.000111	0.000240	0.001535
27421	0.044263	0.144110	9.879370	0.008612	0.061315	0.067639	0.999999	0.000112	0.000254	0.001523
27422	0.034969	0.162629	9.900513	-0.000732	0.079529	0.088904	0.999999	0.000119	0.000247	0.001517
27423	0.049937	0.125355	9.858248	0.014553	0.042571	0.046381	0.999999	0.000123	0.000260	0.001513
27424	0.061601	0.133173	9.896835	0.026130	0.049998	0.085074	0.999999	0.000126	0.000255	0.001498
27425	0.020725	0.123841	9.889752	-0.014718	0.040552	0.077767	0.999999	0.000131	0.000257	0.001503
27426	0.035765	0.086635	9.847488	0.000609	0.003553	0.035246	0.999999	0.000144	0.000257	0.001484
27427	0.018382	0.123623	9.889759	-0.016992	0.040204	0.077765	0.999999	0.000126	0.000261	0.001482
27428	0.014980	0.153951	9.861962	-0.020296	0.070881	0.050212	0.999999	0.000129	0.000266	0.001460
27429	0.036967	0.112468	9.907226	0.001662	0.029093	0.095203	0.999999	0.000127	0.000262	0.001458
27430	0.028933	0.116449	9.819709	-0.006062	0.033745	0.007695	0.999999	0.000131	0.000267	0.001454
27431	0.053366	0.132132	9.896896	0.018155	0.048854	0.085098	0.999999	0.000129	0.000273	0.001443
27432	0.031172	0.142683	9.879441	-0.003911	0.059418	0.067654	0.999999	0.000135	0.000276	0.001427
27433	0.038260	0.123940	9.858318	0.003216	0.040883	0.046398	0.999999	0.000130	0.000264	0.001428
27434	0.028980	0.142387	9.879452	-0.006193	0.059075	0.067655	0.999999	0.000138	0.000276	0.001440
27435	0.000732	0.141047	9.910913	-0.034367	0.057197	0.099005	0.999999	0.000152	0.000283	0.001458
27436	-0.266480	0.465708	9.888187	-0.302781	0.380937	0.078083	0.999998	0.000161	0.000252	0.001765
27437	0.356438	-0.228965	9.845969	0.322266	-0.311082	0.032207	0.999997	0.000160	0.000225	0.002601
27438	-0.014500	0.133125	9.872313	-0.050427	0.049008	0.060283	0.999997	0.000171	0.000245	0.002545
27439	0.031995	0.123722	9.858343	-0.003591	0.039860	0.046403	0.999997	0.000173	0.000249	0.002542
27440	0.030867	0.123601	9.858348	-0.004725	0.039662	0.046403	0.999997	0.000176	0.000244	0.002528
27441	0.021498	0.142074	9.879476	-0.014171	0.057889	0.067653	0.999997	0.000177	0.000258	0.002516
27442	0.059897	0.151189	9.886651	0.024357	0.067097	0.075043	0.999997	0.000178	0.000264	0.002504
27443	0.027064	0.123165	9.858365	-0.008130	0.039168	0.046403	0.999997	0.000178	0.000269	0.002482
27444	0.044793	0.143129	9.848056	0.009470	0.059122	0.036329	0.999997	0.000194	0.000257	0.002481
27445	0.016701	0.141632	9.879491	-0.018733	0.057196	0.067650	0.999997	0.000183	0.000268	0.002467
27446	-0.003412	0.121352	9.889804	-0.038616	0.036850	0.077717	0.999997	0.000180	0.000275	0.002465
27447	0.043225	0.111854	9.875883	0.008245	0.027766	0.063881	0.999997	0.000178	0.000281	0.002455
27448	0.012880	0.140982	9.879506	-0.022152	0.056642	0.067646	0.999997	0.000185	0.000284	0.002439
27449	0.032592	0.130198	9.897012	-0.002367	0.045778	0.085129	0.999997	0.000183	0.000290	0.002447
27450	0.018818	0.122159	9.858396	-0.016068	0.037932	0.046398	0.999997	0.000190	0.000274	0.002432
27451	0.001369	0.159164	9.900631	-0.033930	0.074498	0.088885	0.999997	0.000185	0.000281	0.002432
27452	0.029154	0.129747	9.897029	-0.005769	0.045245	0.085130	0.999997	0.000188	0.000296	0.002421
27453	0.046710	0.149624	9.886746	0.011809	0.065267	0.075078	0.999997	0.000189	0.000290	0.002427
27454	0.053862	0.130874	9.865640	0.019063	0.046711	0.053839	0.999997	0.000187	0.000289	0.002416
27455	-0.003421	0.158543	9.900640	-0.038481	0.073784	0.088873	0.999997	0.000195	0.000290	0.002410
27456	0.032821	0.110607	9.875937	-0.001905	0.026194	0.063888	0.999997	0.000189	0.000290	0.002412
27457	0.023323	0.128965	9.897055	-0.011435	0.044393	0.085129	0.999997	0.000190	0.000304	0.002400
27458	0.019921	0.159273	9.869264	-0.014783	0.075068	0.057585	0.999997	0.000172	0.000300	0.002398
27459	0.027180	0.140498	9.848158	-0.007519	0.056572	0.036345	0.999997	0.000186	0.000288	0.002398
27460	0.028416	0.109736	9.875960	-0.006414	0.025498	0.063888	0.999997	0.000177	0.000280	0.002401
27461	0.058659	0.137425	9.904337	0.023658	0.053212	0.092605	0.999997	0.000176	0.000295	0.002400
27462	0.023753	0.140025	9.848174	-0.010901	0.056043	0.036345	0.999997	0.000185	0.000297	0.002395
27463	0.003904	0.119942	9.858441	-0.030735	0.035690	0.046371	0.999997	0.000186	0.000291	0.002402
27464	0.015475	0.127825	9.897085	-0.019369	0.043164	0.085122	0.999997	0.000196	0.000293	0.002395
27465	0.041443	0.129123	9.865723	0.006623	0.044886	0.053863	0.999997	0.000185	0.000283	0.002399
27466	0.011070	0.158086	9.869297	-0.023855	0.073681	0.057578	0.999997	0.000192	0.000296	0.002413
27467	0.041451	0.098192	9.893532	0.006601	0.013667	0.081407	0.999997	0.000194	0.000272	0.002400
27468	0.019464	0.108619	9.875994	-0.015442	0.024120	0.063882	0.999997	0.000192	0.000289	0.002409
27469	0.036972	0.128491	9.865749	0.002109	0.044191	0.053869	0.999997	0.000193	0.000283	0.002415
27470	0.035949	0.128381	9.865754	0.000977	0.044004	0.053870	0.999997	0.000197	0.000277	0.002422
27471	0.064037	0.099065	9.862208	0.029229	0.014885	0.050172	0.999997	0.000192	0.000284	0.002423
27472	0.046177	0.135987	9.904423	0.011149	0.051342	0.092637	0.999997	0.000196	0.000288	0.002437
27473	0.053364	0.117310	9.883328	0.018487	0.032873	0.071409	0.999997	0.000195	0.000283	0.002455
27474	0.041761	0.166448	9.876640	0.006634	0.081876	0.065102	0.999997	0.000208	0.000284	0.002437
27475	0.024005	0.115648	9.914677	-0.010940	0.030613	0.102639	0.999997	0.000203	0.000291	0.002438
27476	0.047794	0.147590	9.855556	0.012855	0.063212	0.043878	0.999997	0.000201	0.000279	0.002456
27477	0.038554	0.078193	9.872488	0.003796	-0.006370	0.060183	0.999997	0.000205	0.000281	0.002442
27478	0.008137	0.107123	9.876026	-0.026746	0.022384	0.063862	0.999997	0.000199	0.000281	0.002446
27479	0.017449	0.145524	9.886902	-0.017727	0.060795	0.075098	0.999997	0.000201	0.000275	0.002452
27480	0.045593	0.116279	9.883379	0.010575	0.031670	0.071424	0.999997	0.000202	0.000281	0.002460
27481	0.054860	0.154627	9.894264	0.019577	0.070090	0.082669	0.999997	0.000191	0.000272	0.002464
27482	0.041097	0.146397	9.855604	0.006053	0.062195	0.043891	0.999997	0.000192	0.000287	0.002461
27483	0.052482	0.154340	9.894281	0.017296	0.069741	0.082676	0.999997	0.000206	0.000275	0.002460
27484	0.020150	0.126107	9.865829	-0.014877	0.041588	0.053869	0.999997	0.000191	0.000279	0.002458
27485	0.058646	0.135285	9.873206	0.023554	0.051104	0.061460	0.999997	0.000186	0.000276	0.002468
27486	0.036623	0.145576	9.855634	0.001520	0.061511	0.043897	0.999997	0.000181	0.000276	0.002469
27487	0.069010	0.142791	9.911904	0.033654	0.058464	0.100256	0.999997	0.000183	0.000270	0.002476
27488	0.015695	0.125094	9.865850	-0.019389	0.040881	0.053864	0.999997	0.000180	0.000278	0.002475
27489	0.006028	0.143376	9.886947	-0.029089	0.059023	0.075082	0.999997	0.000176	0.000284	0.002495
27490	0.002647	0.174005	9.859159	-0.032483	0.089695	0.047546	0.999997	0.000196	0.000281	0.002492
27491	0.020543	0.106175	9.844769	-0.014205	0.022083	0.032641	0.999997	0.000178	0.000284	0.002490
27492	0.029757	0.144568	9.855672	-0.005266	0.060471	0.043902	0.999997	0.000189	0.000276	0.002512
27493	0.010004	0.124279	9.865867	-0.025040	0.040025	0.053855	0.999997	0.000178	0.000276	0.002507
27494	0.048510	0.133567	9.873285	0.013384	0.049547	0.061487	0.999997	0.000176	0.000274	0.002516
27495	0.026539	0.143926	9.855690	-0.008665	0.059974	0.043903	0.999997	0.000177	0.000268	0.002523
27496	0.006822	0.123687	9.865877	-0.028419	0.039473	0.053848	0.999997	0.000181	0.000263	0.002529
27497	-0.002616	0.141925	9.886969	-0.038162	0.057601	0.075060	0.999997	0.000168	0.000255	0.002544
27498	-0.003790	0.141690	9.886972	-0.039295	0.057399	0.075056	0.999997	0.000175	0.000267	0.002558
27499	0.015879	0.131159	9.904583	-0.019527	0.046681	0.092647	0.999997	0.000184	0.000266	0.002589
27500	0.002372	0.123198	9.865886	-0.032949	0.038771	0.053837	0.999997	0.000194	0.000257	0.002611
27501	0.022214	0.112638	9.883501	-0.013176	0.028060	0.071432	0.999996	0.000196	0.000261	0.002628
27502	0.039592	0.132642	9.873337	0.004307	0.048187	0.061501	0.999996	0.000197	0.000275	0.002644
27503	0.038331	0.132415	9.873345	0.003169	0.048039	0.061503	0.999996	0.000190	0.000273	0.002666
27504	0.047490	0.170863	9.884271	0.012006	0.086444	0.072789	0.999996	0.000194	0.000267	0.002691
27505	0.057066	0.121583	9.890982	0.021804	0.037152	0.079112	0.999996	0.000193	0.000272	0.002699
27506	0.034990	0.131865	9.873365	-0.000236	0.047501	0.061506	0.999996	0.000188	0.000270	0.002738
27507	0.054755	0.121173	9.891000	0.019532	0.036813	0.079119	0.999996	0.000190	0.000273	0.002754
27508	0.061952	0.102583	9.869928	0.027062	0.018359	0.057914	0.999996	0.000195	0.000286	0.002779
27509	0.060822	0.102423	9.869937	0.025929	0.018214	0.057918	0.999996	0.000191	0.000273	0.002798
27510	0.078444	0.122388	9.859797	0.043402	0.038369	0.048011	0.999996	0.000192	0.000278	0.002805
27511	0.100395	0.081170	9.905229	0.065476	-0.003179	0.093166	0.999996	0.000200	0.000279	0.002818
27512	0.076052	0.122211	9.859818	0.041137	0.038037	0.048022	0.999996	0.000197	0.000286	0.002818
27513	0.074840	0.122101	9.859829	0.040002	0.037894	0.048027	0.999996	0.000205	0.000286	0.002812
27514	0.034163	0.112149	9.852334	-0.000625	0.027862	0.040305	0.999996	0.000187	0.000282	0.002811
27515	0.053914	0.101277	9.869989	0.019146	0.017197	0.057935	0.999996	0.000182	0.000289	0.002813
27516	0.062841	0.139818	9.880938	0.027895	0.055622	0.069244	0.999996	0.000192	0.000290	0.002806
27517	0.030808	0.111584	9.852352	-0.004022	0.027369	0.040306	0.999996	0.000193	0.000274	0.002803
27518	0.033706	0.137946	9.912155	-0.001682	0.053164	0.100342	0.999996	0.000197	0.000269	0.002812
27519	0.051325	0.157989	9.902034	0.015758	0.073390	0.090455	0.999996	0.000195	0.000265	0.002811
27520	0.065102	0.151498	9.832117	0.029750	0.067597	0.020535	0.999996	0.000192	0.000262	0.002802
27521	0.045227	0.131187	9.842249	0.010035	0.047070	0.030422	0.999996	0.000199	0.000273	0.002787
27522	0.037905	0.118911	9.891106	0.002485	0.034231	0.079147	0.999996	0.000200	0.000249	0.002784
27523	0.043244	0.130896	9.842261	0.007767	0.046726	0.030426	0.999996	0.000195	0.000256	0.002785
27524	0.041977	0.130659	9.842270	0.006636	0.046530	0.030427	0.999996	0.000193	0.000263	0.002785
27525	0.014891	0.185834	9.905486	-0.020764	0.101078	0.094015	0.999996	0.000191	0.000278	0.002784
27526	0.003544	0.147107	9.894530	-0.031712	0.062248	0.082690	0.999996	0.000204	0.000277	0.002785
27527	0.050578	0.138334	9.881030	0.015376	0.053786	0.069282	0.999996	0.000200	0.000274	0.002795
27528	0.026268	0.179258	9.835584	-0.008991	0.094950	0.024102	0.999996	0.000204	0.000278	0.002792
27529	0.017355	0.109781	9.852405	-0.017583	0.025286	0.040296	0.999996	0.000202	0.000274	0.002791
27530	0.007672	0.127993	9.873475	-0.027492	0.043311	0.061487	0.999996	0.000196	0.000273	0.002793
27531	0.064563	0.157743	9.870967	0.029384	0.073517	0.059434	0.999996	0.000192	0.000289	0.002804
27532	0.032304	0.129318	9.842324	-0.002408	0.045158	0.030436	0.999996	0.000195	0.000293	0.002784
27533	0.024941	0.117019	9.891170	-0.009997	0.032345	0.079148	0.999996	0.000199	0.000276	0.002789
27534	0.042661	0.137173	9.881083	0.007422	0.052568	0.069297	0.999996	0.000204	0.000271	0.002794
27535	0.041533	0.137032	9.881090	0.006283	0.052419	0.069299	0.999996	0.000202	0.000275	0.002803
27536	0.058933	0.157129	9.871012	0.023697	0.072654	0.059455	0.999996	0.000206	0.000279	0.002800
27537	0.018184	0.147158	9.863409	-0.016885	0.062525	0.051624	0.999996	0.000204	0.000284	0.002809
27538	0.058832	0.126344	9.898805	0.023770	0.041432	0.086984	0.999996	0.000224	0.000281	0.002806
27539	0.036641	0.136668	9.881114	0.001736	0.051729	0.069304	0.999996	0.000212	0.000300	0.002801
27540	0.064858	0.107647	9.877766	0.030322	0.022888	0.065805	0.999996	0.000222	0.000301	0.002794
27541	0.013396	0.146805	9.863422	-0.021439	0.061822	0.051619	0.999996	0.000221	0.000287	0.002803
27542	0.023313	0.097568	9.870146	-0.011372	0.012536	0.057954	0.999996	0.000225	0.000290	0.002799
27543	0.022137	0.097510	9.870149	-0.012504	0.012384	0.057953	0.999996	0.000232	0.000291	0.002793
27544	0.021011	0.097361	9.870153	-0.013628	0.012183	0.057952	0.999996	0.000227	0.000290	0.002795
27545	0.050652	0.125611	9.898860	0.015800	0.040259	0.087005	0.999996	0.000243	0.000296	0.002784
27546	0.030896	0.105161	9.908929	-0.003864	0.019606	0.096828	0.999996	0.000225	0.000291	0.002783
27547	0.046234	0.155885	9.871099	0.011158	0.070800	0.059491	0.999996	0.000239	0.000279	0.002783
27548	0.062549	0.118989	9.829001	0.027772	0.034222	0.017134	0.999996	0.000237	0.000286	0.002783
27549	0.046261	0.124938	9.898890	0.011247	0.039574	0.087014	0.999996	0.000232	0.000283	0.002774
27550	0.051524	0.136998	9.850071	0.016630	0.052074	0.038320	0.999996	0.000236	0.000287	0.002771
27551	0.043989	0.124642	9.898904	0.008974	0.039231	0.087017	0.999996	0.000237	0.000282	0.002760
27552	0.021956	0.134856	9.881183	-0.013051	0.049445	0.069308	0.999996	0.000237	0.000287	0.002750
27553	0.020857	0.134583	9.881189	-0.014190	0.049293	0.069307	0.999996	0.000226	0.000278	0.002754
27554	0.026243	0.146678	9.832370	-0.008798	0.061799	0.020614	0.999996	0.000239	0.000277	0.002737
27555	0.048159	0.105576	9.877884	0.013334	0.020369	0.065848	0.999996	0.000234	0.000293	0.002748
27556	0.074156	0.107293	9.846809	0.039625	0.022484	0.034880	0.999996	0.000237	0.000297	0.002724
27557	0.064445	0.125523	9.867864	0.029570	0.040517	0.056058	0.999996	0.000232	0.000275	0.002716
27558	0.051333	0.117259	9.829087	0.016482	0.032542	0.017165	0.999996	0.000233	0.000281	0.002706
27559	0.034968	0.123195	9.898958	-0.000131	0.037856	0.087027	0.999996	0.000228	0.000278	0.002698
27560	0.031481	0.153640	9.871193	-0.003653	0.068544	0.059512	0.999996	0.000228	0.000284	0.002687
27561	0.059929	0.124783	9.867902	0.025036	0.039847	0.056074	0.999996	0.000232	0.000286	0.002674
27562	0.010602	0.133132	9.881225	-0.024424	0.047689	0.069295	0.999996	0.000239	0.000279	0.002669
27563	0.027910	0.153245	9.871209	-0.007071	0.068047	0.059514	0.999996	0.000227	0.000298	0.002665
27564	0.065991	0.163003	9.878955	0.031162	0.077997	0.067476	0.999996	0.000231	0.000302	0.002643
27565	0.010181	0.159059	9.941074	-0.024888	0.073139	0.129364	0.999996	0.000238	0.000293	0.002646
27566	0.063869	0.162839	9.878972	0.028878	0.077665	0.067486	0.999996	0.000235	0.000290	0.002638
27567	0.044144	0.142288	9.888993	0.009252	0.056996	0.077259	0.999996	0.000233	0.000296	0.002628
27568	0.022035	0.152479	9.871236	-0.012771	0.067161	0.059514	0.999997	0.000240	0.000298	0.002615
27569	0.032045	0.103256	9.877974	-0.002521	0.017969	0.065862	0.999997	0.000232	0.000296	0.002617
27570	0.019981	0.152238	9.871244	-0.015045	0.066810	0.059513	0.999997	0.000251	0.000274	0.002596
27571	0.030047	0.103106	9.877982	-0.004782	0.017622	0.065861	0.999997	0.000240	0.000293	0.002592
27572	0.019136	0.064061	9.866951	-0.015387	-0.021262	0.054455	0.999997	0.000237	0.000281	0.002573
27573	0.046281	0.123069	9.867997	0.011419	0.037820	0.056107	0.999997	0.000247	0.000290	0.002566
27574	0.036286	0.141449	9.889037	0.001276	0.055773	0.077270	0.999997	0.000254	0.000283	0.002562
27575	0.044018	0.122958	9.868009	0.009154	0.037480	0.056110	0.999997	0.000252	0.000288	0.002552
27576	0.033999	0.141116	9.889049	-0.001007	0.055425	0.077272	0.999997	0.000249	0.000285	0.002542
27577	0.051352	0.161251	9.879071	0.016314	0.075830	0.067529	0.999997	0.000245	0.000291	0.002543
27578	0.031657	0.140851	9.889061	-0.003287	0.055083	0.077273	0.999997	0.000264	0.000287	0.002542
27579	0.036971	0.153053	9.840267	0.002191	0.067682	0.028606	0.999997	0.000252	0.000297	0.002528
27580	0.017023	0.132298	9.850256	-0.017403	0.046923	0.038344	0.999997	0.000243	0.000316	0.002522
27581	0.018047	0.101427	9.878028	-0.016115	0.015884	0.065852	0.999997	0.000248	0.000318	0.002527
27582	-0.012855	0.129902	9.881265	-0.047181	0.044136	0.069229	0.999997	0.000245	0.000315	0.002518
27583	0.043187	0.103106	9.847038	0.009128	0.017980	0.034965	0.999997	0.000244	0.000320	0.002527
27584	0.033057	0.121284	9.868072	-0.001062	0.035906	0.056120	0.999997	0.000244	0.000325	0.002515
27585	0.023052	0.139551	9.889103	-0.011269	0.053882	0.077274	0.999997	0.000252	0.000316	0.002519
27586	0.001008	0.149595	9.871305	-0.033282	0.063992	0.059487	0.999997	0.000240	0.000327	0.002515
27587	0.029658	0.120596	9.868092	-0.004466	0.035413	0.056121	0.999997	0.000229	0.000317	0.002520
27588	-0.001196	0.149015	9.871314	-0.035558	0.063631	0.059482	0.999997	0.000239	0.000318	0.002512
27589	0.066815	0.130503	9.875957	0.032579	0.045358	0.064200	0.999997	0.000238	0.000322	0.002521
27590	0.014914	0.169224	9.861364	-0.019406	0.083869	0.049764	0.999997	0.000245	0.000324	0.002525
27591	0.016074	0.138416	9.889133	-0.018108	0.052830	0.077270	0.999997	0.000240	0.000330	0.002526
27592	0.023832	0.119803	9.868117	-0.010144	0.034519	0.056120	0.999997	0.000234	0.000328	0.002528
27593	0.013729	0.137932	9.889143	-0.020393	0.052480	0.077267	0.999997	0.000236	0.000332	0.002526
27594	0.039864	0.139872	9.858185	0.006013	0.054782	0.046417	0.999997	0.000236	0.000346	0.002525
27595	0.041217	0.109064	9.885955	0.007323	0.023746	0.073924	0.999997	0.000237	0.000321	0.002514
27596	0.058663	0.129324	9.876024	0.024609	0.044163	0.064228	0.999997	0.000235	0.000337	0.002523
27597	0.036526	0.139315	9.858206	0.002601	0.054289	0.046421	0.999997	0.000230	0.000333	0.002533
27598	0.035486	0.139144	9.858212	0.001467	0.054096	0.046422	0.999997	0.000234	0.000327	0.002540
27599	0.061896	0.141056	9.827272	0.027890	0.056468	0.015590	0.999997	0.000226	0.000325	0.002542
27600	0.014780	0.118256	9.868154	-0.019221	0.033124	0.056111	0.999997	0.000227	0.000330	0.002550
27601	0.043894	0.146582	9.897086	0.009769	0.061437	0.085386	0.999997	0.000220	0.000337	0.002562
27602	0.021355	0.099641	9.847146	-0.012327	0.014682	0.034967	0.999997	0.000239	0.000333	0.002561
27603	0.011077	0.117872	9.868163	-0.022623	0.032624	0.056106	0.999997	0.000227	0.000352	0.002557
27604	0.030785	0.107425	9.886011	-0.002893	0.022176	0.073930	0.999997	0.000231	0.000337	0.002553
27605	0.036477	0.119657	9.837242	0.002684	0.034824	0.025288	0.999997	0.000233	0.000330	0.002560
27606	0.028699	0.107260	9.886019	-0.005159	0.021827	0.073930	0.999997	0.000243	0.000340	0.002563
27607	0.055368	0.166488	9.887213	0.021316	0.081056	0.075727	0.999997	0.000248	0.000342	0.002568
27608	0.032878	0.119471	9.837257	-0.000698	0.034276	0.025290	0.999997	0.000249	0.000347	0.002575
27609	0.034521	0.145855	9.897134	0.000640	0.060056	0.085400	0.999997	0.000260	0.000345	0.002577
27610	0.024017	0.107020	9.886034	-0.009691	0.021123	0.073928	0.999997	0.000261	0.000340	0.002594
27611	0.050663	0.166084	9.887245	0.016746	0.080368	0.075741	0.999997	0.000256	0.000356	0.002605
27612	0.058410	0.147662	9.866247	0.024816	0.062100	0.054611	0.999997	0.000266	0.000356	0.002599
27613	0.017983	0.137271	9.858286	-0.015573	0.051514	0.046424	0.999997	0.000264	0.000351	0.002599
27614	0.047116	0.165713	9.887269	0.013312	0.079840	0.075751	0.999997	0.000265	0.000356	0.002607
27615	0.009081	0.124590	9.907059	-0.024597	0.038350	0.095054	0.999996	0.000266	0.000349	0.002614
27616	0.053857	0.147160	9.866281	0.020255	0.061426	0.054626	0.999996	0.000270	0.000362	0.002620
27617	0.013320	0.136685	9.858302	-0.020124	0.050815	0.046419	0.999996	0.000269	0.000357	0.002619
27618	-0.015247	0.134309	9.889191	-0.048876	0.048005	0.077190	0.999996	0.000270	0.000352	0.002637
27619	0.052872	0.115985	9.894066	0.019329	0.030052	0.082135	0.999996	0.000265	0.000358	0.002639
27620	0.030620	0.125840	9.876196	-0.002666	0.040059	0.064276	0.999996	0.000256	0.000377	0.002632
27621	0.010854	0.105154	9.886078	-0.022173	0.019220	0.073912	0.999996	0.000264	0.000377	0.002646
27622	0.046578	0.146125	9.866333	0.013437	0.060404	0.054644	0.999996	0.000268	0.000380	0.002661
27623	0.006188	0.135686	9.858322	-0.026926	0.049755	0.046408	0.999996	0.000273	0.000372	0.002676
27624	0.035282	0.164231	9.887343	0.001887	0.078118	0.075773	0.999996	0.000274	0.000377	0.002684
27625	0.033877	0.107031	9.855223	0.000944	0.021158	0.043152	0.999996	0.000279	0.000378	0.002709
27626	0.035376	0.133289	9.915114	0.002096	0.046877	0.103274	0.999996	0.000274	0.000376	0.002709
27627	0.031646	0.106723	9.855234	-0.001320	0.020809	0.043153	0.999996	0.000282	0.000375	0.002741
27628	0.012328	0.143244	9.897225	-0.021034	0.056705	0.085397	0.999996	0.000286	0.000369	0.002747
27629	0.011229	0.142947	9.897230	-0.022176	0.056551	0.085395	0.999996	0.000269	0.000371	0.002764
27630	0.040037	0.114239	9.894146	0.006848	0.028130	0.082157	0.999996	0.000274	0.000374	0.002779
27631	0.036495	0.144766	9.866396	0.003203	0.058872	0.054662	0.999996	0.000272	0.000369	0.002798
27632	0.035355	0.144567	9.866403	0.002068	0.058675	0.054663	0.999996	0.000270	0.000375	0.002816
27633	0.075849	0.124146	9.902229	0.042638	0.038193	0.090444	0.999996	0.000272	0.000377	0.002833
27634	0.053970	0.134136	9.884326	0.020645	0.048172	0.072558	0.999996	0.000273	0.000363	0.002841
27635	0.062109	0.115729	9.863345	0.028839	0.029988	0.051444	0.999996	0.000275	0.000366	0.002858
27636	0.023954	0.074467	9.883034	-0.008964	-0.011675	0.070645	0.999996	0.000273	0.000381	0.002868
27637	0.059457	0.115329	9.863366	0.026576	0.029648	0.051451	0.999996	0.000268	0.000387	0.002888
27638	0.030788	0.112787	9.894196	-0.002234	0.026745	0.082163	0.999996	0.000263	0.000375	0.002899
27639	0.078281	0.104763	9.881305	0.045165	0.019161	0.069362	0.999996	0.000265	0.000369	0.002906
27640	0.047159	0.133060	9.884376	0.013831	0.047145	0.072574	0.999996	0.000272	0.000371	0.002911
27641	0.073684	0.135308	9.853569	0.040383	0.049722	0.041878	0.999996	0.000276	0.000363	0.002908
27642	0.084334	0.143360	9.892491	0.050730	0.057408	0.080905	0.999996	0.000278	0.000358	0.002923
27643	0.053066	0.171580	9.895555	0.019363	0.085422	0.084110	0.999996	0.000279	0.000371	0.002912
27644	0.021680	0.142673	9.866470	-0.011562	0.056580	0.054669	0.999996	0.000276	0.000377	0.002913
27645	0.020608	0.142434	9.866475	-0.012701	0.056428	0.054668	0.999996	0.000272	0.000364	0.002914
27646	0.040415	0.132165	9.884418	0.007010	0.046101	0.072587	0.999996	0.000276	0.000367	0.002910
27647	0.036843	0.162685	9.856672	0.003336	0.076844	0.045095	0.999996	0.000274	0.000363	0.002910
27648	0.047432	0.113502	9.863452	0.014120	0.027747	0.051483	0.999996	0.000265	0.000362	0.002904
27649	0.057948	0.121366	9.902384	0.024426	0.035490	0.090516	0.999996	0.000260	0.000358	0.002896
27650	0.045272	0.112991	9.863468	0.011849	0.027408	0.051487	0.999996	0.000260	0.000354	0.002876
27651	0.034912	0.131089	9.884453	0.001298	0.045265	0.072593	0.999996	0.000262	0.000356	0.002893
27652	0.033779	0.130913	9.884459	0.000160	0.045063	0.072594	0.999996	0.000260	0.000353	0.002883
27653	0.020896	0.179578	9.877693	-0.012952	0.093808	0.066206	0.999996	0.000255	0.000359	0.002884
27654	0.040721	0.112228	9.863497	0.007318	0.026717	0.051493	0.999996	0.000255	0.000354	0.002883
27655	0.027937	0.160923	9.856730	-0.005802	0.075460	0.045105	0.999996	0.000250	0.000351	0.002875
27656	0.050111	0.120014	9.902443	0.016466	0.034273	0.090537	0.999996	0.000254	0.000355	0.002873
27657	0.028127	0.129894	9.884490	-0.005517	0.044219	0.072596	0.999996	0.000249	0.000351	0.002866
27658	0.045448	0.150302	9.874710	0.011625	0.064825	0.063052	0.999996	0.000250	0.000346	0.002882
27659	0.046866	0.119431	9.902466	0.013039	0.033782	0.090544	0.999996	0.000245	0.000342	0.002874
27660	0.034111	0.110951	9.863536	0.000522	0.025677	0.051498	0.999996	0.000236	0.000351	0.002858
27661	0.023575	0.128962	9.884514	-0.010081	0.043514	0.072596	0.999996	0.000241	0.000353	0.002864
27662	0.059215	0.170316	9.864964	0.025342	0.084945	0.053526	0.999996	0.000264	0.000347	0.002869
27663	0.030760	0.110883	9.863548	-0.002879	0.025181	0.051499	0.999996	0.000262	0.000342	0.002869
27664	0.008591	0.177751	9.877745	-0.025541	0.091850	0.066200	0.999996	0.000256	0.000340	0.002872
27665	0.046940	0.131134	9.853789	0.013133	0.045663	0.041972	0.999996	0.000264	0.000340	0.002867
27666	0.018144	0.128566	9.884531	-0.015761	0.042622	0.072592	0.999996	0.000258	0.000338	0.002870
27667	0.026260	0.110205	9.863569	-0.007398	0.024492	0.051499	0.999996	0.000266	0.000348	0.002874
27668	0.025157	0.110274	9.863571	-0.008528	0.024295	0.051498	0.999996	0.000282	0.000336	0.002873
27669	0.053994	0.138965	9.892766	0.019931	0.052891	0.081040	0.999996	0.000268	0.000336	0.002880
27670	0.034482	0.118081	9.902533	0.000528	0.031868	0.090559	0.999996	0.000275	0.000338	0.002886
27671	0.061074	0.120413	9.871819	0.027172	0.034588	0.059957	0.999996	0.000273	0.000333	0.002886
27672	0.050559	0.138381	9.892792	0.016508	0.052361	0.081049	0.999996	0.000268	0.000340	0.002878
27673	0.037753	0.130008	9.853844	0.004063	0.044295	0.041986	0.999996	0.000272	0.000351	0.002875
27674	0.036586	0.129953	9.853849	0.002941	0.044100	0.041987	0.999996	0.000279	0.000344	0.002871
27675	0.058933	0.089200	9.899599	0.025222	0.003013	0.087457	0.999996	0.000281	0.000337	0.002878
27676	0.045897	0.137828	9.892823	0.011967	0.051677	0.081060	0.999996	0.000271	0.000347	0.002864
27677	0.044771	0.137680	9.892830	0.010826	0.051527	0.081062	0.999996	0.000282	0.000336	0.002857
27678	0.050585	0.150132	9.844132	0.016659	0.064276	0.032495	0.999996	0.000286	0.000339	0.002855
27679	0.003335	0.126849	9.884569	-0.030530	0.040353	0.072567	0.999996	0.000287	0.000342	0.002835
27680	0.029917	0.129152	9.853882	-0.003858	0.043075	0.041992	0.999996	0.000284	0.000339	0.002827
27681	0.040192	0.137115	9.892857	0.006265	0.050850	0.081069	0.999996	0.000279	0.000345	0.002829
27682	0.048478	0.118784	9.871909	0.014690	0.032717	0.059990	0.999996	0.000285	0.000336	0.002825
27683	0.058810	0.126903	9.910887	0.024801	0.040497	0.099073	0.999996	0.000286	0.000340	0.002805
27684	0.055454	0.100270	9.850971	0.022016	0.014429	0.038915	0.999996	0.000277	0.000358	0.002800
27685	0.035445	0.136387	9.892886	0.001696	0.050169	0.081074	0.999996	0.000278	0.000343	0.002780
27686	0.034399	0.136208	9.892892	0.000564	0.049975	0.081076	0.999996	0.000275	0.000349	0.002781
27687	0.060927	0.138587	9.862231	0.027255	0.052774	0.050526	0.999996	0.000280	0.000351	0.002769
27688	0.018040	0.158358	9.826183	-0.015548	0.072591	0.014507	0.999996	0.000277	0.000356	0.002750
27689	0.040144	0.117482	9.871962	0.006749	0.031542	0.060003	0.999996	0.000271	0.000363	0.002734
27690	-0.000075	0.106446	9.863645	-0.033438	0.020456	0.051454	0.999996	0.000265	0.000351	0.002728
27691	0.049502	0.125280	9.910958	0.015674	0.039144	0.099097	0.999996	0.000273	0.000342	0.002713
27692	0.027617	0.135233	9.892926	-0.006291	0.048948	0.081079	0.999996	0.000282	0.000342	0.002708
27693	0.033183	0.147674	9.844243	-0.000408	0.061764	0.032525	0.999996	0.000283	0.000364	0.002689
27694	0.034403	0.116819	9.871992	0.001067	0.030669	0.060008	0.999996	0.000281	0.000360	0.002679
27695	0.035261	0.143082	9.931930	0.001463	0.056385	0.120176	0.999996	0.000288	0.000351	0.002665
27696	0.011481	0.126571	9.853954	-0.022010	0.040294	0.041979	0.999996	0.000292	0.000355	0.002643
27697	0.031161	0.116612	9.872005	-0.002321	0.030163	0.060009	0.999996	0.000303	0.000354	0.002645
27698	0.030031	0.116432	9.872010	-0.003451	0.029970	0.060009	0.999996	0.000290	0.000355	0.002633
27699	0.019257	0.134304	9.892959	-0.014255	0.047736	0.081076	0.999996	0.000291	0.000367	0.002622
27700	0.027536	0.115970	9.872023	-0.005721	0.029612	0.060009	0.999996	0.000289	0.000364	0.002612
27701	0.023831	0.146425	9.844289	-0.009482	0.060357	0.032530	0.999997	0.000287	0.000368	0.002603
27702	0.025261	0.115576	9.872034	-0.007991	0.029268	0.060009	0.999997	0.000288	0.000363	0.002602
27703	0.014623	0.133570	9.892977	-0.018815	0.047025	0.081072	0.999997	0.000289	0.000366	0.002600
27704	0.052503	0.144274	9.901370	0.019056	0.057805	0.089686	0.999997	0.000290	0.000370	0.002589
27705	0.040148	0.135828	9.862375	0.006792	0.049705	0.050578	0.999997	0.000285	0.000358	0.002572
27706	0.020742	0.114847	9.872053	-0.012533	0.028566	0.060006	0.999997	0.000285	0.000371	0.002571
27707	0.016934	0.145302	9.844320	-0.016304	0.059311	0.032527	0.999997	0.000280	0.000368	0.002564
27708	0.029713	0.122818	9.911068	-0.003691	0.036164	0.099120	0.999997	0.000297	0.000365	0.002572
27709	0.005193	0.163228	9.865260	-0.028289	0.076852	0.053584	0.999997	0.000283	0.000365	0.002560
27710	-0.014175	0.142105	9.874926	-0.047597	0.055687	0.063000	0.999997	0.000280	0.000362	0.002550
27711	0.054243	0.124783	9.880496	0.020801	0.038725	0.068647	0.999997	0.000279	0.000357	0.002550
27712	0.022734	0.152458	9.883357	-0.010894	0.066362	0.071643	0.999997	0.000264	0.000359	0.002549
27713	0.031043	0.134061	9.862432	-0.002296	0.048320	0.050586	0.999997	0.000268	0.000370	0.002546
27714	0.041028	0.142250	9.901454	0.007651	0.056090	0.089711	0.999997	0.000275	0.000372	0.002552
27715	0.019084	0.151975	9.883372	-0.014307	0.065865	0.071642	0.999997	0.000270	0.000368	0.002545
27716	0.018045	0.151797	9.883377	-0.015448	0.065665	0.071641	0.999997	0.000274	0.000361	0.002550
27717	0.017040	0.151684	9.883380	-0.016590	0.065512	0.071641	0.999997	0.000276	0.000354	0.002558
27718	0.007313	0.112646	9.872097	-0.026127	0.026453	0.059985	0.999997	0.000279	0.000357	0.002556
27719	0.027014	0.102607	9.890196	-0.006449	0.016386	0.078063	0.999997	0.000275	0.000353	0.002567
27720	0.023313	0.133133	9.862466	-0.010249	0.047090	0.050587	0.999997	0.000281	0.000353	0.002571
27721	0.022110	0.132984	9.862471	-0.011385	0.046938	0.050587	0.999997	0.000276	0.000359	0.002573
27722	0.039357	0.153540	9.852846	0.005633	0.067737	0.041199	0.999997	0.000272	0.000337	0.002594
27723	0.040977	0.122608	9.880587	0.007157	0.036690	0.068674	0.999997	0.000267	0.000343	0.002596
27724	0.051004	0.130811	9.919622	0.017039	0.044471	0.107814	0.999997	0.000283	0.000340	0.002606
27725	0.038615	0.122409	9.880599	0.004889	0.036350	0.068677	0.999997	0.000268	0.000350	0.002604
27726	-0.013882	0.159827	9.865307	-0.047679	0.073803	0.053533	0.999997	0.000263	0.000347	0.002606
27727	0.064127	0.124575	9.850075	0.030563	0.039149	0.038259	0.999997	0.000264	0.000350	0.002604
27728	0.035150	0.121691	9.880621	0.001475	0.035812	0.068680	0.999997	0.000265	0.000345	0.002604
27729	0.022886	0.113288	9.841589	-0.010645	0.027685	0.029536	0.999996	0.000267	0.000347	0.002621
27730	0.032716	0.121336	9.880633	-0.000797	0.035464	0.068681	0.999997	0.000260	0.000364	0.002605
27731	0.031548	0.121066	9.880640	-0.001934	0.035313	0.068682	0.999996	0.000256	0.000350	0.002625
27732	0.030493	0.120832	9.880647	-0.003076	0.035122	0.068682	0.999996	0.000253	0.000355	0.002626
27733	0.019609	0.138769	9.901569	-0.014058	0.052823	0.089722	0.999996	0.000258	0.000356	0.002632
27734	0.028212	0.120602	9.880656	-0.005337	0.034775	0.068682	0.999996	0.000262	0.000350	0.002639
27735	0.035624	0.159425	9.891976	0.001791	0.073506	0.080365	0.999996	0.000263	0.000353	0.002638
27736	0.026023	0.120371	9.880665	-0.007601	0.034436	0.068682	0.999996	0.000267	0.000346	0.002646
27737	0.043157	0.140995	9.871076	0.009378	0.055324	0.059331	0.999996	0.000256	0.000345	0.002642
27738	0.030910	0.132520	9.832034	-0.002687	0.047139	0.020175	0.999996	0.000263	0.000347	0.002647
27739	0.049380	0.179586	9.882413	0.015342	0.093863	0.071023	0.999996	0.000258	0.000343	0.002640
27740	0.021683	0.119597	9.880685	-0.012135	0.033729	0.068680	0.999996	0.000262	0.000336	0.002645
27741	0.027656	0.132022	9.832051	-0.006079	0.046638	0.020176	0.999996	0.000258	0.000342	0.002648
27742	0.027815	0.158216	9.892021	-0.006196	0.072265	0.080372	0.999996	0.000265	0.000343	0.002652
27743	0.018238	0.119092	9.880698	-0.015546	0.033222	0.068677	0.999996	0.000257	0.000340	0.002655
27744	0.035283	0.139768	9.871125	0.001414	0.054080	0.059342	0.999996	0.000261	0.000342	0.002670
27745	0.034113	0.139686	9.871130	0.000275	0.053930	0.059343	0.999996	0.000266	0.000343	0.002676
27746	0.014780	0.118745	9.880708	-0.018943	0.032667	0.068673	0.999996	0.000273	0.000345	0.002682
27747	0.022192	0.157554	9.892046	-0.011903	0.071409	0.080373	0.999996	0.000268	0.000331	0.002702
27748	0.031012	0.139325	9.871146	-0.003128	0.053390	0.059345	0.999996	0.000272	0.000324	0.002709
27749	0.020089	0.157115	9.892057	-0.014194	0.071061	0.080372	0.999996	0.000258	0.000333	0.002725
27750	-0.001895	0.166593	9.873901	-0.036132	0.080680	0.062224	0.999996	0.000259	0.000328	0.002742
27751	0.016495	0.130248	9.832099	-0.017399	0.044888	0.020171	0.999996	0.000252	0.000334	0.002755
27752	0.008218	0.117389	9.880732	-0.025761	0.031604	0.068661	0.999996	0.000253	0.000329	0.002772
27753	0.025457	0.138128	9.871178	-0.008817	0.052536	0.059346	0.999996	0.000252	0.000313	0.002800
27754	0.015960	0.098997	9.859836	-0.018072	0.013438	0.047633	0.999996	0.000252	0.000327	0.002800
27755	0.053636	0.109994	9.868462	0.019667	0.024571	0.056483	0.999996	0.000254	0.000329	0.002817
27756	0.039936	0.158418	9.861648	0.005850	0.073085	0.050041	0.999996	0.000239	0.000340	0.002824
27757	0.023274	0.106593	9.898925	-0.010641	0.020935	0.086811	0.999996	0.000247	0.000330	0.002847
27758	0.037810	0.158112	9.861661	0.003565	0.072739	0.050045	0.999996	0.000248	0.000324	0.002864
27759	0.028377	0.119044	9.850311	-0.005663	0.033681	0.038325	0.999996	0.000253	0.000324	0.002888
27760	0.056356	0.148173	9.879857	0.022072	0.062591	0.068218	0.999996	0.000258	0.000326	0.002902
27761	0.026026	0.118820	9.850321	-0.007932	0.033322	0.038325	0.999996	0.000256	0.000330	0.002912
27762	0.045618	0.108898	9.868515	0.011732	0.023341	0.056499	0.999996	0.000257	0.000334	0.002939
27763	0.065315	0.099014	9.886713	0.031388	0.013408	0.074678	0.999996	0.000259	0.000327	0.002947
27764	0.054615	0.117006	9.907611	0.020241	0.031013	0.095696	0.999996	0.000269	0.000307	0.002959
27765	0.052463	0.090515	9.847640	0.018335	0.005060	0.035490	0.999996	0.000258	0.000315	0.002965
27766	0.052330	0.116568	9.907629	0.017962	0.030672	0.095702	0.999995	0.000259	0.000319	0.002973
27767	0.079165	0.119247	9.877225	0.044894	0.033866	0.065414	0.999995	0.000251	0.000316	0.002977
27768	0.057282	0.128873	9.859033	0.022973	0.043447	0.047232	0.999995	0.000264	0.000314	0.002979
27769	0.074277	0.149800	9.849522	0.039882	0.064434	0.037962	0.999995	0.000265	0.000317	0.002978
27770	0.065868	0.137002	9.898142	0.031450	0.051126	0.086440	0.999996	0.000266	0.000321	0.002968
27771	0.043966	0.146584	9.879943	0.009524	0.060739	0.068250	0.999995	0.000268	0.000314	0.002976
27772	0.034797	0.107502	9.868574	0.000399	0.021624	0.056510	0.999995	0.000272	0.000298	0.002973
27773	0.051883	0.128254	9.859071	0.017302	0.042620	0.047247	0.999996	0.000263	0.000305	0.002968
27774	0.040808	0.145937	9.879966	0.006116	0.060203	0.068256	0.999996	0.000254	0.000304	0.002963
27775	0.018836	0.155347	9.861759	-0.015807	0.069801	0.050054	0.999996	0.000250	0.000309	0.002966
27776	0.059301	0.135781	9.898201	0.024619	0.050110	0.086465	0.999996	0.000257	0.000301	0.002961
27777	0.047275	0.127488	9.859104	0.012769	0.041936	0.047257	0.999996	0.000267	0.000309	0.002955
27778	0.046090	0.127373	9.859111	0.011637	0.041742	0.047259	0.999996	0.000262	0.000306	0.002957
27779	0.025205	0.163114	9.900881	-0.009666	0.077120	0.089265	0.999996	0.000257	0.000302	0.002950
27780	0.005152	0.115771	9.850390	-0.029434	0.029965	0.038295	0.999996	0.000273	0.000289	0.002950
27781	0.041272	0.184021	9.891397	0.006060	0.097941	0.080021	0.999996	0.000272	0.000293	0.002941
27782	0.011153	0.154514	9.861784	-0.023777	0.068538	0.050047	0.999996	0.000269	0.000290	0.002933
27783	0.012708	0.123654	9.889507	-0.022152	0.037482	0.077505	0.999996	0.000270	0.000292	0.002931
27784	0.029594	0.144465	9.880028	-0.005273	0.058456	0.068267	0.999996	0.000268	0.000298	0.002932
27785	0.028344	0.144219	9.880035	-0.006414	0.058304	0.068267	0.999996	0.000263	0.000303	0.002915
27786	0.047922	0.134391	9.898281	0.013215	0.048397	0.086495	0.999996	0.000270	0.000304	0.002921
27787	0.025938	0.143920	9.880046	-0.008701	0.057961	0.068267	0.999996	0.000265	0.000309	0.002923
27788	0.016735	0.104873	9.868650	-0.017709	0.018821	0.056500	0.999996	0.000281	0.000296	0.002923
27789	0.044509	0.134173	9.898300	0.009797	0.047899	0.086502	0.999996	0.000279	0.000309	0.002923
27790	0.029703	0.156382	9.831469	-0.004752	0.070562	0.019816	0.999996	0.000283	0.000312	0.002920
27791	0.042102	0.133878	9.898315	0.007517	0.047548	0.086505	0.999996	0.000282	0.000306	0.002920
27792	0.027526	0.155967	9.831482	-0.007034	0.070223	0.019817	0.999996	0.000273	0.000305	0.002916
27793	0.019106	0.143055	9.880074	-0.015545	0.056905	0.068265	0.999996	0.000277	0.000306	0.002904
27794	0.048711	0.115369	9.877468	0.014249	0.029281	0.065521	0.999996	0.000284	0.000307	0.002909
27795	0.047607	0.115225	9.877475	0.013113	0.029132	0.065523	0.999996	0.000279	0.000303	0.002902
27796	0.046368	0.114985	9.877483	0.011980	0.028937	0.065525	0.999996	0.000276	0.000317	0.002913
27797	0.037928	0.102041	9.926073	0.003456	0.015614	0.113970	0.999996	0.000272	0.000304	0.002914
27798	0.016152	0.111569	9.907811	-0.018451	0.025097	0.095716	0.999996	0.000282	0.000303	0.002909
27799	0.053006	0.096647	9.856639	0.018762	0.010718	0.044545	0.999996	0.000286	0.000313	0.002906
27800	0.049750	0.153469	9.888929	0.015219	0.067199	0.077318	0.999996	0.000283	0.000318	0.002907
27801	0.030374	0.132241	9.898380	-0.003897	0.045820	0.086515	0.999996	0.000284	0.000330	0.002897
27802	0.026360	0.162763	9.870670	-0.007833	0.076526	0.059060	0.999996	0.000285	0.000334	0.002887
27803	0.048795	0.122438	9.916668	0.014590	0.035805	0.104781	0.999996	0.000299	0.000322	0.002889
27804	0.044319	0.126774	9.828959	0.010324	0.040738	0.017099	0.999996	0.000297	0.000327	0.002889
27805	0.025778	0.131705	9.898400	-0.008442	0.045112	0.086516	0.999996	0.000286	0.000326	0.002885
27806	0.045398	0.121847	9.916691	0.011189	0.035251	0.104788	0.999996	0.000290	0.000329	0.002882
27807	0.012707	0.122973	9.859267	-0.021252	0.036700	0.047263	0.999996	0.000288	0.000333	0.002874
27808	0.032308	0.113272	9.877559	-0.001614	0.026849	0.065538	0.999996	0.000297	0.000333	0.002868
27809	0.051953	0.103672	9.895855	0.018014	0.017049	0.083816	0.999996	0.000305	0.000332	0.002864
27810	0.055518	0.147060	9.819577	0.021500	0.060974	0.007935	0.999996	0.000311	0.000324	0.002862
27811	0.049827	0.103568	9.895867	0.015741	0.016722	0.083821	0.999996	0.000312	0.000326	0.002843
27812	0.045879	0.134064	9.868160	0.011789	0.047430	0.056369	0.999996	0.000310	0.000331	0.002843
27813	0.044679	0.133915	9.868168	0.010651	0.047281	0.056371	0.999996	0.000314	0.000332	0.002831
27814	0.054166	0.142144	9.907328	0.020011	0.055151	0.095635	0.999996	0.000314	0.000336	0.002822
27815	0.032204	0.151611	9.889030	-0.001892	0.064633	0.077346	0.999996	0.000319	0.000337	0.002810
27816	0.031118	0.151524	9.889035	-0.003018	0.064441	0.077347	0.999996	0.000322	0.000331	0.002800
27817	0.009288	0.160862	9.870732	-0.024919	0.073914	0.059052	0.999996	0.000311	0.000330	0.002796
27818	0.031691	0.120458	9.916762	-0.002458	0.033189	0.104801	0.999996	0.000324	0.000329	0.002780
27819	0.037911	0.133178	9.868206	0.003865	0.046255	0.056381	0.999996	0.000325	0.000332	0.002761
27820	0.036629	0.133054	9.868213	0.002732	0.046057	0.056382	0.999996	0.000329	0.000344	0.002750
27821	0.035494	0.132843	9.868220	0.001595	0.045906	0.056383	0.999996	0.000321	0.000331	0.002744
27822	0.034438	0.132604	9.868227	0.000451	0.045720	0.056384	0.999996	0.000321	0.000335	0.002735
27823	0.041112	0.171518	9.879685	0.006925	0.084543	0.068207	0.999996	0.000325	0.000336	0.002723
27824	0.014142	0.111214	9.877625	-0.019745	0.024076	0.065525	0.999996	0.000323	0.000331	0.002715
27825	0.041726	0.140518	9.907412	0.007471	0.053295	0.095662	0.999996	0.000324	0.000324	0.002705
27826	0.058734	0.161564	9.898034	0.024267	0.074404	0.086530	0.999996	0.000331	0.000317	0.002702
27827	0.059983	0.104533	9.865745	0.025873	0.017610	0.053744	0.999996	0.000332	0.000320	0.002682
27828	0.017545	0.149642	9.889097	-0.016676	0.062339	0.077347	0.999996	0.000323	0.000338	0.002677
27829	0.023612	0.162164	9.840554	-0.010319	0.075423	0.028937	0.999996	0.000325	0.000340	0.002676
27830	0.025240	0.131247	9.868273	-0.008615	0.044336	0.056387	0.999996	0.000315	0.000338	0.002673
27831	-0.764261	-0.073702	9.906033	-0.797760	-0.165545	0.089595	0.999996	0.000374	0.000278	0.002641
27832	-3.899690	0.142482	9.960818	-3.933989	0.030525	0.135608	0.999994	0.000299	0.000388	0.003526
27833	-4.139307	0.344854	9.811926	-4.176564	0.209406	-0.012739	0.999966	0.000384	0.000176	0.008207
27834	-4.848210	-1.284336	9.987369	-4.852764	-1.492038	0.143526	0.999871	0.000473	-0.000021	0.016039
27835	-0.815755	0.044753	10.010077	-0.854034	-0.078498	0.193988	0.999749	0.000403	0.000058	0.022401
27836	12.506719	0.859473	9.758859	12.419532	1.339282	0.003297	0.999711	0.001324	0.000132	0.023994
27837	3.214682	0.548115	10.062265	3.145480	0.580252	0.269624	0.999705	0.002410	-0.000422	0.024148
27838	1.628074	0.452981	9.892969	1.556156	0.388875	0.094571	0.999628	0.004005	-0.000798	0.026949
27839	0.317573	1.392673	10.006325	0.179594	1.232123	0.218088	0.999508	0.005172	-0.001555	0.030907
27840	2.017154	1.983458	9.799791	1.810907	1.919217	0.040030	0.999348	0.005994	-0.002434	0.035523
27841	2.899028	2.203014	9.544975	2.645234	2.204658	-0.194666	0.999145	0.007515	-0.002782	0.040550
27842	2.073816	2.194945	9.544331	1.808807	2.100347	-0.193475	0.998947	0.011224	-0.002086	0.044444
27843	0.689796	2.432571	9.717394	0.419660	2.134227	-0.010181	0.998797	0.016125	-0.000645	0.046314
27844	-0.439399	2.410562	10.790468	-0.668931	1.857872	1.074804	0.998644	0.021675	0.001598	0.047310
27845	-0.954940	2.379644	11.389764	-1.108906	1.643286	1.692526	0.998472	0.025573	0.005487	0.048668
27846	-1.702325	2.571570	11.625045	-1.760295	1.660847	1.968374	0.998218	0.029068	0.011194	0.050905
27847	-1.578591	2.642506	11.570401	-1.519756	1.687869	1.942694	0.997999	0.030535	0.016684	0.052786
27848	-0.951710	2.219990	12.022904	-0.717803	1.274277	2.362865	0.997784	0.031730	0.021660	0.054332
27849	-0.862341	1.621992	12.625535	-0.434742	0.631035	2.922724	0.997611	0.032267	0.025335	0.055587
27850	0.047174	2.330184	12.053438	0.440589	1.469125	2.367810	0.997492	0.032492	0.028130	0.056236
27851	0.253045	2.278408	12.245868	0.720577	1.428073	2.542781	0.997404	0.032538	0.030327	0.056621
27852	0.393465	2.030478	11.698417	0.892942	1.239418	1.968528	0.997350	0.032493	0.031470	0.056977
27853	-0.201028	2.788991	11.464042	0.221877	1.937850	1.825123	0.997313	0.032726	0.031922	0.057236
27854	-0.351276	2.137684	11.682996	0.164731	1.255837	2.001762	0.997282	0.032842	0.032005	0.057661
27855	0.013998	2.613431	11.677266	0.470406	1.766080	2.013066	0.997259	0.033066	0.031800	0.058053
27856	0.518438	2.713476	11.778852	0.960021	1.911921	2.095125	0.997237	0.033286	0.031626	0.058399
27857	0.516927	2.162645	12.050583	1.033516	1.343716	2.323501	0.997207	0.033356	0.031504	0.058938
27858	0.495882	2.578596	11.818945	0.947635	1.771355	2.126609	0.997150	0.033213	0.031673	0.059888
27859	0.574776	2.794024	12.621099	1.052453	1.944219	2.936486	0.997072	0.032936	0.031970	0.061159
27860	1.039223	2.515998	12.868216	1.561025	1.721725	3.133357	0.997012	0.032419	0.032098	0.062329
27861	0.757843	2.555649	12.441185	1.241508	1.773680	2.725311	0.996991	0.031625	0.031751	0.063246
27862	0.563337	2.763151	11.956571	0.966639	2.008105	2.268080	0.997016	0.030677	0.030417	0.063976
27863	1.466506	3.060143	11.046053	1.728906	2.501100	1.335659	0.997034	0.029642	0.028883	0.064888
27864	1.837624	3.342907	10.479438	1.989178	2.887263	0.773968	0.997010	0.028809	0.027632	0.066169
27865	1.933800	2.885004	10.700538	2.121023	2.453451	0.959780	0.996951	0.028082	0.026487	0.067819
27866	1.045512	2.537251	11.063989	1.280629	1.988506	1.338472	0.996821	0.027154	0.026156	0.070194
27867	-0.282800	2.807081	11.037163	-0.079124	2.096085	1.384578	0.996581	0.025828	0.027213	0.073614
27868	-0.810263	2.712934	10.570130	-0.602546	1.978939	0.932770	0.996297	0.024379	0.028781	0.077258
27869	0.311583	2.202658	9.867414	0.560731	1.717343	0.139739	0.995969	0.022904	0.030910	0.081025
27870	0.728315	1.894189	10.896744	1.110258	1.469485	1.117323	0.995631	0.021312	0.032818	0.084780
27871	0.530796	1.819802	11.083265	0.951958	1.397475	1.303646	0.995420	0.019572	0.033221	0.087479
27872	0.404191	2.367406	9.674444	0.628233	2.008771	-0.069335	0.995296	0.018087	0.032844	0.089332
27873	0.291288	2.331259	8.756935	0.447797	2.013364	-0.983796	0.995138	0.016983	0.032731	0.091331
27874	-0.208791	2.261403	9.170065	-0.011561	1.855183	-0.549547	0.994929	0.016167	0.033080	0.093601
27875	-0.742578	2.308131	9.326885	-0.533766	1.805901	-0.361577	0.994664	0.015671	0.033827	0.096200
27876	-0.591663	2.037459	9.407428	-0.320776	1.571713	-0.303334	0.994342	0.015384	0.035097	0.099075
27877	-0.126045	1.545947	9.674802	0.260188	1.177712	-0.088854	0.994051	0.015227	0.035865	0.101704
27878	0.438284	1.213394	9.285899	0.850593	0.982126	-0.528062	0.993818	0.015239	0.035758	0.103990
27879	0.672056	1.396122	10.063332	1.087381	1.186276	0.241258	0.993613	0.015292	0.035383	0.106056
27880	0.293973	1.267749	10.824504	0.787765	0.958682	1.018926	0.993427	0.015183	0.035063	0.107900
27881	-0.234159	1.392259	10.254105	0.194122	0.987939	0.489068	0.993247	0.014924	0.034648	0.109718
27882	-0.712406	1.270443	9.525460	-0.308205	0.789102	-0.213820	0.993106	0.014748	0.034230	0.111140
27883	-0.482571	1.089446	9.054150	-0.087227	0.678554	-0.706132	0.992995	0.014637	0.033858	0.112250
27884	0.113296	0.770734	8.694508	0.531650	0.513085	-1.114674	0.992898	0.014558	0.033656	0.113178
27885	-0.122146	0.513028	8.560804	0.344163	0.213059	-1.245212	0.992790	0.014598	0.033154	0.114262
27886	0.243958	0.562377	7.991562	0.642305	0.359509	-1.831520	0.992651	0.014777	0.032721	0.115563
27887	0.264376	0.583147	8.286013	0.676298	0.372724	-1.537927	0.992437	0.015075	0.033171	0.117225
27888	0.004201	0.321982	9.344795	0.568125	0.023148	-0.479652	0.992196	0.015320	0.034196	0.118929
27889	-0.463650	0.087754	9.513488	0.204932	-0.319574	-0.295076	0.991950	0.015317	0.035671	0.120530
27890	-0.634630	0.215532	9.066415	0.010570	-0.219013	-0.724185	0.991679	0.015246	0.037840	0.122098
27891	-0.716036	-0.072752	9.535120	0.081936	-0.527651	-0.265376	0.991367	0.015283	0.040409	0.123792
27892	-0.804780	-0.527301	10.313737	0.221650	-1.007390	0.494334	0.991095	0.015248	0.042813	0.125159
27893	-0.837525	-0.315221	10.226503	0.174055	-0.800647	0.420139	0.990919	0.015056	0.044538	0.125972
27894	-0.519055	-0.224210	9.467088	0.415864	-0.606583	-0.357291	0.990884	0.015020	0.045362	0.125955
27895	-0.240889	-0.271652	8.791329	0.641723	-0.565624	-1.055545	0.990929	0.015319	0.045360	0.125569
27896	0.212982	-0.313319	8.490273	1.059136	-0.493859	-1.394696	0.990981	0.016076	0.044900	0.125231
27897	0.359601	-0.542583	8.937295	1.289292	-0.709715	-0.973404	0.990952	0.017182	0.044143	0.125579
27898	0.391461	-0.437713	8.939739	1.281853	-0.622649	-0.967753	0.990886	0.018475	0.043113	0.126275
27899	-0.361462	-0.921457	9.226545	0.684069	-1.315729	-0.652464	0.990807	0.019858	0.041813	0.127115
27900	-1.625101	-1.262841	10.642436	-0.346899	-2.046987	0.826230	0.990724	0.020955	0.040610	0.127972
27901	-2.355246	-1.341855	11.176988	-0.998515	-2.349126	1.401473	0.990654	0.021216	0.040230	0.128593
27902	-2.427637	-1.506300	11.503424	-0.998059	-2.537213	1.722369	0.990610	0.020610	0.040594	0.128915
27903	-2.229097	-1.469968	11.159549	-0.839201	-2.415384	1.373322	0.990637	0.019285	0.040902	0.128815
27904	-2.521442	-1.065344	9.819025	-1.337725	-2.018730	0.088878	0.990728	0.017661	0.040881	0.128353
27905	-2.228774	-0.799642	8.810162	-1.213241	-1.621879	-0.917561	0.990895	0.016164	0.040888	0.127253
27906	-1.435868	-1.036139	8.757373	-0.403282	-1.622131	-1.035849	0.991115	0.014979	0.040557	0.125786
27907	-1.341793	-0.921189	8.950316	-0.343122	-1.473413	-0.842269	0.991371	0.014059	0.039612	0.124164
27908	-1.540070	-0.999826	8.839070	-0.553047	-1.581803	-0.941804	0.991647	0.013411	0.038059	0.122504
27909	-1.542113	-1.143623	8.916011	-0.551928	-1.714303	-0.871902	0.991923	0.012902	0.036101	0.120911
27910	-1.868335	-1.238661	9.427028	-0.852055	-1.889360	-0.347068	0.992200	0.012321	0.034000	0.119292
27911	-1.844771	-0.634698	6.168973	-1.224424	-1.201134	-3.574077	0.992423	0.011167	0.033297	0.117744
27912	-2.795462	0.691875	6.035278	-2.456501	-0.117561	-3.594201	0.992304	0.010445	0.035732	0.118095
27913	0.608370	-1.679785	9.222253	1.649233	-1.674237	-0.717709	0.992310	0.009395	0.037026	0.117734
27914	-1.813736	-0.433392	7.030194	-1.119778	-0.966757	-2.691426	0.992019	0.007759	0.039955	0.119338
27915	-0.400052	-0.142610	9.643880	0.428662	-0.371140	-0.176134	0.991783	0.007532	0.042007	0.120602
27916	-0.186287	-1.976021	11.036657	1.206475	-2.103527	1.135678	0.991762	0.006570	0.042004	0.120835
27917	-2.655780	-0.160577	8.096038	-1.861116	-0.884176	-1.543512	0.991729	0.005881	0.041957	0.121159
27918	-1.416267	-0.391569	8.428769	-0.580047	-0.809549	-1.314955	0.991722	0.005979	0.041931	0.121218
27919	-1.305564	-1.161506	9.691879	-0.186062	-1.545553	-0.088349	0.991687	0.006051	0.041703	0.121582
27920	-1.985668	-0.812611	9.716978	-0.933776	-1.374759	-0.001420	0.991690	0.006137	0.040983	0.121791
27921	-2.289757	-1.518401	10.397062	-1.017788	-2.142395	0.676434	0.991725	0.006035	0.040255	0.121758
27922	-2.442670	-1.490458	10.986532	-1.144069	-2.152611	1.275564	0.991786	0.005407	0.039405	0.121571
27923	-2.388840	-1.362091	10.633430	-1.173758	-1.995463	0.923793	0.991888	0.004416	0.038388	0.121095
27924	-1.610835	-1.204722	9.837427	-0.543370	-1.626737	0.080719	0.991992	0.003085	0.037384	0.120605
27925	-0.921565	-0.514300	8.264441	-0.172370	-0.757985	-1.517480	0.992032	0.001632	0.036961	0.120428
27926	-0.284166	-0.299943	7.206980	0.315331	-0.373917	-2.610466	0.991972	0.000489	0.037394	0.120802
27927	0.338110	-0.187209	7.713485	0.937604	-0.099578	-2.147300	0.991818	-0.000292	0.038489	0.121716
27928	0.479560	-0.490936	8.837286	1.250238	-0.342995	-1.044118	0.991598	-0.000953	0.039815	0.123072
27929	-0.322928	0.114856	8.952494	0.357234	0.064460	-0.860995	0.991321	-0.001583	0.041037	0.124885
27930	-0.270330	-1.210912	10.114195	0.849884	-1.187706	0.272118	0.991088	-0.002098	0.042153	0.126344
27931	-0.335643	-0.263168	10.130540	0.569228	-0.270359	0.307224	0.990838	-0.002870	0.042733	0.128083
27932	-0.843083	-0.445215	9.935613	0.118860	-0.561946	0.152025	0.990644	-0.003473	0.043041	0.129461
27933	-1.240847	-0.879662	10.587105	-0.094065	-1.065589	0.829491	0.990471	-0.004120	0.043168	0.130719
27934	-2.356750	-1.137075	11.338476	-1.038336	-1.580131	1.669179	0.990355	-0.005002	0.043073	0.131594
27935	-2.797253	-1.337559	11.173535	-1.429391	-1.869254	1.541793	0.990334	-0.006206	0.042735	0.131806
27936	-2.327598	-1.469299	10.169933	-1.036945	-1.858929	0.505893	0.990364	-0.007939	0.042290	0.131633
27937	-1.936052	0.619964	7.290751	-1.443930	0.231032	-2.386424	0.990372	-0.008690	0.042121	0.131582
27938	-1.992800	-0.525056	6.897966	-1.231031	-0.895172	-2.776205	0.990473	-0.007915	0.042456	0.130762
27939	-0.647600	-1.226293	7.929575	0.338234	-1.210803	-1.861532	0.990421	-0.007718	0.043416	0.130852
27940	-1.135168	-0.522917	8.759235	-0.224930	-0.636841	-0.990555	0.990215	-0.008358	0.044807	0.131896
27941	-0.910927	-0.694435	10.111347	0.173528	-0.701806	0.337616	0.990013	-0.009163	0.045932	0.132972
27942	-1.123077	-0.910634	8.958588	-0.058446	-0.971218	-0.790485	0.989819	-0.010315	0.046345	0.134181
27943	-1.126008	-0.235101	8.846027	-0.243280	-0.311878	-0.900959	0.989637	-0.010502	0.046719	0.135374
27944	-0.947500	-0.519714	10.335834	0.138243	-0.505311	0.566276	0.989554	-0.010091	0.046556	0.136067
27945	-1.174233	-0.665665	10.276747	-0.050867	-0.725036	0.526807	0.989552	-0.009003	0.045877	0.136388
27946	-1.184868	-1.013003	10.077265	0.004990	-1.090743	0.325930	0.989516	-0.007947	0.045145	0.136954
27947	-0.544286	-1.199738	10.258086	0.674278	-1.112621	0.447495	0.989393	-0.007348	0.044358	0.138129
27948	-0.089635	-1.296303	10.014514	1.099059	-1.098494	0.165502	0.989181	-0.006841	0.042919	0.140113
27949	0.531280	-1.391692	9.692783	1.665614	-1.037094	-0.204401	0.988838	-0.005941	0.040619	0.143228
27950	0.511137	-1.336761	9.953696	1.606985	-1.001054	0.063521	0.988413	-0.005230	0.037337	0.147028
27951	0.767111	-2.707140	10.509144	2.228660	-2.241847	0.597212	0.987963	-0.004769	0.033145	0.151020
27952	0.610952	-2.723082	10.810483	2.032627	-2.309332	0.919968	0.987476	-0.004331	0.028575	0.155102
27953	0.815896	-2.459469	10.239793	2.056387	-2.004721	0.351969	0.986944	-0.004197	0.025564	0.158968
27954	0.725100	-2.186813	10.140988	1.867686	-1.769378	0.263452	0.986362	-0.004060	0.025829	0.162503
27955	-0.041291	-2.210362	10.556503	1.228283	-2.020065	0.710477	0.985695	-0.003982	0.029801	0.165838
27956	-0.246676	-3.491369	11.772606	1.616734	-3.275789	1.913326	0.985030	-0.003303	0.032745	0.169214
27957	1.200692	-3.268269	12.827676	3.013315	-2.603051	2.868647	0.984228	-0.000109	0.030846	0.174196
27958	2.275175	-2.294768	11.711891	3.623959	-1.354359	1.704404	0.983208	0.001560	0.030392	0.179932
27959	1.137210	-2.281980	12.265815	2.606683	-1.746654	2.316008	0.982034	0.002703	0.030091	0.186270
27960	1.106059	-1.260803	12.877822	2.249750	-0.808005	2.951992	0.980766	0.003441	0.029351	0.192935
27961	0.021695	-0.588941	13.624791	1.026151	-0.594118	3.773197	0.979463	0.003239	0.028360	0.199596
27962	-1.020278	0.424106	14.547269	-0.300663	-0.067529	4.773225	0.978162	0.002606	0.027303	0.206024
27963	-2.091435	1.636308	15.275712	-1.760932	0.607420	5.579812	0.976820	0.001633	0.026642	0.212391
27964	-2.912497	2.347366	15.743255	-2.800828	0.904802	6.098928	0.975318	0.000649	0.026781	0.219172
27965	-3.263434	2.971271	15.817817	-3.384268	1.298155	6.204281	0.973616	-0.000079	0.027713	0.226504
27966	-3.097021	3.951994	15.208145	-3.689351	2.213736	5.614086	0.971756	-0.000387	0.029417	0.234148
27967	-2.356617	5.539399	14.742602	-3.766207	3.906177	5.158617	0.969612	0.000045	0.031933	0.242555
27968	-2.779163	7.382608	14.567865	-5.012729	5.236391	5.083643	0.967068	0.001397	0.034887	0.252112
27969	-3.965896	8.430398	13.862947	-6.597857	5.429026	4.539068	0.964654	0.003327	0.038453	0.260679
27970	-3.232487	9.610975	13.275797	-6.577580	6.662077	4.022632	0.962408	0.006144	0.042709	0.268158
27971	-3.396491	10.455974	12.493277	-7.178281	7.131452	3.399276	0.960062	0.010097	0.047776	0.275493
27972	-3.642635	11.097971	11.817773	-7.735364	7.348750	2.924946	0.957685	0.015460	0.052964	0.282482
27973	-3.296952	11.278849	10.446494	-7.628143	7.486707	1.718360	0.955442	0.022156	0.058548	0.288466
27974	-3.021031	11.629458	9.128692	-7.677714	7.751754	0.611315	0.953505	0.029650	0.064019	0.293002
27975	-2.875175	11.517574	7.504874	-7.626976	7.614712	-0.808099	0.951768	0.037477	0.070935	0.296146
27976	-2.671294	11.188356	7.182731	-7.203498	7.326262	-0.962003	0.950317	0.046390	0.077762	0.297823
27977	-2.763923	10.002059	6.018422	-6.681157	6.235247	-2.042296	0.949235	0.056166	0.084340	0.297802
27978	-2.118966	9.363462	5.302564	-5.790903	6.033515	-2.717792	0.948510	0.066352	0.091218	0.295982
27979	-1.328640	8.844602	5.054638	-4.753474	6.002588	-2.963664	0.947982	0.077085	0.097806	0.292955
27980	-1.109072	7.586566	4.561673	-3.845980	5.070630	-3.560721	0.947463	0.088700	0.103975	0.289199
27981	-0.823336	6.572023	4.745108	-2.866081	4.297837	-3.512309	0.946933	0.101191	0.110429	0.284402
27982	-0.413692	5.427905	4.924294	-1.725407	3.468605	-3.578155	0.946292	0.114527	0.116630	0.278949
27983	-1.599316	4.093736	5.060687	-1.833207	1.590285	-3.564957	0.945423	0.128114	0.122684	0.273332
27984	-2.087189	3.050971	5.032530	-1.599924	0.367537	-3.788258	0.944468	0.141960	0.128753	0.266928
27985	-1.024845	2.758361	4.836707	-0.521038	0.629143	-4.210658	0.943218	0.156321	0.134572	0.260372
27986	-0.570435	2.687318	4.498262	-0.107496	0.770646	-4.599852	0.941693	0.171015	0.139493	0.253990
27987	-0.279859	2.068518	4.190445	0.390932	0.381671	-5.163316	0.940099	0.185481	0.143480	0.247435
27988	0.102534	1.466347	4.329443	1.084926	-0.063456	-5.371729	0.938656	0.199174	0.146419	0.240450
27989	0.366568	0.843718	4.326878	1.604028	-0.543295	-5.726277	0.937482	0.211768	0.148113	0.233121
27990	0.479586	0.484031	4.735466	2.020996	-1.026261	-5.599615	0.936540	0.223323	0.148786	0.225571
27991	0.254604	0.433747	5.068588	1.989267	-1.410977	-5.341190	0.935947	0.233719	0.148298	0.217683
27992	0.587764	0.394645	5.238594	2.356224	-1.459214	-5.311361	0.935943	0.242166	0.147003	0.209181
27993	0.064443	0.248612	6.053700	2.237268	-2.243708	-4.648119	0.936493	0.248609	0.145121	0.200285
27994	0.759795	-0.159291	6.750257	3.187252	-2.646208	-4.426921	0.937782	0.253159	0.141852	0.190666
27995	0.960671	-0.488470	7.546163	3.678200	-3.262236	-3.987444	0.939513	0.255799	0.137999	0.181214
27996	0.311822	-0.651708	9.140235	3.601764	-4.444494	-2.647629	0.941367	0.257322	0.133753	0.172406
27997	-0.089296	-0.777916	9.952690	3.425185	-5.137487	-1.967830	0.943213	0.258228	0.129452	0.164039
27998	-0.097787	-0.352054	10.713495	3.438301	-5.198421	-1.091134	0.945003	0.258541	0.125526	0.156109
27999	-0.487250	0.124596	11.305280	3.039075	-5.263318	-0.266871	0.946636	0.258565	0.122127	0.148689
28000	-0.840871	0.480261	11.638878	2.632468	-5.279206	0.267020	0.947892	0.258911	0.119473	0.142097
28001	-0.952423	0.739249	11.798750	2.441168	-5.209472	0.558702	0.948688	0.259828	0.117528	0.136629
28002	-1.106740	1.692952	11.844602	2.069876	-4.536236	1.119989	0.948888	0.261691	0.116286	0.132689
28003	-0.924556	2.617465	11.648397	1.984051	-3.689918	1.405089	0.948369	0.265020	0.115370	0.130580
28004	-1.048652	2.828434	11.151775	1.679806	-3.411236	1.096136	0.947191	0.269774	0.114827	0.129869
28005	-0.475910	3.166849	10.535073	1.988906	-2.772774	0.656211	0.945664	0.275293	0.114711	0.129518
28006	0.070121	3.066048	9.873355	2.346488	-2.474521	-0.052653	0.944082	0.280835	0.114699	0.129174
28007	0.625517	2.933583	8.972621	2.652538	-2.057957	-0.967740	0.942595	0.285977	0.115068	0.128416
28008	0.768909	2.426910	9.230174	2.967989	-2.639656	-1.100634	0.941432	0.290123	0.115396	0.127349
28009	0.503746	2.282425	9.460318	2.816442	-3.025522	-0.988042	0.940696	0.293148	0.114991	0.126227
28010	-0.107967	2.558352	10.126678	2.374235	-3.395753	-0.224250	0.940406	0.294872	0.113802	0.125446
28011	-0.957601	2.897386	10.539062	1.604588	-3.629824	0.416351	0.940580	0.295245	0.112070	0.124822
28012	-1.416812	3.355072	10.375793	1.016723	-3.315271	0.622642	0.941073	0.294309	0.111011	0.124261
28013	-1.303840	3.814548	10.223713	0.989195	-2.807608	0.766243	0.941705	0.292527	0.111021	0.123669
28014	-1.320246	4.574606	9.900290	0.757730	-1.997982	0.963192	0.942243	0.290899	0.111423	0.123047
28015	-0.952648	5.284306	9.158967	0.790811	-0.897992	0.736542	0.942683	0.289611	0.112071	0.122121
28016	-0.412720	5.270615	8.519563	1.140698	-0.391525	0.141113	0.942895	0.289059	0.112831	0.121088
28017	0.389797	5.783319	7.927753	1.667377	0.561785	-0.150793	0.942766	0.289900	0.113001	0.119925
28018	0.385803	6.593247	8.012014	1.557757	1.131841	0.390462	0.942421	0.291872	0.111530	0.119221
28019	-0.808507	6.421026	8.040382	0.430454	0.579057	0.483423	0.941837	0.294793	0.108726	0.119247
28020	-1.540015	6.298009	8.184783	-0.243618	0.113214	0.625429	0.940674	0.298861	0.106699	0.120123
28021	-1.979015	6.407823	8.787243	-0.541699	-0.360729	1.222147	0.939064	0.303670	0.105425	0.121776
28022	-1.917557	5.756622	8.575327	-0.452429	-0.852721	0.647665	0.937283	0.308622	0.104381	0.123929
28023	-1.862404	5.458199	8.194200	-0.466927	-0.956608	0.150827	0.935851	0.312486	0.103557	0.125743
28024	-1.797397	5.679516	7.900183	-0.534814	-0.670743	0.044507	0.935010	0.314740	0.102764	0.127022
28025	-1.499573	5.665447	6.878036	-0.539067	-0.050984	-0.792703	0.934502	0.316169	0.102034	0.127797
28026	-1.089684	6.088275	6.449860	-0.347577	0.613168	-0.904356	0.934106	0.317319	0.101636	0.128158
28027	-0.115556	6.904954	6.015507	0.310184	1.759204	-0.830092	0.933990	0.318026	0.100763	0.127939
28028	0.231492	7.481346	5.825453	0.475599	2.399913	-0.648942	0.934217	0.318351	0.098941	0.126893
28029	0.138889	8.113629	5.686238	0.221555	2.914435	-0.344825	0.934109	0.319730	0.096526	0.126079
28030	-0.048609	8.369047	5.528061	-0.060954	3.088887	-0.270297	0.932976	0.323706	0.094575	0.125797
28031	-0.512900	8.494402	5.869365	-0.439698	2.728028	0.148725	0.930239	0.330927	0.094621	0.127241
28032	-1.527707	7.921960	9.154532	-0.431696	-0.147651	2.380955	0.927153	0.338962	0.095483	0.127969
28033	-2.702267	6.459095	9.938331	-1.066466	-2.221511	2.091872	0.925320	0.344691	0.094724	0.126481
28034	-0.742827	4.712005	8.836907	0.817610	-2.332731	-0.079500	0.924019	0.348896	0.095035	0.124209
28035	0.238624	4.901454	7.982828	1.515658	-1.438470	-0.678132	0.923253	0.351438	0.094866	0.122861
28036	-0.742768	4.817071	7.543792	0.484067	-1.551913	-0.979693	0.922445	0.353515	0.094565	0.123203
28037	-1.223038	6.069963	7.127239	-0.274537	-0.564184	-0.392280	0.921873	0.354748	0.095084	0.123543
28038	-0.875155	6.982466	6.855545	-0.143728	0.342734	0.004698	0.921508	0.355360	0.096053	0.123759
28039	-0.653965	7.308071	6.627705	-0.028507	0.772790	0.044493	0.921151	0.355973	0.096839	0.124040
28040	-1.465584	7.089827	6.165706	-0.874491	0.664685	-0.366897	0.920964	0.356310	0.097554	0.123903
28041	-0.854405	6.802448	7.116144	0.027365	0.027682	0.068668	0.920718	0.356820	0.098935	0.123163
28042	0.478500	6.731588	6.920226	1.267721	0.479748	-0.242137	0.920310	0.358009	0.098474	0.123131
28043	0.250625	6.681586	6.729734	0.973071	0.462502	-0.387486	0.919704	0.359950	0.095003	0.124715
28044	-2.484931	6.169509	7.747949	-1.344573	-1.410251	0.210850	0.919149	0.361747	0.092023	0.125837
28045	-1.617009	6.032751	8.025247	-0.477687	-1.469908	0.238397	0.918731	0.362938	0.089642	0.127177
28046	-1.586542	6.507954	7.800686	-0.629633	-1.014696	0.399807	0.918260	0.363880	0.087939	0.129061
28047	-1.578142	6.867669	7.078781	-0.903144	-0.312908	0.129690	0.918088	0.364203	0.086479	0.130354
28048	-1.249979	7.147989	7.210971	-0.639089	-0.111906	0.396782	0.918274	0.363907	0.085061	0.130801
28049	-1.222609	7.439863	6.383109	-0.898590	0.649433	0.003683	0.918786	0.363124	0.083582	0.130337
28050	-1.078818	7.929842	6.643729	-0.804534	0.885109	0.519524	0.919494	0.362092	0.082280	0.129031
28051	-0.797920	7.002615	6.811480	-0.353882	0.238614	-0.020483	0.920476	0.360780	0.080240	0.126979
28052	-0.038992	5.715699	7.448898	0.715810	-0.837207	-0.488343	0.921390	0.359813	0.077778	0.124602
28053	0.124939	5.198700	7.288671	0.890264	-1.041930	-0.964607	0.921886	0.359473	0.075548	0.123279
28054	-0.396181	6.110581	7.837935	0.325531	-0.897584	0.087701	0.922289	0.359108	0.073705	0.122445
28055	-0.718609	6.825312	7.923821	-0.113217	-0.528770	0.656112	0.922728	0.358603	0.072429	0.121372
28056	-0.639055	7.194856	7.982605	-0.099921	-0.274408	0.948866	0.923031	0.358403	0.071710	0.120075
28057	-0.378545	7.287974	7.976990	0.129661	-0.129199	0.997342	0.923284	0.358342	0.071108	0.118668
28058	-0.397404	7.111082	7.829538	0.111535	-0.163803	0.769742	0.923377	0.358625	0.070866	0.117225
28059	-0.644850	6.402591	8.072129	0.050986	-0.895370	0.471473	0.923370	0.359071	0.071106	0.115760
28060	-0.999749	6.523563	7.743870	-0.361517	-0.698047	0.331565	0.923135	0.359959	0.071774	0.114451
28061	-0.885594	6.724180	7.789529	-0.247935	-0.572323	0.496847	0.922803	0.361039	0.072637	0.113180
28062	-0.663244	6.685314	7.825995	0.006625	-0.587411	0.484609	0.922375	0.362280	0.073407	0.112198
28063	-0.747432	7.259410	7.952330	-0.110502	-0.310866	0.975653	0.921918	0.363533	0.074133	0.111422
28064	-0.716979	7.330871	7.817032	-0.094481	-0.188209	0.925899	0.921437	0.364759	0.075134	0.110722
28065	-0.933081	7.271578	7.755100	-0.275073	-0.269094	0.852199	0.920899	0.366061	0.076494	0.109966
28066	-0.890591	7.337617	7.854525	-0.186231	-0.299373	0.967057	0.920501	0.367023	0.077797	0.109176
28067	-1.292074	6.948010	7.616499	-0.538305	-0.528205	0.550058	0.920326	0.367462	0.078989	0.108313
28068	-1.085140	6.833020	7.681995	-0.278383	-0.599247	0.504486	0.920376	0.367395	0.080149	0.107263
28069	-0.986076	6.783856	7.425137	-0.207334	-0.428905	0.281801	0.920521	0.367052	0.081139	0.106444
28070	-0.990234	6.747456	7.596621	-0.148245	-0.559048	0.379605	0.920678	0.366722	0.081791	0.105728
28071	-0.967181	6.363468	7.384763	-0.108601	-0.671968	-0.040250	0.920813	0.366258	0.082477	0.105627
28072	-1.088629	6.849830	7.203834	-0.319870	-0.226910	0.179643	0.921050	0.365592	0.083047	0.105418
28073	-0.811434	6.931933	7.039708	-0.090255	0.026485	0.099866	0.921361	0.364822	0.083546	0.104973
28074	-0.959308	6.757995	7.054642	-0.195222	-0.124083	0.000833	0.921734	0.363967	0.084103	0.104217
28075	-1.032773	6.947516	6.927030	-0.306419	0.097524	0.047072	0.922156	0.363069	0.084586	0.103222
28076	-1.178192	6.474245	6.705164	-0.424395	-0.104765	-0.428017	0.922651	0.362022	0.085027	0.102107
28077	-1.319254	6.083812	6.680928	-0.507031	-0.377689	-0.702900	0.923151	0.361060	0.085225	0.100824
28078	-1.497944	6.052781	6.556977	-0.698188	-0.339987	-0.797653	0.923654	0.360168	0.085096	0.099499
28079	-2.190477	6.131251	6.544139	-1.379232	-0.422552	-0.694831	0.924116	0.359513	0.084599	0.097993
28080	-2.150559	5.936631	6.735406	-1.280061	-0.659705	-0.693455	0.924570	0.359126	0.083555	0.096010
28081	-1.762046	5.715515	6.599913	-0.920609	-0.624533	-0.975653	0.925004	0.358865	0.082061	0.094073
28082	-1.202749	6.078862	6.401000	-0.482043	-0.095941	-0.917163	0.925367	0.358812	0.080073	0.092401
28083	-1.167013	6.061629	6.724909	-0.405680	-0.312162	-0.698547	0.925611	0.359072	0.077590	0.091061
28084	-1.049486	6.143625	6.875711	-0.308067	-0.334683	-0.543713	0.925676	0.359769	0.074716	0.090046
28085	-1.028624	6.392521	6.853162	-0.366933	-0.155310	-0.393069	0.925530	0.360925	0.071492	0.089532
28086	-1.285636	6.423842	6.992671	-0.649107	-0.310856	-0.257705	0.925156	0.362620	0.067919	0.089332
28087	-0.682406	6.677842	7.576902	-0.044540	-0.433638	0.300575	0.924584	0.364726	0.064098	0.089508
28088	-0.937618	6.970402	7.642733	-0.386943	-0.378040	0.559567	0.923813	0.367179	0.060298	0.090069
28089	-0.732039	6.449481	7.916226	-0.146899	-0.951875	0.378971	0.922905	0.369948	0.056505	0.090512
28090	-0.638517	6.339033	7.980534	-0.102923	-1.121998	0.336680	0.921950	0.372898	0.052446	0.090577
28091	-0.754985	6.717530	8.079952	-0.322814	-1.020836	0.667466	0.920959	0.376034	0.048227	0.090041
28092	-0.437611	6.899795	7.914079	-0.131157	-0.786414	0.665622	0.920093	0.378777	0.044381	0.089372
28093	-0.287842	6.931235	7.788787	-0.071464	-0.706758	0.593317	0.919486	0.380898	0.040614	0.088394
28094	-0.005280	7.100028	8.024087	0.153770	-0.746307	0.874471	0.919142	0.382392	0.036944	0.087117
28095	-0.302243	7.535375	7.765176	-0.289468	-0.346171	1.002454	0.919196	0.382849	0.033548	0.085901
28096	-0.370148	7.063856	7.335166	-0.390332	-0.386361	0.362677	0.919270	0.382881	0.032028	0.085554
28097	-0.561527	7.082558	8.021679	-0.526118	-0.879689	0.853826	0.919841	0.381745	0.030489	0.085049
28098	-2.357246	7.367432	8.314365	-2.328463	-1.170427	1.240475	0.920709	0.379938	0.028880	0.084314
28099	-6.171273	6.831829	7.414335	-6.164192	-1.505206	0.160621	0.922027	0.377419	0.025411	0.082313
28100	-2.504489	4.916353	6.078875	-2.511806	-1.240295	-2.095977	0.922114	0.378108	0.019403	0.079770
28101	-0.868333	7.265153	8.034273	-1.119314	-0.720675	0.972152	0.922090	0.378947	0.013162	0.077304
28102	-0.064959	6.735995	7.584244	-0.385177	-0.658736	0.302441	0.922417	0.378746	0.008362	0.075024
28103	-0.032586	6.482566	7.430323	-0.398416	-0.717022	0.013873	0.922797	0.378327	0.004547	0.072757
28104	-0.387318	6.780209	7.839532	-0.815689	-0.833185	0.493611	0.923233	0.377703	0.001542	0.070565
28105	-0.457529	6.920346	7.805350	-0.948374	-0.703791	0.561758	0.923637	0.377085	-0.001121	0.068554
28106	-0.999680	6.235323	7.937899	-1.435858	-1.328782	0.140268	0.923913	0.376760	-0.004051	0.066482
28107	-1.189818	5.834710	7.386115	-1.636545	-1.227013	-0.548226	0.924341	0.376079	-0.006514	0.064159
28108	-1.311821	5.668540	7.540305	-1.764445	-1.444850	-0.565610	0.924712	0.375522	-0.008725	0.061765
28109	-1.491347	5.701634	7.671899	-1.976640	-1.512593	-0.464126	0.925039	0.375064	-0.011273	0.059180
28110	-1.456105	5.690131	7.648915	-1.980995	-1.481645	-0.491532	0.925311	0.374733	-0.014314	0.056299
28111	-1.337732	5.577397	7.655046	-1.898155	-1.537210	-0.564424	0.925521	0.374524	-0.017827	0.053147
28112	-0.953927	5.465030	7.561151	-1.558133	-1.505040	-0.688305	0.925667	0.374415	-0.021657	0.049846
28113	-0.467103	5.318971	7.532724	-1.113611	-1.544076	-0.777919	0.925744	0.374424	-0.025488	0.046417
28114	-0.003771	5.384766	7.514564	-0.712803	-1.451639	-0.710553	0.925776	0.374496	-0.029173	0.042904
28115	0.289508	5.384545	7.641312	-0.473300	-1.525772	-0.597774	0.925763	0.374648	-0.032541	0.039286
28116	0.457019	5.289272	7.744020	-0.344388	-1.662444	-0.578368	0.925701	0.374901	-0.035550	0.035534
28117	0.465731	5.167414	7.668741	-0.360191	-1.702502	-0.718717	0.925595	0.375231	-0.038412	0.031612
28118	0.416406	5.025031	7.618068	-0.431384	-1.777173	-0.862003	0.925432	0.375650	-0.041280	0.027531
28119	0.403122	5.005299	7.678685	-0.485889	-1.843314	-0.838074	0.925190	0.376179	-0.044371	0.023327
28120	0.358267	4.952137	7.657229	-0.571829	-1.876398	-0.899939	0.924877	0.376735	-0.048088	0.018979
28121	0.404698	4.882036	7.497747	-0.566581	-1.824114	-1.062515	0.924491	0.377284	-0.052579	0.014480
28122	0.660526	4.756383	7.342964	-0.360175	-1.820235	-1.237425	0.923988	0.377899	-0.057824	0.009788
28123	0.970651	4.723898	7.096133	-0.106723	-1.694455	-1.402618	0.923350	0.378564	-0.063960	0.004868
28124	1.276703	4.596827	6.833626	0.144126	-1.632137	-1.641161	0.922631	0.379154	-0.070675	-0.000168
28125	1.818098	4.489348	6.790713	0.594295	-1.733319	-1.675424	0.921814	0.379736	-0.077666	-0.005208
28126	2.335567	4.447476	6.485550	1.054911	-1.616853	-1.839648	0.920889	0.380386	-0.084647	-0.010201
28127	2.574972	4.478261	6.318917	1.223132	-1.537347	-1.890963	0.919824	0.381248	-0.091343	-0.015178
28128	2.739152	4.652245	6.301551	1.291001	-1.462667	-1.747390	0.918669	0.382209	-0.097770	-0.020118
28129	3.026686	4.624236	6.273645	1.493168	-1.542283	-1.732214	0.917449	0.383220	-0.103952	-0.024967
28130	3.431540	4.792373	6.303132	1.793354	-1.548952	-1.514758	0.916147	0.384391	-0.109726	-0.029645
28131	3.670666	5.101869	6.294577	1.941950	-1.416621	-1.248466	0.914846	0.385629	-0.114859	-0.033987
28132	3.647583	5.273724	6.182735	1.876228	-1.269210	-1.198071	0.913630	0.386804	-0.119241	-0.038002
28133	3.445023	5.169516	5.834299	1.717431	-1.110713	-1.539385	0.912530	0.387854	-0.122997	-0.041599
28134	3.143774	4.863486	5.691446	1.426750	-1.208872	-1.911286	0.911523	0.388781	-0.126317	-0.044922
28135	3.065176	4.735824	5.554086	1.350992	-1.220559	-2.108399	0.910518	0.389738	-0.129478	-0.047927
28136	3.032938	4.704677	5.339833	1.342585	-1.119604	-2.276756	0.909445	0.390857	-0.132517	-0.050794
28137	3.170781	4.910331	5.248304	1.463131	-0.978807	-2.156913	0.908309	0.392165	-0.135361	-0.053466
28138	3.277533	5.006909	5.004707	1.602845	-0.802514	-2.220250	0.907156	0.393531	-0.138077	-0.055996
28139	3.470021	5.166828	4.948416	1.769654	-0.736226	-2.095820	0.905923	0.395011	-0.140901	-0.058448
28140	3.806296	5.569308	4.927107	2.060094	-0.567288	-1.737082	0.904673	0.396548	-0.143627	-0.060730
28141	4.053904	5.862045	4.798132	2.302363	-0.380694	-1.543846	0.903487	0.398077	-0.146021	-0.062644
28142	3.755232	6.241277	4.758309	2.002744	-0.069975	-1.346237	0.902468	0.399431	-0.147978	-0.064100
28143	3.304743	6.505815	4.828562	1.528159	0.128983	-1.198169	0.901526	0.400613	-0.149915	-0.065472
28144	2.847899	6.890599	5.268313	0.927404	0.153978	-0.731823	0.900669	0.401674	-0.151681	-0.066675
28145	2.752282	7.201130	5.493112	0.738670	0.198005	-0.377610	0.899920	0.402592	-0.153264	-0.067636
28146	2.778008	7.356957	5.779640	0.645940	0.068434	-0.074906	0.899261	0.403462	-0.154505	-0.068390
28147	2.800532	7.246162	5.592666	0.713211	0.099891	-0.267582	0.898620	0.404350	-0.155588	-0.069100
28148	2.968582	7.354384	5.590250	0.855922	0.105211	-0.147979	0.897884	0.405475	-0.156594	-0.069810
28149	3.270843	7.502842	5.322756	1.218946	0.287437	-0.130009	0.897209	0.406728	-0.157035	-0.070200
28150	3.401303	7.456068	5.263086	1.360211	0.235815	-0.171318	0.896587	0.408255	-0.156591	-0.070280
28151	3.341957	7.682999	5.259710	1.313387	0.367692	-0.014657	0.895959	0.410041	-0.155529	-0.070241
28152	3.077238	8.212974	5.472495	1.006734	0.588033	0.459171	0.895336	0.411955	-0.154076	-0.070189
28153	2.671414	8.626760	5.470669	0.644793	0.920104	0.686033	0.894781	0.413754	-0.152530	-0.070059
28154	2.176422	8.973568	5.639026	0.139005	1.107405	0.949028	0.894160	0.415440	-0.151531	-0.070192
28155	2.112792	9.379041	5.711692	0.063563	1.291254	1.295068	0.893498	0.416958	-0.151142	-0.070456
28156	2.246976	9.721220	5.637175	0.213718	1.494158	1.547352	0.892846	0.418180	-0.151442	-0.070828
28157	2.385460	9.816681	5.684371	0.320523	1.455745	1.682865	0.892263	0.419147	-0.152007	-0.071254
28158	2.305985	9.740555	5.608136	0.261523	1.459309	1.564884	0.891721	0.419937	-0.152729	-0.071832
28159	2.141768	9.628960	5.525754	0.124441	1.468928	1.397340	0.891129	0.420755	-0.153585	-0.072569
28160	2.181629	9.589290	5.307436	0.223713	1.568848	1.249476	0.890428	0.421597	-0.154825	-0.073641
28161	2.297358	9.839986	5.292871	0.324173	1.681306	1.464978	0.889768	0.422366	-0.155986	-0.074750
28162	2.427740	9.911669	5.461008	0.380329	1.545526	1.651360	0.889255	0.422960	-0.156781	-0.075825
28163	2.457650	9.951513	5.338587	0.448848	1.633940	1.619807	0.888886	0.423383	-0.157262	-0.076800
28164	2.230731	9.912540	5.244712	0.273918	1.725664	1.487253	0.888639	0.423765	-0.157231	-0.077610
28165	1.966698	9.807148	5.285598	0.022443	1.690609	1.373327	0.888482	0.424083	-0.156950	-0.078235
28166	2.202566	10.410161	5.888926	0.071907	1.572178	2.246534	0.889701	0.422723	-0.153913	-0.077772
28167	1.711488	9.086498	4.294136	0.185245	2.062547	0.169538	0.889605	0.422970	-0.153681	-0.077989
28168	1.715057	9.961130	5.218920	-0.114569	1.923107	1.398520	0.889562	0.423224	-0.153114	-0.078208
28169	1.634548	9.971574	4.974020	-0.093360	2.123948	1.247376	0.889558	0.423502	-0.152353	-0.078240
28170	1.434493	9.832518	4.740489	-0.189866	2.254254	0.961851	0.889476	0.423910	-0.151644	-0.078341
28171	1.196568	9.845668	4.918553	-0.461465	2.183970	1.030670	0.889313	0.424468	-0.150940	-0.078526
28172	1.234879	9.766051	4.549851	-0.289619	2.378359	0.763763	0.888960	0.425213	-0.150626	-0.079094
28173	1.768626	9.711052	4.415177	0.267855	2.276556	0.754802	0.888489	0.426112	-0.150432	-0.079918
28174	2.242701	9.647702	4.416950	0.724978	2.081696	0.806078	0.888057	0.427045	-0.149941	-0.080658
28175	2.459370	9.653482	4.545951	0.903936	1.903524	0.932695	0.887649	0.428181	-0.148802	-0.081232
28176	2.398904	9.725422	4.764350	0.802429	1.773024	1.107474	0.887323	0.429401	-0.147013	-0.081613
28177	1.915876	9.780580	4.933462	0.327222	1.782575	1.159300	0.887038	0.430723	-0.144763	-0.081761
28178	1.425089	9.914859	4.960108	-0.103346	1.945173	1.193827	0.886765	0.432108	-0.142307	-0.081730
28179	1.143330	9.878083	4.750916	-0.264837	2.121496	0.998595	0.886478	0.433507	-0.139926	-0.081540
28180	0.749548	9.801295	4.677910	-0.584507	2.201378	0.832600	0.886129	0.434945	-0.137837	-0.081237
28181	0.485521	9.727726	4.483585	-0.751624	2.338691	0.624379	0.885672	0.436448	-0.136198	-0.080923
28182	0.507057	9.777736	4.323123	-0.665002	2.448861	0.584973	0.885120	0.437936	-0.135109	-0.080749
28183	0.963509	9.712540	4.382220	-0.243451	2.210111	0.652572	0.884527	0.439420	-0.134291	-0.080548
28184	1.667037	9.626123	4.171384	0.492899	2.100077	0.588675	0.883904	0.440872	-0.133732	-0.080384
28185	2.241890	9.461121	3.797685	1.154098	2.104163	0.346139	0.883291	0.442377	-0.133018	-0.080033
28186	2.258616	9.503017	4.338503	1.007274	1.681095	0.694002	0.882770	0.443797	-0.132058	-0.079508
28187	2.067020	9.798698	5.005584	0.637746	1.366671	1.280930	0.882500	0.444990	-0.130335	-0.078682
28188	1.755022	9.713863	5.734949	0.141153	0.815271	1.573452	0.882467	0.445865	-0.128120	-0.077723
28189	1.416212	9.465564	5.935448	-0.218023	0.584608	1.431987	0.882478	0.446616	-0.126011	-0.076729
28190	1.373634	9.263349	6.066028	-0.274742	0.360244	1.335759	0.882465	0.447344	-0.124108	-0.075731
28191	1.701028	8.997772	5.871432	0.112698	0.261186	1.061416	0.882475	0.448031	-0.122278	-0.074519
28192	1.811097	8.843219	5.815185	0.249933	0.176982	0.920679	0.882495	0.448660	-0.120643	-0.073164
28193	1.604421	9.089582	5.701313	0.101204	0.450470	1.026430	0.882563	0.449119	-0.119304	-0.071704
28194	1.271402	9.164802	5.717925	-0.215759	0.556114	1.047742	0.882694	0.449345	-0.118319	-0.070287
28195	0.951899	8.790912	5.689663	-0.520273	0.435659	0.680073	0.882840	0.449420	-0.117712	-0.068987
28196	0.753006	8.445728	5.550853	-0.683973	0.389282	0.291269	0.882839	0.449568	-0.117704	-0.068041
28197	1.081156	8.391889	5.728455	-0.429545	0.141390	0.395318	0.882700	0.449813	-0.118167	-0.067417
28198	1.725415	8.243565	5.585616	0.211481	0.014982	0.291152	0.882473	0.450119	-0.118906	-0.067059
28199	2.193872	8.198008	5.622264	0.636312	-0.153704	0.346138	0.882231	0.450501	-0.119417	-0.066759
28200	2.281698	8.209864	5.584613	0.721784	-0.145257	0.348702	0.882032	0.450912	-0.119521	-0.066431
28201	2.095101	8.153893	5.714105	0.503667	-0.244561	0.346688	0.881863	0.451354	-0.119284	-0.066093
28202	1.764589	8.141191	5.667077	0.200664	-0.149395	0.259350	0.881676	0.451858	-0.118892	-0.065851
28203	1.533940	8.166666	5.800408	-0.053506	-0.197661	0.318956	0.881480	0.452367	-0.118512	-0.065667
28204	1.492380	8.250465	5.862790	-0.107125	-0.199732	0.415621	0.881273	0.452818	-0.118349	-0.065632
28205	1.520038	8.339087	5.791797	-0.059932	-0.108799	0.452807	0.881073	0.453215	-0.118310	-0.065645
28206	1.442151	8.375970	5.763164	-0.125915	-0.056075	0.455308	0.880913	0.453550	-0.118181	-0.065710
28207	1.241703	8.358763	5.672897	-0.291613	0.043290	0.361082	0.880796	0.453840	-0.117947	-0.065701
