// General information: 
//  MT Manager version: 2021.0.0 
//  XDA version: 2021.0.0 build 5908 rev 109668 built on 2021-04-19
// Device information: 
//  DeviceId: 00B47AB0
//  ProductCode: MTW2-3A7G6
//  Firmware Version: 4.4.0
//  Hardware Version: 2.0.0
// Device settings: 
//  Filter Profile: human(46.1)
//  Option Flags: Orientation Smoother Disabled, Position/Velocity Smoother Disabled, Continuous Zero Rotation Update Disabled, AHS Disabled, ICC Disabled
// Coordinate system: ENU
PacketCounter	Acc_X	Acc_Y	Acc_Z	FreeAcc_E	FreeAcc_N	FreeAcc_U	Quat_q0	Quat_q1	Quat_q2	Quat_q3
06823	-0.036520	0.086121	9.684547	0.021731	0.009322	-0.127717	-1.000000	0.000122	-0.000394	-0.000061
06824	-0.065284	0.083823	9.677368	-0.007054	0.007042	-0.134741	-1.000000	0.000124	-0.000395	-0.000068
06825	-0.027701	0.059049	9.654511	0.030419	-0.017512	-0.158019	-1.000000	0.000125	-0.000397	-0.000060
06826	-0.068814	0.112666	9.679046	-0.010595	0.035914	-0.132813	-1.000000	0.000126	-0.000390	-0.000052
06827	-0.038087	0.085531	9.684547	0.020038	0.008847	-0.127713	-1.000000	0.000136	-0.000383	-0.000066
06828	-0.034077	0.116800	9.657876	0.023760	0.040347	-0.154158	-1.000000	0.000128	-0.000377	-0.000050
06829	-0.053056	0.087696	9.620657	0.004521	0.011476	-0.191493	-1.000000	0.000130	-0.000379	-0.000050
06830	-0.006509	0.118796	9.665061	0.051271	0.042271	-0.147122	-1.000000	0.000133	-0.000371	-0.000064
06831	-0.067817	0.082790	9.677359	-0.010015	0.006208	-0.134743	-1.000000	0.000134	-0.000373	-0.000063
06832	0.002475	0.091654	9.635029	0.059972	0.015442	-0.177421	-1.000000	0.000135	-0.000366	-0.000063
06833	-0.040245	0.084638	9.684546	0.017498	0.008132	-0.127707	-1.000000	0.000145	-0.000367	-0.000061
06834	-0.061987	0.084564	9.649004	-0.004433	0.008364	-0.163118	-1.000000	0.000139	-0.000369	-0.000061
06835	-0.033975	0.086848	9.656193	0.023504	0.010410	-0.156079	-1.000000	0.000125	-0.000355	-0.000070
06836	-0.060027	0.055489	9.647315	-0.002578	-0.020981	-0.165049	-1.000000	0.000128	-0.000371	-0.000078
06837	-0.037718	0.115785	9.657875	0.019959	0.039282	-0.154145	-1.000000	0.000130	-0.000373	-0.000078
06838	-0.038169	0.115644	9.657875	0.019535	0.039160	-0.154144	-1.000000	0.000131	-0.000374	-0.000069
06839	-0.073958	0.110992	9.679028	-0.016097	0.034361	-0.132815	-1.000000	0.000132	-0.000376	-0.000069
06840	-0.039066	0.115354	9.657875	0.018690	0.038922	-0.154141	-1.000000	0.000134	-0.000377	-0.000068
06841	-0.043912	0.083930	9.684536	0.014113	0.007178	-0.127701	-1.000000	0.000121	-0.000386	-0.000070
06842	-0.065569	0.083933	9.648986	-0.007805	0.007413	-0.163119	-1.000000	0.000129	-0.000372	-0.000068
06843	-0.013497	0.056830	9.690050	0.044325	-0.020003	-0.122583	-1.000000	0.000121	-0.000367	-0.000053
06844	-0.070566	0.052242	9.675646	-0.012805	-0.024453	-0.136683	-1.000000	0.000132	-0.000375	-0.000068
06845	-0.028704	0.058819	9.626153	0.028854	-0.017361	-0.186371	-1.000000	0.000133	-0.000376	-0.000060
06846	-0.064422	0.054165	9.647294	-0.006782	-0.022169	-0.165054	-1.000000	0.000135	-0.000370	-0.000059
06847	-0.036406	0.056298	9.654499	0.021151	-0.020119	-0.158000	-1.000000	0.000130	-0.000363	-0.000075
06848	-0.077545	0.109935	9.679012	-0.019900	0.033287	-0.132819	-1.000000	0.000132	-0.000364	-0.000074
06849	-0.018725	0.085008	9.691740	0.039088	0.008396	-0.120639	-1.000000	0.000143	-0.000372	-0.000089
06850	-0.043304	0.114117	9.657871	0.014477	0.037740	-0.154129	-1.000000	0.000129	-0.000382	-0.000083
06851	-0.015454	0.116416	9.665080	0.042408	0.039791	-0.147069	-1.000000	0.000123	-0.000376	-0.000083
06852	-0.044142	0.114131	9.657867	0.013633	0.037502	-0.154127	-1.000000	0.000123	-0.000378	-0.000075
06853	-0.041796	0.084854	9.656180	0.015921	0.008278	-0.156061	-1.000000	0.000126	-0.000371	-0.000089
06854	-0.039445	0.055569	9.654491	0.018206	-0.020949	-0.157996	-1.000000	0.000128	-0.000372	-0.000089
06855	-0.049652	0.082240	9.684523	0.008202	0.005515	-0.127693	-1.000000	0.000130	-0.000373	-0.000088
06856	-0.074005	0.111368	9.650649	-0.016405	0.034859	-0.161189	-1.000000	0.000123	-0.000367	-0.000088
06857	-0.050404	0.082094	9.684520	0.007356	0.005278	-0.127692	-1.000000	0.000125	-0.000369	-0.000088
06858	-0.043879	0.084379	9.656175	0.013810	0.007684	-0.156057	-1.000000	0.000113	-0.000378	-0.000098
06859	-0.044330	0.084440	9.656172	0.013390	0.007567	-0.156057	-1.000000	0.000106	-0.000372	-0.000098
06860	-0.026091	0.113340	9.693425	0.031722	0.036197	-0.118684	-1.000000	0.000115	-0.000365	-0.000096
06861	-0.052198	0.081769	9.684513	0.005665	0.004802	-0.127691	-1.000000	0.000118	-0.000382	-0.000097
06862	-0.020083	0.115336	9.665084	0.037761	0.038488	-0.147044	-1.000000	0.000111	-0.000375	-0.000097
06863	-0.041788	0.115421	9.629515	0.015878	0.038730	-0.182481	-1.000000	0.000105	-0.000385	-0.000090
06864	-0.074952	0.081627	9.648938	-0.017063	0.004802	-0.163130	-1.000000	0.000114	-0.000386	-0.000089
06865	-0.051352	0.052134	9.682817	0.006690	-0.024780	-0.129628	-1.000000	0.000123	-0.000379	-0.000087
06866	-0.047535	0.083406	9.656166	0.010438	0.006738	-0.156052	-1.000000	0.000117	-0.000396	-0.000089
06867	-0.055047	0.081162	9.684503	0.003129	0.004090	-0.127690	-1.000000	0.000104	-0.000382	-0.000097
06868	-0.048438	0.083464	9.656161	0.009596	0.006503	-0.156051	-1.000000	0.000106	-0.000399	-0.000090
06869	-0.046310	0.054186	9.654469	0.011892	-0.022720	-0.157990	-1.000000	0.000108	-0.000400	-0.000097
06870	-0.049401	0.083152	9.656158	0.008754	0.006267	-0.156050	-1.000000	0.000110	-0.000394	-0.000097
06871	-0.031264	0.112120	9.693424	0.027066	0.034897	-0.118665	-1.000000	0.000104	-0.000396	-0.000097
06872	-0.050228	0.083011	9.656155	0.007906	0.006029	-0.156050	-1.000000	0.000104	-0.000397	-0.000089
06873	-0.025028	0.114222	9.665086	0.033111	0.037193	-0.147022	-1.000000	0.000106	-0.000391	-0.000089
06874	-0.053777	0.111982	9.657844	0.004346	0.034898	-0.154109	-1.000000	0.000093	-0.000400	-0.000098
06875	-0.051565	0.082691	9.656151	0.006645	0.005675	-0.156048	-1.000000	0.000111	-0.000400	-0.000103
06876	-0.056358	0.051112	9.682795	0.002039	-0.026086	-0.129629	-1.000000	0.000096	-0.000402	-0.000097
06877	-0.045394	0.084855	9.627811	0.012703	0.007974	-0.184407	-1.000000	0.000098	-0.000404	-0.000097
06878	-0.052913	0.082461	9.656146	0.005376	0.005318	-0.156047	-1.000000	0.000093	-0.000405	-0.000105
06879	-0.050554	0.053185	9.654453	0.007677	-0.023904	-0.157988	-1.000000	0.000102	-0.000398	-0.000104
06880	-0.035157	0.111126	9.693422	0.023245	0.033828	-0.118651	-1.000000	0.000104	-0.000399	-0.000104
06881	-0.054029	0.082022	9.656143	0.004112	0.004966	-0.156047	-1.000000	0.000097	-0.000393	-0.000096
06882	-0.028904	0.113149	9.665088	0.029304	0.036130	-0.147006	-1.000000	0.000114	-0.000401	-0.000102
06883	-0.036425	0.110606	9.693424	0.021974	0.033475	-0.118647	-1.000000	0.000108	-0.000395	-0.000102
06884	-0.065183	0.108389	9.686167	-0.006791	0.031177	-0.125747	-1.000000	0.000101	-0.000405	-0.000088
06885	-0.037419	0.110622	9.693420	0.021127	0.033239	-0.118644	-1.000000	0.000096	-0.000406	-0.000096
06886	-0.027973	0.083659	9.663393	0.030339	0.006553	-0.148942	-1.000000	0.000105	-0.000400	-0.000095
06887	-0.056709	0.081196	9.656135	0.001580	0.004257	-0.156046	-1.000000	0.000108	-0.000408	-0.000102
06888	-0.036024	0.081034	9.691725	0.022581	0.003776	-0.120584	-1.000000	0.000101	-0.000410	-0.000095
06889	-0.050440	0.083214	9.627800	0.007654	0.006562	-0.184400	-1.000000	0.000118	-0.000395	-0.000100
06890	-0.057968	0.080668	9.656132	0.000315	0.003899	-0.156045	-1.000000	0.000112	-0.000412	-0.000101
06891	-0.037227	0.080811	9.691722	0.021314	0.003421	-0.120581	-1.000000	0.000082	-0.000400	-0.000096
06892	-0.058888	0.081035	9.656123	-0.000528	0.003664	-0.156045	-1.000000	0.000085	-0.000416	-0.000105
06893	-0.062213	0.110054	9.657815	-0.003677	0.032652	-0.154101	-1.000000	0.000080	-0.000417	-0.000113
06894	-0.038726	0.080768	9.691717	0.020044	0.003064	-0.120578	-1.000000	0.000082	-0.000418	-0.000112
06895	-0.041909	0.109737	9.693411	0.016893	0.032052	-0.118632	-1.000000	0.000084	-0.000420	-0.000112
06896	-0.032521	0.082775	9.663386	0.026124	0.005372	-0.148929	-1.000000	0.000086	-0.000421	-0.000119
06897	-0.025858	0.084915	9.635057	0.032630	0.007800	-0.177280	-1.000000	0.000090	-0.000421	-0.000134
06898	-0.071533	0.107091	9.686137	-0.012712	0.029511	-0.125748	-1.000000	0.000082	-0.000424	-0.000119
06899	-0.062163	0.080383	9.656108	-0.003473	0.002836	-0.156046	-1.000000	0.000067	-0.000426	-0.000113
06900	-0.062609	0.080233	9.656107	-0.003898	0.002713	-0.156046	-1.000000	0.000085	-0.000426	-0.000118
06901	-0.072888	0.106729	9.686131	-0.013980	0.029154	-0.125748	-1.000000	0.000087	-0.000427	-0.000118
06902	-0.063418	0.079782	9.656105	-0.004739	0.002474	-0.156046	-1.000000	0.000088	-0.000421	-0.000117
06903	-0.038387	0.111048	9.665079	0.020441	0.033646	-0.146974	-1.000000	0.000084	-0.000438	-0.000126
06904	-0.038985	0.110965	9.665078	0.020015	0.033525	-0.146973	-1.000000	0.000084	-0.000439	-0.000118
06905	-0.008326	0.083928	9.670663	0.050662	0.006490	-0.141791	-1.000000	0.000087	-0.000432	-0.000133
06906	-0.039803	0.110798	9.665076	0.019168	0.033287	-0.146970	-1.000000	0.000073	-0.000442	-0.000127
06907	-0.040332	0.110662	9.665076	0.018747	0.033170	-0.146969	-1.000000	0.000089	-0.000443	-0.000117
06908	-0.045226	0.079004	9.691703	0.014119	0.001395	-0.120567	-1.000000	0.000083	-0.000452	-0.000118
06909	-0.064105	0.049819	9.654390	-0.004957	-0.027461	-0.157996	-1.000000	0.000092	-0.000445	-0.000116
06910	-0.067223	0.078799	9.656087	-0.008118	0.001520	-0.156048	-1.000000	0.000085	-0.000447	-0.000109
06911	-0.039389	0.080971	9.663376	0.019792	0.003590	-0.148913	-1.000000	0.000087	-0.000449	-0.000109
06912	-0.039839	0.080830	9.663375	0.019370	0.003470	-0.148912	-1.000000	0.000088	-0.000450	-0.000101
06913	-0.037467	0.051501	9.661676	0.021689	-0.025751	-0.150860	-1.000000	0.000096	-0.000444	-0.000099
06914	-0.050450	0.107266	9.693398	0.008839	0.029784	-0.118614	-1.000000	0.000090	-0.000445	-0.000100
06915	-0.041105	0.080319	9.663374	0.018105	0.003117	-0.148910	-1.000000	0.000100	-0.000454	-0.000099
06916	-0.041552	0.080170	9.663373	0.017680	0.002995	-0.148909	-1.000000	0.000094	-0.000448	-0.000099
06917	-0.037549	0.111605	9.636750	0.021469	0.034536	-0.175303	-1.000000	0.000089	-0.000449	-0.000107
06918	-0.049426	0.077762	9.691693	0.009886	0.000203	-0.120562	-1.000000	0.000089	-0.000443	-0.000099
06919	-0.045425	0.109068	9.665071	0.013676	0.031744	-0.146956	-1.000000	0.000091	-0.000444	-0.000098
06920	-0.043053	0.079813	9.663370	0.015995	0.002524	-0.148906	-1.000000	0.000091	-0.000438	-0.000090
06921	-0.043358	0.079752	9.663369	0.015575	0.002407	-0.148905	-1.000000	0.000085	-0.000432	-0.000091
06922	-0.043805	0.079538	9.663369	0.015151	0.002286	-0.148904	-1.000000	0.000101	-0.000441	-0.000081
06923	-0.046996	0.108424	9.665071	0.011988	0.031272	-0.146952	-1.000000	0.000097	-0.000434	-0.000096
06924	-0.037411	0.081622	9.635047	0.021263	0.004606	-0.177246	-1.000000	0.000090	-0.000428	-0.000097
06925	-0.044920	0.079292	9.663366	0.013884	0.001932	-0.148902	-1.000000	0.000084	-0.000429	-0.000097
06926	-0.045373	0.079289	9.663363	0.013459	0.001808	-0.148902	-1.000000	0.000078	-0.000431	-0.000098
06927	-0.055781	0.105923	9.693384	0.003332	0.028235	-0.118606	-1.000000	0.000088	-0.000439	-0.000097
06928	-0.013747	0.112603	9.644058	0.045157	0.035423	-0.168133	-1.000000	0.000089	-0.000441	-0.000096
06929	-0.056756	0.105627	9.693381	0.002484	0.027995	-0.118605	-1.000000	0.000082	-0.000443	-0.000089
06930	-0.075445	0.076589	9.656044	-0.016551	-0.000861	-0.156059	-1.000000	0.000077	-0.000428	-0.000105
06931	-0.043149	0.110267	9.636742	0.015572	0.032878	-0.175286	-1.000000	0.000072	-0.000437	-0.000105
06932	-0.058107	0.105525	9.693374	0.001213	0.027639	-0.118604	-1.000000	0.000073	-0.000454	-0.000098
06933	-0.041588	0.080919	9.635036	0.017479	0.003542	-0.177238	-1.000000	0.000076	-0.000448	-0.000105
06934	-0.049104	0.078440	9.663352	0.010085	0.000859	-0.148897	-1.000000	0.000076	-0.000449	-0.000097
06935	-0.052233	0.107411	9.665055	0.006915	0.029844	-0.146942	-1.000000	0.000078	-0.000442	-0.000104
06936	-0.068223	0.049180	9.626008	-0.009356	-0.028114	-0.186358	-1.000000	0.000072	-0.000444	-0.000105
06937	-0.032002	0.107237	9.700691	0.027419	0.029239	-0.111434	-1.000000	0.000067	-0.000453	-0.000105
06938	-0.050822	0.077990	9.663347	0.008395	0.000384	-0.148896	-1.000000	0.000082	-0.000446	-0.000095
06939	-0.051194	0.077844	9.663346	0.007975	0.000267	-0.148895	-1.000000	0.000070	-0.000448	-0.000104
06940	-0.033429	0.106865	9.700690	0.026143	0.028882	-0.111429	-1.000000	0.000071	-0.000465	-0.000097
06941	-0.052316	0.077680	9.663341	0.007132	0.000031	-0.148895	-1.000000	0.000073	-0.000458	-0.000104
06942	-0.073808	0.077684	9.627696	-0.014634	0.000277	-0.184406	-1.000000	0.000067	-0.000460	-0.000104
06943	-0.020392	0.111229	9.644062	0.038833	0.033656	-0.168099	-1.000000	0.000069	-0.000453	-0.000103
06944	-0.053438	0.077451	9.663337	0.005860	-0.000329	-0.148894	-1.000000	0.000063	-0.000455	-0.000104
06945	-0.061039	0.074955	9.691649	-0.001544	-0.003012	-0.120557	-1.000000	0.000073	-0.000455	-0.000110
06946	-0.054249	0.077202	9.663335	0.005013	-0.000566	-0.148893	-1.000000	0.000060	-0.000449	-0.000119
06947	-0.033500	0.076951	9.698982	0.025925	-0.001051	-0.113377	-1.000000	0.000077	-0.000449	-0.000124
06948	-0.057897	0.105937	9.665039	0.001414	0.028298	-0.146935	-1.000000	0.000070	-0.000459	-0.000110
06949	-0.020159	0.081426	9.642358	0.039056	0.003847	-0.170044	-1.000000	0.000064	-0.000453	-0.000110
06950	-0.055970	0.076761	9.663328	0.003324	-0.001041	-0.148893	-1.000000	0.000065	-0.000454	-0.000110
06951	-0.035161	0.076531	9.698980	0.024230	-0.001527	-0.113372	-1.000000	0.000066	-0.000440	-0.000109
06952	-0.056495	0.076551	9.663327	0.002479	-0.001281	-0.148892	-1.000000	0.000060	-0.000434	-0.000109
06953	-0.031447	0.108000	9.672374	0.027616	0.029904	-0.139745	-1.000000	0.000046	-0.000444	-0.000104
06954	-0.050010	0.078895	9.635013	0.008633	0.001052	-0.177226	-1.000000	0.000055	-0.000414	-0.000116
06955	-0.007932	0.078340	9.706324	0.050853	0.000197	-0.106177	-1.000000	0.000073	-0.000414	-0.000122
06956	-0.060595	0.105071	9.665032	-0.001962	0.027347	-0.146933	-1.000000	0.000066	-0.000424	-0.000108
06957	-0.030079	0.078056	9.670669	0.028693	0.000332	-0.141699	-1.000000	0.000077	-0.000425	-0.000121
06958	-0.058864	0.075631	9.663320	-0.000046	-0.001991	-0.148892	-1.000000	0.000071	-0.000434	-0.000122
06959	-0.044963	0.080233	9.606701	0.013535	0.003038	-0.205556	-1.000000	0.000073	-0.000427	-0.000129
06960	-0.062448	0.104579	9.665026	-0.003654	0.026870	-0.146932	-1.000000	0.000067	-0.000428	-0.000130
06961	-0.031938	0.077711	9.670666	0.027001	-0.000144	-0.141694	-1.000000	0.000062	-0.000438	-0.000130
06962	-0.060648	0.075224	9.663312	-0.001736	-0.002469	-0.148893	-1.000000	0.000079	-0.000430	-0.000135
06963	-0.032752	0.077333	9.670666	0.026157	-0.000382	-0.141692	-1.000000	0.000064	-0.000433	-0.000129
06964	-0.092437	0.101872	9.657663	-0.033655	0.024190	-0.154134	-1.000000	0.000073	-0.000426	-0.000128
06965	-0.026394	0.079393	9.642360	0.032321	0.001957	-0.170019	-1.000000	0.000075	-0.000435	-0.000128
06966	-0.047929	0.079406	9.606694	0.010594	0.002208	-0.205552	-1.000000	0.000069	-0.000429	-0.000128
06967	-0.062590	0.074634	9.663304	-0.003844	-0.003061	-0.148893	-1.000000	0.000071	-0.000422	-0.000135
06968	-0.034692	0.076736	9.670664	0.024042	-0.000975	-0.141686	-1.000000	0.000073	-0.000423	-0.000134
06969	-0.091755	0.072222	9.655937	-0.032999	-0.005503	-0.156102	-1.000000	0.000059	-0.000433	-0.000129
06970	-0.000147	0.081408	9.649720	0.058519	0.003569	-0.162802	-1.000000	0.000054	-0.000418	-0.000143
06971	-0.038812	0.105686	9.672373	0.020008	0.027768	-0.139720	-1.000000	0.000070	-0.000435	-0.000134
06972	-0.067600	0.103209	9.665006	-0.008726	0.025441	-0.146931	-1.000000	0.000064	-0.000429	-0.000135
06973	-0.039711	0.105395	9.672372	0.019162	0.027531	-0.139718	-1.000000	0.000066	-0.000430	-0.000134
06974	-0.037310	0.076134	9.670659	0.021506	-0.001689	-0.141680	-1.000000	0.000067	-0.000424	-0.000134
06975	-0.037609	0.075991	9.670659	0.021086	-0.001806	-0.141679	-1.000000	0.000068	-0.000417	-0.000133
06976	-0.073442	0.071307	9.691590	-0.014665	-0.006717	-0.120570	-1.000000	0.000062	-0.000419	-0.000133
06977	-0.031320	0.078271	9.642354	0.027265	0.000536	-0.170003	-1.000000	0.000056	-0.000429	-0.000127
06978	-0.060033	0.075805	9.634980	-0.001466	-0.001794	-0.177222	-1.000000	0.000071	-0.000422	-0.000117
06979	-0.067670	0.073221	9.663281	-0.008909	-0.004493	-0.148897	-1.000000	0.000067	-0.000430	-0.000132
06980	-0.035431	0.106929	9.644067	0.023226	0.029278	-0.168034	-1.000000	0.000061	-0.000424	-0.000133
06981	-0.068409	0.073048	9.663277	-0.009754	-0.004730	-0.148898	-1.000000	0.000071	-0.000417	-0.000139
06982	-0.036017	0.106553	9.644069	0.022383	0.029042	-0.168032	-1.000000	0.000072	-0.000411	-0.000138
06983	-0.043664	0.104049	9.672370	0.014934	0.026342	-0.139707	-1.000000	0.000074	-0.000420	-0.000138
06984	-0.044191	0.104042	9.672367	0.014509	0.026221	-0.139706	-1.000000	0.000060	-0.000421	-0.000139
06985	-0.041875	0.075015	9.670650	0.016863	-0.002995	-0.141671	-1.000000	0.000053	-0.000424	-0.000125
06986	-0.080644	0.099293	9.693279	-0.021677	0.021185	-0.118612	-1.000000	0.000070	-0.000432	-0.000130
06987	-0.042838	0.074566	9.670649	0.016016	-0.003234	-0.141670	-1.000000	0.000064	-0.000426	-0.000131
06988	-0.064349	0.074671	9.634961	-0.005676	-0.002980	-0.177224	-1.000000	0.000057	-0.000436	-0.000116
06989	-0.043751	0.074512	9.670645	0.015172	-0.003471	-0.141669	-1.000000	0.000059	-0.000429	-0.000123
06990	-0.079514	0.069803	9.691553	-0.020591	-0.008390	-0.120582	-1.000000	0.000054	-0.000422	-0.000131
06991	-0.047122	0.103451	9.672360	0.011551	0.025391	-0.139700	-1.000000	0.000056	-0.000416	-0.000138
06992	-0.044782	0.074179	9.670643	0.013908	-0.003828	-0.141667	-1.000000	0.000058	-0.000425	-0.000138
06993	-0.069208	0.103301	9.636667	-0.010552	0.025528	-0.175257	-1.000000	0.000052	-0.000434	-0.000139
06994	-0.048535	0.103191	9.672356	0.010284	0.025032	-0.139697	-1.000000	0.000047	-0.000419	-0.000154
06995	-0.045982	0.074084	9.670638	0.012644	-0.004183	-0.141665	-1.000000	0.000039	-0.000414	-0.000139
06996	-0.049065	0.103055	9.672354	0.009438	0.024796	-0.139696	-1.000000	0.000050	-0.000407	-0.000153
06997	-0.056720	0.100455	9.700650	0.001972	0.022089	-0.111376	-1.000000	0.000052	-0.000416	-0.000153
06998	-0.082717	0.068994	9.691532	-0.023974	-0.009345	-0.120591	-1.000000	0.000046	-0.000417	-0.000153
06999	-0.019432	0.075737	9.678034	0.039253	-0.002441	-0.134417	-1.000000	0.000055	-0.000418	-0.000152
07000	-0.071952	0.102454	9.636656	-0.013505	0.024697	-0.175259	-1.000000	0.000057	-0.000419	-0.000151
07001	-0.020327	0.075374	9.678035	0.038407	-0.002677	-0.134414	-1.000000	0.000058	-0.000421	-0.000143
07002	-0.080003	0.099951	9.664946	-0.021397	0.021869	-0.146942	-1.000000	0.000045	-0.000415	-0.000152
07003	-0.077669	0.070769	9.663224	-0.019033	-0.007346	-0.148914	-1.000000	0.000052	-0.000424	-0.000136
07004	-0.049936	0.072820	9.670628	0.008841	-0.005250	-0.141662	-1.000000	0.000055	-0.000425	-0.000143
07005	-0.043084	0.075110	9.642334	0.015477	-0.002773	-0.169977	-1.000000	0.000048	-0.000420	-0.000136
07006	-0.022437	0.075017	9.678034	0.036294	-0.003269	-0.134406	-1.000000	0.000043	-0.000421	-0.000144
07007	-0.053933	0.101856	9.672341	0.004790	0.023494	-0.139689	-1.000000	0.000036	-0.000423	-0.000137
07008	-0.023340	0.074937	9.678032	0.034022	-0.002287	-0.134397	-1.000000	0.000102	-0.000350	-0.000067
07009	-0.054828	0.101556	9.672339	0.002522	0.024480	-0.139691	-1.000000	0.000110	-0.000351	-0.000058
07010	-0.048120	0.103712	9.644048	0.009160	0.026950	-0.168004	-1.000000	0.000111	-0.000360	-0.000049
07011	-0.055728	0.101200	9.672338	0.001672	0.024243	-0.139690	-1.000000	0.000113	-0.000346	-0.000056
07012	-0.024900	0.074266	9.678033	0.032325	-0.002758	-0.134391	-1.000000	0.000108	-0.000339	-0.000070
07013	-0.049150	0.103315	9.644047	0.007893	0.026600	-0.168002	-1.000000	0.000117	-0.000348	-0.000062
07014	-0.046880	0.074058	9.642324	0.010255	-0.002617	-0.169970	-1.000000	0.000111	-0.000349	-0.000062
07015	-0.054491	0.071609	9.670612	0.002763	-0.005326	-0.141658	-1.000000	0.000113	-0.000343	-0.000069
07016	-0.026685	0.073723	9.678033	0.030630	-0.003227	-0.134386	-1.000000	0.000115	-0.000351	-0.000068
07017	-0.048210	0.073656	9.642321	0.008991	-0.002966	-0.169969	-1.000000	0.000118	-0.000352	-0.000075
07018	-0.030520	0.102519	9.679754	0.026997	0.025634	-0.132414	-1.000000	0.000119	-0.000362	-0.000068
07019	-0.031049	0.102384	9.679754	0.026575	0.025519	-0.132412	-1.000000	0.000120	-0.000363	-0.000060
07020	-0.059672	0.099899	9.672328	-0.002140	0.023180	-0.139688	-1.000000	0.000129	-0.000357	-0.000060
07021	-0.031719	0.102022	9.679756	0.025730	0.025283	-0.132409	-1.000000	0.000123	-0.000350	-0.000067
07022	-0.060336	0.099656	9.672326	-0.002986	0.022942	-0.139687	-1.000000	0.000126	-0.000351	-0.000075
07023	-0.022561	0.075101	9.649745	0.034755	-0.001455	-0.162687	-1.000000	0.000120	-0.000360	-0.000076
07024	-0.068633	0.097114	9.700607	-0.010916	0.020109	-0.111378	-1.000000	0.000122	-0.000361	-0.000076
07025	-0.035309	0.041003	9.704591	0.022534	-0.035981	-0.108038	-1.000000	0.000125	-0.000370	-0.000083
07026	-0.041355	0.099076	9.708039	0.016524	0.022092	-0.104094	-1.000000	0.000125	-0.000364	-0.000075
07027	-0.024351	0.074650	9.649744	0.033066	-0.001924	-0.162681	-1.000000	0.000119	-0.000358	-0.000075
07028	-0.055626	0.101557	9.644030	0.001562	0.024833	-0.167994	-1.000000	0.000106	-0.000344	-0.000084
07029	-0.034942	0.101399	9.679751	0.022341	0.024339	-0.132398	-1.000000	0.000113	-0.000346	-0.000068
07030	-0.035394	0.101194	9.679752	0.021916	0.024220	-0.132397	-1.000000	0.000115	-0.000347	-0.000067
07031	-0.066813	0.127946	9.674036	-0.009589	0.050978	-0.137714	-1.000000	0.000110	-0.000340	-0.000075
07032	-0.064461	0.098822	9.672308	-0.007218	0.021762	-0.139687	-1.000000	0.000104	-0.000350	-0.000076
07033	-0.050391	0.103567	9.615739	0.006548	0.026849	-0.196298	-1.000000	0.000098	-0.000344	-0.000076
07034	-0.034247	0.071856	9.678023	0.023017	-0.005347	-0.134366	-1.000000	0.000105	-0.000345	-0.000059
07035	-0.063012	0.069423	9.670577	-0.005691	-0.007686	-0.141661	-1.000000	0.000101	-0.000354	-0.000075
07036	-0.066256	0.098367	9.672301	-0.008911	0.021291	-0.139687	-1.000000	0.000110	-0.000347	-0.000074
07037	-0.063824	0.069173	9.670573	-0.006535	-0.007921	-0.141662	-1.000000	0.000098	-0.000348	-0.000083
07038	-0.043373	0.069060	9.706301	0.014227	-0.008422	-0.106058	-1.000000	0.000100	-0.000357	-0.000083
07039	-0.067602	0.098191	9.672293	-0.010178	0.020937	-0.139688	-1.000000	0.000094	-0.000351	-0.000083
07040	-0.068049	0.098106	9.672291	-0.010603	0.020818	-0.139688	-1.000000	0.000096	-0.000360	-0.000091
07041	-0.068485	0.097929	9.672290	-0.011024	0.020702	-0.139688	-1.000000	0.000100	-0.000353	-0.000105
07042	-0.037882	0.070939	9.678016	0.019635	-0.006287	-0.134359	-1.000000	0.000101	-0.000362	-0.000097
07043	-0.034091	0.102286	9.651462	0.023519	0.025298	-0.160685	-1.000000	0.000102	-0.000379	-0.000090
07044	-0.041827	0.099921	9.679739	0.015988	0.022572	-0.132381	-1.000000	0.000087	-0.000366	-0.000083
07045	-0.063099	0.099967	9.644001	-0.005608	0.022836	-0.167991	-1.000000	0.000095	-0.000367	-0.000074
07046	-0.060737	0.070642	9.642273	-0.003231	-0.006380	-0.169967	-1.000000	0.000097	-0.000368	-0.000074
07047	-0.050306	0.097106	9.708017	0.007608	0.019612	-0.104078	-1.000000	0.000101	-0.000369	-0.000089
07048	-0.040656	0.070273	9.678010	0.017096	-0.006995	-0.134355	-1.000000	0.000096	-0.000370	-0.000097
07049	-0.043990	0.099303	9.679736	0.013871	0.021985	-0.132377	-1.000000	0.000097	-0.000379	-0.000089
07050	-0.041715	0.070139	9.678006	0.016250	-0.007230	-0.134353	-1.000000	0.000089	-0.000382	-0.000074
07051	-0.037548	0.101571	9.651457	0.020139	0.024359	-0.160675	-1.000000	0.000091	-0.000367	-0.000081
07052	-0.037919	0.101490	9.651456	0.019715	0.024240	-0.160674	-1.000000	0.000085	-0.000376	-0.000082
07053	-0.071225	0.067555	9.670533	-0.013299	-0.009810	-0.141670	-1.000000	0.000095	-0.000385	-0.000080
07054	-0.074553	0.096429	9.672260	-0.016527	0.019164	-0.139693	-1.000000	0.000097	-0.000386	-0.000088
07055	-0.036657	0.071829	9.649726	0.021258	-0.005206	-0.162649	-1.000000	0.000099	-0.000387	-0.000088
07056	-0.047286	0.098474	9.679729	0.010907	0.021158	-0.132371	-1.000000	0.000094	-0.000396	-0.000089
07057	-0.083257	0.093709	9.700526	-0.024916	0.016199	-0.111397	-1.000000	0.000097	-0.000389	-0.000103
07058	-0.033657	0.103052	9.623179	0.024307	0.026147	-0.188964	-1.000000	0.000092	-0.000406	-0.000104
07059	-0.056146	0.095821	9.707997	0.002512	0.018193	-0.104072	-1.000000	0.000092	-0.000408	-0.000096
07060	-0.049230	0.098142	9.679723	0.009211	0.020685	-0.132368	-1.000000	0.000086	-0.000402	-0.000096
07061	-0.046783	0.068877	9.677992	0.011599	-0.008526	-0.134348	-1.000000	0.000096	-0.000402	-0.000103
07062	-0.070974	0.097855	9.643968	-0.012785	0.020832	-0.167993	-1.000000	0.000098	-0.000403	-0.000102
07063	-0.050564	0.097536	9.679722	0.007942	0.020334	-0.132367	-1.000000	0.000107	-0.000412	-0.000093
07064	-0.040966	0.070597	9.649718	0.017460	-0.006266	-0.162642	-1.000000	0.000108	-0.000414	-0.000093
07065	-0.030535	0.097143	9.715478	0.028240	0.019714	-0.096737	-1.000000	0.000102	-0.000408	-0.000094
07066	-0.041787	0.070439	9.649716	0.016616	-0.006502	-0.162641	-1.000000	0.000105	-0.000416	-0.000101
07067	-0.080514	0.094724	9.672229	-0.022027	0.017626	-0.139701	-1.000000	0.000105	-0.000402	-0.000093
07068	-0.045276	0.099260	9.651448	0.012958	0.022358	-0.160658	-1.000000	0.000107	-0.000403	-0.000099
07069	-0.050061	0.067681	9.677984	0.008214	-0.009469	-0.134345	-1.000000	0.000101	-0.000389	-0.000099
07070	-0.017647	0.101474	9.658938	0.040385	0.024359	-0.153316	-1.000000	0.000095	-0.000391	-0.000099
07071	-0.046256	0.099121	9.651445	0.011690	0.022009	-0.160655	-1.000000	0.000095	-0.000385	-0.000091
07072	-0.043733	0.069869	9.649711	0.014082	-0.007204	-0.162637	-1.000000	0.000098	-0.000378	-0.000098
07073	-0.049743	0.127859	9.653179	0.008031	0.050868	-0.158671	-1.000000	0.000107	-0.000379	-0.000096
07074	-0.047292	0.098668	9.651444	0.010421	0.021654	-0.160653	-1.000000	0.000094	-0.000373	-0.000105
07075	-0.031395	0.067057	9.713742	0.026801	-0.010560	-0.098706	-1.000000	0.000095	-0.000390	-0.000097
07076	-0.048340	0.098444	9.651441	0.009575	0.021418	-0.160652	-1.000000	0.000104	-0.000383	-0.000096
07077	-0.048631	0.098283	9.651441	0.009154	0.021302	-0.160651	-1.000000	0.000100	-0.000376	-0.000111
07078	-0.020774	0.100556	9.658941	0.037004	0.023420	-0.153300	-1.000000	0.000094	-0.000378	-0.000112
07079	-0.050979	0.037666	9.676236	0.006800	-0.039741	-0.136328	-1.000000	0.000086	-0.000364	-0.000104
07080	-0.077841	0.095925	9.643934	-0.020384	0.018711	-0.168002	-1.000000	0.000088	-0.000365	-0.000104
07081	-0.018931	0.071246	9.657206	0.038556	-0.006022	-0.155279	-1.000000	0.000090	-0.000359	-0.000110
07082	-0.065072	0.093121	9.707968	-0.007261	0.015465	-0.104070	-1.000000	0.000091	-0.000368	-0.000103
07083	-0.048272	0.068643	9.649698	0.009444	-0.008497	-0.162632	-1.000000	0.000095	-0.000384	-0.000111
07084	-0.051620	0.097534	9.651433	0.006201	0.020477	-0.160647	-1.000000	0.000102	-0.000378	-0.000094
07085	-0.028346	0.068255	9.685470	0.029715	-0.009117	-0.126985	-1.000000	0.000090	-0.000388	-0.000104
07086	-0.045194	0.099852	9.623165	0.012514	0.022868	-0.188933	-1.000000	0.000091	-0.000381	-0.000103
07087	-0.060302	0.095053	9.679691	-0.002222	0.017502	-0.132358	-1.000000	0.000078	-0.000391	-0.000105
07088	-0.032606	0.097340	9.687202	0.025621	0.019622	-0.124995	-1.000000	0.000079	-0.000392	-0.000104
07089	-0.046682	0.099606	9.623161	0.011253	0.022518	-0.188931	-1.000000	0.000090	-0.000400	-0.000111
07090	-0.059034	0.065538	9.677948	-0.000673	-0.011946	-0.134344	-1.000000	0.000084	-0.000402	-0.000111
07091	-0.034096	0.096874	9.687202	0.024348	0.019272	-0.124991	-1.000000	0.000085	-0.000403	-0.000103
07092	-0.031787	0.067677	9.685464	0.026748	-0.009941	-0.126977	-1.000000	0.000081	-0.000412	-0.000119
07093	-0.032309	0.067523	9.685463	0.026326	-0.010057	-0.126976	-1.000000	0.000089	-0.000413	-0.000102
07094	-0.035598	0.096371	9.687201	0.023072	0.018915	-0.124987	-1.000000	0.000096	-0.000415	-0.000085
07095	-0.054094	0.067153	9.649678	0.004379	-0.009907	-0.162630	-1.000000	0.000099	-0.000416	-0.000092
07096	-0.057374	0.096111	9.651415	0.001126	0.019067	-0.160642	-1.000000	0.000099	-0.000417	-0.000084
07097	-0.034034	0.066752	9.685463	0.024628	-0.010528	-0.126972	-1.000000	0.000102	-0.000411	-0.000091
07098	-0.058266	0.095875	9.651412	0.000280	0.018830	-0.160641	-1.000000	0.000096	-0.000427	-0.000092
07099	-0.035010	0.066595	9.685460	0.023779	-0.010765	-0.126970	-1.000000	0.000096	-0.000414	-0.000083
07100	-0.030724	0.098032	9.658940	0.027699	0.020839	-0.153263	-1.000000	0.000092	-0.000407	-0.000099
07101	-0.063822	0.064065	9.677928	-0.005331	-0.013245	-0.134348	-1.000000	0.000100	-0.000408	-0.000090
07102	-0.038811	0.095252	9.687200	0.019677	0.017970	-0.124978	-1.000000	0.000102	-0.000401	-0.000097
07103	-0.031838	0.097585	9.658941	0.026432	0.020487	-0.153259	-1.000000	0.000096	-0.000403	-0.000090
07104	-0.044225	0.063585	9.713715	0.014483	-0.013989	-0.098684	-1.000000	0.000098	-0.000412	-0.000097
07105	-0.061019	0.095036	9.651404	-0.002673	0.018007	-0.160640	-1.000000	0.000101	-0.000405	-0.000104
07106	-0.058707	0.065858	9.649660	-0.000267	-0.011203	-0.162631	-1.000000	0.000094	-0.000423	-0.000090
07107	-0.030943	0.068092	9.657198	0.027574	-0.009073	-0.155244	-1.000000	0.000096	-0.000408	-0.000096
07108	-0.041354	0.094698	9.687195	0.017133	0.017267	-0.124972	-1.000000	0.000091	-0.000401	-0.000111
07109	-0.038958	0.065496	9.685453	0.019545	-0.011941	-0.126962	-1.000000	0.000093	-0.000410	-0.000111
07110	-0.070532	0.092074	9.679651	-0.011974	0.014781	-0.132361	-1.000000	0.000102	-0.000411	-0.000110
07111	-0.035406	0.096635	9.658938	0.023051	0.019549	-0.153248	-1.000000	0.000097	-0.000413	-0.000111
07112	-0.028496	0.098968	9.630683	0.029813	0.022067	-0.181525	-1.000000	0.000098	-0.000414	-0.000110
07113	-0.040819	0.064883	9.685449	0.017849	-0.012413	-0.126959	-1.000000	0.000101	-0.000415	-0.000117
07114	-0.065115	0.094022	9.651387	-0.006480	0.016948	-0.160640	-1.000000	0.000094	-0.000432	-0.000103
07115	-0.044719	0.093847	9.687188	0.014166	0.016443	-0.124966	-1.000000	0.000096	-0.000418	-0.000109
07116	-0.034735	0.067076	9.657192	0.023772	-0.010131	-0.155235	-1.000000	0.000089	-0.000412	-0.000110
07117	-0.073533	0.091330	9.679635	-0.014938	0.013956	-0.132364	-1.000000	0.000098	-0.000413	-0.000101
07118	-0.038409	0.095914	9.658934	0.020089	0.018725	-0.153240	-1.000000	0.000091	-0.000415	-0.000094
07119	-0.059635	0.096030	9.623125	-0.001392	0.018999	-0.188917	-1.000000	0.000085	-0.000409	-0.000094
07120	-0.039167	0.095850	9.658932	0.019245	0.018490	-0.153238	-1.000000	0.000086	-0.000410	-0.000094
07121	-0.034941	0.127291	9.632423	0.023183	0.050105	-0.179518	-1.000000	0.000081	-0.000396	-0.000101
07122	-0.036993	0.066593	9.657187	0.021240	-0.010834	-0.155230	-1.000000	0.000082	-0.000405	-0.000094
07123	-0.040296	0.095503	9.658931	0.017979	0.018141	-0.153234	-1.000000	0.000089	-0.000400	-0.000077
07124	-0.068805	0.093053	9.651371	-0.010701	0.015770	-0.160642	-1.000000	0.000084	-0.000392	-0.000092
07125	-0.066401	0.063861	9.649624	-0.008280	-0.013436	-0.162637	-1.000000	0.000086	-0.000402	-0.000084
07126	-0.013281	0.097443	9.666492	0.044961	0.020038	-0.145821	-1.000000	0.000087	-0.000395	-0.000083
07127	-0.067219	0.063565	9.649620	-0.009126	-0.013673	-0.162638	-1.000000	0.000089	-0.000396	-0.000090
07128	-0.049685	0.092413	9.687178	0.008654	0.014908	-0.124957	-1.000000	0.000090	-0.000398	-0.000082
07129	-0.050063	0.092275	9.687177	0.008232	0.014792	-0.124956	-1.000000	0.000091	-0.000391	-0.000082
07130	-0.043066	0.094638	9.658927	0.015015	0.017317	-0.153228	-1.000000	0.000084	-0.000394	-0.000067
07131	-0.043520	0.094570	9.658926	0.014594	0.017201	-0.153227	-1.000000	0.000086	-0.000395	-0.000074
07132	-0.043892	0.094488	9.658925	0.014171	0.017081	-0.153226	-1.000000	0.000080	-0.000388	-0.000074
07133	-0.044417	0.094343	9.658924	0.013750	0.016966	-0.153225	-1.000000	0.000089	-0.000405	-0.000066
07134	-0.049547	0.062606	9.685423	0.008957	-0.014889	-0.126950	-1.000000	0.000090	-0.000407	-0.000058
07135	-0.052861	0.091652	9.687168	0.005689	0.014084	-0.124953	-1.000000	0.000083	-0.000409	-0.000051
07136	-0.043074	0.064909	9.657173	0.015328	-0.012477	-0.155220	-1.000000	0.000084	-0.000410	-0.000043
07137	-0.053850	0.091457	9.687165	0.004841	0.013849	-0.124952	-1.000000	0.000085	-0.000420	-0.000035
07138	-0.047136	0.093800	9.658916	0.011635	0.016376	-0.153222	-1.000000	0.000080	-0.000437	-0.000036
07139	-0.075794	0.091417	9.651334	-0.017036	0.014004	-0.160648	-1.000000	0.000080	-0.000423	-0.000028
07140	-0.024218	0.064379	9.692994	0.034668	-0.013341	-0.119521	-1.000000	0.000082	-0.000424	-0.000035
07141	-0.027599	0.093458	9.694740	0.031396	0.015632	-0.117521	-1.000000	0.000070	-0.000433	-0.000044
07142	-0.048863	0.093634	9.658909	0.009946	0.015904	-0.153219	-1.000000	0.000063	-0.000427	-0.000037
07143	-0.056640	0.091147	9.687152	0.002299	0.013137	-0.124950	-1.000000	0.000065	-0.000429	-0.000037
07144	-0.046827	0.064315	9.657160	0.011952	-0.013421	-0.155217	-1.000000	0.000066	-0.000430	-0.000036
07145	-0.042816	0.095772	9.630662	0.015907	0.018204	-0.181484	-1.000000	0.000060	-0.000439	-0.000029
07146	-0.027004	0.064062	9.692988	0.032123	-0.014049	-0.119513	-1.000000	0.000062	-0.000432	-0.000036
07147	-0.050883	0.093115	9.658904	0.007832	0.015317	-0.153216	-1.000000	0.000064	-0.000418	-0.000043
07148	-0.023054	0.095351	9.666494	0.035653	0.017457	-0.145777	-1.000000	0.000058	-0.000427	-0.000043
07149	-0.051706	0.092891	9.658902	0.006985	0.015082	-0.153215	-1.000000	0.000066	-0.000421	-0.000034
07150	-0.023879	0.095001	9.666496	0.034806	0.017222	-0.145773	-1.000000	0.000068	-0.000422	-0.000034
07151	-0.031658	0.092492	9.694737	0.027150	0.014452	-0.117506	-1.000000	0.000063	-0.000416	-0.000041
07152	-0.052823	0.092517	9.658899	0.005716	0.014727	-0.153214	-1.000000	0.000064	-0.000417	-0.000041
07153	-0.045783	0.094789	9.630658	0.012532	0.017266	-0.181478	-1.000000	0.000066	-0.000410	-0.000048
07154	-0.060981	0.089869	9.687137	-0.002371	0.011835	-0.124949	-1.000000	0.000059	-0.000412	-0.000033
07155	-0.036408	0.068042	9.600665	0.021784	-0.009401	-0.211741	-1.000000	0.000055	-0.000421	-0.000049
07156	-0.023397	0.065406	9.664745	0.035122	-0.012570	-0.147765	-1.000000	0.000057	-0.000406	-0.000056
07157	-0.062246	0.089541	9.687132	-0.003643	0.011484	-0.124949	-1.000000	0.000066	-0.000415	-0.000047
07158	-0.055361	0.091834	9.658891	0.003175	0.014021	-0.153211	-1.000000	0.000059	-0.000417	-0.000040
07159	-0.055743	0.091843	9.658889	0.002754	0.013905	-0.153211	-1.000000	0.000052	-0.000411	-0.000040
07160	-0.027922	0.094093	9.666494	0.030573	0.016048	-0.145757	-1.000000	0.000054	-0.000412	-0.000040
07161	-0.092254	0.086927	9.679515	-0.033580	0.008747	-0.132404	-1.000000	0.000050	-0.000421	-0.000048
07162	-0.021553	0.096436	9.638254	0.036976	0.018474	-0.174015	-1.000000	0.000042	-0.000423	-0.000033
07163	-0.065044	0.089183	9.687117	-0.006185	0.010775	-0.124949	-1.000000	0.000044	-0.000424	-0.000041
07164	-0.026996	0.064667	9.664740	0.031743	-0.013510	-0.147755	-1.000000	0.000047	-0.000425	-0.000048
07165	-0.065932	0.088929	9.687114	-0.007032	0.010537	-0.124950	-1.000000	0.000041	-0.000427	-0.000048
07166	-0.059036	0.091288	9.658875	-0.000206	0.013077	-0.153210	-1.000000	0.000042	-0.000436	-0.000041
07167	-0.031299	0.093555	9.666489	0.027613	0.015226	-0.145747	-1.000000	0.000035	-0.000430	-0.000033
07168	-0.031605	0.093495	9.666488	0.027186	0.015107	-0.145745	-1.000000	0.000036	-0.000424	-0.000032
07169	-0.057300	0.061929	9.657119	0.001390	-0.016362	-0.155214	-1.000000	0.000037	-0.000425	-0.000024
07170	-0.029789	0.064259	9.664735	0.029203	-0.014216	-0.147748	-1.000000	0.000024	-0.000450	-0.000019
07171	0.022510	0.098206	9.681727	0.082394	0.019289	-0.130806	-1.000000	0.000005	-0.000506	-0.000024
07172	1.188481	0.068544	9.652280	1.249205	-0.010820	-0.167840	-1.000000	-0.000045	-0.000559	0.000037
07173	2.227686	0.138607	9.720418	2.290798	0.057999	-0.106132	-1.000000	0.000010	-0.000708	0.000284
07174	1.071998	0.209062	9.574530	1.135602	0.130676	-0.244101	-1.000000	0.000073	-0.000699	0.000462
07175	0.978723	0.012647	9.746564	1.045064	-0.067136	-0.073237	-0.999999	0.000024	-0.000889	0.000502
07176	0.400412	0.012824	9.745913	0.466080	-0.065491	-0.069905	-1.000000	0.000157	-0.000628	0.000284
07177	-1.095364	0.077976	9.630031	-1.031625	0.000587	-0.175304	-1.000000	-0.000087	-0.000760	0.000386
07178	-2.507218	0.149848	9.537155	-2.444625	0.073428	-0.258404	-1.000000	0.000082	-0.000564	0.000278
07179	-2.516675	0.078265	9.711003	-2.454682	0.001373	-0.085515	-1.000000	0.000054	-0.000586	0.000212
07180	-0.348186	0.029503	9.701236	-0.286467	-0.048753	-0.109510	-1.000000	0.000046	-0.000549	0.000213
07181	-0.067689	0.089398	9.658836	-0.006562	0.011313	-0.153210	-1.000000	0.000049	-0.000550	0.000206
07182	-0.050296	0.118249	9.696458	0.011102	0.039879	-0.115466	-1.000000	0.000050	-0.000552	0.000214
07183	-0.065613	0.059936	9.657078	-0.004539	-0.018012	-0.155218	-1.000000	0.000058	-0.000545	0.000216
07184	-0.015410	0.122680	9.675875	0.045757	0.044585	-0.136233	-1.000000	0.000053	-0.000546	0.000216
07185	-0.048759	0.088862	9.694700	0.012698	0.010443	-0.117472	-1.000000	0.000039	-0.000564	0.000221
07186	-0.041758	0.091367	9.666470	0.019547	0.012993	-0.145724	-1.000000	0.000034	-0.000549	0.000206
07187	-0.034586	0.093568	9.638245	0.026404	0.015548	-0.173975	-1.000000	0.000052	-0.000550	0.000201
07188	-0.011475	0.064132	9.672365	0.049804	-0.014056	-0.140242	-1.000000	0.000046	-0.000558	0.000200
07189	-0.050466	0.088364	9.694696	0.010996	0.009972	-0.117469	-1.000000	0.000048	-0.000552	0.000201
07190	-0.035849	0.093187	9.638244	0.025132	0.015196	-0.173971	-1.000000	0.000042	-0.000546	0.000201
07191	-0.079250	0.085805	9.687042	-0.018086	0.007464	-0.124961	-1.000000	0.000050	-0.000539	0.000203
07192	-0.043981	0.090452	9.666469	0.016998	0.012290	-0.145718	-1.000000	0.000044	-0.000540	0.000202
07193	-0.080082	0.085662	9.687036	-0.018939	0.007228	-0.124962	-1.000000	0.000038	-0.000542	0.000209
07194	-0.044964	0.090249	9.666466	0.016148	0.012056	-0.145716	-1.000000	0.000054	-0.000551	0.000219
07195	-0.027591	0.119015	9.704105	0.033791	0.040626	-0.107957	-1.000000	0.000050	-0.000544	0.000204
07196	-0.045776	0.089934	9.666465	0.015300	0.011822	-0.145715	-1.000000	0.000050	-0.000545	0.000212
07197	-0.066865	0.089898	9.630582	-0.006060	0.012107	-0.181463	-1.000000	0.000052	-0.000539	0.000213
07198	-0.039060	0.092174	9.638241	0.021745	0.014263	-0.173962	-1.000000	0.000046	-0.000541	0.000212
07199	-0.054445	0.087187	9.694685	0.006739	0.008796	-0.117464	-1.000000	0.000049	-0.000542	0.000205
07200	-0.083066	0.084604	9.687021	-0.021916	0.006402	-0.124968	-1.000000	0.000058	-0.000542	0.000207
07201	-0.058232	0.115682	9.696445	0.003009	0.037647	-0.115451	-1.000000	0.000075	-0.000543	0.000209
07202	-0.045595	0.059583	9.664703	0.015637	-0.017967	-0.147722	-1.000000	0.000082	-0.000565	0.000171
07203	-0.066997	0.059352	9.628812	-0.005713	-0.017682	-0.183477	-1.000000	0.000097	-0.000572	0.000127
07204	-0.029024	0.087636	9.702357	0.032836	0.010481	-0.109953	-1.000000	0.000131	-0.000576	0.000054
07205	-0.029713	0.087065	9.702360	0.032413	0.010365	-0.109951	-1.000000	0.000144	-0.000599	0.000039
07206	-0.058693	0.084446	9.694684	0.003758	0.007969	-0.117462	-1.000000	0.000148	-0.000615	0.000024
07207	-0.026732	0.118064	9.675908	0.035980	0.041895	-0.136180	-1.000000	0.000160	-0.000638	0.000010
07208	-0.053106	0.086195	9.666462	0.010214	0.010413	-0.145706	-1.000000	0.000180	-0.000684	0.000003
07209	-0.054186	0.085527	9.666462	0.009792	0.010297	-0.145706	-1.000000	0.000217	-0.000706	-0.000024
07210	-0.019567	0.089521	9.645936	0.044896	0.015137	-0.166432	-1.000000	0.000251	-0.000749	-0.000083
07211	-0.080204	0.113087	9.632330	-0.014857	0.039548	-0.179452	-1.000000	0.000295	-0.000807	-0.000149
07212	-0.057513	0.082994	9.666465	0.008519	0.009942	-0.145704	-1.000000	0.000328	-0.000796	-0.000221
07213	-0.029480	0.084639	9.674165	0.036321	0.012105	-0.138183	-1.000000	0.000353	-0.000778	-0.000286
07214	-0.060673	0.110940	9.668252	0.004784	0.038789	-0.143688	-1.000000	0.000365	-0.000766	-0.000376
07215	-0.024816	0.115414	9.647740	0.039897	0.043636	-0.164406	-1.000000	0.000372	-0.000716	-0.000496
07216	-0.040520	0.199992	9.681298	0.023496	0.128087	-0.130115	-0.999999	0.000379	-0.000683	-0.000732
07217	-0.096178	0.308384	9.737165	-0.031331	0.236659	-0.073091	-0.999999	0.000443	-0.000792	-0.001184
07218	-0.459388	0.220014	9.633404	-0.392863	0.148712	-0.174977	-0.999998	0.000449	-0.000924	-0.001535
07219	-0.305088	0.056347	9.661124	-0.234843	-0.014508	-0.149447	-0.999999	0.000456	-0.001113	-0.000780
07220	0.015536	-0.230960	9.569930	0.087096	-0.300596	-0.245076	-0.999999	0.000442	-0.001117	0.000128
07221	-0.221533	-0.027060	9.707084	-0.149676	-0.097845	-0.104685	-0.999999	0.000433	-0.001065	0.000623
07222	-0.273745	0.557028	9.714518	-0.200601	0.486399	-0.092592	-0.999998	0.000425	-0.001112	0.001807
07223	0.208663	-0.245092	9.650432	0.278958	-0.316730	-0.166118	-0.999994	0.000470	-0.001112	0.003169
07224	-0.016583	-0.212409	9.684517	0.053252	-0.282721	-0.130100	-0.999992	0.000481	-0.001080	0.003812
07225	-0.118926	0.014771	9.647407	-0.047638	-0.054326	-0.164807	-0.999990	0.000488	-0.001130	0.004212
07226	0.037829	-0.056747	9.652490	0.109034	-0.127588	-0.161415	-0.999989	0.000441	-0.001138	0.004475
07227	0.053037	0.063089	9.667351	0.125259	-0.009079	-0.145801	-0.999988	0.000383	-0.001117	0.004762
07228	-0.089025	-0.009485	9.653339	-0.017796	-0.081473	-0.159294	-0.999986	0.000311	-0.001121	0.005100
07229	0.187256	0.197400	9.684899	0.261248	0.121143	-0.128247	-0.999984	0.000269	-0.001159	0.005517
07230	0.217638	0.232036	9.666241	0.293472	0.155087	-0.146910	-0.999983	0.000278	-0.001278	0.005744
07231	-0.029985	0.113130	9.711816	0.046676	0.038686	-0.100355	-0.999982	0.000277	-0.001344	0.005795
07232	0.042250	0.094738	9.669143	0.120242	0.019441	-0.143755	-0.999982	0.000245	-0.001473	0.005863
07233	0.000094	0.119208	9.691353	0.081374	0.043437	-0.121040	-0.999981	0.000198	-0.001634	0.005942
07234	-0.051950	0.141610	9.741706	0.035164	0.064738	-0.070092	-0.999979	0.000113	-0.002001	0.006085
07235	-0.155736	0.186724	9.842230	-0.056832	0.107452	0.031794	-0.999976	-0.000089	-0.002682	0.006414
07236	-0.230704	0.355119	9.993031	-0.111343	0.268372	0.185089	-0.999968	-0.000606	-0.003664	0.007084
07237	-0.644465	0.187677	10.597792	-0.502028	0.068999	0.794231	-0.999948	-0.003215	-0.004416	0.008562
07238	-0.340026	-0.043351	12.459435	-0.150566	-0.260928	2.647796	-0.999916	-0.006378	-0.005858	0.009670
07239	-0.145400	1.001850	11.469606	0.089946	0.715656	1.678855	-0.999866	-0.010364	-0.008029	0.009824
07240	0.011744	0.301383	14.089083	0.308870	-0.062840	4.276071	-0.999884	-0.007011	-0.007737	0.011048
07241	1.170498	0.120755	10.920027	1.383485	-0.146966	1.082081	-0.999877	-0.006514	-0.006684	0.012601
07242	-0.277110	0.625793	10.921111	-0.072531	0.413281	1.121795	-0.999864	-0.005116	-0.005620	0.014631
07243	-0.343459	1.157910	9.029024	-0.164479	1.007083	-0.760577	-0.999843	-0.004178	-0.005353	0.016389
07244	-0.756961	1.888249	9.075288	-0.547415	1.761220	-0.696891	-0.999841	-0.003873	-0.006009	0.016353
07245	-0.436448	0.690241	9.579989	-0.243436	0.548083	-0.216676	-0.999844	-0.003829	-0.006944	0.015754
07246	-0.235666	0.449893	10.198532	-0.021761	0.291546	0.394296	-0.999853	-0.003815	-0.007802	0.014800
07247	-0.227907	0.752528	10.108811	0.006365	0.595338	0.309161	-0.999864	-0.003782	-0.008338	0.013717
07248	-0.148586	0.658255	9.849784	0.083689	0.503166	0.047000	-0.999878	-0.003792	-0.008559	0.012488
07249	0.003965	0.750380	9.596145	0.235600	0.595074	-0.208550	-0.999893	-0.003849	-0.008780	0.011029
07250	-0.226861	0.841538	9.600973	0.011370	0.689856	-0.196956	-0.999906	-0.003933	-0.009233	0.009380
07251	-0.280720	0.936319	9.411904	-0.038272	0.786312	-0.382964	-0.999915	-0.004054	-0.009777	0.007637
07252	-0.328530	0.928702	9.551652	-0.075484	0.772699	-0.241809	-0.999919	-0.004335	-0.010289	0.006044
07253	-0.630592	0.595736	10.355243	-0.355120	0.422984	0.564141	-0.999923	-0.004632	-0.010570	0.004615
07254	-0.696514	0.522050	10.604751	-0.416003	0.340383	0.814141	-0.999929	-0.004708	-0.010323	0.003507
07255	-0.591461	0.664173	10.338538	-0.326291	0.485876	0.547514	-0.999938	-0.004602	-0.009743	0.002722
07256	-0.362222	0.881334	9.959696	-0.120949	0.709916	0.166534	-0.999948	-0.004517	-0.008855	0.002118
07257	-0.168656	0.758562	9.817141	0.050151	0.589767	0.017356	-0.999957	-0.004497	-0.007944	0.001591
07258	0.027304	0.700269	10.168625	0.235748	0.525100	0.363792	-0.999964	-0.004500	-0.007169	0.000987
07259	0.306890	0.623920	10.449779	0.502738	0.444052	0.638695	-0.999970	-0.004465	-0.006268	0.000531
07260	0.221499	0.518902	10.533324	0.396917	0.338984	0.722811	-0.999977	-0.004410	-0.005129	0.000127
07261	0.212114	0.643751	10.289745	0.359134	0.469930	0.482380	-0.999983	-0.004304	-0.003937	-0.000383
07262	0.386460	0.735619	10.489819	0.510535	0.559589	0.682690	-0.999987	-0.004343	-0.002725	-0.000795
07263	0.234156	0.276335	11.044269	0.339647	0.090952	1.231922	-0.999989	-0.004320	-0.001623	-0.001290
07264	-0.084565	0.255206	11.285871	0.001324	0.069484	1.476170	-0.999990	-0.003949	-0.000791	-0.001944
07265	0.160545	0.461010	10.939211	0.227590	0.293183	1.131117	-0.999991	-0.003306	-0.000253	-0.002816
07266	0.527905	0.443163	10.518538	0.583910	0.299240	0.707968	-0.999989	-0.002569	-0.000053	-0.003938
07267	0.747706	0.513473	10.371114	0.798465	0.390001	0.560020	-0.999985	-0.001860	0.000027	-0.005215
07268	0.749930	0.730453	10.421131	0.795520	0.622111	0.612093	-0.999977	-0.001260	0.000109	-0.006614
07269	0.618748	0.772001	10.786089	0.662210	0.671748	0.977529	-0.999964	-0.000788	0.000143	-0.008493
07270	0.566668	0.465379	11.173736	0.612864	0.374273	1.362033	-0.999943	-0.000245	0.000310	-0.010673
07271	0.866607	0.873292	11.347785	0.895226	0.803424	1.538036	-0.999912	0.000355	0.000732	-0.013204
07272	0.897621	0.954763	11.176107	0.902052	0.904471	1.367242	-0.999866	0.000882	0.001773	-0.016223
07273	0.728520	0.740623	10.831793	0.706394	0.702170	1.023125	-0.999808	0.001307	0.003279	-0.019258
07274	0.570919	0.973133	10.495074	0.502598	0.941075	0.688797	-0.999744	0.001601	0.004859	-0.022028
07275	0.768056	0.617393	10.964029	0.677262	0.601092	1.158225	-0.999674	0.001891	0.006239	-0.024684
07276	0.727136	0.052843	11.658900	0.626339	0.045703	1.852087	-0.999594	0.002520	0.007619	-0.027343
07277	0.852012	0.301897	11.156004	0.707252	0.324689	1.352781	-0.999500	0.003539	0.009194	-0.030042
07278	1.188718	0.489749	10.307815	1.005788	0.560881	0.510954	-0.999389	0.004665	0.010803	-0.032926
07279	1.466098	0.638757	9.562840	1.249563	0.754892	-0.227598	-0.999262	0.005678	0.012289	-0.035960
07280	1.654837	0.766044	9.521118	1.397700	0.919796	-0.264007	-0.999115	0.006358	0.013532	-0.039309
07281	1.326110	0.468251	10.347387	1.047600	0.620507	0.558604	-0.998954	0.006873	0.014570	-0.042796
07282	0.894878	0.794832	10.745527	0.552514	0.927364	0.945265	-0.998784	0.007390	0.015695	-0.046154
07283	1.023445	0.830150	10.833105	0.644207	0.989143	1.036241	-0.998610	0.007830	0.016838	-0.049329
07284	0.692734	0.638784	11.940574	0.272104	0.786230	2.136076	-0.998436	0.008293	0.017896	-0.052304
07285	0.516280	0.161532	12.882240	0.086316	0.317987	3.076690	-0.998236	0.009193	0.019071	-0.055463
07286	1.176760	0.036354	12.751461	0.725031	0.301005	2.968911	-0.997995	0.010841	0.020421	-0.058926
07287	2.138068	0.529557	11.589899	1.617557	0.942110	1.835187	-0.997717	0.012813	0.022307	-0.062436
07288	2.546445	0.725205	10.599722	1.978662	1.223430	0.862143	-0.997430	0.014495	0.024949	-0.065587
07289	2.671078	0.541514	10.409404	2.065423	1.096496	0.690395	-0.997115	0.015804	0.028055	-0.068740
07290	2.350860	0.246000	11.010143	1.682231	0.809109	1.292498	-0.996753	0.017034	0.031291	-0.072211
07291	1.940069	-0.135322	11.643044	1.208403	0.422120	1.922022	-0.996369	0.018374	0.035099	-0.075356
07292	1.981415	-0.362954	11.632684	1.189857	0.242417	1.930465	-0.995969	0.020122	0.039005	-0.078227
07293	2.269790	-0.110355	11.297218	1.369148	0.577607	1.614569	-0.995529	0.022329	0.042512	-0.081334
07294	2.801792	0.087541	11.214632	1.778528	0.916791	1.572434	-0.995021	0.024720	0.046121	-0.084817
07295	2.952258	0.166367	11.581555	1.781442	1.096736	1.955841	-0.994434	0.027050	0.050170	-0.088609
07296	2.795189	-0.197441	11.605380	1.583228	0.778721	1.995046	-0.993794	0.029611	0.054206	-0.092515
07297	2.742953	-0.402594	12.090765	1.427037	0.669063	2.491262	-0.993103	0.032872	0.056893	-0.097108
07298	2.177200	-0.439632	11.984232	0.834472	0.620413	2.331150	-0.992321	0.037009	0.058130	-0.102713
07299	1.400167	0.669897	9.866391	0.065907	1.528652	0.057116	-0.991558	0.041229	0.058566	-0.108084
07300	2.008105	1.053996	7.967890	0.776108	1.996637	-1.810105	-0.990864	0.044748	0.058194	-0.113136
07301	3.432774	0.104305	8.291563	2.315172	1.494093	-1.271491	-0.990209	0.047366	0.057532	-0.118035
07302	4.542127	-0.623842	8.885914	3.474677	1.173850	-0.510660	-0.989505	0.049552	0.057561	-0.122931
07303	4.528881	-0.692726	9.387752	3.395810	1.219223	-0.009527	-0.988732	0.051438	0.058590	-0.127787
07304	4.615307	-0.755586	9.565019	3.429589	1.267784	0.186889	-0.987842	0.053197	0.060643	-0.132893
07305	4.130762	-1.218061	9.694489	3.004368	0.771867	0.331630	-0.986859	0.054857	0.063878	-0.137914
07306	3.646590	-1.301068	9.445511	2.512697	0.593344	0.063614	-0.985790	0.056482	0.068513	-0.142594
07307	2.867606	-0.965839	8.816108	1.668287	0.677382	-0.667380	-0.984609	0.057889	0.074102	-0.147316
07308	2.140159	-1.153736	7.952993	1.065170	0.236854	-1.568297	-0.983359	0.059110	0.079894	-0.152080
07309	1.308160	-0.869036	6.922986	0.286041	0.180051	-2.721881	-0.982077	0.060128	0.085139	-0.157040
07310	1.213406	-0.392252	6.336974	0.096318	0.560780	-3.373783	-0.980833	0.060780	0.088790	-0.162444
07311	1.528226	-0.407841	5.887889	0.440364	0.622872	-3.763961	-0.979644	0.061112	0.090477	-0.168453
07312	2.370906	-0.617386	5.841316	1.284312	0.729798	-3.653044	-0.978480	0.061128	0.090200	-0.175224
07313	2.430405	-1.063385	6.690648	1.338501	0.435829	-2.754308	-0.977288	0.061054	0.088129	-0.182797
07314	1.832437	-1.299583	7.972064	0.673036	0.136677	-1.558687	-0.975967	0.061140	0.084960	-0.191133
07315	1.777279	-1.612458	9.109262	0.589185	-0.041279	-0.411194	-0.974498	0.061444	0.081926	-0.199668
07316	1.935587	-1.792248	9.428951	0.799346	-0.074837	-0.054671	-0.973003	0.061772	0.079865	-0.207537
07317	1.461642	-1.244713	9.261423	0.216380	0.241688	-0.359943	-0.971583	0.061744	0.079029	-0.214404
07318	1.021005	-1.381868	8.942156	-0.058553	-0.086591	-0.707566	-0.970214	0.061287	0.079443	-0.220494
07319	1.060347	-1.508364	9.050569	0.004813	-0.178076	-0.577941	-0.968866	0.060585	0.080657	-0.226102
07320	0.873893	-1.764774	9.703757	-0.181467	-0.449993	0.076981	-0.967453	0.059950	0.082396	-0.231628
07321	1.215164	-2.165352	10.297379	0.163422	-0.611120	0.760918	-0.965975	0.059806	0.084442	-0.237035
07322	0.978034	-1.960910	10.396996	-0.188491	-0.531582	0.797732	-0.964449	0.060223	0.086718	-0.242264
07323	0.574290	-1.313899	9.689858	-0.747387	-0.204096	-0.048005	-0.962948	0.060748	0.089534	-0.247032
07324	0.195076	-1.064844	8.855888	-1.076535	-0.232460	-0.959126	-0.961511	0.061157	0.092332	-0.251457
07325	-0.146956	-1.055509	8.421052	-1.325862	-0.430686	-1.439736	-0.960132	0.061432	0.094653	-0.255761
07326	-0.405569	-1.079586	8.175271	-1.510020	-0.607057	-1.718471	-0.958860	0.061597	0.096305	-0.259845
07327	-0.432398	-0.991056	7.972995	-1.545679	-0.565960	-1.936879	-0.957712	0.061715	0.097027	-0.263753
07328	0.304127	-0.870457	7.660865	-0.916493	-0.103390	-2.151853	-0.956507	0.061890	0.096568	-0.268213
07329	0.949876	-0.944634	8.091305	-0.415517	0.205143	-1.624339	-0.955225	0.061825	0.095673	-0.273075
07330	1.075577	-1.328916	8.366790	-0.156580	-0.029722	-1.274500	-0.953949	0.061379	0.095103	-0.277794
07331	0.875584	-1.346250	8.520517	-0.333529	-0.145316	-1.149785	-0.952654	0.060593	0.095062	-0.282386
07332	0.742089	-1.386857	9.063987	-0.528626	-0.231637	-0.631358	-0.951276	0.059654	0.095464	-0.287057
07333	0.864352	-1.605181	9.471623	-0.398782	-0.339143	-0.181422	-0.949884	0.058567	0.096577	-0.291484
07334	0.980336	-1.469836	9.226439	-0.343901	-0.198367	-0.427011	-0.948468	0.057327	0.098587	-0.295641
07335	1.074136	-1.297054	8.858995	-0.315561	-0.051169	-0.800722	-0.947063	0.055808	0.101218	-0.299520
07336	0.482036	-1.546088	8.998414	-0.716699	-0.629385	-0.719604	-0.945720	0.054145	0.104191	-0.303028
07337	0.203029	-1.208655	8.636383	-1.084371	-0.575590	-1.176615	-0.944382	0.052436	0.107210	-0.306431
07338	0.409132	-1.218445	8.620726	-0.942195	-0.503379	-1.162391	-0.943028	0.050907	0.109512	-0.310021
07339	0.468972	-1.553999	8.507413	-0.693227	-0.769857	-1.213988	-0.941632	0.049800	0.110923	-0.313919
07340	0.646731	-1.204672	8.077170	-0.663205	-0.410805	-1.657839	-0.940140	0.048972	0.111502	-0.318285
07341	0.847388	-0.914888	7.644924	-0.573830	-0.076129	-2.088384	-0.938558	0.048193	0.111249	-0.323127
07342	0.963218	-1.146015	7.523477	-0.304019	-0.192116	-2.150151	-0.936884	0.047336	0.110361	-0.328373
07343	1.000376	-0.983944	7.778038	-0.409779	-0.042376	-1.919842	-0.935198	0.046157	0.109189	-0.333696
07344	1.314777	-1.175140	8.212962	-0.125768	0.009314	-1.413499	-0.933474	0.044835	0.107832	-0.339098
07345	1.173691	-1.666638	8.975797	-0.060288	-0.454103	-0.619745	-0.931696	0.043615	0.106450	-0.344540
07346	1.062001	-1.395930	9.281365	-0.350099	-0.323965	-0.379097	-0.929833	0.042424	0.105659	-0.349924
07347	0.877458	-1.126709	8.573577	-0.484346	-0.254331	-1.138224	-0.927901	0.041254	0.105341	-0.355249
07348	0.053571	-0.780877	7.982918	-1.166042	-0.565313	-1.896861	-0.926017	0.039722	0.105356	-0.360299
07349	-0.233932	-0.517598	7.260734	-1.375835	-0.589804	-2.685275	-0.924225	0.037891	0.105241	-0.365098
07350	-0.375306	-0.733040	7.536988	-1.367511	-0.874825	-2.406687	-0.922529	0.035997	0.104415	-0.369787
07351	-0.651247	-0.806972	7.837031	-1.538648	-1.147522	-2.143923	-0.920868	0.034298	0.102891	-0.374486
07352	-0.426788	-0.593004	7.954052	-1.506352	-0.858462	-2.015606	-0.919305	0.032791	0.100675	-0.379034
07353	0.205076	-0.909948	8.338686	-0.873796	-0.654334	-1.493324	-0.917722	0.031573	0.097954	-0.383660
07354	0.586103	-0.756133	8.651409	-0.726149	-0.280775	-1.143445	-0.916019	0.030505	0.095242	-0.388468
07355	0.329698	-0.444202	8.604592	-1.062921	-0.248134	-1.259708	-0.914322	0.029288	0.092923	-0.393093
07356	0.068350	-0.623038	8.995835	-1.137841	-0.578127	-0.885829	-0.912684	0.027905	0.091108	-0.397403
07357	-0.118402	-0.773923	9.306543	-1.168130	-0.839317	-0.584708	-0.911044	0.026526	0.089845	-0.401525
07358	-0.310757	-0.641322	9.229465	-1.344682	-0.908591	-0.699122	-0.909494	0.025142	0.089088	-0.405281
07359	0.108581	-0.480594	8.772995	-1.084647	-0.498788	-1.107350	-0.907992	0.023766	0.088765	-0.408787
07360	0.052672	-0.836284	9.248491	-0.920914	-0.813449	-0.607967	-0.906562	0.022408	0.088543	-0.412073
07361	-0.462063	-1.309922	9.534058	-0.931775	-1.542163	-0.347956	-0.905306	0.021397	0.088614	-0.414862
07362	-0.284508	-0.961451	9.397939	-1.043037	-1.189096	-0.494710	-0.904241	0.020876	0.088560	-0.417217
07363	-0.376118	-0.022857	9.155243	-1.754814	-0.646837	-0.842589	-0.903055	0.020576	0.088059	-0.419897
07364	0.152791	-0.199131	8.391785	-1.144239	-0.330619	-1.502066	-0.901663	0.020466	0.087056	-0.423091
07365	0.536005	-0.419470	8.914792	-0.799770	-0.190622	-0.909838	-0.900076	0.020422	0.085373	-0.426800
07366	-0.035678	-1.159252	9.595520	-0.664387	-1.111463	-0.234471	-0.898450	0.020503	0.083433	-0.430588
07367	0.623860	-7.269771	9.880157	4.577545	-4.477991	0.667783	-0.897231	0.009606	0.075698	-0.434919
07368	0.826010	0.086311	11.110026	-0.844279	0.058305	1.295332	-0.895020	-0.006118	0.061648	-0.441703
07369	-5.305044	2.286553	11.148695	-5.908360	-3.633332	0.653557	-0.893923	-0.018718	0.051879	-0.444814
07370	-1.645963	1.472425	12.319711	-2.905050	-1.464465	2.273074	-0.893071	-0.025034	0.048347	-0.446609
07371	0.023150	-0.199319	9.104327	-0.297906	-0.890647	-0.754721	-0.892652	-0.024436	0.045252	-0.447803
07372	-1.640803	-0.530492	9.053212	-0.973638	-2.362909	-0.958172	-0.892505	-0.022346	0.041474	-0.448570
07373	-1.313106	0.805191	8.492922	-1.787731	-1.200389	-1.454160	-0.892333	-0.019833	0.038204	-0.449320
07374	0.039459	1.235727	8.246356	-1.292707	0.217191	-1.577864	-0.891742	-0.017002	0.034961	-0.450872
07375	0.023761	0.944202	8.270341	-1.045098	0.092965	-1.555001	-0.890703	-0.013986	0.031913	-0.453248
07376	-0.430307	0.200439	7.957253	-0.677863	-0.642244	-1.896182	-0.889590	-0.012151	0.029527	-0.455642
07377	0.087648	-0.085087	9.304089	-0.158520	-0.423217	-0.518786	-0.888257	-0.011808	0.027381	-0.458378
07378	0.210370	-0.503722	9.736755	0.281143	-0.557827	-0.080683	-0.886633	-0.011506	0.024749	-0.461668
07379	-0.125939	-0.646172	9.835614	0.255774	-0.891556	0.001184	-0.884961	-0.011921	0.021794	-0.465001
07380	-0.350570	-0.517330	10.424562	0.076522	-1.011477	0.581190	-0.883281	-0.012971	0.018921	-0.468282
07381	0.098184	-0.518963	10.681695	0.397573	-0.644474	0.855195	-0.881663	-0.014468	0.016004	-0.471386
07382	0.889576	0.219627	10.811709	0.292675	0.424473	1.025505	-0.880253	-0.015766	0.012912	-0.474067
07383	-0.427982	0.787117	10.218650	-0.846664	-0.327103	0.404917	-0.879402	-0.016209	0.010240	-0.475695
07384	-1.501010	0.634507	9.615095	-1.266343	-1.269667	-0.226767	-0.879544	-0.016406	0.008220	-0.475464
07385	-1.450694	0.050082	9.378719	-0.721374	-1.520998	-0.472801	-0.880378	-0.016401	0.006311	-0.473948
07386	-1.341835	-0.119142	9.530622	-0.490392	-1.508855	-0.318993	-0.881541	-0.016469	0.004252	-0.471800
07387	-0.670389	0.620453	9.318478	-0.708813	-0.515257	-0.490648	-0.882649	-0.016586	0.002533	-0.469733
07388	0.063192	0.253853	8.855333	0.021641	-0.081994	-0.953900	-0.883527	-0.016616	0.000963	-0.468084
07389	-0.320909	0.191722	9.645893	-0.101559	-0.447415	-0.170465	-0.884234	-0.016693	-0.000226	-0.466746
07390	-0.297270	-0.018557	10.247109	0.110732	-0.557847	0.422961	-0.884623	-0.016584	-0.000316	-0.466012
07391	-0.455698	-0.223066	10.495199	0.187375	-0.804081	0.662280	-0.884745	-0.015711	0.000142	-0.465811
07392	-0.264069	-0.097853	10.078331	0.155285	-0.541765	0.253803	-0.884650	-0.013444	0.001053	-0.466061
07393	0.126313	0.300410	9.255522	-0.009673	0.060736	-0.551649	-0.884422	-0.010531	0.002187	-0.466565
07394	-0.145124	0.350980	8.964329	-0.252378	-0.090880	-0.844342	-0.883917	-0.007541	0.003282	-0.467572
07395	-0.764984	0.113007	8.526370	-0.445448	-0.698545	-1.291511	-0.883265	-0.005315	0.004208	-0.468826
07396	-0.750328	0.037505	8.355849	-0.397713	-0.710991	-1.462782	-0.882766	-0.004538	0.004811	-0.469766
07397	-0.460750	0.174894	8.547412	-0.355464	-0.396454	-1.267654	-0.882442	-0.004809	0.004963	-0.470370
07398	-0.384545	0.113794	8.849821	-0.256884	-0.379258	-0.965636	-0.882268	-0.005489	0.004886	-0.470690
07399	-0.539880	-0.117920	9.071215	-0.141579	-0.649403	-0.748995	-0.882245	-0.006090	0.004658	-0.470729
07400	-0.550522	-0.353416	9.387506	0.059455	-0.799633	-0.436639	-0.882394	-0.006485	0.004278	-0.470448
07401	-0.747859	-0.363289	9.560330	-0.034389	-0.969904	-0.265474	-0.882666	-0.006289	0.003893	-0.469942
07402	-0.600280	-0.183953	9.472355	-0.092376	-0.733945	-0.348416	-0.882967	-0.005865	0.002741	-0.469391
07403	-0.545021	-0.613429	10.025769	0.320267	-0.909308	0.200295	-0.883834	-0.004934	0.000636	-0.467773
07404	-0.068316	-0.354217	9.886453	0.400069	-0.330590	0.066712	-0.885382	-0.003806	-0.001809	-0.464845
07405	1.478774	0.120973	9.183371	0.919489	1.251129	-0.640742	-0.887097	-0.003268	-0.005010	-0.461544
07406	1.814721	-0.128161	11.062043	1.434040	1.403374	1.216894	-0.888989	-0.003933	-0.009050	-0.457822
07407	1.705566	-0.382903	11.488695	1.674877	1.191014	1.625032	-0.891546	-0.003180	-0.012281	-0.452753
07408	0.730711	1.041405	11.528204	0.027678	1.279867	1.714605	-0.894346	-0.002990	-0.015502	-0.447098
07409	0.043822	2.634359	13.161487	-1.539126	1.701384	3.412392	-0.895875	-0.004821	-0.015187	-0.444020
07410	0.117587	0.409008	11.749783	0.196685	0.334863	1.938328	-0.896197	-0.007691	-0.010619	-0.443464
07411	-0.048907	-0.813817	9.504433	0.928340	-0.603410	-0.337845	-0.896942	-0.008440	-0.007280	-0.442008
07412	0.503231	-0.341830	9.825546	0.870328	0.104128	-0.007428	-0.898556	-0.007354	-0.007334	-0.438736
07413	0.664038	0.053020	11.519904	0.706837	0.492732	1.694237	-0.900414	-0.005229	-0.008437	-0.434921
07414	-0.001793	-0.244389	11.735576	0.518289	-0.163515	1.912831	-0.902229	-0.002515	-0.008210	-0.431172
07415	-0.027924	-0.707000	11.239597	0.798491	-0.422921	1.412825	-0.904235	0.001069	-0.006850	-0.426979
07416	0.462401	-0.705952	11.136223	1.033983	0.022211	1.307428	-0.906410	0.006259	-0.005352	-0.422318
07417	0.649424	-0.757345	11.450428	1.111372	0.242560	1.624597	-0.908284	0.013600	-0.004189	-0.418112
07418	0.029511	-1.235953	11.132272	0.968624	-0.401154	1.338705	-0.909645	0.022465	-0.003090	-0.414767
07419	-0.537762	-1.293263	10.338133	0.534591	-0.744530	0.579414	-0.910789	0.031137	-0.001724	-0.411694
07420	-0.353004	-1.538629	10.200102	0.739292	-0.626550	0.463120	-0.911606	0.039877	-0.000613	-0.409125
07421	-0.218235	-2.170292	10.527446	1.193679	-0.755965	0.844938	-0.911867	0.049617	-0.000073	-0.407476
07422	-0.808375	-2.645608	10.060811	1.070490	-1.361932	0.476516	-0.911682	0.060288	-0.000013	-0.406449
07423	-1.344103	-3.073048	10.016871	0.940134	-1.853345	0.544216	-0.911513	0.070310	-0.000200	-0.405217
07424	-0.966131	-3.155837	9.911238	1.174142	-1.469071	0.462807	-0.911679	0.079098	0.000027	-0.403217
07425	-0.542974	-3.067959	9.426469	1.333556	-1.032444	-0.029060	-0.912533	0.086602	0.001055	-0.399728
07426	-0.040815	-3.071023	9.523881	1.574392	-0.541545	0.054595	-0.914161	0.094420	0.002567	-0.394192
07427	0.647502	-2.608905	9.865771	1.582824	0.446413	0.279476	-0.916122	0.104085	0.004207	-0.387129
07428	0.350595	-2.390481	9.971915	1.089672	0.565227	0.373840	-0.917726	0.115661	0.005869	-0.379956
07429	-0.650327	-2.526899	10.053595	0.321164	-0.001734	0.568698	-0.918802	0.129063	0.007752	-0.372941
07430	-0.749478	-2.169230	9.607410	-0.114175	0.315701	0.058955	-0.919338	0.143891	0.010355	-0.366067
07431	-0.207382	-1.082718	9.015900	-0.537544	1.522499	-0.874659	-0.919145	0.158798	0.013491	-0.360240
07432	-0.151086	-1.262415	9.037399	-0.524665	1.669812	-0.856047	-0.917785	0.173316	0.016193	-0.356890
07433	-0.544257	-2.186977	9.087671	-0.351413	1.011982	-0.511497	-0.915421	0.186199	0.017793	-0.356395
07434	-2.538650	-3.548129	9.445465	-1.107027	-0.913690	0.492050	-0.913147	0.195142	0.018291	-0.357417
07435	-3.608050	-5.023505	10.453251	-1.169462	-2.132496	2.087230	-0.912148	0.199376	0.018698	-0.357612
07436	-3.497303	-5.230556	11.243166	-1.136729	-1.864262	2.884976	-0.912386	0.200969	0.020128	-0.356031
07437	-2.234200	-4.172399	11.295910	-0.949278	-0.302262	2.394082	-0.913268	0.201519	0.022511	-0.353307
07438	-0.654362	-3.249882	10.940615	-0.355814	1.210272	1.549324	-0.914306	0.201785	0.024913	-0.350294
07439	0.369453	-3.134644	11.201218	0.250695	2.033798	1.642900	-0.915097	0.202522	0.026188	-0.347702
07440	0.118852	-3.483365	11.319960	0.236799	1.687231	1.908515	-0.915627	0.203697	0.026025	-0.345626
07441	-0.798327	-3.693503	11.029348	-0.278146	0.872820	1.809988	-0.916392	0.204365	0.025136	-0.343262
07442	-1.287242	-3.416938	10.565234	-0.731929	0.595744	1.325803	-0.917672	0.204255	0.024167	-0.339963
07443	-1.398924	-2.595661	9.828228	-1.183484	0.828626	0.346114	-0.919293	0.203733	0.023250	-0.335937
07444	-1.299862	-1.474652	9.006103	-1.633424	1.372926	-0.844906	-0.921019	0.202726	0.022245	-0.331860
07445	-1.432870	-0.977238	8.551696	-1.937580	1.473724	-1.433340	-0.922537	0.201492	0.020941	-0.328464
07446	-2.254238	-1.139094	8.402477	-2.433661	0.800609	-1.421203	-0.923676	0.200252	0.019474	-0.326100
07447	-2.659472	-1.364009	8.201137	-2.561903	0.318333	-1.474389	-0.924683	0.198803	0.018155	-0.324206
07448	-2.405241	-1.250457	8.138895	-2.394431	0.521460	-1.591668	-0.925694	0.197111	0.016869	-0.322418
07449	-1.816206	-1.286435	8.493813	-1.931963	0.961004	-1.301385	-0.926595	0.195412	0.015513	-0.320930
07450	-1.508641	-1.505068	8.550432	-1.537950	0.993577	-1.193027	-0.927341	0.194033	0.014170	-0.319670
07451	-1.409134	-1.645414	8.647161	-1.360518	0.971951	-1.056510	-0.928065	0.192594	0.012756	-0.318497
07452	-0.933800	-1.916356	8.958263	-0.829574	1.148889	-0.713975	-0.928725	0.190851	0.010966	-0.317688
07453	-0.911469	-2.132244	9.039235	-0.647549	1.008135	-0.558012	-0.929422	0.188367	0.008606	-0.317205
07454	-0.708974	-2.259348	9.418330	-0.397038	1.123227	-0.174620	-0.930483	0.184717	0.006082	-0.316297
07455	-0.297840	-2.126870	9.692273	-0.110759	1.494018	0.000941	-0.931895	0.180446	0.003923	-0.314636
07456	-0.076340	-1.903649	9.613699	0.007810	1.695422	-0.159825	-0.933441	0.176502	0.002121	-0.312297
07457	0.152792	-1.667525	9.247448	0.146710	1.831144	-0.596164	-0.935054	0.173783	0.000416	-0.308988
07458	-0.243615	-1.572148	9.111347	-0.170176	1.599163	-0.704385	-0.936640	0.172228	-0.001478	-0.305026
07459	-1.070699	-1.973293	9.322202	-0.591654	0.873146	-0.282152	-0.938190	0.170505	-0.003502	-0.301191
07460	-1.649911	-2.490785	9.571497	-0.755248	0.200231	0.183762	-0.939856	0.167556	-0.005093	-0.297607
07461	-1.495196	-2.653426	9.660777	-0.507981	0.128096	0.303233	-0.941786	0.163241	-0.006166	-0.293858
07462	-0.591952	-2.300401	9.467578	0.094078	0.751430	-0.081148	-0.943867	0.158004	-0.006920	-0.290004
07463	0.213404	-1.966515	8.994497	0.654287	1.211478	-0.706812	-0.945889	0.152651	-0.007853	-0.286234
07464	0.092182	-1.791168	8.203027	0.554939	0.964650	-1.490001	-0.947866	0.147378	-0.009548	-0.282379
07465	-0.656707	-1.851456	7.595217	0.044647	0.268117	-1.972287	-0.949945	0.141867	-0.012089	-0.278085
07466	-1.156064	-2.210030	7.614271	-0.131280	-0.353683	-1.809267	-0.952119	0.136067	-0.015191	-0.273359
07467	-1.879854	-2.619167	7.602983	-0.475930	-1.140750	-1.647476	-0.954328	0.129963	-0.018478	-0.268375
07468	-2.551171	-2.844867	7.492706	-0.882670	-1.775066	-1.638846	-0.956712	0.123254	-0.021616	-0.262761
07469	-2.913650	-2.876915	7.483567	-1.138899	-2.069769	-1.615862	-0.959204	0.115919	-0.024606	-0.256680
07470	-3.212684	-2.566159	7.364206	-1.521240	-2.068218	-1.778657	-0.961767	0.108297	-0.027140	-0.250077
07471	-2.838033	-2.096558	7.059839	-1.405094	-1.638735	-2.221177	-0.964383	0.100997	-0.028830	-0.242762
07472	-1.907191	-1.337306	6.853779	-0.937139	-0.669983	-2.666183	-0.966975	0.094605	-0.029686	-0.234793
07473	-0.602940	-0.635728	6.777904	-0.087248	0.448109	-2.993675	-0.969318	0.089891	-0.030477	-0.226744
07474	-0.000947	-0.369869	6.962176	0.367993	0.932630	-2.913175	-0.971120	0.087466	-0.032383	-0.219605
07475	-0.311453	-0.610264	7.132648	0.238597	0.605525	-2.676839	-0.972414	0.087211	-0.035568	-0.213402
07476	-0.837707	-1.070393	7.539766	0.016629	0.069487	-2.151734	-0.973343	0.088316	-0.039317	-0.207986
07477	-1.760193	-2.132640	8.169189	-0.313492	-1.096326	-1.263914	-0.973913	0.090271	-0.043112	-0.203680
07478	-3.236021	-3.144502	8.577756	-1.198925	-2.457675	-0.514311	-0.974375	0.091521	-0.045900	-0.200274
07479	-3.441468	-3.712504	8.916705	-1.129969	-2.957920	-0.060360	-0.974964	0.091332	-0.047103	-0.197194
07480	-2.849108	-3.573542	8.843252	-0.652676	-2.629044	-0.233919	-0.975688	0.089885	-0.047356	-0.194191
07481	-1.890554	-2.761670	8.936416	-0.088315	-1.553166	-0.397793	-0.976515	0.087152	-0.047312	-0.191270
07482	-0.712215	-2.096070	9.227941	0.761674	-0.521102	-0.367923	-0.977293	0.083674	-0.047123	-0.188883
07483	-0.162331	-1.726439	9.194136	1.131691	-0.056882	-0.525343	-0.977957	0.080342	-0.046983	-0.186915
07484	0.276968	-1.485343	9.125701	1.453136	0.254423	-0.681157	-0.978488	0.077992	-0.047429	-0.185009
07485	0.650012	-1.399101	9.399191	1.802970	0.481863	-0.472352	-0.978743	0.077392	-0.048388	-0.183659
07486	0.126529	-1.286486	9.354935	1.289543	0.397673	-0.465776	-0.978694	0.078238	-0.049347	-0.183308
07487	-0.994439	-1.466269	8.851598	0.302699	-0.213045	-0.793133	-0.978356	0.080240	-0.051718	-0.183594
07488	-1.225960	-2.297255	9.204268	0.472901	-0.941622	-0.305437	-0.977768	0.083309	-0.055802	-0.184159
07489	-1.955607	-3.034089	10.053791	0.211917	-1.640001	0.740658	-0.977136	0.087111	-0.059846	-0.184486
07490	-2.973323	-3.557202	10.421872	-0.447844	-2.317273	1.347004	-0.976710	0.090506	-0.062097	-0.184364
07491	-3.543467	-3.721580	10.382494	-0.906173	-2.609065	1.437820	-0.976677	0.092466	-0.062113	-0.183560
07492	-2.980128	-3.163572	10.007557	-0.661197	-1.951754	0.901498	-0.977142	0.092836	-0.060105	-0.181555
07493	-1.775950	-1.627395	9.238324	-0.233752	-0.281066	-0.272503	-0.977796	0.092875	-0.057371	-0.178879
07494	-0.344257	-0.213210	8.364452	0.473246	1.339170	-1.559771	-0.977993	0.094185	-0.056377	-0.177428
07495	0.070169	0.277485	8.355510	0.676608	1.963085	-1.714248	-0.977568	0.097190	-0.057394	-0.177821
07496	-0.619050	-0.692785	8.604748	0.411398	0.951787	-1.220290	-0.976881	0.101120	-0.058541	-0.179028
07497	-1.149872	-1.527051	8.644124	0.229929	0.085564	-0.963146	-0.976248	0.104849	-0.059484	-0.180022
07498	-1.353884	-2.309222	8.900939	0.352780	-0.583844	-0.543022	-0.975898	0.107397	-0.060169	-0.180192
07499	-1.672380	-2.831289	9.178060	0.277804	-1.067077	-0.125896	-0.975834	0.108727	-0.060987	-0.179462
07500	-1.837380	-2.800327	9.337725	0.134181	-1.037009	0.052276	-0.975990	0.109216	-0.061678	-0.178076
07501	-1.798559	-2.379431	9.043572	-0.006338	-0.698884	-0.315624	-0.976295	0.109241	-0.061889	-0.176309
07502	-1.526218	-1.892503	8.577497	0.027459	-0.266576	-0.901315	-0.976639	0.109393	-0.061978	-0.174268
07503	-1.387225	-1.397464	8.349028	-0.040861	0.194908	-1.236916	-0.976940	0.110638	-0.062460	-0.171599
07504	-1.469680	-1.006638	8.132517	-0.267809	0.516531	-1.507729	-0.977032	0.113433	-0.063842	-0.168715
07505	-1.821201	-0.859569	8.075138	-0.633151	0.598128	-1.535964	-0.976759	0.118000	-0.066344	-0.166184
07506	-2.057848	-1.274433	8.119687	-0.680663	0.255261	-1.371206	-0.976098	0.124026	-0.069377	-0.164426
07507	-2.205459	-1.836476	8.368469	-0.573372	-0.117808	-0.985242	-0.975166	0.130940	-0.072342	-0.163315
07508	-2.085794	-2.413572	8.606931	-0.216908	-0.401974	-0.645109	-0.974024	0.138882	-0.074866	-0.162430
07509	-1.959190	-2.849087	8.878253	0.093003	-0.514217	-0.299371	-0.972617	0.148199	-0.077018	-0.161620
07510	-2.193007	-3.331043	8.859651	0.042426	-0.828073	-0.132431	-0.970884	0.158668	-0.078940	-0.161171
07511	-2.843371	-4.035781	9.038213	-0.299930	-1.377285	0.388816	-0.968931	0.169032	-0.080909	-0.161415
07512	-3.635723	-4.998537	8.202408	-0.792027	-2.559786	0.101997	-0.967204	0.177426	-0.082534	-0.161941
07513	-4.121449	-5.264415	8.369635	-1.125894	-2.742693	0.481023	-0.966418	0.181532	-0.083525	-0.161571
07514	-3.798608	-5.189645	9.079951	-0.774458	-2.276944	1.051155	-0.966622	0.181459	-0.083436	-0.160478
07515	-3.266323	-4.399789	8.936330	-0.577330	-1.508299	0.544748	-0.967368	0.178977	-0.082492	-0.159252
07516	-2.861416	-3.484983	8.508763	-0.574456	-0.798319	-0.233326	-0.968242	0.175748	-0.081227	-0.158185
07517	-2.653913	-2.609202	8.087342	-0.736335	-0.170167	-0.942236	-0.968983	0.172886	-0.080144	-0.157349
07518	-2.408936	-1.813888	7.865974	-0.805899	0.481160	-1.440977	-0.969535	0.170310	-0.079295	-0.157188
07519	-2.378515	-1.793261	7.987053	-0.775626	0.505810	-1.338695	-0.969849	0.167915	-0.078755	-0.158102
07520	-2.544369	-2.191202	8.101506	-0.783309	0.100621	-1.078516	-0.969926	0.165907	-0.078598	-0.159813
07521	-2.882511	-2.565074	8.378180	-0.934452	-0.274435	-0.640243	-0.969905	0.164092	-0.078657	-0.161775
07522	-3.167627	-2.712962	8.868184	-1.082768	-0.363178	-0.079535	-0.969872	0.162184	-0.078875	-0.163780
07523	-3.245602	-2.924583	9.210089	-1.028298	-0.506413	0.316419	-0.969866	0.160052	-0.079004	-0.165834
07524	-3.145988	-2.771057	9.315105	-0.959568	-0.354316	0.351005	-0.969897	0.157780	-0.079110	-0.167768
07525	-2.933644	-2.605158	9.485537	-0.784472	-0.134619	0.421315	-0.969917	0.155714	-0.079303	-0.169486
07526	-2.852701	-2.282363	9.558357	-0.800456	0.161528	0.387427	-0.969912	0.154041	-0.079423	-0.170978
07527	-2.420093	-1.970502	9.684177	-0.485970	0.582902	0.333594	-0.969869	0.152944	-0.079473	-0.172181
07528	-1.787673	-1.570051	9.672658	-0.035834	1.122421	0.084788	-0.969595	0.153094	-0.079864	-0.173403
07529	-1.525328	-1.493374	9.084689	0.142530	1.071476	-0.543398	-0.969695	0.151080	-0.082010	-0.173611
07530	-2.240192	-1.286544	7.628258	-0.710724	0.516975	-1.807019	-0.970372	0.145130	-0.084346	-0.173786
07531	-4.299427	-2.367012	9.794368	-1.909405	-0.533855	0.961605	-0.971288	0.139145	-0.086215	-0.172644
07532	-4.166267	-1.320904	10.445433	-2.035663	0.518495	1.313638	-0.972643	0.131939	-0.086662	-0.170432
07533	-3.619716	-0.396845	10.621593	-1.802824	1.469872	1.172159	-0.973370	0.128106	-0.087340	-0.168853
07534	-3.746737	-0.932556	10.034445	-1.780375	0.735213	0.764995	-0.973628	0.126464	-0.088782	-0.167851
07535	-3.702208	-1.681162	9.434104	-1.530394	-0.122010	0.344962	-0.973913	0.124675	-0.090040	-0.166860
07536	-3.322199	-1.524766	8.861099	-1.292803	-0.045904	-0.314927	-0.974235	0.122745	-0.090548	-0.166137
07537	-3.138888	-0.808111	8.509374	-1.412498	0.542735	-0.833528	-0.974599	0.120858	-0.090427	-0.165449
07538	-3.107770	-0.456701	8.291918	-1.538160	0.787404	-1.115752	-0.975084	0.118890	-0.089703	-0.164408
07539	-2.793956	-0.400730	7.855725	-1.339758	0.787589	-1.611235	-0.975665	0.116632	-0.088435	-0.163259
07540	-2.129603	-0.159490	7.821867	-0.822374	1.154841	-1.829451	-0.976325	0.113422	-0.087039	-0.162325
07541	-1.510124	-0.252031	8.329001	-0.149012	1.314907	-1.448200	-0.977025	0.109156	-0.086366	-0.161391
07542	-1.508537	-0.751121	9.092328	0.137969	0.955613	-0.616087	-0.977653	0.104468	-0.086806	-0.160456
07543	-1.761255	-1.321780	10.018860	0.253462	0.472669	0.431247	-0.978185	0.099658	-0.087920	-0.159667
07544	-1.948680	-1.838867	10.900259	0.416709	0.030088	1.404215	-0.978710	0.094869	-0.089050	-0.158736
07545	-1.986493	-2.171396	11.395998	0.599807	-0.287674	1.938333	-0.979212	0.090553	-0.089855	-0.157702
07546	-1.898800	-2.272413	11.258832	0.715257	-0.471552	1.797487	-0.979688	0.087111	-0.090128	-0.156526
07547	-1.732596	-2.139916	10.795995	0.762368	-0.457153	1.293354	-0.980152	0.084437	-0.089940	-0.155186
07548	-1.631231	-1.826119	10.188399	0.655602	-0.299841	0.640981	-0.980630	0.082312	-0.089231	-0.153711
07549	-1.453501	-1.577865	9.607905	0.636318	-0.164380	0.009842	-0.981132	0.080448	-0.088091	-0.152142
07550	-1.516380	-1.359999	9.161223	0.418921	-0.093852	-0.437583	-0.981591	0.078733	-0.086809	-0.150814
07551	-1.720940	-1.116221	8.811882	0.076131	-0.016430	-0.765552	-0.982009	0.077020	-0.085448	-0.149750
07552	-1.804301	-1.052115	8.733788	-0.057218	-0.025616	-0.832852	-0.982388	0.075357	-0.083851	-0.149013
07553	-1.589980	-1.047910	8.433555	0.067770	-0.045551	-1.167218	-0.982789	0.073663	-0.081585	-0.148472
07554	-1.079211	-1.204077	8.489587	0.564761	-0.079652	-1.189347	-0.983246	0.071671	-0.078796	-0.147923
07555	-0.886177	-1.414173	8.635644	0.785328	-0.244017	-1.055809	-0.983663	0.069650	-0.075818	-0.147675
07556	-0.525805	-1.715350	8.652853	1.173236	-0.467924	-1.066543	-0.983950	0.067735	-0.073001	-0.148071
07557	-0.598727	-1.695735	8.928649	1.093980	-0.469128	-0.782868	-0.984121	0.065805	-0.070463	-0.149032
07558	-0.646802	-1.560776	9.363077	1.025138	-0.332355	-0.359647	-0.984246	0.063983	-0.068084	-0.150100
07559	-0.738764	-1.531590	9.762121	0.940511	-0.314183	0.046675	-0.984397	0.062350	-0.065817	-0.150812
07560	-1.007441	-1.439799	9.857932	0.630835	-0.327946	0.175358	-0.984607	0.060944	-0.063552	-0.150986
07561	-1.258660	-1.374575	9.602904	0.301402	-0.405357	-0.043652	-0.984920	0.059723	-0.061074	-0.150452
07562	-1.127721	-1.151457	9.250665	0.271731	-0.230844	-0.429456	-0.985334	0.058628	-0.058364	-0.149239
07563	-0.734037	-0.902462	8.824665	0.478272	0.036570	-0.924625	-0.985788	0.057439	-0.055714	-0.147712
07564	-0.391418	-0.919513	8.729813	0.756118	0.076573	-1.058799	-0.986245	0.056105	-0.053248	-0.146074
07565	-0.200969	-1.120495	8.802939	0.963712	-0.084153	-0.989332	-0.986664	0.054664	-0.050968	-0.144597
07566	-0.222178	-1.265273	9.112013	0.976681	-0.226467	-0.665357	-0.987054	0.053087	-0.048839	-0.143252
07567	-0.344162	-1.108574	9.540012	0.815674	-0.100000	-0.237530	-0.987405	0.051405	-0.046645	-0.142170
07568	-0.459575	-1.194935	9.815093	0.712991	-0.222880	0.057310	-0.987718	0.049831	-0.044325	-0.141297
07569	-0.523918	-1.286025	9.887538	0.638428	-0.356131	0.145077	-0.987994	0.048473	-0.041813	-0.140608
07570	-0.597613	-1.303125	9.869340	0.524210	-0.427033	0.137274	-0.988239	0.047276	-0.039300	-0.140012
07571	-0.566580	-1.171235	9.910660	0.475695	-0.316510	0.166657	-0.988418	0.046301	-0.037104	-0.139677
07572	-0.530936	-0.902720	10.001881	0.404046	-0.063777	0.235545	-0.988530	0.045545	-0.035350	-0.139586
07573	-0.578504	-0.929877	10.126036	0.340662	-0.110540	0.366092	-0.988692	0.044863	-0.033606	-0.139087
07574	-0.526041	-1.123560	10.238703	0.412924	-0.289904	0.488547	-0.988957	0.044297	-0.031484	-0.137881
07575	-0.150742	-0.972744	10.127966	0.679675	-0.072574	0.340007	-0.989230	0.043741	-0.029109	-0.136614
07576	-0.222039	-0.743724	9.981397	0.494206	0.096763	0.186158	-0.989410	0.043173	-0.026731	-0.135977
07577	-0.407254	-0.492048	9.985718	0.203751	0.272212	0.187650	-0.989512	0.042654	-0.024506	-0.135816
07578	-0.524874	-0.423888	10.124384	0.039046	0.302362	0.329564	-0.989529	0.042164	-0.022653	-0.136166
07579	-0.773227	-0.432311	10.492649	-0.216031	0.244806	0.712225	-0.989461	0.041818	-0.021095	-0.137018
07580	-1.031641	-0.392551	10.551416	-0.507533	0.207874	0.782115	-0.989373	0.041733	-0.019261	-0.137943
07581	-0.901029	-0.428455	10.270947	-0.425623	0.179762	0.496245	-0.989325	0.041921	-0.016815	-0.138549
07582	-0.368481	-0.616082	9.737229	0.069405	0.098188	-0.049785	-0.989273	0.042182	-0.013949	-0.139155
07583	-0.000729	-0.481419	9.238332	0.321256	0.284215	-0.571780	-0.989164	0.042324	-0.011239	-0.140129
07584	0.016432	-0.097306	8.896550	0.181144	0.622981	-0.939284	-0.989018	0.042100	-0.009095	-0.141378
07585	-0.219589	-0.004834	8.817282	-0.103498	0.627820	-1.015655	-0.988907	0.041500	-0.007639	-0.142413
07586	-0.395443	-0.116096	8.864867	-0.259282	0.458306	-0.953884	-0.988826	0.040491	-0.006730	-0.143315
07587	-0.360521	-0.009204	9.066403	-0.261536	0.560886	-0.760248	-0.988713	0.038947	-0.006484	-0.144527
07588	-0.336960	0.273872	9.188459	-0.312778	0.812955	-0.655316	-0.988519	0.036780	-0.006981	-0.146388
07589	-0.191244	-0.033772	9.143878	-0.066772	0.516145	-0.681578	-0.988302	0.034185	-0.007886	-0.148417
07590	0.150562	-0.404852	9.317416	0.394227	0.225805	-0.496349	-0.988131	0.031296	-0.008707	-0.150136
07591	0.315739	-0.532989	9.547150	0.613701	0.112846	-0.265845	-0.987997	0.028168	-0.009099	-0.151613
07592	0.476912	-0.703540	9.679310	0.834154	-0.051499	-0.132154	-0.987838	0.025042	-0.009073	-0.153190
07593	0.553526	-0.942420	9.749193	0.987226	-0.307145	-0.057066	-0.987625	0.022250	-0.008701	-0.155004
07594	0.608960	-1.028986	10.035305	1.068234	-0.409777	0.228615	-0.987429	0.019917	-0.007729	-0.156611
07595	0.350452	-1.038310	10.434793	0.811589	-0.528654	0.634677	-0.987323	0.018064	-0.005872	-0.157583
07596	0.058353	-0.880302	10.426376	0.444723	-0.508748	0.629091	-0.987300	0.016745	-0.003245	-0.157948
07597	-0.056724	-0.494005	9.837176	0.159855	-0.226633	0.033128	-0.987340	0.015677	-0.000474	-0.157843
07598	0.030206	-0.058298	8.885804	0.059867	0.163319	-0.928353	-0.987398	0.014605	0.001766	-0.157574
07599	0.268723	0.056773	8.368975	0.223162	0.310337	-1.447941	-0.987481	0.013327	0.003158	-0.157144
07600	0.450903	0.049386	8.323013	0.386297	0.331274	-1.492876	-0.987570	0.011600	0.003779	-0.156706
07601	0.461807	-0.154126	8.894774	0.456601	0.115917	-0.917071	-0.987639	0.009483	0.003915	-0.156412
07602	0.500972	-0.549852	9.625105	0.619935	-0.279278	-0.182864	-0.987693	0.007343	0.003781	-0.156187
07603	0.372566	-0.838431	10.252584	0.595441	-0.627182	0.444467	-0.987725	0.005532	0.003504	-0.156065
07604	0.322591	-0.741019	10.699903	0.527449	-0.581113	0.888953	-0.987762	0.004104	0.003296	-0.155880
07605	0.263622	-0.617603	10.777097	0.438553	-0.508189	0.964423	-0.987785	0.003039	0.003385	-0.155755
07606	0.269095	-0.461888	10.566392	0.394735	-0.378191	0.753084	-0.987767	0.002262	0.003696	-0.155880
07607	0.547906	-0.235229	9.794265	0.586186	-0.089941	-0.018227	-0.987702	0.001582	0.004066	-0.156287
07608	0.573167	-0.119645	9.160303	0.571219	0.017425	-0.651498	-0.987584	0.000885	0.004337	-0.157031
07609	0.673928	-0.154163	9.125033	0.673606	0.001476	-0.686330	-0.987465	-0.000030	0.004782	-0.157763
07610	0.585018	-0.134264	9.370114	0.576415	-0.028551	-0.441124	-0.987381	-0.001166	0.005325	-0.158268
07611	0.392683	-0.184438	9.706545	0.401833	-0.162722	-0.106132	-0.987299	-0.002353	0.005873	-0.158748
07612	0.242319	-0.209403	10.025293	0.259838	-0.262409	0.210917	-0.987185	-0.003594	0.006353	-0.159415
07613	0.200700	-0.231145	10.405583	0.219496	-0.326514	0.589958	-0.987059	-0.004669	0.006897	-0.160140
07614	0.148519	-0.185086	10.661343	0.147199	-0.325162	0.845320	-0.986905	-0.005523	0.007387	-0.161039
07615	0.002906	-0.133296	10.587013	-0.014208	-0.336818	0.769796	-0.986738	-0.006051	0.007865	-0.162017
07616	-0.083068	0.084450	10.438434	-0.171489	-0.165076	0.623705	-0.986577	-0.006353	0.008237	-0.162963
07617	-0.172597	0.206879	10.320546	-0.298888	-0.081108	0.506729	-0.986424	-0.006493	0.008338	-0.163879
07618	-0.172873	0.342400	10.106725	-0.342629	0.048943	0.295390	-0.986305	-0.006557	0.008368	-0.164589
07619	0.033379	0.274368	9.981596	-0.125355	0.052413	0.171810	-0.986219	-0.006645	0.008422	-0.165095
07620	0.301263	0.129653	9.904280	0.174865	0.002007	0.095478	-0.986134	-0.006809	0.008472	-0.165595
07621	0.434430	0.040810	9.910929	0.328946	-0.041221	0.102301	-0.986038	-0.006928	0.008541	-0.166158
07622	0.445793	-0.050759	9.913409	0.366081	-0.126154	0.103312	-0.985949	-0.007005	0.008873	-0.166663
07623	0.413945	-0.102494	9.902046	0.343879	-0.186884	0.090806	-0.985865	-0.006979	0.009501	-0.167124
07624	0.406439	-0.087166	9.652718	0.320392	-0.169879	-0.157832	-0.985758	-0.006887	0.010268	-0.167715
07625	0.339139	-0.024277	9.325906	0.224786	-0.124954	-0.484131	-0.985606	-0.006737	0.011037	-0.168566
07626	0.377142	0.069331	9.089338	0.220029	-0.018406	-0.717944	-0.985417	-0.006706	0.011582	-0.169628
07627	0.324561	0.208495	8.980992	0.117679	0.097055	-0.824709	-0.985195	-0.006728	0.011859	-0.170894
07628	0.083191	0.231675	9.096498	-0.122190	0.032574	-0.713738	-0.984945	-0.006934	0.011947	-0.172316
07629	-0.155475	0.344928	9.273524	-0.386786	0.049050	-0.539641	-0.984695	-0.007216	0.011830	-0.173735
07630	-0.319083	0.474996	9.410297	-0.583024	0.105507	-0.403646	-0.984456	-0.007578	0.011599	-0.175086
07631	-0.297903	0.499070	9.567770	-0.568600	0.123796	-0.244960	-0.984258	-0.007985	0.011397	-0.176190
07632	-0.265392	0.395326	9.790499	-0.500744	0.024641	-0.023446	-0.984084	-0.008323	0.011272	-0.177150
07633	-0.100479	0.316199	10.018535	-0.319105	-0.003761	0.206259	-0.983927	-0.008542	0.011258	-0.178012
07634	0.154469	0.117694	10.272182	-0.015653	-0.109617	0.460734	-0.983806	-0.008524	0.011497	-0.178663
07635	0.373540	-0.003663	10.300734	0.222732	-0.145603	0.491382	-0.983751	-0.008269	0.012101	-0.178941
07636	0.328052	-0.098859	10.436815	0.193460	-0.248295	0.625003	-0.983785	-0.007643	0.013141	-0.178706
07637	0.150723	0.123106	10.258676	-0.076139	-0.086194	0.447185	-0.983891	-0.006610	0.014576	-0.178052
07638	0.139758	0.485616	9.973021	-0.241975	0.272722	0.166463	-0.984025	-0.005448	0.016166	-0.177213
07639	0.133537	0.735449	9.540807	-0.356881	0.530836	-0.264050	-0.984127	-0.004382	0.017516	-0.176543
07640	0.245999	0.827526	9.294162	-0.300824	0.674377	-0.507772	-0.984202	-0.003658	0.018460	-0.176046
07641	0.436090	0.657410	9.159990	-0.073984	0.590893	-0.638095	-0.984251	-0.003302	0.018929	-0.175730
07642	0.458917	0.439468	9.104619	0.019225	0.398391	-0.694643	-0.984281	-0.003223	0.018995	-0.175555
07643	0.462053	0.255304	9.136085	0.086292	0.225698	-0.664555	-0.984301	-0.003361	0.018807	-0.175460
07644	0.500850	-0.004134	9.298780	0.213263	-0.010108	-0.502876	-0.984307	-0.003609	0.018469	-0.175456
07645	0.579577	-0.156045	9.533028	0.340396	-0.133528	-0.267784	-0.984302	-0.003864	0.018124	-0.175514
07646	0.635110	-0.229748	9.579565	0.422957	-0.187660	-0.220497	-0.984284	-0.004068	0.017892	-0.175637
07647	0.712092	-0.340869	9.631449	0.536770	-0.268427	-0.167590	-0.984232	-0.004188	0.017714	-0.175944
07648	0.419487	-0.116242	9.647049	0.188561	-0.159265	-0.158977	-0.984148	-0.004176	0.017456	-0.176437
07649	0.092345	0.085946	9.653330	-0.184589	-0.081577	-0.160643	-0.984096	-0.004088	0.017289	-0.176747
07650	-0.062297	0.121166	9.674109	-0.340793	-0.100044	-0.144140	-0.984110	-0.003928	0.017254	-0.176674
07651	-0.140975	0.210923	9.471821	-0.441863	-0.035827	-0.347845	-0.984211	-0.003730	0.017347	-0.176106
07652	-0.099243	0.334708	9.209849	-0.441904	0.102967	-0.607400	-0.984363	-0.003583	0.017514	-0.175244
07653	0.108578	0.452680	8.900539	-0.281554	0.292113	-0.909222	-0.984520	-0.003637	0.017578	-0.174352
07654	0.421856	0.332953	8.649552	0.061767	0.289465	-1.151512	-0.984637	-0.003894	0.017437	-0.173697
07655	0.643874	0.011139	8.648379	0.386138	0.058258	-1.149164	-0.984667	-0.004268	0.017058	-0.173559
07656	0.592910	-0.008672	8.788738	0.350547	0.013602	-1.010957	-0.984627	-0.004732	0.016547	-0.173822
07657	0.324153	-0.075917	9.114101	0.122468	-0.154932	-0.694647	-0.984561	-0.005187	0.016217	-0.174212
07658	0.158264	-0.102128	9.343897	-0.025017	-0.248234	-0.470223	-0.984517	-0.005555	0.016210	-0.174452
07659	0.178360	0.010506	9.499771	-0.048318	-0.145356	-0.312471	-0.984501	-0.005846	0.016334	-0.174521
07660	0.230225	0.120331	9.542167	-0.040892	-0.030123	-0.267120	-0.984524	-0.005996	0.016559	-0.174361
07661	0.468004	-0.036242	9.694225	0.226091	-0.102565	-0.110281	-0.984586	-0.006063	0.017066	-0.173960
07662	0.545795	-0.094979	9.862454	0.302807	-0.137604	0.059712	-0.984686	-0.005984	0.017844	-0.173320
07663	0.559206	0.007095	10.102353	0.256383	-0.044018	0.301787	-0.984819	-0.005800	0.018852	-0.172462
07664	0.492452	0.064300	10.381338	0.144676	-0.019510	0.579496	-0.984955	-0.005547	0.019940	-0.171569
07665	0.429248	0.247562	10.540036	-0.005090	0.128626	0.738203	-0.985051	-0.005290	0.021071	-0.170886
07666	0.458268	0.309351	10.330166	-0.014143	0.203247	0.530256	-0.985095	-0.004995	0.022028	-0.170522
07667	0.405985	0.327899	10.131625	-0.080730	0.211867	0.329834	-0.985103	-0.004586	0.022735	-0.170392
07668	0.530776	0.376147	9.737143	0.020296	0.312998	-0.058879	-0.985115	-0.004267	0.023361	-0.170248
07669	0.612144	0.313511	9.392101	0.118606	0.291817	-0.400709	-0.985129	-0.004071	0.023934	-0.170092
07670	0.663505	0.275137	9.311287	0.172585	0.274266	-0.479361	-0.985148	-0.004107	0.024464	-0.169908
07671	0.693342	0.147454	9.345455	0.233360	0.159646	-0.444654	-0.985168	-0.004266	0.024933	-0.169720
07672	0.481208	0.041327	9.501146	0.054463	-0.019507	-0.299450	-0.985198	-0.004427	0.025439	-0.169462
07673	0.561061	-0.043012	9.637786	0.141988	-0.080521	-0.159869	-0.985232	-0.004578	0.026075	-0.169165
07674	0.593333	-0.113861	9.732374	0.181017	-0.143267	-0.064313	-0.985249	-0.004671	0.026633	-0.168980
07675	0.375092	-0.102558	9.917753	-0.046334	-0.211853	0.110316	-0.985270	-0.004608	0.027113	-0.168777
07676	0.247187	-0.050940	10.034930	-0.200748	-0.208236	0.221248	-0.985339	-0.004440	0.027759	-0.168277
07677	0.232966	0.005034	10.088500	-0.250947	-0.159049	0.274127	-0.985458	-0.004106	0.028604	-0.167445
07678	0.307677	0.322201	9.923937	-0.296091	0.173825	0.115308	-0.985590	-0.003633	0.029515	-0.166516
07679	0.469796	0.563450	9.690226	-0.227509	0.465197	-0.108540	-0.985656	-0.003317	0.030229	-0.166007
07680	0.534620	0.458228	9.612026	-0.139094	0.392024	-0.183887	-0.985679	-0.003097	0.030639	-0.165795
07681	0.562365	0.353604	9.676304	-0.089205	0.303326	-0.118762	-0.985703	-0.002924	0.030940	-0.165603
07682	0.397314	0.290512	9.815929	-0.238684	0.187689	0.010882	-0.985752	-0.002874	0.031353	-0.165230
07683	0.111715	0.170452	9.895911	-0.483289	-0.021644	0.073492	-0.985828	-0.002870	0.031973	-0.164660
07684	0.022024	0.150641	10.052458	-0.582940	-0.074396	0.223732	-0.985921	-0.002831	0.032660	-0.163968
07685	0.049402	0.054605	10.024657	-0.538012	-0.156214	0.196573	-0.986025	-0.002725	0.033318	-0.163206
07686	0.454500	-0.093270	9.902743	-0.112952	-0.161268	0.098963	-0.986107	-0.002450	0.033842	-0.162606
07687	0.962656	-0.305762	9.923704	0.424853	-0.195666	0.151313	-0.986145	-0.002100	0.034179	-0.162312
07688	1.137525	-0.476896	9.958803	0.633746	-0.295049	0.197830	-0.986170	-0.001515	0.034614	-0.162073
07689	1.092561	-0.534080	9.883429	0.598982	-0.351970	0.121012	-0.986221	-0.000785	0.035479	-0.161585
07690	1.100345	-0.403861	9.941635	0.539228	-0.215680	0.180942	-0.986281	0.000080	0.036555	-0.160976
07691	0.939343	-0.330714	10.020629	0.333136	-0.184843	0.250092	-0.986368	0.001114	0.037717	-0.160171
07692	0.827329	-0.265177	10.020632	0.178269	-0.142237	0.242946	-0.986469	0.002191	0.039022	-0.159223
07693	0.835066	-0.010814	9.962683	0.080528	0.117747	0.183915	-0.986540	0.003174	0.040327	-0.158440
07694	0.489599	0.146144	9.857034	-0.314812	0.173784	0.051025	-0.986546	0.004026	0.041477	-0.158081
07695	0.429896	0.329324	9.426375	-0.419510	0.345326	-0.386420	-0.986543	0.004720	0.042567	-0.157793
07696	0.507681	0.768301	8.885457	-0.457981	0.798594	-0.927201	-0.986517	0.005006	0.043261	-0.157756
07697	0.611463	0.920628	8.581630	-0.389232	0.977803	-1.224427	-0.986411	0.004712	0.043196	-0.158449
07698	0.780090	0.477906	8.872210	-0.108935	0.598850	-0.914230	-0.986243	0.003927	0.042669	-0.159654
07699	0.904986	-0.093794	9.482218	0.155227	0.074319	-0.288477	-0.986059	0.002847	0.041940	-0.161000
07700	0.833888	-0.278134	9.974791	0.126786	-0.145811	0.198896	-0.985881	0.001877	0.041175	-0.162296
07701	0.718012	-0.420922	10.429645	0.046716	-0.338680	0.644525	-0.985728	0.001166	0.040540	-0.163389
07702	0.739007	-0.594473	10.793423	0.109847	-0.509374	1.009788	-0.985615	0.000928	0.040081	-0.164179
07703	0.868825	-0.600978	10.854433	0.238934	-0.471591	1.080211	-0.985511	0.001227	0.039760	-0.164883
07704	1.099249	-0.564062	10.667342	0.459315	-0.345214	0.910583	-0.985407	0.002045	0.039769	-0.165493
07705	1.103978	-0.352866	10.342795	0.409410	-0.117628	0.586118	-0.985299	0.003295	0.040264	-0.165996
07706	0.986868	0.086275	9.755497	0.177677	0.289720	-0.012919	-0.985229	0.004606	0.041404	-0.166096
07707	0.935549	0.273078	9.174904	0.083748	0.474561	-0.598765	-0.985210	0.005766	0.042885	-0.165800
07708	0.831139	0.161344	8.783491	0.023664	0.352137	-0.995551	-0.985205	0.006690	0.044360	-0.165406
07709	0.700660	0.228410	8.572844	-0.129968	0.382706	-1.217727	-0.985233	0.007231	0.045725	-0.164839
07710	0.835348	0.004942	8.647592	0.041775	0.216657	-1.127645	-0.985288	0.007375	0.046794	-0.164204
07711	0.903179	-0.277443	8.946775	0.157980	-0.032473	-0.817607	-0.985328	0.007317	0.047231	-0.163843
07712	0.753525	-0.346664	9.480944	-0.011139	-0.152598	-0.296761	-0.985363	0.007212	0.047211	-0.163644
07713	0.810491	-0.515276	9.905911	0.061323	-0.298164	0.135016	-0.985403	0.007173	0.047071	-0.163442
07714	1.016028	-0.585416	10.156554	0.259425	-0.298427	0.403685	-0.985426	0.007321	0.046813	-0.163375
07715	0.925674	-0.445017	10.444858	0.109537	-0.189696	0.680261	-0.985408	0.007743	0.046430	-0.163568
07716	0.880227	-0.207924	10.476939	-0.008325	0.031863	0.703166	-0.985349	0.008361	0.046239	-0.163948
07717	0.982289	-0.092411	10.114293	0.079223	0.188438	0.347557	-0.985276	0.008943	0.046489	-0.164284
07718	1.072279	-0.020595	9.626194	0.176066	0.297089	-0.133093	-0.985168	0.009385	0.046777	-0.164830
07719	0.936995	0.179858	9.336764	0.004898	0.450746	-0.438133	-0.985023	0.009685	0.046736	-0.165687
07720	0.770218	0.165621	9.212965	-0.134289	0.387287	-0.575190	-0.984888	0.009712	0.046393	-0.166582
07721	0.555796	0.015720	9.433904	-0.297539	0.174955	-0.368718	-0.984762	0.009514	0.045793	-0.167498
07722	0.428404	-0.189492	9.731916	-0.360830	-0.062956	-0.076392	-0.984646	0.009299	0.044940	-0.168422
07723	0.391143	-0.265959	10.025371	-0.376178	-0.147756	0.215693	-0.984561	0.009231	0.043920	-0.169190
07724	0.556137	-0.475931	10.208008	-0.146719	-0.286923	0.416454	-0.984533	0.009359	0.042998	-0.169582
07725	0.796368	-0.647771	10.379129	0.140254	-0.360042	0.609923	-0.984544	0.009759	0.042105	-0.169721
07726	0.962119	-0.520396	10.396307	0.268821	-0.170820	0.636149	-0.984579	0.010377	0.041196	-0.169702
07727	0.825779	-0.303089	10.201016	0.099318	0.004889	0.425700	-0.984645	0.011105	0.040293	-0.169492
07728	0.634146	0.033565	9.847071	-0.153267	0.273660	0.049851	-0.984689	0.011785	0.039643	-0.169344
07729	0.625836	0.359611	9.502853	-0.232837	0.589204	-0.303544	-0.984664	0.012159	0.038922	-0.169630
07730	0.516052	0.400361	9.002295	-0.302367	0.593185	-0.811320	-0.984610	0.012068	0.038390	-0.170069
07731	0.483123	0.225137	8.777288	-0.254098	0.409346	-1.032440	-0.984625	0.011323	0.038550	-0.170000
07732	0.443010	0.070908	9.089189	-0.267685	0.234287	-0.719390	-0.984711	0.010268	0.039272	-0.169399
07733	0.546834	-0.226075	9.306502	-0.097107	-0.032138	-0.487956	-0.984804	0.009241	0.040031	-0.168738
07734	0.554510	-0.301584	9.661656	-0.100009	-0.120857	-0.131707	-0.984856	0.008414	0.040524	-0.168364
07735	0.527674	-0.387085	9.860044	-0.117049	-0.227762	0.065731	-0.984891	0.007660	0.040839	-0.168119
07736	0.682245	-0.752766	10.000862	0.139309	-0.537940	0.224271	-0.984889	0.006839	0.040745	-0.168188
07737	0.956789	-0.730642	10.182233	0.378962	-0.439335	0.424037	-0.984910	0.006431	0.040812	-0.168063
07738	0.977642	-0.904535	10.030370	0.464673	-0.595538	0.277491	-0.984962	0.006917	0.040992	-0.167697
07739	0.736449	-0.398452	9.631864	0.091722	-0.188188	-0.146764	-0.985063	0.007362	0.041535	-0.166949
07740	1.167281	-0.213778	9.039085	0.468957	0.135750	-0.709120	-0.985158	0.007719	0.042258	-0.166189
07741	1.372986	-0.048127	8.606254	0.629853	0.364982	-1.127926	-0.985208	0.008078	0.042858	-0.165718
07742	1.460955	0.084637	8.537308	0.664882	0.521808	-1.192198	-0.985219	0.008255	0.043366	-0.165513
07743	1.163501	-0.011862	8.706577	0.393868	0.331758	-1.043813	-0.985195	0.008163	0.043866	-0.165529
07744	0.886632	-0.097408	9.090630	0.121356	0.153522	-0.680499	-0.985141	0.007827	0.044376	-0.165730
07745	0.711156	-0.181088	9.586418	-0.065429	0.004570	-0.198446	-0.985078	0.007253	0.044883	-0.165994
07746	0.575867	-0.348913	9.937896	-0.175713	-0.213261	0.144158	-0.985027	0.006685	0.045457	-0.166162
07747	0.570788	-0.476844	10.168233	-0.169339	-0.349972	0.375294	-0.985020	0.006228	0.046196	-0.166023
07748	0.770211	-0.578586	10.201702	0.033125	-0.391183	0.426872	-0.985052	0.005983	0.047106	-0.165585
07749	1.007580	-0.518322	9.948229	0.241224	-0.260580	0.193561	-0.985084	0.005945	0.047994	-0.165136
07750	1.224470	-0.331029	9.635176	0.395927	-0.012417	-0.102456	-0.985100	0.006039	0.048763	-0.164814
07751	1.409558	-0.284999	9.281587	0.574473	0.093797	-0.438408	-0.985075	0.006078	0.049321	-0.164793
07752	1.345409	-0.264654	9.206654	0.505478	0.092589	-0.518680	-0.985030	0.006143	0.049703	-0.164947
07753	1.192400	-0.142353	9.237805	0.311572	0.158476	-0.503717	-0.984987	0.006221	0.050085	-0.165084
07754	1.112532	-0.002966	9.225071	0.186122	0.264594	-0.526406	-0.984942	0.006250	0.050343	-0.165273
07755	0.853982	-0.142197	9.436812	-0.033395	0.047123	-0.336422	-0.984883	0.006291	0.050261	-0.165647
07756	0.524271	-0.134998	9.550715	-0.354667	-0.054543	-0.253373	-0.984837	0.006247	0.050144	-0.165958
07757	0.648122	-0.103486	9.577082	-0.249201	0.013037	-0.216387	-0.984815	0.005998	0.050126	-0.166107
07758	0.738585	-0.212907	9.591701	-0.127707	-0.064489	-0.191300	-0.984799	0.005829	0.050006	-0.166243
07759	0.710217	-0.296003	9.613628	-0.126219	-0.154956	-0.170389	-0.984793	0.005691	0.049868	-0.166323
07760	0.890664	-0.239120	9.533157	0.035222	-0.043232	-0.235191	-0.984796	0.005553	0.049738	-0.166349
07761	0.869753	-0.106246	9.474652	-0.018523	0.074076	-0.297912	-0.984768	0.005399	0.049482	-0.166597
07762	0.940132	-0.179931	9.458197	0.079495	0.026309	-0.306547	-0.984695	0.005244	0.049128	-0.167135
07763	0.935055	-0.254790	9.666002	0.087141	-0.049258	-0.098737	-0.984615	0.005145	0.048823	-0.167701
07764	0.848445	-0.161365	9.891936	-0.041341	0.007337	0.116790	-0.984524	0.005099	0.048720	-0.168264
07765	1.069593	-0.260762	9.725013	0.215679	-0.011643	-0.027941	-0.984389	0.004973	0.048711	-0.169061
07766	1.064318	0.298870	10.010197	-0.000121	0.503672	0.245764	-0.984195	0.004275	0.048670	-0.170214
07767	1.344477	-0.141729	9.725486	0.435683	0.187932	-0.005159	-0.983942	0.004915	0.048647	-0.171659
07768	1.031169	-0.351040	9.776011	0.208603	-0.105743	0.021042	-0.983675	0.005022	0.048495	-0.173221
07769	0.802811	-0.335460	9.850113	-0.016128	-0.164817	0.074392	-0.983445	0.005252	0.048524	-0.174512
07770	0.527845	-0.347692	9.673274	-0.256222	-0.263879	-0.125766	-0.983259	0.005478	0.048775	-0.175478
07771	0.500350	-0.362279	9.516048	-0.270468	-0.282160	-0.284624	-0.983137	0.005674	0.049311	-0.176004
07772	0.555710	-0.387853	9.254750	-0.197406	-0.282828	-0.539572	-0.983087	0.005780	0.049962	-0.176099
07773	0.483150	-0.368162	9.237771	-0.281907	-0.290401	-0.563819	-0.983097	0.005780	0.050551	-0.175875
07774	0.398317	-0.348360	9.278500	-0.382030	-0.304322	-0.531954	-0.983172	0.005703	0.051075	-0.175306
07775	0.565502	-0.180256	9.344306	-0.300497	-0.094801	-0.454854	-0.983311	0.005455	0.051716	-0.174340
07776	0.901109	-0.266912	9.464658	0.020178	-0.072014	-0.301779	-0.983460	0.004988	0.052384	-0.173311
07777	1.055331	-0.467256	9.724359	0.197915	-0.223210	-0.024623	-0.983577	0.004525	0.052873	-0.172512
07778	0.926387	-0.408279	9.877303	0.035263	-0.223292	0.113787	-0.983667	0.004258	0.053209	-0.171902
07779	0.683846	-0.444150	10.005830	-0.198650	-0.346824	0.218354	-0.983759	0.004132	0.053566	-0.171264
07780	0.624118	-0.206210	9.879853	-0.330625	-0.143428	0.082445	-0.983857	0.004191	0.054038	-0.170549
07781	0.845888	-0.085365	9.566220	-0.141181	0.049424	-0.209927	-0.983937	0.004275	0.054482	-0.169947
07782	0.807847	-0.099529	9.466659	-0.171000	0.024837	-0.312672	-0.984014	0.004388	0.054967	-0.169339
07783	0.801643	-0.161278	9.489746	-0.172716	-0.036620	-0.289415	-0.984109	0.004499	0.055957	-0.168458
07784	0.820230	-0.289127	9.512414	-0.139944	-0.153654	-0.262864	-0.984199	0.004665	0.057534	-0.167391
07785	0.721084	-0.286810	9.753506	-0.294776	-0.189915	-0.034650	-0.984242	0.004987	0.059534	-0.166426
07786	0.980447	-0.009164	9.593153	-0.163741	0.161191	-0.172302	-0.984220	0.005507	0.061464	-0.165843
07787	1.031241	0.087475	9.628210	-0.184830	0.273850	-0.134655	-0.984136	0.006124	0.062830	-0.165806
07788	1.049233	0.138253	9.540042	-0.196264	0.338787	-0.222115	-0.983994	0.006863	0.063539	-0.166348
07789	1.461691	0.107368	9.282827	0.219505	0.461097	-0.428758	-0.983797	0.007512	0.063766	-0.167395
07790	1.888794	-0.105935	8.991872	0.718566	0.417422	-0.661626	-0.983602	0.008090	0.063900	-0.168458
07791	1.848982	-0.096208	8.537770	0.726556	0.426259	-1.117176	-0.983476	0.008216	0.064295	-0.169039
07792	2.055416	-0.117414	8.241060	0.952484	0.473447	-1.385221	-0.983433	0.007603	0.065173	-0.168981
07793	2.163693	-0.230251	8.039144	1.103986	0.386895	-1.566847	-0.983442	0.006278	0.066114	-0.168618
07794	1.694935	-0.203726	8.012024	0.652173	0.225018	-1.649921	-0.983473	0.004083	0.066790	-0.168235
07795	1.602593	-0.086931	8.589743	0.457637	0.245550	-1.089755	-0.983440	0.000733	0.066744	-0.168492
07796	0.468630	0.131834	13.960290	-1.346888	-0.088943	4.090715	-0.983388	0.001484	0.067432	-0.168520
07797	0.697745	-1.889178	10.808751	-0.096515	-1.825872	1.028977	-0.983308	0.002065	0.069135	-0.168293
07798	1.919293	-0.253777	10.188382	0.546582	0.119713	0.542887	-0.983208	0.000416	0.071004	-0.168105
07799	1.498627	0.346716	9.117939	0.069163	0.544075	-0.582194	-0.983099	-0.000876	0.072377	-0.168157
07800	1.011054	0.182382	9.176908	-0.358690	0.200876	-0.587609	-0.982961	-0.001939	0.073486	-0.168476
07801	1.203098	-0.043784	9.489496	-0.165524	0.016647	-0.248581	-0.982782	-0.003072	0.074740	-0.168948
07802	1.458807	0.210571	9.585496	-0.045664	0.314937	-0.119759	-0.982623	-0.003970	0.075950	-0.169315
07803	1.528540	0.266230	9.560137	-0.016631	0.378400	-0.134876	-0.982478	-0.004105	0.077059	-0.169653
07804	1.434772	-0.018403	9.652120	-0.044025	0.072740	-0.054867	-0.982343	-0.003892	0.078237	-0.169903
07805	1.464870	-0.037819	9.797530	-0.055522	0.058954	0.093485	-0.982195	-0.003678	0.079543	-0.170152
07806	1.925024	0.096617	9.533903	0.340882	0.355576	-0.098385	-0.982076	-0.002902	0.080663	-0.170328
07807	2.165842	-0.384960	9.196379	0.760330	0.012122	-0.387500	-0.981980	-0.001762	0.080981	-0.170744
07808	2.225422	-0.204438	9.093708	0.768624	0.227858	-0.482785	-0.981927	-0.000699	0.080438	-0.171313
07809	2.057409	0.494558	8.979996	0.388588	0.878381	-0.636910	-0.982037	0.003235	0.080761	-0.170501
07810	1.497544	-1.038785	9.651714	0.288985	-0.722193	-0.021260	-0.982188	0.004511	0.078829	-0.170506
07811	0.813345	0.167930	9.523905	-0.698631	0.224146	-0.280851	-0.982361	0.006375	0.076587	-0.170472
07812	1.049013	-0.713749	9.887664	-0.207320	-0.495753	0.141552	-0.982434	0.007870	0.075203	-0.170607
07813	1.183237	-0.488681	10.073639	-0.167162	-0.212033	0.338376	-0.982414	0.008968	0.074409	-0.171015
07814	1.168936	-0.438536	9.960120	-0.170715	-0.143858	0.222890	-0.982377	0.010014	0.073782	-0.171437
07815	1.129532	-0.406678	9.782302	-0.183339	-0.100738	0.040781	-0.982350	0.011179	0.073037	-0.171841
07816	1.058733	-0.479248	9.832038	-0.220969	-0.167881	0.083903	-0.982325	0.012342	0.072277	-0.172223
07817	0.845050	-0.592275	9.736942	-0.357646	-0.321535	-0.033036	-0.982317	0.013434	0.071532	-0.172499
07818	0.649772	-0.526609	9.624195	-0.533998	-0.300332	-0.171670	-0.982328	0.014704	0.070603	-0.172715
07819	0.438966	-0.589361	9.561558	-0.684990	-0.399168	-0.255766	-0.982344	0.016434	0.069374	-0.172969
07820	0.368557	-0.668482	9.521906	-0.699048	-0.456675	-0.296808	-0.982374	0.018579	0.067866	-0.173175
07821	0.626276	-0.945478	9.406564	-0.332231	-0.587864	-0.362105	-0.982357	0.020410	0.066803	-0.173482
07822	0.897326	-0.759454	9.292189	-0.118444	-0.290419	-0.451688	-0.982238	0.021597	0.066356	-0.174179
07823	1.131151	-0.711065	9.249057	0.088042	-0.147702	-0.469209	-0.982006	0.022114	0.066601	-0.175327
07824	1.477923	-0.544517	9.349639	0.330954	0.134630	-0.338046	-0.981719	0.022003	0.067327	-0.176663
07825	1.611151	-0.377937	9.469522	0.368399	0.335248	-0.212564	-0.981423	0.021673	0.068021	-0.178077
07826	1.398999	-0.313694	9.433005	0.143735	0.315334	-0.277642	-0.981133	0.021401	0.068452	-0.179537
07827	1.204332	-0.448772	9.477958	-0.000855	0.119041	-0.248728	-0.980853	0.021390	0.068612	-0.181006
07828	0.795093	-0.584938	9.486934	-0.335200	-0.152521	-0.281653	-0.980633	0.021504	0.068707	-0.182141
07829	0.827183	-0.646598	9.369400	-0.269566	-0.195440	-0.390527	-0.980489	0.021819	0.068776	-0.182851
07830	1.012633	-0.646239	9.372424	-0.100358	-0.119629	-0.364884	-0.980391	0.022358	0.068759	-0.183322
07831	1.433133	-0.802267	9.347090	0.346656	-0.102243	-0.329283	-0.980321	0.022889	0.068675	-0.183659
07832	1.708762	-0.728716	9.282923	0.585743	0.075228	-0.364153	-0.980284	0.023265	0.068369	-0.183924
07833	1.663318	-0.847452	9.299897	0.590562	-0.044275	-0.345790	-0.980221	0.023435	0.067882	-0.184417
07834	1.354877	-0.704282	9.317529	0.259596	-0.020025	-0.374454	-0.980097	0.023303	0.067551	-0.185212
07835	1.335538	-0.475991	9.270177	0.168091	0.181901	-0.437983	-0.979942	0.022955	0.067714	-0.186015
07836	1.039361	-0.277873	9.407146	-0.200852	0.251252	-0.349686	-0.979802	0.022479	0.068295	-0.186599
07837	1.189804	-0.334620	9.604383	-0.080201	0.246444	-0.132575	-0.979651	0.022090	0.069145	-0.187125
07838	1.180401	-0.324420	9.597893	-0.108607	0.243746	-0.140723	-0.979509	0.021866	0.070168	-0.187511
07839	1.122337	-0.460916	9.633013	-0.136429	0.089510	-0.104940	-0.979388	0.021780	0.071230	-0.187753
07840	1.368856	-0.580389	9.541857	0.125449	0.063911	-0.156715	-0.979292	0.021738	0.072436	-0.187798
07841	1.585539	-0.642275	9.566966	0.321319	0.080948	-0.099632	-0.979218	0.021594	0.073625	-0.187735
07842	1.671925	-0.582037	9.667372	0.343609	0.163003	0.008082	-0.979163	0.021456	0.074632	-0.187644
07843	1.498431	-0.586004	9.901346	0.135514	0.092316	0.217190	-0.979123	0.021440	0.075277	-0.187595
07844	1.360457	-0.594709	10.054061	-0.020967	0.033790	0.350337	-0.979097	0.021596	0.075641	-0.187568
07845	1.098851	-0.674084	10.034844	-0.237126	-0.134512	0.300949	-0.979098	0.021833	0.075958	-0.187403
07846	1.051390	-0.686883	9.965047	-0.274552	-0.162236	0.226122	-0.979101	0.022007	0.076448	-0.187169
07847	1.055690	-0.649873	9.876284	-0.282573	-0.126236	0.136283	-0.979110	0.022160	0.077086	-0.186844
07848	1.220674	-0.691733	9.807083	-0.119175	-0.104414	0.092982	-0.979135	0.022354	0.077792	-0.186395
07849	1.554347	-0.733704	9.853205	0.182249	-0.019460	0.187631	-0.979187	0.022555	0.078373	-0.185853
07850	1.764902	-0.838514	9.964932	0.385719	-0.038652	0.334607	-0.979263	0.022662	0.078811	-0.185255
07851	1.808621	-0.913628	9.993386	0.440064	-0.095213	0.374111	-0.979333	0.022557	0.079209	-0.184727
07852	1.789995	-0.921374	10.165632	0.392388	-0.114882	0.542307	-0.979405	0.022201	0.079522	-0.184254
07853	1.724117	-0.878930	10.334103	0.285403	-0.110504	0.696599	-0.979481	0.021559	0.079851	-0.183780
07854	1.590669	-0.797490	10.642838	0.079641	-0.098268	0.977132	-0.979553	0.020779	0.080289	-0.183297
07855	1.568441	-0.772612	10.934113	-0.002857	-0.101943	1.259860	-0.979613	0.019920	0.080829	-0.182834
07856	1.278263	-0.731316	11.215280	-0.338981	-0.189143	1.492204	-0.979650	0.019066	0.081479	-0.182440
07857	1.331469	-0.717069	11.426665	-0.341809	-0.178174	1.707166	-0.979678	0.018284	0.082291	-0.182004
07858	1.249112	-0.737872	11.437414	-0.427670	-0.247132	1.705782	-0.979730	0.017657	0.083099	-0.181416
07859	0.991686	-0.835089	11.448286	-0.648422	-0.447767	1.681793	-0.979825	0.017080	0.083901	-0.180585
07860	0.878043	-0.900870	11.364102	-0.732083	-0.567483	1.583246	-0.979964	0.016398	0.084648	-0.179543
07861	1.312682	-0.731930	11.314332	-0.394103	-0.263985	1.591170	-0.980204	0.016591	0.084950	-0.178068
07862	0.170592	-1.298003	10.937987	-1.201760	-1.199226	1.071754	-0.980423	0.016165	0.085611	-0.176582
07863	1.002060	-1.097108	10.499438	-0.446953	-0.732711	0.756574	-0.980670	0.015593	0.086441	-0.174845
07864	0.941882	-1.282228	9.913644	-0.351963	-0.939716	0.177540	-0.980997	0.014962	0.086562	-0.172997
07865	1.131357	-1.121502	9.180042	-0.104130	-0.734443	-0.525027	-0.981393	0.014135	0.085940	-0.171118
07866	-0.386718	-0.497030	10.403981	-1.912683	-0.692154	0.409930	-0.981678	0.012501	0.085546	-0.169804
07867	0.726862	-1.478772	8.240044	-0.227318	-1.286902	-1.511828	-0.981244	0.007144	0.091117	-0.169726
07868	3.393178	2.061198	7.250308	1.185090	2.891745	-2.160085	-0.981148	0.005084	0.093390	-0.169119
07869	2.981486	-0.758392	7.583941	1.665576	0.075311	-1.800151	-0.981105	0.005955	0.093579	-0.169234
07870	2.713952	-0.024202	7.827633	1.134359	0.681685	-1.634272	-0.981157	0.006160	0.092700	-0.169411
07871	2.721416	0.182146	7.789537	1.098861	0.888620	-1.681331	-0.981252	0.006534	0.091010	-0.169764
07872	2.183193	-0.165039	7.985817	0.712365	0.391804	-1.572194	-0.981371	0.007177	0.088698	-0.170270
07873	3.945314	0.583619	8.671185	2.040614	1.706500	-0.646530	-0.981706	0.008895	0.083629	-0.170825
07874	0.892994	1.737019	7.857326	-0.950214	1.866144	-1.991923	-0.982355	0.015678	0.075299	-0.170479
07875	-0.901006	-2.380128	8.442961	-1.243350	-2.503119	-1.449216	-0.982542	0.020697	0.070592	-0.170877
07876	-0.302687	-1.641570	8.384987	-0.894527	-1.575503	-1.457337	-0.982474	0.018700	0.071263	-0.171222
07877	2.243572	0.811438	8.550803	0.621346	1.553608	-1.094416	-0.982340	0.015957	0.072883	-0.171584
07878	2.634695	1.054912	8.626522	0.893048	1.899811	-0.977278	-0.982407	0.016825	0.071504	-0.171697
07879	1.460708	-0.485746	8.823438	0.315575	0.078855	-0.861894	-0.982482	0.018361	0.069539	-0.171919
07880	1.367355	-0.575980	8.928829	0.265437	-0.023907	-0.765347	-0.982474	0.017839	0.068986	-0.172244
07881	1.834766	0.218992	9.003013	0.434488	0.875001	-0.674080	-0.982471	0.017187	0.068448	-0.172541
07882	1.439698	-0.062445	9.160633	0.158129	0.478256	-0.553096	-0.982523	0.017653	0.067043	-0.172748
07883	0.934664	-0.549113	9.435637	-0.162773	-0.140381	-0.317418	-0.982563	0.017810	0.066057	-0.172882
07884	0.989135	-0.503959	9.480933	-0.121605	-0.080892	-0.268102	-0.982568	0.017244	0.065894	-0.172978
07885	1.269793	-0.302764	9.573924	0.064657	0.196547	-0.152396	-0.982579	0.016884	0.065730	-0.173014
07886	1.225036	-0.458405	9.737134	0.061246	0.034165	0.011655	-0.982607	0.016966	0.065281	-0.173013
07887	0.979449	-0.634786	9.953130	-0.127402	-0.210951	0.205612	-0.982625	0.017104	0.064888	-0.173047
07888	1.029420	-0.538583	10.327861	-0.155202	-0.097920	0.578694	-0.982629	0.017217	0.064701	-0.173081
07889	0.992538	-0.588393	10.259927	-0.161177	-0.152132	0.509536	-0.982637	0.017586	0.064509	-0.173071
07890	1.362266	-0.373470	9.807823	0.175443	0.187430	0.093002	-0.982678	0.018450	0.063661	-0.173062
07891	1.671903	-0.244709	9.233824	0.525653	0.450595	-0.451131	-0.982878	0.021279	0.060248	-0.172827
07892	3.002877	-1.845337	1.777165	3.220568	-0.677046	-7.633148	-0.983022	0.022897	0.058427	-0.172424
07893	-2.498935	-3.097208	15.943417	-3.157364	-3.584107	5.910208	-0.982760	0.015849	0.062062	-0.173436
07894	2.439368	3.074682	7.714705	0.323834	3.755867	-2.021067	-0.983066	0.015985	0.060273	-0.172317
07895	0.078302	-2.551768	9.519342	-0.178477	-2.340554	-0.240572	-0.983181	0.014724	0.060938	-0.171535
07896	1.882368	1.176010	8.420471	0.378973	1.746997	-1.290074	-0.983271	0.012916	0.060938	-0.171165
07897	1.123077	-0.159979	8.923517	0.069809	0.221983	-0.820364	-0.983295	0.013340	0.060056	-0.171309
07898	1.464941	-0.485207	9.242567	0.469345	0.029029	-0.453981	-0.983275	0.012503	0.060179	-0.171441
07899	1.823925	0.037259	9.037006	0.653690	0.627633	-0.638031	-0.983200	0.011637	0.060202	-0.171927
07900	1.503786	-0.123570	8.848119	0.434612	0.354615	-0.854384	-0.983153	0.010803	0.059965	-0.172331
07901	1.403262	0.003391	8.865865	0.304410	0.428196	-0.851846	-0.983123	0.010111	0.059450	-0.172723
07902	0.903361	-0.130655	9.154857	-0.136795	0.120953	-0.614255	-0.983146	0.009539	0.058743	-0.172865
07903	0.679861	-0.083860	9.355723	-0.368647	0.079552	-0.439505	-0.983234	0.009015	0.057996	-0.172643
07904	0.404246	-0.302969	9.624177	-0.566631	-0.230271	-0.194690	-0.983348	0.008473	0.057366	-0.172233
07905	0.485830	-0.242880	9.882835	-0.528327	-0.159799	0.069659	-0.983456	0.007683	0.057134	-0.171727
07906	0.641433	-0.259512	10.151703	-0.399448	-0.139879	0.353763	-0.983541	0.006960	0.056947	-0.171332
07907	0.731420	-0.358583	10.494332	-0.312472	-0.219330	0.706286	-0.983586	0.006394	0.056766	-0.171160
07908	0.669622	-0.478682	10.806363	-0.358978	-0.369248	1.012736	-0.983606	0.005792	0.056763	-0.171067
07909	0.560891	-0.436335	11.114860	-0.506011	-0.381632	1.306818	-0.983625	0.005357	0.056789	-0.170964
07910	0.624385	-0.455400	11.574311	-0.488808	-0.389738	1.770537	-0.983630	0.005371	0.056826	-0.170922
07911	0.697987	-0.668607	12.386917	-0.438348	-0.572385	2.590947	-0.983601	0.005834	0.057041	-0.170999
07912	0.740145	-0.516479	13.058162	-0.527956	-0.403008	3.259761	-0.983579	0.007081	0.057035	-0.171080
07913	0.709805	-0.304175	13.155957	-0.638024	-0.157138	3.349501	-0.983629	0.010131	0.056273	-0.170894
07914	0.229473	0.778677	17.281215	-1.904682	0.806545	7.363413	-0.983605	0.015235	0.056405	-0.170611
07915	1.157094	-2.963739	6.214722	1.382184	-2.342937	-3.382666	-0.983260	0.019763	0.058766	-0.171335
07916	-0.682581	-0.609555	11.224128	-1.739231	-0.641205	1.295067	-0.983246	0.021733	0.060021	-0.170738
07917	1.090994	-3.271371	9.552436	0.966732	-2.557578	-0.031826	-0.983168	0.021688	0.062129	-0.170441
07918	0.680849	-0.518193	10.428352	-0.490146	-0.117735	0.638537	-0.983066	0.020071	0.065088	-0.170121
07919	1.681458	-0.623785	9.722275	0.520753	0.076329	0.059588	-0.983003	0.019113	0.067438	-0.169683
07920	1.392534	-0.415681	9.403862	0.189945	0.157876	-0.300406	-0.982998	0.019286	0.068731	-0.169172
07921	1.198304	-0.781355	9.009814	0.158694	-0.256122	-0.694992	-0.982968	0.019516	0.069938	-0.168826
07922	1.137202	-0.579284	8.708191	0.053290	-0.093300	-1.012131	-0.982919	0.019253	0.071293	-0.168570
07923	1.266255	-0.356816	8.381446	0.125210	0.149080	-1.330858	-0.982870	0.019056	0.072431	-0.168394
07924	1.402400	-0.269383	8.137365	0.242528	0.270582	-1.558963	-0.982842	0.019049	0.073196	-0.168229
07925	1.474017	-0.264125	7.937957	0.325899	0.295976	-1.746720	-0.982820	0.019042	0.073703	-0.168140
07926	1.696730	-0.110274	7.983529	0.470386	0.513812	-1.679882	-0.982795	0.018970	0.073989	-0.168164
07927	1.683027	-0.167174	7.977268	0.476706	0.455625	-1.684804	-0.982805	0.019054	0.073762	-0.168197
07928	1.506539	-0.219382	8.005962	0.330412	0.349375	-1.677457	-0.982826	0.019041	0.073303	-0.168279
07929	1.357876	-0.250378	8.070997	0.200864	0.271296	-1.631394	-0.982848	0.018898	0.072754	-0.168400
07930	1.224705	-0.265754	8.258457	0.064141	0.211520	-1.462611	-0.982869	0.018584	0.072260	-0.168527
07931	1.114136	-0.244118	8.362211	-0.052008	0.190624	-1.375365	-0.982898	0.018118	0.071824	-0.168594
07932	1.155234	-0.201519	8.521857	-0.042786	0.236926	-1.213894	-0.982932	0.017460	0.071591	-0.168569
07933	1.249873	-0.172489	8.718579	0.014474	0.284895	-1.007907	-0.982974	0.016675	0.071395	-0.168482
07934	1.316176	-0.065918	8.826223	0.032953	0.395795	-0.897469	-0.983018	0.016008	0.071084	-0.168425
07935	1.446995	-0.083826	9.086632	0.133566	0.413134	-0.621433	-0.983056	0.015455	0.070672	-0.168426
07936	1.421484	-0.054061	9.234950	0.090053	0.425406	-0.478945	-0.983104	0.015031	0.070114	-0.168418
07937	1.258437	-0.108804	9.325482	-0.044189	0.314956	-0.407425	-0.983163	0.014766	0.069469	-0.168362
07938	1.147838	-0.232500	9.361211	-0.099883	0.158120	-0.380356	-0.983212	0.014480	0.068963	-0.168309
07939	1.033774	-0.263001	9.400614	-0.193515	0.085776	-0.354115	-0.983248	0.014046	0.068723	-0.168237
07940	1.117775	-0.196949	9.538153	-0.151747	0.166828	-0.209891	-0.983269	0.013502	0.068783	-0.168134
07941	1.204552	-0.156743	9.643387	-0.098678	0.222172	-0.096139	-0.983297	0.012941	0.069007	-0.167923
07942	1.388971	-0.186831	9.611948	0.084848	0.243579	-0.102531	-0.983333	0.012414	0.069285	-0.167636
07943	1.307721	-0.209288	9.534660	0.023094	0.184471	-0.188286	-0.983376	0.011887	0.069561	-0.167310
07944	1.233342	-0.271773	9.545690	-0.031273	0.088935	-0.184277	-0.983415	0.011305	0.069888	-0.166981
07945	1.123223	-0.260742	9.524454	-0.140282	0.049701	-0.219842	-0.983455	0.010640	0.070331	-0.166604
07946	1.187089	-0.317219	9.469236	-0.062067	0.003113	-0.264265	-0.983495	0.009960	0.070902	-0.166168
07947	1.327502	-0.249888	9.522165	0.031591	0.096585	-0.195725	-0.983535	0.009233	0.071478	-0.165722
07948	1.478958	-0.220572	9.634215	0.140586	0.156937	-0.065397	-0.983574	0.008568	0.071974	-0.165311
07949	1.511635	-0.218160	9.666206	0.160233	0.155899	-0.029120	-0.983618	0.008026	0.072293	-0.164939
07950	1.415473	-0.246246	9.676357	0.074544	0.086852	-0.030920	-0.983663	0.007571	0.072503	-0.164599
07951	1.374241	-0.288940	9.695470	0.044863	0.022803	-0.016176	-0.983709	0.007109	0.072689	-0.164262
07952	1.371053	-0.241336	9.606652	0.037099	0.059039	-0.105941	-0.983758	0.006721	0.072819	-0.163926
07953	1.289216	-0.361685	9.556806	0.005389	-0.087875	-0.162937	-0.983813	0.006418	0.072890	-0.163581
07954	1.143090	-0.524167	9.464819	-0.067670	-0.294468	-0.269474	-0.983856	0.006038	0.073052	-0.163264
07955	1.216459	-0.499053	9.446677	-0.007390	-0.257359	-0.278421	-0.983881	0.005404	0.073353	-0.162998
07956	1.274793	-0.434221	9.397494	0.029530	-0.190421	-0.321145	-0.983901	0.004666	0.073667	-0.162760
07957	1.159818	-0.544506	9.401757	-0.046112	-0.346478	-0.330467	-0.983919	0.003955	0.073875	-0.162571
07958	1.102038	-0.572115	9.359822	-0.087806	-0.406374	-0.380021	-0.983935	0.003038	0.074166	-0.162367
07959	1.189718	-0.400039	9.496957	-0.084139	-0.240881	-0.236545	-0.983933	0.001745	0.074688	-0.162156
07960	1.417502	-0.016276	9.662407	-0.023224	0.164130	-0.048254	-0.983919	0.000431	0.075279	-0.161974
07961	1.504092	-0.045961	9.699912	0.055713	0.139100	0.002109	-0.983908	-0.000491	0.075723	-0.161838
07962	1.064911	-0.328233	9.767520	-0.277119	-0.284819	0.010158	-0.984006	-0.000957	0.075710	-0.161245
07963	1.121962	-0.480663	9.769936	-0.176840	-0.422523	0.022539	-0.984048	-0.001551	0.076023	-0.160834
07964	1.582997	-0.221234	9.995236	0.134574	-0.056283	0.308491	-0.984027	-0.002600	0.076613	-0.160669
07965	1.501976	-0.081367	9.776422	0.040208	0.041249	0.078605	-0.984051	-0.003141	0.076804	-0.160418
07966	1.263620	-0.292888	9.821522	-0.122049	-0.244988	0.090338	-0.984121	-0.003447	0.076699	-0.160038
07967	1.118208	-0.224789	9.889522	-0.289680	-0.238752	0.135309	-0.984163	-0.004099	0.076956	-0.159638
07968	1.347686	-0.022737	9.927765	-0.148879	0.008070	0.205049	-0.984186	-0.004845	0.077446	-0.159238
07969	1.381907	0.074683	9.902630	-0.151283	0.098166	0.184551	-0.984221	-0.005315	0.077917	-0.158777
07970	1.494373	-0.055118	9.823311	-0.002379	0.001996	0.123791	-0.984242	-0.005763	0.078513	-0.158337
07971	1.648846	0.015040	9.784466	0.115157	0.105470	0.108516	-0.984246	-0.006344	0.079224	-0.157931
07972	1.792329	0.150556	9.715342	0.206004	0.267785	0.061968	-0.984254	-0.006892	0.079892	-0.157523
07973	2.038516	0.258025	9.719716	0.392797	0.433461	0.104611	-0.984266	-0.007330	0.080443	-0.157145
07974	2.222587	0.293175	9.595542	0.565642	0.520484	0.011233	-0.984276	-0.007577	0.080795	-0.156891
07975	2.162458	0.169276	9.405046	0.574042	0.390282	-0.185750	-0.984309	-0.007514	0.080723	-0.156725
07976	1.886895	-0.118283	9.152147	0.445964	0.045386	-0.478063	-0.984351	-0.007446	0.080416	-0.156626
07977	1.633231	-0.206275	9.055514	0.254489	-0.113218	-0.612974	-0.984372	-0.007738	0.080222	-0.156578
07978	1.711061	-0.013609	9.219897	0.246619	0.077898	-0.438920	-0.984382	-0.008368	0.080208	-0.156490
07979	1.917938	0.186896	9.343066	0.363348	0.314722	-0.285085	-0.984416	-0.008950	0.080108	-0.156293
07980	2.104856	0.217458	9.312587	0.540166	0.394271	-0.286159	-0.984481	-0.009281	0.079708	-0.156071
07981	2.017720	0.122841	9.271623	0.505233	0.276393	-0.340749	-0.984566	-0.009427	0.078974	-0.155897
07982	1.865412	0.038896	9.252389	0.406310	0.150153	-0.383990	-0.984652	-0.009583	0.078120	-0.155777
07983	1.760840	0.090552	9.302903	0.302630	0.164721	-0.350446	-0.984751	-0.009705	0.077121	-0.155637
07984	1.607599	0.006396	9.254891	0.211728	0.041820	-0.421691	-0.984871	-0.009725	0.075967	-0.155448
07985	1.543426	0.043509	9.400299	0.139958	0.051374	-0.287593	-0.984964	-0.009908	0.074995	-0.155315
07986	1.660169	0.167092	9.485781	0.218689	0.199513	-0.185826	-0.985046	-0.010093	0.074057	-0.155235
07987	1.600372	0.120586	9.481697	0.197039	0.138792	-0.199145	-0.985143	-0.010054	0.072953	-0.155148
07988	1.552561	-0.018914	9.448879	0.221409	-0.003054	-0.239650	-0.985250	-0.010037	0.071733	-0.155033
07989	1.369176	0.014189	9.545824	0.049073	-0.029229	-0.169333	-0.985346	-0.010128	0.070516	-0.154979
07990	1.228523	0.127533	9.679710	-0.113406	0.030745	-0.055204	-0.985417	-0.010253	0.069453	-0.154997
07991	1.077464	0.154636	9.779084	-0.257778	0.007066	0.023409	-0.985488	-0.010300	0.068589	-0.154931
07992	1.036571	-0.013376	9.713756	-0.222022	-0.160435	-0.047613	-0.985557	-0.010304	0.067971	-0.154760
07993	1.137542	-0.118892	9.642274	-0.076354	-0.227535	-0.105784	-0.985601	-0.010508	0.067677	-0.154598
07994	1.218772	-0.010756	9.629373	-0.026200	-0.103388	-0.107072	-0.985639	-0.010776	0.067511	-0.154408
07995	1.237760	-0.039844	9.633024	0.004760	-0.130089	-0.101259	-0.985691	-0.011020	0.067289	-0.154155
07996	1.160578	-0.079687	9.649988	-0.052911	-0.196681	-0.094968	-0.985757	-0.011277	0.067064	-0.153813
07997	1.174247	-0.015543	9.624469	-0.051966	-0.135559	-0.117925	-0.985831	-0.011589	0.066909	-0.153382
07998	1.238982	0.007936	9.606893	0.008251	-0.098391	-0.126729	-0.985914	-0.011852	0.066734	-0.152907
07999	1.231540	0.041328	9.666501	-0.011540	-0.076325	-0.068269	-0.986005	-0.012058	0.066520	-0.152396
