// General information: 
//  MT Manager version: 2021.0.0 
//  XDA version: 2021.0.0 build 5908 rev 109668 built on 2021-04-19
// Device information: 
//  DeviceId: 00B47ACA
//  ProductCode: MTW2-3A7G6
//  Firmware Version: 4.4.0
//  Hardware Version: 2.0.0
// Device settings: 
//  Filter Profile: human(46.1)
//  Option Flags: Orientation Smoother Disabled, Position/Velocity Smoother Disabled, Continuous Zero Rotation Update Disabled, AHS Disabled, ICC Disabled
// Coordinate system: ENU
PacketCounter	Acc_X	Acc_Y	Acc_Z	FreeAcc_E	FreeAcc_N	FreeAcc_U	Quat_q0	Quat_q1	Quat_q2	Quat_q3
06823	0.004576	0.140351	9.878741	-0.031388	0.022211	0.066976	1.000000	0.000273	-0.000416	0.000030
06824	0.074709	0.133124	9.882642	0.038751	0.014791	0.071046	1.000000	0.000280	-0.000416	0.000030
06825	0.002238	0.140261	9.878743	-0.033657	0.021959	0.066969	1.000000	0.000275	-0.000411	0.000027
06826	0.036405	0.142372	9.900603	0.000258	0.023684	0.088978	1.000000	0.000292	-0.000433	0.000031
06827	0.036366	0.130949	9.860802	0.000301	0.012592	0.049044	1.000000	0.000291	-0.000418	0.000030
06828	0.048363	0.151530	9.876764	0.012358	0.032965	0.065294	1.000000	0.000293	-0.000421	0.000044
06829	0.025298	0.169995	9.870855	-0.010635	0.051482	0.059524	1.000000	0.000293	-0.000413	0.000025
06830	0.040334	0.102854	9.890582	0.004389	-0.015937	0.078498	1.000000	0.000297	-0.000415	0.000034
06831	0.066767	0.132714	9.882704	0.030813	0.013987	0.071076	1.000000	0.000296	-0.000417	0.000032
06832	0.030574	0.130439	9.860829	-0.005357	0.011982	0.049043	1.000000	0.000296	-0.000420	0.000031
06833	0.029425	0.130295	9.860834	-0.006486	0.011865	0.049042	1.000000	0.000294	-0.000415	0.000047
06834	0.028405	0.130238	9.860838	-0.007617	0.011737	0.049042	1.000000	0.000303	-0.000431	0.000037
06835	0.056893	0.083797	9.896537	0.020616	-0.035149	0.084284	1.000000	0.000296	-0.000428	0.000043
06836	0.012028	0.120747	9.884682	-0.024263	0.001948	0.072710	1.000000	0.000302	-0.000437	0.000034
06837	0.060382	0.131986	9.882755	0.024013	0.013288	0.071095	1.000000	0.000289	-0.000437	0.000037
06838	0.038420	0.138772	9.837027	0.002246	0.020800	0.025371	1.000000	0.000283	-0.000434	0.000040
06839	0.014308	0.168497	9.870903	-0.022017	0.050249	0.059512	1.000000	0.000276	-0.000440	0.000036
06840	0.035073	0.149782	9.876846	-0.001273	0.031525	0.065307	1.000000	0.000276	-0.000434	0.000043
06841	0.042612	0.110442	9.866815	0.006355	-0.007709	0.054833	1.000000	0.000278	-0.000435	0.000033
06842	0.060346	0.179622	9.869011	0.023967	0.061372	0.057923	1.000000	0.000283	-0.000445	0.000051
06843	0.026199	0.101020	9.890649	-0.010292	-0.017512	0.078491	1.000000	0.000281	-0.000439	0.000040
06844	0.025038	0.100856	9.890654	-0.011421	-0.017638	0.078490	1.000000	0.000279	-0.000441	0.000020
06845	0.038183	0.109997	9.866838	0.001846	-0.008187	0.054834	1.000000	0.000279	-0.000435	0.000028
06846	0.050193	0.130581	9.882831	0.013817	0.012223	0.071116	1.000000	0.000276	-0.000439	0.000035
06847	0.021635	0.100475	9.890665	-0.014805	-0.018002	0.078485	1.000000	0.000282	-0.000439	0.000036
06848	0.047930	0.130374	9.882845	0.011552	0.011987	0.071119	1.000000	0.000276	-0.000436	0.000042
06849	0.047819	0.118687	9.843049	0.011737	0.000913	0.031186	1.000000	0.000269	-0.000424	0.000039
06850	0.014778	0.187699	9.886933	-0.021447	0.069415	0.075772	1.000000	0.000274	-0.000434	0.000057
06851	0.049919	0.178419	9.869091	0.013723	0.060321	0.057949	1.000000	0.000272	-0.000427	0.000046
06852	0.043259	0.129892	9.882873	0.007023	0.011510	0.071124	1.000000	0.000286	-0.000433	0.000058
06853	0.029067	0.109184	9.866878	-0.007171	-0.009152	0.054831	1.000000	0.000287	-0.000434	0.000048
06854	0.027977	0.109074	9.866882	-0.008300	-0.009278	0.054830	1.000000	0.000287	-0.000437	0.000045
06855	0.026872	0.109006	9.866886	-0.009426	-0.009396	0.054829	1.000000	0.000293	-0.000436	0.000046
06856	0.031253	0.157468	9.853118	-0.005021	0.039170	0.041659	1.000000	0.000292	-0.000439	0.000044
06857	0.037706	0.129542	9.882900	0.001360	0.010915	0.071127	1.000000	0.000291	-0.000433	0.000034
06858	0.044114	0.101725	9.912682	0.007740	-0.017347	0.100597	1.000000	0.000301	-0.000431	0.000045
06859	0.035452	0.129493	9.882909	-0.000906	0.010674	0.071128	1.000000	0.000301	-0.000442	0.000052
06860	0.061842	0.159513	9.875129	0.025400	0.040717	0.063807	1.000000	0.000308	-0.000442	0.000052
06861	0.024406	0.168483	9.892945	-0.012081	0.049519	0.081591	1.000000	0.000297	-0.000440	0.000047
06862	0.032124	0.129108	9.882925	-0.004303	0.010306	0.071127	1.000000	0.000303	-0.000439	0.000047
06863	0.010298	0.136080	9.837134	-0.025965	0.017757	0.025343	1.000000	0.000305	-0.000441	0.000037
06864	0.029917	0.128931	9.882935	-0.006569	0.010062	0.071126	1.000000	0.000302	-0.000445	0.000042
06865	0.028940	0.128788	9.882939	-0.007700	0.009945	0.071126	1.000000	0.000303	-0.000456	0.000049
06866	0.029207	0.117262	9.843139	-0.007412	-0.001126	0.031191	1.000000	0.000304	-0.000458	0.000041
06867	0.061767	0.130901	9.904969	0.024968	0.011772	0.093301	1.000000	0.000302	-0.000451	0.000030
06868	0.035879	0.077810	9.833126	-0.000703	-0.040443	0.020729	1.000000	0.000303	-0.000463	0.000038
06869	0.037645	0.149051	9.898983	0.000748	0.030037	0.087444	1.000000	0.000299	-0.000458	0.000035
06870	0.059729	0.119103	9.865190	0.023011	0.000475	0.053375	1.000000	0.000305	-0.000458	0.000037
06871	0.022250	0.128054	9.882966	-0.014496	0.009217	0.071119	1.000000	0.000299	-0.000454	0.000043
06872	0.048364	0.157865	9.875230	0.011759	0.039310	0.063838	1.000000	0.000285	-0.000446	0.000035
06873	0.019835	0.127427	9.882979	-0.016765	0.008970	0.071115	1.000000	0.000280	-0.000451	0.000049
06874	0.031697	0.148059	9.899019	-0.004941	0.029428	0.087444	1.000000	0.000283	-0.000443	0.000049
06875	0.039394	0.108759	9.889004	0.002935	-0.009754	0.076988	1.000000	0.000281	-0.000437	0.000038
06876	0.052572	0.118002	9.865244	0.016235	-0.000228	0.053389	1.000000	0.000283	-0.000440	0.000055
06877	0.051582	0.117885	9.865251	0.015107	-0.000342	0.053391	1.000000	0.000281	-0.000451	0.000044
06878	0.050593	0.117748	9.865257	0.013975	-0.000462	0.053392	1.000000	0.000281	-0.000454	0.000042
06879	0.013087	0.126629	9.883001	-0.023560	0.008231	0.071102	1.000000	0.000279	-0.000448	0.000031
06880	0.061263	0.138237	9.881318	0.024640	0.019900	0.069737	1.000000	0.000276	-0.000452	0.000039
06881	0.038166	0.156538	9.875296	0.001531	0.038245	0.063849	1.000000	0.000282	-0.000451	0.000039
06882	0.037066	0.156449	9.875302	0.000392	0.038122	0.063850	1.000000	0.000279	-0.000456	0.000047
06883	0.035965	0.156360	9.875307	-0.000743	0.038006	0.063850	1.000000	0.000285	-0.000455	0.000047
06884	0.029503	0.107799	9.889049	-0.007242	-0.010838	0.076985	1.000000	0.000291	-0.000454	0.000049
06885	0.033587	0.156160	9.875319	-0.003015	0.037766	0.063851	1.000000	0.000277	-0.000446	0.000042
06886	0.041531	0.116738	9.865312	0.004943	-0.001407	0.053401	1.000000	0.000278	-0.000457	0.000050
06887	0.005523	0.114127	9.843218	-0.031063	-0.003696	0.031144	1.000000	0.000272	-0.000454	0.000055
06888	0.052262	0.137248	9.881383	0.015570	0.018966	0.069757	1.000000	0.000278	-0.000453	0.000056
06889	0.023807	0.106881	9.889075	-0.012888	-0.011444	0.076978	1.000000	0.000267	-0.000451	0.000050
06890	0.037033	0.116074	9.865337	0.000431	-0.001887	0.053402	1.000000	0.000269	-0.000452	0.000040
06891	0.050389	0.125380	9.841602	0.013753	0.007684	0.029829	1.000000	0.000270	-0.000464	0.000047
06892	0.011544	0.145676	9.899098	-0.025416	0.027224	0.087419	1.000000	0.000276	-0.000463	0.000049
06893	0.046846	0.136604	9.881420	0.009903	0.018380	0.069765	1.000000	0.000268	-0.000469	0.000045
06894	0.045618	0.136408	9.881428	0.008769	0.018257	0.069767	1.000000	0.000268	-0.000454	0.000044
06895	0.022298	0.154678	9.875374	-0.014371	0.036551	0.063845	1.000000	0.000273	-0.000453	0.000044
06896	0.057565	0.145713	9.857709	0.020958	0.027719	0.046205	1.000000	0.000275	-0.000454	0.000034
06897	0.029144	0.115311	9.865373	-0.007467	-0.002725	0.053399	1.000000	0.000269	-0.000451	0.000040
06898	0.027931	0.115273	9.865377	-0.008595	-0.002850	0.053398	1.000000	0.000284	-0.000445	0.000035
06899	0.026836	0.115183	9.865381	-0.009722	-0.002967	0.053397	1.000000	0.000272	-0.000454	0.000047
06900	0.011441	0.105699	9.889109	-0.025312	-0.012806	0.076953	1.000000	0.000291	-0.000456	0.000041
06901	0.059681	0.117625	9.887543	0.022858	-0.000967	0.075708	1.000000	0.000283	-0.000462	0.000036
06902	0.022108	0.126346	9.905196	-0.014758	0.007581	0.093326	1.000000	0.000286	-0.000454	0.000035
06903	0.027623	0.163422	9.851681	-0.008990	0.045280	0.040280	1.000000	0.000285	-0.000456	0.000033
06904	0.061522	0.165852	9.873853	0.024702	0.047417	0.062605	1.000000	0.000288	-0.000466	0.000032
06905	0.011236	0.153763	9.875407	-0.025726	0.035314	0.063827	1.000000	0.000285	-0.000470	0.000038
06906	0.046438	0.144704	9.857782	0.009635	0.026538	0.046226	1.000000	0.000281	-0.000457	0.000025
06907	0.043661	0.155906	9.897595	0.006822	0.037341	0.086159	1.000000	0.000278	-0.000459	0.000004
06908	0.066115	0.126014	9.863889	0.029406	0.007934	0.052181	1.000000	0.000272	-0.000456	0.000008
06909	0.028471	0.134798	9.881514	-0.008232	0.016451	0.069770	1.000000	0.000284	-0.000452	0.000011
06910	0.036573	0.095639	9.871516	-0.000097	-0.022685	0.059334	1.000000	0.000282	-0.000456	0.000017
06911	0.027855	0.123344	9.841717	-0.008792	0.005292	0.029837	1.000000	0.000293	-0.000461	0.000010
06912	0.032952	0.106923	9.911329	-0.004062	-0.012012	0.099265	1.000000	0.000286	-0.000467	0.000006
06913	0.059045	0.136984	9.903734	0.022038	0.018271	0.092128	1.000000	0.000280	-0.000464	0.000011
06914	0.035724	0.155103	9.897640	-0.001151	0.036497	0.086165	1.000000	0.000283	-0.000456	0.000011
06915	0.023254	0.122701	9.841737	-0.013301	0.004807	0.029832	1.000000	0.000276	-0.000452	0.000016
06916	0.069826	0.145899	9.880065	0.033103	0.027668	0.068608	1.000000	0.000269	-0.000458	0.000011
06917	0.041482	0.115409	9.887662	0.004755	-0.002861	0.075733	1.000000	0.000272	-0.000450	0.000010
06918	0.032591	0.143083	9.857861	-0.003952	0.025102	0.046233	1.000000	0.000276	-0.000451	0.000019
06919	0.037571	0.126648	9.927477	0.000738	0.007807	0.115666	1.000000	0.000275	-0.000453	0.000017
06920	0.015982	0.133447	9.881561	-0.020697	0.015102	0.069754	1.000000	0.000281	-0.000452	0.000019
06921	0.036969	0.115106	9.887683	0.000235	-0.003339	0.075734	1.000000	0.000278	-0.000456	0.000025
06922	0.040876	0.163580	9.873998	0.004231	0.045293	0.062645	1.000000	0.000281	-0.000448	0.000024
06923	0.049068	0.124425	9.864008	0.012460	0.006188	0.052218	1.000000	0.000286	-0.000457	0.000015
06924	0.046226	0.135731	9.903819	0.009538	0.016972	0.092151	1.000000	0.000285	-0.000441	0.000013
06925	0.046610	0.124216	9.864023	0.010198	0.005952	0.052221	1.000000	0.000284	-0.000444	0.000011
06926	0.043817	0.135412	9.903834	0.007263	0.016731	0.092153	1.000000	0.000278	-0.000441	0.000014
06927	0.022289	0.142129	9.857904	-0.014142	0.024013	0.046227	1.000000	0.000283	-0.000449	0.000005
06928	0.056014	0.144716	9.880171	0.019483	0.026273	0.068648	1.000000	0.000284	-0.000442	0.000012
06929	0.005636	0.132530	9.881584	-0.030900	0.013983	0.069729	1.000000	0.000293	-0.000449	0.000013
06930	0.040972	0.123854	9.864053	0.004546	0.005352	0.052225	1.000000	0.000300	-0.000438	-0.000003
06931	0.041386	0.112364	9.824256	0.005250	-0.005663	0.012295	1.000000	0.000294	-0.000434	0.000002
06932	0.058922	0.116668	9.910016	0.022537	-0.002270	0.098165	1.000000	0.000288	-0.000431	0.000008
06933	0.000865	0.132128	9.881591	-0.035431	0.013484	0.069715	1.000000	0.000299	-0.000436	0.000001
06934	0.036333	0.123423	9.864076	0.000027	0.004874	0.052227	1.000000	0.000299	-0.000438	-0.000001
06935	0.035220	0.123356	9.864081	-0.001101	0.004758	0.052227	1.000000	0.000304	-0.000438	-0.000001
06936	0.059426	0.165045	9.896368	0.023045	0.046031	0.085101	1.000000	0.000301	-0.000433	-0.000003
06937	0.045570	0.143987	9.880235	0.009274	0.025218	0.068665	1.000000	0.000300	-0.000435	-0.000006
06938	0.017422	0.113531	9.887755	-0.018997	-0.005415	0.075715	1.000000	0.000309	-0.000442	-0.000005
06939	0.021381	0.162044	9.874085	-0.015104	0.043240	0.062644	1.000000	0.000302	-0.000447	-0.000010
06940	0.050164	0.115972	9.910072	0.013467	-0.003211	0.098181	1.000000	0.000304	-0.000450	0.000008
06941	0.026873	0.134007	9.903914	-0.009774	0.014927	0.092154	1.000000	0.000300	-0.000445	0.000005
06942	0.040044	0.143365	9.880268	0.003594	0.024616	0.068670	1.000000	0.000298	-0.000438	-0.000010
06943	-0.000873	0.091869	9.871620	-0.037252	-0.026742	0.059253	1.000000	0.000297	-0.000441	-0.000012
06944	0.074384	0.134563	9.862803	0.037948	0.015956	0.051228	1.000000	0.000307	-0.000447	-0.000011
06945	0.009686	0.112723	9.887775	-0.026915	-0.006281	0.075696	1.000000	0.000308	-0.000448	-0.000022
06946	0.070460	0.145800	9.902623	0.033755	0.026617	0.091167	1.000000	0.000306	-0.000452	-0.000016
06947	0.034455	0.142846	9.880296	-0.002084	0.024020	0.068672	1.000000	0.000300	-0.000440	-0.000001
06948	0.035015	0.131282	9.840501	-0.001276	0.013010	0.028743	1.000000	0.000298	-0.000442	-0.000021
06949	0.041712	0.103503	9.870329	0.005206	-0.015168	0.058260	1.000000	0.000305	-0.000450	-0.000012
06950	0.045589	0.152071	9.856674	0.009030	0.033494	0.045204	1.000000	0.000304	-0.000453	-0.000014
06951	0.028244	0.153788	9.920119	-0.008579	0.034422	0.108600	1.000000	0.000308	-0.000453	-0.000006
06952	0.043415	0.151832	9.856687	0.006764	0.033255	0.045206	1.000000	0.000301	-0.000459	-0.000012
06953	0.035627	0.114253	9.910155	-0.001276	-0.004765	0.098189	1.000000	0.000288	-0.000459	-0.000010
06954	0.063367	0.133159	9.862899	0.026638	0.014808	0.051267	1.000000	0.000290	-0.000459	-0.000019
06955	0.049667	0.112145	9.846735	0.012969	-0.006036	0.034801	1.000000	0.000291	-0.000461	-0.000003
06956	0.032397	0.113832	9.910171	-0.004668	-0.005130	0.098188	1.000000	0.000292	-0.000473	0.000006
06957	0.033230	0.102376	9.870373	-0.003804	-0.016126	0.058259	1.000000	0.000294	-0.000473	-0.000005
06958	0.036929	0.150843	9.856729	-0.000027	0.032541	0.045211	1.000000	0.000288	-0.000470	0.000000
06959	0.056169	0.143929	9.902742	0.018980	0.025111	0.091210	1.000000	0.000290	-0.000479	-0.000001
06960	0.042529	0.122983	9.886568	0.005327	0.004247	0.074734	1.000000	0.000299	-0.000477	-0.000010
06961	0.068317	0.153453	9.879136	0.031235	0.034741	0.067766	1.000000	0.000297	-0.000470	-0.000022
06962	0.019993	0.129583	9.840566	-0.017064	0.011313	0.028730	1.000000	0.000301	-0.000489	-0.000015
06963	0.007620	0.179950	9.890341	-0.029882	0.060993	0.079060	1.000000	0.000306	-0.000497	-0.000025
06964	0.025640	0.101658	9.870403	-0.011694	-0.016981	0.058251	1.000000	0.000293	-0.000479	-0.000021
06965	0.036915	0.122510	9.886596	-0.000331	0.003651	0.074736	1.000000	0.000309	-0.000482	-0.000018
06966	0.013577	0.140598	9.880379	-0.023630	0.021695	0.068650	1.000000	0.000305	-0.000477	-0.000022
06967	0.026791	0.149996	9.856775	-0.010226	0.031457	0.045209	1.000000	0.000301	-0.000472	-0.000025
06968	0.047823	0.131746	9.863006	0.010806	0.013173	0.051299	1.000000	0.000300	-0.000475	-0.000026
06969	0.046794	0.131673	9.863012	0.009676	0.013058	0.051301	1.000000	0.000305	-0.000483	-0.000036
06970	0.029313	0.133324	9.926423	-0.008076	0.013911	0.114661	1.000000	0.000304	-0.000478	-0.000023
06971	0.032828	0.181808	9.912793	-0.004387	0.062597	0.101628	1.000000	0.000302	-0.000471	-0.000035
06972	0.057895	0.141107	9.839428	0.020824	0.022591	0.027875	1.000000	0.000322	-0.000490	-0.000021
06973	0.028031	0.121857	9.886633	-0.009392	0.002683	0.074732	1.000000	0.000312	-0.000489	-0.000027
06974	0.068330	0.161806	9.855647	0.031006	0.043124	0.044382	1.000000	0.000309	-0.000492	-0.000021
06975	0.025847	0.121450	9.886644	-0.011657	0.002440	0.074730	1.000000	0.000308	-0.000495	-0.000024
06976	0.017023	0.148976	9.856812	-0.020425	0.030351	0.045197	1.000000	0.000306	-0.000499	-0.000019
06977	0.023824	0.121087	9.886654	-0.013919	0.002194	0.074727	1.000000	0.000300	-0.000513	-0.000015
06978	0.022722	0.120976	9.886658	-0.015051	0.002066	0.074725	1.000000	0.000307	-0.000501	-0.000034
06979	0.013767	0.148734	9.856821	-0.023822	0.029984	0.045190	1.000000	0.000320	-0.000506	-0.000022
06980	0.020260	0.120937	9.886664	-0.017315	0.001822	0.074721	1.000000	0.000307	-0.000488	-0.000019
06981	0.068192	0.133286	9.885552	0.030708	0.014281	0.073941	1.000000	0.000310	-0.000498	-0.000020
06982	0.017956	0.120579	9.886672	-0.019578	0.001577	0.074717	1.000000	0.000306	-0.000493	-0.000023
06983	0.041739	0.162306	9.919114	0.004082	0.043020	0.107748	1.000000	0.000299	-0.000498	-0.000028
06984	0.050377	0.123067	9.909163	0.012750	0.004008	0.097359	1.000000	0.000295	-0.000493	-0.000031
06985	0.026897	0.140937	9.902908	-0.010587	0.021996	0.091230	1.000000	0.000295	-0.000486	-0.000024
06986	0.018000	0.168380	9.873073	-0.019375	0.049900	0.061692	1.000000	0.000284	-0.000493	-0.000041
06987	0.061414	0.132287	9.885610	0.023904	0.013588	0.073961	1.000000	0.000302	-0.000495	-0.000046
06988	-0.010990	0.137621	9.880425	-0.048581	0.018928	0.068564	1.000000	0.000291	-0.000504	-0.000034
06989	0.061385	0.120690	9.845827	0.023834	0.002503	0.034041	1.000000	0.000292	-0.000504	-0.000045
06990	0.045798	0.110965	9.869404	0.008144	-0.007558	0.057441	1.000000	0.000296	-0.000505	-0.000037
06991	0.032722	0.161212	9.919165	-0.005055	0.042056	0.107751	1.000000	0.000296	-0.000498	-0.000030
06992	0.019158	0.140028	9.902939	-0.018545	0.021134	0.091220	1.000000	0.000289	-0.000503	-0.000035
06993	0.032676	0.149470	9.879379	-0.005115	0.030963	0.067827	1.000000	0.000286	-0.000516	-0.000039
06994	0.045979	0.158816	9.855825	0.008316	0.040790	0.044437	1.000000	0.000268	-0.000500	-0.000047
06995	0.052445	0.130918	9.885680	0.014840	0.012652	0.073980	1.000000	0.000274	-0.000498	-0.000047
06996	0.029038	0.148904	9.879399	-0.008522	0.030598	0.067825	1.000000	0.000280	-0.000497	-0.000046
06997	0.052283	0.119505	9.845894	0.014820	0.001572	0.034059	1.000000	0.000277	-0.000501	-0.000041
06998	0.026854	0.148658	9.879409	-0.010794	0.030356	0.067824	1.000000	0.000277	-0.000504	-0.000043
06999	0.050074	0.119170	9.845909	0.012565	0.001338	0.034062	1.000000	0.000270	-0.000500	-0.000038
07000	0.012189	0.127271	9.863173	-0.025374	0.009302	0.051277	1.000000	0.000270	-0.000502	-0.000041
07001	0.023528	0.148039	9.879427	-0.014200	0.029995	0.067821	1.000000	0.000258	-0.000511	-0.000029
07002	0.022218	0.147803	9.879433	-0.015333	0.029869	0.067819	1.000000	0.000258	-0.000484	-0.000048
07003	0.055610	0.150813	9.901993	0.018067	0.032524	0.090540	1.000000	0.000267	-0.000501	-0.000030
07004	0.019978	0.147824	9.879438	-0.017604	0.029623	0.067816	1.000000	0.000277	-0.000497	-0.000047
07005	0.048895	0.102161	9.915599	0.011176	-0.016545	0.103538	1.000000	0.000274	-0.000501	-0.000041
07006	0.032323	0.157358	9.855903	-0.005294	0.039361	0.044445	1.000000	0.000277	-0.000510	-0.000042
07007	0.075786	0.121326	9.868532	0.038074	0.003189	0.056808	1.000000	0.000273	-0.000505	-0.000046
07008	0.030067	0.157060	9.855915	-0.006577	0.039070	0.044445	1.000000	0.000275	-0.000457	0.000094
07009	0.036701	0.129401	9.885771	-0.000027	0.010943	0.073993	1.000000	0.000287	-0.000452	0.000097
07010	0.013166	0.147163	9.879459	-0.023426	0.028829	0.067807	1.000000	0.000269	-0.000445	0.000078
07011	0.034255	0.129103	9.885784	-0.002295	0.010701	0.073993	1.000000	0.000287	-0.000446	0.000073
07012	0.033220	0.129047	9.885788	-0.003431	0.010577	0.073993	1.000000	0.000276	-0.000455	0.000084
07013	0.044372	0.149891	9.902063	0.007675	0.031296	0.090557	1.000000	0.000280	-0.000445	0.000075
07014	0.018536	0.107808	9.869528	-0.017925	-0.010503	0.057425	1.000000	0.000286	-0.000443	0.000076
07015	0.029707	0.128773	9.885803	-0.006825	0.010217	0.073991	1.000000	0.000286	-0.000446	0.000073
07016	0.050825	0.110730	9.892141	0.014317	-0.007897	0.080191	1.000000	0.000286	-0.000439	0.000082
07017	0.014934	0.107575	9.869537	-0.021305	-0.010868	0.057418	1.000000	0.000295	-0.000427	0.000083
07018	0.052809	0.159247	9.878575	0.016577	0.040712	0.067214	1.000000	0.000284	-0.000434	0.000067
07019	0.039519	0.138109	9.862303	0.003236	0.019750	0.050641	1.000000	0.000297	-0.000438	0.000078
07020	0.046165	0.110462	9.892167	0.009801	-0.008374	0.080196	1.000000	0.000296	-0.000431	0.000066
07021	0.037114	0.137929	9.862315	0.000977	0.019510	0.050642	1.000000	0.000291	-0.000426	0.000063
07022	0.048171	0.158877	9.878604	0.012036	0.040237	0.067223	1.000000	0.000297	-0.000425	0.000061
07023	0.049306	0.147508	9.838814	0.013310	0.029298	0.027304	1.000000	0.000297	-0.000427	0.000058
07024	0.031470	0.148867	9.902128	-0.004831	0.029966	0.090563	1.000000	0.000290	-0.000432	0.000053
07025	0.054845	0.119600	9.868692	0.018749	0.001067	0.056864	1.000000	0.000301	-0.000419	0.000047
07026	0.053540	0.119370	9.868702	0.017619	0.000945	0.056866	1.000000	0.000279	-0.000415	0.000044
07027	0.037937	0.109156	9.892216	0.001893	-0.009210	0.080200	1.000000	0.000267	-0.000423	0.000056
07028	0.014726	0.127044	9.885859	-0.021538	0.008616	0.073972	1.000000	0.000292	-0.000439	0.000053
07029	0.005904	0.154740	9.855996	-0.030371	0.036488	0.044410	1.000000	0.000285	-0.000435	0.000058
07030	0.034790	0.109073	9.892229	-0.001497	-0.009574	0.080199	1.000000	0.000288	-0.000427	0.000057
07031	0.038004	0.157647	9.878668	0.001813	0.039167	0.067234	1.000000	0.000285	-0.000430	0.000062
07032	0.010222	0.126633	9.885870	-0.026065	0.008120	0.073961	1.000000	0.000282	-0.000434	0.000068
07033	0.035925	0.157209	9.878683	-0.000458	0.038927	0.067235	1.000000	0.000271	-0.000442	0.000079
07034	0.042628	0.129486	9.908554	0.006112	0.010814	0.096797	1.000000	0.000285	-0.000436	0.000073
07035	0.043797	0.118031	9.868766	0.007463	-0.000115	0.056879	1.000000	0.000266	-0.000439	0.000073
07036	0.020369	0.135749	9.862394	-0.015983	0.017686	0.050633	1.000000	0.000284	-0.000440	0.000069
07037	0.063938	0.100132	9.875157	0.027527	-0.018271	0.063129	1.000000	0.000286	-0.000441	0.000058
07038	0.040507	0.117846	9.868782	0.004080	-0.000476	0.056881	1.000000	0.000283	-0.000444	0.000063
07039	0.004892	0.114516	9.846091	-0.031474	-0.003562	0.034019	1.000000	0.000289	-0.000443	0.000063
07040	0.028123	0.156540	9.878719	-0.008407	0.038076	0.067235	1.000000	0.000282	-0.000448	0.000058
07041	0.049305	0.138542	9.885115	0.012787	0.020053	0.073493	1.000000	0.000284	-0.000440	0.000057
07042	0.025826	0.156322	9.878729	-0.010678	0.037834	0.067234	1.000000	0.000289	-0.000449	0.000075
07043	0.047093	0.138526	9.885126	0.010520	0.019818	0.073496	1.000000	0.000299	-0.000444	0.000059
07044	0.045854	0.138328	9.885135	0.009387	0.019695	0.073497	1.000000	0.000281	-0.000438	0.000068
07045	0.036836	0.165667	9.855272	0.000535	0.047558	0.043931	1.000000	0.000283	-0.000438	0.000057
07046	0.031288	0.116939	9.868827	-0.004946	-0.001438	0.056880	1.000000	0.000292	-0.000427	0.000057
07047	0.044646	0.126625	9.845363	0.008546	0.008537	0.033584	1.000000	0.000282	-0.000433	0.000060
07048	0.063479	0.119849	9.891571	0.027195	0.001336	0.079776	1.000000	0.000278	-0.000428	0.000057
07049	0.039995	0.137404	9.885173	0.003720	0.019101	0.073502	1.000000	0.000269	-0.000435	0.000060
07050	0.038804	0.137463	9.885177	0.002585	0.018977	0.073503	1.000000	0.000297	-0.000422	0.000059
07051	0.025352	0.116378	9.868850	-0.010586	-0.002041	0.056876	1.000000	0.000282	-0.000413	0.000052
07052	0.048429	0.158325	9.901523	0.012353	0.039640	0.090133	1.000000	0.000283	-0.000424	0.000058
07053	0.057630	0.119282	9.891614	0.021540	0.000757	0.079790	1.000000	0.000279	-0.000418	0.000055
07054	0.034055	0.136969	9.885201	-0.001946	0.018496	0.073504	1.000000	0.000285	-0.000417	0.000055
07055	0.069852	0.128951	9.868175	0.033908	0.010636	0.056513	1.000000	0.000284	-0.000419	0.000052
07056	0.009418	0.154610	9.878785	-0.026571	0.036108	0.067210	1.000000	0.000290	-0.000418	0.000053
07057	0.053090	0.118925	9.891644	0.017019	0.000287	0.079799	1.000000	0.000283	-0.000423	0.000047
07058	0.017618	0.115491	9.868877	-0.018481	-0.002901	0.056864	1.000000	0.000293	-0.000429	0.000048
07059	0.031084	0.125360	9.845431	-0.004975	0.007103	0.033587	1.000000	0.000298	-0.000427	0.000048
07060	0.061881	0.139975	9.908007	0.025616	0.020845	0.096446	1.000000	0.000304	-0.000426	0.000047
07061	0.028738	0.125251	9.845440	-0.007229	0.006860	0.033586	1.000000	0.000300	-0.000421	0.000043
07062	0.051751	0.167333	9.878142	0.015607	0.048576	0.066876	1.000000	0.000301	-0.000432	0.000049
07063	0.024134	0.136266	9.885240	-0.012143	0.017406	0.073499	1.000000	0.000303	-0.000432	0.000038
07064	0.057454	0.139527	9.908040	0.021072	0.020377	0.096458	1.000000	0.000302	-0.000434	0.000035
07065	0.036399	0.146028	9.861809	0.000231	0.027299	0.050232	1.000000	0.000317	-0.000427	0.000029
07066	0.043154	0.118295	9.891700	0.006837	-0.000786	0.079811	1.000000	0.000301	-0.000438	0.000029
07067	0.044535	0.106701	9.851918	0.008392	-0.011686	0.039898	1.000000	0.000295	-0.000425	0.000043
07068	0.044975	0.166570	9.878188	0.008783	0.047866	0.066888	1.000000	0.000301	-0.000432	0.000034
07069	0.032013	0.145378	9.861834	-0.004299	0.026819	0.050233	1.000000	0.000301	-0.000443	0.000040
07070	0.030918	0.145265	9.861839	-0.005435	0.026697	0.050232	1.000000	0.000301	-0.000436	0.000049
07071	0.037589	0.117540	9.891731	0.001180	-0.001376	0.079813	1.000000	0.000300	-0.000438	0.000046
07072	0.063048	0.148420	9.884676	0.026626	0.029595	0.073224	1.000000	0.000300	-0.000440	0.000044
07073	0.035450	0.117191	9.891743	-0.001081	-0.001617	0.079813	1.000000	0.000291	-0.000447	0.000047
07074	0.011936	0.134793	9.885283	-0.024610	0.016050	0.073478	1.000000	0.000301	-0.000444	0.000057
07075	0.062166	0.136812	9.844914	0.025957	0.018472	0.033321	1.000000	0.000299	-0.000428	0.000055
07076	0.023940	0.144438	9.861871	-0.012227	0.025968	0.050228	1.000000	0.000293	-0.000433	0.000049
07077	0.034899	0.165460	9.878248	-0.001453	0.046795	0.066897	1.000000	0.000299	-0.000440	0.000058
07078	0.032361	0.105412	9.851979	-0.003981	-0.013000	0.039899	1.000000	0.000299	-0.000442	0.000056
07079	0.018114	0.155343	9.901672	-0.018379	0.036379	0.090136	1.000000	0.000295	-0.000437	0.000052
07080	0.041959	0.126292	9.868367	0.005659	0.007711	0.056573	1.000000	0.000301	-0.000435	0.000053
07081	0.038120	0.137481	9.908162	0.001757	0.018367	0.096484	1.000000	0.000301	-0.000428	0.000060
07082	0.047477	0.098413	9.898273	0.011158	-0.020476	0.086161	1.000000	0.000290	-0.000435	0.000043
07083	0.018790	0.132342	9.822110	-0.017359	0.014345	0.010307	1.000000	0.000303	-0.000439	0.000054
07084	0.034677	0.137035	9.908181	-0.001648	0.017999	0.096485	1.000000	0.000290	-0.000421	0.000057
07085	0.028232	0.153153	9.838506	-0.007745	0.035058	0.026985	1.000000	0.000293	-0.000430	0.000055
07086	0.035095	0.125446	9.868405	-0.001116	0.006992	0.056575	1.000000	0.000290	-0.000433	0.000061
07087	0.045931	0.146452	9.884800	0.009608	0.027837	0.073260	1.000000	0.000289	-0.000435	0.000058
07088	0.044832	0.146322	9.884807	0.008472	0.027714	0.073262	1.000000	0.000289	-0.000437	0.000055
07089	0.023965	0.152773	9.838523	-0.012268	0.034574	0.026983	1.000000	0.000304	-0.000439	0.000058
07090	0.065039	0.128506	9.891322	0.028630	0.009743	0.079637	1.000000	0.000282	-0.000435	0.000058
07091	0.007099	0.142445	9.861926	-0.029198	0.024126	0.050197	1.000000	0.000295	-0.000439	0.000069
07092	0.040284	0.145951	9.884832	0.003931	0.027238	0.073266	1.000000	0.000294	-0.000432	0.000057
07093	0.061628	0.128194	9.891348	0.025234	0.009397	0.079647	1.000000	0.000296	-0.000441	0.000055
07094	0.003770	0.142283	9.861930	-0.032595	0.023746	0.050188	1.000000	0.000302	-0.000440	0.000054
07095	0.036978	0.145741	9.884848	0.000526	0.026882	0.073268	1.000000	0.000302	-0.000441	0.000051
07096	0.033199	0.156945	9.924639	-0.003479	0.037517	0.113176	1.000000	0.000311	-0.000447	0.000052
07097	0.034852	0.145531	9.884859	-0.001746	0.026642	0.073268	1.000000	0.000296	-0.000448	0.000062
07098	0.021807	0.124226	9.868459	-0.014678	0.005536	0.056565	1.000000	0.000311	-0.000442	0.000055
07099	0.032525	0.145193	9.884872	-0.004017	0.026400	0.073268	1.000000	0.000287	-0.000448	0.000070
07100	0.019555	0.123759	9.868469	-0.016937	0.005290	0.056561	1.000000	0.000297	-0.000443	0.000053
07101	0.067393	0.137260	9.868036	0.030844	0.018691	0.056468	1.000000	0.000298	-0.000454	0.000059
07102	0.029331	0.144786	9.884888	-0.007422	0.026029	0.073267	1.000000	0.000295	-0.000457	0.000063
07103	0.050745	0.126993	9.891426	0.013902	0.008221	0.079670	1.000000	0.000292	-0.000461	0.000068
07104	0.015371	0.123241	9.868483	-0.021452	0.004796	0.056553	1.000000	0.000289	-0.000464	0.000074
07105	0.025961	0.144388	9.884903	-0.010822	0.025668	0.073265	1.000000	0.000300	-0.000450	0.000068
07106	0.024789	0.144220	9.884909	-0.011960	0.025545	0.073264	1.000000	0.000285	-0.000461	0.000068
07107	0.060856	0.136322	9.868092	0.024055	0.017997	0.056488	1.000000	0.000286	-0.000462	0.000084
07108	0.022582	0.143828	9.884920	-0.014229	0.025302	0.073262	1.000000	0.000284	-0.000455	0.000074
07109	0.035921	0.153621	9.861565	-0.000678	0.035437	0.050076	1.000000	0.000280	-0.000449	0.000070
07110	0.045521	0.114702	9.851693	0.008928	-0.003358	0.039773	1.000000	0.000283	-0.000459	0.000065
07111	0.056291	0.135806	9.868126	0.019530	0.017529	0.056499	1.000000	0.000282	-0.000460	0.000062
07112	0.018109	0.143258	9.884937	-0.018767	0.024807	0.073255	1.000000	0.000280	-0.000464	0.000067
07113	0.053944	0.135682	9.868141	0.017267	0.017295	0.056503	1.000000	0.000297	-0.000447	0.000063
07114	0.052743	0.135582	9.868149	0.016135	0.017174	0.056506	1.000000	0.000281	-0.000457	0.000064
07115	0.002815	0.121745	9.868513	-0.033875	0.003432	0.056518	1.000000	0.000287	-0.000455	0.000063
07116	0.035926	0.125373	9.891511	-0.000817	0.006666	0.079681	1.000000	0.000293	-0.000453	0.000063
07117	0.034827	0.125241	9.891517	-0.001948	0.006549	0.079681	1.000000	0.000286	-0.000458	0.000057
07118	0.025810	0.152709	9.861611	-0.010875	0.034341	0.050074	1.000000	0.000296	-0.000455	0.000067
07119	0.044282	0.146398	9.907965	0.007473	0.027323	0.096418	1.000000	0.000302	-0.000453	0.000067
07120	0.045998	0.135157	9.868188	0.009353	0.016464	0.056516	1.000000	0.000305	-0.000453	0.000074
07121	0.045021	0.134976	9.868195	0.008223	0.016349	0.056517	1.000000	0.000295	-0.000469	0.000067
07122	0.029343	0.124776	9.891540	-0.007607	0.005941	0.079679	1.000000	0.000298	-0.000460	0.000067
07123	0.054472	0.156085	9.884653	0.017625	0.037134	0.073262	1.000000	0.000316	-0.000461	0.000062
07124	0.064226	0.117268	9.874793	0.027328	-0.001627	0.062973	1.000000	0.000304	-0.000469	0.000073
07125	0.040670	0.134570	9.868220	0.003697	0.015875	0.056520	1.000000	0.000303	-0.000471	0.000070
07126	0.039540	0.134503	9.868225	0.002563	0.015752	0.056521	1.000000	0.000309	-0.000469	0.000069
07127	0.038459	0.134349	9.868232	0.001433	0.015636	0.056521	1.000000	0.000300	-0.000476	0.000071
07128	0.041198	0.182911	9.854776	0.004136	0.064451	0.043660	1.000000	0.000300	-0.000478	0.000070
07129	0.047920	0.155237	9.884700	0.010805	0.036429	0.073275	1.000000	0.000299	-0.000470	0.000077
07130	0.020465	0.123750	9.891576	-0.016667	0.004966	0.079668	1.000000	0.000289	-0.000477	0.000060
07131	0.022350	0.112328	9.851800	-0.014712	-0.005878	0.039765	1.000000	0.000290	-0.000479	0.000076
07132	0.047585	0.143617	9.844941	0.010488	0.025345	0.033378	1.000000	0.000303	-0.000483	0.000087
07133	0.043388	0.154820	9.884727	0.006261	0.035953	0.073280	1.000000	0.000302	-0.000466	0.000085
07134	0.030404	0.133508	9.868271	-0.006482	0.014792	0.056520	1.000000	0.000308	-0.000465	0.000086
07135	0.051796	0.115815	9.874883	0.014911	-0.002906	0.062999	1.000000	0.000295	-0.000464	0.000087
07136	0.013573	0.123058	9.891596	-0.023456	0.004226	0.079655	1.000000	0.000298	-0.000473	0.000086
07137	0.049756	0.115443	9.874898	0.012654	-0.003142	0.063002	1.000000	0.000291	-0.000478	0.000080
07138	0.037742	0.154091	9.884762	0.000581	0.035350	0.073284	1.000000	0.000301	-0.000475	0.000089
07139	0.059177	0.136511	9.891382	0.021977	0.017667	0.079773	1.000000	0.000294	-0.000480	0.000083
07140	0.023977	0.132450	9.868303	-0.013265	0.014059	0.056515	1.000000	0.000282	-0.000488	0.000093
07141	0.023048	0.132180	9.868309	-0.014394	0.013941	0.056513	1.000000	0.000279	-0.000500	0.000088
07142	0.059230	0.124638	9.851630	0.021729	0.006596	0.039883	1.000000	0.000283	-0.000500	0.000095
07143	0.020891	0.132028	9.868316	-0.016656	0.013694	0.056510	1.000000	0.000288	-0.000498	0.000094
07144	0.031324	0.153153	9.884799	-0.006233	0.034622	0.073285	1.000000	0.000282	-0.000494	0.000097
07145	0.052803	0.135528	9.891432	0.015175	0.016959	0.079787	1.000000	0.000285	-0.000503	0.000095
07146	0.002798	0.121527	9.891624	-0.034775	0.002971	0.079622	1.000000	0.000280	-0.000489	0.000081
07147	0.065041	0.145342	9.868154	0.027629	0.027075	0.056675	1.000000	0.000285	-0.000496	0.000071
07148	0.063996	0.145290	9.868161	0.026495	0.026956	0.056679	1.000000	0.000286	-0.000498	0.000087
07149	0.036551	0.113708	9.874976	-0.000891	-0.004578	0.063010	1.000000	0.000272	-0.000488	0.000079
07150	0.069627	0.117205	9.898111	0.032055	-0.001165	0.086310	1.000000	0.000266	-0.000502	0.000082
07151	0.060639	0.144524	9.868194	0.023098	0.026611	0.056688	1.000000	0.000262	-0.000496	0.000078
07152	0.010633	0.130517	9.868352	-0.026834	0.012577	0.056489	1.000000	0.000268	-0.000494	0.000077
07153	0.046782	0.123150	9.851715	0.009326	0.005307	0.039903	1.000000	0.000273	-0.000501	0.000067
07154	0.031114	0.112963	9.875003	-0.006535	-0.005185	0.063007	1.000000	0.000271	-0.000505	0.000072
07155	0.007414	0.130305	9.868358	-0.030225	0.012208	0.056480	1.000000	0.000276	-0.000503	0.000071
07156	0.040460	0.134012	9.891511	0.002698	0.015649	0.079801	1.000000	0.000269	-0.000508	0.000066
07157	0.042580	0.122815	9.851739	0.004813	0.004834	0.039906	1.000000	0.000286	-0.000519	0.000078
07158	0.053126	0.144133	9.868243	0.015166	0.025789	0.056706	1.000000	0.000286	-0.000521	0.000074
07159	0.051952	0.143970	9.868252	0.014034	0.025675	0.056708	1.000000	0.000281	-0.000515	0.000070
07160	0.036201	0.133734	9.891531	-0.001835	0.015167	0.079802	1.000000	0.000285	-0.000524	0.000068
07161	0.012427	0.150980	9.884874	-0.025542	0.032540	0.073261	1.000000	0.000277	-0.000511	0.000062
07162	0.060173	0.164883	9.884781	0.022098	0.046403	0.073518	1.000000	0.000289	-0.000534	0.000082
07163	0.032877	0.133396	9.891547	-0.005234	0.014810	0.079801	1.000000	0.000280	-0.000512	0.000068
07164	0.046283	0.143311	9.868289	0.008374	0.025080	0.056716	1.000000	0.000280	-0.000523	0.000073
07165	0.033775	0.121865	9.851785	-0.004202	0.003876	0.039907	1.000000	0.000276	-0.000526	0.000059
07166	0.018400	0.171464	9.901406	-0.019782	0.053002	0.090058	1.000000	0.000267	-0.000523	0.000069
07167	0.050974	0.115174	9.898248	0.012819	-0.003148	0.086353	1.000000	0.000266	-0.000525	0.000066
07168	0.030494	0.121304	9.851802	-0.007589	0.003509	0.039905	1.000000	0.000270	-0.000534	0.000064
07169	0.052449	0.163812	9.884843	0.014132	0.045583	0.073536	1.000000	0.000271	-0.000536	0.000079
07170	0.025061	0.132344	9.891584	-0.013173	0.013952	0.079795	1.000000	0.000278	-0.000523	0.000061
07171	0.061133	0.125014	9.875022	0.023038	0.006793	0.063286	1.000000	0.000274	-0.000528	0.000093
07172	0.037478	0.142169	9.868343	-0.000687	0.024125	0.056722	1.000000	0.000267	-0.000533	0.000088
07173	0.093072	0.128587	9.898254	0.054782	0.010215	0.086682	1.000000	0.000272	-0.000529	0.000041
07174	-0.002256	0.148941	9.884913	-0.040305	0.030907	0.073217	1.000000	0.000248	-0.000514	0.000003
07175	-0.003628	0.088810	9.858553	-0.041619	-0.028867	0.046136	1.000000	0.000268	-0.000534	0.000043
07176	0.055645	0.124335	9.875063	0.017391	0.006206	0.063298	1.000000	0.000274	-0.000534	0.000069
07177	0.054474	0.124205	9.875071	0.016261	0.006093	0.063300	1.000000	0.000267	-0.000529	0.000073
07178	0.030757	0.141423	9.868377	-0.007479	0.023402	0.056721	1.000000	0.000272	-0.000538	0.000090
07179	0.029639	0.141331	9.868382	-0.008610	0.023285	0.056720	1.000000	0.000270	-0.000531	0.000077
07180	0.036416	0.113697	9.898330	-0.001889	-0.004703	0.086361	1.000000	0.000271	-0.000533	0.000092
07181	0.050017	0.123681	9.875101	0.011739	0.005620	0.063306	1.000000	0.000264	-0.000537	0.000086
07182	0.026252	0.140771	9.868400	-0.012010	0.022912	0.056717	1.000000	0.000258	-0.000533	0.000088
07183	0.062480	0.133447	9.851886	0.024239	0.015827	0.040258	1.000000	0.000261	-0.000542	0.000085
07184	0.038792	0.150727	9.845179	0.000487	0.033119	0.033666	1.000000	0.000264	-0.000542	0.000094
07185	0.045542	0.123161	9.875129	0.007218	0.005146	0.063311	1.000000	0.000266	-0.000533	0.000092
07186	0.033072	0.161729	9.884961	-0.005203	0.043549	0.073554	1.000000	0.000268	-0.000532	0.000081
07187	0.009243	0.118986	9.851873	-0.028997	0.001182	0.039866	1.000000	0.000269	-0.000543	0.000087
07188	0.042134	0.122815	9.875149	0.003827	0.004786	0.063313	1.000000	0.000263	-0.000530	0.000101
07189	0.052291	0.143917	9.891706	0.014017	0.025798	0.080161	1.000000	0.000258	-0.000533	0.000087
07190	0.039876	0.122496	9.875162	0.001569	0.004547	0.063314	1.000000	0.000265	-0.000540	0.000095
07191	0.030762	0.149924	9.845220	-0.007427	0.032283	0.033666	1.000000	0.000263	-0.000532	0.000083
07192	0.048938	0.143592	9.891728	0.010610	0.025440	0.080166	1.000000	0.000261	-0.000536	0.000087
07193	0.051181	0.132278	9.851967	0.012949	0.014663	0.040281	1.000000	0.000257	-0.000539	0.000092
07194	0.046669	0.143291	9.891744	0.008340	0.025203	0.080168	1.000000	0.000260	-0.000529	0.000091
07195	0.034071	0.121916	9.875191	-0.004081	0.003951	0.063313	1.000000	0.000265	-0.000528	0.000090
07196	0.044284	0.143167	9.891756	0.006070	0.024967	0.080171	1.000000	0.000263	-0.000529	0.000069
07197	0.031784	0.121783	9.875200	-0.006340	0.003711	0.063312	1.000000	0.000273	-0.000525	0.000079
07198	0.045337	0.131938	9.852000	0.007304	0.014072	0.040288	1.000000	0.000270	-0.000528	0.000085
07199	0.063572	0.125638	9.898525	0.025317	0.007256	0.086804	1.000000	0.000269	-0.000530	0.000081
07200	0.051107	0.104229	9.881967	0.012924	-0.014008	0.069943	1.000000	0.000275	-0.000528	0.000081
07201	0.038690	0.142816	9.891785	0.000397	0.024374	0.080174	1.000000	0.000278	-0.000537	0.000079
07202	0.078416	0.124515	9.835584	0.040225	0.006748	0.023913	1.000000	0.000275	-0.000540	0.000084
07203	0.033195	0.093816	9.905180	-0.005239	-0.024856	0.092960	1.000000	0.000285	-0.000534	0.000067
07204	0.038727	0.131516	9.852034	0.000531	0.013360	0.040292	1.000000	0.000287	-0.000536	0.000083
07205	0.042222	0.114885	9.921764	0.003737	-0.003946	0.109830	1.000000	0.000270	-0.000537	0.000073
07206	0.047791	0.152343	9.868625	0.009501	0.034278	0.057165	1.000000	0.000273	-0.000536	0.000082
07207	0.038568	0.179762	9.838675	0.000485	0.062001	0.027510	1.000000	0.000275	-0.000527	0.000080
07208	0.053349	0.124698	9.898597	0.015119	0.006205	0.086826	1.000000	0.000275	-0.000529	0.000078
07209	0.040762	0.163296	9.908409	0.002529	0.044572	0.097051	1.000000	0.000287	-0.000523	0.000079
07210	0.042937	0.152150	9.868651	0.004967	0.033804	0.057170	1.000000	0.000285	-0.000517	0.000094
07211	0.041761	0.152017	9.868658	0.003834	0.033688	0.057171	1.000000	0.000285	-0.000519	0.000109
07212	0.052089	0.113290	9.858861	0.014179	-0.004911	0.046951	1.000000	0.000283	-0.000520	0.000087
07213	0.032828	0.114058	9.921809	-0.005334	-0.004908	0.109829	1.000000	0.000287	-0.000520	0.000094
07214	0.049834	0.112974	9.858877	0.011924	-0.005147	0.046954	1.000000	0.000274	-0.000519	0.000094
07215	0.022672	0.141013	9.891860	-0.015494	0.022679	0.080166	1.000000	0.000268	-0.000533	0.000097
07216	0.070342	0.155231	9.892074	0.032024	0.036959	0.080734	1.000000	0.000268	-0.000534	0.000095
07217	0.020554	0.140556	9.891872	-0.017763	0.022435	0.080163	1.000000	0.000253	-0.000533	0.000077
07218	0.034144	0.150522	9.868710	-0.004103	0.032847	0.057174	1.000000	0.000250	-0.000536	0.000083
07219	0.041007	0.122836	9.898679	0.002659	0.004903	0.086837	1.000000	0.000244	-0.000532	0.000087
07220	0.017305	0.139860	9.891888	-0.021168	0.022060	0.080157	1.000000	0.000244	-0.000551	0.000081
07221	0.030995	0.150006	9.868728	-0.007504	0.032485	0.057173	1.000000	0.000244	-0.000543	0.000087
07222	0.018571	0.128540	9.852132	-0.019787	0.011183	0.040275	1.000000	0.000247	-0.000543	0.000095
07223	0.051350	0.132691	9.875542	0.012923	0.014972	0.063860	1.000000	0.000253	-0.000541	0.000094
07224	0.061373	0.153908	9.892155	0.022925	0.036032	0.080763	1.000000	0.000243	-0.000539	0.000087
07225	0.037848	0.110895	9.858954	-0.000468	-0.006449	0.046960	1.000000	0.000239	-0.000542	0.000091
07226	0.033380	0.121768	9.898721	-0.005275	0.004054	0.086837	1.000000	0.000232	-0.000557	0.000102
07227	0.035851	0.110450	9.858966	-0.002721	-0.006690	0.046960	1.000000	0.000230	-0.000549	0.000089
07228	0.019608	0.159907	9.908529	-0.019134	0.042256	0.097043	1.000000	0.000223	-0.000554	0.000083
07229	0.036768	0.158942	9.845624	-0.001771	0.042078	0.034198	1.000000	0.000226	-0.000553	0.000091
07230	0.051522	0.103859	9.905565	0.012909	-0.013682	0.093538	1.000000	0.000219	-0.000538	0.000056
07231	0.053264	0.152378	9.892225	0.014970	0.035213	0.080781	1.000000	0.000204	-0.000526	0.000002
07232	0.017740	0.147671	9.868796	-0.019973	0.031139	0.057160	1.000000	0.000183	-0.000489	-0.000071
07233	0.023784	0.119534	9.898776	-0.013196	0.003205	0.086830	1.000000	0.000149	-0.000441	-0.000150
07234	0.073225	0.181805	9.885785	0.037454	0.066635	0.074745	1.000000	0.000079	-0.000374	-0.000231
07235	0.033161	0.126669	9.875699	-0.000648	0.013543	0.063870	1.000000	-0.000044	-0.000244	-0.000340
07236	0.000136	0.109684	9.812485	-0.031832	-0.001167	0.000358	1.000000	-0.000077	-0.000208	-0.000333
07237	-0.058378	0.015120	9.769037	-0.092025	-0.096686	-0.044376	1.000000	0.000108	-0.000424	-0.000257
07238	0.097064	0.208816	9.988783	0.059176	0.091393	0.178157	1.000000	0.000222	-0.000567	-0.000214
07239	0.383402	0.467440	9.316645	0.341841	0.354717	-0.489454	0.999999	0.000434	-0.001105	-0.000228
07240	-0.428824	-0.203297	10.466885	-0.477011	-0.330122	0.648879	1.000000	0.000290	-0.000676	-0.000274
07241	0.259804	0.259111	9.817388	0.219702	0.141423	0.008081	1.000000	0.000262	-0.000610	-0.000276
07242	0.030994	0.130560	9.875655	-0.008563	0.012702	0.063868	1.000000	0.000252	-0.000590	-0.000263
07243	0.033252	0.119230	9.835906	-0.005908	0.001976	0.023996	1.000000	0.000249	-0.000586	-0.000222
07244	0.039546	0.151588	9.892302	0.000205	0.033675	0.080797	1.000000	0.000250	-0.000587	-0.000205
07245	0.027317	0.129954	9.875674	-0.011953	0.012345	0.063865	1.000000	0.000239	-0.000584	-0.000213
07246	0.033596	0.162239	9.932074	-0.005869	0.044043	0.120669	1.000000	0.000240	-0.000585	-0.000196
07247	0.036704	0.091066	9.865906	-0.002480	-0.026304	0.053671	1.000000	0.000236	-0.000579	-0.000201
07248	0.023849	0.129371	9.875691	-0.015344	0.011975	0.063861	1.000000	0.000231	-0.000584	-0.000189
07249	0.048457	0.160995	9.869224	0.009351	0.043697	0.057867	1.000000	0.000233	-0.000574	-0.000191
07250	0.044261	0.112001	9.882566	0.005145	-0.005449	0.070610	1.000000	0.000230	-0.000577	-0.000188
07251	0.020386	0.128947	9.875704	-0.018736	0.011611	0.063855	1.000000	0.000231	-0.000579	-0.000173
07252	0.067833	0.143720	9.876114	0.028703	0.026162	0.064629	1.000000	0.000250	-0.000578	-0.000180
07253	0.018217	0.128936	9.875709	-0.020994	0.011363	0.063851	1.000000	0.000236	-0.000586	-0.000189
07254	0.054629	0.121931	9.859485	0.015461	0.004703	0.047689	1.000000	0.000232	-0.000580	-0.000194
07255	0.034979	0.122530	9.922350	-0.004355	0.004552	0.110478	1.000000	0.000238	-0.000578	-0.000195
07256	0.029501	0.138806	9.852620	-0.009556	0.021629	0.040926	1.000000	0.000235	-0.000581	-0.000189
07257	0.051050	0.121539	9.859509	0.012079	0.004358	0.047694	1.000000	0.000229	-0.000566	-0.000203
07258	0.035064	0.110964	9.882615	-0.003879	-0.006408	0.070610	1.000000	0.000227	-0.000568	-0.000200
07259	0.022145	0.149367	9.892390	-0.016827	0.031859	0.080789	1.000000	0.000232	-0.000566	-0.000201
07260	0.035805	0.159567	9.869301	-0.003129	0.042380	0.057877	1.000000	0.000221	-0.000574	-0.000191
07261	0.042867	0.131992	9.899291	0.003674	0.014474	0.087565	1.000000	0.000230	-0.000579	-0.000191
07262	0.018931	0.148945	9.892403	-0.020232	0.031485	0.080784	1.000000	0.000224	-0.000575	-0.000189
07263	0.040518	0.131651	9.899305	0.001409	0.014233	0.087566	1.000000	0.000217	-0.000570	-0.000186
07264	0.054134	0.141950	9.876224	0.015115	0.024765	0.064663	1.000000	0.000227	-0.000575	-0.000186
07265	0.027361	0.110052	9.882649	-0.011773	-0.007253	0.070603	1.000000	0.000223	-0.000578	-0.000182
07266	0.051824	0.141695	9.876240	0.012853	0.024529	0.064666	1.000000	0.000218	-0.000563	-0.000197
07267	0.073394	0.124627	9.883153	0.034505	0.007296	0.071461	1.000000	0.000231	-0.000566	-0.000186
07268	-0.002858	0.137946	9.915502	-0.041877	0.020072	0.103666	1.000000	0.000237	-0.000564	-0.000187
07269	0.037336	0.120079	9.859588	-0.001436	0.002927	0.047702	1.000000	0.000224	-0.000563	-0.000186
07270	0.047174	0.141261	9.876270	0.008332	0.024058	0.064672	1.000000	0.000221	-0.000565	-0.000181
07271	0.031248	0.130846	9.899349	-0.007645	0.013267	0.087564	1.000000	0.000236	-0.000558	-0.000187
07272	0.033916	0.119727	9.859605	-0.004811	0.002564	0.047701	1.000000	0.000227	-0.000564	-0.000186
07273	0.043759	0.141033	9.876289	0.004938	0.023706	0.064676	1.000000	0.000232	-0.000562	-0.000187
07274	0.042598	0.140988	9.876295	0.003805	0.023583	0.064676	1.000000	0.000234	-0.000561	-0.000198
07275	0.041559	0.140892	9.876300	0.002673	0.023468	0.064677	1.000000	0.000235	-0.000571	-0.000193
07276	0.063374	0.123793	9.883233	0.024343	0.006258	0.071492	1.000000	0.000236	-0.000572	-0.000177
07277	0.062210	0.123607	9.883243	0.023213	0.006146	0.071495	1.000000	0.000227	-0.000568	-0.000193
07278	0.023416	0.130027	9.899382	-0.015573	0.012413	0.087556	1.000000	0.000233	-0.000565	-0.000194
07279	0.037099	0.140421	9.876325	-0.001854	0.022991	0.064678	1.000000	0.000236	-0.000574	-0.000197
07280	0.036077	0.140301	9.876330	-0.002986	0.022869	0.064678	1.000000	0.000233	-0.000576	-0.000191
07281	0.031277	0.151233	9.916082	-0.008139	0.033320	0.104538	1.000000	0.000237	-0.000594	-0.000184
07282	0.033976	0.139987	9.876342	-0.005251	0.022627	0.064678	1.000000	0.000225	-0.000573	-0.000212
07283	0.032736	0.139744	9.876350	-0.006383	0.022511	0.064678	1.000000	0.000225	-0.000583	-0.000206
07284	0.054567	0.122672	9.883300	0.015303	0.005328	0.071511	1.000000	0.000226	-0.000584	-0.000190
07285	0.030605	0.139522	9.876360	-0.008646	0.022270	0.064676	1.000000	0.000225	-0.000585	-0.000194
07286	0.029476	0.139412	9.876365	-0.009779	0.022145	0.064676	1.000000	0.000227	-0.000584	-0.000207
07287	0.028313	0.139365	9.876369	-0.010911	0.022028	0.064675	1.000000	0.000233	-0.000582	-0.000208
07288	0.050100	0.122377	9.883327	0.010782	0.004856	0.071517	1.000000	0.000236	-0.000590	-0.000212
07289	0.040947	0.149711	9.853334	0.001687	0.032507	0.041815	1.000000	0.000238	-0.000590	-0.000224
07290	0.047935	0.122175	9.883340	0.008523	0.004619	0.071520	1.000000	0.000235	-0.000592	-0.000221
07291	0.038744	0.149441	9.853347	-0.000574	0.032268	0.041816	1.000000	0.000236	-0.000593	-0.000206
07292	0.045623	0.121789	9.883356	0.006261	0.004385	0.071521	1.000000	0.000222	-0.000583	-0.000212
07293	0.044474	0.121560	9.883364	0.005132	0.004270	0.071522	1.000000	0.000225	-0.000591	-0.000215
07294	0.020493	0.138360	9.876402	-0.018836	0.021171	0.064665	1.000000	0.000221	-0.000585	-0.000221
07295	0.090679	0.136403	9.884027	0.051332	0.019041	0.072545	1.000000	0.000230	-0.000590	-0.000221
07296	0.022235	0.127229	9.836666	-0.016985	0.010376	0.024806	1.000000	0.000229	-0.000591	-0.000224
07297	0.050755	0.142698	9.900102	0.011358	0.025088	0.088535	1.000000	0.000229	-0.000583	-0.000219
07298	0.015957	0.137839	9.876418	-0.023363	0.020680	0.064656	1.000000	0.000214	-0.000593	-0.000220
07299	0.037731	0.120951	9.883400	-0.001649	0.003555	0.071524	1.000000	0.000244	-0.000586	-0.000221
07300	0.028502	0.148414	9.853397	-0.010755	0.031185	0.041813	1.000000	0.000233	-0.000594	-0.000212
07301	0.050343	0.131266	9.860389	0.010963	0.014068	0.048687	1.000000	0.000232	-0.000595	-0.000216
07302	0.034402	0.120585	9.883416	-0.005040	0.003190	0.071522	1.000000	0.000225	-0.000590	-0.000213
07303	0.021088	0.158863	9.893155	-0.018305	0.041369	0.081662	1.000000	0.000231	-0.000588	-0.000214
07304	0.027993	0.131339	9.923167	-0.011464	0.013492	0.111373	1.000000	0.000225	-0.000583	-0.000210
07305	0.041462	0.141734	9.900159	0.002276	0.024139	0.088543	1.000000	0.000233	-0.000570	-0.000210
07306	0.063185	0.124655	9.907164	0.023997	0.007035	0.095431	1.000000	0.000217	-0.000579	-0.000210
07307	0.031177	0.168592	9.870167	-0.007978	0.051649	0.058830	1.000000	0.000210	-0.000584	-0.000217
07308	0.027429	0.119554	9.883451	-0.011821	0.002467	0.071517	1.000000	0.000216	-0.000581	-0.000219
07309	0.041157	0.130006	9.860448	0.001929	0.013125	0.048695	1.000000	0.000217	-0.000591	-0.000214
07310	0.050788	0.151553	9.877186	0.011478	0.034315	0.065725	1.000000	0.000231	-0.000584	-0.000221
07311	0.034731	0.141019	9.900195	-0.004537	0.023420	0.088544	1.000000	0.000227	-0.000577	-0.000226
07312	0.048346	0.151346	9.877201	0.009209	0.034080	0.065728	1.000000	0.000224	-0.000580	-0.000221
07313	0.047226	0.151071	9.877211	0.008075	0.033966	0.065730	1.000000	0.000211	-0.000579	-0.000221
07314	0.058179	0.112462	9.867495	0.019156	-0.004427	0.055601	1.000000	0.000213	-0.000569	-0.000221
07315	0.029961	0.140398	9.900219	-0.009078	0.022939	0.088542	1.000000	0.000231	-0.000569	-0.000227
07316	0.040844	0.101938	9.890503	0.002016	-0.015453	0.078413	1.000000	0.000217	-0.000550	-0.000225
07317	0.079959	0.144341	9.861272	0.041304	0.027347	0.049841	1.000000	0.000224	-0.000565	-0.000227
07318	0.030534	0.129008	9.860500	-0.008234	0.012047	0.048693	1.000000	0.000217	-0.000561	-0.000224
07319	0.029458	0.128828	9.860505	-0.009362	0.011930	0.048692	1.000000	0.000218	-0.000571	-0.000219
07320	0.024397	0.139736	9.900244	-0.014756	0.022328	0.088537	1.000000	0.000221	-0.000579	-0.000223
07321	0.042297	0.139126	9.837530	0.003270	0.022495	0.025891	1.000000	0.000214	-0.000583	-0.000230
07322	0.036991	0.149950	9.877271	-0.002135	0.032894	0.065736	1.000000	0.000216	-0.000573	-0.000232
07323	0.058719	0.133154	9.884313	0.019622	0.015856	0.072664	1.000000	0.000229	-0.000577	-0.000221
07324	0.034767	0.149877	9.877281	-0.004404	0.032654	0.065736	1.000000	0.000218	-0.000584	-0.000212
07325	0.018921	0.139082	9.900265	-0.020431	0.021720	0.088528	1.000000	0.000217	-0.000585	-0.000216
07326	0.055534	0.132685	9.884337	0.016224	0.015502	0.072671	1.000000	0.000217	-0.000586	-0.000220
07327	0.031503	0.149346	9.877300	-0.007805	0.032297	0.065736	1.000000	0.000213	-0.000589	-0.000216
07328	0.034564	0.138207	9.837573	-0.004626	0.021659	0.025892	1.000000	0.000213	-0.000590	-0.000219
07329	0.041734	0.110775	9.867598	0.002250	-0.006185	0.055618	1.000000	0.000219	-0.000605	-0.000221
07330	0.028265	0.149096	9.877313	-0.011210	0.031931	0.065733	1.000000	0.000222	-0.000587	-0.000214
07331	0.064667	0.142823	9.861407	0.025462	0.025753	0.049899	1.000000	0.000227	-0.000584	-0.000216
07332	0.011037	0.138302	9.900288	-0.028378	0.020854	0.088510	1.000000	0.000216	-0.000592	-0.000205
07333	0.047719	0.131861	9.884389	0.008298	0.014685	0.072682	1.000000	0.000218	-0.000591	-0.000217
07334	0.046571	0.131793	9.884396	0.007163	0.014563	0.072683	1.000000	0.000221	-0.000590	-0.000211
07335	0.034854	0.110122	9.867632	-0.004515	-0.006901	0.055617	1.000000	0.000218	-0.000593	-0.000207
07336	0.044288	0.131487	9.884410	0.004898	0.014327	0.072685	1.000000	0.000214	-0.000587	-0.000212
07337	0.058014	0.141879	9.861462	0.018671	0.025061	0.049916	1.000000	0.000210	-0.000598	-0.000218
07338	0.019192	0.148011	9.877351	-0.020285	0.030958	0.065722	1.000000	0.000220	-0.000594	-0.000209
07339	0.015602	0.098871	9.890606	-0.023929	-0.018236	0.078380	1.000000	0.000201	-0.000596	-0.000212
07340	0.050398	0.152379	9.901216	0.010890	0.035207	0.089761	1.000000	0.000211	-0.000590	-0.000230
07341	0.011382	0.158465	9.917094	-0.028079	0.041092	0.105554	1.000000	0.000205	-0.000585	-0.000227
07342	0.018644	0.136278	9.837643	-0.020418	0.019968	0.025875	1.000000	0.000198	-0.000580	-0.000224
07343	0.036261	0.130328	9.884458	-0.003024	0.013495	0.072687	1.000000	0.000201	-0.000588	-0.000227
07344	0.035235	0.130208	9.884463	-0.004156	0.013370	0.072687	1.000000	0.000198	-0.000591	-0.000224
07345	0.034187	0.129966	9.884470	-0.005287	0.013254	0.072686	1.000000	0.000189	-0.000597	-0.000223
07346	0.047889	0.140459	9.861536	0.008493	0.024002	0.049933	1.000000	0.000199	-0.000593	-0.000214
07347	0.017068	0.119067	9.907419	-0.022464	0.002138	0.095436	1.000000	0.000184	-0.000591	-0.000233
07348	0.045531	0.140088	9.861553	0.006231	0.023766	0.049935	1.000000	0.000190	-0.000589	-0.000235
07349	0.052574	0.112618	9.891590	0.013124	-0.004059	0.079674	1.000000	0.000184	-0.000593	-0.000223
07350	0.028608	0.129186	9.884498	-0.010948	0.012647	0.072682	1.000000	0.000185	-0.000603	-0.000217
07351	0.038100	0.150642	9.901298	-0.001618	0.033902	0.089772	1.000000	0.000184	-0.000604	-0.000221
07352	0.041232	0.139498	9.861580	0.001706	0.023294	0.049938	1.000000	0.000178	-0.000599	-0.000217
07353	0.035853	0.150232	9.901313	-0.003893	0.033664	0.089772	1.000000	0.000174	-0.000611	-0.000223
07354	0.049554	0.160731	9.878394	0.009890	0.044433	0.067033	1.000000	0.000177	-0.000601	-0.000226
07355	0.060742	0.122149	9.868713	0.021264	0.006131	0.056944	1.000000	0.000158	-0.000594	-0.000219
07356	-0.001081	0.144833	9.877417	-0.040692	0.028724	0.065666	1.000000	0.000178	-0.000611	-0.000206
07357	0.054396	0.132975	9.908450	0.014512	0.016380	0.096781	1.000000	0.000168	-0.000608	-0.000215
07358	0.034518	0.138471	9.861620	-0.005080	0.022580	0.049938	1.000000	0.000163	-0.000602	-0.000218
07359	0.018470	0.127719	9.884541	-0.021134	0.011557	0.072667	1.000000	0.000169	-0.000599	-0.000220
07360	0.042636	0.159861	9.878440	0.003072	0.043725	0.067041	1.000000	0.000166	-0.000602	-0.000216
07361	0.039113	0.110820	9.891673	-0.000436	-0.005477	0.079682	1.000000	0.000170	-0.000590	-0.000227
07362	0.014960	0.127279	9.884553	-0.024529	0.011183	0.072660	1.000000	0.000155	-0.000599	-0.000229
07363	0.039235	0.159383	9.878462	-0.000335	0.043371	0.067043	1.000000	0.000168	-0.000602	-0.000219
07364	0.050760	0.121000	9.868784	0.011101	0.005079	0.056961	1.000000	0.000157	-0.000610	-0.000210
07365	0.026710	0.137441	9.861659	-0.012995	0.021739	0.049933	1.000000	0.000156	-0.000611	-0.000215
07366	0.067179	0.114951	9.915655	0.027265	-0.001457	0.103824	1.000000	0.000162	-0.000608	-0.000216
07367	0.039265	0.148085	9.838764	-0.000324	0.032424	0.027216	1.000000	0.000173	-0.000611	-0.000225
07368	0.031512	0.110067	9.891708	-0.008345	-0.006322	0.079678	1.000000	0.000173	-0.000612	-0.000229
07369	0.055618	0.142126	9.885638	0.015824	0.025893	0.074082	1.000000	0.000164	-0.000609	-0.000218
07370	0.020945	0.137118	9.861677	-0.018648	0.021129	0.049925	1.000000	0.000178	-0.000601	-0.000224
07371	0.053185	0.141896	9.885655	0.013556	0.025659	0.074086	1.000000	0.000159	-0.000603	-0.000227
07372	0.006172	0.175145	9.871361	-0.033541	0.059038	0.059996	1.000000	0.000184	-0.000617	-0.000230
07373	0.040675	0.120282	9.868839	0.000944	0.004022	0.056968	1.000000	0.000176	-0.000603	-0.000236
07374	0.001538	0.126078	9.884580	-0.038109	0.009694	0.072618	1.000000	0.000179	-0.000602	-0.000231
07375	0.023395	0.109398	9.891738	-0.016253	-0.007166	0.079668	1.000000	0.000185	-0.000599	-0.000232
07376	0.034744	0.179885	9.895359	-0.004777	0.063210	0.084165	1.000000	0.000185	-0.000591	-0.000228
07377	0.021078	0.109146	9.891746	-0.018512	-0.007411	0.079663	1.000000	0.000179	-0.000604	-0.000226
07378	0.034891	0.119559	9.868870	-0.004702	0.003420	0.056967	1.000000	0.000169	-0.000601	-0.000234
07379	0.029248	0.130431	9.908590	-0.010459	0.013757	0.096790	1.000000	0.000186	-0.000601	-0.000240
07380	0.024478	0.146779	9.838831	-0.015011	0.030863	0.027209	1.000000	0.000175	-0.000608	-0.000229
07381	0.054584	0.102569	9.876057	0.014912	-0.013653	0.064033	1.000000	0.000172	-0.000602	-0.000215
07382	0.032634	0.167957	9.855684	-0.006973	0.052038	0.044341	1.000000	0.000169	-0.000613	-0.000221
07383	0.029405	0.118792	9.868897	-0.010342	0.002823	0.056963	1.000000	0.000162	-0.000608	-0.000219
07384	0.038545	0.140285	9.885746	-0.001187	0.024117	0.074100	1.000000	0.000168	-0.000606	-0.000222
07385	0.037532	0.140142	9.885752	-0.002320	0.024001	0.074100	1.000000	0.000160	-0.000621	-0.000212
07386	0.026171	0.118410	9.868911	-0.013726	0.002454	0.056959	1.000000	0.000170	-0.000616	-0.000203
07387	0.039788	0.129204	9.846048	0.000095	0.013316	0.034279	1.000000	0.000180	-0.000610	-0.000222
07388	0.033999	0.139909	9.885768	-0.005719	0.023636	0.074099	1.000000	0.000161	-0.000603	-0.000214
07389	0.024575	0.166976	9.855724	-0.014914	0.051194	0.044337	1.000000	0.000166	-0.000600	-0.000216
07390	0.046454	0.150352	9.862920	0.006967	0.034383	0.051426	1.000000	0.000170	-0.000599	-0.000210
07391	0.015553	0.128739	9.908644	-0.024069	0.012287	0.096768	1.000000	0.000163	-0.000594	-0.000207
07392	0.033774	0.128412	9.846080	-0.005541	0.012716	0.034279	1.000000	0.000167	-0.000593	-0.000200
07393	0.028186	0.139193	9.885796	-0.011384	0.023037	0.074096	1.000000	0.000163	-0.000604	-0.000206
07394	0.046548	0.138971	9.823237	0.007160	0.023474	0.011612	1.000000	0.000173	-0.000600	-0.000198
07395	0.025840	0.138966	9.885806	-0.013650	0.022793	0.074093	1.000000	0.000159	-0.000589	-0.000207
07396	0.047615	0.122069	9.893021	0.008242	0.006003	0.081197	1.000000	0.000152	-0.000585	-0.000204
07397	0.038258	0.149167	9.862973	-0.000959	0.033556	0.051431	1.000000	0.000149	-0.000587	-0.000201
07398	0.022293	0.138262	9.885824	-0.017053	0.022424	0.074089	1.000000	0.000148	-0.000588	-0.000205
07399	0.021120	0.138212	9.885828	-0.018186	0.022306	0.074087	1.000000	0.000156	-0.000583	-0.000216
07400	0.042927	0.121610	9.893049	0.003710	0.005530	0.081200	1.000000	0.000156	-0.000575	-0.000211
07401	0.056446	0.132326	9.870216	0.017540	0.016431	0.058548	1.000000	0.000164	-0.000561	-0.000211
07402	0.027569	0.159773	9.902707	-0.011398	0.043379	0.091245	1.000000	0.000169	-0.000569	-0.000195
07403	0.039326	0.121358	9.893067	0.000318	0.005175	0.081200	1.000000	0.000154	-0.000568	-0.000215
07404	0.029855	0.148459	9.863013	-0.008890	0.032712	0.051430	1.000000	0.000160	-0.000556	-0.000207
07405	0.047195	0.142811	9.909953	0.008229	0.026385	0.098368	1.000000	0.000167	-0.000571	-0.000209
07406	0.050805	0.131808	9.870254	0.011888	0.015842	0.058557	1.000000	0.000160	-0.000566	-0.000206
07407	0.026501	0.148248	9.863026	-0.012287	0.032353	0.051428	1.000000	0.000170	-0.000562	-0.000197
07408	0.033541	0.120912	9.893093	-0.005340	0.004571	0.081199	1.000000	0.000169	-0.000562	-0.000203
07409	0.057593	0.153229	9.887154	0.018648	0.036947	0.075735	1.000000	0.000170	-0.000572	-0.000198
07410	0.046305	0.131551	9.870279	0.007366	0.015370	0.058563	1.000000	0.000180	-0.000567	-0.000189
07411	0.045102	0.131582	9.870284	0.006236	0.015255	0.058563	1.000000	0.000185	-0.000565	-0.000191
07412	0.028998	0.120547	9.893112	-0.009867	0.004088	0.081196	1.000000	0.000166	-0.000558	-0.000184
07413	0.032564	0.109390	9.853416	-0.006158	-0.006442	0.041386	1.000000	0.000169	-0.000566	-0.000188
07414	0.026721	0.120195	9.893123	-0.012130	0.003844	0.081194	1.000000	0.000171	-0.000555	-0.000191
07415	0.030180	0.109250	9.853425	-0.008408	-0.006683	0.041384	1.000000	0.000174	-0.000554	-0.000185
07416	0.026316	0.168969	9.879953	-0.012365	0.052714	0.068597	1.000000	0.000172	-0.000557	-0.000182
07417	0.046441	0.103204	9.900397	0.007540	-0.013108	0.088345	1.000000	0.000156	-0.000566	-0.000184
07418	0.047301	0.151991	9.887228	0.008424	0.035885	0.075753	1.000000	0.000166	-0.000561	-0.000175
07419	0.035983	0.130103	9.870342	-0.002809	0.014302	0.058566	1.000000	0.000146	-0.000563	-0.000178
07420	0.029966	0.140644	9.910051	-0.008823	0.024582	0.098373	1.000000	0.000145	-0.000546	-0.000181
07421	0.043602	0.151383	9.887254	0.005019	0.035534	0.075757	1.000000	0.000151	-0.000552	-0.000174
07422	0.042533	0.151326	9.887260	0.003883	0.035410	0.075758	1.000000	0.000151	-0.000552	-0.000180
07423	0.069195	0.123822	9.854842	0.030723	0.008327	0.043124	1.000000	0.000147	-0.000546	-0.000186
07424	0.040209	0.151027	9.887274	0.001611	0.035172	0.075759	1.000000	0.000150	-0.000553	-0.000189
07425	0.053937	0.161777	9.864485	0.015458	0.046137	0.053152	1.000000	0.000152	-0.000543	-0.000192
07426	0.050888	0.112755	9.877661	0.012356	-0.003101	0.065740	1.000000	0.000156	-0.000551	-0.000176
07427	0.026705	0.128999	9.870386	-0.011852	0.013339	0.058561	1.000000	0.000142	-0.000549	-0.000195
07428	0.025528	0.128791	9.870391	-0.012984	0.013214	0.058560	1.000000	0.000147	-0.000547	-0.000197
07429	0.057631	0.133906	9.894593	0.019016	0.018032	0.082945	1.000000	0.000142	-0.000551	-0.000185
07430	0.033334	0.150179	9.887312	-0.005205	0.034454	0.075760	1.000000	0.000142	-0.000542	-0.000181
07431	0.022101	0.128395	9.870405	-0.016374	0.012852	0.058555	1.000000	0.000145	-0.000550	-0.000184
07432	0.044123	0.111795	9.877704	0.005585	-0.003810	0.065746	1.000000	0.000138	-0.000545	-0.000182
07433	0.029817	0.149736	9.887330	-0.008610	0.034096	0.075759	1.000000	0.000137	-0.000537	-0.000177
07434	0.036740	0.122151	9.917416	-0.001642	0.006337	0.105547	1.000000	0.000120	-0.000528	-0.000198
07435	0.017219	0.127445	9.870427	-0.020894	0.012362	0.058547	1.000000	0.000120	-0.000528	-0.000184
07436	0.049263	0.132654	9.894656	0.011079	0.017208	0.082959	1.000000	0.000126	-0.000525	-0.000184
07437	0.029901	0.138178	9.847660	-0.008163	0.023230	0.035957	1.000000	0.000126	-0.000535	-0.000180
07438	0.052005	0.121637	9.854975	0.013806	0.006590	0.043163	1.000000	0.000126	-0.000535	-0.000185
07439	0.022898	0.148766	9.887363	-0.015424	0.033368	0.075753	1.000000	0.000125	-0.000536	-0.000190
07440	0.059901	0.143092	9.871915	0.021538	0.027852	0.060384	1.000000	0.000126	-0.000545	-0.000186
07441	0.020967	0.148448	9.887373	-0.017694	0.033122	0.075750	1.000000	0.000118	-0.000560	-0.000176
07442	0.047764	0.121072	9.855003	0.009298	0.006118	0.043169	1.000000	0.000125	-0.000537	-0.000187
07443	0.033265	0.159185	9.864619	-0.004967	0.044002	0.053172	1.000000	0.000131	-0.000534	-0.000189
07444	0.030272	0.110077	9.877776	-0.007951	-0.005249	0.065743	1.000000	0.000124	-0.000529	-0.000187
07445	0.016056	0.147999	9.887388	-0.022231	0.032629	0.075743	1.000000	0.000125	-0.000538	-0.000182
07446	0.043048	0.120690	9.855029	0.004792	0.005645	0.043172	1.000000	0.000128	-0.000537	-0.000176
07447	0.012100	0.098837	9.900543	-0.026333	-0.016746	0.088307	1.000000	0.000127	-0.000538	-0.000181
07448	0.050779	0.142215	9.871979	0.012483	0.026917	0.060402	1.000000	0.000131	-0.000536	-0.000174
07449	0.049654	0.142085	9.871987	0.011352	0.026803	0.060404	1.000000	0.000126	-0.000538	-0.000190
07450	0.010574	0.147579	9.887402	-0.027905	0.032007	0.075731	1.000000	0.000143	-0.000548	-0.000179
07451	0.057560	0.163909	9.888936	0.019013	0.048079	0.077639	1.000000	0.000148	-0.000545	-0.000181
07452	0.021453	0.109332	9.877807	-0.016972	-0.006221	0.065731	1.000000	0.000130	-0.000538	-0.000175
07453	0.055172	0.163408	9.888958	0.016738	0.047845	0.077645	1.000000	0.000135	-0.000544	-0.000187
07454	0.054133	0.163437	9.888963	0.015599	0.047722	0.077647	1.000000	0.000145	-0.000548	-0.000190
07455	0.028217	0.130697	9.894764	-0.010450	0.014931	0.082963	1.000000	0.000135	-0.000554	-0.000189
07456	0.042056	0.141381	9.872032	0.003424	0.025967	0.060412	1.000000	0.000135	-0.000554	-0.000195
07457	0.026036	0.130320	9.894775	-0.012715	0.014687	0.082961	1.000000	0.000132	-0.000556	-0.000191
07458	0.039793	0.141170	9.872044	0.001159	0.025729	0.060413	1.000000	0.000141	-0.000552	-0.000182
07459	0.028710	0.119349	9.855098	-0.009857	0.004090	0.043169	1.000000	0.000134	-0.000556	-0.000190
07460	-0.000517	0.146126	9.887429	-0.039252	0.030756	0.075696	1.000000	0.000115	-0.000557	-0.000192
07461	0.041433	0.129609	9.832383	0.002902	0.015024	0.020626	1.000000	0.000118	-0.000556	-0.000186
07462	0.035378	0.140363	9.872073	-0.003367	0.025253	0.060414	1.000000	0.000121	-0.000564	-0.000189
07463	0.024404	0.118534	9.855119	-0.014361	0.003608	0.043164	1.000000	0.000120	-0.000564	-0.000194
07464	0.028213	0.150918	9.911767	-0.010787	0.035361	0.100200	1.000000	0.000118	-0.000566	-0.000190
07465	0.032110	0.139954	9.872090	-0.006763	0.024897	0.060413	1.000000	0.000117	-0.000566	-0.000195
07466	0.039143	0.112594	9.902190	0.000240	-0.002832	0.090219	1.000000	0.000119	-0.000556	-0.000199
07467	0.044571	0.150685	9.849382	0.005990	0.035846	0.037881	1.000000	0.000120	-0.000556	-0.000185
07468	0.066624	0.134438	9.856767	0.028012	0.019315	0.045163	1.000000	0.000138	-0.000555	-0.000191
07469	0.022442	0.150497	9.911788	-0.016476	0.034753	0.100194	1.000000	0.000120	-0.000566	-0.000185
07470	0.049613	0.123145	9.879498	0.010735	0.007887	0.067694	1.000000	0.000125	-0.000563	-0.000187
07471	0.063399	0.133996	9.856794	0.024624	0.018974	0.045172	1.000000	0.000122	-0.000565	-0.000184
07472	0.015901	0.166442	9.842025	-0.022825	0.051643	0.030596	1.000000	0.000122	-0.000565	-0.000189
07473	0.036254	0.101084	9.862547	-0.002464	-0.014007	0.050434	1.000000	0.000127	-0.000553	-0.000182
07474	0.003382	0.144500	9.825058	-0.034895	0.029853	0.013327	1.000000	0.000122	-0.000537	-0.000198
07475	0.045244	0.171609	9.866407	0.006740	0.056438	0.055152	1.000000	0.000130	-0.000561	-0.000191
07476	0.042773	0.122586	9.879537	0.003953	0.007176	0.067699	1.000000	0.000131	-0.000562	-0.000177
07477	0.056438	0.133355	9.856845	0.017847	0.018278	0.045188	1.000000	0.000123	-0.000548	-0.000184
07478	0.050063	0.143981	9.896532	0.011472	0.028486	0.084970	1.000000	0.000126	-0.000546	-0.000179
07479	0.024150	0.111169	9.902254	-0.014465	-0.004401	0.090208	1.000000	0.000125	-0.000547	-0.000184
07480	0.047878	0.143770	9.896545	0.009200	0.028250	0.084973	1.000000	0.000126	-0.000556	-0.000180
07481	0.023626	0.159919	9.889141	-0.015111	0.044498	0.077663	1.000000	0.000125	-0.000556	-0.000185
07482	0.035907	0.121739	9.879575	-0.002832	0.006459	0.067700	1.000000	0.000122	-0.000559	-0.000182
07483	0.043114	0.094285	9.909686	0.004189	-0.021246	0.097517	1.000000	0.000115	-0.000562	-0.000190
07484	0.020357	0.159479	9.889155	-0.018522	0.044128	0.077659	1.000000	0.000129	-0.000565	-0.000179
07485	0.037830	0.110622	9.839916	-0.000936	-0.004217	0.027922	1.000000	0.000122	-0.000568	-0.000187
07486	0.041350	0.142911	9.896587	0.002387	0.027538	0.084979	1.000000	0.000115	-0.000563	-0.000185
07487	0.030445	0.120991	9.879602	-0.008482	0.005862	0.067697	1.000000	0.000118	-0.000571	-0.000189
07488	0.021072	0.148186	9.849499	-0.018270	0.030581	0.037884	1.000000	0.000263	-0.000593	-0.000174
07489	0.023077	0.131611	9.919283	-0.016557	0.013173	0.107473	1.000000	0.000257	-0.000597	-0.000163
07490	0.042068	0.131672	9.856940	0.002660	0.014000	0.045211	1.000000	0.000260	-0.000595	-0.000177
07491	0.035738	0.142229	9.896619	-0.003793	0.024184	0.084988	1.000000	0.000248	-0.000594	-0.000158
07492	0.048041	0.104173	9.887062	0.008561	-0.013828	0.075027	1.000000	0.000266	-0.000593	-0.000164
07493	0.033483	0.142137	9.896628	-0.006064	0.023941	0.084987	1.000000	0.000257	-0.000598	-0.000164
07494	0.032423	0.141894	9.896635	-0.007200	0.023816	0.084987	1.000000	0.000254	-0.000600	-0.000160
07495	0.046187	0.152867	9.873972	0.006704	0.034968	0.062512	1.000000	0.000266	-0.000593	-0.000160
07496	0.035244	0.131083	9.856974	-0.004115	0.013276	0.045212	1.000000	0.000265	-0.000594	-0.000166
07497	0.043786	0.152692	9.873986	0.004435	0.034727	0.062514	1.000000	0.000261	-0.000587	-0.000172
07498	0.041163	0.103499	9.887100	0.001791	-0.014551	0.075030	1.000000	0.000258	-0.000589	-0.000170
07499	0.026595	0.141386	9.896660	-0.012875	0.023202	0.084983	1.000000	0.000264	-0.000594	-0.000182
07500	0.030757	0.130368	9.856999	-0.008632	0.012789	0.045209	1.000000	0.000245	-0.000596	-0.000185
07501	0.039458	0.152007	9.874015	-0.000103	0.034245	0.062517	1.000000	0.000261	-0.000606	-0.000174
07502	0.037027	0.103021	9.887122	-0.002722	-0.015033	0.075029	1.000000	0.000258	-0.000608	-0.000170
07503	0.037380	0.151782	9.874026	-0.002372	0.034003	0.062517	1.000000	0.000249	-0.000613	-0.000170
07504	0.036302	0.151564	9.874034	-0.003509	0.033880	0.062517	1.000000	0.000249	-0.000614	-0.000175
07505	0.033599	0.102416	9.887140	-0.006108	-0.015394	0.075027	1.000000	0.000247	-0.000596	-0.000180
07506	0.071967	0.146186	9.858869	0.032489	0.028665	0.047433	1.000000	0.000251	-0.000603	-0.000163
07507	0.017715	0.140264	9.896696	-0.021960	0.022217	0.084969	1.000000	0.000257	-0.000600	-0.000166
07508	0.054728	0.135124	9.881530	0.015176	0.017128	0.069891	1.000000	0.000263	-0.000597	-0.000167
07509	0.068554	0.146040	9.858896	0.029094	0.028321	0.047445	1.000000	0.000256	-0.000600	-0.000175
07510	0.014303	0.139893	9.896706	-0.025366	0.021839	0.084961	1.000000	0.000253	-0.000603	-0.000173
07511	0.051339	0.134588	9.881555	0.011779	0.016774	0.069896	1.000000	0.000249	-0.000595	-0.000179
07512	0.058430	0.107250	9.911684	0.018823	-0.010917	0.099725	1.000000	0.000252	-0.000594	-0.000173
07513	0.007837	0.155939	9.826933	-0.031488	0.038764	0.015359	1.000000	0.000253	-0.000603	-0.000169
07514	0.032886	0.123029	9.904212	-0.006673	0.005092	0.092339	1.000000	0.000235	-0.000585	-0.000180
07515	0.046768	0.133873	9.881588	0.007249	0.016297	0.069902	1.000000	0.000243	-0.000609	-0.000173
07516	0.030715	0.122628	9.904224	-0.008938	0.004847	0.092338	1.000000	0.000229	-0.000589	-0.000173
07517	0.044420	0.133465	9.881604	0.004986	0.016057	0.069903	1.000000	0.000232	-0.000596	-0.000178
07518	0.044692	0.182356	9.868522	0.005239	0.065094	0.057405	1.000000	0.000229	-0.000598	-0.000173
07519	0.027272	0.122179	9.904239	-0.012333	0.004482	0.092334	1.000000	0.000235	-0.000595	-0.000176
07520	0.036789	0.100680	9.824925	-0.002460	-0.016168	0.012809	1.000000	0.000238	-0.000593	-0.000169
07521	0.039981	0.133015	9.881629	0.000460	0.015576	0.069905	1.000000	0.000226	-0.000601	-0.000161
07522	0.039047	0.132871	9.881635	-0.000674	0.015453	0.069906	1.000000	0.000236	-0.000613	-0.000172
07523	0.043211	0.121975	9.841984	0.003717	0.005077	0.030145	1.000000	0.000221	-0.000593	-0.000172
07524	0.022991	0.170569	9.891177	-0.016657	0.053024	0.079831	1.000000	0.000242	-0.000610	-0.000161
07525	0.083453	0.149380	9.883599	0.043770	0.031841	0.072244	1.000000	0.000228	-0.000599	-0.000171
07526	0.009764	0.099350	9.887224	-0.029792	-0.017995	0.074979	1.000000	0.000221	-0.000594	-0.000170
07527	0.009912	0.148202	9.874146	-0.029593	0.031046	0.062483	1.000000	0.000224	-0.000602	-0.000174
07528	0.055404	0.115968	9.889193	0.015787	-0.001473	0.077328	1.000000	0.000230	-0.000598	-0.000176
07529	0.007563	0.148088	9.874150	-0.031861	0.030796	0.062477	1.000000	0.000229	-0.000589	-0.000171
07530	0.029746	0.131836	9.881681	-0.009736	0.014477	0.069902	1.000000	0.000227	-0.000600	-0.000179
07531	0.046550	0.126246	9.928871	0.006823	0.008419	0.117089	1.000000	0.000220	-0.000595	-0.000177
07532	0.032941	0.120647	9.842040	-0.006421	0.003987	0.030144	1.000000	0.000213	-0.000598	-0.000184
07533	0.026425	0.131324	9.881697	-0.013130	0.014113	0.069899	1.000000	0.000229	-0.000599	-0.000183
07534	0.025297	0.131349	9.881700	-0.014262	0.013988	0.069897	1.000000	0.000228	-0.000599	-0.000187
07535	0.033646	0.152981	9.898764	-0.005920	0.035487	0.087250	1.000000	0.000221	-0.000593	-0.000185
07536	0.013419	0.109106	9.864651	-0.025993	-0.007876	0.052538	1.000000	0.000218	-0.000595	-0.000180
07537	0.054742	0.136590	9.906320	0.015079	0.019082	0.094696	1.000000	0.000223	-0.000603	-0.000165
07538	0.044145	0.114704	9.889264	0.004484	-0.002663	0.077339	1.000000	0.000225	-0.000601	-0.000178
07539	0.043978	0.163479	9.876203	0.004604	0.046388	0.064856	1.000000	0.000210	-0.000581	-0.000179
07540	0.018337	0.130261	9.881730	-0.021052	0.013248	0.069886	1.000000	0.000211	-0.000599	-0.000184
07541	0.078961	0.109232	9.874257	0.039450	-0.007778	0.062407	1.000000	0.000217	-0.000596	-0.000187
07542	0.031111	0.141200	9.859156	-0.008242	0.024398	0.047495	1.000000	0.000210	-0.000590	-0.000183
07543	0.029946	0.140982	9.859162	-0.009372	0.024280	0.047494	1.000000	0.000207	-0.000592	-0.000180
07544	0.037172	0.113643	9.889305	-0.002296	-0.003387	0.077340	1.000000	0.000206	-0.000592	-0.000186
07545	0.063379	0.129960	9.953595	0.023623	0.012219	0.141922	1.000000	0.000201	-0.000596	-0.000175
07546	0.036102	0.162325	9.876253	-0.003350	0.045539	0.064860	1.000000	0.000203	-0.000594	-0.000189
07547	0.063611	0.135484	9.844182	0.024473	0.019068	0.032583	1.000000	0.000201	-0.000576	-0.000194
07548	0.033457	0.162072	9.876267	-0.005621	0.045295	0.064861	1.000000	0.000202	-0.000576	-0.000180
07549	0.031243	0.112869	9.889335	-0.007943	-0.003995	0.077337	1.000000	0.000195	-0.000580	-0.000188
07550	0.045066	0.123955	9.866774	0.006009	0.007295	0.054964	1.000000	0.000207	-0.000573	-0.000189
07551	0.058909	0.135022	9.844217	0.019962	0.018599	0.032594	1.000000	0.000198	-0.000578	-0.000189
07552	0.052198	0.145493	9.883871	0.013131	0.028694	0.072342	1.000000	0.000198	-0.000569	-0.000185
07553	0.041559	0.123635	9.866793	0.002620	0.006937	0.054965	1.000000	0.000209	-0.000571	-0.000195
07554	0.017128	0.139605	9.859213	-0.021809	0.022916	0.047478	1.000000	0.000206	-0.000573	-0.000192
07555	0.072229	0.129434	9.891477	0.033032	0.012241	0.079838	1.000000	0.000219	-0.000584	-0.000192
07556	0.024526	0.161446	9.876303	-0.014712	0.044314	0.064856	1.000000	0.000220	-0.000584	-0.000177
07557	0.027850	0.101548	9.849724	-0.011251	-0.015192	0.037582	1.000000	0.000212	-0.000579	-0.000195
07558	0.054807	0.166909	9.901002	0.015673	0.049626	0.089736	1.000000	0.000212	-0.000570	-0.000191
07559	0.052528	0.117755	9.914066	0.013411	0.000335	0.102208	1.000000	0.000211	-0.000570	-0.000196
07560	0.028083	0.133704	9.906471	-0.011033	0.016294	0.094706	1.000000	0.000221	-0.000573	-0.000198
07561	0.047583	0.134181	9.844290	0.008678	0.017415	0.032613	1.000000	0.000220	-0.000573	-0.000203
07562	0.025778	0.133509	9.906480	-0.013304	0.016048	0.094704	1.000000	0.000217	-0.000566	-0.000189
07563	0.031181	0.171767	9.853794	-0.007572	0.054902	0.042497	1.000000	0.000222	-0.000563	-0.000192
07564	0.061724	0.128579	9.891560	0.022837	0.011189	0.079868	1.000000	0.000223	-0.000563	-0.000178
07565	0.027757	0.122426	9.866857	-0.010927	0.005481	0.054961	1.000000	0.000209	-0.000552	-0.000188
07566	0.020900	0.132799	9.906501	-0.017842	0.015554	0.094697	1.000000	0.000206	-0.000554	-0.000184
07567	0.058143	0.127886	9.891590	0.019441	0.010840	0.079875	1.000000	0.000205	-0.000553	-0.000190
07568	0.056993	0.127794	9.891598	0.018306	0.010719	0.079878	1.000000	0.000209	-0.000552	-0.000183
07569	0.023294	0.121830	9.866876	-0.015442	0.004991	0.054955	1.000000	0.000213	-0.000568	-0.000178
07570	0.031688	0.143592	9.883986	-0.007287	0.026527	0.072354	1.000000	0.000210	-0.000570	-0.000176
07571	0.060488	0.165849	9.838940	0.021773	0.049354	0.027688	1.000000	0.000208	-0.000561	-0.000191
07572	0.014270	0.132194	9.906521	-0.024653	0.014807	0.094684	1.000000	0.000222	-0.000563	-0.000180
07573	0.028123	0.143313	9.884001	-0.010689	0.026163	0.072352	1.000000	0.000211	-0.000559	-0.000190
07574	0.027002	0.142995	9.884009	-0.011825	0.026035	0.072351	1.000000	0.000202	-0.000564	-0.000192
07575	0.064298	0.138074	9.869133	0.025478	0.021371	0.057565	1.000000	0.000201	-0.000564	-0.000197
07576	0.057505	0.148548	9.908775	0.018497	0.031435	0.097301	1.000000	0.000196	-0.000568	-0.000187
07577	0.047044	0.126575	9.891666	0.008113	0.009647	0.079892	1.000000	0.000204	-0.000562	-0.000198
07578	0.037562	0.153729	9.861514	-0.001261	0.037031	0.050026	1.000000	0.000209	-0.000570	-0.000184
07579	0.036323	0.153633	9.861520	-0.002394	0.036913	0.050027	1.000000	0.000207	-0.000552	-0.000189
07580	0.019963	0.142310	9.884035	-0.018632	0.025292	0.072343	1.000000	0.000212	-0.000548	-0.000191
07581	0.057240	0.137486	9.869184	0.018686	0.020665	0.057581	1.000000	0.000203	-0.000553	-0.000191
07582	0.023567	0.131324	9.844415	-0.015011	0.014867	0.032609	1.000000	0.000207	-0.000560	-0.000196
07583	0.055115	0.137155	9.869201	0.016426	0.020428	0.057586	1.000000	0.000200	-0.000555	-0.000194
07584	0.063213	0.158829	9.886337	0.024505	0.041985	0.075008	1.000000	0.000197	-0.000556	-0.000192
07585	0.028500	0.103583	9.874592	-0.010147	-0.013002	0.062475	1.000000	0.000190	-0.000551	-0.000191
07586	0.022458	0.163033	9.901193	-0.016232	0.046225	0.089752	1.000000	0.000187	-0.000552	-0.000188
07587	0.020569	0.113975	9.914228	-0.018316	-0.003079	0.102199	1.000000	0.000200	-0.000563	-0.000188
07588	0.002677	0.168120	9.853905	-0.035948	0.051791	0.042451	1.000000	0.000186	-0.000552	-0.000199
07589	0.033207	0.124990	9.891742	-0.005474	0.008193	0.079896	1.000000	0.000201	-0.000552	-0.000198
07590	0.062202	0.147560	9.846763	0.023616	0.031114	0.035300	1.000000	0.000202	-0.000561	-0.000194
07591	0.007740	0.140753	9.884075	-0.031101	0.023918	0.072315	1.000000	0.000199	-0.000563	-0.000191
07592	0.054266	0.157895	9.886405	0.015407	0.041042	0.075030	1.000000	0.000199	-0.000563	-0.000197
07593	0.014538	0.162303	9.901220	-0.024208	0.045358	0.089740	1.000000	0.000193	-0.000546	-0.000213
07594	0.027443	0.124333	9.891768	-0.011135	0.007576	0.079891	1.000000	0.000190	-0.000548	-0.000211
07595	0.074053	0.141515	9.894118	0.035368	0.024732	0.082626	1.000000	0.000191	-0.000557	-0.000207
07596	0.025319	0.124004	9.891778	-0.013397	0.007331	0.079889	1.000000	0.000184	-0.000551	-0.000204
07597	0.029975	0.113311	9.852160	-0.008551	-0.002943	0.040166	1.000000	0.000196	-0.000553	-0.000214
07598	0.047264	0.157088	9.886454	0.008587	0.040329	0.075041	1.000000	0.000193	-0.000555	-0.000210
07599	-0.001554	0.139536	9.884095	-0.040171	0.022907	0.072284	1.000000	0.000188	-0.000547	-0.000217
07600	0.059111	0.118958	9.877021	0.020568	0.002449	0.065205	1.000000	0.000186	-0.000549	-0.000216
07601	0.028692	0.145311	9.908948	-0.009943	0.028417	0.097322	1.000000	0.000191	-0.000545	-0.000219
07602	0.033449	0.134675	9.869333	-0.005071	0.018142	0.057603	1.000000	0.000196	-0.000553	-0.000205
07603	0.032423	0.134531	9.869338	-0.006202	0.018023	0.057602	1.000000	0.000189	-0.000556	-0.000213
07604	0.039662	0.107149	9.899517	0.000930	-0.009585	0.087485	1.000000	0.000182	-0.000550	-0.000211
07605	0.024169	0.144749	9.908968	-0.014489	0.027923	0.097318	1.000000	0.000188	-0.000546	-0.000214
07606	0.061394	0.140109	9.894225	0.022885	0.023445	0.082666	1.000000	0.000181	-0.000541	-0.000212
07607	0.027689	0.133886	9.869361	-0.010724	0.017534	0.057599	1.000000	0.000188	-0.000546	-0.000206
07608	0.026575	0.133886	9.869364	-0.011855	0.017408	0.057598	1.000000	0.000194	-0.000542	-0.000209
07609	0.048944	0.117998	9.877088	0.010407	0.001383	0.065221	1.000000	0.000192	-0.000553	-0.000197
07610	0.047938	0.117832	9.877095	0.009280	0.001259	0.065222	1.000000	0.000189	-0.000555	-0.000194
07611	0.061783	0.129108	9.854649	0.023278	0.012722	0.042965	1.000000	0.000199	-0.000547	-0.000214
07612	0.037002	0.144820	9.846931	-0.001248	0.028495	0.035336	1.000000	0.000193	-0.000533	-0.000203
07613	0.014818	0.143810	9.909000	-0.023581	0.026924	0.097303	1.000000	0.000184	-0.000538	-0.000204
07614	0.043783	0.166127	9.864115	0.005539	0.049969	0.052796	1.000000	0.000171	-0.000535	-0.000206
07615	0.027605	0.154515	9.886569	-0.010726	0.038262	0.075047	1.000000	0.000168	-0.000537	-0.000203
07616	0.025720	0.105276	9.899583	-0.012622	-0.011056	0.087475	1.000000	0.000163	-0.000529	-0.000209
07617	0.039426	0.116491	9.877148	0.001380	0.000419	0.065227	1.000000	0.000168	-0.000516	-0.000222
07618	0.048038	0.187381	9.881320	0.010024	0.071210	0.070264	1.000000	0.000167	-0.000528	-0.000190
07619	0.037166	0.116264	9.877160	-0.000880	0.000177	0.065227	1.000000	0.000165	-0.000518	-0.000205
07620	0.021585	0.153949	9.886593	-0.016404	0.037643	0.075042	1.000000	0.000179	-0.000520	-0.000196
07621	0.011396	0.131856	9.869421	-0.026548	0.015796	0.057572	1.000000	0.000162	-0.000519	-0.000208
07622	0.034415	0.164922	9.864173	-0.003540	0.049003	0.052802	1.000000	0.000169	-0.000525	-0.000202
07623	0.032684	0.115818	9.877181	-0.005393	-0.000310	0.065225	1.000000	0.000168	-0.000524	-0.000207
07624	0.017163	0.153347	9.886611	-0.020948	0.037147	0.075035	1.000000	0.000165	-0.000526	-0.000204
07625	0.030310	0.115587	9.877191	-0.007652	-0.000553	0.065224	1.000000	0.000173	-0.000511	-0.000206
07626	0.029052	0.115513	9.877196	-0.008782	-0.000680	0.065223	1.000000	0.000170	-0.000513	-0.000204
07627	0.027988	0.115416	9.877200	-0.009911	-0.000799	0.065222	1.000000	0.000176	-0.000518	-0.000217
07628	0.012418	0.152959	9.886624	-0.025492	0.036646	0.075027	1.000000	0.000169	-0.000512	-0.000215
07629	0.040787	0.126508	9.854792	0.002971	0.010582	0.042995	1.000000	0.000174	-0.000519	-0.000201
07630	0.048763	0.148346	9.871986	0.010802	0.032196	0.060475	1.000000	0.000171	-0.000521	-0.000198
07631	0.032577	0.136850	9.894407	-0.005472	0.020447	0.082697	1.000000	0.000174	-0.000519	-0.000192
07632	0.031507	0.136754	9.894412	-0.006608	0.020322	0.082697	1.000000	0.000173	-0.000528	-0.000208
07633	0.045519	0.147820	9.872009	0.007401	0.031840	0.060479	1.000000	0.000154	-0.000529	-0.000212
07634	0.059339	0.158915	9.849611	0.021410	0.043358	0.038265	1.000000	0.000156	-0.000518	-0.000216
07635	0.013010	0.124533	9.916840	-0.025153	0.008314	0.104908	1.000000	0.000144	-0.000525	-0.000208
07636	0.033296	0.125206	9.854837	-0.004928	0.009734	0.042995	1.000000	0.000153	-0.000548	-0.000202
07637	0.035102	0.157682	9.911640	-0.003356	0.041457	0.100181	1.000000	0.000153	-0.000528	-0.000216
07638	0.030883	0.125024	9.854847	-0.007185	0.009490	0.042994	1.000000	0.000150	-0.000529	-0.000213
07639	0.062213	0.131126	9.879845	0.024040	0.015321	0.068183	1.000000	0.000149	-0.000529	-0.000219
07640	0.037558	0.146750	9.872059	-0.000536	0.030995	0.060485	1.000000	0.000155	-0.000525	-0.000222
07641	0.021219	0.135296	9.894459	-0.016817	0.019218	0.082687	1.000000	0.000157	-0.000514	-0.000226
07642	0.058586	0.130958	9.879870	0.020644	0.014966	0.068191	1.000000	0.000161	-0.000521	-0.000211
07643	0.057539	0.130694	9.879879	0.019513	0.014852	0.068194	1.000000	0.000142	-0.000522	-0.000215
07644	0.026833	0.156741	9.911680	-0.011334	0.040595	0.100179	1.000000	0.000155	-0.000524	-0.000206
07645	0.046349	0.108619	9.862685	0.008371	-0.007140	0.050699	1.000000	0.000161	-0.000520	-0.000209
07646	0.030619	0.146182	9.872091	-0.007334	0.030263	0.060484	1.000000	0.000161	-0.000520	-0.000216
07647	0.014402	0.134664	9.894480	-0.023618	0.018469	0.082674	1.000000	0.000164	-0.000518	-0.000211
07648	0.051817	0.130301	9.879916	0.013855	0.014254	0.068204	1.000000	0.000161	-0.000519	-0.000208
07649	0.050859	0.130196	9.879923	0.012724	0.014138	0.068206	1.000000	0.000165	-0.000535	-0.000203
07650	0.049775	0.130139	9.879929	0.011591	0.014016	0.068207	1.000000	0.000167	-0.000524	-0.000207
07651	0.016149	0.123848	9.854897	-0.021847	0.007892	0.042973	1.000000	0.000180	-0.000526	-0.000198
07652	0.047378	0.130108	9.879941	0.009329	0.013778	0.068210	1.000000	0.000173	-0.000520	-0.000196
07653	0.046078	0.129939	9.879949	0.008198	0.013662	0.068211	1.000000	0.000175	-0.000509	-0.000200
07654	0.027580	0.134974	9.832534	-0.010073	0.019207	0.020788	1.000000	0.000178	-0.000515	-0.000207
07655	0.034916	0.107701	9.862743	-0.002890	-0.008348	0.050701	1.000000	0.000168	-0.000511	-0.000217
07656	0.042603	0.129482	9.879971	0.004801	0.013294	0.068214	1.000000	0.000171	-0.000509	-0.000212
07657	0.050209	0.151387	9.897201	0.012483	0.034945	0.085729	1.000000	0.000173	-0.000498	-0.000217
07658	0.040181	0.129155	9.879985	0.002538	0.013052	0.068215	1.000000	0.000158	-0.000506	-0.000220
07659	0.054181	0.140513	9.857629	0.016567	0.024641	0.046047	1.000000	0.000175	-0.000504	-0.000228
07660	0.038027	0.129002	9.879996	0.000275	0.012807	0.068216	1.000000	0.000164	-0.000511	-0.000221
07661	0.045772	0.150802	9.897231	0.007936	0.034463	0.085735	1.000000	0.000170	-0.000507	-0.000225
07662	0.050335	0.091153	9.870628	0.012705	-0.024926	0.058451	1.000000	0.000169	-0.000498	-0.000222
07663	0.043268	0.150597	9.897246	0.005663	0.034220	0.085738	1.000000	0.000168	-0.000497	-0.000228
07664	0.033291	0.128479	9.880020	-0.004248	0.012320	0.068215	1.000000	0.000168	-0.000497	-0.000233
07665	0.070689	0.124301	9.865532	0.033268	0.008220	0.053821	1.000000	0.000176	-0.000491	-0.000245
07666	0.016284	0.165820	9.889405	-0.021231	0.049554	0.077975	1.000000	0.000161	-0.000499	-0.000249
07667	0.044975	0.139492	9.857690	0.007523	0.023684	0.046061	1.000000	0.000166	-0.000495	-0.000252
07668	0.052177	0.112466	9.887905	0.014715	-0.003864	0.075984	1.000000	0.000177	-0.000487	-0.000272
07669	0.027402	0.127942	9.880045	-0.009903	0.011710	0.068212	1.000000	0.000167	-0.000483	-0.000263
07670	0.058572	0.134110	9.905162	0.021200	0.017681	0.093518	1.000000	0.000165	-0.000485	-0.000261
07671	0.055370	0.150523	9.835377	0.018173	0.034940	0.023919	1.000000	0.000165	-0.000493	-0.000258
07672	0.024164	0.127429	9.880060	-0.013295	0.011335	0.068209	1.000000	0.000165	-0.000493	-0.000264
07673	0.031585	0.100210	9.910278	-0.006100	-0.016204	0.098132	1.000000	0.000162	-0.000503	-0.000272
07674	0.013586	0.154269	9.849854	-0.023886	0.038507	0.038280	1.000000	0.000171	-0.000497	-0.000264
07675	0.035965	0.138607	9.857739	-0.001519	0.022718	0.046066	1.000000	0.000164	-0.000500	-0.000273
07676	0.058345	0.122794	9.865631	0.020850	0.006930	0.053856	1.000000	0.000158	-0.000494	-0.000272
07677	0.018622	0.126668	9.880082	-0.018952	0.010721	0.068200	1.000000	0.000158	-0.000503	-0.000268
07678	0.079722	0.106985	9.873536	0.042097	-0.008961	0.061657	1.000000	0.000162	-0.000501	-0.000262
07679	0.016398	0.126481	9.880088	-0.021213	0.010474	0.068196	1.000000	0.000161	-0.000500	-0.000269
07680	0.062538	0.144316	9.882917	0.025025	0.028255	0.071409	1.000000	0.000160	-0.000491	-0.000264
07681	0.052695	0.122132	9.865671	0.015208	0.006345	0.053867	1.000000	0.000155	-0.000503	-0.000264
07682	0.012941	0.125997	9.880099	-0.024607	0.010095	0.068188	1.000000	0.000157	-0.000492	-0.000269
07683	0.059057	0.143890	9.882944	0.021623	0.027904	0.071418	1.000000	0.000157	-0.000491	-0.000256
07684	0.019243	0.147841	9.897363	-0.018202	0.031645	0.085731	1.000000	0.000163	-0.000487	-0.000259
07685	0.047985	0.121753	9.865700	0.010693	0.005868	0.053873	1.000000	0.000162	-0.000487	-0.000265
07686	0.055572	0.143609	9.882969	0.018221	0.027549	0.071426	1.000000	0.000159	-0.000488	-0.000262
07687	0.030706	0.109974	9.888023	-0.006743	-0.006151	0.075991	1.000000	0.000165	-0.000493	-0.000275
07688	0.029830	0.158999	9.875068	-0.007568	0.042933	0.063610	1.000000	0.000168	-0.000491	-0.000270
07689	0.052120	0.143414	9.882990	0.014818	0.027197	0.071432	1.000000	0.000170	-0.000479	-0.000274
07690	0.035866	0.131623	9.905304	-0.001497	0.015286	0.093544	1.000000	0.000154	-0.000488	-0.000277
07691	0.049864	0.142945	9.883009	0.012551	0.026960	0.071436	1.000000	0.000160	-0.000483	-0.000281
07692	0.040067	0.120941	9.865746	0.002794	0.005027	0.053879	1.000000	0.000168	-0.000489	-0.000255
07693	0.047551	0.142937	9.883020	0.010284	0.026720	0.071439	1.000000	0.000170	-0.000477	-0.000260
07694	0.037632	0.120807	9.865757	0.000538	0.004785	0.053880	1.000000	0.000169	-0.000477	-0.000266
07695	0.006400	0.146634	9.897398	-0.030698	0.030272	0.085705	1.000000	0.000169	-0.000467	-0.000263
07696	0.058802	0.105127	9.873703	0.021813	-0.011048	0.061720	1.000000	0.000176	-0.000472	-0.000256
07697	0.036475	0.152999	9.922613	-0.000840	0.036247	0.111106	1.000000	0.000170	-0.000484	-0.000255
07698	0.048303	0.131980	9.843488	0.011210	0.016111	0.031784	1.000000	0.000179	-0.000479	-0.000247
07699	0.040763	0.142548	9.883056	0.003481	0.025999	0.071446	1.000000	0.000193	-0.000489	-0.000249
07700	0.031021	0.120338	9.865785	-0.006232	0.004057	0.053878	1.000000	0.000173	-0.000481	-0.000243
07701	0.062000	0.126617	9.891019	0.024753	0.010184	0.079300	1.000000	0.000176	-0.000479	-0.000238
07702	0.028872	0.169034	9.852846	-0.008272	0.053024	0.041505	1.000000	0.000177	-0.000487	-0.000235
07703	0.036368	0.141919	9.883082	-0.001054	0.025515	0.071448	1.000000	0.000180	-0.000494	-0.000240
07704	0.026645	0.119852	9.865804	-0.010746	0.003568	0.053874	1.000000	0.000186	-0.000490	-0.000243
07705	0.033968	0.141835	9.883092	-0.003321	0.025272	0.071448	1.000000	0.000188	-0.000478	-0.000248
07706	0.032803	0.141578	9.883100	-0.004456	0.025148	0.071448	1.000000	0.000172	-0.000487	-0.000251
07707	0.063932	0.147901	9.908355	0.026501	0.031303	0.096893	1.000000	0.000173	-0.000486	-0.000238
07708	0.006934	0.107701	9.888094	-0.030449	-0.008762	0.075945	1.000000	0.000186	-0.000488	-0.000228
07709	0.053072	0.125909	9.891080	0.015699	0.009240	0.079320	1.000000	0.000188	-0.000485	-0.000243
07710	0.028299	0.141274	9.883118	-0.008987	0.024656	0.071446	1.000000	0.000191	-0.000483	-0.000239
07711	0.027136	0.141175	9.883123	-0.010121	0.024537	0.071445	1.000000	0.000191	-0.000482	-0.000245
07712	0.056140	0.115141	9.851546	0.018981	-0.001101	0.039673	1.000000	0.000187	-0.000483	-0.000240
07713	0.072219	0.158964	9.886143	0.034873	0.042450	0.074844	1.000000	0.000176	-0.000490	-0.000233
07714	0.047331	0.125154	9.891119	0.010034	0.008641	0.079328	1.000000	0.000183	-0.000475	-0.000256
07715	0.037568	0.152248	9.860884	0.000538	0.035903	0.049378	1.000000	0.000195	-0.000476	-0.000247
07716	0.021264	0.140459	9.883147	-0.015790	0.023919	0.071439	1.000000	0.000176	-0.000468	-0.000241
07717	0.082342	0.169967	9.863934	0.045526	0.053844	0.052802	1.000000	0.000173	-0.000461	-0.000229
07718	0.050810	0.146579	9.908451	0.013989	0.030000	0.096923	1.000000	0.000171	-0.000451	-0.000244
07719	0.032563	0.151377	9.860915	-0.003991	0.035419	0.049379	1.000000	0.000168	-0.000452	-0.000243
07720	0.016380	0.139676	9.883168	-0.020326	0.023424	0.071432	1.000000	0.000175	-0.000457	-0.000236
07721	0.015233	0.139698	9.883169	-0.021459	0.023303	0.071430	1.000000	0.000183	-0.000451	-0.000248
07722	0.037744	0.173177	9.878235	0.001070	0.056891	0.066974	1.000000	0.000168	-0.000459	-0.000253
07723	0.028195	0.150978	9.860935	-0.008522	0.034928	0.049378	1.000000	0.000181	-0.000460	-0.000244
07724	0.012029	0.139241	9.883180	-0.024855	0.022922	0.071423	1.000000	0.000169	-0.000467	-0.000236
07725	0.010828	0.139041	9.883184	-0.025988	0.022800	0.071420	1.000000	0.000173	-0.000453	-0.000249
07726	0.041679	0.145608	9.908508	0.004896	0.029035	0.096934	1.000000	0.000170	-0.000454	-0.000247
07727	0.070815	0.119631	9.876979	0.034112	0.003477	0.065211	1.000000	0.000167	-0.000456	-0.000245
07728	0.030918	0.123269	9.891207	-0.008186	0.004424	0.079332	1.000000	0.000300	-0.000572	-0.000168
07729	0.038321	0.145245	9.908527	-0.000905	0.026151	0.096943	1.000000	0.000299	-0.000582	-0.000157
07730	0.043878	0.134779	9.868986	0.004761	0.016081	0.057302	1.000000	0.000308	-0.000576	-0.000148
07731	0.042699	0.134560	9.868994	0.003629	0.015962	0.057303	1.000000	0.000289	-0.000577	-0.000153
07732	0.026415	0.122656	9.891228	-0.012717	0.003929	0.079327	1.000000	0.000294	-0.000573	-0.000156
07733	0.072360	0.140910	9.894356	0.033344	0.022116	0.082856	1.000000	0.000290	-0.000565	-0.000164
07734	0.015490	0.149447	9.860986	-0.023360	0.031047	0.049367	1.000000	0.000297	-0.000570	-0.000157
07735	0.061712	0.118611	9.877053	0.022692	0.000026	0.065244	1.000000	0.000288	-0.000575	-0.000158
07736	0.045374	0.155743	9.886354	0.006342	0.037204	0.074925	1.000000	0.000281	-0.000569	-0.000157
07737	-0.011394	0.114999	9.865891	-0.050346	-0.003110	0.053752	1.000000	0.000272	-0.000573	-0.000158
07738	0.028039	0.143679	9.908584	-0.011151	0.025033	0.096940	1.000000	0.000282	-0.000576	-0.000161
07739	0.033648	0.133374	9.869045	-0.005431	0.014980	0.057303	1.000000	0.000295	-0.000578	-0.000153
07740	0.056194	0.117989	9.877093	0.017036	-0.000577	0.065255	1.000000	0.000288	-0.000581	-0.000162
07741	0.046554	0.144830	9.846846	0.007521	0.026667	0.035295	1.000000	0.000291	-0.000578	-0.000157
07742	0.038765	0.106099	9.899315	-0.000444	-0.012753	0.087264	1.000000	0.000294	-0.000576	-0.000152
07743	0.067911	0.129275	9.854911	0.028863	0.011005	0.043257	1.000000	0.000285	-0.000581	-0.000153
07744	-0.010809	0.136319	9.883222	-0.049919	0.017831	0.071339	1.000000	0.000285	-0.000571	-0.000150
07745	0.065466	0.128990	9.854931	0.026603	0.010768	0.043264	1.000000	0.000290	-0.000567	-0.000154
07746	0.025586	0.132588	9.869080	-0.013356	0.014106	0.057297	1.000000	0.000295	-0.000574	-0.000140
07747	0.039569	0.144302	9.846885	0.000734	0.025934	0.035300	1.000000	0.000305	-0.000565	-0.000160
07748	0.031661	0.154559	9.886426	-0.007312	0.035726	0.074930	1.000000	0.000294	-0.000572	-0.000152
07749	0.045745	0.116839	9.877161	0.006860	-0.001662	0.065268	1.000000	0.000283	-0.000559	-0.000153
07750	0.029201	0.153955	9.886443	-0.009589	0.035481	0.074929	1.000000	0.000280	-0.000560	-0.000150
07751	0.011359	0.109627	9.851762	-0.027313	-0.008385	0.039650	1.000000	0.000279	-0.000559	-0.000157
07752	0.065687	0.150119	9.872339	0.026982	0.031806	0.060923	1.000000	0.000283	-0.000557	-0.000152
07753	0.049407	0.138454	9.894532	0.010621	0.019724	0.082911	1.000000	0.000296	-0.000558	-0.000144
07754	0.009573	0.141877	9.908645	-0.029361	0.023009	0.096908	1.000000	0.000281	-0.000566	-0.000148
07755	0.038953	0.116128	9.877198	0.000079	-0.002397	0.065270	1.000000	0.000299	-0.000563	-0.000156
07756	0.029233	0.142926	9.846941	-0.009449	0.024825	0.035298	1.000000	0.000275	-0.000560	-0.000134
07757	0.036440	0.115659	9.877213	-0.002182	-0.002641	0.065270	1.000000	0.000282	-0.000544	-0.000136
07758	0.043487	0.137676	9.894571	0.004942	0.019113	0.082917	1.000000	0.000279	-0.000546	-0.000134
07759	0.033956	0.115424	9.877225	-0.004443	-0.002887	0.065269	1.000000	0.000279	-0.000536	-0.000131
07760	0.032592	0.164374	9.864318	-0.005731	0.046210	0.052944	1.000000	0.000280	-0.000544	-0.000128
07761	0.046901	0.126761	9.855066	0.008526	0.008852	0.043298	1.000000	0.000264	-0.000544	-0.000122
07762	0.006969	0.130292	9.869141	-0.031470	0.012088	0.057259	1.000000	0.000293	-0.000545	-0.000106
07763	0.037782	0.137167	9.894601	-0.000739	0.018502	0.082919	1.000000	0.000279	-0.000542	-0.000128
07764	0.028289	0.114861	9.877249	-0.010096	-0.003509	0.065264	1.000000	0.000285	-0.000538	-0.000130
07765	0.027145	0.114738	9.877254	-0.011226	-0.003630	0.065263	1.000000	0.000279	-0.000541	-0.000120
07766	0.025778	0.163628	9.864351	-0.012553	0.045466	0.052942	1.000000	0.000279	-0.000540	-0.000127
07767	0.056711	0.121350	9.902738	0.018359	0.002676	0.090939	1.000000	0.000284	-0.000527	-0.000121
07768	0.046959	0.148164	9.872475	0.008817	0.029889	0.060962	1.000000	0.000275	-0.000531	-0.000121
07769	0.037519	0.125842	9.855118	-0.000513	0.007879	0.043303	1.000000	0.000274	-0.000522	-0.000118
07770	0.044855	0.098835	9.885396	0.006768	-0.019578	0.073283	1.000000	0.000284	-0.000524	-0.000119
07771	0.043473	0.147693	9.872498	0.005412	0.029529	0.060966	1.000000	0.000265	-0.000525	-0.000125
07772	0.042574	0.147467	9.872506	0.004277	0.029401	0.060967	1.000000	0.000273	-0.000548	-0.000121
07773	0.057001	0.110132	9.863266	0.018620	-0.007925	0.051337	1.000000	0.000275	-0.000537	-0.000126
07774	0.025124	0.135609	9.894663	-0.013228	0.017133	0.082913	1.000000	0.000278	-0.000534	-0.000121
07775	0.054606	0.109905	9.863282	0.016366	-0.008165	0.051341	1.000000	0.000272	-0.000537	-0.000131
07776	0.022978	0.135231	9.894673	-0.015498	0.016881	0.082910	1.000000	0.000269	-0.000546	-0.000139
07777	0.045664	0.119832	9.902814	0.007023	0.001463	0.090954	1.000000	0.000263	-0.000550	-0.000129
07778	0.051052	0.158410	9.850406	0.012715	0.040693	0.039032	1.000000	0.000266	-0.000538	-0.000135
07779	0.043260	0.119453	9.902829	0.004758	0.001215	0.090955	1.000000	0.000254	-0.000544	-0.000128
07780	0.041855	0.168420	9.889937	0.003337	0.050318	0.078644	1.000000	0.000267	-0.000546	-0.000119
07781	0.024300	0.124091	9.855182	-0.014061	0.006390	0.043294	1.000000	0.000256	-0.000541	-0.000130
07782	0.031698	0.096997	9.885465	-0.006770	-0.021060	0.073280	1.000000	0.000266	-0.000544	-0.000133
07783	0.069111	0.142754	9.858592	0.030707	0.024818	0.047101	1.000000	0.000275	-0.000546	-0.000135
07784	0.013911	0.134272	9.894703	-0.024580	0.015871	0.082893	1.000000	0.000271	-0.000538	-0.000143
07785	0.027841	0.146048	9.872579	-0.010470	0.027798	0.060967	1.000000	0.000286	-0.000537	-0.000142
07786	0.026622	0.146045	9.872583	-0.011608	0.027670	0.060966	1.000000	0.000283	-0.000530	-0.000131
07787	0.049270	0.130621	9.880750	0.010929	0.012289	0.069035	1.000000	0.000272	-0.000545	-0.000134
07788	0.048301	0.130516	9.880756	0.009794	0.012163	0.069037	1.000000	0.000285	-0.000546	-0.000126
07789	0.038566	0.157407	9.850479	0.000235	0.039360	0.039046	1.000000	0.000278	-0.000540	-0.000126
07790	0.022238	0.145504	9.872602	-0.016145	0.027170	0.060961	1.000000	0.000288	-0.000543	-0.000128
07791	0.029204	0.167532	9.889998	-0.009205	0.048962	0.078647	1.000000	0.000281	-0.000536	-0.000128
07792	0.035559	0.107929	9.863390	-0.002804	-0.010238	0.051352	1.000000	0.000279	-0.000547	-0.000116
07793	0.035812	0.140221	9.920296	-0.003055	0.021403	0.108640	1.000000	0.000278	-0.000566	-0.000115
07794	0.048896	0.119353	9.841292	0.010193	0.001591	0.029444	1.000000	0.000267	-0.000561	-0.000125
07795	0.040631	0.129495	9.880804	0.001867	0.011314	0.069042	1.000000	0.000273	-0.000556	-0.000129
07796	0.039407	0.129483	9.880810	0.000736	0.011189	0.069043	1.000000	0.000279	-0.000552	-0.000132
07797	0.038310	0.129424	9.880815	-0.000397	0.011070	0.069043	1.000000	0.000279	-0.000560	-0.000129
07798	0.028708	0.156222	9.850532	-0.009963	0.038250	0.039045	1.000000	0.000276	-0.000561	-0.000127
07799	0.036120	0.129157	9.880826	-0.002662	0.010823	0.069043	1.000000	0.000279	-0.000558	-0.000123
07800	0.011225	0.144167	9.872640	-0.027483	0.025908	0.060939	1.000000	0.000279	-0.000557	-0.000130
07801	0.041916	0.151162	9.898240	0.003094	0.032501	0.086742	1.000000	0.000288	-0.000560	-0.000133
07802	0.056524	0.113937	9.889036	0.017634	-0.004759	0.077150	1.000000	0.000293	-0.000567	-0.000119
07803	0.007950	0.144109	9.872644	-0.030886	0.025528	0.060930	1.000000	0.000299	-0.000562	-0.000124
07804	0.006835	0.143922	9.872648	-0.032022	0.025397	0.060927	1.000000	0.000287	-0.000569	-0.000116
07805	0.068391	0.125341	9.866970	0.029496	0.006989	0.055269	1.000000	0.000286	-0.000567	-0.000123
07806	0.028284	0.128387	9.880862	-0.010592	0.009952	0.069038	1.000000	0.000280	-0.000561	-0.000122
07807	-0.004743	0.121187	9.855247	-0.043412	0.003086	0.043210	1.000000	0.000285	-0.000557	-0.000126
07808	0.033881	0.150356	9.898283	-0.004875	0.031634	0.086744	1.000000	0.000288	-0.000554	-0.000122
07809	0.024530	0.128045	9.880876	-0.013989	0.009579	0.069035	1.000000	0.000281	-0.000539	-0.000112
07810	0.047213	0.112704	9.889099	0.008585	-0.005726	0.077162	1.000000	0.000274	-0.000561	-0.000114
07811	0.022517	0.127632	9.880887	-0.016252	0.009327	0.069031	1.000000	0.000279	-0.000557	-0.000118
07812	0.075236	0.136206	9.844961	0.036847	0.018278	0.033418	1.000000	0.000277	-0.000537	-0.000124
07813	0.027922	0.149551	9.898314	-0.010562	0.031014	0.086741	1.000000	0.000278	-0.000545	-0.000121
07814	0.035428	0.122503	9.928618	-0.003251	0.003594	0.116748	1.000000	0.000278	-0.000544	-0.000129
07815	0.056739	0.123916	9.867062	0.018195	0.005797	0.055298	1.000000	0.000272	-0.000556	-0.000129
07816	0.055172	0.172917	9.854191	0.016554	0.054904	0.043008	1.000000	0.000282	-0.000559	-0.000131
07817	0.039535	0.111818	9.889143	0.000672	-0.006580	0.077165	1.000000	0.000270	-0.000565	-0.000125
07818	0.029685	0.138517	9.858850	-0.008908	0.020581	0.047155	1.000000	0.000272	-0.000544	-0.000119
07819	0.045006	0.133773	9.906581	0.006333	0.015119	0.094885	1.000000	0.000285	-0.000554	-0.000120
07820	0.036014	0.111559	9.889160	-0.002719	-0.006950	0.077164	1.000000	0.000278	-0.000556	-0.000129
07821	0.026248	0.138258	9.858863	-0.012304	0.020214	0.047152	1.000000	0.000275	-0.000548	-0.000117
07822	0.056824	0.145267	9.884544	0.018193	0.026901	0.073034	1.000000	0.000279	-0.000554	-0.000123
07823	0.040580	0.133255	9.906607	0.001790	0.014630	0.094888	1.000000	0.000275	-0.000555	-0.000121
07824	0.038045	0.149810	9.836823	-0.000429	0.031991	0.025298	1.000000	0.000281	-0.000551	-0.000126
07825	0.030317	0.110994	9.889185	-0.008370	-0.007567	0.077161	1.000000	0.000288	-0.000555	-0.000120
07826	0.052221	0.144899	9.884575	0.013648	0.026418	0.073042	1.000000	0.000277	-0.000542	-0.000121
07827	0.019239	0.137521	9.858890	-0.019094	0.019463	0.047142	1.000000	0.000278	-0.000541	-0.000109
07828	0.041878	0.122523	9.867154	0.003508	0.004225	0.055315	1.000000	0.000291	-0.000542	-0.000099
07829	0.048745	0.144730	9.884595	0.010243	0.026060	0.073048	1.000000	0.000294	-0.000548	-0.000105
07830	0.054918	0.134382	9.845121	0.016519	0.016153	0.033477	1.000000	0.000294	-0.000547	-0.000111
07831	0.046535	0.144604	9.884607	0.007972	0.025817	0.073050	1.000000	0.000303	-0.000549	-0.000114
07832	0.022317	0.110481	9.889212	-0.016288	-0.008442	0.077150	1.000000	0.000303	-0.000548	-0.000121
07833	0.028996	0.132479	9.906658	-0.009575	0.013393	0.094885	1.000000	0.000298	-0.000540	-0.000129
07834	0.035126	0.122105	9.867185	-0.003273	0.003490	0.055315	1.000000	0.000303	-0.000546	-0.000114
07835	0.057094	0.156181	9.862600	0.018704	0.037515	0.051225	1.000000	0.000308	-0.000541	-0.000118
07836	0.032772	0.121944	9.867195	-0.005532	0.003242	0.055314	1.000000	0.000301	-0.000535	-0.000118
07837	0.039450	0.143923	9.884648	0.001159	0.025084	0.073055	1.000000	0.000301	-0.000534	-0.000126
07838	0.054103	0.106632	9.875496	0.015952	-0.012080	0.063512	1.000000	0.000299	-0.000523	-0.000143
07839	0.037002	0.143703	9.884661	-0.001113	0.024837	0.073056	1.000000	0.000306	-0.000528	-0.000137
07840	0.043187	0.133464	9.845192	0.005225	0.014945	0.033491	1.000000	0.000312	-0.000523	-0.000140
07841	0.058459	0.128526	9.892968	0.020367	0.009528	0.081263	1.000000	0.000296	-0.000522	-0.000135
07842	0.001767	0.135992	9.858929	-0.036066	0.017555	0.047099	1.000000	0.000298	-0.000510	-0.000141
07843	0.047339	0.155068	9.862669	0.009623	0.036550	0.051242	1.000000	0.000298	-0.000509	-0.000129
07844	0.047119	0.105883	9.875539	0.009180	-0.012807	0.063520	1.000000	0.000300	-0.000526	-0.000136
07845	0.045332	0.154944	9.862680	0.007354	0.036306	0.051245	1.000000	0.000309	-0.000520	-0.000129
07846	0.013721	0.131030	9.906710	-0.024342	0.011751	0.094862	1.000000	0.000312	-0.000517	-0.000125
07847	0.035156	0.132721	9.845234	-0.002681	0.014090	0.033493	1.000000	0.000318	-0.000521	-0.000139
07848	0.050497	0.127923	9.893020	0.012428	0.008679	0.081277	1.000000	0.000315	-0.000522	-0.000138
07849	0.017785	0.120454	9.867252	-0.020222	0.001620	0.055295	1.000000	0.000309	-0.000524	-0.000128
07850	0.063497	0.139477	9.871031	0.025444	0.020663	0.059479	1.000000	0.000306	-0.000525	-0.000126
07851	0.047127	0.127413	9.893043	0.009027	0.008319	0.081281	1.000000	0.000312	-0.000520	-0.000131
07852	0.046025	0.127355	9.893049	0.007893	0.008194	0.081282	1.000000	0.000313	-0.000528	-0.000128
07853	0.029690	0.115382	9.915054	-0.008526	-0.004159	0.103078	1.000000	0.000324	-0.000520	-0.000129
07854	0.042405	0.143949	9.823272	0.004700	0.025457	0.011696	1.000000	0.000317	-0.000513	-0.000130
07855	0.042393	0.127085	9.893069	0.004491	0.007829	0.081284	1.000000	0.000317	-0.000512	-0.000137
07856	0.032680	0.153751	9.862749	-0.005125	0.034954	0.051251	1.000000	0.000308	-0.000516	-0.000138
07857	0.031448	0.153579	9.862756	-0.006260	0.034834	0.051251	1.000000	0.000312	-0.000502	-0.000152
07858	0.038889	0.126608	9.893089	0.001093	0.007457	0.081286	1.000000	0.000311	-0.000513	-0.000121
07859	0.014071	0.141303	9.884755	-0.023817	0.022335	0.073033	1.000000	0.000305	-0.000515	-0.000132
07860	0.036737	0.126086	9.893104	-0.001174	0.007212	0.081286	1.000000	0.000291	-0.000511	-0.000154
07861	0.019163	0.130568	9.845307	-0.018487	0.012350	0.033479	1.000000	0.000297	-0.000507	-0.000139
07862	0.049558	0.137801	9.871135	0.011850	0.019221	0.059508	1.000000	0.000294	-0.000508	-0.000138
07863	0.064499	0.100725	9.862015	0.026820	-0.017868	0.050000	1.000000	0.000310	-0.000506	-0.000138
07864	0.047302	0.137780	9.871146	0.009586	0.018980	0.059511	1.000000	0.000304	-0.000509	-0.000127
07865	0.030907	0.125552	9.893131	-0.006839	0.006596	0.081284	1.000000	0.000300	-0.000500	-0.000135
07866	0.044901	0.137364	9.871163	0.007320	0.018736	0.059513	1.000000	0.000297	-0.000501	-0.000135
07867	0.028648	0.125207	9.893142	-0.009106	0.006346	0.081282	1.000000	0.000298	-0.000509	-0.000132
07868	0.027586	0.125096	9.893147	-0.010240	0.006219	0.081281	1.000000	0.000298	-0.000508	-0.000119
07869	0.041637	0.136990	9.871183	0.003920	0.018374	0.059516	1.000000	0.000298	-0.000507	-0.000127
07870	0.009005	0.129413	9.845336	-0.028644	0.011212	0.033456	1.000000	0.000289	-0.000511	-0.000127
07871	0.024314	0.124544	9.893162	-0.013640	0.005849	0.081277	1.000000	0.000289	-0.000519	-0.000125
07872	0.030677	0.114234	9.853715	-0.007107	-0.003992	0.041735	1.000000	0.000289	-0.000509	-0.000122
07873	0.037161	0.136259	9.871211	-0.000611	0.017886	0.059517	1.000000	0.000283	-0.000512	-0.000112
07874	0.044702	0.109306	9.901553	0.006758	-0.009474	0.089563	1.000000	0.000293	-0.000514	-0.000115
07875	0.026421	0.163020	9.840882	-0.011377	0.044871	0.029471	1.000000	0.000293	-0.000522	-0.000113
07876	0.057676	0.121137	9.879609	0.019792	0.002580	0.067813	1.000000	0.000286	-0.000507	-0.000101
07877	0.040240	0.157921	9.888729	0.002461	0.039397	0.077305	1.000000	0.000279	-0.000509	-0.000111
07878	0.047670	0.098413	9.862134	0.009933	-0.019663	0.050028	1.000000	0.000273	-0.000511	-0.000121
07879	0.054188	0.120475	9.879637	0.016398	0.002224	0.067819	1.000000	0.000276	-0.000508	-0.000117
07880	0.044298	0.147238	9.849305	0.006763	0.029325	0.037772	1.000000	0.000275	-0.000498	-0.000114
07881	0.059413	0.142474	9.897152	0.021717	0.023987	0.085616	1.000000	0.000276	-0.000506	-0.000112
07882	0.026882	0.134918	9.871262	-0.010799	0.016769	0.059513	1.000000	0.000273	-0.000506	-0.000111
07883	0.049623	0.119896	9.879668	0.011878	0.001738	0.067826	1.000000	0.000266	-0.000508	-0.000121
07884	0.032368	0.156739	9.888776	-0.005502	0.038528	0.077307	1.000000	0.000267	-0.000516	-0.000119
07885	0.038875	0.146493	9.849339	0.001105	0.028716	0.037776	1.000000	0.000270	-0.000513	-0.000115
07886	0.053968	0.141737	9.897194	0.016037	0.023381	0.085628	1.000000	0.000267	-0.000514	-0.000114
07887	0.021364	0.134144	9.871286	-0.016461	0.016146	0.059507	1.000000	0.000267	-0.000512	-0.000121
07888	0.044041	0.119259	9.879702	0.006227	0.001124	0.067831	1.000000	0.000270	-0.000509	-0.000118
07889	0.058100	0.163565	9.914726	0.020166	0.045033	0.103436	1.000000	0.000264	-0.000512	-0.000108
07890	0.018010	0.133754	9.871298	-0.019856	0.015763	0.059501	1.000000	0.000269	-0.000518	-0.000095
07891	0.079766	0.116184	9.866214	0.041959	-0.001785	0.054444	1.000000	0.000267	-0.000507	-0.000112
07892	0.015615	0.133442	9.871307	-0.022121	0.015511	0.059497	1.000000	0.000260	-0.000510	-0.000122
07893	0.038248	0.118510	9.879736	0.000570	0.000514	0.067833	1.000000	0.000263	-0.000498	-0.000108
07894	0.052263	0.130569	9.857820	0.014749	0.012732	0.046116	1.000000	0.000270	-0.000502	-0.000102
07895	0.034917	0.167419	9.866913	-0.002706	0.049501	0.055583	1.000000	0.000261	-0.000506	-0.000104
07896	0.042521	0.140391	9.897269	0.004678	0.022163	0.085643	1.000000	0.000264	-0.000512	-0.000109
07897	0.017567	0.155058	9.888840	-0.020288	0.036901	0.077294	1.000000	0.000264	-0.000511	-0.000097
07898	0.064159	0.093082	9.848767	0.026571	-0.024627	0.036662	1.000000	0.000266	-0.000499	-0.000102
07899	0.038967	0.139982	9.897289	0.001266	0.021799	0.085644	1.000000	0.000254	-0.000505	-0.000096
07900	0.053124	0.151975	9.875385	0.015441	0.034035	0.063939	1.000000	0.000267	-0.000505	-0.000086
07901	0.014034	0.105467	9.901685	-0.023785	-0.012834	0.089533	1.000000	0.000261	-0.000508	-0.000096
07902	0.028119	0.117255	9.879785	-0.009609	-0.000599	0.067828	1.000000	0.000248	-0.000505	-0.000100
07903	0.042204	0.129208	9.857886	0.004572	0.011647	0.046128	1.000000	0.000257	-0.000507	-0.000104
07904	0.024775	0.166056	9.866966	-0.012947	0.048384	0.055580	1.000000	0.000248	-0.000511	-0.000105
07905	0.056124	0.124244	9.905782	0.018284	0.006230	0.094014	1.000000	0.000245	-0.000503	-0.000094
07906	0.046279	0.151022	9.875434	0.008621	0.033307	0.063950	1.000000	0.000254	-0.000505	-0.000098
07907	0.013632	0.175839	9.906406	-0.024236	0.057662	0.095091	1.000000	0.000255	-0.000513	-0.000096
07908	0.052897	0.123936	9.905803	0.014881	0.005862	0.094020	1.000000	0.000244	-0.000519	-0.000090
07909	0.011715	0.143114	9.849459	-0.026055	0.025724	0.037750	1.000000	0.000255	-0.000510	-0.000091
07910	0.019228	0.116274	9.879818	-0.018655	-0.001605	0.067815	1.000000	0.000256	-0.000518	-0.000089
07911	0.040885	0.150508	9.875466	0.002945	0.032697	0.063956	1.000000	0.000253	-0.000519	-0.000088
07912	0.048344	0.123452	9.905833	0.010342	0.005375	0.094026	1.000000	0.000246	-0.000512	-0.000089
07913	0.047184	0.123330	9.905840	0.009207	0.005257	0.094027	1.000000	0.000253	-0.000516	-0.000084
07914	0.006091	0.142517	9.849472	-0.031711	0.025084	0.037735	1.000000	0.000250	-0.000516	-0.000082
07915	0.052693	0.113041	9.866432	0.014866	-0.004626	0.054521	1.000000	0.000255	-0.000511	-0.000087
07916	0.019971	0.137845	9.897376	-0.018053	0.019677	0.085632	1.000000	0.000264	-0.000525	-0.000071
07917	0.034100	0.149941	9.875500	-0.003869	0.031960	0.063958	1.000000	0.000263	-0.000514	-0.000069
07918	0.056689	0.135063	9.883995	0.018854	0.017054	0.072360	1.000000	0.000256	-0.000508	-0.000068
07919	0.008967	0.115205	9.879845	-0.028829	-0.002740	0.067791	1.000000	0.000263	-0.000512	-0.000063
07920	0.015381	0.137410	9.897390	-0.022597	0.019171	0.085624	1.000000	0.000264	-0.000520	-0.000062
07921	0.053604	0.134834	9.884015	0.015451	0.016693	0.072366	1.000000	0.000268	-0.000535	-0.000058
07922	0.021306	0.127133	9.857980	-0.016901	0.009289	0.046117	1.000000	0.000266	-0.000535	-0.000058
07923	0.058854	0.156893	9.901576	0.020530	0.038496	0.090210	1.000000	0.000271	-0.000530	-0.000063
07924	0.057892	0.124451	9.844624	0.020031	0.006701	0.032871	1.000000	0.000269	-0.000510	-0.000071
07925	0.009646	0.136913	9.897404	-0.028275	0.018533	0.085611	1.000000	0.000272	-0.000516	-0.000077
07926	0.047620	0.134302	9.884053	0.009779	0.016081	0.072375	1.000000	0.000268	-0.000507	-0.000086
07927	0.037771	0.161022	9.853691	0.000099	0.043143	0.042297	1.000000	0.000275	-0.000511	-0.000081
07928	0.045237	0.134290	9.884064	0.007513	0.015840	0.072377	1.000000	0.000289	-0.000500	-0.000089
07929	0.036729	0.111990	9.866517	-0.000935	-0.006331	0.054531	1.000000	0.000283	-0.000511	-0.000090
07930	0.034418	0.160867	9.853705	-0.003304	0.042775	0.042298	1.000000	0.000280	-0.000512	-0.000088
07931	0.049767	0.123750	9.844677	0.012134	0.005867	0.032884	1.000000	0.000273	-0.000505	-0.000089
07932	0.025454	0.121578	9.905941	-0.012346	0.002906	0.094025	1.000000	0.000286	-0.000505	-0.000080
07933	0.039607	0.133682	9.884097	0.001847	0.015232	0.072381	1.000000	0.000277	-0.000509	-0.000082
07934	0.053739	0.145659	9.862257	0.016041	0.027558	0.050741	1.000000	0.000277	-0.000508	-0.000090
07935	0.052557	0.145563	9.862265	0.014908	0.027440	0.050743	1.000000	0.000280	-0.000504	-0.000086
07936	0.012199	0.147909	9.875582	-0.025435	0.029575	0.063933	1.000000	0.000283	-0.000501	-0.000082
07937	0.027552	0.110864	9.866559	-0.009956	-0.007320	0.054525	1.000000	0.000276	-0.000494	-0.000082
07938	0.025770	0.142982	9.923531	-0.011884	0.024208	0.111871	1.000000	0.000273	-0.000495	-0.000082
07939	0.071859	0.130453	9.870837	0.034265	0.012250	0.059206	1.000000	0.000281	-0.000508	-0.000068
07940	0.046913	0.144997	9.862302	0.009245	0.026830	0.050751	1.000000	0.000280	-0.000506	-0.000095
07941	0.023261	0.110413	9.866575	-0.014468	-0.007823	0.054520	1.000000	0.000284	-0.000512	-0.000082
07942	0.029503	0.132578	9.884147	-0.008354	0.014114	0.072379	1.000000	0.000281	-0.000512	-0.000081
07943	0.043603	0.144637	9.862323	0.005845	0.026468	0.050755	1.000000	0.000280	-0.000511	-0.000088
07944	0.027231	0.132233	9.884158	-0.010620	0.013865	0.072377	1.000000	0.000275	-0.000513	-0.000079
07945	0.018709	0.109787	9.866592	-0.018980	-0.008324	0.054511	1.000000	0.000276	-0.000500	-0.000085
07946	0.063980	0.129657	9.870901	0.026345	0.011419	0.059231	1.000000	0.000281	-0.000506	-0.000071
07947	0.007798	0.136493	9.836215	-0.029797	0.018585	0.024415	1.000000	0.000287	-0.000510	-0.000086
07948	0.053928	0.139516	9.910312	0.015956	0.020761	0.098719	1.000000	0.000275	-0.000516	-0.000080
07949	0.036830	0.143880	9.862361	-0.000950	0.025732	0.050759	1.000000	0.000284	-0.000509	-0.000074
07950	0.059606	0.129199	9.870935	0.021816	0.010941	0.059243	1.000000	0.000275	-0.000513	-0.000076
07951	0.036011	0.094432	9.875181	-0.001845	-0.023745	0.062982	1.000000	0.000272	-0.000514	-0.000076
07952	0.040647	0.165542	9.879962	0.002837	0.047431	0.068631	1.000000	0.000262	-0.000508	-0.000087
07953	0.041012	0.116342	9.892773	0.003085	-0.001918	0.080854	1.000000	0.000272	-0.000519	-0.000081
07954	0.024742	0.104047	9.914587	-0.013388	-0.014549	0.102457	1.000000	0.000269	-0.000520	-0.000080
07955	0.038770	0.116248	9.892783	0.000818	-0.002163	0.080854	1.000000	0.000280	-0.000510	-0.000102
07956	0.051447	0.177522	9.858179	0.013618	0.059452	0.047035	1.000000	0.000276	-0.000522	-0.000083
07957	0.012701	0.130523	9.884210	-0.025359	0.012229	0.072353	1.000000	0.000273	-0.000523	-0.000082
07958	0.042705	0.138160	9.910386	0.004573	0.019542	0.098733	1.000000	0.000276	-0.000519	-0.000079
07959	0.025774	0.142606	9.862415	-0.012286	0.024493	0.050754	1.000000	0.000280	-0.000534	-0.000076
07960	0.040695	0.138008	9.910396	0.002298	0.019294	0.098734	1.000000	0.000278	-0.000534	-0.000076
07961	0.023629	0.142372	9.862424	-0.014551	0.024241	0.050752	1.000000	0.000280	-0.000531	-0.000073
07962	0.046550	0.127687	9.871025	0.008234	0.009493	0.059265	1.000000	0.000273	-0.000545	-0.000065
07963	0.030241	0.115271	9.892824	-0.008240	-0.003156	0.080851	1.000000	0.000278	-0.000539	-0.000070
07964	0.028929	0.115374	9.892827	-0.009370	-0.003282	0.080850	1.000000	0.000296	-0.000526	-0.000067
07965	0.019009	0.142112	9.862437	-0.019080	0.023740	0.050745	1.000000	0.000287	-0.000530	-0.000070
07966	0.033794	0.137387	9.910431	-0.004528	0.018557	0.098735	1.000000	0.000283	-0.000531	-0.000068
07967	0.047957	0.149584	9.888650	0.009680	0.030976	0.077157	1.000000	0.000290	-0.000535	-0.000063
07968	0.031567	0.137274	9.910440	-0.007436	0.017570	0.098735	1.000000	0.000331	-0.000563	-0.000095
07969	0.062500	0.112745	9.879679	0.023607	-0.006689	0.067803	1.000000	0.000337	-0.000567	-0.000090
07970	0.030238	0.104769	9.853474	-0.008537	-0.014305	0.041376	1.000000	0.000327	-0.000562	-0.000101
07971	0.012272	0.141384	9.862458	-0.026509	0.022251	0.050731	1.000000	0.000333	-0.000565	-0.000116
07972	0.066421	0.134703	9.897303	0.027292	0.015038	0.085706	1.000000	0.000336	-0.000583	-0.000086
07973	0.041473	0.149082	9.888687	0.002225	0.029504	0.077166	1.000000	0.000336	-0.000581	-0.000094
07974	0.033132	0.126701	9.871091	-0.005977	0.007287	0.059268	1.000000	0.000341	-0.000575	-0.000098
07975	0.039146	0.148948	9.888699	-0.000049	0.029258	0.077167	1.000000	0.000342	-0.000583	-0.000096
07976	0.038086	0.148803	9.888705	-0.001186	0.029132	0.077167	1.000000	0.000339	-0.000583	-0.000095
07977	0.060908	0.134187	9.897346	0.021613	0.014444	0.085721	1.000000	0.000338	-0.000581	-0.000103
07978	0.035838	0.148559	9.888717	-0.003459	0.028884	0.077168	1.000000	0.000343	-0.000587	-0.000090
07979	0.027589	0.126096	9.871116	-0.011634	0.006667	0.059264	1.000000	0.000336	-0.000580	-0.000091
07980	0.034629	0.115915	9.831751	-0.004445	-0.002980	0.019807	1.000000	0.000337	-0.000588	-0.000088
07981	0.032443	0.148162	9.888735	-0.006870	0.028515	0.077167	1.000000	0.000342	-0.000582	-0.000093
07982	0.048220	0.111347	9.879775	0.008915	-0.008262	0.067826	1.000000	0.000343	-0.000590	-0.000093
07983	-0.000869	0.140035	9.862485	-0.040104	0.020709	0.050689	1.000000	0.000336	-0.000583	-0.000094
07984	0.052988	0.133383	9.897402	0.013666	0.013594	0.085736	1.000000	0.000346	-0.000584	-0.000097
07985	0.060140	0.123377	9.858042	0.020881	0.003964	0.046287	1.000000	0.000347	-0.000592	-0.000095
07986	0.019977	0.125404	9.871143	-0.019551	0.005782	0.059252	1.000000	0.000352	-0.000607	-0.000092
07987	0.058191	0.123296	9.858054	0.018623	0.003723	0.046291	1.000000	0.000357	-0.000601	-0.000097
07988	0.041584	0.110817	9.879811	0.002135	-0.008998	0.067829	1.000000	0.000350	-0.000585	-0.000088
07989	0.040351	0.110653	9.879818	0.001005	-0.009118	0.067829	1.000000	0.000353	-0.000591	-0.000095
07990	0.046318	0.132857	9.897442	0.006852	0.012863	0.085744	1.000000	0.000350	-0.000591	-0.000094
07991	0.053369	0.122633	9.858090	0.014103	0.003243	0.046299	1.000000	0.000340	-0.000586	-0.000086
07992	0.020034	0.146802	9.888788	-0.019374	0.027132	0.077154	1.000000	0.000341	-0.000593	-0.000083
07993	0.018988	0.146620	9.888793	-0.020511	0.027009	0.077152	1.000000	0.000335	-0.000595	-0.000094
07994	0.050173	0.122107	9.858113	0.010718	0.002880	0.046303	1.000000	0.000339	-0.000601	-0.000080
07995	0.056049	0.144285	9.875745	0.016538	0.024872	0.064226	1.000000	0.000332	-0.000594	-0.000081
07996	0.046584	0.154189	9.915111	0.006988	0.034240	0.103670	1.000000	0.000345	-0.000594	-0.000072
07997	0.031417	0.109374	9.879865	-0.008030	-0.010103	0.067825	1.000000	0.000328	-0.000592	-0.000088
07998	0.028519	0.158157	9.867086	-0.010832	0.038995	0.055624	1.000000	0.000328	-0.000590	-0.000097
07999	0.051418	0.143686	9.875779	0.011997	0.024387	0.064233	1.000000	0.000331	-0.000596	-0.000103
08000	0.050301	0.143627	9.875786	0.010861	0.024263	0.064235	1.000000	0.000334	-0.000592	-0.000100
08001	0.026808	0.108758	9.879885	-0.012553	-0.010603	0.067819	1.000000	0.000327	-0.000585	-0.000101
08002	0.023810	0.157658	9.867107	-0.015376	0.038494	0.055620	1.000000	0.000329	-0.000581	-0.000118
08003	0.046714	0.143201	9.875810	0.007458	0.023900	0.064239	1.000000	0.000330	-0.000588	-0.000116
08004	0.038763	0.120762	9.858181	-0.000576	0.001657	0.046309	1.000000	0.000331	-0.000596	-0.000114
08005	0.005366	0.144953	9.888834	-0.034150	0.025476	0.077119	1.000000	0.000331	-0.000595	-0.000102
08006	0.036516	0.120560	9.858192	-0.002832	0.001410	0.046309	1.000000	0.000335	-0.000591	-0.000099
08007	0.042389	0.142778	9.875835	0.002921	0.023409	0.064243	1.000000	0.000332	-0.000600	-0.000109
08008	0.026118	0.130269	9.897551	-0.013581	0.010632	0.085740	1.000000	0.000335	-0.000605	-0.000116
08009	0.033318	0.120290	9.858207	-0.006221	0.001041	0.046308	1.000000	0.000341	-0.000600	-0.000121
08010	0.039122	0.142603	9.875851	-0.000485	0.023038	0.064244	1.000000	0.000345	-0.000605	-0.000108
08011	0.022698	0.130050	9.897562	-0.016987	0.010258	0.085735	1.000000	0.000338	-0.000598	-0.000109
08012	0.045130	0.132450	9.836519	0.005759	0.013328	0.024816	1.000000	0.000351	-0.000598	-0.000101
08013	0.059626	0.127938	9.884593	0.020094	0.008235	0.072890	1.000000	0.000338	-0.000595	-0.000106
08014	0.034415	0.142003	9.875877	-0.005023	0.022542	0.064244	1.000000	0.000338	-0.000593	-0.000114
08015	0.033225	0.141903	9.875883	-0.006158	0.022421	0.064243	1.000000	0.000340	-0.000589	-0.000111
08016	0.016777	0.129361	9.897583	-0.022661	0.009621	0.085725	1.000000	0.000337	-0.000589	-0.000110
08017	0.030846	0.141701	9.875893	-0.008426	0.022173	0.064242	1.000000	0.000345	-0.000582	-0.000123
08018	0.044973	0.154120	9.854206	0.005811	0.034724	0.042764	1.000000	0.000350	-0.000587	-0.000110
08019	0.035498	0.163776	9.893554	-0.003879	0.044055	0.082187	1.000000	0.000331	-0.000588	-0.000117
08020	0.012145	0.128742	9.897598	-0.027198	0.009110	0.085714	1.000000	0.000336	-0.000582	-0.000123
08021	0.065567	0.139329	9.862974	0.026405	0.019953	0.051433	1.000000	0.000346	-0.000583	-0.000127
08022	0.025040	0.141115	9.875918	-0.014096	0.021544	0.064237	1.000000	0.000341	-0.000574	-0.000136
08023	0.040956	0.104337	9.867019	0.001971	-0.015111	0.054956	1.000000	0.000344	-0.000570	-0.000133
08024	0.061908	0.139028	9.863001	0.023005	0.019593	0.051442	1.000000	0.000344	-0.000568	-0.000141
08025	0.037140	0.136324	9.924021	-0.002093	0.016217	0.112326	1.000000	0.000339	-0.000579	-0.000143
08026	0.028832	0.130617	9.836604	-0.010037	0.011604	0.024814	1.000000	0.000340	-0.000566	-0.000149
08027	0.019124	0.140543	9.875940	-0.019769	0.020918	0.064229	1.000000	0.000353	-0.000566	-0.000142
08028	0.035204	0.103733	9.867047	-0.003667	-0.015729	0.054955	1.000000	0.000334	-0.000567	-0.000148
08029	0.047819	0.148118	9.902377	0.008727	0.028429	0.090868	1.000000	0.000332	-0.000576	-0.000138
08030	0.039870	0.125586	9.884723	0.000832	0.006163	0.072912	1.000000	0.000329	-0.000567	-0.000128
08031	0.029873	0.152135	9.854294	-0.008930	0.033125	0.042767	1.000000	0.000328	-0.000565	-0.000137
08032	0.037477	0.125262	9.884736	-0.001435	0.005918	0.072912	1.000000	0.000325	-0.000565	-0.000136
08033	0.043292	0.147358	9.902410	0.004171	0.027940	0.090873	1.000000	0.000314	-0.000580	-0.000140
08034	0.035573	0.124931	9.884747	-0.003700	0.005670	0.072911	1.000000	0.000331	-0.000587	-0.000131
08035	0.041101	0.147311	9.902420	0.001895	0.027693	0.090874	1.000000	0.000328	-0.000567	-0.000140
