// General information: 
//  MT Manager version: 2021.0.0 
//  XDA version: 2021.0.0 build 5908 rev 109668 built on 2021-04-19
// Device information: 
//  DeviceId: 00B47F0C
//  ProductCode: MTW2-3A7G6
//  Firmware Version: 4.6.0
//  Hardware Version: 2.0.0
// Device settings: 
//  Filter Profile: human(46.1)
//  Option Flags: Orientation Smoother Disabled, Position/Velocity Smoother Disabled, Continuous Zero Rotation Update Disabled, AHS Disabled, ICC Disabled
// Coordinate system: ENU
PacketCounter	Acc_X	Acc_Y	Acc_Z	FreeAcc_E	FreeAcc_N	FreeAcc_U	Quat_q0	Quat_q1	Quat_q2	Quat_q3
17883	-0.119853	0.012594	9.715264	-0.109910	-0.060097	-0.097483	0.999988	0.000810	-0.004863	0.000269
17884	-0.116913	0.041015	9.720565	-0.106855	-0.031598	-0.091971	0.999988	0.000808	-0.004860	0.000265
17885	-0.123986	0.036508	9.748666	-0.113963	-0.036341	-0.063898	0.999988	0.000812	-0.004868	0.000268
17886	-0.053439	0.036734	9.705189	-0.043575	-0.035843	-0.107446	0.999988	0.000812	-0.004867	0.000268
17887	-0.127234	0.007793	9.743361	-0.117236	-0.065040	-0.069414	0.999988	0.000810	-0.004865	0.000263
17888	-0.135230	0.078078	9.691404	-0.125354	0.005685	-0.120838	0.999988	0.000806	-0.004872	0.000273
17889	-0.089005	0.036305	9.726926	-0.079068	-0.036345	-0.085676	0.999988	0.000812	-0.004863	0.000270
17890	-0.142588	0.073572	9.719501	-0.132566	0.000842	-0.092766	0.999988	0.000817	-0.004862	0.000274
17891	-0.117555	0.040610	9.720559	-0.107591	-0.032201	-0.091981	0.999988	0.000821	-0.004870	0.000278
17892	-0.114528	0.069255	9.725862	-0.104535	-0.003705	-0.086467	0.999988	0.000828	-0.004859	0.000267
17893	-0.093403	0.060513	9.760326	-0.083367	-0.012795	-0.052091	0.999988	0.000832	-0.004868	0.000278
17894	-0.124842	0.036099	9.748657	-0.114925	-0.037145	-0.063913	0.999988	0.000829	-0.004873	0.000273
17895	-0.121020	0.011736	9.715251	-0.111258	-0.061199	-0.097505	0.999988	0.000826	-0.004880	0.000275
17896	-0.086479	0.064625	9.732227	-0.076753	-0.008442	-0.080168	0.999988	0.000832	-0.004877	0.000265
17897	-0.110983	0.044721	9.692455	-0.101364	-0.028149	-0.120065	0.999988	0.000834	-0.004886	0.000284
17898	-0.076347	0.097581	9.709433	-0.066861	0.024601	-0.102725	0.999988	0.000832	-0.004891	0.000278
17899	-0.114797	0.068747	9.725863	-0.105418	-0.004395	-0.086477	0.999988	0.000836	-0.004899	0.000282
17900	-0.073378	0.126048	9.714740	-0.063938	0.052996	-0.097207	0.999988	0.000833	-0.004882	0.000294
17901	-0.072852	0.073262	9.676025	-0.063435	0.000346	-0.136319	0.999988	0.000853	-0.004899	0.000298
17902	-0.086769	0.064455	9.732226	-0.077495	-0.009043	-0.080174	0.999988	0.000849	-0.004905	0.000301
17903	-0.079764	0.068721	9.704127	-0.070659	-0.004497	-0.108248	0.999988	0.000846	-0.004912	0.000303
17904	-0.115110	0.068449	9.725861	-0.106018	-0.004894	-0.086483	0.999988	0.000843	-0.004910	0.000306
17905	-0.086989	0.063974	9.732227	-0.077880	-0.009344	-0.080178	0.999988	0.000840	-0.004909	0.000310
17906	-0.118591	0.039592	9.720551	-0.109433	-0.033698	-0.092007	0.999988	0.000847	-0.004907	0.000297
17907	-0.090408	0.035129	9.726917	-0.081295	-0.038148	-0.085701	0.999988	0.000836	-0.004913	0.000299
17908	-0.083572	0.039274	9.698817	-0.074425	-0.033603	-0.113774	0.999988	0.000828	-0.004902	0.000287
17909	-0.115741	0.067719	9.725859	-0.106651	-0.005404	-0.086490	0.999988	0.000838	-0.004918	0.000298
17910	-0.084200	0.092006	9.737537	-0.075312	0.018742	-0.074661	0.999987	0.000835	-0.004924	0.000300
17911	-0.077260	0.096352	9.709438	-0.068473	0.023289	-0.102733	0.999987	0.000840	-0.004924	0.000304
17912	-0.080582	0.067634	9.704127	-0.071751	-0.005403	-0.108256	0.999987	0.000837	-0.004922	0.000308
17913	-0.077480	0.096118	9.709439	-0.068721	0.023093	-0.102734	0.999987	0.000834	-0.004929	0.000303
17914	-0.094837	0.058476	9.760325	-0.085955	-0.014897	-0.052116	0.999988	0.000832	-0.004918	0.000299
17915	-0.088138	0.062861	9.732224	-0.079114	-0.010349	-0.080189	0.999988	0.000839	-0.004910	0.000289
17916	-0.084458	0.038667	9.698812	-0.075413	-0.034395	-0.113785	0.999988	0.000844	-0.004916	0.000292
17917	-0.088279	0.062778	9.732223	-0.079364	-0.010548	-0.080191	0.999987	0.000840	-0.004923	0.000295
17918	-0.116546	0.066936	9.725855	-0.107751	-0.006293	-0.086503	0.999987	0.000837	-0.004929	0.000297
17919	-0.060084	0.058130	9.738594	-0.051338	-0.015100	-0.073882	0.999987	0.000834	-0.004928	0.000301
17920	-0.109757	0.071137	9.697755	-0.101018	-0.001843	-0.114576	0.999987	0.000839	-0.004927	0.000297
17921	-0.057118	0.086687	9.743906	-0.048418	0.013294	-0.068357	0.999987	0.000844	-0.004934	0.000300
17922	-0.113639	0.095235	9.731167	-0.105074	0.021902	-0.080983	0.999987	0.000840	-0.004940	0.000310
17923	-0.088703	0.062202	9.732223	-0.080107	-0.011148	-0.080198	0.999987	0.000846	-0.004932	0.000300
17924	-0.088851	0.062211	9.732221	-0.080213	-0.011247	-0.080199	0.999987	0.000851	-0.004938	0.000303
17925	-0.117043	0.066449	9.725852	-0.108627	-0.006992	-0.086513	0.999987	0.000848	-0.004952	0.000298
17926	-0.098982	0.028906	9.755006	-0.090613	-0.044692	-0.057659	0.999987	0.000846	-0.004949	0.000293
17927	-0.095804	0.057467	9.760321	-0.087582	-0.016197	-0.052133	0.999987	0.000850	-0.004964	0.000289
17928	-0.117140	0.066157	9.725853	-0.108985	-0.007288	-0.086518	0.999987	0.000849	-0.004954	0.000285
17929	-0.117220	0.066088	9.725852	-0.109124	-0.007388	-0.086519	0.999987	0.000854	-0.004969	0.000280
17930	-0.120334	0.037375	9.720538	-0.112402	-0.036086	-0.092049	0.999987	0.000851	-0.004974	0.000274
17931	-0.124397	0.061437	9.753949	-0.116356	-0.012243	-0.058453	0.999987	0.000850	-0.004957	0.000272
17932	-0.117631	0.065673	9.725850	-0.109473	-0.007691	-0.086523	0.999987	0.000841	-0.004961	0.000258
17933	-0.127751	0.032515	9.748632	-0.119771	-0.041040	-0.063987	0.999987	0.000852	-0.004977	0.000269
17934	-0.089197	0.061315	9.732224	-0.081444	-0.012248	-0.080210	0.999987	0.000851	-0.004976	0.000269
17935	-0.089283	0.061171	9.732224	-0.081444	-0.012248	-0.080210	0.999987	0.000842	-0.004974	0.000264
17936	-0.082429	0.065470	9.704127	-0.074560	-0.007692	-0.108279	0.999987	0.000847	-0.004972	0.000260
17937	-0.117783	0.065280	9.725851	-0.109961	-0.008088	-0.086529	0.999987	0.000844	-0.004979	0.000263
17938	-0.114032	0.041015	9.692436	-0.106250	-0.032126	-0.120130	0.999987	0.000850	-0.004976	0.000252
17939	-0.096684	0.056449	9.760319	-0.088921	-0.017300	-0.052147	0.999987	0.000855	-0.004984	0.000255
17940	-0.089818	0.060732	9.732222	-0.082036	-0.012745	-0.080216	0.999987	0.000845	-0.004973	0.000259
17941	-0.118175	0.064841	9.725849	-0.110449	-0.008486	-0.086535	0.999987	0.000843	-0.004987	0.000245
17942	-0.089853	0.060453	9.732223	-0.082281	-0.012942	-0.080218	0.999987	0.000849	-0.004992	0.000234
17943	-0.115022	0.093351	9.731169	-0.107520	0.019912	-0.081005	0.999987	0.000847	-0.004991	0.000229
17944	-0.086181	0.036120	9.698807	-0.078713	-0.037081	-0.113821	0.999987	0.000851	-0.004997	0.000232
17945	-0.090154	0.060231	9.732222	-0.082670	-0.013243	-0.080222	0.999987	0.000848	-0.004989	0.000237
17946	-0.083292	0.064524	9.704126	-0.075785	-0.008687	-0.108290	0.999987	0.000846	-0.004994	0.000231
17947	-0.087122	0.088469	9.737544	-0.079742	0.015151	-0.074690	0.999987	0.000833	-0.005002	0.000248
17948	-0.087035	0.088366	9.737546	-0.079850	0.015049	-0.074690	0.999987	0.000846	-0.005016	0.000243
17949	-0.080087	0.092803	9.709450	-0.072997	0.019605	-0.102758	0.999987	0.000843	-0.005008	0.000248
17950	-0.111764	0.068356	9.697753	-0.104553	-0.004725	-0.114615	0.999987	0.000841	-0.005005	0.000243
17951	-0.097600	0.055139	9.760317	-0.090407	-0.018502	-0.052163	0.999987	0.000853	-0.005013	0.000247
17952	-0.090639	0.059560	9.732221	-0.083519	-0.013942	-0.080230	0.999987	0.000849	-0.005012	0.000258
17953	-0.083770	0.063928	9.704126	-0.076664	-0.009385	-0.108297	0.999987	0.000856	-0.005011	0.000247
17954	-0.119274	0.063747	9.725843	-0.112035	-0.009781	-0.086554	0.999987	0.000852	-0.005002	0.000258
17955	-0.091145	0.059326	9.732218	-0.083903	-0.014246	-0.080234	0.999987	0.000857	-0.005009	0.000262
17956	-0.119558	0.063665	9.725840	-0.112283	-0.009981	-0.086557	0.999987	0.000863	-0.004999	0.000251
17957	-0.119707	0.063674	9.725838	-0.112422	-0.010082	-0.086559	0.999987	0.000868	-0.005007	0.000254
17958	-0.091510	0.059256	9.732215	-0.084257	-0.014548	-0.080237	0.999987	0.000865	-0.005005	0.000257
17959	-0.116083	0.039316	9.692418	-0.108846	-0.034217	-0.120166	0.999987	0.000870	-0.005005	0.000261
17960	-0.063467	0.054689	9.738592	-0.056236	-0.019114	-0.073916	0.999987	0.000860	-0.005010	0.000255
17961	-0.095731	0.083079	9.765632	-0.088468	0.009085	-0.046637	0.999987	0.000867	-0.005001	0.000245
17962	-0.092045	0.058817	9.732213	-0.084759	-0.014949	-0.080242	0.999987	0.000862	-0.005007	0.000254
17963	-0.099214	0.054134	9.760306	-0.091897	-0.019709	-0.052179	0.999987	0.000852	-0.004999	0.000258
17964	-0.120616	0.062772	9.725833	-0.113281	-0.010777	-0.086570	0.999987	0.000858	-0.005004	0.000246
17965	-0.113525	0.067138	9.697741	-0.106421	-0.006217	-0.114636	0.999987	0.000854	-0.005019	0.000248
17966	-0.120547	0.062612	9.725835	-0.113527	-0.010973	-0.086573	0.999987	0.000860	-0.005016	0.000245
17967	-0.092425	0.058278	9.732212	-0.085396	-0.015441	-0.080248	0.999987	0.000864	-0.005017	0.000249
17968	-0.127917	0.058156	9.753923	-0.120777	-0.015835	-0.058512	0.999987	0.000869	-0.005008	0.000261
17969	-0.092766	0.058175	9.732210	-0.085645	-0.015643	-0.080251	0.999987	0.000865	-0.005015	0.000263
17970	-0.121108	0.062441	9.725829	-0.114019	-0.011373	-0.086579	0.999987	0.000872	-0.005013	0.000252
17971	-0.092845	0.058023	9.732210	-0.085888	-0.015842	-0.080253	0.999987	0.000867	-0.005028	0.000262
17972	-0.121169	0.062265	9.725829	-0.114268	-0.011576	-0.086582	0.999987	0.000872	-0.005019	0.000266
17973	-0.093134	0.057785	9.732209	-0.086138	-0.016046	-0.080256	0.999987	0.000863	-0.005017	0.000261
17974	-0.124735	0.033335	9.720497	-0.117687	-0.040362	-0.092129	0.999987	0.000866	-0.005016	0.000273
17975	-0.093424	0.057546	9.732207	-0.086378	-0.016241	-0.080258	0.999987	0.000864	-0.005015	0.000269
17976	-0.118575	0.090445	9.731154	-0.111572	0.016621	-0.081044	0.999987	0.000864	-0.005013	0.000268
17977	-0.096757	0.028833	9.726877	-0.089661	-0.044932	-0.085804	0.999987	0.000868	-0.005014	0.000280
17978	-0.093782	0.057386	9.732205	-0.086586	-0.016441	-0.080261	0.999987	0.000867	-0.005004	0.000276
17979	-0.086915	0.061775	9.704112	-0.079721	-0.011878	-0.108324	0.999987	0.000873	-0.005010	0.000264
17980	-0.122192	0.061651	9.725820	-0.115097	-0.012273	-0.086593	0.999987	0.000875	-0.005017	0.000282
17981	-0.100945	0.052767	9.760296	-0.093973	-0.021409	-0.052202	0.999987	0.000873	-0.005024	0.000277
17982	-0.086901	0.061512	9.704114	-0.080067	-0.012177	-0.108328	0.999987	0.000870	-0.005029	0.000273
17983	-0.094008	0.056913	9.732205	-0.087212	-0.016942	-0.080267	0.999987	0.000867	-0.005028	0.000276
17984	-0.119224	0.089728	9.731153	-0.112403	0.015923	-0.081053	0.999987	0.000865	-0.005026	0.000279
17985	-0.097428	0.027975	9.726873	-0.090635	-0.045732	-0.085816	0.999987	0.000862	-0.005033	0.000274
17986	-0.087279	0.060975	9.704114	-0.080550	-0.012573	-0.108332	0.999987	0.000867	-0.005031	0.000278
17987	-0.094308	0.056445	9.732205	-0.087696	-0.017339	-0.080272	0.999987	0.000864	-0.005045	0.000273
17988	-0.066108	0.052008	9.738590	-0.059537	-0.021810	-0.073941	0.999987	0.000867	-0.005037	0.000293
17989	-0.115742	0.065059	9.697729	-0.109204	-0.008497	-0.114668	0.999987	0.000865	-0.005043	0.000280
17990	-0.063141	0.080328	9.743924	-0.056599	0.006584	-0.068394	0.999987	0.000854	-0.005041	0.000291
17991	-0.122999	0.060221	9.725819	-0.116455	-0.013358	-0.086611	0.999987	0.000859	-0.005041	0.000295
17992	-0.091685	0.084424	9.737538	-0.085111	0.010762	-0.074729	0.999987	0.000855	-0.005039	0.000298
17993	-0.095115	0.055742	9.732201	-0.088432	-0.017929	-0.080280	0.999987	0.000863	-0.005030	0.000280
17994	-0.084955	0.088817	9.709446	-0.078347	0.015224	-0.102792	0.999987	0.000866	-0.005045	0.000297
17995	-0.091334	0.031460	9.698776	-0.084850	-0.042056	-0.113893	0.999987	0.000864	-0.005044	0.000293
17996	-0.116546	0.064442	9.697723	-0.110040	-0.009191	-0.114679	0.999987	0.000877	-0.005042	0.000290
17997	-0.088354	0.060093	9.704109	-0.081911	-0.013668	-0.108345	0.999987	0.000873	-0.005049	0.000292
17998	-0.095380	0.055553	9.732200	-0.089030	-0.018437	-0.080286	0.999987	0.000878	-0.005055	0.000295
17999	-0.088409	0.059990	9.704109	-0.082157	-0.013869	-0.108347	0.999987	0.000883	-0.005056	0.000299
18000	-0.096142	0.108253	9.770961	-0.089932	0.033871	-0.041126	0.999987	0.000878	-0.005062	0.000308
18001	-0.095571	0.055277	9.732200	-0.089426	-0.018740	-0.080290	0.999987	0.000876	-0.005062	0.000312
18002	-0.085418	0.088204	9.709447	-0.079333	0.014416	-0.102798	0.999987	0.000873	-0.005067	0.000306
18003	-0.095723	0.054965	9.732200	-0.089669	-0.018942	-0.080293	0.999987	0.000869	-0.005067	0.000317
18004	-0.091876	0.030771	9.698773	-0.085943	-0.042964	-0.113906	0.999987	0.000882	-0.005080	0.000312
18005	-0.092592	0.083507	9.737538	-0.086728	0.009445	-0.074742	0.999987	0.000873	-0.005071	0.000308
18006	-0.088990	0.059195	9.704109	-0.083005	-0.014575	-0.108356	0.999987	0.000878	-0.005069	0.000304
18007	-0.089138	0.059203	9.704108	-0.083143	-0.014675	-0.108357	0.999987	0.000884	-0.005069	0.000301
18008	-0.089138	0.059121	9.704108	-0.083243	-0.014781	-0.108358	0.999987	0.000880	-0.005081	0.000302
18009	-0.096104	0.054509	9.732199	-0.090398	-0.019551	-0.080301	0.999987	0.000878	-0.005088	0.000297
18010	-0.096166	0.054414	9.732199	-0.090501	-0.019648	-0.080302	0.999987	0.000881	-0.005088	0.000316
18011	-0.121360	0.087302	9.731148	-0.115720	0.013221	-0.081088	0.999987	0.000879	-0.005086	0.000312
18012	-0.096399	0.054114	9.732198	-0.090749	-0.019847	-0.080305	0.999987	0.000870	-0.005090	0.000298
18013	-0.093279	0.082672	9.737538	-0.087702	0.008641	-0.074750	0.999987	0.000882	-0.005091	0.000303
18014	-0.064446	0.025589	9.705157	-0.058902	-0.048346	-0.107581	0.999987	0.000882	-0.005090	0.000303
18015	-0.089578	0.058490	9.704108	-0.083981	-0.015376	-0.108365	0.999987	0.000879	-0.005089	0.000306
18016	-0.117983	0.062686	9.697717	-0.112348	-0.011094	-0.114707	0.999987	0.000876	-0.005087	0.000309
18017	-0.089792	0.058166	9.704108	-0.084222	-0.015577	-0.108368	0.999987	0.000872	-0.005095	0.000319
18018	-0.096904	0.053633	9.732196	-0.091349	-0.020350	-0.080312	0.999987	0.000878	-0.005092	0.000307
18019	-0.086824	0.086658	9.709449	-0.081282	0.012810	-0.102812	0.999987	0.000876	-0.005091	0.000303
18020	-0.108202	0.095326	9.674970	-0.102631	0.021767	-0.137212	0.999987	0.000874	-0.005088	0.000299
18021	-0.090339	0.057826	9.704105	-0.084712	-0.015977	-0.108373	0.999987	0.000880	-0.005088	0.000295
18022	-0.094183	0.081924	9.737536	-0.088652	0.007838	-0.074758	0.999987	0.000877	-0.005100	0.000289
18023	-0.097401	0.053075	9.732194	-0.091978	-0.020850	-0.080319	0.999987	0.000868	-0.005098	0.000284
18024	-0.090446	0.057306	9.704107	-0.085069	-0.016271	-0.108376	0.999987	0.000864	-0.005104	0.000287
18025	-0.125829	0.057059	9.725802	-0.120493	-0.016660	-0.086665	0.999987	0.000863	-0.005103	0.000275
18026	-0.090758	0.057019	9.704106	-0.085313	-0.016471	-0.108379	0.999987	0.000859	-0.005093	0.000286
18027	-0.097935	0.052471	9.732192	-0.092474	-0.021245	-0.080324	0.999987	0.000864	-0.005101	0.000290
18028	-0.091053	0.056790	9.704104	-0.085557	-0.016671	-0.108381	0.999987	0.000855	-0.005090	0.000277
18029	-0.119464	0.060997	9.697710	-0.113959	-0.012385	-0.114727	0.999987	0.000859	-0.005098	0.000288
18030	-0.066765	0.076504	9.743930	-0.061371	0.002659	-0.068421	0.999987	0.000870	-0.005105	0.000293
18031	-0.095090	0.080855	9.737536	-0.089774	0.006945	-0.074768	0.999987	0.000868	-0.005103	0.000289
18032	-0.126710	0.056445	9.725794	-0.121328	-0.017353	-0.086676	0.999987	0.000866	-0.005101	0.000284
18033	-0.091557	0.056392	9.704102	-0.086179	-0.017165	-0.108388	0.999987	0.000863	-0.005101	0.000295
18034	-0.119961	0.060675	9.697706	-0.114544	-0.012876	-0.114735	0.999987	0.000869	-0.005098	0.000284
18035	-0.088576	0.084948	9.709448	-0.083231	0.011222	-0.102827	0.999987	0.000873	-0.005106	0.000287
18036	-0.098971	0.051708	9.732185	-0.093549	-0.022141	-0.080336	0.999987	0.000863	-0.005095	0.000290
18037	-0.092153	0.056023	9.704098	-0.086662	-0.017565	-0.108393	0.999987	0.000869	-0.005095	0.000287
18038	-0.099273	0.051568	9.732183	-0.093795	-0.022338	-0.080339	0.999987	0.000869	-0.005093	0.000287
18039	-0.078137	0.042755	9.766664	-0.072560	-0.031404	-0.045937	0.999987	0.000874	-0.005092	0.000283
18040	-0.127677	0.055934	9.725784	-0.122155	-0.018045	-0.086688	0.999987	0.000874	-0.005090	0.000284
18041	-0.092529	0.055971	9.704095	-0.086866	-0.017758	-0.108395	0.999987	0.000873	-0.005082	0.000280
18042	-0.099798	0.051441	9.732178	-0.094002	-0.022529	-0.080342	0.999987	0.000877	-0.005080	0.000285
18043	-0.096743	0.079993	9.737527	-0.090951	0.005956	-0.074778	0.999987	0.000875	-0.005079	0.000280
18044	-0.089843	0.084461	9.709441	-0.084027	0.010538	-0.102833	0.999987	0.000888	-0.005077	0.000278
18045	-0.128424	0.055656	9.725776	-0.122647	-0.018435	-0.086695	0.999987	0.000877	-0.005084	0.000280
18046	-0.121455	0.059965	9.697692	-0.115728	-0.013861	-0.114750	0.999987	0.000883	-0.005082	0.000275
18047	-0.093353	0.055541	9.704090	-0.087605	-0.018352	-0.108402	0.999987	0.000881	-0.005081	0.000271
18048	-0.100550	0.051006	9.732173	-0.094740	-0.023132	-0.080350	0.999987	0.000886	-0.005079	0.000274
18049	-0.093729	0.055406	9.704087	-0.087849	-0.018554	-0.108405	0.999987	0.000885	-0.005070	0.000263
18050	-0.122062	0.059532	9.697687	-0.116220	-0.014256	-0.114757	0.999987	0.000872	-0.005084	0.000280
18051	-0.069472	0.074815	9.743925	-0.063676	0.000766	-0.068436	0.999987	0.000878	-0.005075	0.000269
18052	-0.098110	0.079131	9.737520	-0.092038	0.005059	-0.074788	0.999987	0.000877	-0.005057	0.000266
18053	-0.108509	0.045961	9.760249	-0.102401	-0.028307	-0.052305	0.999987	0.000880	-0.005073	0.000277
18054	-0.094317	0.054783	9.704085	-0.088438	-0.019049	-0.108411	0.999987	0.000877	-0.005078	0.000279
18055	-0.101443	0.050160	9.732168	-0.095610	-0.023829	-0.080360	0.999987	0.000874	-0.005078	0.000282
18056	-0.122803	0.058764	9.697682	-0.116935	-0.014855	-0.114766	0.999987	0.000865	-0.005074	0.000277
18057	-0.101682	0.049786	9.732167	-0.095847	-0.024030	-0.080363	0.999987	0.000869	-0.005082	0.000280
18058	-0.098686	0.078407	9.737520	-0.092755	0.004457	-0.074794	0.999987	0.000874	-0.005065	0.000286
18059	-0.102103	0.049778	9.732163	-0.096087	-0.024228	-0.080366	0.999987	0.000879	-0.005073	0.000289
18060	-0.123313	0.058458	9.697677	-0.117416	-0.015250	-0.114773	0.999987	0.000869	-0.005076	0.000276
18061	-0.073867	0.045193	9.738568	-0.068071	-0.028823	-0.074015	0.999987	0.000881	-0.005085	0.000280
18062	-0.098982	0.078177	9.737519	-0.093248	0.004065	-0.074799	0.999987	0.000879	-0.005082	0.000276
18063	-0.092006	0.082489	9.709437	-0.086351	0.008647	-0.102851	0.999987	0.000875	-0.005089	0.000279
18064	-0.095292	0.053713	9.704081	-0.089654	-0.020037	-0.108425	0.999987	0.000873	-0.005087	0.000274
18065	-0.102347	0.049166	9.732163	-0.096829	-0.024820	-0.080375	0.999987	0.000877	-0.005102	0.000276
18066	-0.102421	0.049088	9.732163	-0.096935	-0.024918	-0.080376	0.999987	0.000876	-0.005092	0.000273
18067	-0.092391	0.082042	9.709438	-0.086842	0.008248	-0.102855	0.999987	0.000874	-0.005091	0.000268
18068	-0.067482	0.049045	9.710484	-0.061883	-0.024831	-0.102074	0.999987	0.000885	-0.005090	0.000281
18069	-0.131112	0.053224	9.725754	-0.125577	-0.020819	-0.086737	0.999987	0.000875	-0.005096	0.000275
18070	-0.102950	0.048641	9.732160	-0.097422	-0.025316	-0.080382	0.999987	0.000873	-0.005093	0.000270
18071	-0.092758	0.081571	9.709438	-0.087327	0.007851	-0.102859	0.999987	0.000869	-0.005101	0.000281
18072	-0.103097	0.048320	9.732160	-0.097667	-0.025514	-0.080385	0.999987	0.000867	-0.005098	0.000276
18073	-0.092996	0.081280	9.709438	-0.087570	0.007654	-0.102862	0.999987	0.000865	-0.005097	0.000264
18074	-0.096296	0.052522	9.704078	-0.090871	-0.021028	-0.108438	0.999987	0.000863	-0.005102	0.000259
18075	-0.121488	0.085438	9.703030	-0.116072	0.011855	-0.109222	0.999987	0.000868	-0.005094	0.000264
18076	-0.068499	0.047950	9.710482	-0.062859	-0.025625	-0.102082	0.999987	0.000860	-0.005083	0.000252
18077	-0.103817	0.047857	9.732154	-0.098297	-0.026010	-0.080393	0.999987	0.000879	-0.005106	0.000248
18078	-0.096592	0.052456	9.704075	-0.091354	-0.021423	-0.108443	0.999987	0.000883	-0.005112	0.000251
18079	-0.100511	0.076607	9.737516	-0.095339	0.002374	-0.074818	0.999987	0.000889	-0.005111	0.000248
18080	-0.096740	0.052383	9.704074	-0.091595	-0.021624	-0.108446	0.999986	0.000887	-0.005116	0.000242
18081	-0.093543	0.080858	9.709436	-0.088536	0.006859	-0.102870	0.999986	0.000884	-0.005123	0.000237
18082	-0.072436	0.071796	9.743926	-0.067426	-0.002326	-0.068461	0.999986	0.000873	-0.005120	0.000240
18083	-0.118089	0.060835	9.669586	-0.113189	-0.012832	-0.142860	0.999986	0.000893	-0.005129	0.000245
18084	-0.075769	0.043230	9.738562	-0.070867	-0.031107	-0.074042	0.999986	0.000891	-0.005126	0.000241
18085	-0.093905	0.080624	9.709435	-0.089020	0.006465	-0.102874	0.999986	0.000896	-0.005125	0.000237
18086	-0.097199	0.051858	9.704072	-0.092320	-0.022214	-0.108454	0.999986	0.000886	-0.005129	0.000232
18087	-0.097278	0.051707	9.704072	-0.092459	-0.022314	-0.108456	0.999986	0.000891	-0.005130	0.000236
18088	-0.091001	0.108870	9.714799	-0.086163	0.034758	-0.097297	0.999986	0.000888	-0.005127	0.000240
18089	-0.104481	0.046908	9.732152	-0.099744	-0.027195	-0.080411	0.999986	0.000875	-0.005142	0.000248
18090	-0.101338	0.075444	9.737516	-0.096654	0.001293	-0.074831	0.999986	0.000889	-0.005133	0.000247
18091	-0.094425	0.080005	9.709435	-0.089746	0.005881	-0.102880	0.999986	0.000895	-0.005139	0.000235
18092	-0.104795	0.046703	9.732150	-0.100095	-0.027485	-0.080415	0.999986	0.000877	-0.005135	0.000229
18093	-0.080476	0.066248	9.772005	-0.075826	-0.008098	-0.040424	0.999986	0.000881	-0.005144	0.000240
18094	-0.090808	0.055236	9.675993	-0.086250	-0.018306	-0.136513	0.999986	0.000869	-0.005142	0.000250
18095	-0.105003	0.046124	9.732150	-0.100485	-0.027785	-0.080420	0.999986	0.000874	-0.005150	0.000253
18096	-0.101784	0.074654	9.737518	-0.097390	0.000694	-0.074838	0.999986	0.000870	-0.005155	0.000255
18097	-0.094719	0.078963	9.709441	-0.090480	0.005284	-0.102887	0.999986	0.000867	-0.005162	0.000257
18098	-0.090946	0.054745	9.675994	-0.086731	-0.018710	-0.136518	0.999986	0.000874	-0.005159	0.000246
18099	-0.101999	0.074494	9.737517	-0.097769	0.000391	-0.074842	0.999986	0.000885	-0.005161	0.000258
18100	-0.130311	0.078773	9.731105	-0.126125	0.004700	-0.081209	0.999986	0.000874	-0.005165	0.000260
18101	-0.105359	0.045635	9.732149	-0.101209	-0.028389	-0.080429	0.999986	0.000881	-0.005164	0.000249
18102	-0.091376	0.054590	9.675991	-0.087211	-0.019111	-0.136523	0.999986	0.000885	-0.005163	0.000252
18103	-0.067034	0.074342	9.715849	-0.062945	0.000270	-0.096526	0.999986	0.000889	-0.005171	0.000263
18104	-0.098554	0.050075	9.704068	-0.094507	-0.023998	-0.108480	0.999986	0.000893	-0.005169	0.000267
18105	-0.102622	0.074227	9.737512	-0.098496	-0.000209	-0.074850	0.999986	0.000899	-0.005161	0.000264
18106	-0.127184	0.054242	9.697652	-0.123000	-0.019786	-0.114850	0.999986	0.000882	-0.005165	0.000258
18107	-0.070696	0.045261	9.710480	-0.066629	-0.028706	-0.102116	0.999986	0.000886	-0.005172	0.000261
18108	-0.102712	0.073845	9.737514	-0.098838	-0.000507	-0.074853	0.999986	0.000898	-0.005186	0.000256
18109	-0.102719	0.073853	9.737514	-0.098977	-0.000607	-0.074854	0.999986	0.000897	-0.005184	0.000245
18110	-0.074624	0.069411	9.743927	-0.070823	-0.005117	-0.068487	0.999986	0.000902	-0.005182	0.000249
18111	-0.124128	0.082560	9.703022	-0.120415	0.008297	-0.109271	0.999986	0.000899	-0.005189	0.000244
18112	-0.085060	0.036085	9.766633	-0.081326	-0.038589	-0.046032	0.999986	0.000896	-0.005187	0.000247
18113	-0.096026	0.078028	9.709435	-0.092406	0.003688	-0.102904	0.999986	0.000909	-0.005195	0.000243
18114	-0.099388	0.049252	9.704064	-0.095705	-0.024989	-0.108494	0.999986	0.000890	-0.005184	0.000253
18115	-0.099461	0.049092	9.704064	-0.095843	-0.025089	-0.108495	0.999986	0.000903	-0.005199	0.000249
18116	-0.099535	0.049014	9.704063	-0.095949	-0.025191	-0.108497	0.999986	0.000893	-0.005189	0.000252
18117	-0.099688	0.048867	9.704063	-0.096087	-0.025291	-0.108498	0.999986	0.000893	-0.005189	0.000252
18118	-0.106758	0.044309	9.732139	-0.103107	-0.029980	-0.080454	0.999986	0.000889	-0.005194	0.000254
18119	-0.071433	0.044316	9.710479	-0.067936	-0.029799	-0.102128	0.999986	0.000894	-0.005202	0.000258
18120	-0.096606	0.077232	9.709436	-0.093094	0.003092	-0.102910	0.999986	0.000891	-0.005192	0.000261
18121	-0.128218	0.052837	9.697646	-0.124689	-0.021173	-0.114875	0.999986	0.000888	-0.005199	0.000264
18122	-0.075569	0.068211	9.743928	-0.072139	-0.006209	-0.068497	0.999986	0.000900	-0.005205	0.000261
18123	-0.096747	0.077150	9.709435	-0.093471	0.002800	-0.102914	0.999986	0.000906	-0.005212	0.000249
18124	-0.107270	0.044001	9.732135	-0.103843	-0.030575	-0.080464	0.999986	0.000905	-0.005194	0.000246
18125	-0.125456	0.081253	9.703016	-0.121971	0.007015	-0.109289	0.999986	0.000893	-0.005201	0.000255
18126	-0.072251	0.043712	9.710475	-0.068773	-0.030497	-0.102136	0.999986	0.000899	-0.005199	0.000251
18127	-0.104502	0.072160	9.737508	-0.101019	-0.002299	-0.074876	0.999986	0.000896	-0.005198	0.000254
18128	-0.100800	0.047872	9.704056	-0.097262	-0.026280	-0.108513	0.999986	0.000894	-0.005195	0.000250
18129	-0.107977	0.043192	9.732131	-0.104462	-0.031077	-0.080472	0.999986	0.000886	-0.005200	0.000229
18130	-0.097937	0.076016	9.709432	-0.094299	0.002098	-0.102922	0.999986	0.000876	-0.005182	0.000232
18131	-0.108474	0.042634	9.732128	-0.104705	-0.031278	-0.080475	0.999986	0.000867	-0.005187	0.000219
18132	-0.098193	0.075436	9.709434	-0.094538	0.001895	-0.102924	0.999986	0.000856	-0.005193	0.000150
18133	-0.108661	0.042220	9.732128	-0.104945	-0.031481	-0.080478	0.999986	0.000866	-0.005181	0.000187
18134	-0.101845	0.046670	9.704051	-0.097982	-0.026879	-0.108522	0.999986	0.000863	-0.005179	0.000190
18135	-0.070462	0.070756	9.715852	-0.066663	-0.002819	-0.096551	0.999986	0.000860	-0.005185	0.000185
18136	-0.101923	0.046354	9.704052	-0.098225	-0.027079	-0.108525	0.999986	0.000856	-0.005191	0.000195
18137	-0.101997	0.046276	9.704051	-0.098364	-0.027179	-0.108526	0.999986	0.000863	-0.005190	0.000184
18138	-0.134105	0.074793	9.731085	-0.130575	0.001021	-0.081267	0.999986	0.000866	-0.005204	0.000186
18139	-0.113082	0.065689	9.765579	-0.109529	-0.008198	-0.046850	0.999986	0.000848	-0.005187	0.000197
18140	-0.109518	0.041407	9.732122	-0.105775	-0.032173	-0.080490	0.999986	0.000861	-0.005186	0.000194
18141	-0.071125	0.070135	9.715852	-0.067390	-0.003417	-0.096557	0.999986	0.000859	-0.005185	0.000190
18142	-0.127839	0.078831	9.703005	-0.123988	0.005324	-0.109314	0.999986	0.000865	-0.005175	0.000195
18143	-0.071489	0.070065	9.715849	-0.067626	-0.003617	-0.096558	0.999986	0.000865	-0.005175	0.000195
18144	-0.067779	0.045866	9.682393	-0.063726	-0.027491	-0.130197	0.999986	0.000863	-0.005164	0.000191
18145	-0.107123	0.069833	9.737496	-0.103041	-0.003993	-0.074897	0.999986	0.000863	-0.005164	0.000191
18146	-0.082111	0.036610	9.738538	-0.077965	-0.036989	-0.074117	0.999986	0.000845	-0.005168	0.000184
18147	-0.078845	0.065257	9.743922	-0.074896	-0.008512	-0.068519	0.999986	0.000876	-0.005182	0.000152
18148	-0.141730	0.016912	9.720307	-0.137914	-0.056922	-0.092478	0.999986	0.000869	-0.005184	0.000123
18149	-0.247259	-0.036527	9.746407	-0.243356	-0.110312	-0.066738	0.999986	0.000854	-0.005170	-0.000175
18150	-0.184164	-0.041423	9.731171	-0.179894	-0.114550	-0.082022	0.999986	0.000825	-0.005137	-0.000821
18151	-0.130985	0.204509	9.661987	-0.126087	0.132771	-0.149383	0.999985	0.000770	-0.005148	-0.001736
18152	0.163811	0.066687	9.744572	0.167862	-0.006406	-0.067958	0.999984	0.000795	-0.005194	-0.002151
18153	-0.033671	0.097108	9.699597	-0.030023	0.024453	-0.112623	0.999984	0.000837	-0.005200	-0.002275
18154	-0.040713	0.092835	9.727667	-0.037198	0.019656	-0.084583	0.999983	0.000831	-0.005209	-0.002319
18155	-0.104365	0.096475	9.742894	-0.100905	0.023701	-0.069308	0.999983	0.000814	-0.005206	-0.002325
18156	-0.148928	0.010314	9.748380	-0.145958	-0.062405	-0.064457	0.999983	0.000843	-0.005220	-0.002343
18157	-0.134414	0.019739	9.692241	-0.131955	-0.053099	-0.120538	0.999983	0.000864	-0.005259	-0.002511
18158	-0.074478	0.039922	9.710475	-0.072349	-0.033470	-0.102172	0.999982	0.000857	-0.005265	-0.002749
18159	-0.033104	0.097315	9.699597	-0.030747	0.023862	-0.112624	0.999982	0.000856	-0.005266	-0.002900
18160	-0.099805	0.072589	9.709439	-0.097634	-0.000664	-0.102955	0.999982	0.000868	-0.005272	-0.002903
18161	-0.106924	0.068054	9.737511	-0.104846	-0.005467	-0.074917	0.999982	0.000865	-0.005271	-0.002900
18162	-0.110452	0.038924	9.732121	-0.108158	-0.034140	-0.080522	0.999982	0.000828	-0.005234	-0.002913
18163	-0.069603	0.095951	9.721250	-0.066554	0.023190	-0.090970	0.999982	0.000818	-0.005226	-0.002910
18164	-0.101102	0.071410	9.709435	-0.098115	-0.001055	-0.102959	0.999982	0.000825	-0.005228	-0.002867
18165	-0.104086	0.042774	9.704045	-0.101466	-0.029730	-0.108566	0.999982	0.000827	-0.005244	-0.002849
18166	-0.129216	0.075516	9.703013	-0.126604	0.003172	-0.109347	0.999982	0.000824	-0.005250	-0.002847
18167	-0.103991	0.042499	9.704047	-0.101707	-0.029930	-0.108569	0.999982	0.000821	-0.005257	-0.002845
18168	-0.111028	0.037941	9.732119	-0.108885	-0.034730	-0.080533	0.999982	0.000831	-0.005264	-0.002833
18169	-0.103948	0.042441	9.704048	-0.101949	-0.030125	-0.108572	0.999982	0.000827	-0.005272	-0.002823
18170	-0.075666	0.038204	9.710472	-0.073804	-0.034648	-0.102187	0.999982	0.000840	-0.005278	-0.002826
18171	-0.089937	0.029079	9.766613	-0.088097	-0.044159	-0.046114	0.999982	0.000832	-0.005268	-0.002838
18172	-0.069896	0.095129	9.721256	-0.067621	0.022306	-0.090975	0.999982	0.000820	-0.005273	-0.002837
18173	-0.073018	0.066334	9.715864	-0.070972	-0.006368	-0.096584	0.999982	0.000825	-0.005273	-0.002833
18174	-0.094379	0.075016	9.681368	-0.092243	0.002668	-0.131009	0.999982	0.000823	-0.005270	-0.002837
18175	-0.105535	0.094444	9.742902	-0.103325	0.021730	-0.069328	0.999982	0.000822	-0.005276	-0.002850
18176	-0.101533	0.070271	9.709439	-0.099559	-0.002234	-0.102974	0.999982	0.000826	-0.005281	-0.002847
18177	-0.080313	0.061423	9.743935	-0.078530	-0.011471	-0.068551	0.999982	0.000822	-0.005289	-0.002844
18178	-0.108577	0.065637	9.737509	-0.106878	-0.007142	-0.074941	0.999982	0.000835	-0.005294	-0.002848
18179	-0.111628	0.037085	9.732115	-0.110231	-0.035816	-0.080552	0.999982	0.000841	-0.005301	-0.002860
18180	-0.080394	0.061436	9.743934	-0.078876	-0.011774	-0.068554	0.999982	0.000839	-0.005298	-0.002865
18181	-0.108812	0.065583	9.737507	-0.107261	-0.007442	-0.074945	0.999982	0.000844	-0.005298	-0.002861
18182	-0.111918	0.037011	9.732112	-0.110574	-0.036113	-0.080557	0.999981	0.000856	-0.005304	-0.002857
18183	-0.101729	0.070168	9.709437	-0.100418	-0.002930	-0.102983	0.999981	0.000853	-0.005319	-0.002863
18184	-0.129929	0.074231	9.703013	-0.128763	0.001405	-0.109375	0.999981	0.000849	-0.005324	-0.002860
18185	-0.101800	0.069926	9.709438	-0.100656	-0.003127	-0.102986	0.999981	0.000855	-0.005316	-0.002855
18186	-0.116077	0.060630	9.765577	-0.114922	-0.012643	-0.046917	0.999981	0.000837	-0.005320	-0.002862
18187	-0.109091	0.065007	9.737508	-0.107979	-0.008033	-0.074953	0.999981	0.000848	-0.005321	-0.002850
18188	-0.066838	0.069849	9.687795	-0.065669	-0.003146	-0.124633	0.999981	0.000846	-0.005318	-0.002855
18189	-0.102239	0.069376	9.709438	-0.101136	-0.003521	-0.102991	0.999981	0.000842	-0.005326	-0.002844
18190	-0.109366	0.064669	9.737507	-0.108326	-0.008331	-0.074958	0.999981	0.000839	-0.005324	-0.002842
18191	-0.077230	0.036183	9.710468	-0.076352	-0.036729	-0.102215	0.999981	0.000835	-0.005324	-0.002831
18192	-0.056164	0.027252	9.744964	-0.055292	-0.045974	-0.067789	0.999981	0.000832	-0.005322	-0.002828
18193	-0.109789	0.064339	9.737504	-0.108705	-0.008630	-0.074962	0.999981	0.000846	-0.005322	-0.002831
18194	-0.081509	0.060177	9.743933	-0.080559	-0.013162	-0.068570	0.999981	0.000849	-0.005335	-0.002828
18195	-0.102726	0.068714	9.709437	-0.101857	-0.004115	-0.102999	0.999981	0.000832	-0.005333	-0.002834
18196	-0.060410	0.050970	9.778432	-0.059643	-0.022507	-0.034144	0.999981	0.000838	-0.005337	-0.002846
18197	-0.105956	0.039803	9.704038	-0.105315	-0.032884	-0.108617	0.999981	0.000835	-0.005337	-0.002843
18198	-0.110037	0.063735	9.737506	-0.109284	-0.009123	-0.074969	0.999981	0.000832	-0.005342	-0.002841
18199	-0.074711	0.063890	9.715868	-0.074092	-0.008948	-0.096609	0.999981	0.000829	-0.005349	-0.002846
18200	-0.120233	0.030327	9.760173	-0.119831	-0.042605	-0.052555	0.999981	0.000834	-0.005347	-0.002842
18201	-0.103275	0.068053	9.709436	-0.102576	-0.004706	-0.103007	0.999981	0.000841	-0.005338	-0.002852
18202	-0.082378	0.059069	9.743932	-0.081524	-0.013952	-0.068579	0.999981	0.000822	-0.005328	-0.002842
18203	-0.103727	0.067601	9.709434	-0.102818	-0.004900	-0.103009	0.999981	0.000826	-0.005335	-0.002839
18204	-0.082426	0.058874	9.743933	-0.081764	-0.014147	-0.068581	0.999981	0.000836	-0.005350	-0.002828
18205	-0.103621	0.067556	9.709436	-0.103057	-0.005094	-0.103012	0.999981	0.000827	-0.005348	-0.002833
18206	-0.071584	0.039108	9.682395	-0.071042	-0.033487	-0.130267	0.999981	0.000834	-0.005338	-0.002843
18207	-0.085939	0.030035	9.738527	-0.085362	-0.043014	-0.074204	0.999981	0.000838	-0.005338	-0.002839
18208	-0.132498	0.071598	9.702998	-0.131639	-0.000945	-0.109413	0.999981	0.000836	-0.005335	-0.002843
18209	-0.076191	0.062991	9.715862	-0.075292	-0.009924	-0.096619	0.999981	0.000834	-0.005327	-0.002839
18210	-0.090393	0.053818	9.771995	-0.089574	-0.019446	-0.040556	0.999981	0.000837	-0.005340	-0.002836
18211	-0.104463	0.067149	9.709430	-0.103772	-0.005676	-0.103020	0.999981	0.000845	-0.005345	-0.002863
18212	-0.111778	0.062568	9.737493	-0.110965	-0.010490	-0.074989	0.999981	0.000844	-0.005327	-0.002866
18213	-0.108061	0.038414	9.704020	-0.107231	-0.034446	-0.108643	0.999981	0.000848	-0.005327	-0.002862
18214	-0.076881	0.062813	9.715858	-0.075864	-0.010416	-0.096624	0.999981	0.000854	-0.005324	-0.002866
18215	-0.140626	0.066734	9.731052	-0.139581	-0.006347	-0.081394	0.999981	0.000859	-0.005324	-0.002862
18216	-0.105351	0.067032	9.709421	-0.104348	-0.006170	-0.103026	0.999981	0.000863	-0.005330	-0.002859
18217	-0.077152	0.062713	9.715856	-0.076245	-0.010712	-0.096627	0.999981	0.000860	-0.005330	-0.002856
18218	-0.084364	0.058087	9.743921	-0.083447	-0.015530	-0.068598	0.999981	0.000865	-0.005328	-0.002853
18219	-0.108764	0.038159	9.704013	-0.107954	-0.035041	-0.108653	0.999981	0.000863	-0.005327	-0.002857
18220	-0.084512	0.058012	9.743920	-0.083687	-0.015726	-0.068600	0.999981	0.000875	-0.005341	-0.002861
18221	-0.084592	0.057942	9.743920	-0.083827	-0.015826	-0.068601	0.999981	0.000866	-0.005331	-0.002865
18222	-0.084905	0.057654	9.743919	-0.083928	-0.015917	-0.068602	0.999981	0.000855	-0.005321	-0.002862
18223	-0.106250	0.066203	9.709417	-0.105212	-0.006855	-0.103036	0.999981	0.000852	-0.005328	-0.002859
18224	-0.106255	0.066047	9.709418	-0.105312	-0.006954	-0.103037	0.999981	0.000849	-0.005332	-0.002865
18225	-0.085136	0.057188	9.743920	-0.084307	-0.016216	-0.068606	0.999981	0.000854	-0.005333	-0.002860
18226	-0.075004	0.090364	9.721263	-0.074090	0.016977	-0.091012	0.999981	0.000859	-0.005345	-0.002873
18227	-0.106340	0.065903	9.709418	-0.105691	-0.007247	-0.103042	0.999981	0.000857	-0.005344	-0.002877
18228	-0.116556	0.032501	9.732074	-0.116116	-0.040634	-0.080639	0.999981	0.000846	-0.005349	-0.002876
18229	-0.078299	0.061277	9.715856	-0.077693	-0.011890	-0.096640	0.999981	0.000851	-0.005342	-0.002863
18230	-0.113849	0.060962	9.737480	-0.113133	-0.012260	-0.075016	0.999981	0.000856	-0.005339	-0.002867
18231	-0.085657	0.056647	9.743918	-0.085032	-0.016807	-0.068613	0.999981	0.000853	-0.005346	-0.002865
18232	-0.078586	0.060955	9.715856	-0.078029	-0.012183	-0.096643	0.999981	0.000842	-0.005351	-0.002863
18233	-0.075530	0.089347	9.721269	-0.074944	0.016287	-0.091017	0.999981	0.000838	-0.005358	-0.002860
18234	-0.114083	0.060259	9.737481	-0.113608	-0.012653	-0.075022	0.999981	0.000837	-0.005347	-0.002864
18235	-0.107230	0.064819	9.709415	-0.106645	-0.008032	-0.103053	0.999981	0.000850	-0.005347	-0.002867
18236	-0.114392	0.060209	9.737478	-0.113847	-0.012853	-0.075025	0.999981	0.000841	-0.005351	-0.002881
18237	-0.075998	0.089075	9.721268	-0.075420	0.015889	-0.091020	0.999981	0.000853	-0.005359	-0.002877
18238	-0.079125	0.060441	9.715855	-0.078742	-0.012782	-0.096650	0.999981	0.000851	-0.005356	-0.002882
18239	-0.107537	0.064605	9.709413	-0.107120	-0.008432	-0.103058	0.999981	0.000855	-0.005356	-0.002878
18240	-0.086492	0.055735	9.743916	-0.086082	-0.017701	-0.068624	0.999981	0.000852	-0.005353	-0.002875
18241	-0.114910	0.059908	9.737474	-0.114461	-0.013351	-0.075033	0.999981	0.000859	-0.005352	-0.002886
18242	-0.107905	0.064379	9.709411	-0.107456	-0.008720	-0.103062	0.999981	0.000854	-0.005358	-0.002875
18243	-0.086780	0.055412	9.743916	-0.086460	-0.017992	-0.068628	0.999981	0.000850	-0.005358	-0.002864
18244	-0.108025	0.064108	9.709411	-0.107700	-0.008914	-0.103065	0.999981	0.000854	-0.005364	-0.002861
18245	-0.108104	0.063956	9.709411	-0.107839	-0.009013	-0.103067	0.999981	0.000845	-0.005363	-0.002866
18246	-0.112281	0.087895	9.742888	-0.111819	0.014738	-0.069409	0.999981	0.000850	-0.005360	-0.002869
18247	-0.077086	0.088130	9.721268	-0.076613	0.014909	-0.091028	0.999981	0.000847	-0.005360	-0.002866
18248	-0.080301	0.059353	9.715852	-0.079939	-0.013758	-0.096661	0.999981	0.000845	-0.005357	-0.002871
18249	-0.083430	0.030555	9.710436	-0.083304	-0.042426	-0.102295	0.999981	0.000840	-0.005365	-0.002853
18250	-0.112863	0.087425	9.742885	-0.112301	0.014343	-0.069414	0.999981	0.000847	-0.005347	-0.002863
18251	-0.116087	0.058739	9.737467	-0.115667	-0.014325	-0.075049	0.999981	0.000845	-0.005361	-0.002869
18252	-0.109066	0.063196	9.709406	-0.108656	-0.009697	-0.103076	0.999981	0.000848	-0.005353	-0.002849
18253	-0.088027	0.054317	9.743910	-0.087666	-0.018974	-0.068641	0.999981	0.000846	-0.005359	-0.002861
18254	-0.109212	0.062958	9.709405	-0.108897	-0.009892	-0.103079	0.999981	0.000842	-0.005365	-0.002852
18255	-0.081027	0.058479	9.715851	-0.080798	-0.014446	-0.096669	0.999981	0.000832	-0.005363	-0.002857
18256	-0.112512	0.033875	9.703986	-0.112362	-0.038655	-0.108717	0.999981	0.000829	-0.005360	-0.002853
18257	-0.109595	0.062347	9.709405	-0.109273	-0.010186	-0.103084	0.999981	0.000826	-0.005360	-0.002850
18258	-0.113842	0.086276	9.742884	-0.113253	0.013559	-0.069424	0.999981	0.000824	-0.005349	-0.002854
18259	-0.081622	0.057943	9.715849	-0.081272	-0.014839	-0.096674	0.999981	0.000835	-0.005366	-0.002843
18260	-0.110030	0.062034	9.709402	-0.109604	-0.010482	-0.103088	0.999981	0.000819	-0.005346	-0.002848
18261	-0.081933	0.057573	9.715849	-0.081506	-0.015037	-0.096676	0.999981	0.000823	-0.005361	-0.002852
18262	-0.110114	0.061809	9.709403	-0.109841	-0.010683	-0.103091	0.999981	0.000828	-0.005366	-0.002850
18263	-0.089012	0.052927	9.743909	-0.088856	-0.019965	-0.068653	0.999981	0.000826	-0.005365	-0.002854
18264	-0.113487	0.032968	9.703978	-0.113310	-0.039444	-0.108731	0.999981	0.000824	-0.005355	-0.002858
18265	-0.082313	0.057199	9.715848	-0.081983	-0.015434	-0.096680	0.999981	0.000821	-0.005362	-0.002855
18266	-0.117579	0.056796	9.737460	-0.117435	-0.015798	-0.075072	0.999981	0.000824	-0.005375	-0.002853
18267	-0.107560	0.089889	9.714824	-0.107230	0.017397	-0.097460	0.999981	0.000821	-0.005360	-0.002840
18268	-0.082599	0.056795	9.715848	-0.082322	-0.015725	-0.096684	0.999981	0.000812	-0.005364	-0.002854
18269	-0.082598	0.056630	9.715849	-0.082461	-0.015824	-0.096685	0.999981	0.000814	-0.005373	-0.002835
18270	-0.089667	0.051965	9.743908	-0.089672	-0.020649	-0.068662	0.999981	0.000811	-0.005378	-0.002833
18271	-0.107842	0.089240	9.714827	-0.107702	0.017006	-0.097464	0.999981	0.000808	-0.005377	-0.002830
18272	-0.111132	0.060462	9.709399	-0.111037	-0.011656	-0.103106	0.999981	0.000805	-0.005367	-0.002826
18273	-0.111353	0.060392	9.709397	-0.111176	-0.011755	-0.103107	0.999981	0.000811	-0.005367	-0.002829
18274	-0.118437	0.055825	9.737456	-0.118398	-0.016579	-0.075085	0.999981	0.000815	-0.005381	-0.002827
18275	-0.090313	0.051481	9.743905	-0.090302	-0.021139	-0.068669	0.999981	0.000812	-0.005366	-0.002814
18276	-0.083307	0.055814	9.715848	-0.083289	-0.016508	-0.096693	0.999981	0.000802	-0.005384	-0.002830
18277	-0.093330	0.022555	9.738480	-0.093776	-0.049904	-0.074314	0.999981	0.000814	-0.005392	-0.002833
18278	-0.114642	0.031368	9.703970	-0.114994	-0.040807	-0.108757	0.999981	0.000812	-0.005382	-0.002829
18279	-0.052129	0.079955	9.727727	-0.052201	0.007303	-0.084635	0.999981	0.000808	-0.005389	-0.002827
18280	-0.111791	0.059678	9.709397	-0.112000	-0.012434	-0.103118	0.999981	0.000805	-0.005387	-0.002823
18281	-0.108867	0.088147	9.714825	-0.108907	0.016033	-0.097476	0.999981	0.000802	-0.005386	-0.002820
18282	-0.112967	0.112059	9.748312	-0.112894	0.039775	-0.063811	0.999981	0.000799	-0.005391	-0.002825
18283	-0.045420	0.083901	9.699673	-0.045557	0.011645	-0.112660	0.999981	0.000797	-0.005390	-0.002829
18284	-0.122339	0.025962	9.732022	-0.122827	-0.046119	-0.080746	0.999981	0.000801	-0.005395	-0.002826
18285	-0.080991	0.083361	9.721278	-0.081147	0.011180	-0.091060	0.999981	0.000791	-0.005387	-0.002822
18286	-0.084221	0.054514	9.715847	-0.084477	-0.017481	-0.096705	0.999981	0.000789	-0.005391	-0.002828
18287	-0.122719	0.025505	9.732019	-0.123204	-0.046413	-0.080752	0.999981	0.000793	-0.005391	-0.002823
18288	-0.091457	0.049868	9.743903	-0.091836	-0.022414	-0.068686	0.999981	0.000794	-0.005389	-0.002824
18289	-0.077428	0.058937	9.687789	-0.077592	-0.012950	-0.124729	0.999981	0.000793	-0.005380	-0.002835
18290	-0.113899	0.111185	9.748312	-0.113707	0.039086	-0.063818	0.999981	0.000790	-0.005384	-0.002841
18291	-0.070497	0.063287	9.659733	-0.070712	-0.008412	-0.152752	0.999981	0.000794	-0.005392	-0.002837
18292	-0.120040	0.053690	9.737448	-0.120409	-0.018240	-0.075113	0.999981	0.000783	-0.005397	-0.002836
18293	-0.056427	0.049573	9.722301	-0.056959	-0.022538	-0.090290	0.999981	0.000788	-0.005404	-0.002832
18294	-0.094921	0.020638	9.738468	-0.095649	-0.051470	-0.074340	0.999981	0.000793	-0.005402	-0.002836
18295	-0.091916	0.049258	9.743901	-0.092555	-0.023005	-0.068695	0.999981	0.000797	-0.005410	-0.002833
18296	-0.081821	0.082368	9.721279	-0.082298	0.010201	-0.091068	0.999981	0.000795	-0.005407	-0.002837
18297	-0.116305	0.029309	9.703956	-0.117139	-0.042561	-0.108790	0.999981	0.000795	-0.005407	-0.002837
18298	-0.084892	0.053497	9.715847	-0.085630	-0.018463	-0.096717	0.999981	0.000782	-0.005420	-0.002821
18299	-0.091998	0.048702	9.743903	-0.092894	-0.023296	-0.068698	0.999981	0.000782	-0.005418	-0.002841
18300	-0.110183	0.085942	9.714830	-0.110868	0.014378	-0.097496	0.999981	0.000770	-0.005422	-0.002839
18301	-0.106221	0.061790	9.681339	-0.107115	-0.009552	-0.131166	0.999981	0.000782	-0.005424	-0.002826
18302	-0.117464	0.081338	9.742883	-0.118231	0.009446	-0.069478	0.999981	0.000786	-0.005422	-0.002823
18303	-0.085325	0.052937	9.715846	-0.086247	-0.018952	-0.096724	0.999981	0.000783	-0.005421	-0.002819
18304	-0.093443	0.100890	9.782830	-0.094121	0.028607	-0.029385	0.999981	0.000780	-0.005426	-0.002817
18305	-0.085403	0.052620	9.715847	-0.086477	-0.019150	-0.096726	0.999981	0.000778	-0.005433	-0.002822
18306	-0.110806	0.085436	9.714827	-0.111568	0.013786	-0.097503	0.999981	0.000783	-0.005415	-0.002817
18307	-0.121202	0.052093	9.737442	-0.122071	-0.019613	-0.075136	0.999981	0.000772	-0.005422	-0.002815
18308	-0.086016	0.052110	9.715845	-0.086810	-0.019437	-0.096730	0.999981	0.000763	-0.005410	-0.002826
18309	-0.086175	0.051971	9.715844	-0.086949	-0.019537	-0.096731	0.999981	0.000768	-0.005418	-0.002823
18310	-0.086237	0.051958	9.715843	-0.087046	-0.019632	-0.096732	0.999981	0.000772	-0.005416	-0.002818
18311	-0.104452	0.089404	9.686770	-0.105049	0.018040	-0.125528	0.999981	0.000777	-0.005416	-0.002814
18312	-0.114696	0.056127	9.709384	-0.115511	-0.015357	-0.103163	0.999981	0.000773	-0.005421	-0.002812
18313	-0.090524	0.075738	9.749337	-0.091312	0.003898	-0.063065	0.999981	0.000769	-0.005422	-0.002794
18314	-0.086567	0.051516	9.715843	-0.087515	-0.020026	-0.096737	0.999981	0.000766	-0.005426	-0.002799
18315	-0.114897	0.055786	9.709384	-0.115885	-0.015653	-0.103168	0.999981	0.000779	-0.005426	-0.002802
18316	-0.104802	0.088916	9.686771	-0.105617	0.017553	-0.125533	0.999981	0.000770	-0.005429	-0.002815
18317	-0.093754	0.046802	9.743896	-0.095027	-0.025058	-0.068723	0.999981	0.000780	-0.005446	-0.002804
18318	-0.118838	0.079662	9.742881	-0.120118	0.007877	-0.069500	0.999981	0.000777	-0.005451	-0.002802
18319	-0.086558	0.051260	9.715844	-0.088132	-0.020520	-0.096744	0.999981	0.000777	-0.005451	-0.002802
18320	-0.083473	0.079874	9.721286	-0.084855	0.008052	-0.091088	0.999981	0.000781	-0.005457	-0.002798
18321	-0.111802	0.084064	9.714828	-0.113223	0.012427	-0.097520	0.999981	0.000779	-0.005456	-0.002803
18322	-0.062627	0.070821	9.755797	-0.063997	-0.001358	-0.056642	0.999981	0.000777	-0.005445	-0.002807
18323	-0.087069	0.051033	9.715841	-0.088470	-0.020807	-0.096747	0.999981	0.000789	-0.005446	-0.002794
18324	-0.112294	0.083977	9.714823	-0.113557	0.012140	-0.097524	0.999981	0.000792	-0.005452	-0.002790
18325	-0.087198	0.050934	9.715840	-0.088705	-0.020997	-0.096750	0.999981	0.000783	-0.005450	-0.002795
18326	-0.094462	0.046223	9.743892	-0.095933	-0.025838	-0.068734	0.999981	0.000789	-0.005447	-0.002799
18327	-0.084425	0.079423	9.721282	-0.085697	0.007364	-0.091095	0.999981	0.000794	-0.005447	-0.002803
18328	-0.091610	0.074783	9.749334	-0.092927	0.002531	-0.063079	0.999981	0.000791	-0.005451	-0.002807
18329	-0.084510	0.079197	9.721283	-0.085930	0.007171	-0.091097	0.999981	0.000788	-0.005458	-0.002805
18330	-0.115986	0.054682	9.709377	-0.117500	-0.017007	-0.103189	0.999981	0.000784	-0.005449	-0.002793
18331	-0.077678	0.083513	9.693231	-0.079032	0.011720	-0.119115	0.999981	0.000788	-0.005457	-0.002789
18332	-0.120156	0.078493	9.742874	-0.121634	0.006616	-0.069518	0.999981	0.000779	-0.005460	-0.002803
18333	-0.087969	0.050037	9.715838	-0.089647	-0.021781	-0.096760	0.999981	0.000785	-0.005459	-0.002807
18334	-0.085029	0.078658	9.721283	-0.086504	0.006677	-0.091102	0.999981	0.000790	-0.005457	-0.002804
18335	-0.123539	0.049650	9.737426	-0.125251	-0.022248	-0.075182	0.999981	0.000786	-0.005465	-0.002802
18336	-0.081149	0.054371	9.687785	-0.082839	-0.017340	-0.124779	0.999981	0.000784	-0.005461	-0.002806
18337	-0.116819	0.053939	9.709371	-0.118345	-0.017703	-0.103201	0.999981	0.000783	-0.005445	-0.002809
18338	-0.088712	0.049592	9.715833	-0.090211	-0.022280	-0.096767	0.999981	0.000787	-0.005458	-0.002807
18339	-0.081738	0.054075	9.687782	-0.083210	-0.017636	-0.124783	0.999981	0.000784	-0.005443	-0.002794
18340	-0.107044	0.086960	9.686764	-0.108288	0.015308	-0.125559	0.999981	0.000796	-0.005456	-0.002799
18341	-0.093017	0.073547	9.749330	-0.094480	0.001243	-0.063094	0.999981	0.000795	-0.005454	-0.002810
18342	-0.114314	0.082329	9.714814	-0.115666	0.010369	-0.097546	0.999981	0.000800	-0.005452	-0.002807
18343	-0.089223	0.049283	9.715830	-0.090819	-0.022772	-0.096773	0.999981	0.000790	-0.005458	-0.002812
18344	-0.079114	0.082334	9.693229	-0.080537	0.010432	-0.119126	0.999981	0.000795	-0.005456	-0.002817
18345	-0.086447	0.077689	9.721278	-0.087818	0.005589	-0.091113	0.999981	0.000793	-0.005448	-0.002813
18346	-0.125048	0.048621	9.737412	-0.126528	-0.023332	-0.075201	0.999981	0.000790	-0.005452	-0.002818
18347	-0.093784	0.072805	9.749328	-0.095197	0.000647	-0.063101	0.999981	0.000786	-0.005452	-0.002807
18348	-0.082790	0.053180	9.687778	-0.084259	-0.018520	-0.124794	0.999981	0.000784	-0.005449	-0.002812
18349	-0.086874	0.077285	9.721277	-0.088297	0.005197	-0.091117	0.999981	0.000803	-0.005459	-0.002799
18350	-0.118255	0.053068	9.709359	-0.119868	-0.018980	-0.103222	0.999981	0.000807	-0.005457	-0.002796
18351	-0.087047	0.077394	9.721275	-0.088537	0.004998	-0.091119	0.999981	0.000811	-0.005458	-0.002784
18352	-0.083160	0.053266	9.687774	-0.084728	-0.018913	-0.124799	0.999981	0.000809	-0.005455	-0.002789
18353	-0.115512	0.081429	9.714807	-0.116994	0.009286	-0.097561	0.999981	0.000805	-0.005462	-0.002778
18354	-0.087248	0.077133	9.721275	-0.088874	0.004708	-0.091122	0.999981	0.000817	-0.005468	-0.002782
18355	-0.066271	0.068221	9.755792	-0.067932	-0.004623	-0.056670	0.999981	0.000809	-0.005458	-0.002794
18356	-0.118991	0.052535	9.709352	-0.120584	-0.019567	-0.103232	0.999981	0.000807	-0.005455	-0.002799
18357	-0.090739	0.048174	9.715822	-0.092496	-0.024151	-0.096793	0.999981	0.000811	-0.005471	-0.002796
18358	-0.097774	0.043502	9.743872	-0.099741	-0.028998	-0.068781	0.999981	0.000808	-0.005476	-0.002795
18359	-0.083621	0.052504	9.687775	-0.085584	-0.019603	-0.124808	0.999981	0.000806	-0.005475	-0.002799
18360	-0.098013	0.043210	9.743871	-0.099978	-0.029202	-0.068785	0.999981	0.000804	-0.005472	-0.002805
18361	-0.088112	0.076348	9.721274	-0.089723	0.004005	-0.091129	0.999981	0.000810	-0.005456	-0.002806
18362	-0.116578	0.080550	9.714802	-0.118042	0.008393	-0.097573	0.999981	0.000806	-0.005461	-0.002797
18363	-0.091339	0.047482	9.715820	-0.093201	-0.024753	-0.096801	0.999981	0.000803	-0.005475	-0.002803
18364	-0.095380	0.071375	9.749323	-0.097205	-0.001038	-0.063121	0.999981	0.000801	-0.005472	-0.002807
18365	-0.088417	0.075970	9.721274	-0.090194	0.003611	-0.091134	0.999981	0.000815	-0.005472	-0.002817
18366	-0.098686	0.042925	9.743865	-0.100692	-0.029793	-0.068794	0.999981	0.000827	-0.005478	-0.002814
18367	-0.063304	0.043205	9.722289	-0.065456	-0.029632	-0.090362	0.999981	0.000823	-0.005485	-0.002811
18368	-0.119872	0.051599	9.709347	-0.122002	-0.020753	-0.103252	0.999981	0.000819	-0.005483	-0.002801
18369	-0.063364	0.042944	9.722289	-0.065692	-0.029830	-0.090364	0.999981	0.000824	-0.005498	-0.002805
18370	-0.088593	0.075758	9.721274	-0.090770	0.003118	-0.091139	0.999981	0.000821	-0.005489	-0.002795
18371	-0.092052	0.046995	9.715815	-0.094156	-0.025540	-0.096812	0.999981	0.000820	-0.005472	-0.002797
18372	-0.099320	0.042424	9.743861	-0.101403	-0.030386	-0.068803	0.999981	0.000832	-0.005486	-0.002802
18373	-0.124488	0.075334	9.742844	-0.126518	0.002563	-0.069578	0.999981	0.000831	-0.005484	-0.002813
18374	-0.096386	0.071059	9.749316	-0.098392	-0.002028	-0.063133	0.999981	0.000843	-0.005482	-0.002809
18375	-0.127874	0.046732	9.737384	-0.130003	-0.026195	-0.075254	0.999981	0.000842	-0.005481	-0.002821
18376	-0.089573	0.075506	9.721267	-0.091477	0.002530	-0.091145	0.999981	0.000839	-0.005478	-0.002818
18377	-0.064479	0.042435	9.722284	-0.066640	-0.030619	-0.090373	0.999981	0.000834	-0.005486	-0.002808
18378	-0.120977	0.050840	9.709337	-0.123187	-0.021733	-0.103269	0.999981	0.000832	-0.005490	-0.002813
18379	-0.089650	0.075107	9.721269	-0.091853	0.002234	-0.091149	0.999981	0.000838	-0.005497	-0.002825
18380	-0.092875	0.046481	9.715810	-0.095202	-0.026416	-0.096825	0.999981	0.000841	-0.005489	-0.002804
18381	-0.090000	0.074937	9.721267	-0.092091	0.002043	-0.091151	0.999981	0.000831	-0.005487	-0.002809
18382	-0.114301	0.055043	9.681287	-0.116506	-0.017372	-0.131285	0.999981	0.000831	-0.005485	-0.002811
18383	-0.061904	0.070503	9.727742	-0.063968	-0.002552	-0.084703	0.999981	0.000836	-0.005485	-0.002806
18384	-0.103526	0.012887	9.738394	-0.105953	-0.060020	-0.074496	0.999981	0.000832	-0.005491	-0.002804
18385	-0.090219	0.074620	9.721268	-0.092435	0.001748	-0.091154	0.999981	0.000832	-0.005491	-0.002804
18386	-0.121478	0.050277	9.709334	-0.123867	-0.022311	-0.103279	0.999981	0.000836	-0.005504	-0.002802
18387	-0.097248	0.069927	9.749315	-0.099690	-0.003100	-0.063146	0.999981	0.000832	-0.005504	-0.002791
18388	-0.090198	0.074430	9.721269	-0.092623	0.001551	-0.091156	0.999981	0.000838	-0.005508	-0.002803
18389	-0.121692	0.049953	9.709333	-0.124234	-0.022611	-0.103285	0.999981	0.000827	-0.005500	-0.002793
18390	-0.055129	0.074345	9.699700	-0.057471	0.001614	-0.112716	0.999981	0.000825	-0.005504	-0.002797
18391	-0.090576	0.073973	9.721269	-0.092990	0.001256	-0.091159	0.999981	0.000829	-0.005504	-0.002793
18392	-0.118898	0.078184	9.714793	-0.121307	0.005655	-0.097611	0.999981	0.000827	-0.005509	-0.002798
18393	-0.122145	0.049502	9.709329	-0.124697	-0.023001	-0.103292	0.999981	0.000833	-0.005500	-0.002801
18394	-0.059617	0.098090	9.733207	-0.061852	0.025022	-0.079032	0.999981	0.000830	-0.005505	-0.002807
18395	-0.094037	0.045048	9.715806	-0.096715	-0.027695	-0.096843	0.999981	0.000833	-0.005514	-0.002788
18396	-0.090856	0.073561	9.721270	-0.093564	0.000767	-0.091165	0.999980	0.000830	-0.005526	-0.002794
18397	-0.086915	0.049393	9.687762	-0.089793	-0.023133	-0.124853	0.999981	0.000829	-0.005517	-0.002805
18398	-0.091181	0.073290	9.721269	-0.093800	0.000568	-0.091167	0.999981	0.000826	-0.005514	-0.002803
18399	-0.094423	0.044600	9.715804	-0.097191	-0.028088	-0.096849	0.999981	0.000832	-0.005514	-0.002806
18400	-0.112609	0.082034	9.686744	-0.115101	0.009629	-0.125630	0.999981	0.000830	-0.005510	-0.002818
18401	-0.101866	0.039892	9.743845	-0.104596	-0.033037	-0.068845	0.999981	0.000835	-0.005510	-0.002814
18402	-0.098846	0.068429	9.749310	-0.101437	-0.004583	-0.063165	0.999980	0.000833	-0.005515	-0.002820
18403	-0.102100	0.039756	9.743843	-0.104828	-0.033238	-0.068848	0.999980	0.000840	-0.005506	-0.002830
18404	-0.095352	0.044131	9.715797	-0.097761	-0.028576	-0.096856	0.999981	0.000821	-0.005487	-0.002819
18405	-0.095499	0.043975	9.715796	-0.097900	-0.028675	-0.096858	0.999981	0.000833	-0.005503	-0.002823
18406	-0.099456	0.068075	9.749306	-0.101909	-0.004975	-0.063170	0.999981	0.000833	-0.005501	-0.002824
18407	-0.120646	0.076956	9.714781	-0.122965	0.004282	-0.097631	0.999981	0.000839	-0.005500	-0.002828
18408	-0.095567	0.043971	9.715796	-0.098097	-0.028868	-0.096860	0.999981	0.000835	-0.005505	-0.002825
18409	-0.068324	0.092228	9.761253	-0.070673	0.018885	-0.051033	0.999981	0.000839	-0.005506	-0.002814
18410	-0.095844	0.043797	9.715794	-0.098332	-0.029063	-0.096863	0.999981	0.000837	-0.005495	-0.002817
18411	-0.092909	0.072355	9.721260	-0.095216	-0.000607	-0.091181	0.999981	0.000843	-0.005501	-0.002829
18412	-0.064811	0.068070	9.727741	-0.067095	-0.005206	-0.084725	0.999981	0.000848	-0.005492	-0.002824
18413	-0.107552	0.063045	9.777342	-0.109787	-0.010321	-0.035173	0.999981	0.000839	-0.005490	-0.002829
18414	-0.062103	0.096318	9.733209	-0.064075	0.023153	-0.079042	0.999981	0.000836	-0.005488	-0.002826
18415	-0.117809	0.052124	9.681261	-0.119994	-0.020293	-0.131334	0.999981	0.000835	-0.005486	-0.002838
18416	-0.100898	0.067130	9.749298	-0.102949	-0.005854	-0.063182	0.999981	0.000832	-0.005483	-0.002835
18417	-0.096935	0.042869	9.715787	-0.099175	-0.029749	-0.096874	0.999981	0.000821	-0.005490	-0.002833
18418	-0.101049	0.066734	9.749299	-0.103191	-0.006048	-0.063184	0.999981	0.000825	-0.005488	-0.002829
18419	-0.097145	0.042782	9.715785	-0.099416	-0.029942	-0.096877	0.999981	0.000838	-0.005488	-0.002832
18420	-0.122368	0.075614	9.714770	-0.124481	0.003020	-0.097650	0.999981	0.000827	-0.005493	-0.002830
18421	-0.073087	0.062272	9.755783	-0.075351	-0.010848	-0.056729	0.999981	0.000832	-0.005493	-0.002826
18422	-0.104502	0.037875	9.743826	-0.106925	-0.034992	-0.068877	0.999981	0.000829	-0.005497	-0.002831
18423	-0.094268	0.070997	9.721256	-0.096637	-0.001776	-0.091195	0.999981	0.000833	-0.005505	-0.002828
18424	-0.097506	0.042300	9.715784	-0.099988	-0.030426	-0.096884	0.999981	0.000831	-0.005495	-0.002824
18425	-0.101619	0.066163	9.749297	-0.104041	-0.006732	-0.063194	0.999980	0.000827	-0.005509	-0.002822
18426	-0.122732	0.074978	9.714770	-0.125185	0.002440	-0.097659	0.999980	0.000833	-0.005506	-0.002833
18427	-0.104859	0.037549	9.743823	-0.107535	-0.035481	-0.068886	0.999980	0.000844	-0.005507	-0.002821
18428	-0.097782	0.042044	9.715782	-0.100461	-0.030815	-0.096891	0.999980	0.000833	-0.005512	-0.002819
18429	-0.066519	0.066290	9.727742	-0.069124	-0.006867	-0.084740	0.999980	0.000847	-0.005511	-0.002829
18430	-0.098016	0.041991	9.715780	-0.100693	-0.031010	-0.096894	0.999980	0.000845	-0.005508	-0.002834
18431	-0.095072	0.070457	9.721253	-0.097574	-0.002556	-0.091205	0.999980	0.000842	-0.005507	-0.002830
18432	-0.095230	0.070235	9.721253	-0.097664	-0.002650	-0.091206	0.999980	0.000832	-0.005503	-0.002835
18433	-0.098488	0.041564	9.715777	-0.101061	-0.031303	-0.096898	0.999980	0.000846	-0.005503	-0.002845
18434	-0.102537	0.065512	9.749292	-0.105072	-0.007610	-0.063205	0.999980	0.000835	-0.005515	-0.002845
18435	-0.098567	0.041330	9.715777	-0.101294	-0.031499	-0.096901	0.999980	0.000840	-0.005507	-0.002840
18436	-0.105855	0.036581	9.743816	-0.108569	-0.036358	-0.068901	0.999980	0.000829	-0.005512	-0.002838
18437	-0.099662	0.093568	9.754770	-0.102191	0.020649	-0.057517	0.999980	0.000826	-0.005519	-0.002836
18438	-0.091650	0.045450	9.687738	-0.094453	-0.027029	-0.124908	0.999980	0.000831	-0.005516	-0.002840
18439	-0.124090	0.073705	9.714763	-0.126725	0.001170	-0.097679	0.999980	0.000829	-0.005515	-0.002844
18440	-0.067683	0.065033	9.727742	-0.070391	-0.007948	-0.084750	0.999980	0.000829	-0.005513	-0.002845
18441	-0.124169	0.073553	9.714763	-0.126824	0.001072	-0.097680	0.999980	0.000826	-0.005520	-0.002843
18442	-0.071793	0.088882	9.761259	-0.074403	0.015740	-0.051056	0.999980	0.000830	-0.005518	-0.002839
18443	-0.096129	0.069239	9.721251	-0.098839	-0.003637	-0.091218	0.999980	0.000844	-0.005518	-0.002842
18444	-0.124446	0.073463	9.714760	-0.127149	0.000778	-0.097684	0.999980	0.000833	-0.005522	-0.002840
18445	-0.096288	0.069017	9.721251	-0.099071	-0.003832	-0.091220	0.999980	0.000839	-0.005521	-0.002851
18446	-0.068119	0.064719	9.727741	-0.070952	-0.008438	-0.084755	0.999980	0.000843	-0.005527	-0.002848
18447	-0.096436	0.068943	9.721250	-0.099306	-0.004025	-0.091223	0.999980	0.000841	-0.005526	-0.002852
18448	-0.096510	0.068947	9.721249	-0.099400	-0.004121	-0.091224	0.999980	0.000854	-0.005531	-0.002856
18449	-0.096585	0.069033	9.721248	-0.099538	-0.004220	-0.091225	0.999980	0.000860	-0.005530	-0.002866
18450	-0.103865	0.064430	9.749285	-0.106813	-0.009081	-0.063226	0.999980	0.000863	-0.005529	-0.002847
18451	-0.096793	0.068864	9.721247	-0.099771	-0.004414	-0.091228	0.999980	0.000853	-0.005534	-0.002861
18452	-0.121013	0.048855	9.681239	-0.124164	-0.023781	-0.131394	0.999980	0.000842	-0.005539	-0.002859
18453	-0.096888	0.068408	9.721249	-0.100007	-0.004609	-0.091230	0.999980	0.000847	-0.005539	-0.002855
18454	-0.068793	0.064029	9.727741	-0.071886	-0.009218	-0.084762	0.999980	0.000845	-0.005536	-0.002859
18455	-0.068947	0.063964	9.727740	-0.072024	-0.009318	-0.084764	0.999980	0.000850	-0.005535	-0.002863
18456	-0.100444	0.039590	9.715765	-0.103600	-0.033454	-0.096932	0.999980	0.000848	-0.005532	-0.002868
18457	-0.104645	0.063540	9.749282	-0.107659	-0.009770	-0.063236	0.999980	0.000854	-0.005531	-0.002871
18458	-0.100740	0.039524	9.715762	-0.103833	-0.033648	-0.096935	0.999980	0.000858	-0.005529	-0.002867
18459	-0.076705	0.059012	9.755775	-0.079678	-0.014480	-0.056768	0.999980	0.000841	-0.005527	-0.002873
18460	-0.098031	0.067696	9.721243	-0.100806	-0.005292	-0.091239	0.999980	0.000846	-0.005517	-0.002868
18461	-0.098173	0.067696	9.721241	-0.100944	-0.005392	-0.091240	0.999980	0.000846	-0.005517	-0.002868
18462	-0.126489	0.072005	9.714745	-0.129119	-0.000871	-0.097710	0.999980	0.000851	-0.005515	-0.002872
18463	-0.091245	0.072223	9.693203	-0.093858	-0.000717	-0.119240	0.999980	0.000849	-0.005514	-0.002869
18464	-0.070307	0.063171	9.727736	-0.072923	-0.010100	-0.084771	0.999980	0.000846	-0.005511	-0.002873
18465	-0.130193	0.043196	9.709255	-0.132752	-0.029716	-0.103417	0.999980	0.000861	-0.005495	-0.002882
18466	-0.091926	0.071957	9.693199	-0.094181	-0.001006	-0.119243	0.999980	0.000842	-0.005499	-0.002873
18467	-0.099016	0.067206	9.721236	-0.101505	-0.005876	-0.091246	0.999980	0.000856	-0.005513	-0.002892
18468	-0.106241	0.062529	9.749272	-0.108787	-0.010742	-0.063249	0.999980	0.000844	-0.005503	-0.002874
18469	-0.099228	0.066881	9.721236	-0.101738	-0.006071	-0.091249	0.999980	0.000840	-0.005511	-0.002872
18470	-0.092087	0.071333	9.693202	-0.094645	-0.001396	-0.119248	0.999980	0.000839	-0.005514	-0.002884
18471	-0.099252	0.066668	9.721238	-0.101971	-0.006266	-0.091251	0.999980	0.000839	-0.005514	-0.002884
18472	-0.064000	0.066960	9.699700	-0.066525	-0.006010	-0.112776	0.999980	0.000844	-0.005504	-0.002880
18473	-0.099461	0.066663	9.721235	-0.102064	-0.006362	-0.091252	0.999980	0.000848	-0.005519	-0.002885
18474	-0.103506	0.090665	9.754757	-0.106086	0.017323	-0.057552	0.999980	0.000853	-0.005517	-0.002881
18475	-0.099529	0.066659	9.721235	-0.102301	-0.006555	-0.091255	0.999980	0.000859	-0.005524	-0.002892
18476	-0.067249	0.038193	9.694213	-0.070264	-0.034949	-0.118484	0.999980	0.000848	-0.005528	-0.002891
18477	-0.096512	0.095043	9.726722	-0.099274	0.021800	-0.085553	0.999980	0.000861	-0.005528	-0.002894
18478	-0.102871	0.037838	9.715747	-0.105901	-0.035400	-0.096964	0.999980	0.000860	-0.005524	-0.002906
18479	-0.099935	0.066318	9.721233	-0.102774	-0.006950	-0.091260	0.999980	0.000858	-0.005523	-0.002911
18480	-0.096832	0.094846	9.726721	-0.099601	0.021505	-0.085556	0.999980	0.000861	-0.005536	-0.002908
18481	-0.099852	0.066059	9.721236	-0.103005	-0.007144	-0.091263	0.999980	0.000849	-0.005544	-0.002899
18482	-0.071604	0.061658	9.727736	-0.074887	-0.011766	-0.084788	0.999980	0.000862	-0.005549	-0.002903
18483	-0.107234	0.061230	9.749269	-0.110430	-0.012116	-0.063269	0.999980	0.000846	-0.005531	-0.002907
18484	-0.072233	0.061330	9.727733	-0.075117	-0.011960	-0.084790	0.999980	0.000853	-0.005520	-0.002917
18485	-0.075415	0.032650	9.722243	-0.078522	-0.040609	-0.090499	0.999980	0.000849	-0.005535	-0.002916
18486	-0.107627	0.060871	9.749267	-0.110752	-0.012406	-0.063273	0.999980	0.000853	-0.005540	-0.002912
18487	-0.100618	0.065401	9.721232	-0.103697	-0.007731	-0.091271	0.999980	0.000851	-0.005531	-0.002916
18488	-0.100771	0.065253	9.721231	-0.103792	-0.007825	-0.091272	0.999980	0.000848	-0.005536	-0.002913
18489	-0.097660	0.093689	9.726724	-0.100663	0.020624	-0.085565	0.999980	0.000843	-0.005544	-0.002903
18490	-0.100751	0.065063	9.721233	-0.104026	-0.008022	-0.091274	0.999980	0.000856	-0.005550	-0.002907
18491	-0.075701	0.031998	9.722243	-0.079221	-0.041195	-0.090507	0.999980	0.000839	-0.005547	-0.002913
18492	-0.136231	0.064462	9.742765	-0.139667	-0.008469	-0.069761	0.999980	0.000849	-0.005562	-0.002903
18493	-0.100822	0.064820	9.721234	-0.104399	-0.008318	-0.091279	0.999980	0.000856	-0.005561	-0.002914
18494	-0.100983	0.064763	9.721233	-0.104496	-0.008415	-0.091280	0.999980	0.000854	-0.005557	-0.002918
18495	-0.083081	0.027157	9.750275	-0.086889	-0.046365	-0.062517	0.999980	0.000858	-0.005565	-0.002915
18496	-0.098013	0.093281	9.726724	-0.101462	0.019939	-0.085571	0.999980	0.000862	-0.005563	-0.002911
18497	-0.104433	0.036140	9.715737	-0.108138	-0.037257	-0.096996	0.999980	0.000876	-0.005556	-0.002913
18498	-0.094328	0.069215	9.693196	-0.097765	-0.004027	-0.119280	0.999980	0.000858	-0.005559	-0.002919
18499	-0.129650	0.068755	9.714727	-0.133311	-0.004376	-0.097768	0.999980	0.000868	-0.005575	-0.002908
18500	-0.101548	0.064432	9.721229	-0.105193	-0.008996	-0.091288	0.999980	0.000867	-0.005556	-0.002911
18501	-0.105750	0.088362	9.754754	-0.109260	0.014675	-0.057583	0.999980	0.000871	-0.005572	-0.002908
18502	-0.101694	0.064276	9.721228	-0.105423	-0.009192	-0.091291	0.999980	0.000869	-0.005568	-0.002913
18503	-0.073604	0.059887	9.727732	-0.077351	-0.013820	-0.084810	0.999980	0.000873	-0.005568	-0.002909
18504	-0.101921	0.064050	9.721227	-0.105653	-0.009388	-0.091293	0.999980	0.000863	-0.005572	-0.002915
18505	-0.109093	0.059213	9.749261	-0.112992	-0.014265	-0.063301	0.999980	0.000860	-0.005579	-0.002912
18506	-0.073823	0.059486	9.727733	-0.077678	-0.014110	-0.084813	0.999980	0.000871	-0.005571	-0.002899
18507	-0.105453	0.035276	9.715729	-0.109296	-0.038227	-0.097012	0.999980	0.000878	-0.005562	-0.002909
18508	-0.099398	0.092353	9.726719	-0.102847	0.018771	-0.085584	0.999980	0.000867	-0.005566	-0.002908
18509	-0.074347	0.059275	9.727730	-0.078047	-0.014406	-0.084816	0.999980	0.000873	-0.005566	-0.002911
18510	-0.098676	0.039600	9.687694	-0.102418	-0.033740	-0.125010	0.999980	0.000878	-0.005563	-0.002915
18511	-0.110045	0.058919	9.749252	-0.113690	-0.014852	-0.063310	0.999980	0.000875	-0.005562	-0.002912
18512	-0.102954	0.063448	9.721221	-0.106584	-0.010168	-0.091304	0.999980	0.000875	-0.005560	-0.002912
18513	-0.106140	0.034688	9.715723	-0.109856	-0.038715	-0.097021	0.999980	0.000865	-0.005559	-0.002909
18514	-0.074869	0.058900	9.727728	-0.078469	-0.014796	-0.084820	0.999980	0.000877	-0.005564	-0.002913
18515	-0.100208	0.091821	9.726716	-0.103543	0.018183	-0.085590	0.999980	0.000874	-0.005549	-0.002901
18516	-0.075302	0.058824	9.727726	-0.078694	-0.014991	-0.084822	0.999980	0.000880	-0.005553	-0.002912
18517	-0.106652	0.034461	9.715719	-0.110312	-0.039105	-0.097027	0.999980	0.000877	-0.005560	-0.002910
18518	-0.103628	0.062843	9.721217	-0.107135	-0.010652	-0.091311	0.999980	0.000867	-0.005556	-0.002915
18519	-0.110949	0.058086	9.749247	-0.114478	-0.015533	-0.063321	0.999980	0.000872	-0.005556	-0.002911
18520	-0.103929	0.062621	9.721216	-0.107367	-0.010844	-0.091314	0.999980	0.000869	-0.005553	-0.002915
18521	-0.075841	0.058309	9.727724	-0.079297	-0.015477	-0.084828	0.999980	0.000882	-0.005553	-0.002917
18522	-0.108223	0.086483	9.754744	-0.111531	0.012727	-0.057606	0.999980	0.000864	-0.005556	-0.002924
18523	-0.104100	0.062334	9.721216	-0.107736	-0.011137	-0.091318	0.999980	0.000877	-0.005571	-0.002928
18524	-0.097004	0.066866	9.693186	-0.100623	-0.006452	-0.119310	0.999980	0.000867	-0.005560	-0.002925
18525	-0.083346	0.053114	9.755755	-0.086968	-0.020650	-0.056842	0.999980	0.000865	-0.005558	-0.002937
18526	-0.139984	0.061624	9.742731	-0.143476	-0.011675	-0.069820	0.999980	0.000863	-0.005555	-0.002941
18527	-0.097494	0.066383	9.693184	-0.100991	-0.006744	-0.119314	0.999980	0.000861	-0.005561	-0.002946
18528	-0.069337	0.061911	9.699696	-0.072875	-0.011377	-0.112826	0.999980	0.000858	-0.005559	-0.002944
18529	-0.079769	0.028543	9.722222	-0.083496	-0.044806	-0.090558	0.999980	0.000856	-0.005557	-0.002948
18530	-0.133279	0.065718	9.714699	-0.136729	-0.007282	-0.097817	0.999980	0.000860	-0.005555	-0.002944
18531	-0.084191	0.052458	9.755751	-0.087664	-0.021239	-0.056849	0.999980	0.000865	-0.005548	-0.002939
18532	-0.098230	0.066013	9.693179	-0.101543	-0.007232	-0.119320	0.999980	0.000871	-0.005552	-0.002951
18533	-0.112574	0.056705	9.749236	-0.116101	-0.016900	-0.063342	0.999980	0.000867	-0.005560	-0.002941
18534	-0.074136	0.085451	9.733227	-0.077505	0.011800	-0.079119	0.999980	0.000866	-0.005556	-0.002953
18535	-0.102537	0.089642	9.726712	-0.105849	0.016239	-0.085611	0.999980	0.000864	-0.005554	-0.002957
18536	-0.073501	0.032655	9.694188	-0.077074	-0.040700	-0.118558	0.999980	0.000869	-0.005552	-0.002960
18537	-0.110169	0.084986	9.754735	-0.113290	0.011259	-0.057624	0.999980	0.000876	-0.005535	-0.002970
18538	-0.070830	0.061277	9.699690	-0.074029	-0.012356	-0.112836	0.999980	0.000878	-0.005549	-0.002953
18539	-0.074893	0.085021	9.733225	-0.078103	0.011304	-0.079123	0.999980	0.000861	-0.005547	-0.002959
18540	-0.109593	0.032096	9.715694	-0.112955	-0.041342	-0.097067	0.999980	0.000885	-0.005536	-0.002983
18541	-0.106554	0.060862	9.721198	-0.109817	-0.012896	-0.091343	0.999980	0.000888	-0.005552	-0.002973
18542	-0.075191	0.085120	9.733221	-0.078426	0.011013	-0.079126	0.999980	0.000892	-0.005550	-0.002969
18543	-0.142154	0.060542	9.742706	-0.145465	-0.013337	-0.069851	0.999980	0.000897	-0.005542	-0.002964
18544	-0.106961	0.060836	9.721194	-0.110140	-0.013187	-0.091347	0.999980	0.000903	-0.005539	-0.002968
18545	-0.107040	0.060684	9.721194	-0.110278	-0.013286	-0.091349	0.999980	0.000892	-0.005546	-0.002966
18546	-0.089179	0.022995	9.750232	-0.092660	-0.051254	-0.062595	0.999980	0.000898	-0.005542	-0.002977
18547	-0.079115	0.056228	9.727711	-0.082305	-0.018022	-0.084857	0.999980	0.000903	-0.005535	-0.002972
18548	-0.111565	0.084552	9.754723	-0.114545	0.010180	-0.057638	0.999980	0.000909	-0.005539	-0.002984
18549	-0.100311	0.065167	9.693164	-0.103528	-0.008888	-0.119343	0.999980	0.000913	-0.005547	-0.002973
18550	-0.107551	0.060540	9.721189	-0.110835	-0.013772	-0.091356	0.999980	0.000918	-0.005544	-0.002977
18551	-0.086640	0.051599	9.755734	-0.089986	-0.023202	-0.056875	0.999980	0.000923	-0.005545	-0.002973
18552	-0.104724	0.089145	9.726693	-0.107789	0.014580	-0.085630	0.999980	0.000928	-0.005542	-0.002976
18553	-0.086932	0.051690	9.755731	-0.090219	-0.023395	-0.056877	0.999980	0.000942	-0.005541	-0.002986
18554	-0.100883	0.065092	9.693158	-0.104085	-0.009366	-0.119349	0.999980	0.000922	-0.005546	-0.002978
18555	-0.087085	0.051376	9.755731	-0.090456	-0.023587	-0.056880	0.999980	0.000935	-0.005546	-0.002980
18556	-0.076866	0.084518	9.733214	-0.080049	0.009647	-0.079137	0.999980	0.000924	-0.005550	-0.002979
18557	-0.108146	0.060005	9.721186	-0.111669	-0.014451	-0.091367	0.999980	0.000921	-0.005564	-0.002985
18558	-0.112220	0.083838	9.754722	-0.115703	0.009203	-0.057650	0.999980	0.000918	-0.005561	-0.002983
18559	-0.101111	0.064383	9.693161	-0.104681	-0.009860	-0.119356	0.999980	0.000923	-0.005561	-0.002978
18560	-0.108365	0.059606	9.721186	-0.111997	-0.014744	-0.091371	0.999980	0.000912	-0.005566	-0.002977
18561	-0.087393	0.050425	9.755734	-0.091153	-0.024180	-0.056888	0.999980	0.000909	-0.005565	-0.002974
18562	-0.108608	0.059158	9.721186	-0.112230	-0.014937	-0.091374	0.999980	0.000900	-0.005561	-0.002986
18563	-0.108756	0.059084	9.721185	-0.112368	-0.015036	-0.091376	0.999980	0.000911	-0.005562	-0.002974
18564	-0.073402	0.059278	9.699683	-0.077035	-0.014888	-0.112863	0.999980	0.000900	-0.005566	-0.002972
18565	-0.108975	0.058767	9.721184	-0.112597	-0.015231	-0.091379	0.999980	0.000899	-0.005557	-0.002976
18566	-0.073646	0.058913	9.699683	-0.077267	-0.015088	-0.112865	0.999980	0.000896	-0.005569	-0.002983
18567	-0.109078	0.058402	9.721185	-0.112831	-0.015431	-0.091382	0.999980	0.000886	-0.005567	-0.002988
18568	-0.088184	0.049303	9.755732	-0.091940	-0.024869	-0.056897	0.999980	0.000891	-0.005565	-0.002984
18569	-0.081141	0.053840	9.727707	-0.084855	-0.020176	-0.084883	0.999980	0.000888	-0.005564	-0.002981
18570	-0.109526	0.058105	9.721182	-0.113150	-0.015726	-0.091386	0.999980	0.000894	-0.005561	-0.002992
18571	-0.106549	0.086783	9.726695	-0.110006	0.012717	-0.085652	0.999980	0.000906	-0.005562	-0.002980
18572	-0.081493	0.053752	9.727705	-0.085177	-0.020468	-0.084887	0.999980	0.000895	-0.005566	-0.002978
18573	-0.074391	0.058147	9.699682	-0.078089	-0.015774	-0.112873	0.999980	0.000893	-0.005565	-0.002982
18574	-0.113966	0.081697	9.754720	-0.117552	0.007636	-0.057671	0.999980	0.000890	-0.005569	-0.002987
18575	-0.081668	0.053226	9.727706	-0.085546	-0.020762	-0.084891	0.999980	0.000887	-0.005577	-0.002985
18576	-0.085739	0.077125	9.761247	-0.089581	0.002890	-0.051171	0.999980	0.000886	-0.005574	-0.002985
18577	-0.109977	0.057324	9.721182	-0.113839	-0.016307	-0.091395	0.999980	0.000876	-0.005573	-0.002982
18578	-0.078692	0.081499	9.733225	-0.082445	0.007585	-0.079155	0.999980	0.000887	-0.005580	-0.002971
18579	-0.110259	0.057077	9.721180	-0.114067	-0.016504	-0.091398	0.999980	0.000870	-0.005562	-0.002976
18580	-0.086248	0.076565	9.761247	-0.089908	0.002596	-0.051174	0.999980	0.000881	-0.005577	-0.002965
18581	-0.107345	0.085585	9.726697	-0.111019	0.011842	-0.085663	0.999980	0.000887	-0.005568	-0.002968
18582	-0.110615	0.056916	9.721177	-0.114398	-0.016793	-0.091402	0.999980	0.000884	-0.005573	-0.002973
18583	-0.072079	0.085725	9.705201	-0.075822	0.011891	-0.107143	0.999980	0.000888	-0.005580	-0.002969
18584	-0.110682	0.056829	9.721177	-0.114634	-0.016986	-0.091405	0.999980	0.000893	-0.005578	-0.002973
18585	-0.079489	0.080948	9.733223	-0.083287	0.006903	-0.079162	0.999980	0.000883	-0.005577	-0.002971
18586	-0.103706	0.061210	9.693154	-0.107633	-0.012384	-0.119391	0.999980	0.000894	-0.005583	-0.002959
18587	-0.082753	0.052106	9.727703	-0.086801	-0.021833	-0.084904	0.999980	0.000878	-0.005580	-0.002980
18588	-0.118419	0.051617	9.749195	-0.122321	-0.022171	-0.063429	0.999980	0.000883	-0.005570	-0.002975
18589	-0.080023	0.080507	9.733222	-0.083744	0.006512	-0.079166	0.999980	0.000883	-0.005570	-0.002975
18590	-0.076016	0.056443	9.699680	-0.079754	-0.017229	-0.112889	0.999980	0.000879	-0.005567	-0.002965
18591	-0.111584	0.055999	9.721171	-0.115322	-0.017570	-0.091414	0.999980	0.000877	-0.005566	-0.002969
18592	-0.083515	0.051521	9.727700	-0.087213	-0.022216	-0.084909	0.999980	0.000875	-0.005563	-0.002973
18593	-0.083669	0.051455	9.727699	-0.087351	-0.022316	-0.084910	0.999980	0.000880	-0.005562	-0.002976
18594	-0.108871	0.084178	9.726692	-0.112360	0.010686	-0.085677	0.999980	0.000862	-0.005565	-0.002983
18595	-0.104708	0.060182	9.693149	-0.108550	-0.013156	-0.119402	0.999980	0.000888	-0.005583	-0.002970
18596	-0.083798	0.051355	9.727698	-0.087673	-0.022605	-0.084914	0.999980	0.000887	-0.005564	-0.002973
18597	-0.112254	0.055550	9.721166	-0.116010	-0.018148	-0.091424	0.999980	0.000883	-0.005571	-0.002971
18598	-0.076904	0.055677	9.699677	-0.080667	-0.018002	-0.112898	0.999980	0.000880	-0.005568	-0.002967
18599	-0.102159	0.088462	9.698669	-0.105716	0.014996	-0.113664	0.999980	0.000877	-0.005568	-0.002964
18600	-0.105426	0.059787	9.693144	-0.109099	-0.013637	-0.119409	0.999980	0.000883	-0.005565	-0.002968
18601	-0.081429	0.079437	9.733219	-0.084985	0.005447	-0.079176	0.999980	0.000889	-0.005564	-0.002979
18602	-0.112861	0.054950	9.721162	-0.116567	-0.018631	-0.091431	0.999980	0.000870	-0.005568	-0.002971
18603	-0.081437	0.079041	9.733222	-0.085220	0.005251	-0.079178	0.999980	0.000882	-0.005583	-0.002975
18604	-0.109738	0.083305	9.726690	-0.113508	0.009714	-0.085689	0.999980	0.000872	-0.005572	-0.002972
18605	-0.074609	0.083443	9.705202	-0.078211	0.009855	-0.107160	0.999980	0.000877	-0.005565	-0.002967
18606	-0.113450	0.054489	9.721158	-0.117025	-0.019020	-0.091438	0.999980	0.000875	-0.005554	-0.002970
18607	-0.106479	0.058975	9.693137	-0.109926	-0.014319	-0.119420	0.999980	0.000872	-0.005553	-0.002967
18608	-0.081446	0.025870	9.694145	-0.085109	-0.047515	-0.118656	0.999980	0.000869	-0.005558	-0.002965
18609	-0.117822	0.078148	9.754703	-0.121344	0.004423	-0.057716	0.999980	0.000881	-0.005566	-0.002968
18610	-0.085677	0.049693	9.727691	-0.089289	-0.023972	-0.084932	0.999980	0.000864	-0.005553	-0.002974
18611	-0.093099	0.044910	9.755708	-0.096666	-0.028873	-0.056954	0.999980	0.000876	-0.005555	-0.002962
18612	-0.075637	0.082676	9.705200	-0.078994	0.009174	-0.107166	0.999980	0.000865	-0.005559	-0.002960
18613	-0.093245	0.044588	9.755708	-0.096899	-0.029067	-0.056957	0.999980	0.000863	-0.005558	-0.002964
18614	-0.075874	0.082302	9.705202	-0.079228	0.008979	-0.107168	0.999980	0.000859	-0.005555	-0.002961
18615	-0.083223	0.077596	9.733219	-0.086605	0.004078	-0.079190	0.999980	0.000865	-0.005555	-0.002965
18616	-0.086420	0.049000	9.727688	-0.089988	-0.024555	-0.084940	0.999980	0.000865	-0.005552	-0.002965
18617	-0.111459	0.081712	9.726684	-0.114895	0.008546	-0.085704	0.999980	0.000846	-0.005566	-0.002965
18618	-0.083250	0.077144	9.733222	-0.086793	0.003888	-0.079191	0.999980	0.000852	-0.005562	-0.002976
18619	-0.086596	0.048556	9.727688	-0.090221	-0.024749	-0.084942	0.999980	0.000857	-0.005555	-0.002971
18620	-0.093849	0.043976	9.755705	-0.097555	-0.029650	-0.056965	0.999980	0.000868	-0.005569	-0.002961
18621	0.109661	-0.115383	9.689761	0.104956	-0.189977	-0.124050	0.999980	0.000887	-0.005562	-0.002877
18622	-0.303437	0.223269	9.731046	-0.306906	0.149358	-0.080335	0.999982	0.000984	-0.005628	-0.001902
18623	-0.100094	0.117558	9.704177	-0.105055	0.041303	-0.107939	0.999983	0.001040	-0.005653	-0.000951
18624	-0.103222	0.089639	9.698647	-0.108438	0.012671	-0.113691	0.999983	0.001054	-0.005645	-0.000358
18625	-0.050717	0.051755	9.706196	-0.055474	-0.025096	-0.106412	0.999984	0.001015	-0.005598	-0.000408
18626	-0.086687	0.050998	9.727675	-0.091005	-0.025431	-0.084951	0.999984	0.000997	-0.005601	-0.000415
18627	-0.107747	0.059936	9.693118	-0.112094	-0.016161	-0.119447	0.999984	0.001010	-0.005601	-0.000418
18628	-0.086922	0.050863	9.727674	-0.091233	-0.025627	-0.084954	0.999984	0.001008	-0.005598	-0.000422
18629	-0.083805	0.079299	9.733200	-0.088079	0.002810	-0.079202	0.999984	0.001005	-0.005597	-0.000419
18630	-0.115425	0.055133	9.721131	-0.119659	-0.021259	-0.091474	0.999984	0.001010	-0.005594	-0.000423
18631	-0.084026	0.079147	9.733199	-0.088309	0.002611	-0.079204	0.999984	0.001007	-0.005601	-0.000421
18632	-0.105146	0.088156	9.698640	-0.109352	0.011889	-0.113700	0.999984	0.001013	-0.005591	-0.000423
18633	-0.077087	0.083746	9.705180	-0.081294	0.007222	-0.107183	0.999984	0.001026	-0.005599	-0.000427
18634	-0.123094	0.050395	9.749144	-0.127360	-0.026455	-0.063504	0.999984	0.001015	-0.005595	-0.000424
18635	-0.077318	0.083282	9.705182	-0.081515	0.007026	-0.107185	0.999984	0.000996	-0.005594	-0.000415
18636	-0.116021	0.054435	9.721128	-0.120343	-0.021847	-0.091484	0.999984	0.001008	-0.005607	-0.000420
18637	-0.084621	0.078446	9.733200	-0.088992	0.002021	-0.079210	0.999984	0.000998	-0.005598	-0.000417
18638	-0.095279	0.045039	9.755686	-0.099622	-0.031417	-0.056991	0.999984	0.000994	-0.005603	-0.000414
18639	-0.080888	0.054065	9.699654	-0.085262	-0.021904	-0.112945	0.999984	0.000992	-0.005602	-0.000411
18640	-0.109236	0.058405	9.693110	-0.113550	-0.017434	-0.119466	0.999984	0.000989	-0.005599	-0.000408
18641	-0.085080	0.077672	9.733202	-0.089448	0.001625	-0.079215	0.999984	0.000979	-0.005605	-0.000414
18642	-0.088445	0.048954	9.727670	-0.092831	-0.027005	-0.084973	0.999984	0.000985	-0.005601	-0.000425
18643	-0.077927	0.082197	9.705186	-0.082424	0.006239	-0.107192	0.999984	0.000995	-0.005618	-0.000414
18644	-0.088421	0.049002	9.727670	-0.093059	-0.027202	-0.084976	0.999984	0.000993	-0.005614	-0.000418
18645	-0.113501	0.081934	9.726658	-0.118095	0.005805	-0.085740	0.999984	0.000990	-0.005614	-0.000415
18646	-0.088723	0.048781	9.727668	-0.093289	-0.027402	-0.084978	0.999984	0.000996	-0.005611	-0.000420
18647	-0.117077	0.053130	9.721123	-0.121620	-0.022931	-0.091502	0.999984	0.000985	-0.005610	-0.000417
18648	-0.089024	0.048476	9.727667	-0.093516	-0.027598	-0.084981	0.999984	0.000990	-0.005608	-0.000413
18649	-0.106701	0.086053	9.698642	-0.111299	0.010218	-0.113720	0.999984	0.000985	-0.005623	-0.000404
18650	-0.089073	0.048364	9.727667	-0.093743	-0.027796	-0.084984	0.999984	0.000999	-0.005613	-0.000406
18651	-0.089222	0.048455	9.727665	-0.093880	-0.027897	-0.084985	0.999984	0.001005	-0.005619	-0.000418
18652	-0.096544	0.043798	9.755679	-0.101222	-0.032807	-0.057012	0.999984	0.001003	-0.005616	-0.000423
18653	-0.079025	0.081511	9.705183	-0.083556	0.005248	-0.107201	0.999984	0.001009	-0.005607	-0.000426
18654	-0.086416	0.076849	9.733197	-0.090904	0.000342	-0.079228	0.999984	0.001006	-0.005612	-0.000431
18655	-0.117902	0.052618	9.721115	-0.122530	-0.023719	-0.091516	0.999984	0.001004	-0.005618	-0.000436
18656	-0.086583	0.076636	9.733197	-0.091127	0.000141	-0.079230	0.999984	0.001010	-0.005607	-0.000440
18657	-0.082910	0.052742	9.699644	-0.087306	-0.023683	-0.112967	0.999984	0.001023	-0.005600	-0.000441
18658	-0.122459	0.076473	9.754659	-0.126806	-0.000292	-0.057784	0.999984	0.001004	-0.005604	-0.000433
18659	-0.097460	0.043222	9.755673	-0.102049	-0.033502	-0.057023	0.999984	0.001016	-0.005619	-0.000438
18660	-0.079855	0.081007	9.705181	-0.084329	0.004554	-0.107207	0.999984	0.001015	-0.005600	-0.000441
18661	-0.090591	0.047676	9.727656	-0.095020	-0.028892	-0.084999	0.999984	0.001011	-0.005608	-0.000431
18662	-0.118783	0.052004	9.721108	-0.123301	-0.024417	-0.091527	0.999984	0.001008	-0.005613	-0.000430
18663	-0.059189	0.071430	9.739745	-0.063758	-0.005136	-0.072711	0.999984	0.001006	-0.005612	-0.000434
18664	-0.087468	0.075862	9.733195	-0.092039	-0.000660	-0.079239	0.999984	0.001006	-0.005609	-0.000435
18665	-0.080295	0.080456	9.705182	-0.084781	0.004152	-0.107211	0.999984	0.001010	-0.005609	-0.000431
18666	-0.111905	0.056368	9.693092	-0.116363	-0.019907	-0.119505	0.999984	0.001015	-0.005607	-0.000428
18667	-0.062897	0.042525	9.734205	-0.067376	-0.033975	-0.078479	0.999984	0.000996	-0.005606	-0.000419
18668	-0.088052	0.075392	9.733194	-0.092361	-0.000962	-0.079242	0.999984	0.001003	-0.005595	-0.000430
18669	-0.084167	0.051341	9.699641	-0.088537	-0.024783	-0.112981	0.999984	0.000999	-0.005609	-0.000428
18670	-0.119600	0.051154	9.721102	-0.124082	-0.025118	-0.091539	0.999984	0.001004	-0.005607	-0.000425
18671	-0.098794	0.041976	9.755665	-0.103289	-0.034611	-0.057040	0.999984	0.001002	-0.005606	-0.000429
18672	-0.112652	0.055607	9.693088	-0.117047	-0.020499	-0.119514	0.999984	0.001007	-0.005604	-0.000425
18673	-0.081169	0.079510	9.705182	-0.085694	0.003355	-0.107219	0.999984	0.000994	-0.005618	-0.000417
18674	-0.088480	0.074822	9.733194	-0.093050	-0.001560	-0.079248	0.999984	0.001008	-0.005609	-0.000420
18675	-0.081618	0.079297	9.705180	-0.085925	0.003154	-0.107221	0.999984	0.000992	-0.005591	-0.000424
18676	-0.089110	0.074496	9.733191	-0.093280	-0.001759	-0.079251	0.999984	0.000998	-0.005595	-0.000437
18677	-0.092469	0.045846	9.727647	-0.096717	-0.030392	-0.085021	0.999984	0.000995	-0.005595	-0.000434
18678	-0.089337	0.074269	9.733191	-0.093502	-0.001956	-0.079253	0.999984	0.000992	-0.005591	-0.000430
18679	-0.082158	0.078785	9.705180	-0.086376	0.002760	-0.107225	0.999984	0.000996	-0.005599	-0.000427
18680	-0.117748	0.078533	9.726636	-0.121917	0.002421	-0.085786	0.999984	0.000986	-0.005588	-0.000425
18681	-0.085732	0.049975	9.699634	-0.089902	-0.025978	-0.112997	0.999984	0.000999	-0.005595	-0.000429
18682	-0.082353	0.078598	9.705180	-0.086693	0.002454	-0.107228	0.999984	0.001001	-0.005610	-0.000412
18683	-0.089599	0.073748	9.733192	-0.094094	-0.002463	-0.079258	0.999984	0.000984	-0.005607	-0.000418
18684	-0.085890	0.049589	9.699635	-0.090224	-0.026275	-0.113001	0.999984	0.000992	-0.005595	-0.000444
18685	-0.097268	0.068904	9.761200	-0.101589	-0.007477	-0.051291	0.999984	0.000988	-0.005603	-0.000434
18686	-0.090086	0.073421	9.733190	-0.094413	-0.002757	-0.079262	0.999984	0.000993	-0.005600	-0.000438
18687	-0.090235	0.073430	9.733189	-0.094550	-0.002857	-0.079263	0.999984	0.000999	-0.005599	-0.000441
18688	-0.086420	0.049390	9.699631	-0.090679	-0.026666	-0.113006	0.999984	0.000997	-0.005596	-0.000445
18689	-0.090475	0.073138	9.733189	-0.094779	-0.003051	-0.079265	0.999984	0.000986	-0.005602	-0.000444
18690	-0.118805	0.077557	9.726631	-0.123056	0.001433	-0.085800	0.999984	0.000998	-0.005593	-0.000431
18691	-0.086789	0.049164	9.699629	-0.091040	-0.026966	-0.113010	0.999984	0.001006	-0.005598	-0.000458
18692	-0.091007	0.073103	9.733184	-0.095097	-0.003350	-0.079269	0.999984	0.001004	-0.005580	-0.000461
18693	-0.091229	0.072951	9.733183	-0.095234	-0.003451	-0.079270	0.999984	0.001000	-0.005587	-0.000451
18694	-0.091296	0.072864	9.733183	-0.095326	-0.003547	-0.079271	0.999984	0.001006	-0.005584	-0.000455
18695	-0.119639	0.077300	9.726623	-0.123651	0.000940	-0.085808	0.999984	0.001003	-0.005584	-0.000452
18696	-0.112526	0.081824	9.698613	-0.116472	0.005660	-0.113777	0.999984	0.001007	-0.005582	-0.000449
18697	-0.066684	0.039553	9.734192	-0.070807	-0.036966	-0.078514	0.999984	0.001006	-0.005594	-0.000469
18698	-0.119903	0.076878	9.726623	-0.123967	0.000644	-0.085812	0.999984	0.000989	-0.005582	-0.000475
18699	-0.095160	0.043420	9.727633	-0.099221	-0.032575	-0.085053	0.999984	0.000978	-0.005588	-0.000473
18700	-0.091941	0.071903	9.733184	-0.096008	-0.004139	-0.079278	0.999984	0.000990	-0.005587	-0.000461
18701	-0.123552	0.047828	9.721070	-0.127638	-0.028181	-0.091593	0.999984	0.000988	-0.005586	-0.000465
18702	-0.092156	0.071742	9.733183	-0.096236	-0.004338	-0.079280	0.999984	0.000984	-0.005591	-0.000463
18703	-0.088256	0.047694	9.699623	-0.092406	-0.028148	-0.113027	0.999984	0.000990	-0.005590	-0.000467
18704	-0.092303	0.071585	9.733183	-0.096465	-0.004535	-0.079282	0.999984	0.000986	-0.005595	-0.000465
18705	-0.120571	0.076102	9.726621	-0.124788	-0.000045	-0.085822	0.999984	0.001000	-0.005594	-0.000475
18706	-0.123934	0.047537	9.721067	-0.128186	-0.028672	-0.091602	0.999984	0.000998	-0.005598	-0.000481
18707	-0.095876	0.042933	9.727628	-0.100137	-0.033363	-0.085065	0.999984	0.001001	-0.005592	-0.000460
18708	-0.096012	0.042925	9.727626	-0.100227	-0.033458	-0.085066	0.999984	0.001007	-0.005596	-0.000472
18709	-0.092809	0.071433	9.733179	-0.097058	-0.005028	-0.079289	0.999984	0.001004	-0.005596	-0.000469
18710	-0.092951	0.071350	9.733179	-0.097149	-0.005124	-0.079290	0.999984	0.001008	-0.005593	-0.000465
18711	-0.085828	0.075951	9.705171	-0.090011	-0.000401	-0.107257	0.999984	0.001013	-0.005593	-0.000461
18712	-0.089259	0.047299	9.699616	-0.093410	-0.029025	-0.113039	0.999984	0.001011	-0.005590	-0.000465
18713	-0.093314	0.071115	9.733177	-0.097515	-0.005418	-0.079293	0.999984	0.001008	-0.005597	-0.000463
18714	-0.117450	0.051568	9.693053	-0.121824	-0.024627	-0.119582	0.999984	0.001011	-0.005610	-0.000461
18715	-0.100566	0.066415	9.761184	-0.105020	-0.010438	-0.051330	0.999984	0.001018	-0.005601	-0.000471
18716	-0.058077	0.071048	9.711735	-0.062368	-0.005482	-0.100721	0.999984	0.001014	-0.005599	-0.000460
18717	-0.065472	0.066346	9.739741	-0.069782	-0.010406	-0.072756	0.999984	0.001019	-0.005599	-0.000456
18718	-0.093806	0.070863	9.733174	-0.098060	-0.005909	-0.079299	0.999984	0.001024	-0.005596	-0.000460
18719	-0.125431	0.046730	9.721051	-0.129690	-0.029944	-0.091626	0.999984	0.001021	-0.005595	-0.000457
18720	-0.065910	0.066198	9.739739	-0.070103	-0.010700	-0.072759	0.999984	0.001027	-0.005592	-0.000461
18721	-0.094250	0.070641	9.733171	-0.098424	-0.006205	-0.079303	0.999984	0.001024	-0.005592	-0.000457
18722	-0.094405	0.070576	9.733170	-0.098514	-0.006303	-0.079304	0.999984	0.001030	-0.005588	-0.000469
18723	-0.090575	0.046536	9.699607	-0.094681	-0.030107	-0.113054	0.999984	0.001026	-0.005588	-0.000458
18724	-0.090574	0.046371	9.699608	-0.094767	-0.030203	-0.113056	0.999984	0.001023	-0.005600	-0.000464
18725	-0.097751	0.041739	9.727614	-0.102184	-0.035129	-0.085093	0.999984	0.001034	-0.005609	-0.000452
18726	-0.115374	0.079503	9.698599	-0.119865	0.002727	-0.113818	0.999984	0.001034	-0.005606	-0.000453
18727	-0.094457	0.070224	9.733172	-0.098961	-0.006696	-0.079309	0.999984	0.001024	-0.005612	-0.000458
18728	-0.094531	0.070146	9.733172	-0.099051	-0.006793	-0.079310	0.999984	0.001036	-0.005610	-0.000454
18729	-0.097880	0.041639	9.727613	-0.102498	-0.035421	-0.085097	0.999984	0.001036	-0.005610	-0.000454
18730	-0.090684	0.046246	9.699608	-0.095173	-0.030593	-0.113061	0.999984	0.001041	-0.005608	-0.000451
18731	-0.094809	0.070137	9.733170	-0.099280	-0.006991	-0.079312	0.999984	0.001039	-0.005607	-0.000455
18732	-0.094981	0.069850	9.733170	-0.099369	-0.007087	-0.079313	0.999984	0.001021	-0.005602	-0.000461
18733	-0.091089	0.045661	9.699607	-0.095534	-0.030888	-0.113065	0.999984	0.001026	-0.005609	-0.000458
18734	-0.091772	0.098192	9.738730	-0.096285	0.021246	-0.073529	0.999984	0.001025	-0.005607	-0.000458
18735	-0.066875	0.065020	9.739740	-0.071412	-0.011881	-0.072770	0.999984	0.001023	-0.005613	-0.000463
18736	-0.119358	0.049949	9.693038	-0.123892	-0.026480	-0.119614	0.999984	0.001020	-0.005610	-0.000460
18737	-0.074288	0.060167	9.767745	-0.078917	-0.016905	-0.044808	0.999984	0.001024	-0.005618	-0.000456
18738	-0.116137	0.078356	9.698599	-0.120803	0.001850	-0.113829	0.999984	0.001022	-0.005622	-0.000462
18739	-0.095224	0.069155	9.733173	-0.100041	-0.007678	-0.079321	0.999984	0.001028	-0.005628	-0.000474
18740	-0.123402	0.073660	9.726604	-0.128310	-0.003172	-0.085869	0.999983	0.001030	-0.005635	-0.000455
18741	-0.067088	0.064445	9.739742	-0.072081	-0.012472	-0.072775	0.999984	0.001020	-0.005633	-0.000460
18742	-0.098653	0.040167	9.727612	-0.103666	-0.036493	-0.085113	0.999983	0.001017	-0.005637	-0.000458
18743	-0.095369	0.068586	9.733175	-0.100491	-0.008065	-0.079325	0.999983	0.001014	-0.005644	-0.000463
18744	-0.067252	0.063983	9.739744	-0.072400	-0.012762	-0.072778	0.999983	0.001019	-0.005642	-0.000459
18745	-0.098881	0.039941	9.727610	-0.104032	-0.036788	-0.085118	0.999983	0.001025	-0.005640	-0.000470
18746	-0.056831	0.097164	9.717303	-0.062030	0.020397	-0.094952	0.999983	0.001027	-0.005655	-0.000453
18747	-0.119765	0.048948	9.693038	-0.125157	-0.027552	-0.119633	0.999983	0.001023	-0.005655	-0.000442
18748	-0.088506	0.072927	9.705170	-0.093749	-0.003722	-0.107294	0.999983	0.001030	-0.005643	-0.000452
18749	-0.103184	0.063697	9.761175	-0.108461	-0.013483	-0.051371	0.999983	0.001033	-0.005652	-0.000441
18750	-0.091939	0.044270	9.699605	-0.097289	-0.032446	-0.113088	0.999983	0.001031	-0.005655	-0.000454
18751	-0.067819	0.063568	9.739743	-0.073218	-0.013453	-0.072785	0.999983	0.001029	-0.005654	-0.000458
18752	-0.092185	0.044071	9.699604	-0.097514	-0.032641	-0.113091	0.999983	0.001035	-0.005651	-0.000462
18753	-0.117169	0.077111	9.698597	-0.122518	0.000390	-0.113850	0.999983	0.001033	-0.005657	-0.000475
18754	-0.089047	0.072498	9.705168	-0.094428	-0.004311	-0.107300	0.999983	0.001036	-0.005656	-0.000456
18755	-0.096378	0.067868	9.733170	-0.101854	-0.009243	-0.079341	0.999983	0.001042	-0.005662	-0.000468
18756	-0.089195	0.072424	9.705167	-0.094654	-0.004505	-0.107303	0.999983	0.001040	-0.005658	-0.000472
18757	-0.120662	0.048360	9.693030	-0.126287	-0.028525	-0.119650	0.999983	0.001050	-0.005675	-0.000461
18758	-0.099725	0.039190	9.727605	-0.105484	-0.038061	-0.085139	0.999983	0.001047	-0.005672	-0.000458
18759	-0.121401	0.100706	9.732165	-0.127171	0.023497	-0.080103	0.999983	0.001044	-0.005679	-0.000456
18760	-0.096579	0.067525	9.733171	-0.102394	-0.009729	-0.079347	0.999983	0.001049	-0.005676	-0.000459
18761	-0.096653	0.067447	9.733170	-0.102531	-0.009830	-0.079348	0.999983	0.001046	-0.005683	-0.000457
18762	-0.104153	0.062769	9.761171	-0.109911	-0.014760	-0.051389	0.999983	0.001053	-0.005664	-0.000467
18763	-0.086478	0.100521	9.710733	-0.092146	0.023333	-0.101515	0.999983	0.001050	-0.005678	-0.000473
18764	-0.093137	0.043295	9.699598	-0.098870	-0.033811	-0.113108	0.999983	0.001055	-0.005668	-0.000467
18765	-0.090072	0.071808	9.705164	-0.095690	-0.005385	-0.107313	0.999983	0.001054	-0.005666	-0.000479
18766	-0.069317	0.062521	9.739739	-0.074894	-0.014923	-0.072800	0.999983	0.001051	-0.005663	-0.000476
18767	-0.100946	0.038403	9.727595	-0.106527	-0.038940	-0.085154	0.999983	0.001056	-0.005663	-0.000480
18768	-0.090521	0.071595	9.705161	-0.096007	-0.005678	-0.107317	0.999983	0.001061	-0.005660	-0.000476
18769	-0.097876	0.066907	9.733162	-0.103438	-0.010612	-0.079359	0.999983	0.001059	-0.005666	-0.000489
18770	-0.090829	0.071465	9.705159	-0.096235	-0.005872	-0.107319	0.999983	0.001065	-0.005648	-0.000483
18771	-0.126427	0.071286	9.726583	-0.131846	-0.006198	-0.085917	0.999983	0.001060	-0.005664	-0.000474
18772	-0.062776	0.066678	9.711736	-0.068280	-0.010676	-0.100765	0.999983	0.001058	-0.005660	-0.000478
18773	-0.108957	0.033406	9.755590	-0.114506	-0.044362	-0.057205	0.999983	0.001071	-0.005660	-0.000481
18774	-0.098530	0.066681	9.733157	-0.103983	-0.011097	-0.079365	0.999983	0.001076	-0.005657	-0.000485
18775	-0.091407	0.071235	9.705155	-0.096823	-0.006360	-0.107325	0.999983	0.001074	-0.005656	-0.000489
18776	-0.091481	0.071157	9.705155	-0.096913	-0.006453	-0.107326	0.999983	0.001078	-0.005661	-0.000485
18777	-0.119895	0.075628	9.698575	-0.125228	-0.001941	-0.113885	0.999983	0.001078	-0.005644	-0.000496
18778	-0.102509	0.037760	9.727581	-0.107754	-0.040008	-0.085172	0.999983	0.001073	-0.005649	-0.000486
18779	-0.099139	0.066164	9.733154	-0.104572	-0.011583	-0.079372	0.999983	0.001071	-0.005663	-0.000491
18780	-0.091935	0.070706	9.705154	-0.097361	-0.006842	-0.107331	0.999983	0.001075	-0.005653	-0.000487
18781	-0.102810	0.037291	9.727580	-0.108116	-0.040304	-0.085177	0.999983	0.001058	-0.005644	-0.000484
18782	-0.120655	0.074802	9.698572	-0.125764	-0.002422	-0.113892	0.999983	0.001063	-0.005641	-0.000488
18783	-0.079061	0.056495	9.767729	-0.084145	-0.021425	-0.044861	0.999983	0.001068	-0.005633	-0.000483
18784	-0.092906	0.070203	9.705149	-0.097807	-0.007232	-0.107336	0.999983	0.001066	-0.005629	-0.000487
18785	-0.103631	0.036935	9.727573	-0.108564	-0.040694	-0.085183	0.999983	0.001071	-0.005629	-0.000483
18786	-0.100323	0.065490	9.733147	-0.105333	-0.012263	-0.079381	0.999983	0.001074	-0.005642	-0.000480
18787	-0.100397	0.065494	9.733146	-0.105470	-0.012363	-0.079383	0.999983	0.001081	-0.005633	-0.000491
18788	-0.111261	0.032300	9.755567	-0.116184	-0.045820	-0.057232	0.999983	0.001084	-0.005625	-0.000471
18789	-0.093466	0.070029	9.705145	-0.098396	-0.007718	-0.107342	0.999983	0.001082	-0.005638	-0.000484
18790	-0.093552	0.069968	9.705144	-0.098483	-0.007815	-0.107343	0.999983	0.001088	-0.005627	-0.000487
18791	-0.100990	0.065281	9.733141	-0.105922	-0.012755	-0.079388	0.999983	0.001086	-0.005634	-0.000492
18792	-0.101064	0.065285	9.733140	-0.106006	-0.012850	-0.079389	0.999983	0.001099	-0.005631	-0.000495
18793	-0.101126	0.065355	9.733139	-0.106143	-0.012950	-0.079391	0.999983	0.001103	-0.005639	-0.000492
18794	-0.072941	0.060736	9.739724	-0.078054	-0.017662	-0.072830	0.999983	0.001100	-0.005643	-0.000497
18795	-0.065669	0.065293	9.711727	-0.070887	-0.012921	-0.100786	0.999983	0.001106	-0.005649	-0.000509
18796	-0.104422	0.036618	9.727566	-0.109778	-0.041763	-0.085202	0.999983	0.001108	-0.005656	-0.000491
18797	-0.090616	0.098141	9.710719	-0.095966	0.020023	-0.101544	0.999983	0.001091	-0.005653	-0.000496
18798	-0.069191	0.036165	9.706152	-0.074520	-0.041736	-0.106597	0.999983	0.001088	-0.005650	-0.000494
18799	-0.090847	0.097759	9.710721	-0.096188	0.019827	-0.101546	0.999983	0.001092	-0.005658	-0.000490
18800	-0.104728	0.035910	9.727565	-0.110225	-0.042154	-0.085208	0.999983	0.001090	-0.005662	-0.000495
18801	-0.073475	0.059799	9.739726	-0.078863	-0.018351	-0.072837	0.999983	0.001088	-0.005646	-0.000490
18802	-0.094600	0.068819	9.705142	-0.099821	-0.008984	-0.107358	0.999983	0.001085	-0.005650	-0.000496
18803	-0.073628	0.059486	9.739727	-0.079089	-0.018546	-0.072840	0.999983	0.001080	-0.005665	-0.000486
18804	-0.094585	0.068555	9.705144	-0.100041	-0.009180	-0.107360	0.999983	0.001085	-0.005655	-0.000482
18805	-0.098808	0.092366	9.738719	-0.104162	0.014399	-0.073597	0.999983	0.001077	-0.005652	-0.000494
18806	-0.094911	0.068204	9.705144	-0.100262	-0.009378	-0.107362	0.999983	0.001073	-0.005657	-0.000493
18807	-0.105572	0.034929	9.727559	-0.111031	-0.042843	-0.085220	0.999983	0.001079	-0.005656	-0.000496
18808	-0.099047	0.091992	9.738720	-0.104469	0.014105	-0.073600	0.999983	0.001075	-0.005661	-0.000494
18809	-0.095205	0.067892	9.705143	-0.100620	-0.009673	-0.107366	0.999983	0.001073	-0.005652	-0.000490
18810	-0.095358	0.067744	9.705142	-0.100707	-0.009766	-0.107367	0.999983	0.001070	-0.005656	-0.000495
18811	-0.095519	0.067688	9.705141	-0.100843	-0.009866	-0.107369	0.999983	0.001077	-0.005647	-0.000505
18812	-0.102958	0.063069	9.733135	-0.108239	-0.014808	-0.079416	0.999983	0.001081	-0.005652	-0.000502
18813	-0.099040	0.038966	9.699558	-0.104389	-0.038585	-0.113184	0.999983	0.001071	-0.005651	-0.000499
18814	-0.078222	0.029634	9.734142	-0.083613	-0.048150	-0.078664	0.999983	0.001075	-0.005656	-0.000497
18815	-0.116777	0.076469	9.670556	-0.122150	-0.000792	-0.141895	0.999983	0.001073	-0.005655	-0.000501
18816	-0.075143	0.058052	9.739724	-0.080511	-0.019823	-0.072854	0.999983	0.001077	-0.005652	-0.000497
18817	-0.075279	0.058043	9.739723	-0.080648	-0.019923	-0.072855	0.999983	0.001082	-0.005653	-0.000493
18818	-0.096243	0.067137	9.705138	-0.101597	-0.010548	-0.107378	0.999983	0.001079	-0.005656	-0.000498
18819	-0.100233	0.090996	9.738717	-0.105720	0.013027	-0.073612	0.999983	0.001083	-0.005664	-0.000494
18820	-0.092472	0.043045	9.671558	-0.097832	-0.034417	-0.141147	0.999983	0.001082	-0.005645	-0.000497
18821	-0.100591	0.090917	9.738714	-0.105943	0.012832	-0.073614	0.999983	0.001092	-0.005662	-0.000486
18822	-0.078989	0.029281	9.734137	-0.084510	-0.048928	-0.078676	0.999983	0.001097	-0.005659	-0.000482
18823	-0.104009	0.062314	9.733129	-0.109494	-0.015882	-0.079432	0.999983	0.001094	-0.005659	-0.000479
18824	-0.096788	0.066782	9.705135	-0.102263	-0.011131	-0.107385	0.999983	0.001090	-0.005663	-0.000477
18825	-0.104088	0.061996	9.733130	-0.109715	-0.016078	-0.079435	0.999983	0.001088	-0.005669	-0.000482
18826	-0.104310	0.061927	9.733128	-0.109799	-0.016173	-0.079436	0.999983	0.001093	-0.005651	-0.000476
18827	-0.097224	0.066552	9.705132	-0.102619	-0.011426	-0.107389	0.999983	0.001097	-0.005659	-0.000473
18828	-0.104582	0.061992	9.733125	-0.110022	-0.016366	-0.079439	0.999983	0.001110	-0.005657	-0.000475
18829	-0.104650	0.061988	9.733124	-0.110159	-0.016466	-0.079441	0.999983	0.001107	-0.005664	-0.000473
18830	-0.076475	0.057283	9.739718	-0.082076	-0.021190	-0.072870	0.999983	0.001104	-0.005668	-0.000478
18831	-0.076549	0.057205	9.739718	-0.082213	-0.021290	-0.072871	0.999983	0.001109	-0.005668	-0.000474
18832	-0.104866	0.061827	9.733123	-0.110475	-0.016757	-0.079445	0.999983	0.001122	-0.005665	-0.000477
18833	-0.097723	0.066474	9.705128	-0.103293	-0.012008	-0.107397	0.999983	0.001121	-0.005663	-0.000489
18834	-0.122150	0.046958	9.664952	-0.127564	-0.031146	-0.147741	0.999983	0.001119	-0.005652	-0.000493
18835	-0.098049	0.066205	9.705126	-0.103517	-0.012204	-0.107400	0.999983	0.001116	-0.005666	-0.000499
18836	-0.077167	0.056860	9.739715	-0.082754	-0.021780	-0.072877	0.999983	0.001112	-0.005664	-0.000488
18837	-0.105401	0.061306	9.733120	-0.111062	-0.017250	-0.079452	0.999983	0.001115	-0.005672	-0.000477
18838	-0.101395	0.037269	9.699540	-0.107162	-0.041014	-0.113224	0.999983	0.001112	-0.005677	-0.000475
18839	-0.105455	0.061119	9.733121	-0.111289	-0.017445	-0.079455	0.999983	0.001117	-0.005677	-0.000471
18840	-0.070112	0.061190	9.711722	-0.075882	-0.017324	-0.100831	0.999983	0.001121	-0.005674	-0.000468
18841	-0.105666	0.061115	9.733119	-0.111511	-0.017643	-0.079458	0.999983	0.001127	-0.005681	-0.000479
18842	-0.105814	0.061041	9.733117	-0.111600	-0.017737	-0.079459	0.999983	0.001124	-0.005671	-0.000468
18843	-0.077708	0.056328	9.739714	-0.083565	-0.022469	-0.072885	0.999983	0.001121	-0.005685	-0.000474
18844	-0.098585	0.065347	9.705127	-0.104499	-0.013079	-0.107411	0.999983	0.001116	-0.005682	-0.000463
18845	-0.098640	0.065326	9.705126	-0.104635	-0.013178	-0.107413	0.999983	0.001128	-0.005690	-0.000458
18846	-0.074509	0.084769	9.745303	-0.080541	0.005759	-0.067065	0.999983	0.001133	-0.005688	-0.000455
18847	-0.105984	0.060738	9.733117	-0.112179	-0.018227	-0.079467	0.999983	0.001137	-0.005703	-0.000452
18848	-0.105983	0.060656	9.733118	-0.112270	-0.018321	-0.079468	0.999983	0.001134	-0.005699	-0.000457
18849	-0.070422	0.060636	9.711724	-0.076913	-0.018203	-0.100841	0.999983	0.001137	-0.005723	-0.000447
18850	-0.105895	0.060469	9.733120	-0.112494	-0.018521	-0.079471	0.999983	0.001135	-0.005712	-0.000452
18851	-0.098754	0.065045	9.705127	-0.105305	-0.013768	-0.107421	0.999983	0.001141	-0.005718	-0.000464
18852	-0.077976	0.055648	9.739715	-0.084544	-0.023353	-0.072896	0.999983	0.001124	-0.005713	-0.000470
18853	-0.098852	0.064672	9.705128	-0.105525	-0.013965	-0.107424	0.999983	0.001134	-0.005729	-0.000459
18854	-0.091525	0.069352	9.677137	-0.098287	-0.009206	-0.135373	0.999983	0.001139	-0.005727	-0.000455
18855	-0.102211	0.036075	9.699536	-0.109082	-0.042677	-0.113253	0.999983	0.001136	-0.005733	-0.000460
18856	-0.106207	0.059852	9.733121	-0.113161	-0.019108	-0.079480	0.999983	0.001133	-0.005738	-0.000458
18857	-0.106281	0.059691	9.733121	-0.113298	-0.019208	-0.079482	0.999983	0.001130	-0.005737	-0.000455
18858	-0.085485	0.050347	9.767709	-0.092546	-0.028795	-0.044956	0.999983	0.001127	-0.005741	-0.000460
18859	-0.134625	0.063954	9.726524	-0.141693	-0.014767	-0.086065	0.999983	0.001125	-0.005740	-0.000465
18860	-0.078268	0.054838	9.739718	-0.085441	-0.024139	-0.072905	0.999983	0.001138	-0.005753	-0.000470
18861	-0.124084	0.097077	9.704126	-0.131254	0.018409	-0.108187	0.999983	0.001127	-0.005744	-0.000466
18862	-0.074505	0.030680	9.706132	-0.081671	-0.047996	-0.106683	0.999983	0.001127	-0.005741	-0.000467
18863	-0.085874	0.049897	9.767708	-0.092995	-0.029190	-0.044961	0.999983	0.001124	-0.005741	-0.000463
18864	-0.099511	0.063640	9.705129	-0.106593	-0.014934	-0.107437	0.999983	0.001128	-0.005746	-0.000460
18865	-0.106815	0.058922	9.733120	-0.114058	-0.019889	-0.079492	0.999983	0.001126	-0.005752	-0.000465
18866	-0.103501	0.087323	9.738716	-0.110809	0.008535	-0.073664	0.999983	0.001121	-0.005757	-0.000455
18867	-0.106887	0.058597	9.733121	-0.114280	-0.020082	-0.079495	0.999983	0.001119	-0.005756	-0.000459
18868	-0.071614	0.058585	9.711727	-0.078869	-0.019957	-0.100860	0.999983	0.001122	-0.005747	-0.000439
18869	-0.079136	0.053787	9.739717	-0.086335	-0.024913	-0.072915	0.999983	0.001112	-0.005745	-0.000444
18870	-0.079302	0.053574	9.739716	-0.086424	-0.025008	-0.072916	0.999983	0.001110	-0.005742	-0.000448
18871	-0.100172	0.062691	9.705128	-0.107396	-0.015611	-0.107447	0.999983	0.001114	-0.005757	-0.000446
18872	-0.096863	0.091101	9.710728	-0.104148	0.012810	-0.101616	0.999983	0.001104	-0.005753	-0.000451
18873	-0.093036	0.066961	9.677139	-0.100287	-0.010949	-0.135395	0.999983	0.001102	-0.005751	-0.000455
18874	-0.079560	0.052978	9.739718	-0.086871	-0.025402	-0.072921	0.999983	0.001100	-0.005755	-0.000461
18875	-0.100429	0.062097	9.705129	-0.107842	-0.016002	-0.107452	0.999983	0.001104	-0.005763	-0.000458
18876	-0.093022	0.066780	9.677141	-0.100594	-0.011239	-0.135399	0.999983	0.001114	-0.005777	-0.000447
18877	-0.107636	0.057420	9.733119	-0.115397	-0.021056	-0.079510	0.999983	0.001105	-0.005774	-0.000460
18878	-0.093188	0.066568	9.677141	-0.100814	-0.011435	-0.135401	0.999983	0.001111	-0.005771	-0.000464
18879	-0.107951	0.057298	9.733117	-0.115618	-0.021252	-0.079513	0.999983	0.001116	-0.005770	-0.000467
18880	-0.079917	0.052733	9.739716	-0.087538	-0.025989	-0.072929	0.999983	0.001121	-0.005768	-0.000463
18881	-0.108167	0.057220	9.733115	-0.115841	-0.021445	-0.079516	0.999983	0.001118	-0.005774	-0.000468
18882	-0.108414	0.057019	9.733113	-0.115924	-0.021539	-0.079518	0.999983	0.001110	-0.005754	-0.000479
18883	-0.098098	0.090012	9.710725	-0.105387	0.011736	-0.101628	0.999983	0.001106	-0.005754	-0.000468
18884	-0.077293	0.080710	9.745316	-0.084642	0.002138	-0.067098	0.999983	0.001110	-0.005759	-0.000465
18885	-0.073439	0.056621	9.711725	-0.080779	-0.021617	-0.100879	0.999983	0.001099	-0.005751	-0.000454
18886	-0.101748	0.061014	9.705122	-0.109037	-0.017066	-0.107468	0.999983	0.001102	-0.005757	-0.000443
18887	-0.073629	0.056507	9.711725	-0.081007	-0.021811	-0.100882	0.999983	0.001116	-0.005757	-0.000446
18888	-0.073777	0.056516	9.711723	-0.081091	-0.021906	-0.100882	0.999983	0.001113	-0.005753	-0.000450
18889	-0.109350	0.056299	9.733107	-0.116731	-0.022221	-0.079529	0.999983	0.001111	-0.005759	-0.000455
18890	-0.091406	0.093982	9.682738	-0.098800	0.015920	-0.129579	0.999983	0.001106	-0.005764	-0.000446
18891	-0.109571	0.055982	9.733106	-0.116952	-0.022417	-0.079532	0.999983	0.001105	-0.005748	-0.000448
18892	-0.088859	0.046779	9.767696	-0.096206	-0.032019	-0.045001	0.999983	0.001117	-0.005760	-0.000452
18893	-0.113722	0.079838	9.766697	-0.121169	0.001043	-0.045754	0.999983	0.001108	-0.005758	-0.000457
18894	-0.106574	0.084267	9.738710	-0.113912	0.005806	-0.073697	0.999983	0.001106	-0.005754	-0.000462
18895	-0.109978	0.055560	9.733104	-0.117388	-0.022808	-0.079538	0.999983	0.001103	-0.005761	-0.000467
18896	-0.102669	0.060048	9.705119	-0.110131	-0.018041	-0.107482	0.999983	0.001100	-0.005765	-0.000465
18897	-0.102662	0.059957	9.705119	-0.110267	-0.018141	-0.107483	0.999983	0.001104	-0.005773	-0.000462
18898	-0.110125	0.055239	9.733104	-0.117693	-0.023098	-0.079542	0.999983	0.001102	-0.005761	-0.000465
18899	-0.079016	0.079105	9.745315	-0.086325	0.000666	-0.067113	0.999983	0.001101	-0.005745	-0.000468
18900	-0.103439	0.059558	9.705113	-0.110570	-0.018430	-0.107487	0.999983	0.001092	-0.005747	-0.000482
18901	-0.110829	0.054834	9.733099	-0.118048	-0.023394	-0.079547	0.999983	0.001103	-0.005748	-0.000469
18902	-0.079386	0.078879	9.745314	-0.086622	0.000375	-0.067116	0.999983	0.001107	-0.005753	-0.000466
18903	-0.082773	0.050229	9.739705	-0.090099	-0.028239	-0.072958	0.999983	0.001104	-0.005752	-0.000463
18904	-0.072277	0.083354	9.717329	-0.079501	0.005045	-0.095059	0.999983	0.001108	-0.005750	-0.000459
18905	-0.111230	0.054635	9.733095	-0.118486	-0.023782	-0.079554	0.999983	0.001105	-0.005749	-0.000455
18906	-0.093352	0.092338	9.682735	-0.100540	0.014367	-0.129594	0.999983	0.001103	-0.005753	-0.000460
18907	-0.083136	0.049828	9.739704	-0.090542	-0.028628	-0.072964	0.999983	0.001107	-0.005761	-0.000457
18908	-0.108149	0.082824	9.738705	-0.115447	0.004442	-0.073715	0.999983	0.001099	-0.005748	-0.000469
18909	-0.104229	0.058756	9.705110	-0.111580	-0.019306	-0.107501	0.999983	0.001101	-0.005764	-0.000459
18910	-0.118862	0.049371	9.761079	-0.126352	-0.029133	-0.051621	0.999983	0.001099	-0.005760	-0.000464
18911	-0.076142	0.053875	9.711720	-0.083633	-0.024154	-0.100909	0.999983	0.001089	-0.005765	-0.000470
18912	-0.104320	0.058375	9.705111	-0.111879	-0.019591	-0.107505	0.999983	0.001101	-0.005770	-0.000472
18913	-0.104246	0.058288	9.705112	-0.112015	-0.019691	-0.107506	0.999983	0.001090	-0.005784	-0.000471
18914	-0.108392	0.082046	9.738709	-0.116104	0.003862	-0.073722	0.999983	0.001095	-0.005766	-0.000466
18915	-0.104516	0.058189	9.705110	-0.112236	-0.019883	-0.107509	0.999983	0.001106	-0.005783	-0.000455
18916	-0.080243	0.077570	9.745318	-0.088164	-0.000989	-0.067129	0.999983	0.001110	-0.005788	-0.000452
18917	-0.108495	0.081994	9.738708	-0.116463	0.003566	-0.073726	0.999983	0.001100	-0.005786	-0.000457
18918	-0.083811	0.048643	9.739705	-0.091731	-0.029698	-0.072978	0.999983	0.001098	-0.005782	-0.000462
18919	-0.136237	0.033814	9.692885	-0.144187	-0.044132	-0.119959	0.999983	0.001098	-0.005782	-0.000462
18920	-0.084040	0.048499	9.739703	-0.091811	-0.029795	-0.072979	0.999983	0.001095	-0.005771	-0.000458
18921	-0.137208	0.086058	9.732095	-0.144928	0.007928	-0.080327	0.999983	0.001092	-0.005778	-0.000456
18922	-0.080945	0.076834	9.745318	-0.088689	-0.001481	-0.067134	0.999983	0.001098	-0.005774	-0.000468
18923	-0.105129	0.057435	9.705108	-0.112982	-0.020568	-0.107519	0.999983	0.001096	-0.005788	-0.000473
18924	-0.077020	0.052927	9.711719	-0.084899	-0.025318	-0.100923	0.999983	0.001116	-0.005779	-0.000467
18925	-0.081155	0.076829	9.745316	-0.089041	-0.001775	-0.067138	0.999983	0.001105	-0.005786	-0.000465
18926	-0.112723	0.052603	9.733089	-0.120631	-0.025727	-0.079585	0.999983	0.001101	-0.005783	-0.000455
18927	-0.105534	0.057080	9.705106	-0.113416	-0.020958	-0.107525	0.999983	0.001097	-0.005783	-0.000444
18928	-0.109675	0.080908	9.738704	-0.117505	0.002590	-0.073739	0.999983	0.001102	-0.005780	-0.000448
18929	-0.105823	0.056924	9.705103	-0.113635	-0.021152	-0.107528	0.999983	0.001099	-0.005779	-0.000444
18930	-0.113203	0.052252	9.733085	-0.121074	-0.026115	-0.079591	0.999983	0.001110	-0.005785	-0.000433
18931	-0.102613	0.085451	9.710720	-0.110511	0.007166	-0.101681	0.999983	0.001108	-0.005784	-0.000437
18932	-0.141596	0.056847	9.726469	-0.149458	-0.021648	-0.086194	0.999983	0.001122	-0.005780	-0.000455
18933	-0.074765	0.080839	9.717331	-0.082573	0.002315	-0.095083	0.999983	0.001112	-0.005779	-0.000452
18934	-0.081483	0.023631	9.706096	-0.089340	-0.054808	-0.106787	0.999983	0.001124	-0.005784	-0.000449
18935	-0.103069	0.085247	9.710717	-0.110944	0.006774	-0.101686	0.999983	0.001113	-0.005783	-0.000446
18936	-0.117128	0.023323	9.727462	-0.125077	-0.055213	-0.085453	0.999983	0.001113	-0.005780	-0.000447
18937	-0.082299	0.075852	9.745314	-0.090223	-0.002852	-0.067149	0.999983	0.001117	-0.005788	-0.000443
18938	-0.078520	0.051957	9.711712	-0.086300	-0.026588	-0.100939	0.999983	0.001125	-0.005769	-0.000453
18939	-0.054513	0.071226	9.751927	-0.062284	-0.007710	-0.060550	0.999983	0.001122	-0.005783	-0.000459
18940	-0.110927	0.080313	9.738695	-0.118693	0.001520	-0.073753	0.999983	0.001126	-0.005773	-0.000454
18941	-0.103826	0.084822	9.710712	-0.111473	0.006292	-0.101691	0.999983	0.001117	-0.005771	-0.000459
18942	-0.075748	0.080022	9.717330	-0.083394	0.001537	-0.095090	0.999983	0.001114	-0.005775	-0.000464
18943	-0.075772	0.079727	9.717332	-0.083529	0.001437	-0.095091	0.999983	0.001096	-0.005780	-0.000471
18944	-0.068540	0.084090	9.689353	-0.076253	0.006217	-0.123029	0.999983	0.001094	-0.005776	-0.000475
18945	-0.107507	0.055460	9.705093	-0.115254	-0.022603	-0.107551	0.999983	0.001106	-0.005776	-0.000470
18946	-0.075992	0.079492	9.717333	-0.083827	0.001151	-0.095094	0.999983	0.001110	-0.005789	-0.000467
18947	-0.111503	0.079191	9.738698	-0.119480	0.000841	-0.073762	0.999983	0.001093	-0.005786	-0.000473
18948	-0.100329	0.059803	9.677113	-0.108201	-0.018016	-0.135491	0.999983	0.001106	-0.005784	-0.000476
18949	-0.083569	0.074472	9.745314	-0.091545	-0.004017	-0.067161	0.999983	0.001103	-0.005790	-0.000481
18950	-0.076318	0.079057	9.717334	-0.084271	0.000766	-0.095098	0.999983	0.001108	-0.005787	-0.000484
18951	-0.100562	0.059669	9.677112	-0.108555	-0.018305	-0.135495	0.999982	0.001106	-0.005793	-0.000489
18952	-0.079799	0.050351	9.711710	-0.087834	-0.027940	-0.100957	0.999983	0.001110	-0.005790	-0.000486
18953	-0.112115	0.078839	9.738693	-0.120139	0.000260	-0.073770	0.999982	0.001116	-0.005790	-0.000489
18954	-0.087502	0.045634	9.739687	-0.095414	-0.033010	-0.073024	0.999983	0.001114	-0.005778	-0.000493
18955	-0.115819	0.050145	9.733066	-0.123709	-0.028444	-0.079631	0.999983	0.001118	-0.005786	-0.000489
18956	-0.105145	0.083343	9.710711	-0.113083	0.004842	-0.101709	0.999982	0.001123	-0.005791	-0.000487
18957	-0.076963	0.078657	9.717332	-0.085060	0.000075	-0.095105	0.999982	0.001118	-0.005798	-0.000477
18958	-0.080438	0.049942	9.711707	-0.088490	-0.028533	-0.100964	0.999983	0.001117	-0.005787	-0.000481
18959	-0.077264	0.078353	9.717332	-0.085275	-0.000124	-0.095107	0.999982	0.001113	-0.005794	-0.000479
18960	-0.088012	0.044911	9.739685	-0.096069	-0.033599	-0.073032	0.999983	0.001103	-0.005789	-0.000483
18961	-0.101601	0.058433	9.677108	-0.109637	-0.019279	-0.135509	0.999983	0.001084	-0.005795	-0.000475
18962	-0.105693	0.082107	9.710716	-0.113736	0.004257	-0.101716	0.999983	0.001090	-0.005792	-0.000487
18963	-0.085010	0.072951	9.745313	-0.093077	-0.005388	-0.067177	0.999983	0.001103	-0.005791	-0.000489
18964	-0.101983	0.058308	9.677105	-0.109938	-0.019570	-0.135513	0.999983	0.001101	-0.005787	-0.000494
18965	-0.109478	0.053428	9.705083	-0.117437	-0.024547	-0.107582	0.999983	0.001091	-0.005786	-0.000491
18966	-0.110236	0.105649	9.744320	-0.118174	0.027502	-0.067926	0.999983	0.001087	-0.005790	-0.000488
18967	-0.074133	0.053113	9.683728	-0.082127	-0.024529	-0.128909	0.999983	0.001085	-0.005789	-0.000493
18968	-0.106381	0.081522	9.710713	-0.114374	0.003678	-0.101724	0.999983	0.001089	-0.005793	-0.000489
18969	-0.113650	0.076700	9.738693	-0.121875	-0.001299	-0.073792	0.999982	0.001078	-0.005807	-0.000496
18970	-0.109709	0.052717	9.705084	-0.117949	-0.025018	-0.107589	0.999982	0.001089	-0.005798	-0.000482
18971	-0.088954	0.043305	9.739684	-0.097294	-0.034667	-0.073048	0.999982	0.001071	-0.005811	-0.000489
18972	-0.088977	0.043009	9.739685	-0.097381	-0.034763	-0.073050	0.999982	0.001069	-0.005807	-0.000494
18973	-0.106556	0.080750	9.710718	-0.114954	0.003195	-0.101730	0.999982	0.001069	-0.005807	-0.000494
18974	-0.081719	0.047519	9.711708	-0.090102	-0.029979	-0.100983	0.999982	0.001066	-0.005811	-0.000492
18975	-0.106622	0.080581	9.710718	-0.115040	0.003100	-0.101731	0.999982	0.001070	-0.005811	-0.000488
18976	-0.081940	0.047285	9.711707	-0.090314	-0.030170	-0.100986	0.999982	0.001060	-0.005807	-0.000492
18977	-0.089365	0.042312	9.739685	-0.097817	-0.035150	-0.073055	0.999982	0.001048	-0.005814	-0.000483
18978	-0.057860	0.066184	9.751943	-0.066390	-0.011409	-0.060580	0.999982	0.001061	-0.005818	-0.000487
18979	-0.110334	0.051569	9.705083	-0.118823	-0.025791	-0.107602	0.999982	0.001068	-0.005809	-0.000497
18980	-0.107162	0.079987	9.710717	-0.115553	0.002620	-0.101737	0.999982	0.001057	-0.005813	-0.000496
18981	-0.082401	0.046759	9.711706	-0.090887	-0.030660	-0.100993	0.999982	0.001070	-0.005813	-0.000498
18982	-0.107372	0.079983	9.710715	-0.115776	0.002427	-0.101740	0.999982	0.001074	-0.005811	-0.000494
18983	-0.079273	0.075385	9.717339	-0.087756	-0.002347	-0.095129	0.999982	0.001074	-0.005811	-0.000494
18984	-0.114848	0.075310	9.738690	-0.123228	-0.002546	-0.073809	0.999982	0.001079	-0.005808	-0.000490
18985	-0.100305	0.084474	9.682737	-0.108623	0.007116	-0.129674	0.999982	0.001067	-0.005807	-0.000480
18986	-0.090322	0.041698	9.739679	-0.098647	-0.035922	-0.073067	0.999982	0.001058	-0.005802	-0.000493
18987	-0.079881	0.074785	9.717339	-0.088057	-0.002634	-0.095132	0.999983	0.001063	-0.005795	-0.000488
18988	-0.118784	0.046229	9.733049	-0.127028	-0.031441	-0.079683	0.999982	0.001075	-0.005807	-0.000493
18989	-0.083344	0.046294	9.711700	-0.091637	-0.031335	-0.101002	0.999982	0.001073	-0.005799	-0.000489
18990	-0.080232	0.074698	9.717337	-0.088366	-0.002925	-0.095135	0.999983	0.001070	-0.005796	-0.000486
18991	-0.115802	0.074615	9.738684	-0.124028	-0.003231	-0.073820	0.999982	0.001082	-0.005804	-0.000482
18992	-0.091107	0.041454	9.739672	-0.099312	-0.036507	-0.073075	0.999983	0.001079	-0.005793	-0.000478
18993	-0.080656	0.074532	9.717334	-0.088719	-0.003219	-0.095138	0.999983	0.001077	-0.005792	-0.000482
18994	-0.084065	0.045981	9.711695	-0.092165	-0.031820	-0.101009	0.999982	0.001089	-0.005797	-0.000486
18995	-0.119724	0.046004	9.733039	-0.127829	-0.032126	-0.079696	0.999983	0.001096	-0.005788	-0.000496
18996	-0.109190	0.079069	9.710702	-0.117181	0.001169	-0.101757	0.999983	0.001083	-0.005793	-0.000480
18997	-0.112585	0.050336	9.705064	-0.120674	-0.027436	-0.107629	0.999983	0.001088	-0.005793	-0.000476
18998	-0.084483	0.045724	9.711693	-0.092606	-0.032208	-0.101014	0.999982	0.001092	-0.005798	-0.000472
18999	-0.088556	0.069683	9.745305	-0.096760	-0.008687	-0.067215	0.999982	0.001105	-0.005798	-0.000475
19000	-0.091967	0.041132	9.739666	-0.100201	-0.037285	-0.073088	0.999982	0.001102	-0.005802	-0.000480
19001	-0.081370	0.074292	9.717330	-0.089603	-0.003996	-0.095146	0.999982	0.001109	-0.005801	-0.000491
19002	-0.116868	0.074208	9.738674	-0.125216	-0.004293	-0.073835	0.999982	0.001110	-0.005815	-0.000473
19003	-0.116781	0.074187	9.738675	-0.125352	-0.004393	-0.073837	0.999982	0.001116	-0.005821	-0.000485
19004	-0.092176	0.040962	9.739664	-0.100644	-0.037674	-0.073094	0.999982	0.001113	-0.005803	-0.000473
19005	-0.109808	0.078554	9.710699	-0.118197	0.000297	-0.101769	0.999982	0.001103	-0.005817	-0.000480
19006	-0.105734	0.054515	9.677087	-0.114259	-0.023420	-0.135572	0.999982	0.001103	-0.005814	-0.000481
19007	-0.081576	0.073792	9.717332	-0.090125	-0.004482	-0.095151	0.999982	0.001107	-0.005821	-0.000477
19008	-0.084987	0.045159	9.711691	-0.093567	-0.033082	-0.101026	0.999982	0.001105	-0.005817	-0.000482
19009	-0.117309	0.073492	9.738674	-0.125875	-0.004881	-0.073844	0.999982	0.001101	-0.005817	-0.000471
19010	-0.085282	0.044929	9.711690	-0.093786	-0.033274	-0.101029	0.999982	0.001107	-0.005813	-0.000482
19011	-0.110095	0.078151	9.710699	-0.118715	-0.000187	-0.101775	0.999982	0.001117	-0.005830	-0.000471
19012	-0.110230	0.078142	9.710698	-0.118794	-0.000277	-0.101776	0.999982	0.001116	-0.005811	-0.000473
19013	-0.114470	0.101885	9.744311	-0.122950	0.023241	-0.067974	0.999982	0.001112	-0.005818	-0.000471
19014	-0.082294	0.073231	9.717331	-0.090859	-0.005152	-0.095159	0.999982	0.001109	-0.005822	-0.000468
19015	-0.113794	0.049199	9.705056	-0.122507	-0.029072	-0.107657	0.999982	0.001109	-0.005822	-0.000468
19016	-0.078287	0.049189	9.683716	-0.086920	-0.028862	-0.128963	0.999982	0.001106	-0.005825	-0.000473
19017	-0.117892	0.072858	9.738672	-0.126609	-0.005549	-0.073854	0.999982	0.001103	-0.005825	-0.000470
19018	-0.075329	0.077535	9.689358	-0.083778	-0.000550	-0.123089	0.999982	0.001110	-0.005806	-0.000479
19019	-0.082817	0.072940	9.717328	-0.091295	-0.005538	-0.095163	0.999982	0.001121	-0.005822	-0.000468
19020	-0.111114	0.077536	9.710693	-0.119527	-0.000951	-0.101785	0.999982	0.001119	-0.005803	-0.000472
19021	-0.083100	0.072857	9.717327	-0.091511	-0.005736	-0.095165	0.999982	0.001123	-0.005818	-0.000469
19022	-0.086427	0.044286	9.711683	-0.094958	-0.034332	-0.101044	0.999982	0.001127	-0.005815	-0.000465
19023	-0.083228	0.072757	9.717326	-0.091732	-0.005928	-0.095167	0.999982	0.001124	-0.005815	-0.000462
19024	-0.111605	0.077285	9.710689	-0.119967	-0.001338	-0.101791	0.999982	0.001129	-0.005805	-0.000457
19025	-0.087001	0.044129	9.711678	-0.095313	-0.034627	-0.101049	0.999982	0.001135	-0.005804	-0.000461
19026	-0.087816	0.096566	9.750938	-0.096055	0.017400	-0.061364	0.999982	0.001139	-0.005801	-0.000456
19027	-0.083862	0.072669	9.717321	-0.092168	-0.006314	-0.095172	0.999982	0.001143	-0.005809	-0.000453
19028	-0.112022	0.077112	9.710686	-0.120401	-0.001724	-0.101796	0.999982	0.001132	-0.005812	-0.000452
19029	-0.087215	0.043721	9.711678	-0.095748	-0.035014	-0.101054	0.999982	0.001130	-0.005819	-0.000457
19030	-0.112113	0.076731	9.710688	-0.120624	-0.001917	-0.101799	0.999982	0.001127	-0.005816	-0.000454
19031	-0.091457	0.067377	9.745295	-0.099995	-0.011595	-0.067250	0.999982	0.001132	-0.005815	-0.000457
19032	-0.108319	0.052697	9.677068	-0.116816	-0.025724	-0.135608	0.999982	0.001129	-0.005819	-0.000455
19033	-0.123108	0.043360	9.733009	-0.131725	-0.035606	-0.079760	0.999982	0.001143	-0.005819	-0.000466
19034	-0.091748	0.067386	9.745292	-0.100296	-0.011885	-0.067254	0.999982	0.001147	-0.005816	-0.000462
19035	-0.115967	0.048118	9.705035	-0.124558	-0.030907	-0.107689	0.999982	0.001153	-0.005822	-0.000473
19036	-0.088567	0.095882	9.750938	-0.097149	0.016422	-0.061374	0.999982	0.001151	-0.005818	-0.000478
19037	-0.116207	0.047910	9.705033	-0.124774	-0.031101	-0.107692	0.999982	0.001148	-0.005817	-0.000475
19038	-0.092212	0.067107	9.745289	-0.100737	-0.012275	-0.067259	0.999982	0.001153	-0.005814	-0.000478
19039	-0.109744	0.104945	9.716327	-0.118269	0.025710	-0.095928	0.999982	0.001153	-0.005814	-0.000478
19040	-0.084932	0.071627	9.717320	-0.093432	-0.007474	-0.095184	0.999982	0.001142	-0.005818	-0.000477
19041	-0.085086	0.071479	9.717320	-0.093567	-0.007574	-0.095186	0.999982	0.001148	-0.005810	-0.000479
19042	-0.116656	0.047533	9.705030	-0.125164	-0.031484	-0.107698	0.999982	0.001152	-0.005822	-0.000478
19043	-0.085079	0.071470	9.717320	-0.093785	-0.007773	-0.095188	0.999982	0.001158	-0.005829	-0.000489
19044	-0.113326	0.076020	9.710679	-0.122021	-0.003178	-0.101817	0.999982	0.001156	-0.005825	-0.000495
19045	-0.096024	0.038120	9.739639	-0.104763	-0.041365	-0.073152	0.999982	0.001161	-0.005824	-0.000498
19046	-0.120989	0.071291	9.738645	-0.129626	-0.008261	-0.073896	0.999982	0.001166	-0.005821	-0.000501
19047	-0.088966	0.042736	9.711667	-0.097587	-0.036662	-0.101079	0.999982	0.001164	-0.005819	-0.000505
19048	-0.085697	0.071210	9.717316	-0.094305	-0.008256	-0.095194	0.999982	0.001168	-0.005824	-0.000502
19049	-0.093045	0.066437	9.745286	-0.101832	-0.013250	-0.067272	0.999982	0.001164	-0.005832	-0.000492
19050	-0.113977	0.075713	9.710674	-0.122672	-0.003755	-0.101825	0.999982	0.001177	-0.005822	-0.000494
19051	-0.089396	0.042414	9.711664	-0.098025	-0.037050	-0.101085	0.999982	0.001160	-0.005819	-0.000500
19052	-0.117567	0.046879	9.705022	-0.126254	-0.032448	-0.107715	0.999982	0.001172	-0.005831	-0.000504
19053	-0.078701	0.075492	9.689347	-0.087481	-0.003846	-0.123122	0.999982	0.001170	-0.005830	-0.000509
19054	-0.086212	0.070745	9.717315	-0.094955	-0.008841	-0.095200	0.999982	0.001175	-0.005827	-0.000506
19055	-0.093730	0.065923	9.745283	-0.102485	-0.013837	-0.067279	0.999982	0.001165	-0.005825	-0.000511
19056	-0.086458	0.070380	9.717315	-0.095172	-0.009035	-0.095203	0.999982	0.001163	-0.005829	-0.000516
19057	-0.086538	0.070228	9.717316	-0.095307	-0.009135	-0.095204	0.999982	0.001160	-0.005828	-0.000513
