// General information: 
//  MT Manager version: 2021.0.0 
//  XDA version: 2021.0.0 build 5908 rev 109668 built on 2021-04-19
// Device information: 
//  DeviceId: 00B47F0C
//  ProductCode: MTW2-3A7G6
//  Firmware Version: 4.6.0
//  Hardware Version: 2.0.0
// Device settings: 
//  Filter Profile: human(46.1)
//  Option Flags: Orientation Smoother Disabled, Position/Velocity Smoother Disabled, Continuous Zero Rotation Update Disabled, AHS Disabled, ICC Disabled
// Coordinate system: ENU
PacketCounter	Acc_X	Acc_Y	Acc_Z	FreeAcc_E	FreeAcc_N	FreeAcc_U	Quat_q0	Quat_q1	Quat_q2	Quat_q3
01826	-0.102379	-0.025887	9.724621	0.006654	0.008787	-0.087499	0.999998	-0.000052	-0.001660	0.000761
01827	-0.100511	0.009314	9.746183	0.008579	0.044075	-0.066085	0.999998	-0.000049	-0.001679	0.000766
01828	-0.115566	-0.034628	9.699922	-0.007053	-0.000108	-0.112017	0.999998	-0.000047	-0.001673	0.000763
01829	-0.102429	-0.026143	9.724620	0.006360	0.008408	-0.087498	0.999998	-0.000047	-0.001673	0.000763
01830	-0.115708	-0.034783	9.699920	-0.007156	-0.000235	-0.112017	0.999998	-0.000052	-0.001675	0.000764
01831	-0.127103	-0.008261	9.696783	-0.018738	0.026413	-0.115122	0.999998	-0.000063	-0.001685	0.000768
01832	-0.102473	-0.026694	9.724618	0.006154	0.008150	-0.087498	0.999998	-0.000055	-0.001683	0.000745
01833	-0.079121	-0.018608	9.709176	0.029380	0.016208	-0.103229	0.999998	-0.000062	-0.001679	0.000758
01834	-0.103749	-0.000414	9.681341	0.004284	0.034211	-0.130852	0.999998	-0.000050	-0.001696	0.000748
01835	-0.127427	-0.008692	9.696779	-0.019134	0.025906	-0.115121	0.999998	-0.000057	-0.001672	0.000740
01836	-0.138066	-0.008574	9.736913	-0.029051	0.026232	-0.074871	0.999998	-0.000059	-0.001667	0.000745
01837	-0.091175	0.007636	9.706035	0.017499	0.042471	-0.106330	0.999998	-0.000064	-0.001669	0.000746
01838	-0.116599	-0.036072	9.699905	-0.007945	-0.001245	-0.112018	0.999998	-0.000064	-0.001669	0.000739
01839	-0.091394	0.007303	9.706033	0.017307	0.042221	-0.106328	0.999998	-0.000067	-0.001664	0.000744
01840	-0.151682	-0.017720	9.712205	-0.042949	0.017096	-0.099392	0.999998	-0.000061	-0.001677	0.000754
01841	-0.116893	-0.036515	9.699900	-0.008238	-0.001621	-0.112018	0.999998	-0.000074	-0.001661	0.000750
01842	-0.103863	-0.028136	9.724599	0.005170	0.006882	-0.087497	0.999998	-0.000063	-0.001665	0.000736
01843	-0.103909	-0.028205	9.724599	0.005074	0.006758	-0.087496	0.999998	-0.000068	-0.001666	0.000736
01844	-0.140807	-0.045086	9.715328	-0.031858	-0.010186	-0.096292	0.999998	-0.000066	-0.001660	0.000734
01845	-0.128778	-0.010259	9.696759	-0.020110	0.024645	-0.115120	0.999998	-0.000073	-0.001669	0.000730
01846	-0.080621	-0.020524	9.709160	0.028096	0.014551	-0.103222	0.999998	-0.000072	-0.001670	0.000744
01847	-0.115607	-0.002087	9.721462	-0.006806	0.033021	-0.090596	0.999998	-0.000077	-0.001672	0.000744
01848	-0.080648	-0.020807	9.709159	0.027897	0.014299	-0.103221	0.999998	-0.000071	-0.001685	0.000754
01849	-0.090857	-0.020457	9.749298	0.017982	0.014625	-0.062972	0.999998	-0.000061	-0.001688	0.000739
01850	-0.103612	0.032685	9.702895	0.004739	0.067593	-0.109420	0.999998	-0.000073	-0.001673	0.000736
01851	-0.069496	-0.048053	9.712287	0.039080	-0.012857	-0.100120	0.999998	-0.000081	-0.001689	0.000748
01852	-0.104307	-0.029591	9.724590	0.004168	0.005610	-0.087495	0.999998	-0.000081	-0.001689	0.000748
01853	-0.104352	-0.029660	9.724590	0.004168	0.005610	-0.087495	0.999998	-0.000082	-0.001690	0.000741
01854	-0.080916	-0.021637	9.709155	0.027398	0.013659	-0.103219	0.999998	-0.000086	-0.001691	0.000742
01855	-0.129836	-0.073378	9.718445	-0.021381	-0.038227	-0.093197	0.999998	-0.000070	-0.001694	0.000740
01856	-0.117666	-0.038342	9.699883	-0.009630	-0.003398	-0.112020	0.999998	-0.000070	-0.001708	0.000737
01857	-0.117761	-0.038667	9.699881	-0.009726	-0.003522	-0.112020	0.999998	-0.000091	-0.001695	0.000749
01858	-0.091466	-0.021806	9.749290	0.017180	0.013604	-0.062969	0.999998	-0.000075	-0.001698	0.000747
01859	-0.116226	-0.003509	9.721454	-0.007897	0.031631	-0.090593	0.999998	-0.000077	-0.001693	0.000752
01860	-0.116368	-0.003664	9.721452	-0.008000	0.031501	-0.090592	0.999998	-0.000078	-0.001694	0.000745
01861	-0.116496	-0.003858	9.721451	-0.008096	0.031378	-0.090592	0.999998	-0.000084	-0.001690	0.000758
01862	-0.093158	0.004131	9.706018	0.015127	0.039428	-0.106313	0.999998	-0.000086	-0.001686	0.000763
01863	-0.116843	-0.004385	9.721446	-0.008298	0.031126	-0.090591	0.999998	-0.000104	-0.001683	0.000751
01864	-0.082180	-0.023194	9.709141	0.026410	0.012397	-0.103215	0.999998	-0.000094	-0.001670	0.000765
01865	-0.118880	-0.039876	9.699862	-0.010520	-0.004528	-0.112021	0.999998	-0.000088	-0.001699	0.000746
01866	-0.105610	-0.031442	9.724570	0.002887	0.003960	-0.087494	0.999998	-0.000089	-0.001682	0.000768
01867	-0.105809	-0.031560	9.724568	0.002791	0.003836	-0.087494	0.999998	-0.000086	-0.001689	0.000769
01868	-0.095552	-0.032020	9.684431	0.012512	0.003264	-0.127741	0.999998	-0.000091	-0.001691	0.000770
01869	-0.092492	-0.023300	9.749276	0.016092	0.012203	-0.062965	0.999998	-0.000084	-0.001709	0.000767
01870	-0.105694	-0.031928	9.724568	0.002484	0.003454	-0.087494	0.999998	-0.000090	-0.001706	0.000780
01871	-0.080492	0.011337	9.730722	0.027752	0.046906	-0.081778	0.999998	-0.000097	-0.001702	0.000793
01872	-0.130533	-0.013931	9.696731	-0.022689	0.021358	-0.115118	0.999998	-0.000083	-0.001712	0.000787
01873	-0.130688	-0.014047	9.696729	-0.022785	0.021234	-0.115118	0.999998	-0.000095	-0.001696	0.000783
01874	-0.104515	0.002736	9.746145	0.004120	0.038342	-0.066058	0.999998	-0.000093	-0.001690	0.000780
01875	-0.107649	-0.006157	9.681296	0.000351	0.029160	-0.130834	0.999998	-0.000090	-0.001689	0.000765
01876	-0.093449	-0.024267	9.749265	0.015390	0.011305	-0.062963	0.999998	-0.000092	-0.001684	0.000770
01877	-0.130417	-0.041102	9.739976	-0.021543	-0.005613	-0.071777	0.999998	-0.000091	-0.001678	0.000767
01878	-0.118400	-0.006142	9.721426	-0.009778	0.029218	-0.090587	0.999998	-0.000091	-0.001678	0.000767
01879	-0.120210	-0.041642	9.699838	-0.011812	-0.006179	-0.112024	0.999998	-0.000103	-0.001687	0.000751
01880	-0.107112	-0.033291	9.724548	0.001591	0.002307	-0.087493	0.999998	-0.000093	-0.001674	0.000765
01881	-0.130702	-0.041413	9.739971	-0.021840	-0.005994	-0.071778	0.999998	-0.000082	-0.001690	0.000755
01882	-0.072236	-0.051960	9.712247	0.036200	-0.016552	-0.100115	0.999998	-0.000094	-0.001687	0.000755
01883	-0.118779	-0.006777	9.721421	-0.010166	0.028710	-0.090586	0.999998	-0.000094	-0.001675	0.000765
01884	-0.097299	-0.034064	9.684406	0.011031	0.001359	-0.127739	0.999998	-0.000098	-0.001677	0.000766
01885	-0.107599	-0.033907	9.724540	0.001102	0.001672	-0.087493	0.999998	-0.000096	-0.001684	0.000767
01886	-0.082278	0.009586	9.730709	0.026373	0.045114	-0.081766	0.999998	-0.000087	-0.001682	0.000765
01887	-0.119104	-0.007089	9.721417	-0.010559	0.028201	-0.090585	0.999998	-0.000087	-0.001682	0.000765
01888	-0.118998	-0.007230	9.721418	-0.010566	0.028194	-0.090585	0.999998	-0.000095	-0.001698	0.000777
01889	-0.119065	-0.007634	9.721417	-0.010662	0.028070	-0.090584	0.999998	-0.000116	-0.001685	0.000789
01890	-0.107995	-0.034624	9.724533	0.000705	0.001158	-0.087493	0.999998	-0.000100	-0.001676	0.000783
01891	-0.132667	-0.016380	9.696698	-0.024356	0.019207	-0.115117	0.999998	-0.000110	-0.001691	0.000776
01892	-0.096666	-0.061707	9.727651	0.011970	-0.025879	-0.084402	0.999998	-0.000108	-0.001685	0.000773
01893	-0.132886	-0.016712	9.696695	-0.024555	0.018954	-0.115117	0.999998	-0.000110	-0.001680	0.000778
01894	-0.133079	-0.016882	9.696692	-0.024659	0.018828	-0.115117	0.999998	-0.000113	-0.001675	0.000783
01895	-0.120060	-0.008478	9.721404	-0.011254	0.027313	-0.090583	0.999998	-0.000107	-0.001667	0.000772
01896	-0.133316	-0.017122	9.696688	-0.024858	0.018573	-0.115117	0.999998	-0.000115	-0.001684	0.000785
01897	-0.085172	-0.027431	9.709104	0.023347	0.008448	-0.103203	0.999998	-0.000113	-0.001677	0.000782
01898	-0.108794	-0.035712	9.724521	-0.000092	0.000144	-0.087493	0.999998	-0.000110	-0.001684	0.000783
01899	-0.120151	-0.008976	9.721403	-0.011650	0.026804	-0.090582	0.999998	-0.000108	-0.001690	0.000785
01900	-0.108804	-0.035846	9.724520	-0.000291	-0.000107	-0.087493	0.999998	-0.000103	-0.001690	0.000790
01901	-0.108965	-0.035909	9.724518	-0.000387	-0.000231	-0.087493	0.999998	-0.000102	-0.001684	0.000787
01902	-0.107271	-0.000663	9.746115	0.001549	0.035028	-0.066045	0.999998	-0.000096	-0.001684	0.000793
01903	-0.122434	-0.044628	9.699797	-0.014086	-0.009091	-0.112029	0.999998	-0.000105	-0.001687	0.000801
01904	-0.133788	-0.017891	9.696680	-0.025650	0.017567	-0.115118	0.999998	-0.000092	-0.001697	0.000795
01905	-0.132636	-0.044377	9.739931	-0.024128	-0.008912	-0.071786	0.999998	-0.000089	-0.001703	0.000796
01906	-0.120682	-0.009539	9.721396	-0.012344	0.025923	-0.090580	0.999998	-0.000096	-0.001687	0.000805
01907	-0.109431	-0.036549	9.724510	-0.000982	-0.000987	-0.087493	0.999998	-0.000096	-0.001700	0.000802
01908	-0.107512	-0.001213	9.746112	0.000958	0.034274	-0.066042	0.999998	-0.000080	-0.001703	0.000800
01909	-0.110512	-0.010017	9.681261	-0.002793	0.025121	-0.130823	0.999998	-0.000085	-0.001705	0.000801
01910	-0.084223	0.006739	9.730695	0.024099	0.042192	-0.081747	0.999998	-0.000090	-0.001695	0.000798
01911	-0.073202	-0.020379	9.733808	0.035460	0.015281	-0.078660	0.999998	-0.000103	-0.001679	0.000794
01912	-0.121470	-0.010492	9.721385	-0.012934	0.025165	-0.090579	0.999998	-0.000103	-0.001692	0.000791
01913	-0.097881	-0.002269	9.705973	0.010312	0.033214	-0.106283	0.999998	-0.000087	-0.001695	0.000789
01914	-0.073395	-0.020552	9.733806	0.035167	0.014899	-0.078658	0.999998	-0.000085	-0.001689	0.000786
01915	-0.098156	-0.002325	9.705970	0.010118	0.032963	-0.106282	0.999998	-0.000085	-0.001690	0.000800
01916	-0.110378	-0.037498	9.724496	-0.001865	-0.002128	-0.087493	0.999998	-0.000089	-0.001691	0.000801
01917	-0.110488	-0.037785	9.724494	-0.001961	-0.002252	-0.087493	0.999998	-0.000101	-0.001688	0.000801
01918	-0.121992	-0.011162	9.721378	-0.013515	0.024405	-0.090578	0.999998	-0.000096	-0.001688	0.000807
01919	-0.108880	-0.002925	9.746097	-0.000114	0.032877	-0.066037	0.999998	-0.000113	-0.001686	0.000794
01920	-0.122358	-0.011717	9.721372	-0.013716	0.024153	-0.090578	0.999998	-0.000115	-0.001674	0.000783
01921	-0.159253	-0.028587	9.712058	-0.050653	0.007261	-0.099417	0.999998	-0.000120	-0.001683	0.000800
01922	-0.087525	-0.030694	9.709074	0.020887	0.005285	-0.103195	0.999998	-0.000118	-0.001689	0.000801
01923	-0.122403	-0.012146	9.721371	-0.014006	0.023778	-0.090577	0.999998	-0.000116	-0.001696	0.000803
01924	-0.111126	-0.039051	9.724481	-0.002655	-0.003139	-0.087494	0.999998	-0.000114	-0.001690	0.000800
01925	-0.111268	-0.039206	9.724479	-0.002751	-0.003263	-0.087494	0.999998	-0.000119	-0.001691	0.000801
01926	-0.122646	-0.012574	9.721368	-0.014304	0.023395	-0.090577	0.999998	-0.000120	-0.001699	0.000810
01927	-0.074496	-0.022709	9.733793	0.033893	0.013246	-0.078651	0.999998	-0.000104	-0.001702	0.000808
01928	-0.111178	-0.039428	9.724479	-0.003046	-0.003646	-0.087494	0.999998	-0.000112	-0.001718	0.000821
01929	-0.112289	-0.012951	9.681237	-0.004741	0.022601	-0.130818	0.999998	-0.000097	-0.001708	0.000815
01930	-0.099245	-0.004644	9.705958	0.008656	0.031065	-0.106275	0.999998	-0.000117	-0.001708	0.000831
01931	-0.109671	-0.004550	9.746087	-0.001291	0.031360	-0.066033	0.999998	-0.000104	-0.001705	0.000821
01932	-0.074832	-0.023159	9.733789	0.033402	0.012611	-0.078648	0.999998	-0.000101	-0.001712	0.000822
01933	-0.144703	0.013886	9.758383	-0.036286	0.049725	-0.053416	0.999998	-0.000113	-0.001709	0.000822
01934	-0.123223	-0.013446	9.721359	-0.015088	0.022384	-0.090576	0.999998	-0.000111	-0.001703	0.000819
01935	-0.099817	-0.005210	9.705952	0.008165	0.030432	-0.106272	0.999998	-0.000095	-0.001706	0.000818
01936	-0.099821	-0.005398	9.705952	0.008063	0.030299	-0.106272	0.999998	-0.000117	-0.001713	0.000829
01937	-0.099949	-0.005592	9.705950	0.007967	0.030176	-0.106271	0.999998	-0.000102	-0.001703	0.000824
01938	-0.088834	-0.032375	9.709056	0.019317	0.003253	-0.103191	0.999998	-0.000100	-0.001697	0.000821
01939	-0.100343	-0.005708	9.705946	0.007775	0.029921	-0.106270	0.999998	-0.000105	-0.001698	0.000822
01940	-0.136127	-0.049087	9.739861	-0.027577	-0.013344	-0.071800	0.999998	-0.000105	-0.001699	0.000815
01941	-0.078843	-0.033130	9.668922	0.028882	0.002459	-0.143430	0.999998	-0.000106	-0.001699	0.000808
01942	-0.112760	-0.041214	9.724454	-0.004427	-0.005427	-0.087495	0.999998	-0.000111	-0.001701	0.000808
01943	-0.112876	-0.041208	9.724452	-0.004523	-0.005551	-0.087495	0.999998	-0.000092	-0.001697	0.000811
01944	-0.112940	-0.041425	9.724451	-0.004624	-0.005683	-0.087495	0.999998	-0.000120	-0.001704	0.000810
01945	-0.089402	-0.033476	9.709047	0.018631	0.002363	-0.103189	0.999998	-0.000104	-0.001707	0.000808
01946	-0.124401	-0.014928	9.721342	-0.016266	0.020858	-0.090574	0.999998	-0.000116	-0.001705	0.000808
01947	-0.124465	-0.015145	9.721341	-0.016362	0.020734	-0.090574	0.999998	-0.000113	-0.001711	0.000810
01948	-0.111323	-0.006815	9.746067	-0.002971	0.029189	-0.066026	0.999998	-0.000117	-0.001706	0.000794
01949	-0.101155	-0.007302	9.705936	0.006792	0.028653	-0.106266	0.999998	-0.000122	-0.001707	0.000795
01950	-0.124757	-0.015709	9.721336	-0.016662	0.020353	-0.090574	0.999998	-0.000126	-0.001709	0.000796
01951	-0.089905	-0.034600	9.709039	0.018036	0.001605	-0.103188	0.999998	-0.000135	-0.001712	0.000804
01952	-0.088008	0.000612	9.730664	0.019990	0.036852	-0.081716	0.999998	-0.000122	-0.001722	0.000798
01953	-0.103368	-0.043294	9.684306	0.004350	-0.007227	-0.127736	0.999998	-0.000138	-0.001696	0.000819
01954	-0.088457	0.000291	9.730660	0.019795	0.036601	-0.081714	0.999998	-0.000126	-0.001712	0.000808
01955	-0.090218	-0.034953	9.709034	0.017646	0.001102	-0.103187	0.999998	-0.000126	-0.001712	0.000808
01956	-0.053491	-0.018368	9.718364	0.054484	0.017844	-0.094327	0.999998	-0.000127	-0.001713	0.000801
01957	-0.090341	-0.035200	9.709032	0.017542	0.000973	-0.103187	0.999998	-0.000132	-0.001715	0.000802
01958	-0.112047	-0.008155	9.746058	-0.003859	0.028048	-0.066023	0.999998	-0.000120	-0.001719	0.000808
01959	-0.088511	-0.000154	9.730659	0.019399	0.036092	-0.081712	0.999998	-0.000138	-0.001724	0.000812
01960	-0.125361	-0.016984	9.721326	-0.017548	0.019215	-0.090573	0.999998	-0.000125	-0.001721	0.000802
01961	-0.127202	-0.052165	9.699698	-0.019698	-0.016281	-0.112048	0.999998	-0.000114	-0.001738	0.000791
01962	-0.149922	0.001487	9.693495	-0.042673	0.037185	-0.118198	0.999998	-0.000112	-0.001732	0.000788
01963	-0.114117	-0.043803	9.724426	-0.006403	-0.007956	-0.087498	0.999998	-0.000111	-0.001733	0.000802
01964	-0.125578	-0.017009	9.721323	-0.017939	0.018709	-0.090573	0.999998	-0.000102	-0.001731	0.000800
01965	-0.114224	-0.043782	9.724425	-0.006599	-0.008212	-0.087498	0.999998	-0.000093	-0.001742	0.000801
01966	-0.114275	-0.043799	9.724425	-0.006703	-0.008339	-0.087499	0.999998	-0.000091	-0.001736	0.000798
01967	-0.104081	-0.044067	9.684295	0.003066	-0.008868	-0.127737	0.999998	-0.000079	-0.001741	0.000804
01968	-0.114506	-0.044025	9.724421	-0.006897	-0.008589	-0.087499	0.999998	-0.000102	-0.001734	0.000812
01969	-0.077731	-0.027620	9.733755	0.029854	0.008027	-0.078632	0.999998	-0.000091	-0.001751	0.000802
01970	-0.126909	0.009116	9.678090	-0.020098	0.044345	-0.133883	0.999998	-0.000089	-0.001745	0.000799
01971	-0.054331	-0.019589	9.718357	0.053013	0.015936	-0.094316	0.999998	-0.000094	-0.001746	0.000800
01972	-0.126184	-0.017803	9.721314	-0.018728	0.017702	-0.090572	0.999998	-0.000098	-0.001736	0.000817
01973	-0.116019	-0.018177	9.681185	-0.008955	0.017175	-0.130810	0.999998	-0.000098	-0.001736	0.000817
01974	-0.066172	0.006861	9.715254	0.041378	0.042473	-0.097387	0.999998	-0.000097	-0.001725	0.000826
01975	-0.079660	-0.001745	9.690519	0.027793	0.033778	-0.121940	0.999998	-0.000100	-0.001720	0.000831
01976	-0.126772	-0.018210	9.721306	-0.019022	0.017314	-0.090572	0.999998	-0.000094	-0.001733	0.000841
01977	-0.138253	0.008426	9.718204	-0.030550	0.043989	-0.093644	0.999998	-0.000107	-0.001717	0.000837
01978	-0.127116	-0.018550	9.721301	-0.019219	0.017059	-0.090572	0.999998	-0.000096	-0.001720	0.000823
01979	-0.140333	-0.027044	9.696567	-0.032804	0.008368	-0.115127	0.999998	-0.000097	-0.001728	0.000832
01980	-0.139269	-0.053681	9.739792	-0.031342	-0.018160	-0.071819	0.999998	-0.000097	-0.001728	0.000832
01981	-0.057312	-0.056067	9.696713	0.050169	-0.020459	-0.115794	0.999998	-0.000102	-0.001730	0.000833
01982	-0.092338	-0.037616	9.709005	0.015272	-0.001958	-0.103183	0.999998	-0.000104	-0.001726	0.000838
01983	-0.092512	-0.037880	9.709002	0.015176	-0.002082	-0.103183	0.999998	-0.000116	-0.001723	0.000838
01984	-0.081194	-0.064819	9.712099	0.026504	-0.029011	-0.100113	0.999998	-0.000102	-0.001732	0.000832
01985	-0.116247	-0.046288	9.724390	-0.008383	-0.010501	-0.087502	0.999998	-0.000115	-0.001717	0.000828
01986	-0.104265	-0.011419	9.705900	0.003446	0.024336	-0.106252	0.999998	-0.000104	-0.001721	0.000814
01987	-0.141106	-0.028032	9.696552	-0.033499	0.007482	-0.115128	0.999998	-0.000100	-0.001720	0.000819
01988	-0.093141	-0.038290	9.708994	0.014677	-0.002722	-0.103182	0.999998	-0.000098	-0.001714	0.000817
01989	-0.080119	-0.029971	9.733729	0.028069	0.005717	-0.078625	0.999998	-0.000100	-0.001709	0.000822
01990	-0.151890	-0.028044	9.736670	-0.043668	0.007495	-0.074893	0.999998	-0.000100	-0.001709	0.000822
01991	-0.104812	-0.011584	9.705894	0.003057	0.023827	-0.106251	0.999998	-0.000084	-0.001712	0.000820
01992	-0.151822	-0.027999	9.736671	-0.043768	0.007364	-0.074893	0.999998	-0.000092	-0.001728	0.000833
01993	-0.104820	-0.011958	9.705893	0.002861	0.023572	-0.106250	0.999998	-0.000104	-0.001713	0.000829
01994	-0.128460	-0.020280	9.721279	-0.020601	0.015276	-0.090572	0.999998	-0.000093	-0.001729	0.000819
01995	-0.115204	-0.011911	9.746017	-0.007209	0.023713	-0.066014	0.999998	-0.000099	-0.001725	0.000832
01996	-0.116362	0.014516	9.702795	-0.008856	0.049993	-0.109317	0.999998	-0.000094	-0.001725	0.000837
01997	-0.105053	-0.012372	9.705890	0.002474	0.023067	-0.106249	0.999998	-0.000092	-0.001732	0.000838
01998	-0.068324	0.003999	9.715241	0.039225	0.039662	-0.097366	0.999998	-0.000108	-0.001730	0.000847
01999	-0.092030	-0.004540	9.730626	0.015765	0.031373	-0.081689	0.999998	-0.000116	-0.001726	0.000839
02000	-0.081978	-0.004912	9.690499	0.025541	0.030849	-0.121924	0.999998	-0.000106	-0.001712	0.000853
02001	-0.094255	-0.039852	9.708977	0.013505	-0.004243	-0.103181	0.999998	-0.000095	-0.001729	0.000843
02002	-0.081119	-0.031546	9.733715	0.026890	0.004184	-0.078621	0.999998	-0.000107	-0.001713	0.000839
02003	-0.105937	-0.013410	9.705879	0.001884	0.022306	-0.106247	0.999998	-0.000108	-0.001713	0.000832
02004	-0.131418	-0.056939	9.699615	-0.023646	-0.021347	-0.112067	0.999998	-0.000108	-0.001714	0.000832
02005	-0.129561	-0.021824	9.721261	-0.021583	0.014013	-0.090572	0.999998	-0.000118	-0.001716	0.000820
02006	-0.118296	-0.048836	9.724353	-0.010256	-0.012920	-0.087507	0.999998	-0.000113	-0.001716	0.000826
02007	-0.143118	-0.030645	9.696515	-0.035260	0.005205	-0.115133	0.999998	-0.000126	-0.001700	0.000822
02008	-0.129891	-0.022444	9.721256	-0.021873	0.013628	-0.090572	0.999998	-0.000125	-0.001726	0.000823
02009	-0.106338	-0.014501	9.705873	0.001397	0.021668	-0.106245	0.999998	-0.000137	-0.001710	0.000819
02010	-0.119747	-0.023217	9.681129	-0.012189	0.012984	-0.130807	0.999998	-0.000140	-0.001717	0.000808
02011	-0.105617	-0.041404	9.749083	0.002739	-0.005002	-0.062946	0.999998	-0.000129	-0.001709	0.000810
02012	-0.082303	-0.033221	9.733700	0.026009	0.003030	-0.078618	0.999998	-0.000127	-0.001702	0.000807
02013	-0.117295	-0.014655	9.745988	-0.008875	0.021548	-0.066010	0.999998	-0.000125	-0.001709	0.000809
02014	-0.106984	-0.015058	9.705865	0.000908	0.021029	-0.106244	0.999998	-0.000129	-0.001711	0.000809
02015	-0.070319	0.001328	9.715227	0.037665	0.037620	-0.097352	0.999998	-0.000136	-0.001707	0.000822
02016	-0.058989	-0.025644	9.718316	0.048983	0.010682	-0.094288	0.999998	-0.000130	-0.001720	0.000832
02017	-0.070359	0.001083	9.715227	0.037469	0.037363	-0.097350	0.999998	-0.000134	-0.001714	0.000817
02018	-0.107322	-0.015812	9.705860	0.000515	0.020519	-0.106243	0.999998	-0.000145	-0.001711	0.000817
02019	-0.120689	-0.024401	9.681114	-0.013065	0.011846	-0.130806	0.999998	-0.000137	-0.001709	0.000815
02020	-0.083012	-0.034415	9.733690	0.025220	0.002007	-0.078616	0.999998	-0.000137	-0.001710	0.000807
02021	-0.119050	0.010616	9.702767	-0.011193	0.046948	-0.109304	0.999998	-0.000145	-0.001705	0.000800
02022	-0.118246	-0.016156	9.745975	-0.009763	0.020402	-0.066008	0.999998	-0.000143	-0.001699	0.000797
02023	-0.106217	0.018881	9.727508	0.002096	0.055248	-0.084738	0.999998	-0.000131	-0.001696	0.000787
02024	-0.144977	-0.033091	9.696479	-0.036926	0.003058	-0.115138	0.999998	-0.000139	-0.001699	0.000795
02025	-0.108202	-0.016663	9.705849	-0.000168	0.019643	-0.106241	0.999998	-0.000137	-0.001706	0.000797
02026	-0.109964	-0.051925	9.684191	-0.002340	-0.015842	-0.127746	0.999998	-0.000126	-0.001722	0.000786
02027	-0.107986	-0.016757	9.705851	-0.000366	0.019388	-0.106240	0.999998	-0.000134	-0.001726	0.000795
02028	-0.131561	-0.025087	9.721227	-0.023837	0.011095	-0.090574	0.999998	-0.000134	-0.001726	0.000795
02029	-0.108050	-0.016974	9.705850	-0.000465	0.019258	-0.106240	0.999998	-0.000135	-0.001726	0.000788
02030	-0.096805	-0.043951	9.708934	0.010851	-0.007677	-0.103180	0.999998	-0.000135	-0.001726	0.000781
02031	-0.107277	-0.043912	9.749054	0.000865	-0.007419	-0.062947	0.999998	-0.000143	-0.001722	0.000773
02032	-0.096923	-0.044492	9.708931	0.010657	-0.007933	-0.103180	0.999998	-0.000157	-0.001738	0.000773
02033	-0.118690	-0.017735	9.745966	-0.010742	0.019133	-0.066007	0.999998	-0.000164	-0.001722	0.000782
02034	-0.119763	0.008748	9.702761	-0.012363	0.045435	-0.109298	0.999998	-0.000155	-0.001741	0.000800
02035	-0.084888	-0.010056	9.690469	0.022327	0.026663	-0.121903	0.999998	-0.000166	-0.001730	0.000784
02036	-0.108754	-0.018523	9.705839	-0.001145	0.018370	-0.106238	0.999998	-0.000171	-0.001719	0.000781
02037	-0.120229	0.008162	9.702755	-0.012651	0.045056	-0.109297	0.999998	-0.000169	-0.001726	0.000783
02038	-0.095789	-0.010246	9.730585	0.012141	0.026656	-0.081670	0.999998	-0.000158	-0.001717	0.000784
02039	-0.095977	-0.010230	9.730583	0.012045	0.026532	-0.081669	0.999998	-0.000154	-0.001716	0.000769
02040	-0.109277	-0.018833	9.705833	-0.001540	0.017863	-0.106238	0.999998	-0.000163	-0.001720	0.000778
02041	-0.083827	0.024374	9.712129	0.023812	0.061249	-0.100388	0.999998	-0.000166	-0.001727	0.000767
02042	-0.084689	-0.037621	9.733663	0.023158	-0.000663	-0.078611	0.999998	-0.000163	-0.001733	0.000768
02043	-0.096293	-0.010890	9.730579	0.011654	0.026023	-0.081667	0.999998	-0.000164	-0.001709	0.000773
02044	-0.096611	-0.011069	9.730576	0.011554	0.025890	-0.081667	0.999998	-0.000169	-0.001710	0.000774
02045	-0.098583	-0.046457	9.708905	0.009384	-0.009582	-0.103180	0.999998	-0.000164	-0.001710	0.000780
02046	-0.123171	-0.028094	9.681073	-0.015605	0.008566	-0.130807	0.999998	-0.000161	-0.001717	0.000781
02047	-0.098717	-0.046599	9.708903	0.009186	-0.009833	-0.103180	0.999998	-0.000160	-0.001710	0.000778
02048	-0.110051	-0.019945	9.705822	-0.002321	0.016847	-0.106236	0.999998	-0.000168	-0.001727	0.000791
02049	-0.096964	-0.011667	9.730572	0.011064	0.025258	-0.081665	0.999998	-0.000161	-0.001707	0.000797
02050	-0.110400	-0.020232	9.705817	-0.002518	0.016595	-0.106236	0.999998	-0.000170	-0.001715	0.000773
02051	-0.110427	-0.020393	9.705817	-0.002614	0.016471	-0.106235	0.999998	-0.000165	-0.001714	0.000778
02052	-0.110445	-0.020541	9.705816	-0.002713	0.016338	-0.106235	0.999998	-0.000172	-0.001723	0.000775
02053	-0.120871	-0.020430	9.745934	-0.012707	0.016587	-0.066004	0.999998	-0.000165	-0.001716	0.000785
02054	-0.086128	-0.039194	9.733644	0.021973	-0.002196	-0.078608	0.999998	-0.000169	-0.001718	0.000786
02055	-0.134164	-0.029199	9.721180	-0.026385	0.007801	-0.090577	0.999998	-0.000177	-0.001734	0.000798
02056	-0.086977	-0.013047	9.690447	0.020272	0.023991	-0.121892	0.999998	-0.000178	-0.001734	0.000791
02057	-0.097578	-0.012962	9.730564	0.010276	0.024239	-0.081661	0.999998	-0.000179	-0.001717	0.000813
02058	-0.085439	0.022029	9.712121	0.022155	0.059085	-0.100371	0.999998	-0.000168	-0.001734	0.000802
02059	-0.110821	-0.021471	9.705810	-0.003397	0.015458	-0.106234	0.999998	-0.000173	-0.001735	0.000803
02060	-0.097679	-0.013236	9.730563	0.009983	0.023861	-0.081660	0.999998	-0.000174	-0.001736	0.000796
02061	-0.074191	-0.005234	9.715197	0.033268	0.031895	-0.097315	0.999998	-0.000178	-0.001737	0.000797
02062	-0.122442	0.004863	9.702730	-0.015092	0.041896	-0.109286	0.999998	-0.000177	-0.001731	0.000794
02063	-0.134909	-0.030201	9.721166	-0.027168	0.006799	-0.090578	0.999998	-0.000170	-0.001724	0.000804
02064	-0.111504	-0.022084	9.705801	-0.003886	0.014825	-0.106233	0.999998	-0.000170	-0.001725	0.000797
02065	-0.121879	-0.022014	9.745918	-0.013886	0.015070	-0.066004	0.999998	-0.000173	-0.001732	0.000785
02066	-0.124814	-0.030873	9.681043	-0.017562	0.006048	-0.130808	0.999998	-0.000179	-0.001728	0.000798
02067	-0.122012	-0.022397	9.745916	-0.014084	0.014818	-0.066003	0.999998	-0.000177	-0.001735	0.000800
02068	-0.113580	-0.058030	9.684115	-0.006359	-0.021018	-0.127757	0.999998	-0.000182	-0.001736	0.000800
02069	-0.088147	-0.014704	9.690434	0.019007	0.022357	-0.121885	0.999998	-0.000182	-0.001736	0.000800
02070	-0.111746	-0.022992	9.705796	-0.004380	0.014194	-0.106232	0.999998	-0.000186	-0.001738	0.000801
02071	-0.123961	-0.058149	9.724231	-0.016461	-0.020904	-0.087529	0.999998	-0.000182	-0.001750	0.000790
02072	-0.074881	-0.006708	9.715191	0.032288	0.030620	-0.097308	0.999998	-0.000191	-0.001753	0.000799
02073	-0.111700	-0.023403	9.705795	-0.004669	0.013815	-0.106232	0.999998	-0.000180	-0.001757	0.000785
02074	-0.098453	-0.015075	9.730552	0.008709	0.022208	-0.081655	0.999998	-0.000186	-0.001766	0.000802
02075	-0.087268	-0.042064	9.733622	0.020010	-0.004733	-0.078605	0.999998	-0.000182	-0.001753	0.000803
02076	-0.110112	0.011497	9.727477	-0.002882	0.048772	-0.084703	0.999998	-0.000186	-0.001755	0.000804
02077	-0.112016	-0.023942	9.705790	-0.005059	0.013310	-0.106231	0.999998	-0.000188	-0.001763	0.000813
02078	-0.123292	0.002788	9.702720	-0.016552	0.039995	-0.109280	0.999998	-0.000185	-0.001769	0.000814
02079	-0.087595	-0.042620	9.733617	0.019618	-0.005243	-0.078604	0.999998	-0.000187	-0.001757	0.000803
02080	-0.086876	0.019108	9.712114	0.020115	0.056417	-0.100350	0.999998	-0.000187	-0.001757	0.000796
02081	-0.101995	-0.024785	9.665668	0.004461	0.012436	-0.146459	0.999998	-0.000199	-0.001767	0.000801
02082	-0.120860	0.010694	9.767591	-0.013373	0.048370	-0.044472	0.999998	-0.000197	-0.001760	0.000798
02083	-0.099243	-0.016394	9.730542	0.007834	0.021065	-0.081651	0.999998	-0.000187	-0.001771	0.000800
02084	-0.099220	-0.016420	9.730542	0.007736	0.020936	-0.081651	0.999998	-0.000186	-0.001773	0.000813
02085	-0.075732	-0.008368	9.715183	0.031026	0.028968	-0.097298	0.999998	-0.000187	-0.001773	0.000806
02086	-0.075824	-0.008506	9.715182	0.030925	0.028835	-0.097298	0.999998	-0.000187	-0.001773	0.000799
02087	-0.123029	-0.025080	9.745897	-0.015945	0.012398	-0.066003	0.999998	-0.000196	-0.001777	0.000808
02088	-0.089165	-0.017394	9.690421	0.017255	0.020063	-0.121877	0.999998	-0.000202	-0.001777	0.000788
02089	-0.111931	-0.052317	9.748960	-0.004750	-0.014677	-0.062957	0.999998	-0.000195	-0.001770	0.000798
02090	-0.112988	-0.025773	9.705774	-0.006330	0.011653	-0.106230	0.999998	-0.000198	-0.001778	0.000786
02091	-0.099844	-0.017606	9.730534	0.007049	0.020043	-0.081649	0.999998	-0.000206	-0.001773	0.000779
02092	-0.125507	-0.061256	9.724192	-0.018522	-0.023575	-0.087539	0.999998	-0.000208	-0.001768	0.000784
02093	-0.113442	-0.026399	9.705767	-0.006619	0.011277	-0.106230	0.999998	-0.000211	-0.001763	0.000789
02094	-0.124961	0.000319	9.702699	-0.018104	0.037970	-0.109275	0.999998	-0.000209	-0.001757	0.000786
02095	-0.100450	-0.018284	9.730526	0.006663	0.019539	-0.081647	0.999998	-0.000213	-0.001771	0.000791
02096	-0.113749	-0.026804	9.705763	-0.006913	0.010895	-0.106230	0.999998	-0.000209	-0.001759	0.000793
02097	-0.077148	-0.010216	9.715170	0.029854	0.027438	-0.097290	0.999998	-0.000198	-0.001762	0.000778
02098	-0.114039	-0.026820	9.705759	-0.007110	0.010641	-0.106229	0.999998	-0.000199	-0.001758	0.000804
02099	-0.077428	-0.010461	9.715167	0.029658	0.027183	-0.097289	0.999998	-0.000207	-0.001754	0.000796
02100	-0.114374	-0.027146	9.705754	-0.007305	0.010388	-0.106229	0.999998	-0.000198	-0.001752	0.000794
02101	-0.112675	0.007966	9.727451	-0.005314	0.045595	-0.084689	0.999998	-0.000207	-0.001743	0.000799
02102	-0.125084	-0.027219	9.745865	-0.017417	0.010491	-0.066003	0.999998	-0.000207	-0.001743	0.000799
02103	-0.077997	-0.010842	9.715162	0.029365	0.026800	-0.097287	0.999998	-0.000198	-0.001741	0.000796
02104	-0.088437	-0.010806	9.755277	0.019349	0.027024	-0.057061	0.999998	-0.000212	-0.001745	0.000792
02105	-0.115021	-0.027704	9.705745	-0.007693	0.009884	-0.106229	0.999998	-0.000197	-0.001735	0.000787
02106	-0.101936	-0.019267	9.730509	0.005681	0.018262	-0.081644	0.999998	-0.000195	-0.001742	0.000788
02107	-0.136903	-0.000716	9.742793	-0.029192	0.036806	-0.069046	0.999998	-0.000197	-0.001737	0.000793
02108	-0.115375	-0.027937	9.705740	-0.007991	0.009501	-0.106229	0.999998	-0.000198	-0.001737	0.000786
02109	-0.103073	0.006960	9.687328	0.003922	0.044354	-0.124911	0.999998	-0.000198	-0.001750	0.000783
02110	-0.127645	-0.063207	9.724151	-0.020202	-0.025730	-0.087548	0.999998	-0.000196	-0.001744	0.000780
02111	-0.113610	0.006909	9.727441	-0.006198	0.044452	-0.084684	0.999998	-0.000201	-0.001746	0.000781
02112	-0.115723	-0.028464	9.705735	-0.006647	0.006959	-0.106226	0.999998	-0.000091	-0.001643	0.000848
02113	-0.104574	-0.055433	9.708795	0.004644	-0.019989	-0.103192	0.999998	-0.000094	-0.001650	0.000837
02114	-0.102515	-0.020265	9.730501	0.006637	0.015199	-0.081640	0.999998	-0.000085	-0.001669	0.000855
02115	-0.092297	-0.020578	9.690385	0.016457	0.014734	-0.121866	0.999998	-0.000091	-0.001645	0.000848
02116	-0.116252	-0.028962	9.705727	-0.007030	0.006444	-0.106226	0.999998	-0.000094	-0.001640	0.000853
02117	-0.103136	-0.020662	9.730493	0.006350	0.014818	-0.081639	0.999998	-0.000094	-0.001640	0.000853
02118	-0.103168	-0.020771	9.730493	0.006342	0.014810	-0.081639	0.999998	-0.000098	-0.001642	0.000854
02119	-0.079667	-0.012774	9.715147	0.029638	0.022844	-0.097278	0.999998	-0.000099	-0.001642	0.000847
02120	-0.091066	0.013995	9.712085	0.018155	0.049534	-0.100309	0.999998	-0.000094	-0.001642	0.000852
02121	-0.138263	-0.002412	9.742773	-0.028723	0.033090	-0.069031	0.999998	-0.000091	-0.001648	0.000854
02122	-0.090141	-0.012787	9.755259	0.019426	0.022791	-0.057050	0.999998	-0.000088	-0.001655	0.000854
02123	-0.114640	0.005645	9.727429	-0.005525	0.040993	-0.084669	0.999998	-0.000088	-0.001655	0.000854
02124	-0.116679	-0.029547	9.705720	-0.007624	0.005669	-0.106226	0.999998	-0.000077	-0.001647	0.000856
02125	-0.103693	-0.021204	9.730486	0.005755	0.014039	-0.081637	0.999998	-0.000079	-0.001642	0.000862
02126	-0.116987	-0.029711	9.705716	-0.007818	0.005415	-0.106226	0.999998	-0.000077	-0.001648	0.000863
02127	-0.128338	-0.002871	9.702654	-0.019294	0.032115	-0.109256	0.999998	-0.000068	-0.001647	0.000861
02128	-0.067177	-0.004705	9.739910	0.042331	0.030304	-0.072684	0.999998	-0.000055	-0.001644	0.000851
02129	-0.117212	-0.029751	9.705713	-0.008104	0.005033	-0.106226	0.999998	-0.000066	-0.001653	0.000855
02130	-0.117281	-0.029915	9.705712	-0.008202	0.004900	-0.106226	0.999998	-0.000058	-0.001646	0.000865
02131	-0.104296	-0.021574	9.730479	0.005176	0.013267	-0.081636	0.999998	-0.000057	-0.001640	0.000862
02132	-0.104388	-0.021713	9.730478	0.005076	0.013138	-0.081636	0.999998	-0.000060	-0.001647	0.000851
02133	-0.104416	-0.021875	9.730477	0.004981	0.013012	-0.081635	0.999998	-0.000060	-0.001647	0.000844
02134	-0.117612	-0.030294	9.705706	-0.008591	0.004392	-0.106226	0.999998	-0.000051	-0.001658	0.000845
02135	-0.130795	-0.038752	9.680936	-0.022159	-0.004223	-0.130817	0.999998	-0.000055	-0.001660	0.000846
02136	-0.106364	-0.057408	9.708764	0.002598	-0.022690	-0.103198	0.999998	-0.000056	-0.001660	0.000840
02137	-0.116007	0.004537	9.727414	-0.006780	0.039328	-0.084663	0.999998	-0.000058	-0.001643	0.000862
02138	-0.118237	-0.030877	9.705697	-0.008974	0.003880	-0.106226	0.999998	-0.000061	-0.001638	0.000846
02139	-0.094684	-0.022813	9.690357	0.014328	0.011912	-0.121859	0.999998	-0.000056	-0.001650	0.000856
02140	-0.105005	-0.022767	9.730469	0.004303	0.012114	-0.081634	0.999998	-0.000064	-0.001653	0.000864
02141	-0.094693	-0.023188	9.690356	0.014133	0.011658	-0.121858	0.999998	-0.000065	-0.001653	0.000857
02142	-0.092921	0.011891	9.712070	0.016130	0.046843	-0.100292	0.999998	-0.000067	-0.001649	0.000862
02143	-0.105432	-0.023233	9.730463	0.004014	0.011732	-0.081633	0.999998	-0.000061	-0.001641	0.000852
02144	-0.118811	-0.031683	9.705687	-0.009558	0.003116	-0.106226	0.999998	-0.000062	-0.001641	0.000844
02145	-0.093443	0.011580	9.712065	0.015842	0.046461	-0.100290	0.999998	-0.000063	-0.001637	0.000870
02146	-0.095550	-0.023824	9.690346	0.013644	0.011016	-0.121857	0.999998	-0.000066	-0.001631	0.000854
02147	-0.106871	0.002874	9.687289	0.002176	0.037720	-0.124882	0.999998	-0.000066	-0.001644	0.000852
02148	-0.105975	-0.023934	9.730455	0.003525	0.011087	-0.081632	0.999998	-0.000068	-0.001639	0.000857
02149	-0.106123	-0.024036	9.730454	0.003430	0.010962	-0.081632	0.999998	-0.000063	-0.001639	0.000862
02150	-0.106114	-0.024023	9.730454	0.003336	0.010833	-0.081632	0.999998	-0.000054	-0.001650	0.000865
02151	-0.119372	-0.032410	9.705678	-0.010229	0.002225	-0.106227	0.999998	-0.000052	-0.001644	0.000862
02152	-0.106288	-0.024287	9.730451	0.003138	0.010575	-0.081632	0.999998	-0.000066	-0.001648	0.000858
02153	-0.131890	-0.068014	9.724062	-0.022455	-0.033018	-0.087575	0.999998	-0.000072	-0.001644	0.000871
02154	-0.130162	-0.033010	9.745780	-0.020456	0.002164	-0.066004	0.999998	-0.000076	-0.001638	0.000855
02155	-0.119812	-0.033316	9.705670	-0.010621	0.001714	-0.106227	0.999998	-0.000071	-0.001651	0.000865
02156	-0.093325	-0.016590	9.755223	0.016219	0.018541	-0.057035	0.999998	-0.000070	-0.001651	0.000864
02157	-0.096279	-0.025108	9.690336	0.012680	0.009737	-0.121854	0.999998	-0.000059	-0.001642	0.000866
02158	-0.119919	-0.033295	9.705668	-0.010818	0.001452	-0.106227	0.999998	-0.000059	-0.001656	0.000864
02159	-0.106652	-0.025139	9.730445	0.002557	0.009806	-0.081631	0.999998	-0.000068	-0.001659	0.000872
02160	-0.085170	-0.052422	9.693386	0.023757	-0.017480	-0.118831	0.999998	-0.000069	-0.001646	0.000861
02161	-0.096715	-0.025708	9.690330	0.012294	0.009226	-0.121853	0.999998	-0.000070	-0.001642	0.000887
02162	-0.083458	-0.017449	9.715107	0.025668	0.017576	-0.097256	0.999998	-0.000066	-0.001661	0.000893
02163	-0.120228	-0.034060	9.705662	-0.011298	0.000818	-0.106228	0.999998	-0.000065	-0.001655	0.000890
02164	-0.094035	-0.017426	9.755215	0.015543	0.017640	-0.057032	0.999998	-0.000063	-0.001648	0.000887
02165	-0.083747	-0.017707	9.715105	0.025382	0.017193	-0.097254	0.999998	-0.000060	-0.001655	0.000889
02166	-0.118705	0.000863	9.727382	-0.009484	0.035740	-0.084651	0.999998	-0.000063	-0.001650	0.000894
02167	-0.118093	-0.025876	9.770540	-0.008147	0.009103	-0.041408	0.999998	-0.000054	-0.001635	0.000888
02168	-0.108838	0.000546	9.687268	0.000260	0.035165	-0.124872	0.999998	-0.000055	-0.001635	0.000881
02169	-0.097554	-0.026558	9.690319	0.011531	0.008207	-0.121851	0.999998	-0.000066	-0.001645	0.000885
02170	-0.106083	0.008642	9.752155	0.003602	0.043703	-0.060050	0.999998	-0.000064	-0.001639	0.000883
02171	-0.121312	-0.034976	9.705645	-0.012063	-0.000201	-0.106229	0.999998	-0.000056	-0.001644	0.000897
02172	-0.108149	-0.026619	9.730424	0.001307	0.008142	-0.081629	0.999998	-0.000051	-0.001644	0.000902
02173	-0.119559	0.000051	9.727372	-0.010152	0.034850	-0.084648	0.999998	-0.000063	-0.001641	0.000903
02174	-0.145155	-0.043517	9.720968	-0.035759	-0.008742	-0.090608	0.999998	-0.000063	-0.001641	0.000903
02175	-0.109248	-0.000318	9.687263	-0.000313	0.034400	-0.124869	0.999998	-0.000063	-0.001641	0.000903
02176	-0.121580	-0.035499	9.705640	-0.012360	-0.000591	-0.106229	0.999998	-0.000072	-0.001645	0.000912
02177	-0.097229	-0.054149	9.733468	0.012376	-0.019080	-0.078610	0.999998	-0.000064	-0.001638	0.000921
02178	-0.109618	-0.000700	9.687259	-0.000508	0.034140	-0.124869	0.999998	-0.000068	-0.001632	0.000906
02179	-0.108692	-0.027561	9.730416	0.000821	0.007497	-0.081628	0.999998	-0.000070	-0.001651	0.000899
02180	-0.143520	-0.009033	9.742694	-0.034050	0.026047	-0.069027	0.999998	-0.000072	-0.001647	0.000904
02181	-0.097464	-0.054685	9.733463	0.011986	-0.019594	-0.078610	0.999998	-0.000072	-0.001647	0.000904
02182	-0.120118	-0.001038	9.727365	-0.010742	0.034072	-0.084646	0.999998	-0.000075	-0.001642	0.000909
02183	-0.085377	-0.019880	9.715086	0.023931	0.015265	-0.097247	0.999998	-0.000074	-0.001643	0.000922
02184	-0.119573	-0.027991	9.770516	-0.009516	0.007294	-0.041407	0.999998	-0.000075	-0.001631	0.000911
02185	-0.109332	-0.028347	9.730406	0.000329	0.006854	-0.081628	0.999998	-0.000078	-0.001637	0.000900
02186	-0.120577	-0.001612	9.727359	-0.011129	0.033558	-0.084645	0.999998	-0.000075	-0.001644	0.000901
02187	-0.109364	-0.028697	9.730405	0.000136	0.006597	-0.081628	0.999998	-0.000087	-0.001641	0.000902
02188	-0.097168	0.006089	9.712034	0.012086	0.041451	-0.100262	0.999998	-0.000088	-0.001641	0.000895
02189	-0.134092	-0.010676	9.702571	-0.024883	0.024708	-0.109247	0.999998	-0.000099	-0.001638	0.000895
02190	-0.109691	-0.029372	9.730399	-0.000154	0.006207	-0.081627	0.999998	-0.000099	-0.001638	0.000895
02191	-0.121063	-0.002590	9.727353	-0.011513	0.033043	-0.084644	0.999998	-0.000102	-0.001633	0.000900
02192	-0.075057	-0.048315	9.718119	0.034514	-0.012610	-0.094228	0.999998	-0.000102	-0.001633	0.000893
02193	-0.096884	-0.021380	9.755179	0.013118	0.014412	-0.057023	0.999998	-0.000100	-0.001627	0.000891
02194	-0.121454	-0.003000	9.727348	-0.011804	0.032655	-0.084643	0.999998	-0.000103	-0.001634	0.000879
02195	-0.099769	-0.030089	9.690286	0.009403	0.005382	-0.121847	0.999998	-0.000091	-0.001638	0.000885
02196	-0.123404	-0.038311	9.705606	-0.014108	-0.002902	-0.106232	0.999998	-0.000096	-0.001640	0.000886
02197	-0.120617	-0.029931	9.770497	-0.010683	0.005745	-0.041407	0.999998	-0.000093	-0.001647	0.000887
02198	-0.133902	-0.038404	9.745710	-0.024249	-0.002849	-0.066013	0.999998	-0.000095	-0.001642	0.000892
02199	-0.110368	-0.030456	9.730388	-0.000934	0.005178	-0.081627	0.999998	-0.000102	-0.001650	0.000889
02200	-0.074428	0.012466	9.696706	0.034432	0.048189	-0.115868	0.999998	-0.000111	-0.001653	0.000897
02201	-0.100085	-0.031109	9.690280	0.008817	0.004614	-0.121846	0.999998	-0.000109	-0.001647	0.000895
02202	-0.087228	-0.022865	9.715063	0.022183	0.012943	-0.097240	0.999998	-0.000108	-0.001628	0.000888
02203	-0.122261	-0.004223	9.727337	-0.012678	0.031504	-0.084640	0.999998	-0.000103	-0.001640	0.000897
02204	-0.100485	-0.031413	9.690275	0.008528	0.004225	-0.121846	0.999998	-0.000109	-0.001649	0.000894
02205	-0.122109	-0.004536	9.727339	-0.012868	0.031246	-0.084639	0.999998	-0.000107	-0.001655	0.000896
02206	-0.110843	-0.031595	9.730379	-0.001613	0.004278	-0.081627	0.999998	-0.000116	-0.001658	0.000904
02207	-0.085360	0.011525	9.736809	0.023815	0.047600	-0.075643	0.999998	-0.000120	-0.001660	0.000905
02208	-0.098640	0.003006	9.712020	0.010256	0.039013	-0.100249	0.999998	-0.000121	-0.001660	0.000898
02209	-0.087527	-0.023981	9.715058	0.021513	0.012048	-0.097237	0.999998	-0.000119	-0.001653	0.000895
02210	-0.111317	-0.032372	9.730371	-0.002000	0.003765	-0.081626	0.999998	-0.000131	-0.001650	0.000896
02211	-0.099061	0.002487	9.712016	0.009967	0.038630	-0.100248	0.999998	-0.000131	-0.001650	0.000896
02212	-0.087830	-0.024441	9.715054	0.021312	0.011781	-0.097236	0.999998	-0.000130	-0.001652	0.000909
02213	-0.111502	-0.032771	9.730368	-0.002197	0.003505	-0.081626	0.999998	-0.000134	-0.001654	0.000910
02214	-0.133203	-0.005836	9.767434	-0.023598	0.030516	-0.044419	0.999998	-0.000134	-0.001654	0.000910
02215	-0.087982	-0.024732	9.715052	0.021118	0.011522	-0.097236	0.999998	-0.000129	-0.001653	0.000916
02216	-0.099308	0.001870	9.712014	0.009670	0.038228	-0.100246	0.999998	-0.000148	-0.001658	0.000899
02217	-0.111741	-0.033495	9.730363	-0.002490	0.003111	-0.081626	0.999998	-0.000149	-0.001653	0.000925
02218	-0.101316	-0.033691	9.690258	0.007364	0.002678	-0.121844	0.999998	-0.000138	-0.001670	0.000915
02219	-0.101220	-0.033605	9.690260	0.007269	0.002553	-0.121844	0.999998	-0.000127	-0.001673	0.000900
02220	-0.111668	-0.033504	9.730363	-0.002781	0.002723	-0.081626	0.999998	-0.000132	-0.001675	0.000901
02221	-0.112613	-0.006926	9.687222	-0.004270	0.029138	-0.124853	0.999998	-0.000127	-0.001675	0.000907
02222	-0.101495	-0.033901	9.690256	0.006981	0.002167	-0.121844	0.999998	-0.000129	-0.001670	0.000912
02223	-0.110109	0.001373	9.752114	-0.000954	0.037633	-0.060024	0.999998	-0.000125	-0.001669	0.000918
02224	-0.123498	-0.007185	9.727320	-0.014516	0.029053	-0.084635	0.999998	-0.000139	-0.001660	0.000909
02225	-0.123622	-0.007433	9.727318	-0.014610	0.028928	-0.084635	0.999998	-0.000137	-0.001667	0.000911
02226	-0.099989	0.000652	9.712007	0.008705	0.036942	-0.100240	0.999998	-0.000134	-0.001673	0.000912
02227	-0.112286	-0.034558	9.730353	-0.003461	0.001825	-0.081626	0.999998	-0.000141	-0.001682	0.000909
02228	-0.099943	0.000240	9.712007	0.008511	0.036688	-0.100239	0.999998	-0.000146	-0.001683	0.000909
02229	-0.125537	-0.043145	9.705559	-0.017117	-0.006876	-0.106239	0.999998	-0.000130	-0.001686	0.000907
02230	-0.086843	0.008536	9.736799	0.021779	0.044879	-0.075625	0.999998	-0.000134	-0.001688	0.000908
02231	-0.112420	-0.035182	9.730349	-0.003851	0.001315	-0.081626	0.999998	-0.000153	-0.001693	0.000912
02232	-0.123888	-0.008438	9.727314	-0.015295	0.028026	-0.084633	0.999998	-0.000135	-0.001677	0.000911
02233	-0.112724	-0.035159	9.730345	-0.004046	0.001057	-0.081626	0.999998	-0.000123	-0.001693	0.000900
02234	-0.102285	-0.035456	9.690242	0.005817	0.000632	-0.121843	0.999998	-0.000135	-0.001690	0.000901
02235	-0.089260	-0.027392	9.715033	0.019182	0.008951	-0.097229	0.999998	-0.000138	-0.001685	0.000906
02236	-0.099861	-0.027402	9.755134	0.009124	0.009116	-0.057012	0.999998	-0.000140	-0.001680	0.000911
02237	-0.113208	-0.035830	9.730337	-0.004431	0.000547	-0.081626	0.999998	-0.000135	-0.001680	0.000917
02238	-0.102837	-0.036049	9.690234	0.005428	0.000123	-0.121842	0.999998	-0.000132	-0.001687	0.000918
02239	-0.126445	-0.044211	9.705542	-0.018087	-0.008151	-0.106241	0.999998	-0.000122	-0.001690	0.000903
02240	-0.100328	-0.027684	9.755128	0.008731	0.008603	-0.057012	0.999998	-0.000132	-0.001668	0.000904
02241	-0.114598	-0.009573	9.687196	-0.006202	0.026589	-0.124847	0.999998	-0.000138	-0.001677	0.000921
02242	-0.113601	-0.036362	9.730331	-0.004920	-0.000094	-0.081627	0.999998	-0.000126	-0.001693	0.000911
02243	-0.089964	-0.028279	9.715024	0.018406	0.007928	-0.097226	0.999998	-0.000133	-0.001690	0.000924
02244	-0.101417	-0.001520	9.711992	0.006969	0.034644	-0.100230	0.999998	-0.000125	-0.001683	0.000934
02245	-0.103586	-0.036760	9.690223	0.004754	-0.000767	-0.121842	0.999998	-0.000124	-0.001676	0.000931
02246	-0.090466	-0.028617	9.715018	0.018116	0.007539	-0.097226	0.999998	-0.000130	-0.001685	0.000927
02247	-0.101687	-0.002111	9.711989	0.006683	0.034260	-0.100228	0.999998	-0.000149	-0.001690	0.000932
02248	-0.103586	-0.037481	9.690220	0.004465	-0.001151	-0.121842	0.999998	-0.000135	-0.001699	0.000925
02249	-0.114780	-0.010572	9.687193	-0.006967	0.025571	-0.124845	0.999998	-0.000133	-0.001706	0.000927
02250	-0.090425	-0.029218	9.715017	0.017729	0.007031	-0.097224	0.999998	-0.000131	-0.001699	0.000924
02251	-0.090503	-0.029396	9.715016	0.017634	0.006906	-0.097224	0.999998	-0.000138	-0.001708	0.000920
02252	-0.115078	-0.011082	9.687189	-0.007259	0.025187	-0.124844	0.999998	-0.000143	-0.001697	0.000917
02253	-0.090829	-0.029829	9.715011	0.017441	0.006649	-0.097224	0.999998	-0.000144	-0.001697	0.000910
02254	-0.125836	-0.011266	9.727286	-0.017417	0.025218	-0.084629	0.999998	-0.000146	-0.001692	0.000915
02255	-0.104298	-0.038496	9.690209	0.003791	-0.002043	-0.121842	0.999998	-0.000151	-0.001693	0.000916
02256	-0.125950	-0.011500	9.727284	-0.017612	0.024963	-0.084629	0.999998	-0.000137	-0.001703	0.000910
02257	-0.091055	-0.030110	9.715008	0.017053	0.006136	-0.097223	0.999998	-0.000126	-0.001707	0.000896
02258	-0.102559	-0.003191	9.711980	0.005622	0.032857	-0.100223	0.999998	-0.000120	-0.001687	0.000901
02259	-0.102752	-0.003363	9.711978	0.005527	0.032732	-0.100222	0.999998	-0.000131	-0.001697	0.000906
02260	-0.104748	-0.038815	9.690203	0.003310	-0.002680	-0.121842	0.999998	-0.000133	-0.001692	0.000911
02261	-0.078479	-0.022435	9.739801	0.030128	0.014056	-0.072602	0.999998	-0.000143	-0.001694	0.000899
02262	-0.139873	-0.020550	9.702474	-0.031644	0.015767	-0.109248	0.999998	-0.000141	-0.001688	0.000897
02263	-0.091236	-0.057647	9.758121	0.017838	-0.021198	-0.054008	0.999998	-0.000126	-0.001678	0.000891
02264	-0.127211	-0.012320	9.727267	-0.018379	0.023941	-0.084628	0.999998	-0.000141	-0.001669	0.000883
02265	-0.092572	-0.031321	9.714990	0.016285	0.005111	-0.097221	0.999998	-0.000142	-0.001665	0.000909
02266	-0.116165	-0.039508	9.730288	-0.007243	-0.003167	-0.081629	0.999998	-0.000130	-0.001681	0.000898
02267	-0.114168	-0.004298	9.752066	-0.005213	0.031986	-0.060006	0.999998	-0.000127	-0.001680	0.000883
02268	-0.103949	-0.004634	9.711964	0.004659	0.031573	-0.100218	0.999998	-0.000136	-0.001670	0.000888
02269	-0.069292	-0.023489	9.699689	0.039322	0.012742	-0.112811	0.999998	-0.000127	-0.001669	0.000885
02270	-0.116589	-0.039786	9.730282	-0.007632	-0.003676	-0.081629	0.999998	-0.000127	-0.001669	0.000885
02271	-0.117478	-0.013271	9.687158	-0.008988	0.022894	-0.124840	0.999998	-0.000143	-0.001667	0.000894
02272	-0.091205	0.003113	9.736762	0.017825	0.039616	-0.075594	0.999998	-0.000138	-0.001667	0.000899
02273	-0.104339	-0.005166	9.711960	0.004275	0.031066	-0.100216	0.999998	-0.000127	-0.001683	0.000889
02274	-0.093061	-0.032181	9.714983	0.015505	0.004083	-0.097219	0.999998	-0.000139	-0.001680	0.000889
02275	-0.104486	-0.005509	9.711958	0.004083	0.030809	-0.100215	0.999998	-0.000136	-0.001675	0.000907
02276	-0.106522	-0.040772	9.690175	0.001859	-0.004600	-0.121842	0.999998	-0.000133	-0.001681	0.000909
02277	-0.116978	-0.040734	9.730273	-0.008212	-0.004446	-0.081630	0.999998	-0.000134	-0.001681	0.000902
02278	-0.104637	-0.005800	9.711956	0.003792	0.030421	-0.100214	0.999998	-0.000131	-0.001688	0.000903
02279	-0.117121	-0.040889	9.730271	-0.008407	-0.004701	-0.081630	0.999998	-0.000125	-0.001680	0.000892
02280	-0.105110	-0.006094	9.711951	0.003600	0.030169	-0.100213	0.999998	-0.000143	-0.001660	0.000909
02281	-0.104422	-0.033028	9.755069	0.004853	0.003468	-0.057006	0.999998	-0.000132	-0.001677	0.000898
02282	-0.093936	-0.033385	9.714970	0.014730	0.003058	-0.097217	0.999998	-0.000152	-0.001676	0.000914
02283	-0.105274	-0.006826	9.711949	0.003311	0.029786	-0.100212	0.999998	-0.000153	-0.001677	0.000907
02284	-0.094175	-0.033867	9.714966	0.014537	0.002802	-0.097217	0.999998	-0.000155	-0.001672	0.000912
02285	-0.118756	-0.015385	9.687139	-0.010336	0.021111	-0.124837	0.999998	-0.000150	-0.001671	0.000918
02286	-0.116886	0.019676	9.708926	-0.008304	0.056252	-0.103205	0.999998	-0.000154	-0.001673	0.000919
02287	-0.104977	-0.034109	9.755059	0.004268	0.002694	-0.057005	0.999998	-0.000153	-0.001667	0.000916
02288	-0.116378	-0.007286	9.752039	-0.007153	0.029416	-0.059999	0.999998	-0.000148	-0.001667	0.000922
02289	-0.105176	-0.034229	9.755056	0.004075	0.002437	-0.057005	0.999998	-0.000145	-0.001673	0.000923
02290	-0.129800	-0.015812	9.727228	-0.020801	0.020741	-0.084625	0.999998	-0.000152	-0.001657	0.000932
02291	-0.106435	-0.007804	9.711935	0.002538	0.028758	-0.100209	0.999998	-0.000147	-0.001656	0.000938
02292	-0.071787	-0.026615	9.699663	0.037196	0.009917	-0.112799	0.999998	-0.000147	-0.001645	0.000947
02293	-0.143672	-0.024415	9.702409	-0.034541	0.011946	-0.109253	0.999998	-0.000143	-0.001645	0.000953
02294	-0.106958	-0.007996	9.711929	0.002247	0.028372	-0.100207	0.999998	-0.000137	-0.001644	0.000959
02295	-0.107041	-0.008122	9.711928	0.002152	0.028246	-0.100207	0.999998	-0.000142	-0.001646	0.000959
02296	-0.095890	-0.035136	9.714945	0.013374	0.001258	-0.097215	0.999998	-0.000137	-0.001646	0.000965
02297	-0.107376	-0.008449	9.711924	0.001960	0.027988	-0.100206	0.999998	-0.000150	-0.001630	0.000962
02298	-0.096331	-0.035562	9.714939	0.013178	0.001000	-0.097215	0.999998	-0.000147	-0.001637	0.000963
02299	-0.131222	-0.016937	9.727207	-0.021671	0.019589	-0.084625	0.999998	-0.000148	-0.001637	0.000956
02300	-0.120818	-0.017184	9.687110	-0.011789	0.019192	-0.124835	0.999998	-0.000145	-0.001643	0.000957
02301	-0.107665	-0.008947	9.711921	0.001568	0.027479	-0.100205	0.999998	-0.000140	-0.001643	0.000962
02302	-0.131374	-0.017226	9.727204	-0.021967	0.019205	-0.084624	0.999998	-0.000145	-0.001645	0.000963
02303	-0.072826	-0.027832	9.699651	0.036129	0.008506	-0.112794	0.999998	-0.000130	-0.001660	0.000945
02304	-0.131480	-0.017326	9.727203	-0.022159	0.018947	-0.084624	0.999998	-0.000139	-0.001637	0.000946
02305	-0.108010	-0.009287	9.711917	0.001183	0.026963	-0.100203	0.999998	-0.000128	-0.001654	0.000935
02306	-0.107982	-0.009366	9.711917	0.001089	0.026835	-0.100203	0.999998	-0.000135	-0.001650	0.000948
02307	-0.107986	-0.009554	9.711917	0.000995	0.026710	-0.100202	0.999998	-0.000135	-0.001663	0.000945
02308	-0.134383	-0.026282	9.662292	-0.026005	0.009763	-0.149465	0.999998	-0.000137	-0.001658	0.000951
02309	-0.083715	-0.028500	9.739741	0.025567	0.008002	-0.072582	0.999998	-0.000141	-0.001660	0.000951
02310	-0.108261	-0.010092	9.711913	0.000702	0.026321	-0.100201	0.999998	-0.000143	-0.001655	0.000957
02311	-0.118862	-0.010021	9.752006	-0.009382	0.026461	-0.059992	0.999998	-0.000135	-0.001653	0.000954
02312	-0.121025	-0.045385	9.730203	-0.011617	-0.008934	-0.081636	0.999998	-0.000149	-0.001644	0.000946
02313	-0.108652	-0.010502	9.711908	0.000414	0.025940	-0.100200	0.999998	-0.000138	-0.001660	0.000936
02314	-0.133008	0.007893	9.684083	-0.024446	0.044260	-0.127820	0.999998	-0.000158	-0.001660	0.000952
02315	-0.108656	-0.010931	9.711908	0.000222	0.025681	-0.100200	0.999998	-0.000147	-0.001664	0.000938
02316	-0.095533	-0.002623	9.736721	0.013567	0.033954	-0.075566	0.999998	-0.000142	-0.001664	0.000943
02317	-0.107967	-0.037778	9.755013	0.001343	-0.001171	-0.057004	0.999998	-0.000145	-0.001670	0.000932
02318	-0.132442	-0.019441	9.727186	-0.023512	0.017155	-0.084624	0.999998	-0.000157	-0.001667	0.000932
02319	-0.122097	-0.019657	9.687090	-0.013615	0.016767	-0.124832	0.999998	-0.000141	-0.001670	0.000931
02320	-0.097596	-0.038315	9.714916	0.011044	-0.001819	-0.097212	0.999998	-0.000149	-0.001686	0.000943
02321	-0.108918	-0.011749	9.711904	-0.000361	0.024915	-0.100198	0.999998	-0.000162	-0.001670	0.000940
02322	-0.143962	0.006766	9.724171	-0.035214	0.043504	-0.087610	0.999998	-0.000159	-0.001677	0.000941
02323	-0.097914	-0.038976	9.714910	0.010753	-0.002203	-0.097212	0.999998	-0.000160	-0.001677	0.000934
02324	-0.132806	-0.020292	9.727179	-0.024095	0.016392	-0.084624	0.999998	-0.000152	-0.001683	0.000948
02325	-0.109198	-0.012235	9.711900	-0.000747	0.024406	-0.100196	0.999998	-0.000156	-0.001685	0.000949
02326	-0.122468	-0.020639	9.687083	-0.014296	0.015873	-0.124832	0.999998	-0.000151	-0.001685	0.000954
02327	-0.096143	-0.004097	9.736715	0.012506	0.032545	-0.075560	0.999998	-0.000151	-0.001685	0.000954
02328	-0.109478	-0.012479	9.711897	-0.000941	0.024135	-0.100196	0.999998	-0.000155	-0.001674	0.000972
02329	-0.109611	-0.012621	9.711895	-0.001036	0.024010	-0.100195	0.999998	-0.000152	-0.001681	0.000973
02330	-0.098519	-0.039470	9.714902	0.010174	-0.002980	-0.097212	0.999998	-0.000137	-0.001671	0.000967
02331	-0.096603	-0.004314	9.736710	0.012220	0.032154	-0.075558	0.999998	-0.000141	-0.001685	0.000972
02332	-0.109744	-0.012763	9.711893	-0.001329	0.023625	-0.100195	0.999998	-0.000141	-0.001686	0.000965
02333	-0.109836	-0.012902	9.711892	-0.001424	0.023500	-0.100194	0.999998	-0.000142	-0.001686	0.000958
02334	-0.109992	-0.013017	9.711890	-0.001521	0.023366	-0.100194	0.999998	-0.000140	-0.001680	0.000955
02335	-0.120678	-0.012892	9.751980	-0.011614	0.023497	-0.059987	0.999998	-0.000129	-0.001671	0.000957
02336	-0.100022	-0.013383	9.671791	0.008287	0.022857	-0.140400	0.999998	-0.000152	-0.001665	0.000965
02337	-0.099348	-0.040482	9.714889	0.009498	-0.003876	-0.097211	0.999998	-0.000149	-0.001671	0.000967
02338	-0.110447	-0.013526	9.711884	-0.001904	0.022857	-0.100193	0.999998	-0.000133	-0.001687	0.000969
02339	-0.110373	-0.013535	9.711885	-0.001999	0.022732	-0.100193	0.999998	-0.000137	-0.001689	0.000970
02340	-0.086052	-0.032285	9.739709	0.022652	0.004127	-0.072572	0.999998	-0.000132	-0.001689	0.000975
02341	-0.099336	-0.040644	9.714889	0.009110	-0.004391	-0.097211	0.999998	-0.000133	-0.001689	0.000968
02342	-0.085044	0.029486	9.718421	0.023301	0.065734	-0.094099	0.999998	-0.000128	-0.001689	0.000974
02343	-0.110732	-0.013958	9.711880	-0.002384	0.022216	-0.100191	0.999998	-0.000133	-0.001690	0.000975
02344	-0.123106	-0.049176	9.730159	-0.014625	-0.012918	-0.081645	0.999998	-0.000132	-0.001703	0.000972
02345	-0.110939	-0.014331	9.711877	-0.002574	0.021959	-0.100191	0.999998	-0.000140	-0.001674	0.000977
02346	-0.113254	-0.049599	9.690058	-0.004815	-0.013427	-0.121851	0.999998	-0.000129	-0.001678	0.000962
02347	-0.122480	0.012375	9.708869	-0.014066	0.048566	-0.103170	0.999998	-0.000136	-0.001686	0.000959
02348	-0.111407	-0.014678	9.711872	-0.002864	0.021568	-0.100190	0.999998	-0.000132	-0.001673	0.000961
02349	-0.074839	0.001538	9.721420	0.033935	0.037967	-0.091113	0.999998	-0.000144	-0.001670	0.000961
02350	-0.087327	-0.033728	9.739693	0.021689	0.002832	-0.072569	0.999998	-0.000141	-0.001676	0.000962
02351	-0.111835	-0.015144	9.711866	-0.003150	0.021186	-0.100189	0.999998	-0.000135	-0.001668	0.000952
02352	-0.125038	-0.023559	9.687043	-0.015529	0.012540	-0.124829	0.999998	-0.000137	-0.001624	0.000925
02353	-0.098577	-0.007127	9.736688	0.011273	0.029183	-0.075548	0.999998	-0.000126	-0.001628	0.000910
02354	-0.111853	-0.015533	9.711865	-0.002272	0.020672	-0.100188	0.999998	-0.000138	-0.001625	0.000911
02355	-0.088390	-0.007648	9.696594	0.021083	0.028681	-0.115753	0.999998	-0.000140	-0.001619	0.000916
02356	-0.099051	-0.007664	9.736683	0.010988	0.028798	-0.075546	0.999998	-0.000138	-0.001613	0.000913
02357	-0.077527	-0.034836	9.699592	0.032191	0.001557	-0.112776	0.999998	-0.000143	-0.001614	0.000914
02358	-0.138086	-0.059483	9.705302	-0.028251	-0.023225	-0.106290	0.999998	-0.000134	-0.001613	0.000912
02359	-0.112538	-0.016388	9.711856	-0.002742	0.020034	-0.100187	0.999998	-0.000152	-0.001618	0.000916
02360	-0.123703	0.010341	9.708856	-0.014132	0.046770	-0.103161	0.999998	-0.000138	-0.001627	0.000910
02361	-0.088921	-0.008336	9.696589	0.020519	0.027911	-0.115749	0.999998	-0.000131	-0.001620	0.000920
02362	-0.112754	-0.016656	9.711853	-0.003032	0.019645	-0.100186	0.999998	-0.000143	-0.001617	0.000920
02363	-0.136584	-0.025028	9.727116	-0.026577	0.011386	-0.084624	0.999998	-0.000141	-0.001611	0.000917
02364	-0.115073	-0.052158	9.690023	-0.005380	-0.015856	-0.121855	0.999998	-0.000142	-0.001611	0.000910
02365	-0.113131	-0.017105	9.711848	-0.003319	0.019266	-0.100185	0.999998	-0.000139	-0.001617	0.000911
02366	-0.113214	-0.017230	9.711846	-0.003418	0.019136	-0.100185	0.999998	-0.000142	-0.001613	0.000916
02367	-0.136985	-0.025332	9.727109	-0.026964	0.010877	-0.084624	0.999998	-0.000122	-0.001614	0.000907
02368	-0.078539	-0.036007	9.699580	0.031132	0.000140	-0.112772	0.999998	-0.000135	-0.001618	0.000903
02369	-0.089747	-0.009347	9.696580	0.019747	0.026884	-0.115745	0.999998	-0.000133	-0.001624	0.000904
02370	-0.113485	-0.017580	9.711843	-0.003802	0.018624	-0.100184	0.999998	-0.000131	-0.001618	0.000901
02371	-0.076758	-0.001260	9.721405	0.033003	0.035007	-0.091099	0.999998	-0.000129	-0.001624	0.000902
02372	-0.102302	-0.044578	9.714841	0.007292	-0.008507	-0.097212	0.999998	-0.000119	-0.001635	0.000904
02373	-0.076670	-0.001311	9.721405	0.032809	0.034745	-0.091097	0.999998	-0.000120	-0.001636	0.000897
02374	-0.150384	-0.034337	9.702277	-0.041091	0.001602	-0.109271	0.999998	-0.000128	-0.001639	0.000906
02375	-0.076753	-0.001678	9.721405	0.032614	0.034489	-0.091095	0.999998	-0.000128	-0.001639	0.000906
02376	-0.127026	-0.026500	9.687010	-0.017734	0.009603	-0.124829	0.999998	-0.000138	-0.001616	0.000906
02377	-0.100792	-0.010183	9.736663	0.009062	0.026223	-0.075537	0.999998	-0.000135	-0.001635	0.000912
02378	-0.089560	-0.037166	9.739660	0.020254	-0.000781	-0.072566	0.999998	-0.000133	-0.001629	0.000909
02379	-0.137810	-0.026757	9.727094	-0.028027	0.009461	-0.084626	0.999998	-0.000131	-0.001622	0.000906
02380	-0.090618	-0.010550	9.696571	0.018787	0.025597	-0.115739	0.999998	-0.000129	-0.001629	0.000908
02381	-0.114281	-0.018844	9.711831	-0.004763	0.017340	-0.100182	0.999998	-0.000133	-0.001630	0.000909
02382	-0.103124	-0.045818	9.714826	0.006426	-0.009661	-0.097213	0.999998	-0.000123	-0.001634	0.000894
02383	-0.101253	-0.010760	9.736658	0.008491	0.025455	-0.075534	0.999998	-0.000131	-0.001629	0.000886
02384	-0.066548	-0.029673	9.724392	0.043136	0.006585	-0.088120	0.999998	-0.000126	-0.001629	0.000892
02385	-0.113907	-0.045890	9.754910	-0.003872	-0.009804	-0.057010	0.999998	-0.000110	-0.001632	0.000890
02386	-0.114741	-0.019178	9.711825	-0.005240	0.016701	-0.100181	0.999998	-0.000121	-0.001629	0.000891
02387	-0.115040	-0.019449	9.711821	-0.005334	0.016576	-0.100181	0.999998	-0.000124	-0.001611	0.000892
02388	-0.101990	-0.011393	9.736649	0.008013	0.024809	-0.075532	0.999998	-0.000128	-0.001626	0.000897
02389	-0.101962	-0.011473	9.736649	0.007919	0.024684	-0.075532	0.999998	-0.000119	-0.001624	0.000894
02390	-0.115252	-0.019769	9.711818	-0.005622	0.016188	-0.100181	0.999998	-0.000120	-0.001624	0.000887
02391	-0.115394	-0.019924	9.711816	-0.005716	0.016062	-0.100181	0.999998	-0.000122	-0.001619	0.000892
02392	-0.091981	-0.012072	9.696556	0.017645	0.024064	-0.115733	0.999998	-0.000137	-0.001610	0.000884
02393	-0.115656	-0.020380	9.711812	-0.005908	0.015807	-0.100180	0.999998	-0.000126	-0.001626	0.000874
02394	-0.115656	-0.020380	9.711812	-0.006004	0.015673	-0.100180	0.999998	-0.000124	-0.001620	0.000871
02395	-0.103291	0.014546	9.693562	0.006081	0.050553	-0.118698	0.999998	-0.000125	-0.001627	0.000880
02396	-0.104623	-0.047537	9.714802	0.005086	-0.011457	-0.097214	0.999998	-0.000123	-0.001621	0.000878
02397	-0.092335	-0.012548	9.696552	0.017172	0.023423	-0.115731	0.999998	-0.000119	-0.001621	0.000883
02398	-0.116098	-0.020687	9.711806	-0.006389	0.015160	-0.100180	0.999998	-0.000110	-0.001619	0.000881
02399	-0.081334	-0.039574	9.699543	0.028257	-0.003711	-0.112764	0.999998	-0.000118	-0.001622	0.000890
02400	-0.116153	-0.020892	9.711805	-0.006582	0.014907	-0.100179	0.999998	-0.000105	-0.001632	0.000883
02401	-0.102943	-0.012537	9.736638	0.006766	0.023143	-0.075527	0.999998	-0.000094	-0.001635	0.000869
02402	-0.091963	-0.039589	9.739628	0.017947	-0.003863	-0.072562	0.999998	-0.000107	-0.001620	0.000865
02403	-0.116512	-0.021192	9.711800	-0.006867	0.014528	-0.100179	0.999998	-0.000108	-0.001627	0.000874
02404	-0.116535	-0.021288	9.711799	-0.006966	0.014393	-0.100179	0.999998	-0.000103	-0.001627	0.000880
02405	-0.105423	-0.048321	9.714789	0.004217	-0.012609	-0.097215	0.999998	-0.000108	-0.001629	0.000881
02406	-0.116682	-0.021631	9.711797	-0.007155	0.014139	-0.100179	0.999998	-0.000112	-0.001630	0.000882
02407	-0.127913	0.005221	9.708805	-0.018525	0.040891	-0.103142	0.999998	-0.000101	-0.001635	0.000888
02408	-0.081990	-0.040687	9.699533	0.027390	-0.004864	-0.112762	0.999998	-0.000123	-0.001628	0.000896
02409	-0.104473	0.012804	9.693552	0.004746	0.048765	-0.118688	0.999998	-0.000121	-0.001635	0.000897
02410	-0.140712	-0.030345	9.727042	-0.031005	0.005498	-0.084632	0.999998	-0.000105	-0.001625	0.000891
02411	-0.091474	0.021073	9.718385	0.017995	0.056864	-0.094032	0.999998	-0.000110	-0.001639	0.000896
02412	-0.117129	-0.022367	9.711790	-0.007731	0.013372	-0.100178	0.999998	-0.000108	-0.001633	0.000893
02413	-0.103985	-0.014237	9.736624	0.005615	0.021601	-0.075523	0.999998	-0.000108	-0.001646	0.000890
02414	-0.093477	-0.014465	9.696539	0.015543	0.021245	-0.115723	0.999998	-0.000108	-0.001646	0.000883
02415	-0.117272	-0.022763	9.711787	-0.008016	0.012991	-0.100178	0.999998	-0.000110	-0.001641	0.000888
02416	-0.080461	-0.006531	9.721373	0.028789	0.029345	-0.091066	0.999998	-0.000110	-0.001654	0.000885
02417	-0.106851	-0.023062	9.671700	0.001815	0.012515	-0.140378	0.999998	-0.000103	-0.001647	0.000895
02418	-0.106363	-0.049918	9.714771	0.002959	-0.014272	-0.097217	0.999998	-0.000101	-0.001641	0.000892
02419	-0.104487	-0.014817	9.736618	0.005032	0.020833	-0.075521	0.999998	-0.000101	-0.001641	0.000892
02420	-0.117681	-0.022961	9.711782	-0.008410	0.012478	-0.100177	0.999998	-0.000085	-0.001644	0.000890
02421	-0.082889	-0.041747	9.699521	0.026233	-0.006399	-0.112760	0.999998	-0.000090	-0.001646	0.000891
02422	-0.104653	-0.014828	9.736616	0.004837	0.020571	-0.075520	0.999998	-0.000081	-0.001644	0.000889
02423	-0.129141	0.003840	9.708790	-0.019967	0.038975	-0.103137	0.999998	-0.000077	-0.001643	0.000874
02424	-0.094505	-0.015061	9.696528	0.014671	0.020090	-0.115719	0.999998	-0.000081	-0.001633	0.000891
02425	-0.118289	-0.023397	9.711773	-0.008890	0.011837	-0.100177	0.999998	-0.000084	-0.001640	0.000880
02426	-0.118229	-0.023608	9.711773	-0.008987	0.011705	-0.100177	0.999998	-0.000090	-0.001649	0.000897
02427	-0.118344	-0.023843	9.711771	-0.009081	0.011580	-0.100177	0.999998	-0.000095	-0.001638	0.000894
02428	-0.107489	-0.050894	9.714754	0.002093	-0.015431	-0.097218	0.999998	-0.000091	-0.001625	0.000895
02429	-0.095116	-0.015927	9.696521	0.014198	0.019451	-0.115717	0.999998	-0.000091	-0.001637	0.000892
02430	-0.118791	-0.024216	9.711765	-0.009365	0.011198	-0.100177	0.999998	-0.000093	-0.001632	0.000898
02431	-0.105856	-0.015985	9.736602	0.003979	0.019419	-0.075517	0.999998	-0.000078	-0.001623	0.000892
02432	-0.119191	-0.024279	9.711760	-0.009555	0.010943	-0.100177	0.999998	-0.000086	-0.001626	0.000900
02433	-0.095533	-0.016380	9.696516	0.013820	0.018944	-0.115716	0.999998	-0.000090	-0.001632	0.000889
02434	-0.116441	-0.016412	9.776683	-0.006342	0.019247	-0.035318	0.999998	-0.000095	-0.001642	0.000906
02435	-0.106726	0.010157	9.693530	0.002362	0.045568	-0.118672	0.999998	-0.000093	-0.001635	0.000903
02436	-0.119408	-0.025028	9.711755	-0.009939	0.010430	-0.100176	0.999998	-0.000095	-0.001630	0.000909
02437	-0.106423	-0.017025	9.736594	0.003404	0.018648	-0.075516	0.999998	-0.000103	-0.001626	0.000901
02438	-0.082925	-0.008949	9.721350	0.026773	0.026644	-0.091053	0.999998	-0.000089	-0.001624	0.000911
02439	-0.119826	-0.025239	9.711750	-0.010229	0.010050	-0.100176	0.999998	-0.000089	-0.001624	0.000911
02440	-0.083040	-0.008943	9.721349	0.026676	0.026514	-0.091052	0.999998	-0.000089	-0.001624	0.000904
02441	-0.106829	-0.017277	9.736589	0.003111	0.018262	-0.075515	0.999998	-0.000096	-0.001620	0.000917
02442	-0.131370	0.001187	9.708760	-0.021686	0.036675	-0.103132	0.999998	-0.000099	-0.001614	0.000902
02443	-0.072288	-0.036325	9.724329	0.037654	-0.000751	-0.088095	0.999998	-0.000087	-0.001619	0.000908
02444	-0.120338	-0.025830	9.711742	-0.010612	0.009534	-0.100176	0.999998	-0.000092	-0.001620	0.000909
02445	-0.107138	-0.017685	9.736585	0.002730	0.017748	-0.075514	0.999998	-0.000082	-0.001631	0.000911
02446	-0.098621	-0.052938	9.674643	0.010495	-0.017818	-0.137419	0.999998	-0.000081	-0.001633	0.000924
02447	-0.094779	0.017238	9.718361	0.014750	0.052502	-0.094002	0.999998	-0.000080	-0.001626	0.000921
02448	-0.109257	-0.053195	9.714722	0.000267	-0.017860	-0.097222	0.999998	-0.000093	-0.001642	0.000921
02449	-0.107364	-0.018331	9.736581	0.002348	0.017236	-0.075513	0.999998	-0.000095	-0.001626	0.000943
02450	-0.110363	-0.026815	9.671651	-0.001149	0.008559	-0.140373	0.999998	-0.000098	-0.001620	0.000928
02451	-0.060449	-0.002376	9.706101	0.049102	0.033232	-0.106579	0.999998	-0.000096	-0.001626	0.000929
02452	-0.097316	-0.018842	9.696493	0.012093	0.016637	-0.115709	0.999998	-0.000096	-0.001626	0.000922
02453	-0.121075	-0.027065	9.711729	-0.011475	0.008387	-0.100176	0.999998	-0.000092	-0.001626	0.000927
02454	-0.094866	-0.010769	9.761417	0.015293	0.024928	-0.050847	0.999998	-0.000098	-0.001623	0.000940
02455	-0.121338	-0.027401	9.711725	-0.011671	0.008133	-0.100176	0.999998	-0.000099	-0.001623	0.000933
02456	-0.084600	-0.011133	9.721333	0.025140	0.024463	-0.091043	0.999998	-0.000094	-0.001623	0.000939
02457	-0.108397	-0.019412	9.736567	0.001571	0.016213	-0.075511	0.999998	-0.000100	-0.001619	0.000952
02458	-0.084834	-0.011310	9.721331	0.024951	0.024207	-0.091042	0.999998	-0.000084	-0.001622	0.000950
02459	-0.121780	-0.027708	9.711719	-0.012053	0.007625	-0.100176	0.999998	-0.000092	-0.001617	0.000943
02460	-0.098363	-0.019827	9.696481	0.011329	0.015618	-0.115706	0.999998	-0.000097	-0.001606	0.000939
02461	-0.096507	0.015152	9.718347	0.013413	0.050711	-0.093991	0.999998	-0.000095	-0.001612	0.000941
02462	-0.097849	-0.046971	9.739538	0.012350	-0.011323	-0.072559	0.999998	-0.000099	-0.001614	0.000942
02463	-0.098465	-0.020342	9.696479	0.011043	0.015231	-0.115706	0.999998	-0.000103	-0.001628	0.000947
02464	-0.108915	-0.020436	9.736559	0.000903	0.015310	-0.075509	0.999998	-0.000104	-0.001629	0.000939
02465	-0.122246	-0.028712	9.711710	-0.012625	0.006855	-0.100176	0.999998	-0.000096	-0.001622	0.000949
02466	-0.111851	-0.028823	9.671628	-0.002679	0.006520	-0.140372	0.999998	-0.000094	-0.001628	0.000951
02467	-0.098823	-0.020766	9.696474	0.010661	0.014723	-0.115704	0.999998	-0.000099	-0.001617	0.000948
02468	-0.122633	-0.029055	9.711704	-0.012914	0.006470	-0.100176	0.999998	-0.000097	-0.001623	0.000949
02469	-0.122716	-0.029180	9.711703	-0.013008	0.006345	-0.100176	0.999998	-0.000099	-0.001618	0.000954
02470	-0.109630	-0.021096	9.736550	0.000325	0.014542	-0.075508	0.999998	-0.000097	-0.001625	0.000955
02471	-0.122896	-0.029392	9.711700	-0.013202	0.006090	-0.100177	0.999998	-0.000095	-0.001618	0.000952
02472	-0.098814	-0.048306	9.739521	0.011384	-0.012602	-0.072560	0.999998	-0.000104	-0.001609	0.000957
02473	-0.123274	-0.029841	9.711693	-0.013394	0.005836	-0.100177	0.999998	-0.000107	-0.001615	0.000946
02474	-0.075243	-0.040500	9.724290	0.034672	-0.004738	-0.088085	0.999998	-0.000099	-0.001621	0.000960
02475	-0.086491	-0.013705	9.721313	0.023327	0.022025	-0.091032	0.999998	-0.000107	-0.001617	0.000952
02476	-0.099784	-0.022159	9.696461	0.009794	0.013573	-0.115702	0.999998	-0.000112	-0.001619	0.000953
02477	-0.134687	-0.003535	9.708714	-0.025030	0.032215	-0.103124	0.999998	-0.000111	-0.001620	0.000966
02478	-0.110360	-0.022441	9.736539	-0.000446	0.013518	-0.075507	0.999998	-0.000118	-0.001628	0.000963
02479	-0.099845	-0.022794	9.696459	0.009509	0.013192	-0.115701	0.999998	-0.000127	-0.001631	0.000972
02480	-0.110443	-0.022809	9.736537	-0.000637	0.013258	-0.075506	0.999998	-0.000113	-0.001628	0.000962
02481	-0.099873	-0.022955	9.696459	0.009318	0.012932	-0.115700	0.999998	-0.000121	-0.001648	0.000942
02482	-0.110186	-0.023143	9.736539	-0.000832	0.013003	-0.075506	0.999998	-0.000127	-0.001657	0.000959
02483	-0.110966	0.003530	9.693487	-0.002123	0.039570	-0.118645	0.999998	-0.000127	-0.001646	0.000968
02484	-0.088772	-0.050513	9.699427	0.020275	-0.014344	-0.112754	0.999998	-0.000134	-0.001654	0.000965
02485	-0.110468	-0.023630	9.736535	-0.001118	0.012619	-0.075506	0.999998	-0.000125	-0.001652	0.000962
02486	-0.123811	-0.031854	9.711680	-0.014648	0.004172	-0.100178	0.999998	-0.000123	-0.001646	0.000959
02487	-0.089251	-0.050755	9.699421	0.019987	-0.014724	-0.112754	0.999998	-0.000123	-0.001634	0.000969
02488	-0.087450	-0.015763	9.721302	0.022076	0.020354	-0.091026	0.999998	-0.000123	-0.001634	0.000962
02489	-0.100623	-0.024151	9.696448	0.008552	0.011911	-0.115698	0.999998	-0.000129	-0.001643	0.000979
02490	-0.124236	-0.032494	9.711673	-0.015030	0.003663	-0.100178	0.999998	-0.000132	-0.001650	0.000968
02491	-0.100651	-0.024553	9.696447	0.008360	0.011659	-0.115698	0.999998	-0.000136	-0.001644	0.000952
02492	-0.111373	-0.024634	9.736522	-0.001790	0.011725	-0.075505	0.999998	-0.000134	-0.001638	0.000949
02493	-0.122628	0.002205	9.733552	-0.013128	0.038492	-0.078447	0.999998	-0.000132	-0.001644	0.000951
02494	-0.101046	-0.024910	9.696442	0.008072	0.011279	-0.115697	0.999998	-0.000134	-0.001639	0.000956
02495	-0.101175	-0.025105	9.696440	0.007978	0.011154	-0.115697	0.999998	-0.000139	-0.001641	0.000957
02496	-0.088087	-0.017088	9.721294	0.021311	0.019340	-0.091022	0.999998	-0.000140	-0.001641	0.000949
02497	-0.101313	-0.025313	9.696438	0.007788	0.010901	-0.115697	0.999998	-0.000129	-0.001644	0.000935
02498	-0.124960	-0.033524	9.711660	-0.015795	0.002650	-0.100179	0.999998	-0.000134	-0.001654	0.000952
02499	-0.136218	-0.006872	9.708691	-0.027131	0.029418	-0.103121	0.999998	-0.000144	-0.001644	0.000957
02500	-0.088396	-0.017738	9.721290	0.020930	0.018825	-0.091020	0.999998	-0.000149	-0.001645	0.000958
02501	-0.112090	-0.026019	9.736510	-0.002651	0.010579	-0.075503	0.999998	-0.000146	-0.001652	0.000959
02502	-0.101567	-0.026119	9.696433	0.007312	0.010256	-0.115695	0.999998	-0.000146	-0.001652	0.000959
02503	-0.136572	-0.007346	9.708686	-0.027416	0.029031	-0.103120	0.999998	-0.000142	-0.001639	0.000961
02504	-0.101838	-0.026228	9.696430	0.007214	0.010125	-0.115695	0.999998	-0.000141	-0.001652	0.000958
02505	-0.088705	-0.018146	9.721286	0.020548	0.018309	-0.091018	0.999998	-0.000140	-0.001645	0.000955
02506	-0.125736	-0.034693	9.711646	-0.016466	0.001748	-0.100180	0.999998	-0.000151	-0.001642	0.000955
02507	-0.125800	-0.034911	9.711644	-0.016560	0.001623	-0.100180	0.999998	-0.000149	-0.001649	0.000957
02508	-0.099506	-0.018589	9.761359	0.010198	0.018107	-0.050825	0.999998	-0.000144	-0.001648	0.000962
02509	-0.125985	-0.035069	9.711641	-0.016752	0.001366	-0.100180	0.999998	-0.000146	-0.001643	0.000967
02510	-0.112917	-0.026967	9.736498	-0.003421	0.009538	-0.075503	0.999998	-0.000146	-0.001643	0.000967
02511	-0.089350	-0.018883	9.721279	0.020067	0.017656	-0.091016	0.999998	-0.000144	-0.001637	0.000965
02512	-0.102676	-0.027134	9.696419	0.006541	0.009214	-0.115694	0.999998	-0.000139	-0.001637	0.000970
02513	-0.127024	-0.008501	9.668595	-0.018217	0.027679	-0.143311	0.999998	-0.000142	-0.001644	0.000959
02514	-0.113923	-0.000531	9.693454	-0.004889	0.035853	-0.118632	0.999998	-0.000148	-0.001640	0.000972
02515	-0.089677	-0.019440	9.721275	0.019681	0.017137	-0.091014	0.999998	-0.000146	-0.001646	0.000973
02516	-0.139768	-0.044066	9.686770	-0.030758	-0.007721	-0.124860	0.999998	-0.000148	-0.001641	0.000979
02517	-0.089889	-0.019762	9.721272	0.019492	0.016880	-0.091014	0.999998	-0.000153	-0.001643	0.000980
02518	-0.114299	-0.001102	9.693449	-0.005268	0.035344	-0.118630	0.999998	-0.000144	-0.001641	0.000977
02519	-0.090211	-0.019889	9.721269	0.019299	0.016625	-0.091013	0.999998	-0.000144	-0.001630	0.000987
02520	-0.090419	-0.020022	9.721267	0.019201	0.016492	-0.091012	0.999998	-0.000144	-0.001630	0.000980
02521	-0.103454	-0.028491	9.696406	0.005680	0.008065	-0.115692	0.999998	-0.000160	-0.001653	0.000975
02522	-0.090231	-0.020521	9.721267	0.019007	0.016237	-0.091012	0.999998	-0.000153	-0.001646	0.000985
02523	-0.090516	-0.020591	9.721265	0.018913	0.016112	-0.091011	0.999998	-0.000154	-0.001633	0.000974
02524	-0.115029	-0.002025	9.693440	-0.005842	0.034581	-0.118628	0.999998	-0.000159	-0.001635	0.000975
02525	-0.067116	-0.012826	9.706049	0.042215	0.023975	-0.106519	0.999998	-0.000160	-0.001635	0.000968
02526	-0.092925	-0.056113	9.699357	0.016430	-0.019470	-0.112756	0.999998	-0.000151	-0.001634	0.000965
02527	-0.114544	-0.029303	9.736472	-0.004963	0.007485	-0.075501	0.999998	-0.000164	-0.001650	0.000966
02528	-0.104122	-0.029439	9.696396	0.005009	0.007171	-0.115691	0.999998	-0.000146	-0.001633	0.000964
02529	-0.077990	-0.013012	9.746120	0.031766	0.023642	-0.066327	0.999998	-0.000144	-0.001640	0.000965
02530	-0.125920	-0.002599	9.733510	-0.016479	0.033997	-0.078436	0.999998	-0.000155	-0.001649	0.000970
02531	-0.091204	-0.021691	9.721256	0.018151	0.015089	-0.091008	0.999998	-0.000160	-0.001638	0.000967
02532	-0.080808	-0.021987	9.681180	0.028123	0.014781	-0.131197	0.999998	-0.000167	-0.001646	0.000963
02533	-0.139272	-0.011483	9.708643	-0.030189	0.025323	-0.103118	0.999998	-0.000165	-0.001653	0.000964
02534	-0.091302	-0.022261	9.721254	0.017862	0.014701	-0.091007	0.999998	-0.000169	-0.001654	0.000965
02535	-0.128212	-0.038783	9.711598	-0.019151	-0.001836	-0.100185	0.999998	-0.000174	-0.001656	0.000966
02536	-0.080303	-0.049592	9.724207	0.028896	-0.012455	-0.088073	0.999998	-0.000175	-0.001656	0.000959
02537	-0.115258	-0.030983	9.736459	-0.005921	0.006204	-0.075501	0.999998	-0.000181	-0.001652	0.000972
02538	-0.105054	-0.031205	9.696381	0.004052	0.005893	-0.115690	0.999998	-0.000180	-0.001633	0.000965
02539	-0.078874	-0.015017	9.746110	0.030806	0.022354	-0.066321	0.999998	-0.000184	-0.001648	0.000970
02540	-0.092054	-0.023338	9.721244	0.017287	0.013932	-0.091005	0.999998	-0.000182	-0.001641	0.000968
02541	-0.103337	0.003441	9.718288	0.005967	0.040708	-0.093936	0.999998	-0.000187	-0.001643	0.000968
02542	-0.105390	-0.031773	9.696375	0.003674	0.005385	-0.115689	0.999998	-0.000187	-0.001643	0.000968
02543	-0.116691	-0.004901	9.693419	-0.007552	0.032286	-0.118621	0.999998	-0.000187	-0.001631	0.000978
02544	-0.092598	-0.023799	9.721238	0.016999	0.013547	-0.091004	0.999998	-0.000187	-0.001631	0.000971
02545	-0.092630	-0.023909	9.721237	0.016905	0.013422	-0.091003	0.999998	-0.000185	-0.001638	0.000972
02546	-0.103737	0.002895	9.718284	0.005583	0.040192	-0.093934	0.999998	-0.000188	-0.001645	0.000961
02547	-0.129491	-0.040407	9.711574	-0.020208	-0.003240	-0.100187	0.999998	-0.000179	-0.001643	0.000958
02548	-0.105901	-0.032365	9.696368	0.003186	0.004745	-0.115689	0.999998	-0.000183	-0.001645	0.000959
02549	-0.116525	-0.032411	9.736439	-0.006983	0.004794	-0.075501	0.999998	-0.000174	-0.001643	0.000957
02550	-0.106159	-0.032514	9.696364	0.002996	0.004490	-0.115689	0.999998	-0.000177	-0.001638	0.000962
02551	-0.128063	-0.005538	9.733481	-0.018397	0.031440	-0.078431	0.999998	-0.000161	-0.001628	0.000956
02552	-0.082263	-0.051346	9.724182	0.027452	-0.014382	-0.088072	0.999998	-0.000170	-0.001631	0.000965
02553	-0.106564	-0.032765	9.696359	0.002713	0.004109	-0.115689	0.999998	-0.000168	-0.001637	0.000966
02554	-0.093253	-0.024672	9.721229	0.016040	0.012263	-0.091000	0.999998	-0.000164	-0.001657	0.000972
02555	-0.106431	-0.032987	9.696360	0.002524	0.003851	-0.115688	0.999998	-0.000170	-0.001645	0.000969
02556	-0.141398	-0.014331	9.708609	-0.032291	0.022511	-0.103118	0.999998	-0.000167	-0.001652	0.000970
02557	-0.117200	-0.033190	9.736428	-0.007743	0.003766	-0.075501	0.999998	-0.000165	-0.001645	0.000967
02558	-0.106832	-0.033291	9.696354	0.002243	0.003469	-0.115688	0.999998	-0.000161	-0.001645	0.000973
02559	-0.104889	0.001684	9.718272	0.004351	0.038532	-0.093927	0.999998	-0.000165	-0.001646	0.000974
02560	-0.093710	-0.025426	9.721223	0.015476	0.011495	-0.090999	0.999998	-0.000165	-0.001659	0.000971
02561	-0.141720	-0.014938	9.708603	-0.032760	0.021878	-0.103118	0.999998	-0.000169	-0.001653	0.000955
02562	-0.070150	-0.017496	9.706020	0.038784	0.019353	-0.106495	0.999998	-0.000155	-0.001659	0.000982
02563	-0.128763	-0.006841	9.733471	-0.019532	0.029906	-0.078428	0.999998	-0.000159	-0.001653	0.000966
02564	-0.117770	-0.033989	9.736418	-0.008410	0.002867	-0.075501	0.999998	-0.000163	-0.001654	0.000967
02565	-0.094757	0.000862	9.678197	0.013863	0.037592	-0.134110	0.999998	-0.000164	-0.001654	0.000960
02566	-0.094283	-0.026290	9.721215	0.014902	0.010721	-0.090997	0.999998	-0.000176	-0.001651	0.000961
02567	-0.094394	-0.026578	9.721213	0.014808	0.010595	-0.090997	0.999998	-0.000181	-0.001653	0.000962
02568	-0.116169	0.000347	9.758335	-0.006591	0.037534	-0.053736	0.999998	-0.000167	-0.001650	0.000952
02569	-0.118826	-0.007953	9.693391	-0.010022	0.028964	-0.118613	0.999998	-0.000178	-0.001659	0.000956
02570	-0.094602	-0.026952	9.721210	0.014512	0.010203	-0.090996	0.999998	-0.000176	-0.001653	0.000953
02571	-0.084178	-0.027030	9.681139	0.024502	0.009913	-0.131181	0.999998	-0.000176	-0.001653	0.000953
02572	-0.118437	-0.035234	9.736406	-0.009089	0.001959	-0.075502	0.999998	-0.000181	-0.001655	0.000954
02573	-0.119175	-0.008480	9.693387	-0.010313	0.028576	-0.118612	0.999998	-0.000179	-0.001648	0.000951
02574	-0.095096	-0.027397	9.721204	0.014227	0.009816	-0.090995	0.999998	-0.000181	-0.001643	0.000956
02575	-0.119446	-0.008830	9.693383	-0.010501	0.028322	-0.118611	0.999998	-0.000189	-0.001651	0.000953
02576	-0.095175	-0.027817	9.721202	0.014038	0.009559	-0.090994	0.999998	-0.000189	-0.001652	0.000946
02577	-0.106336	-0.000986	9.718256	0.002730	0.036341	-0.093918	0.999998	-0.000187	-0.001658	0.000947
02578	-0.108337	-0.036160	9.696327	0.000427	0.001027	-0.115687	0.999998	-0.000184	-0.001664	0.000949
02579	-0.093308	0.006972	9.743129	0.015959	0.044357	-0.069223	0.999998	-0.000185	-0.001652	0.000938
02580	-0.106700	-0.001476	9.718252	0.002442	0.035950	-0.093916	0.999998	-0.000201	-0.001650	0.000946
02581	-0.108839	-0.036856	9.696319	0.000141	0.000643	-0.115687	0.999998	-0.000202	-0.001650	0.000939
02582	-0.132677	-0.045137	9.711510	-0.023464	-0.007605	-0.100197	0.999998	-0.000203	-0.001645	0.000944
02583	-0.082787	-0.020946	9.746067	0.026785	0.016925	-0.066298	0.999998	-0.000212	-0.001648	0.000953
02584	-0.096039	-0.029182	9.721190	0.013269	0.008524	-0.090992	0.999998	-0.000199	-0.001645	0.000943
02585	-0.096228	-0.029166	9.721188	0.013175	0.008398	-0.090992	0.999998	-0.000198	-0.001639	0.000940
02586	-0.094167	0.005793	9.743122	0.015286	0.043447	-0.069218	0.999998	-0.000200	-0.001658	0.000933
02587	-0.131017	-0.010723	9.733437	-0.021733	0.026940	-0.078424	0.999998	-0.000209	-0.001648	0.000937
02588	-0.083851	0.005246	9.703051	0.025184	0.043037	-0.109400	0.999998	-0.000216	-0.001645	0.000950
02589	-0.144527	-0.019346	9.708554	-0.035344	0.018421	-0.103120	0.999998	-0.000217	-0.001645	0.000943
02590	-0.096709	-0.030133	9.721180	0.012691	0.007759	-0.090991	0.999998	-0.000215	-0.001639	0.000940
02591	-0.107958	-0.003438	9.718238	0.001389	0.034544	-0.093911	0.999998	-0.000229	-0.001642	0.000937
02592	-0.144321	-0.046772	9.751556	-0.033379	-0.010740	-0.060015	0.999998	-0.000112	-0.001581	0.000956
02593	-0.108207	-0.003693	9.718235	0.002332	0.032273	-0.093903	0.999998	-0.000124	-0.001578	0.000957
02594	-0.073455	-0.022676	9.705985	0.036950	0.013349	-0.106477	0.999998	-0.000116	-0.001584	0.000971
02595	-0.121529	-0.012036	9.693354	-0.011279	0.023757	-0.118600	0.999998	-0.000114	-0.001577	0.000968
02596	-0.062610	-0.049920	9.708921	0.047969	-0.013820	-0.103564	0.999998	-0.000130	-0.001575	0.000977
02597	-0.108598	-0.004468	9.718230	0.001952	0.031761	-0.093901	0.999998	-0.000133	-0.001582	0.000966
02598	-0.108658	-0.004739	9.718230	0.001853	0.031628	-0.093901	0.999998	-0.000144	-0.001579	0.000965
02599	-0.097680	-0.031839	9.721165	0.012967	0.004589	-0.090989	0.999998	-0.000136	-0.001577	0.000963
02600	-0.132704	-0.013205	9.733411	-0.021844	0.023254	-0.078415	0.999998	-0.000150	-0.001568	0.000956
02601	-0.097884	-0.032266	9.721162	0.012778	0.004329	-0.090989	0.999998	-0.000147	-0.001587	0.000961
02602	-0.108977	-0.005401	9.718226	0.001477	0.031105	-0.093899	0.999998	-0.000145	-0.001580	0.000958
02603	-0.111276	-0.040646	9.696276	-0.000829	-0.004191	-0.115688	0.999998	-0.000150	-0.001569	0.000955
02604	-0.120506	0.021227	9.715285	-0.009917	0.057757	-0.096808	0.999998	-0.000148	-0.001576	0.000956
02605	-0.133166	-0.014023	9.733404	-0.022316	0.022604	-0.078414	0.999998	-0.000155	-0.001571	0.000949
02606	-0.074770	-0.024964	9.705969	0.035809	0.011786	-0.106471	0.999998	-0.000160	-0.001573	0.000950
02607	-0.122269	-0.041303	9.736335	-0.011306	-0.004568	-0.075505	0.999998	-0.000151	-0.001571	0.000947
02608	-0.123040	-0.014552	9.693331	-0.012514	0.022074	-0.118598	0.999998	-0.000166	-0.001562	0.000939
02609	-0.111950	-0.041659	9.696264	-0.001404	-0.004966	-0.115689	0.999998	-0.000154	-0.001578	0.000929
02610	-0.133748	-0.014658	9.733395	-0.022796	0.021954	-0.078414	0.999998	-0.000147	-0.001558	0.000935
02611	-0.099122	-0.033651	9.721144	0.011824	0.003027	-0.090987	0.999998	-0.000159	-0.001568	0.000940
02612	-0.133896	-0.015003	9.733392	-0.022988	0.021694	-0.078414	0.999998	-0.000158	-0.001568	0.000939
02613	-0.097141	0.001171	9.743094	0.013941	0.038060	-0.069193	0.999998	-0.000161	-0.001563	0.000945
02614	-0.099275	-0.033943	9.721142	0.011625	0.002758	-0.090987	0.999998	-0.000148	-0.001568	0.000950
02615	-0.123047	-0.041992	9.736322	-0.011981	-0.005481	-0.075506	0.999998	-0.000139	-0.001566	0.000948
02616	-0.110662	-0.007106	9.718205	0.000235	0.029416	-0.093894	0.999998	-0.000154	-0.001556	0.000940
02617	-0.099575	-0.034214	9.721138	0.011341	0.002374	-0.090986	0.999998	-0.000143	-0.001573	0.000930
02618	-0.121185	-0.007473	9.758271	-0.010054	0.029293	-0.053710	0.999998	-0.000163	-0.001572	0.000946
02619	-0.099660	-0.034824	9.721135	0.011149	0.002113	-0.090986	0.999998	-0.000170	-0.001568	0.000939
02620	-0.099738	-0.035003	9.721133	0.011051	0.001981	-0.090986	0.999998	-0.000168	-0.001574	0.000940
02621	-0.124020	-0.016333	9.693316	-0.013657	0.020521	-0.118596	0.999998	-0.000172	-0.001576	0.000941
02622	-0.097851	-0.000271	9.743087	0.013076	0.036886	-0.069187	0.999998	-0.000174	-0.001571	0.000946
02623	-0.097948	-0.000358	9.743086	0.012983	0.036759	-0.069187	0.999998	-0.000174	-0.001571	0.000946
02624	-0.115739	-0.051892	9.631289	-0.005970	-0.015043	-0.180576	0.999998	-0.000188	-0.001574	0.000942
02625	-0.134817	-0.017054	9.733376	-0.024045	0.020266	-0.078413	0.999998	-0.000186	-0.001581	0.000943
02626	-0.098028	-0.001021	9.743085	0.012792	0.036496	-0.069185	0.999998	-0.000198	-0.001577	0.000944
02627	-0.100194	-0.036292	9.721124	0.010480	0.001206	-0.090985	0.999998	-0.000193	-0.001577	0.000949
02628	-0.100245	-0.036309	9.721123	0.010384	0.001075	-0.090985	0.999998	-0.000193	-0.001577	0.000950
02629	-0.087729	-0.001412	9.703018	0.022703	0.036103	-0.109366	0.999998	-0.000205	-0.001574	0.000950
02630	-0.100435	-0.036775	9.721120	0.010286	0.000941	-0.090985	0.999998	-0.000209	-0.001576	0.000951
02631	-0.111532	-0.009865	9.718193	-0.001003	0.027731	-0.093889	0.999998	-0.000195	-0.001585	0.000945
02632	-0.135086	-0.018064	9.733371	-0.024615	0.019487	-0.078413	0.999998	-0.000203	-0.001601	0.000958
02633	-0.089938	-0.037167	9.681053	0.020105	0.000421	-0.131166	0.999998	-0.000211	-0.001572	0.000963
02634	-0.111951	-0.010319	9.718188	-0.001287	0.027337	-0.093888	0.999998	-0.000200	-0.001575	0.000948
02635	-0.100824	-0.037362	9.721113	0.009813	0.000292	-0.090984	0.999998	-0.000207	-0.001583	0.000945
02636	-0.111947	-0.010613	9.718188	-0.001480	0.027078	-0.093887	0.999998	-0.000207	-0.001584	0.000938
02637	-0.114064	-0.045863	9.696221	-0.003794	-0.008209	-0.115691	0.999998	-0.000212	-0.001585	0.000939
02638	-0.112155	-0.010987	9.718185	-0.001670	0.026820	-0.093886	0.999998	-0.000214	-0.001580	0.000944
02639	-0.086572	0.032197	9.724977	0.023976	0.069963	-0.087553	0.999998	-0.000200	-0.001578	0.000954
02640	-0.112403	-0.011124	9.718182	-0.001864	0.026563	-0.093886	0.999998	-0.000214	-0.001582	0.000950
02641	-0.101486	-0.038542	9.721102	0.009234	-0.000483	-0.090984	0.999998	-0.000235	-0.001568	0.000962
02642	-0.112629	-0.011888	9.718178	-0.002056	0.026304	-0.093885	0.999998	-0.000231	-0.001588	0.000967
02643	-0.077851	-0.030774	9.705928	0.032561	0.007368	-0.106455	0.999998	-0.000227	-0.001574	0.000969
02644	-0.126033	-0.020152	9.693283	-0.015657	0.017808	-0.118593	0.999998	-0.000228	-0.001575	0.000962
02645	-0.088779	-0.031032	9.745987	0.022266	0.007238	-0.066274	0.999998	-0.000230	-0.001569	0.000967
02646	-0.113223	-0.012365	9.718171	-0.002431	0.025786	-0.093884	0.999998	-0.000232	-0.001564	0.000973
02647	-0.113339	-0.012601	9.718169	-0.002524	0.025659	-0.093883	0.999998	-0.000241	-0.001567	0.000981
02648	-0.122383	0.049067	9.737223	-0.011585	0.087604	-0.074973	0.999998	-0.000255	-0.001575	0.001047
02649	0.487757	1.572369	9.747689	0.591827	1.613349	-0.077466	0.999994	-0.000224	-0.001576	0.003191
02650	-0.920059	2.208429	9.779168	-0.834302	2.236951	-0.032312	0.999963	-0.000193	-0.001525	0.008438
02651	-0.051706	0.535026	9.581842	0.045423	0.572247	-0.232964	0.999888	-0.000069	-0.001487	0.014874
02652	-0.088630	-2.094627	9.828267	0.098473	-2.056288	0.023577	0.999780	-0.000090	-0.001520	0.020906
02653	0.285634	-0.583814	9.743924	0.422179	-0.529185	-0.070603	0.999719	-0.000111	-0.001474	0.023663
02654	-0.146784	-1.249019	9.659634	0.023541	-1.213313	-0.147418	0.999693	-0.000080	-0.001524	0.024738
02655	-0.405058	-0.615717	9.712926	-0.264178	-0.593873	-0.093550	0.999686	-0.000060	-0.001526	0.024999
02656	-0.104147	-0.038199	9.721075	0.007851	-0.002446	-0.090983	0.999686	-0.000041	-0.001509	0.024998
02657	-0.114007	-0.010666	9.718164	-0.003421	0.024345	-0.093880	0.999686	-0.000038	-0.001528	0.025004
02658	-0.104292	-0.038292	9.721073	0.007680	-0.002720	-0.090983	0.999686	-0.000045	-0.001511	0.025014
02659	-0.100823	-0.003571	9.743056	0.009819	0.032302	-0.069167	0.999686	-0.000045	-0.001511	0.025007
02660	-0.128023	-0.018602	9.693260	-0.017089	0.015690	-0.118592	0.999686	-0.000043	-0.001504	0.025004
02661	-0.091406	-0.031273	9.745962	0.020830	0.005096	-0.066270	0.999686	-0.000045	-0.001499	0.025010
02662	-0.101408	-0.003944	9.743050	0.009569	0.031853	-0.069165	0.999686	-0.000041	-0.001491	0.025008
02663	-0.128558	-0.018903	9.693252	-0.017340	0.015264	-0.118592	0.999686	-0.000041	-0.001491	0.025008
02664	-0.091013	-0.004486	9.702987	0.019609	0.031596	-0.109343	0.999686	-0.000036	-0.001490	0.025014
02665	-0.101612	-0.004064	9.743048	0.009408	0.031585	-0.069164	0.999686	-0.000034	-0.001496	0.025016
02666	-0.115203	-0.011739	9.718148	-0.004094	0.023213	-0.093878	0.999686	-0.000045	-0.001493	0.025016
02667	-0.105499	-0.039377	9.721056	0.007001	-0.003842	-0.090983	0.999686	-0.000045	-0.001493	0.025016
02668	-0.128917	-0.019417	9.693246	-0.017589	0.014839	-0.118592	0.999686	-0.000042	-0.001486	0.025014
02669	-0.078026	0.002382	9.727882	0.032670	0.039269	-0.084627	0.999686	-0.000041	-0.001479	0.025011
02670	-0.115770	-0.012203	9.718141	-0.004340	0.022775	-0.093877	0.999686	-0.000044	-0.001480	0.025013
02671	-0.115890	-0.012489	9.718139	-0.004427	0.022644	-0.093877	0.999686	-0.000056	-0.001476	0.025014
02672	-0.092622	-0.032606	9.745946	0.020094	0.003797	-0.066268	0.999686	-0.000041	-0.001485	0.025008
02673	-0.091786	-0.005596	9.702979	0.018943	0.030474	-0.109339	0.999686	-0.000039	-0.001491	0.025010
02674	-0.106276	-0.040254	9.721044	0.006510	-0.004718	-0.090983	0.999686	-0.000050	-0.001474	0.025006
02675	-0.092165	-0.006080	9.702976	0.018769	0.030183	-0.109337	0.999686	-0.000051	-0.001482	0.025016
02676	-0.106408	-0.040733	9.721040	0.006350	-0.004997	-0.090983	0.999686	-0.000058	-0.001489	0.025013
02677	-0.106492	-0.040910	9.721039	0.006262	-0.005128	-0.090983	0.999686	-0.000056	-0.001482	0.025010
02678	-0.129881	-0.021025	9.693230	-0.018397	0.013405	-0.118591	0.999686	-0.000056	-0.001489	0.025021
02679	-0.106617	-0.041146	9.721036	0.006103	-0.005430	-0.090983	0.999686	-0.000052	-0.001487	0.025006
02680	-0.102843	-0.006410	9.743034	0.008247	0.029562	-0.069157	0.999686	-0.000059	-0.001503	0.025019
02681	-0.116467	-0.014187	9.718130	-0.005249	0.021211	-0.093874	0.999686	-0.000071	-0.001486	0.025016
02682	-0.140749	-0.021332	9.733284	-0.028866	0.012941	-0.078414	0.999686	-0.000062	-0.001492	0.025030
02683	-0.116719	-0.014374	9.718127	-0.005425	0.020917	-0.093873	0.999686	-0.000058	-0.001490	0.025015
02684	-0.096468	-0.042444	9.680969	0.015776	-0.006266	-0.131160	0.999686	-0.000062	-0.001492	0.025016
02685	-0.092817	-0.007713	9.702968	0.017922	0.028748	-0.109331	0.999686	-0.000063	-0.001492	0.025009
02686	-0.083083	-0.035244	9.705870	0.029009	0.001676	-0.106441	0.999686	-0.000062	-0.001492	0.025009
02687	-0.117018	-0.014975	9.718122	-0.005696	0.020496	-0.093873	0.999686	-0.000078	-0.001490	0.025018
02688	-0.144074	-0.030014	9.668313	-0.032597	0.003922	-0.143310	0.999686	-0.000064	-0.001499	0.025012
02689	-0.059037	-0.028611	9.690713	0.052367	0.009510	-0.121898	0.999686	-0.000062	-0.001505	0.025013
02690	-0.117082	-0.015183	9.718121	-0.005955	0.020085	-0.093872	0.999686	-0.000059	-0.001499	0.025011
02691	-0.079631	-0.000919	9.727869	0.030896	0.036275	-0.084609	0.999686	-0.000064	-0.001500	0.025012
02692	-0.116589	0.011506	9.675158	-0.007178	0.046638	-0.136936	0.999686	-0.000062	-0.001493	0.025009
02693	-0.107747	-0.043108	9.721015	0.004959	-0.007241	-0.090983	0.999686	-0.000067	-0.001494	0.025010
02694	-0.104095	-0.008379	9.743019	0.007102	0.027762	-0.069151	0.999686	-0.000067	-0.001494	0.025003
02695	-0.107076	-0.016397	9.678054	0.003732	0.019311	-0.134047	0.999686	-0.000064	-0.001500	0.025005
02696	-0.107140	-0.016373	9.678054	0.003641	0.019167	-0.134046	0.999686	-0.000051	-0.001497	0.024995
02697	-0.131260	-0.023456	9.693206	-0.019978	0.010930	-0.118591	0.999686	-0.000062	-0.001506	0.024999
02698	-0.107916	-0.043696	9.721011	0.004511	-0.007927	-0.090984	0.999686	-0.000059	-0.001513	0.025001
02699	-0.117841	-0.016385	9.718110	-0.006748	0.018871	-0.093870	0.999686	-0.000064	-0.001501	0.024998
02700	-0.108324	-0.044047	9.721005	0.004332	-0.008200	-0.090984	0.999686	-0.000066	-0.001496	0.025003
02701	-0.107665	-0.017240	9.678046	0.003201	0.018494	-0.134045	0.999686	-0.000071	-0.001497	0.025004
02702	-0.104807	-0.009517	9.743010	0.006390	0.026669	-0.069147	0.999686	-0.000071	-0.001497	0.024997
02703	-0.108693	-0.044573	9.720998	0.004065	-0.008601	-0.090984	0.999686	-0.000073	-0.001492	0.025003
02704	-0.132006	-0.024694	9.693193	-0.020605	0.009979	-0.118591	0.999686	-0.000073	-0.001505	0.025000
02705	-0.080776	-0.003088	9.727859	0.029654	0.034370	-0.084598	0.999686	-0.000084	-0.001514	0.025004
02706	-0.118572	-0.017719	9.718099	-0.007378	0.017922	-0.093869	0.999686	-0.000083	-0.001495	0.024997
02707	-0.098412	-0.045625	9.680935	0.013831	-0.009242	-0.131159	0.999687	-0.000069	-0.001504	0.024991
02708	-0.118700	-0.017671	9.718097	-0.007553	0.017653	-0.093868	0.999686	-0.000066	-0.001510	0.024993
02709	-0.095502	-0.037829	9.745900	0.016933	-0.001204	-0.066261	0.999686	-0.000068	-0.001505	0.024998
02710	-0.108250	-0.018366	9.678038	0.002401	0.017284	-0.134042	0.999687	-0.000064	-0.001516	0.024987
02711	-0.118936	-0.017951	9.718094	-0.007816	0.017254	-0.093868	0.999687	-0.000060	-0.001503	0.024989
02712	-0.128909	0.009346	9.715196	-0.019074	0.044046	-0.096750	0.999686	-0.000068	-0.001506	0.024998
02713	-0.081447	-0.003821	9.727853	0.028946	0.033291	-0.084593	0.999687	-0.000057	-0.001522	0.024988
02714	-0.132537	-0.025741	9.693183	-0.021489	0.008647	-0.118592	0.999686	-0.000063	-0.001518	0.025001
02715	-0.081463	-0.003963	9.727853	0.028771	0.033026	-0.084591	0.999686	-0.000049	-0.001527	0.024995
02716	-0.119052	-0.018408	9.718091	-0.008258	0.016582	-0.093867	0.999686	-0.000054	-0.001528	0.024996
02717	-0.108660	-0.019129	9.678032	0.001786	0.016353	-0.134041	0.999686	-0.000063	-0.001518	0.025001
02718	-0.139730	0.009101	9.755250	-0.029730	0.043345	-0.056574	0.999686	-0.000063	-0.001518	0.025001
02719	-0.085513	-0.039361	9.705833	0.026267	-0.002515	-0.106434	0.999686	-0.000061	-0.001524	0.025002
02720	-0.081910	-0.004608	9.727849	0.028416	0.032482	-0.084588	0.999686	-0.000065	-0.001514	0.025020
02721	-0.119772	-0.019206	9.718081	-0.008612	0.016047	-0.093866	0.999686	-0.000068	-0.001508	0.025005
02722	-0.096588	-0.039384	9.745883	0.015865	-0.002821	-0.066260	0.999686	-0.000066	-0.001514	0.025006
02723	-0.134290	-0.053869	9.736115	-0.021165	-0.019255	-0.075539	0.999686	-0.000064	-0.001507	0.025003
02724	-0.109553	-0.019944	9.678020	0.001252	0.015550	-0.134039	0.999686	-0.000059	-0.001507	0.025009
02725	-0.133743	-0.027001	9.693163	-0.022373	0.007316	-0.118593	0.999686	-0.000059	-0.001506	0.025002
02726	-0.120316	-0.019752	9.718073	-0.009060	0.015378	-0.093866	0.999686	-0.000064	-0.001508	0.025003
02727	-0.096237	-0.012972	9.702929	0.014392	0.023350	-0.109311	0.999686	-0.000065	-0.001515	0.025013
02728	-0.100006	-0.048017	9.680907	0.012060	-0.011916	-0.131160	0.999686	-0.000066	-0.001515	0.025006
02729	-0.106973	-0.012915	9.742983	0.004080	0.023177	-0.069137	0.999686	-0.000078	-0.001512	0.025006
02730	-0.110226	-0.020965	9.678010	0.000722	0.014752	-0.134038	0.999686	-0.000071	-0.001492	0.025012
02731	-0.107527	-0.013127	9.742976	0.003902	0.022909	-0.069136	0.999686	-0.000068	-0.001498	0.025014
02732	-0.121108	-0.020768	9.718061	-0.009593	0.014577	-0.093865	0.999686	-0.000080	-0.001494	0.025014
02733	-0.100909	-0.048843	9.680893	0.011616	-0.012581	-0.131160	0.999686	-0.000071	-0.001492	0.025012
02734	-0.107859	-0.013544	9.742972	0.003632	0.022503	-0.069135	0.999686	-0.000071	-0.001493	0.025005
02735	-0.097359	-0.014172	9.702916	0.013683	0.022280	-0.109307	0.999686	-0.000076	-0.001494	0.025006
02736	-0.121512	-0.021403	9.718055	-0.009949	0.014041	-0.093864	0.999686	-0.000085	-0.001497	0.025015
02737	-0.087792	-0.042098	9.705801	0.024662	-0.004924	-0.106430	0.999686	-0.000083	-0.001490	0.025013
02738	-0.145138	-0.001684	9.690247	-0.034688	0.032519	-0.121470	0.999686	-0.000086	-0.001484	0.024997
02739	-0.107571	0.012596	9.700024	0.002169	0.048681	-0.112181	0.999686	-0.000081	-0.001496	0.025007
02740	-0.111282	-0.022417	9.677995	-0.000167	0.013418	-0.134036	0.999686	-0.000085	-0.001497	0.025008
02741	-0.098711	-0.042068	9.745850	0.014163	-0.005372	-0.066258	0.999686	-0.000072	-0.001494	0.024998
02742	-0.135600	-0.029475	9.693130	-0.023888	0.005051	-0.118595	0.999686	-0.000076	-0.001496	0.024999
02743	-0.084577	-0.007797	9.727824	0.026372	0.029400	-0.084573	0.999686	-0.000072	-0.001495	0.025004
02744	-0.122156	-0.022266	9.718045	-0.010662	0.012974	-0.093864	0.999686	-0.000071	-0.001508	0.025001
02745	-0.098201	-0.015440	9.702906	0.012794	0.020944	-0.109303	0.999686	-0.000073	-0.001490	0.025024
02746	-0.122401	-0.022443	9.718041	-0.010837	0.012704	-0.093864	0.999686	-0.000061	-0.001506	0.025013
02747	-0.121619	0.004515	9.675101	-0.011935	0.039425	-0.136908	0.999686	-0.000067	-0.001495	0.025010
02748	-0.099279	-0.042706	9.745842	0.013540	-0.006313	-0.066258	0.999686	-0.000062	-0.001506	0.024999
02749	-0.109074	-0.015343	9.742956	0.002300	0.020494	-0.069131	0.999686	-0.000065	-0.001501	0.025005
02750	-0.109210	-0.015538	9.742954	0.002210	0.020356	-0.069130	0.999686	-0.000069	-0.001502	0.025006
02751	-0.098744	-0.016218	9.702899	0.012267	0.020141	-0.109301	0.999686	-0.000076	-0.001498	0.025019
02752	-0.160582	-0.037762	9.708248	-0.048314	-0.004381	-0.103159	0.999686	-0.000076	-0.001498	0.025012
02753	-0.099043	-0.016474	9.702896	0.012090	0.019873	-0.109300	0.999686	-0.000069	-0.001491	0.025022
02754	-0.109960	-0.016205	9.742945	0.001855	0.019819	-0.069129	0.999686	-0.000081	-0.001475	0.025019
02755	-0.099503	-0.016843	9.702890	0.011914	0.019605	-0.109299	0.999686	-0.000076	-0.001487	0.025029
02756	-0.099543	-0.016901	9.702890	0.011822	0.019468	-0.109299	0.999686	-0.000074	-0.001480	0.025026
02757	-0.099643	-0.016986	9.702889	0.011735	0.019337	-0.109299	0.999686	-0.000071	-0.001486	0.025028
02758	-0.110325	-0.016672	9.742940	0.001499	0.019281	-0.069128	0.999686	-0.000073	-0.001481	0.025033
02759	-0.123807	-0.024162	9.718019	-0.011989	0.010969	-0.093863	0.999686	-0.000066	-0.001498	0.025030
02760	-0.099759	-0.017213	9.702887	0.011467	0.018930	-0.109297	0.999686	-0.000061	-0.001485	0.025032
02761	-0.114272	-0.051716	9.720899	-0.001020	-0.016241	-0.090993	0.999685	-0.000059	-0.001491	0.025034
02762	-0.134594	-0.023881	9.758069	-0.022406	0.010644	-0.053693	0.999685	-0.000056	-0.001497	0.025035
02763	-0.124175	-0.024342	9.718014	-0.012345	0.010434	-0.093863	0.999686	-0.000048	-0.001483	0.025029
02764	-0.114725	-0.051841	9.720893	-0.001289	-0.016643	-0.090994	0.999686	-0.000046	-0.001476	0.025026
02765	-0.100539	-0.017461	9.702879	0.011026	0.018267	-0.109296	0.999686	-0.000041	-0.001475	0.025032
02766	-0.114991	-0.051988	9.720889	-0.001467	-0.016909	-0.090994	0.999686	-0.000042	-0.001475	0.025025
02767	-0.138416	-0.031988	9.693082	-0.026099	0.001725	-0.118600	0.999686	-0.000036	-0.001467	0.025014
02768	-0.100958	-0.017771	9.702874	0.010759	0.017865	-0.109295	0.999686	-0.000044	-0.001470	0.025023
02769	-0.111569	-0.017523	9.742924	0.000521	0.017811	-0.069125	0.999686	-0.000042	-0.001476	0.025025
02770	-0.125145	-0.025146	9.718000	-0.012967	0.009500	-0.093863	0.999686	-0.000054	-0.001473	0.025025
02771	-0.101130	-0.018307	9.702871	0.010496	0.017468	-0.109294	0.999686	-0.000042	-0.001477	0.025032
02772	-0.101122	-0.018298	9.702871	0.010406	0.017330	-0.109293	0.999686	-0.000039	-0.001483	0.025033
02773	-0.125325	-0.025347	9.717997	-0.013232	0.009101	-0.093862	0.999686	-0.000037	-0.001476	0.025030
02774	-0.087819	-0.011066	9.727792	0.023628	0.025234	-0.084554	0.999686	-0.000034	-0.001482	0.025032
02775	-0.125449	-0.025583	9.717995	-0.013408	0.008832	-0.093862	0.999686	-0.000039	-0.001483	0.025033
02776	-0.087959	-0.011211	9.727791	0.023452	0.024967	-0.084553	0.999685	-0.000020	-0.001480	0.025036
02777	-0.135375	0.001926	9.715112	-0.024726	0.035510	-0.096728	0.999686	-0.000023	-0.001486	0.025024
02778	-0.091876	-0.046202	9.705745	0.021018	-0.010416	-0.106426	0.999686	-0.000021	-0.001480	0.025022
02779	-0.115148	-0.026275	9.677940	-0.003608	0.008226	-0.134031	0.999686	-0.000025	-0.001494	0.025027
02780	-0.101669	-0.019025	9.702864	0.009697	0.016260	-0.109291	0.999686	-0.000023	-0.001487	0.025024
02781	-0.112384	-0.018633	9.742913	-0.000545	0.016200	-0.069122	0.999686	-0.000023	-0.001487	0.025024
02782	-0.125998	-0.026077	9.717986	-0.013942	0.008026	-0.093863	0.999686	-0.000021	-0.001480	0.025021
02783	-0.139724	-0.033564	9.693058	-0.027426	-0.000274	-0.118603	0.999686	-0.000019	-0.001474	0.025019
02784	-0.102153	-0.019311	9.702858	0.009434	0.015856	-0.109290	0.999686	-0.000019	-0.001486	0.025016
02785	-0.102925	-0.046461	9.745787	0.010330	-0.011150	-0.066258	0.999686	-0.000017	-0.001492	0.025017
02786	-0.077936	-0.012537	9.687735	0.032809	0.023689	-0.124716	0.999686	-0.000014	-0.001498	0.025019
02787	-0.116605	-0.054112	9.720858	-0.003247	-0.019582	-0.091000	0.999686	-0.000021	-0.001482	0.025028
02788	-0.102457	-0.019749	9.702854	0.009079	0.015324	-0.109289	0.999685	-0.000009	-0.001486	0.025034
02789	-0.089120	-0.012414	9.727779	0.022388	0.023359	-0.084546	0.999686	-0.000014	-0.001474	0.025031
02790	-0.123193	0.008015	9.740021	-0.012395	0.042070	-0.071983	0.999686	-0.000005	-0.001473	0.025029
02791	-0.102845	-0.019899	9.702850	0.008814	0.014925	-0.109288	0.999686	-0.000001	-0.001484	0.025018
02792	-0.102829	-0.019991	9.702850	0.008722	0.014788	-0.109287	0.999686	-0.000001	-0.001484	0.025011
02793	-0.102865	-0.020100	9.702849	0.008635	0.014657	-0.109287	0.999686	0.000001	-0.001490	0.025012
02794	-0.099080	0.014692	9.724899	0.010806	0.049628	-0.087405	0.999686	0.000004	-0.001496	0.025014
02795	-0.117373	-0.054685	9.720846	-0.003962	-0.020656	-0.091002	0.999686	0.000008	-0.001483	0.025016
02796	-0.113901	-0.019875	9.742893	-0.001793	0.014316	-0.069119	0.999686	0.000010	-0.001476	0.025013
02797	-0.116968	-0.027722	9.677914	-0.005115	0.005958	-0.134030	0.999686	0.000019	-0.001474	0.025011
02798	-0.118003	-0.054831	9.720837	-0.004231	-0.021059	-0.091003	0.999686	0.000017	-0.001469	0.025016
02799	-0.114391	-0.020111	9.742886	-0.002057	0.013918	-0.069119	0.999686	0.000017	-0.001469	0.025009
02800	-0.090254	-0.013284	9.727767	0.021408	0.021878	-0.084541	0.999686	0.000017	-0.001482	0.025006
02801	-0.103765	-0.020868	9.702838	0.007926	0.013587	-0.109285	0.999686	0.000010	-0.001478	0.025020
02802	-0.103960	-0.021089	9.702835	0.007836	0.013452	-0.109285	0.999686	0.000007	-0.001472	0.025004
02803	-0.094212	-0.048612	9.705710	0.018881	-0.013627	-0.106426	0.999686	0.000020	-0.001488	0.025015
02804	-0.094081	-0.048600	9.705712	0.018788	-0.013765	-0.106426	0.999686	0.000022	-0.001495	0.025016
02805	-0.114452	-0.020838	9.742884	-0.002594	0.013114	-0.069118	0.999686	0.000018	-0.001496	0.025017
02806	-0.141486	-0.035727	9.693025	-0.029474	-0.003337	-0.118610	0.999686	0.000018	-0.001496	0.025017
02807	-0.103848	-0.021511	9.702836	0.007479	0.012915	-0.109284	0.999686	0.000011	-0.001504	0.025013
02808	-0.138690	-0.028330	9.757999	-0.026333	0.004742	-0.053698	0.999686	0.000002	-0.001494	0.025019
02809	-0.093492	-0.022420	9.662784	0.017468	0.012585	-0.149449	0.999686	0.000004	-0.001500	0.025020
02810	-0.114788	-0.021784	9.742878	-0.002953	0.012571	-0.069117	0.999686	-0.000008	-0.001496	0.025020
02811	-0.117623	-0.029813	9.677900	-0.006269	0.004226	-0.134030	0.999686	-0.000004	-0.001515	0.025026
02812	-0.103992	-0.022414	9.702832	0.007035	0.012245	-0.109282	0.999685	0.000008	-0.001520	0.025032
02813	-0.137812	-0.001972	9.715078	-0.027741	0.030969	-0.096720	0.999686	0.000001	-0.001527	0.025029
02814	-0.090441	-0.015245	9.727763	0.020250	0.020132	-0.084534	0.999686	0.000001	-0.001528	0.025029
02815	-0.080744	-0.042839	9.730633	0.031379	-0.006818	-0.081678	0.999686	-0.000004	-0.001529	0.025030
02816	-0.113820	0.004700	9.699960	-0.004363	0.038794	-0.112137	0.999686	0.000009	-0.001526	0.025019
02817	-0.128368	-0.029752	9.717945	-0.016883	0.003618	-0.093865	0.999685	0.000008	-0.001521	0.025046
02818	-0.081227	-0.043066	9.730628	0.031104	-0.007220	-0.081678	0.999686	0.000005	-0.001515	0.025030
02819	-0.128649	-0.030151	9.717940	-0.017064	0.003354	-0.093865	0.999686	-0.000002	-0.001523	0.025027
02820	-0.115110	-0.022944	9.742872	-0.003763	0.011368	-0.069116	0.999686	0.000000	-0.001529	0.025028
02821	-0.104520	-0.023518	9.702824	0.006319	0.011181	-0.109281	0.999686	-0.000004	-0.001531	0.025029
02822	-0.104544	-0.023668	9.702823	0.006229	0.011045	-0.109280	0.999686	-0.000002	-0.001537	0.025031
02823	-0.128633	-0.030709	9.717938	-0.017420	0.002820	-0.093865	0.999685	0.000001	-0.001543	0.025032
02824	-0.128645	-0.030900	9.717938	-0.017511	0.002684	-0.093865	0.999685	-0.000008	-0.001545	0.025041
02825	-0.104568	-0.024052	9.702822	0.005964	0.010647	-0.109280	0.999686	0.000003	-0.001549	0.025026
02826	-0.104797	-0.024089	9.702819	0.005872	0.010510	-0.109280	0.999685	0.000001	-0.001532	0.025049
02827	-0.104965	-0.024099	9.702817	0.005785	0.010379	-0.109279	0.999685	0.000015	-0.001541	0.025043
02828	-0.105794	-0.051137	9.745733	0.006648	-0.016655	-0.066263	0.999685	0.000018	-0.001547	0.025044
02829	-0.114719	0.003287	9.699950	-0.005514	0.037066	-0.112131	0.999685	0.000015	-0.001542	0.025049
02830	-0.091707	-0.016951	9.727748	0.018911	0.018124	-0.084528	0.999685	0.000017	-0.001535	0.025047
02831	-0.082066	-0.044616	9.730614	0.029946	-0.008961	-0.081676	0.999685	0.000010	-0.001543	0.025043
02832	-0.115034	0.002779	9.699946	-0.005781	0.036665	-0.112130	0.999685	0.000010	-0.001543	0.025036
02833	-0.129560	-0.031858	9.717922	-0.018311	0.001488	-0.093867	0.999685	0.000003	-0.001539	0.025050
02834	-0.067808	-0.010654	9.712633	0.042121	0.025679	-0.099938	0.999685	0.000015	-0.001555	0.025039
02835	-0.119849	-0.059536	9.720787	-0.007367	-0.025735	-0.091016	0.999685	0.000006	-0.001545	0.025044
02836	-0.092268	-0.017986	9.727741	0.018378	0.017317	-0.084525	0.999685	0.000001	-0.001534	0.025041
02837	-0.092464	-0.018208	9.727738	0.018290	0.017185	-0.084525	0.999685	-0.000004	-0.001535	0.025042
02838	-0.116653	-0.025383	9.742847	-0.005365	0.008956	-0.069114	0.999685	-0.000009	-0.001536	0.025043
02839	-0.091738	0.008559	9.684827	0.017170	0.043823	-0.127537	0.999685	0.000000	-0.001534	0.025041
02840	-0.107249	-0.053036	9.745707	0.005575	-0.018264	-0.066265	0.999685	-0.000004	-0.001524	0.025059
02841	-0.092989	-0.018788	9.727732	0.017936	0.016651	-0.084523	0.999685	-0.000007	-0.001530	0.025047
02842	-0.130795	-0.033386	9.717901	-0.019111	0.000286	-0.093868	0.999685	-0.000019	-0.001514	0.025044
02843	-0.140652	-0.006091	9.715036	-0.030316	0.027110	-0.096717	0.999685	-0.000014	-0.001526	0.025054
02844	-0.106665	-0.026704	9.702792	0.004279	0.008111	-0.109277	0.999685	-0.000013	-0.001539	0.025051
02845	-0.130744	-0.033834	9.717900	-0.019376	-0.000112	-0.093869	0.999685	-0.000018	-0.001540	0.025052
02846	-0.106714	-0.027005	9.702791	0.004102	0.007843	-0.109276	0.999685	-0.000013	-0.001540	0.025058
02847	-0.131073	-0.033956	9.717895	-0.019553	-0.000380	-0.093869	0.999685	-0.000005	-0.001525	0.025051
02848	-0.069451	-0.012724	9.712618	0.040883	0.023802	-0.099927	0.999685	-0.000004	-0.001538	0.025048
02849	-0.131217	-0.034160	9.717892	-0.019730	-0.000648	-0.093869	0.999685	-0.000008	-0.001531	0.025033
02850	-0.107298	-0.027376	9.702783	0.003747	0.007309	-0.109276	0.999685	-0.000009	-0.001527	0.025059
02851	-0.093879	-0.020179	9.727721	0.017050	0.015312	-0.084519	0.999685	-0.000012	-0.001534	0.025048
02852	-0.107358	-0.027636	9.702782	0.003566	0.007042	-0.109275	0.999685	-0.000011	-0.001534	0.025048
02853	-0.092990	0.006699	9.684816	0.016022	0.042090	-0.127527	0.999685	-0.000016	-0.001535	0.025049
02854	-0.107482	-0.027872	9.702780	0.003478	0.006907	-0.109275	0.999685	-0.000011	-0.001534	0.025054
02855	-0.094083	-0.020645	9.727718	0.016780	0.014909	-0.084518	0.999685	-0.000017	-0.001535	0.025035
02856	-0.141486	-0.007690	9.715023	-0.031382	0.025507	-0.096716	0.999685	-0.000020	-0.001537	0.025056
02857	-0.107790	-0.028370	9.702775	0.003214	0.006509	-0.109275	0.999685	-0.000019	-0.001530	0.025054
02858	-0.117701	-0.001101	9.699914	-0.007988	0.033328	-0.112119	0.999685	-0.000030	-0.001527	0.025055
02859	-0.107934	-0.028808	9.702772	0.003037	0.006239	-0.109275	0.999685	-0.000027	-0.001546	0.025060
02860	-0.118574	-0.028593	9.742815	-0.007235	0.006143	-0.069113	0.999685	-0.000036	-0.001536	0.025065
02861	-0.117872	-0.001637	9.699912	-0.008251	0.032931	-0.112118	0.999685	-0.000027	-0.001534	0.025063
02862	-0.108259	-0.029214	9.702767	0.002769	0.005833	-0.109274	0.999685	-0.000032	-0.001535	0.025064
02863	-0.119036	-0.028963	9.742808	-0.007502	0.005741	-0.069113	0.999685	-0.000030	-0.001528	0.025061
02864	-0.085238	-0.049612	9.730562	0.027088	-0.013266	-0.081672	0.999685	-0.000029	-0.001541	0.025058
02865	-0.108455	-0.029669	9.702764	0.002503	0.005433	-0.109274	0.999684	-0.000036	-0.001537	0.025072
02866	-0.108560	-0.029703	9.702762	0.002413	0.005298	-0.109274	0.999685	-0.000020	-0.001540	0.025070
02867	-0.129061	-0.001919	9.739948	-0.018968	0.032164	-0.071955	0.999685	-0.000034	-0.001530	0.025062
02868	-0.085649	-0.050199	9.730555	0.026733	-0.013804	-0.081672	0.999685	-0.000032	-0.001536	0.025064
02869	-0.129229	-0.002274	9.739946	-0.019144	0.031895	-0.071955	0.999685	-0.000032	-0.001536	0.025057
02870	-0.129301	-0.002494	9.739945	-0.019233	0.031759	-0.071955	0.999685	-0.000041	-0.001539	0.025066
02871	-0.095603	-0.023230	9.727697	0.015361	0.012756	-0.084513	0.999685	-0.000039	-0.001532	0.025063
02872	-0.118817	-0.003281	9.699900	-0.009222	0.031457	-0.112114	0.999684	-0.000047	-0.001548	0.025076
02873	-0.119753	-0.030567	9.742795	-0.008390	0.004400	-0.069113	0.999684	-0.000045	-0.001541	0.025074
02874	-0.094679	0.003397	9.684802	0.014173	0.039277	-0.127512	0.999684	-0.000042	-0.001560	0.025079
02875	-0.119705	-0.030732	9.742795	-0.008571	0.004130	-0.069113	0.999684	-0.000040	-0.001553	0.025076
02876	-0.095781	-0.023952	9.727694	0.014913	0.012083	-0.084511	0.999684	-0.000047	-0.001549	0.025090
02877	-0.095857	-0.024121	9.727693	0.014826	0.011951	-0.084511	0.999684	-0.000044	-0.001555	0.025091
02878	-0.095029	0.002890	9.684798	0.013819	0.038747	-0.127510	0.999684	-0.000042	-0.001549	0.025089
02879	-0.096090	-0.024453	9.727690	0.014647	0.011686	-0.084511	0.999684	-0.000056	-0.001552	0.025085
02880	-0.085551	-0.024986	9.687646	0.024748	0.011517	-0.124670	0.999684	-0.000043	-0.001549	0.025074
02881	-0.096246	-0.024616	9.727688	0.014470	0.011417	-0.084510	0.999685	-0.000046	-0.001555	0.025063
02882	-0.133937	-0.039134	9.717836	-0.022583	-0.004927	-0.093877	0.999684	-0.000052	-0.001551	0.025076
02883	-0.106062	0.002602	9.724837	0.003189	0.038111	-0.087347	0.999684	-0.000038	-0.001561	0.025070
02884	-0.072219	-0.017985	9.712590	0.037778	0.019101	-0.099904	0.999684	-0.000043	-0.001562	0.025071
02885	-0.130261	-0.004568	9.739931	-0.020565	0.029757	-0.071951	0.999685	-0.000043	-0.001562	0.025064
02886	-0.085895	-0.025594	9.687642	0.024214	0.010717	-0.124667	0.999684	-0.000038	-0.001562	0.025070
02887	-0.134238	-0.039622	9.717830	-0.023029	-0.005590	-0.093878	0.999684	-0.000043	-0.001563	0.025071
02888	-0.106434	0.002126	9.724833	0.002741	0.037443	-0.087345	0.999685	-0.000030	-0.001560	0.025061
02889	-0.096924	-0.025299	9.727679	0.013755	0.010348	-0.084508	0.999684	-0.000023	-0.001552	0.025071
02890	-0.096904	-0.025331	9.727679	0.013666	0.010212	-0.084507	0.999684	-0.000019	-0.001571	0.025077
02891	-0.121009	-0.032362	9.742773	-0.010000	0.001993	-0.069114	0.999684	-0.000018	-0.001564	0.025074
02892	-0.110520	-0.032911	9.702730	0.000104	0.001827	-0.109272	0.999684	-0.000022	-0.001566	0.025075
02893	-0.121170	-0.032709	9.742770	-0.010178	0.001723	-0.069114	0.999684	-0.000024	-0.001573	0.025085
02894	-0.120260	-0.005704	9.699881	-0.011171	0.028525	-0.112107	0.999684	-0.000019	-0.001573	0.025090
02895	-0.096230	0.001158	9.684787	0.012322	0.036481	-0.127499	0.999684	-0.000019	-0.001572	0.025083
02896	-0.086604	-0.026558	9.687633	0.023326	0.009380	-0.124664	0.999684	-0.000028	-0.001575	0.025092
02897	-0.135000	-0.040648	9.717815	-0.023921	-0.006925	-0.093881	0.999684	-0.000026	-0.001569	0.025090
02898	-0.097355	-0.026444	9.727672	0.012954	0.009137	-0.084505	0.999684	-0.000023	-0.001587	0.025095
02899	-0.110870	-0.033934	9.702722	-0.000517	0.000895	-0.109272	0.999684	-0.000028	-0.001576	0.025092
02900	-0.124649	-0.041336	9.677770	-0.013988	-0.007351	-0.134040	0.999684	-0.000017	-0.001567	0.025095
02901	-0.097832	-0.026721	9.727666	0.012692	0.008737	-0.084505	0.999684	-0.000021	-0.001568	0.025096
02902	-0.111411	-0.034185	9.702715	-0.000779	0.000490	-0.109272	0.999684	-0.000016	-0.001568	0.025101
02903	-0.121282	-0.006706	9.699868	-0.011961	0.027326	-0.112105	0.999684	-0.000010	-0.001560	0.025091
02904	-0.098270	-0.026939	9.727661	0.012425	0.008331	-0.084504	0.999684	-0.000011	-0.001560	0.025084
02905	-0.136056	-0.041284	9.717798	-0.024627	-0.007994	-0.093884	0.999684	-0.000004	-0.001552	0.025094
02906	-0.087771	-0.027424	9.687620	0.022448	0.008041	-0.124660	0.999684	-0.000000	-0.001571	0.025100
02907	-0.102171	-0.062044	9.705553	0.009872	-0.027143	-0.106441	0.999684	-0.000008	-0.001566	0.025092
02908	-0.087927	-0.027820	9.687617	0.022276	0.007773	-0.124660	0.999684	-0.000010	-0.001561	0.025098
02909	-0.136282	-0.041837	9.717793	-0.024977	-0.008529	-0.093885	0.999684	-0.000008	-0.001567	0.025099
02910	-0.098812	-0.027660	9.727654	0.011896	0.007523	-0.084503	0.999684	-0.000007	-0.001555	0.025109
02911	-0.099045	-0.027992	9.727650	0.011808	0.007391	-0.084502	0.999684	-0.000029	-0.001553	0.025105
02912	-0.123176	-0.035222	9.742736	-0.011867	-0.000830	-0.069116	0.999683	-0.000023	-0.001566	0.025115
02913	-0.098981	-0.028250	9.727650	0.011630	0.007124	-0.084502	0.999684	-0.000012	-0.001569	0.025100
02914	-0.098126	-0.001221	9.684768	0.010649	0.033937	-0.127488	0.999683	-0.000018	-0.001565	0.025113
02915	-0.098249	-0.001457	9.684767	0.010562	0.033806	-0.127487	0.999683	-0.000023	-0.001566	0.025114
02916	-0.108996	-0.001157	9.724804	0.000266	0.033687	-0.087330	0.999683	-0.000014	-0.001565	0.025112
02917	-0.099407	-0.028744	9.727644	0.011268	0.006587	-0.084501	0.999683	-0.000019	-0.001566	0.025113
02918	-0.099556	-0.028898	9.727643	0.011175	0.006448	-0.084501	0.999683	-0.000017	-0.001560	0.025110
02919	-0.122844	-0.008769	9.699847	-0.013382	0.025186	-0.112101	0.999683	-0.000017	-0.001560	0.025110
02920	-0.099720	-0.028960	9.727641	0.011084	0.006310	-0.084501	0.999683	-0.000012	-0.001559	0.025116
02921	-0.085532	0.005288	9.709713	0.023493	0.041232	-0.102712	0.999683	-0.000024	-0.001543	0.025113
02922	-0.128114	-0.071154	9.720603	-0.014969	-0.037113	-0.091062	0.999683	-0.000021	-0.001549	0.025114
02923	-0.076077	-0.022546	9.712551	0.034409	0.013992	-0.099883	0.999684	-0.000022	-0.001549	0.025107
02924	-0.124440	-0.036560	9.742715	-0.012854	-0.002310	-0.069117	0.999683	-0.000021	-0.001549	0.025121
02925	-0.123563	-0.009566	9.699837	-0.013823	0.024516	-0.112100	0.999683	-0.000022	-0.001549	0.025114
02926	-0.100427	-0.029854	9.727631	0.010557	0.005505	-0.084500	0.999683	-0.000019	-0.001555	0.025116
02927	-0.147752	-0.016526	9.714918	-0.037584	0.016164	-0.096718	0.999684	0.000001	-0.001557	0.025106
02928	-0.113110	-0.010118	9.659797	-0.003877	0.024105	-0.152254	0.999683	-0.000022	-0.001550	0.025114
02929	-0.124867	-0.037053	9.742708	-0.013293	-0.002973	-0.069118	0.999683	-0.000006	-0.001553	0.025112
02930	-0.086474	0.004165	9.709705	0.022708	0.040027	-0.102705	0.999683	-0.000026	-0.001539	0.025125
02931	-0.114535	-0.037892	9.702665	-0.003263	-0.003254	-0.109273	0.999683	-0.000022	-0.001550	0.025114
02932	-0.101098	-0.030638	9.727621	0.010027	0.004702	-0.084499	0.999683	-0.000020	-0.001544	0.025111
02933	-0.097445	0.004034	9.749739	0.012235	0.039636	-0.062548	0.999683	-0.000024	-0.001545	0.025112
02934	-0.125411	-0.037885	9.742698	-0.013739	-0.003650	-0.069119	0.999683	-0.000022	-0.001551	0.025114
02935	-0.101408	-0.031138	9.727616	0.009762	0.004301	-0.084498	0.999683	-0.000031	-0.001541	0.025119
02936	-0.115093	-0.038629	9.702656	-0.003711	-0.003926	-0.109274	0.999683	-0.000026	-0.001541	0.025125
02937	-0.087189	0.003079	9.709699	0.022088	0.039089	-0.102700	0.999683	-0.000024	-0.001547	0.025126
02938	-0.125665	-0.038307	9.742693	-0.014098	-0.004182	-0.069120	0.999683	-0.000012	-0.001563	0.025116
02939	-0.111269	-0.003836	9.724778	-0.001677	0.030742	-0.087321	0.999683	-0.000008	-0.001549	0.025117
02940	-0.091220	-0.031784	9.687575	0.019528	0.003627	-0.124652	0.999683	-0.000006	-0.001543	0.025115
02941	-0.115510	-0.038878	9.702650	-0.004150	-0.004587	-0.109274	0.999683	-0.000011	-0.001544	0.025116
02942	-0.111838	-0.004300	9.724771	-0.001941	0.030339	-0.087320	0.999684	-0.000018	-0.001539	0.025108
02943	-0.102207	-0.031874	9.727606	0.009052	0.003234	-0.084497	0.999684	-0.000005	-0.001549	0.025102
02944	-0.115914	-0.039280	9.702643	-0.004418	-0.004990	-0.109275	0.999684	-0.000014	-0.001526	0.025103
02945	-0.125829	-0.012053	9.699805	-0.015585	0.021853	-0.112096	0.999683	-0.000020	-0.001534	0.025121
02946	-0.125777	-0.012269	9.699805	-0.015674	0.021719	-0.112096	0.999684	-0.000023	-0.001541	0.025109
02947	-0.091977	-0.033036	9.687563	0.018910	0.002696	-0.124650	0.999684	-0.000028	-0.001542	0.025110
02948	-0.113387	-0.032417	9.767632	-0.001613	0.002567	-0.044343	0.999683	-0.000023	-0.001542	0.025116
02949	-0.078635	-0.025866	9.712522	0.032107	0.010514	-0.099871	0.999683	-0.000023	-0.001542	0.025116
02950	-0.125925	-0.012655	9.699803	-0.015945	0.021318	-0.112095	0.999683	-0.000020	-0.001548	0.025117
02951	-0.113565	-0.032672	9.767630	-0.001792	0.002299	-0.044343	0.999683	-0.000030	-0.001538	0.025122
02952	-0.102980	-0.033212	9.727593	0.008329	0.002161	-0.084496	0.999683	-0.000024	-0.001550	0.025132
02953	-0.116402	-0.040497	9.702632	-0.005136	-0.006054	-0.109275	0.999683	-0.000013	-0.001554	0.025117
02954	-0.102184	-0.006004	9.684724	0.007289	0.028864	-0.127468	0.999683	-0.000007	-0.001534	0.025124
02955	-0.116819	-0.040513	9.702627	-0.005315	-0.006323	-0.109276	0.999683	-0.000007	-0.001547	0.025121
02956	-0.079229	-0.026372	9.712516	0.031567	0.009699	-0.099868	0.999683	-0.000004	-0.001540	0.025118
02957	-0.113272	-0.005892	9.724754	-0.003190	0.028463	-0.087314	0.999683	-0.000002	-0.001533	0.025116
02958	-0.137529	-0.012875	9.739824	-0.026876	0.020249	-0.071942	0.999683	-0.000002	-0.001533	0.025115
02959	-0.113456	-0.006155	9.724752	-0.003281	0.028329	-0.087314	0.999683	-0.000018	-0.001531	0.025124
02960	-0.127953	-0.040754	9.742653	-0.015892	-0.006865	-0.069124	0.999683	-0.000004	-0.001541	0.025118
02961	-0.089274	0.000660	9.709681	0.020137	0.036141	-0.102684	0.999683	-0.000002	-0.001547	0.025119
02962	-0.103848	-0.033874	9.727582	0.007528	0.000944	-0.084495	0.999683	0.000000	-0.001540	0.025117
02963	-0.103932	-0.034052	9.727580	0.007440	0.000812	-0.084495	0.999683	-0.000007	-0.001548	0.025114
02964	-0.127121	-0.013960	9.699785	-0.017101	0.019575	-0.112094	0.999683	0.000003	-0.001546	0.025111
02965	-0.089594	0.000201	9.709678	0.019785	0.035602	-0.102682	0.999683	-0.000002	-0.001547	0.025112
02966	-0.093487	-0.034793	9.687543	0.017394	0.000409	-0.124647	0.999684	-0.000002	-0.001547	0.025105
02967	-0.104302	-0.034579	9.727574	0.007086	0.000274	-0.084495	0.999683	-0.000005	-0.001542	0.025111
02968	-0.104551	-0.034818	9.727571	0.006995	0.000141	-0.084495	0.999683	-0.000014	-0.001532	0.025116
02969	-0.118144	-0.042401	9.702603	-0.006468	-0.008066	-0.109278	0.999683	-0.000020	-0.001540	0.025133
02970	-0.104641	-0.035179	9.727568	0.006819	-0.000131	-0.084495	0.999683	-0.000009	-0.001544	0.025119
02971	-0.090149	-0.000773	9.709673	0.019259	0.034795	-0.102678	0.999683	-0.000011	-0.001551	0.025128
02972	-0.118185	-0.042692	9.702601	-0.006732	-0.008473	-0.109278	0.999683	-0.000013	-0.001546	0.025134
02973	-0.124176	0.019438	9.721911	-0.015584	0.053427	-0.090123	0.999683	-0.000018	-0.001547	0.025135
02974	-0.104803	-0.035760	9.727565	0.006466	-0.000670	-0.084495	0.999683	-0.000017	-0.001560	0.025132
02975	-0.094090	-0.036349	9.687531	0.016603	-0.000794	-0.124645	0.999683	-0.000027	-0.001561	0.025120
02976	-0.127989	-0.015953	9.699771	-0.018152	0.017971	-0.112093	0.999683	-0.000022	-0.001561	0.025126
02977	-0.118363	-0.043523	9.702596	-0.007171	-0.009139	-0.109279	0.999683	-0.000020	-0.001567	0.025127
02978	-0.100013	0.025521	9.706846	0.007573	0.060834	-0.105486	0.999683	-0.000031	-0.001576	0.025132
02979	-0.129054	-0.043596	9.742626	-0.017578	-0.009414	-0.069129	0.999683	-0.000029	-0.001570	0.025129
02980	-0.077040	0.005002	9.734636	0.031841	0.041654	-0.077887	0.999683	-0.000026	-0.001576	0.025131
02981	-0.114706	-0.009342	9.724734	-0.005221	0.025374	-0.087307	0.999683	-0.000027	-0.001576	0.025124
02982	-0.105078	-0.036964	9.727557	0.005753	-0.001742	-0.084494	0.999683	-0.000024	-0.001582	0.025125
02983	-0.104199	-0.009764	9.684700	0.004826	0.025117	-0.127456	0.999683	-0.000009	-0.001572	0.025119
02984	-0.105467	-0.037114	9.727552	0.005574	-0.002009	-0.084494	0.999683	-0.000032	-0.001565	0.025128
02985	-0.115042	-0.009708	9.724730	-0.005579	0.024840	-0.087305	0.999683	-0.000006	-0.001591	0.025118
02986	-0.105231	-0.037301	9.727554	0.005398	-0.002276	-0.084494	0.999683	-0.000026	-0.001590	0.025134
02987	-0.142013	-0.024722	9.674793	-0.032501	0.008442	-0.136879	0.999683	-0.000028	-0.001584	0.025140
02988	-0.105541	-0.037802	9.727549	0.005221	-0.002542	-0.084494	0.999683	-0.000029	-0.001584	0.025133
02989	-0.115239	-0.010397	9.724727	-0.005930	0.024308	-0.087304	0.999683	-0.000026	-0.001590	0.025134
02990	-0.115339	-0.010483	9.724726	-0.006018	0.024172	-0.087304	0.999683	-0.000024	-0.001584	0.025132
02991	-0.119274	-0.045283	9.702576	-0.008416	-0.011006	-0.109282	0.999683	-0.000012	-0.001588	0.025138
02992	-0.092465	-0.030852	9.752513	0.018241	0.004986	-0.059706	0.999683	-0.000027	-0.001578	0.025130
02993	-0.153242	-0.025100	9.714815	-0.043257	0.007633	-0.096731	0.999683	-0.000024	-0.001597	0.025136
02994	-0.091435	-0.004021	9.709660	0.017231	0.031718	-0.102663	0.999683	-0.000022	-0.001590	0.025133
02995	-0.116740	-0.038311	9.767572	-0.005630	-0.003489	-0.044345	0.999683	-0.000031	-0.001593	0.025142
02996	-0.115736	-0.011343	9.724720	-0.006549	0.023373	-0.087302	0.999683	-0.000028	-0.001599	0.025143
02997	-0.091655	-0.004628	9.709657	0.016968	0.031319	-0.102662	0.999683	-0.000040	-0.001595	0.025144
02998	-0.082130	-0.032390	9.712474	0.027939	0.004200	-0.099853	0.999683	-0.000040	-0.001596	0.025137
02999	-0.129487	-0.019366	9.699745	-0.020185	0.014916	-0.112091	0.999683	-0.000055	-0.001599	0.025133
03000	-0.105533	-0.012601	9.684682	0.003333	0.022857	-0.127450	0.999682	-0.000045	-0.001585	0.025148
03001	-0.106621	-0.039691	9.727530	0.004072	-0.004276	-0.084494	0.999683	-0.000034	-0.001601	0.025137
