// General information: 
//  MT Manager version: 2021.0.0 
//  XDA version: 2021.0.0 build 5908 rev 109668 built on 2021-04-19
// Device information: 
//  DeviceId: 00B47AB0
//  ProductCode: MTW2-3A7G6
//  Firmware Version: 4.4.0
//  Hardware Version: 2.0.0
// Device settings: 
//  Filter Profile: human(46.1)
//  Option Flags: Orientation Smoother Disabled, Position/Velocity Smoother Disabled, Continuous Zero Rotation Update Disabled, AHS Disabled, ICC Disabled
// Coordinate system: ENU
PacketCounter	Acc_X	Acc_Y	Acc_Z	FreeAcc_E	FreeAcc_N	FreeAcc_U	Quat_q0	Quat_q1	Quat_q2	Quat_q3
01826	-0.028550	0.006138	9.671741	0.023260	0.015329	-0.140942	1.000000	-0.000037	0.000095	0.000072
01827	-0.050913	0.033540	9.650004	0.000750	0.042748	-0.162585	1.000000	-0.000032	0.000086	0.000079
01828	-0.059863	-0.006971	9.646895	-0.008226	0.002195	-0.165608	1.000000	-0.000033	0.000093	0.000081
01829	-0.044821	-0.031173	9.640298	0.006797	-0.021944	-0.172262	1.000000	-0.000039	0.000087	0.000083
01830	-0.036616	0.009074	9.643405	0.014983	0.018348	-0.169237	1.000000	-0.000037	0.000090	0.000079
01831	-0.061053	-0.007522	9.646887	-0.009404	0.001804	-0.165609	1.000000	-0.000045	0.000090	0.000076
01832	-0.046051	-0.031617	9.640291	0.005620	-0.022333	-0.172262	1.000000	-0.000033	0.000096	0.000072
01833	-0.086034	-0.024057	9.650361	-0.034184	-0.014873	-0.161985	1.000000	-0.000034	0.000103	0.000074
01834	-0.038397	0.008502	9.643399	0.013409	0.017827	-0.169234	1.000000	-0.000048	0.000096	0.000066
01835	-0.056301	-0.011784	9.675208	-0.004280	-0.002261	-0.137310	1.000000	-0.000051	0.000107	0.000074
01836	-0.039208	0.008109	9.643396	0.012623	0.017567	-0.169232	1.000000	-0.000044	0.000094	0.000074
01837	-0.039461	0.007961	9.643395	0.012230	0.017436	-0.169232	1.000000	-0.000053	0.000093	0.000083
01838	-0.033311	0.004179	9.671727	0.018533	0.013766	-0.140929	1.000000	-0.000053	0.000094	0.000090
01839	-0.062072	0.035081	9.621652	-0.010669	0.044721	-0.190881	1.000000	-0.000064	0.000076	0.000091
01840	-0.048967	-0.033169	9.640271	0.002491	-0.023376	-0.172263	1.000000	-0.000066	0.000089	0.000089
01841	-0.058392	-0.012846	9.675194	-0.006638	-0.003047	-0.137311	1.000000	-0.000062	0.000087	0.000079
01842	-0.056274	-0.029640	9.611933	-0.004978	-0.020096	-0.200566	1.000000	-0.000046	0.000076	0.000090
01843	-0.072095	-0.005753	9.618522	-0.020798	0.003774	-0.193917	1.000000	-0.000059	0.000084	0.000099
01844	-0.068076	-0.053551	9.672063	-0.016375	-0.043865	-0.140350	1.000000	-0.000057	0.000087	0.000095
01845	-0.073003	-0.006053	9.618515	-0.021580	0.003513	-0.193919	1.000000	-0.000052	0.000086	0.000085
01846	-0.058315	0.030715	9.649972	-0.006734	0.040263	-0.162577	1.000000	-0.000052	0.000087	0.000093
01847	-0.014826	-0.024458	9.693461	0.037107	-0.014950	-0.119267	1.000000	-0.000043	0.000097	0.000095
01848	-0.067797	-0.010046	9.646840	-0.016075	-0.000421	-0.165617	1.000000	-0.000070	0.000091	0.000093
01849	-0.013460	0.018921	9.668252	0.038190	0.028762	-0.144526	1.000000	-0.000062	0.000078	0.000093
01850	-0.044267	0.006126	9.643376	0.007125	0.015745	-0.169224	1.000000	-0.000050	0.000078	0.000093
01851	-0.020692	0.022450	9.639915	0.030720	0.032045	-0.172827	1.000000	-0.000060	0.000082	0.000097
01852	-0.038551	0.002160	9.671708	0.013016	0.011941	-0.140918	1.000000	-0.000066	0.000076	0.000098
01853	-0.023474	-0.021910	9.665118	0.028062	-0.012184	-0.147564	1.000000	-0.000055	0.000082	0.000094
01854	-0.054483	-0.034769	9.640236	-0.002990	-0.025203	-0.172268	1.000000	-0.000053	0.000085	0.000090
01855	-0.054777	-0.035004	9.640234	-0.003381	-0.025334	-0.172269	1.000000	-0.000065	0.000072	0.000087
01856	-0.088126	-0.031297	9.678608	-0.036525	-0.021450	-0.133720	1.000000	-0.000067	0.000085	0.000084
01857	-0.055671	-0.035380	9.640227	-0.004162	-0.025594	-0.172270	1.000000	-0.000063	0.000084	0.000074
01858	-0.041001	0.001507	9.671698	0.010655	0.011161	-0.140914	1.000000	-0.000050	0.000084	0.000074
01859	-0.087425	0.012641	9.653394	-0.035839	0.022129	-0.158981	1.000000	-0.000048	0.000087	0.000071
01860	-0.063912	0.028961	9.649942	-0.012250	0.038436	-0.162575	1.000000	-0.000049	0.000094	0.000073
01861	-0.035917	-0.002198	9.700031	0.016143	0.007225	-0.112606	1.000000	-0.000037	0.000100	0.000069
01862	-0.042968	0.001364	9.671690	0.009078	0.010640	-0.140912	1.000000	-0.000036	0.000108	0.000060
01863	-0.049947	0.004668	9.643349	0.002017	0.014055	-0.169219	1.000000	-0.000052	0.000107	0.000046
01864	-0.026437	0.021126	9.639904	0.025609	0.030366	-0.172806	1.000000	-0.000021	0.000119	0.000040
01865	-0.068503	-0.015178	9.675124	-0.016082	-0.006193	-0.137324	1.000000	-0.000022	0.000126	0.000043
01866	-0.038046	-0.063361	9.661958	0.014435	-0.054301	-0.150610	1.000000	-0.000030	0.000132	0.000035
01867	-0.051937	0.004423	9.643338	0.000452	0.013531	-0.169218	1.000000	-0.000029	0.000127	0.000047
01868	-0.036809	-0.019667	9.636756	0.015512	-0.010585	-0.175859	1.000000	-0.000028	0.000129	0.000055
01869	-0.076649	-0.012318	9.646771	-0.024316	-0.003175	-0.165635	1.000000	-0.000035	0.000123	0.000057
01870	-0.061522	-0.036469	9.640187	-0.009252	-0.027291	-0.172278	1.000000	-0.000032	0.000126	0.000053
01871	-0.046832	0.000239	9.671672	0.005535	0.009462	-0.140908	1.000000	-0.000036	0.000116	0.000049
01872	-0.023255	0.016506	9.668237	0.029120	0.025778	-0.144486	1.000000	-0.000038	0.000129	0.000046
01873	-0.045647	0.043980	9.646475	0.006609	0.053178	-0.166153	1.000000	-0.000031	0.000116	0.000046
01874	-0.047916	0.000038	9.671667	0.004354	0.009069	-0.140907	1.000000	-0.000018	0.000116	0.000047
01875	-0.061422	0.007146	9.614980	-0.009348	0.016034	-0.197526	1.000000	-0.000021	0.000127	0.000056
01876	-0.048952	-0.000146	9.671662	0.003565	0.008808	-0.140907	1.000000	-0.000019	0.000130	0.000052
01877	-0.049359	-0.000343	9.671660	0.003172	0.008677	-0.140906	1.000000	-0.000028	0.000128	0.000060
01878	-0.064801	-0.037419	9.640162	-0.012382	-0.028337	-0.172284	1.000000	-0.000029	0.000136	0.000063
01879	-0.050367	-0.000618	9.671654	0.002386	0.008417	-0.140906	1.000000	-0.000020	0.000146	0.000064
01880	-0.059227	-0.041218	9.668498	-0.006513	-0.032147	-0.143975	1.000000	-0.000033	0.000133	0.000061
01881	-0.041949	-0.021426	9.636731	0.010422	-0.012275	-0.175855	1.000000	-0.000031	0.000128	0.000073
01882	-0.035792	-0.025070	9.665073	0.014806	-0.016427	-0.147541	1.000000	-0.000002	0.000030	0.000093
01883	-0.045282	-0.004867	9.699991	0.005579	0.003868	-0.112592	1.000000	-0.000013	0.000040	0.000092
01884	-0.036730	-0.025470	9.665068	0.014018	-0.016687	-0.147540	1.000000	-0.000010	0.000037	0.000093
01885	-0.035082	0.018352	9.639882	0.015482	0.027167	-0.172775	1.000000	-0.000019	0.000035	0.000101
01886	-0.059482	0.001697	9.643296	-0.008884	0.010576	-0.169218	1.000000	-0.000017	0.000038	0.000097
01887	-0.044256	-0.022391	9.636719	0.006201	-0.013528	-0.175853	1.000000	-0.000018	0.000024	0.000086
01888	-0.053671	-0.002079	9.671636	-0.003036	0.006763	-0.140905	1.000000	-0.000011	0.000038	0.000095
01889	-0.054077	-0.002082	9.671634	-0.003431	0.006632	-0.140905	1.000000	-0.000004	0.000025	0.000095
01890	-0.054333	-0.002098	9.671633	-0.003824	0.006501	-0.140905	1.000000	0.000000	0.000024	0.000084
01891	-0.061295	0.001286	9.643284	-0.010852	0.009920	-0.169219	1.000000	-0.000011	0.000034	0.000083
01892	-0.079196	-0.019031	9.675036	-0.028585	-0.010228	-0.137356	1.000000	-0.000014	0.000024	0.000078
01893	-0.046536	-0.023123	9.636706	0.003845	-0.014312	-0.175853	1.000000	-0.000015	0.000031	0.000081
01894	-0.062458	0.000646	9.643277	-0.012035	0.009528	-0.169220	1.000000	-0.000021	0.000025	0.000082
01895	-0.040935	-0.027029	9.665047	0.009687	-0.018124	-0.147537	1.000000	-0.000015	0.000039	0.000091
01896	-0.065387	-0.043512	9.668449	-0.014677	-0.034724	-0.143993	1.000000	-0.000009	0.000032	0.000086
01897	-0.057310	-0.003159	9.671615	-0.006591	0.005582	-0.140906	1.000000	-0.000010	0.000039	0.000088
01898	-0.048784	-0.023762	9.636693	0.001879	-0.014963	-0.175853	1.000000	-0.000018	0.000045	0.000080
01899	-0.049106	-0.023906	9.636691	0.001487	-0.015094	-0.175853	1.000000	-0.000011	0.000032	0.000080
01900	-0.042870	-0.027516	9.665038	0.007716	-0.018775	-0.147537	1.000000	-0.000008	0.000029	0.000081
01901	-0.025721	-0.007440	9.633290	0.024667	0.001120	-0.179391	1.000000	0.000005	0.000029	0.000081
01902	-0.043712	-0.027492	9.665034	0.006927	-0.019039	-0.147537	1.000000	0.000006	0.000037	0.000073
01903	-0.066074	-0.000123	9.643253	-0.015582	0.008347	-0.169224	1.000000	0.000001	0.000026	0.000080
01904	-0.083996	-0.020374	9.674993	-0.033325	-0.011814	-0.137373	1.000000	-0.000001	0.000038	0.000077
01905	-0.051357	-0.024282	9.636679	-0.000874	-0.015878	-0.175854	1.000000	0.000014	0.000027	0.000088
01906	-0.045307	-0.027981	9.665025	0.005352	-0.019559	-0.147537	1.000000	-0.000000	0.000041	0.000092
01907	-0.067835	-0.000780	9.643241	-0.017157	0.007825	-0.169227	1.000000	-0.000007	0.000041	0.000089
01908	-0.044229	0.015543	9.639849	0.006414	0.024175	-0.172757	1.000000	-0.000003	0.000040	0.000079
01909	-0.022556	-0.012137	9.661629	0.028135	-0.003470	-0.151066	1.000000	-0.000009	0.000034	0.000081
01910	-0.038524	0.011714	9.668196	0.012236	0.020359	-0.144437	1.000000	0.000000	0.000044	0.000082
01911	-0.038987	0.011700	9.668194	0.011841	0.020228	-0.144436	1.000000	0.000003	0.000041	0.000084
01912	0.000235	0.004186	9.658242	0.050914	0.012622	-0.154587	1.000000	0.000009	0.000033	0.000079
01913	-0.024224	-0.012427	9.661625	0.026557	-0.003991	-0.151061	1.000000	0.000003	0.000049	0.000094
01914	-0.046821	0.014837	9.639838	0.004049	0.023394	-0.172754	1.000000	-0.000005	0.000055	0.000086
01915	-0.031703	-0.009297	9.633271	0.019163	-0.000693	-0.179379	1.000000	-0.000002	0.000052	0.000087
01916	-0.065119	-0.005463	9.671565	-0.014089	0.003091	-0.140913	1.000000	0.000003	0.000051	0.000077
01917	-0.048043	0.014514	9.639832	0.002871	0.023001	-0.172752	1.000000	0.000002	0.000058	0.000080
01918	-0.072430	-0.002169	9.643207	-0.021483	0.006382	-0.169234	1.000000	-0.000004	0.000052	0.000082
01919	-0.026692	-0.013438	9.661617	0.024199	-0.004771	-0.151055	1.000000	-0.000007	0.000042	0.000077
01920	-0.063998	-0.022942	9.608286	-0.013361	-0.014277	-0.204181	1.000000	-0.000009	0.000055	0.000074
01921	-0.051611	-0.030133	9.664987	-0.000549	-0.021521	-0.147539	1.000000	0.000003	0.000055	0.000075
01922	-0.073820	-0.002723	9.643196	-0.023057	0.005857	-0.169237	1.000000	-0.000008	0.000036	0.000076
01923	-0.052061	-0.030478	9.664984	-0.001335	-0.021783	-0.147540	1.000000	-0.000006	0.000039	0.000073
01924	-0.017396	0.009594	9.601536	0.032990	0.018186	-0.211205	1.000000	-0.000003	0.000036	0.000074
01925	-0.050867	0.013387	9.639819	-0.000281	0.021957	-0.172749	1.000000	-0.000001	0.000039	0.000070
01926	-0.053295	-0.030726	9.664976	-0.002516	-0.022176	-0.147541	1.000000	0.000001	0.000042	0.000066
01927	-0.038676	0.005983	9.696523	0.012122	0.014580	-0.116104	1.000000	-0.000002	0.000024	0.000078
01928	-0.020813	-0.034925	9.626691	0.029583	-0.026333	-0.185992	1.000000	-0.000004	0.000037	0.000076
01929	-0.039518	0.005743	9.696520	0.011333	0.014318	-0.116103	1.000000	0.000005	0.000034	0.000099
01930	-0.052743	0.012842	9.639810	-0.002246	0.021303	-0.172748	1.000000	0.000002	0.000031	0.000078
01931	-0.043748	-0.007662	9.604895	0.006294	0.000783	-0.207692	1.000000	0.000004	0.000005	0.000077
01932	-0.046589	0.009019	9.668163	0.003554	0.017484	-0.144424	1.000000	0.000006	0.000008	0.000073
01933	-0.070958	-0.007559	9.671522	-0.020795	0.000853	-0.140924	1.000000	0.000009	0.000005	0.000075
01934	-0.038300	-0.011522	9.633244	0.011704	-0.003166	-0.179367	1.000000	0.000009	0.000012	0.000077
01935	-0.054446	0.012459	9.639801	-0.004218	0.020648	-0.172747	1.000000	0.000027	0.000025	0.000079
01936	-0.072444	-0.007835	9.671511	-0.021980	0.000454	-0.140927	1.000000	0.000001	0.000019	0.000077
01937	-0.024948	0.024887	9.664797	0.025531	0.033329	-0.147918	1.000000	0.000011	0.000031	0.000068
01938	-0.057862	-0.032202	9.664945	-0.007235	-0.023753	-0.147547	1.000000	-0.000000	0.000034	0.000082
01939	-0.034211	-0.015974	9.661590	0.016323	-0.007380	-0.151041	1.000000	-0.000004	0.000023	0.000078
01940	-0.049334	-0.052948	9.630026	0.000932	-0.044399	-0.182492	1.000000	0.000001	0.000022	0.000068
01941	-0.034874	-0.016244	9.661587	0.015538	-0.007642	-0.151039	1.000000	-0.000006	0.000022	0.000065
01942	-0.065738	-0.029373	9.636577	-0.015387	-0.020720	-0.175876	1.000000	-0.000007	0.000029	0.000067
01943	-0.057657	0.010796	9.639785	-0.007366	0.019596	-0.172747	1.000000	-0.000021	0.000015	0.000075
01944	-0.044436	-0.057458	9.658369	0.005944	-0.048483	-0.154168	1.000000	-0.000023	0.000027	0.000072
01945	-0.060398	-0.033602	9.664925	-0.009988	-0.024675	-0.147552	1.000000	-0.000016	0.000014	0.000072
01946	-0.065192	0.013950	9.611421	-0.015125	0.022764	-0.201074	1.000000	-0.000016	0.000022	0.000075
01947	-0.054742	-0.037362	9.693277	-0.004202	-0.028498	-0.119227	1.000000	-0.000013	0.000019	0.000076
01948	-0.035623	0.026691	9.636432	0.014611	0.035456	-0.176229	1.000000	-0.000011	0.000021	0.000072
01949	-0.060013	0.009998	9.639771	-0.009732	0.018813	-0.172748	1.000000	-0.000018	0.000021	0.000069
01950	-0.038294	-0.017771	9.661571	0.011991	-0.008815	-0.151035	1.000000	-0.000023	0.000010	0.000076
01951	-0.060768	0.009617	9.639767	-0.010519	0.018551	-0.172748	1.000000	-0.000018	0.000030	0.000079
01952	-0.039274	-0.018003	9.661567	0.011205	-0.009074	-0.151035	1.000000	-0.000020	0.000021	0.000063
01953	-0.061572	0.009413	9.639762	-0.011305	0.018291	-0.172748	1.000000	-0.000015	0.000020	0.000053
01954	-0.015987	-0.001547	9.658229	0.034364	0.007184	-0.154509	1.000000	-0.000003	0.000020	0.000054
01955	-0.064324	-0.034586	9.664896	-0.013921	-0.025983	-0.147560	1.000000	-0.000002	0.000021	0.000061
01956	-0.023286	0.001909	9.629868	0.027010	0.010486	-0.182834	1.000000	-0.000003	0.000028	0.000064
01957	-0.017304	-0.001783	9.658227	0.033181	0.006794	-0.154504	1.000000	0.000000	0.000025	0.000065
01958	-0.041605	-0.018370	9.661556	0.008842	-0.009857	-0.151033	1.000000	0.000004	0.000022	0.000066
01959	-0.033535	0.021920	9.664778	0.016838	0.030464	-0.147889	1.000000	-0.000002	0.000017	0.000068
01960	-0.048788	-0.015146	9.633192	0.001493	-0.006556	-0.179362	1.000000	-0.000004	0.000030	0.000066
01961	-0.049305	-0.015171	9.633189	0.001101	-0.006687	-0.179362	1.000000	0.000009	0.000029	0.000066
01962	-0.052397	0.001432	9.696460	-0.001731	0.009986	-0.116091	1.000000	-0.000005	0.000022	0.000057
01963	-0.081160	0.032288	9.646287	-0.030801	0.040909	-0.166140	1.000000	-0.000003	0.000025	0.000053
01964	-0.043963	-0.019226	9.661544	0.006480	-0.010642	-0.151032	1.000000	0.000000	0.000022	0.000055
01965	-0.066299	0.008218	9.639731	-0.016030	0.016717	-0.172752	1.000000	0.000003	0.000019	0.000056
01966	-0.044608	-0.019452	9.661541	0.005691	-0.010903	-0.151032	1.000000	-0.000003	0.000013	0.000058
01967	-0.051448	-0.015967	9.633177	-0.001256	-0.007470	-0.179363	1.000000	0.000006	0.000023	0.000060
01968	-0.045464	-0.019544	9.661537	0.004905	-0.011163	-0.151032	1.000000	0.000012	0.000016	0.000055
01969	-0.037424	0.020571	9.664767	0.012887	0.029160	-0.147879	1.000000	-0.000015	0.000016	0.000048
01970	-0.070026	-0.036660	9.664849	-0.019823	-0.027957	-0.147576	1.000000	-0.000000	0.000004	0.000058
01971	-0.038126	0.020202	9.664765	0.012095	0.028897	-0.147877	1.000000	-0.000014	0.000019	0.000063
01972	-0.029487	-0.000369	9.629851	0.020719	0.008411	-0.182817	1.000000	-0.000012	0.000022	0.000059
01973	-0.032723	0.016262	9.693124	0.017852	0.025073	-0.119543	1.000000	-0.000012	0.000023	0.000067
01974	-0.045955	0.023340	9.636397	0.004363	0.032069	-0.176207	1.000000	-0.000009	0.000026	0.000063
01975	-0.024572	-0.004230	9.658210	0.026085	0.004452	-0.154481	1.000000	-0.000004	0.000046	0.000066
01976	-0.071046	0.006718	9.639699	-0.020361	0.015271	-0.172758	1.000000	0.000002	0.000039	0.000061
01977	-0.071327	0.006661	9.639697	-0.020755	0.015140	-0.172759	1.000000	0.000004	0.000034	0.000074
01978	-0.065340	0.002873	9.668058	-0.014607	0.011441	-0.144426	1.000000	-0.000005	0.000040	0.000066
01979	-0.050196	-0.021248	9.661510	0.000573	-0.012609	-0.151032	1.000000	-0.000004	0.000041	0.000073
01980	-0.066238	0.002561	9.668052	-0.015395	0.011178	-0.144427	1.000000	-0.000002	0.000044	0.000070
01981	-0.041763	-0.041918	9.626595	0.008826	-0.033222	-0.185972	1.000000	-0.000016	0.000037	0.000061
01982	-0.068871	-0.041875	9.693168	-0.018005	-0.033110	-0.119257	1.000000	-0.000003	0.000037	0.000061
01983	-0.018550	-0.025506	9.623292	0.031975	-0.016942	-0.189412	1.000000	-0.000001	0.000040	0.000058
01984	-0.067692	0.002131	9.668042	-0.016977	0.010652	-0.144429	1.000000	0.000005	0.000033	0.000052
01985	-0.043119	-0.042230	9.626587	0.007257	-0.033742	-0.185973	1.000000	-0.000001	0.000027	0.000054
01986	-0.059151	-0.018439	9.633128	-0.008719	-0.009957	-0.179369	1.000000	0.000006	0.000035	0.000067
01987	-0.022933	-0.009120	9.686563	0.027887	-0.000679	-0.126133	1.000000	0.000008	0.000038	0.000064
01988	-0.060072	-0.018660	9.633122	-0.009505	-0.010222	-0.179370	1.000000	0.000001	0.000038	0.000061
01989	-0.053998	-0.022411	9.661487	-0.003367	-0.013920	-0.151035	1.000000	0.000005	0.000029	0.000067
01990	-0.060660	-0.018873	9.633118	-0.010288	-0.010483	-0.179371	1.000000	0.000009	0.000026	0.000068
01991	-0.046410	0.017975	9.664733	0.004192	0.026277	-0.147863	1.000000	0.000018	0.000036	0.000070
01992	-0.055093	-0.022726	9.661480	-0.004545	-0.014314	-0.151036	1.000000	-0.000003	0.000022	0.000055
01993	-0.077373	0.004718	9.639651	-0.027055	0.013033	-0.172771	1.000000	0.000025	0.000025	0.000077
01994	-0.071359	0.001209	9.668016	-0.020922	0.009333	-0.144435	1.000000	0.000019	0.000019	0.000079
01995	-0.038488	-0.002696	9.629819	0.011680	0.005412	-0.182799	1.000000	0.000024	0.000017	0.000069
01996	-0.048129	0.017538	9.664725	0.002220	0.025622	-0.147861	1.000000	0.000025	0.000019	0.000077
01997	-0.032939	-0.006471	9.658184	0.017419	0.001583	-0.154461	1.000000	0.000027	0.000022	0.000073
01998	-0.009397	0.009888	9.654900	0.040953	0.018006	-0.157881	1.000000	0.000018	0.000020	0.000081
01999	-0.016091	0.013208	9.626531	0.034038	0.021446	-0.186218	1.000000	0.000012	0.000014	0.000083
02000	-0.027646	-0.010720	9.686549	0.022755	-0.002378	-0.126120	1.000000	0.000012	0.000015	0.000091
02001	-0.034311	-0.007104	9.658179	0.015842	0.001061	-0.154458	1.000000	0.000028	0.000004	0.000101
02002	-0.074099	0.000122	9.667996	-0.024079	0.008277	-0.144441	1.000000	0.000014	-0.000003	0.000092
02003	-0.034890	-0.007453	9.658177	0.015053	0.000799	-0.154456	1.000000	0.000017	0.000001	0.000077
02004	-0.059272	-0.024175	9.661451	-0.009268	-0.015890	-0.151041	1.000000	0.000010	0.000001	0.000074
02005	-0.068005	-0.064814	9.658186	-0.017985	-0.056484	-0.154227	1.000000	0.000012	0.000004	0.000070
02006	-0.066508	-0.020849	9.633075	-0.016566	-0.012583	-0.179382	1.000000	0.000014	0.000007	0.000067
02007	-0.069973	-0.004194	9.696348	-0.019539	0.004046	-0.116106	1.000000	0.000021	0.000021	0.000075
02008	-0.067539	-0.021224	9.633067	-0.017351	-0.012846	-0.179384	1.000000	-0.000005	0.000015	0.000073
02009	-0.031095	-0.012094	9.686537	0.019201	-0.003558	-0.126113	1.000000	0.000010	0.000004	0.000084
02010	-0.053307	0.015280	9.664702	-0.003311	0.023783	-0.147856	1.000000	-0.000004	-0.000004	0.000075
02011	-0.061964	-0.025425	9.661431	-0.012021	-0.016812	-0.151046	1.000000	-0.000002	-0.000001	0.000071
02012	-0.038455	-0.008964	9.658162	0.011510	-0.000379	-0.154452	1.000000	-0.000001	0.000001	0.000079
02013	-0.060862	0.018526	9.636324	-0.011001	0.026960	-0.176197	1.000000	0.000011	0.000001	0.000079
02014	-0.032926	-0.012550	9.686530	0.017226	-0.004213	-0.126109	1.000000	0.000013	0.000003	0.000076
02015	-0.039523	-0.009175	9.658157	0.010327	-0.000772	-0.154450	1.000000	0.000002	-0.000015	0.000077
02016	-0.061748	0.018079	9.636320	-0.012184	0.026566	-0.176197	1.000000	0.000002	-0.000014	0.000084
02017	-0.796306	0.072004	9.777837	-0.747336	0.080946	-0.031056	1.000000	-0.000046	-0.000150	0.000123
02018	-5.302238	-0.090012	9.558583	-5.256399	-0.081281	-0.228742	1.000000	-0.000121	-0.000236	0.000147
02019	-3.537421	0.072232	9.638396	-3.493789	0.081373	-0.158462	1.000000	-0.000047	-0.000412	0.000159
02020	-1.388197	0.061976	9.577090	-1.343297	0.069670	-0.229250	1.000000	0.000070	-0.000072	0.000273
02021	1.014150	0.177904	9.929430	1.064776	0.184879	0.111314	1.000000	0.000216	0.000017	0.000713
02022	9.683511	-0.847181	9.464541	9.734344	-0.831713	-0.399058	1.000000	0.000247	0.000091	0.000480
02023	3.533230	0.620518	9.633408	3.585267	0.625508	-0.198848	1.000000	0.000311	0.000177	0.000046
02024	0.825458	-0.029790	9.611255	0.878873	-0.028165	-0.206165	1.000000	0.000414	0.000209	0.000058
02025	-0.645519	-0.010135	9.699894	-0.591543	-0.010352	-0.109352	1.000000	0.000487	0.000182	0.000061
02026	-1.075106	0.037740	9.680730	-1.021621	0.036458	-0.126162	1.000000	0.000522	0.000169	0.000024
02027	0.245014	-0.028262	9.801420	0.296587	-0.030767	-0.012700	1.000000	0.000620	-0.000080	0.000050
02028	-0.781877	-0.026516	9.578104	-0.736478	-0.035361	-0.231015	0.999999	0.001183	-0.000354	0.000028
02029	-0.397244	0.024352	9.679923	-0.356719	0.005968	-0.131158	0.999999	0.001600	-0.000633	0.000014
02030	-0.633457	0.002370	9.609308	-0.597362	-0.024272	-0.201099	0.999998	0.002057	-0.000785	-0.000014
02031	0.063440	0.055884	9.669996	0.097886	0.019415	-0.142837	0.999996	0.002598	-0.000827	-0.000086
02032	-0.869277	0.469339	9.626731	-0.835496	0.425389	-0.180925	0.999995	0.002895	-0.000862	-0.000417
02033	-0.358930	0.558364	9.612798	-0.324396	0.512627	-0.196115	0.999994	0.002816	-0.000837	-0.001669
02034	-0.070257	0.635245	9.768305	-0.032927	0.588939	-0.041284	0.999988	0.002823	-0.000861	-0.003799
02035	-0.626576	0.443110	9.751409	-0.591808	0.407434	-0.057552	0.999973	0.002354	-0.001215	-0.006789
02036	0.498798	1.568330	9.570954	0.545417	1.524990	-0.237274	0.999948	0.002112	-0.001773	-0.009777
02037	0.501911	3.756459	9.678440	0.587033	3.712859	-0.122220	0.999946	0.002115	-0.002226	-0.009944
02038	0.933982	2.213700	9.635967	0.981495	2.150960	-0.167240	0.999953	0.003362	-0.002280	-0.008842
02039	0.922233	1.076810	11.552317	0.961791	0.963580	1.746386	0.999961	0.006039	-0.000824	-0.006419
02040	0.083966	1.481995	10.864608	0.167224	1.349330	1.068219	0.999969	0.006911	0.002042	-0.003296
02041	-0.166654	2.020098	10.720273	-0.031406	1.866732	0.936587	0.999954	0.008281	0.004824	0.000191
02042	0.162636	0.887843	11.022440	0.346067	0.706516	1.218623	0.999929	0.009138	0.006893	0.003315
02043	-0.280067	0.330672	11.977309	-0.044089	0.116362	2.171810	0.999910	0.009538	0.007795	0.005366
02044	-0.425217	0.587525	11.883746	-0.193830	0.365554	2.085976	0.999911	0.009744	0.006949	0.005957
02045	-0.557177	1.082903	11.039059	-0.375786	0.871686	1.252700	0.999922	0.009787	0.005326	0.005678
02046	-0.123420	1.152931	10.933414	0.021942	0.947534	1.141108	0.999930	0.009843	0.003840	0.005245
02047	0.324086	0.661001	11.272815	0.446172	0.453049	1.466226	0.999940	0.009835	0.002290	0.004284
02048	0.769586	0.650510	11.090447	0.853988	0.447864	1.281611	0.999947	0.009861	0.000505	0.002847
02049	1.171069	0.870400	10.456507	1.215302	0.678470	0.652979	0.999949	0.009881	-0.001124	0.001486
02050	1.519951	1.244898	10.239155	1.535488	1.053595	0.445601	0.999947	0.010019	-0.002271	0.000784
02051	2.131389	1.213854	10.217663	2.131216	1.018242	0.426355	0.999943	0.010309	-0.002753	0.000694
02052	2.284177	1.064574	10.498416	2.280093	0.859408	0.705397	0.999940	0.010544	-0.002621	0.001300
02053	2.148883	1.281366	11.276711	2.143903	1.057880	1.488126	0.999935	0.010846	-0.002611	0.002341
02054	2.600996	0.929172	11.710401	2.596605	0.698072	1.914733	0.999925	0.011243	-0.002474	0.004238
02055	2.790627	0.690079	12.155872	2.791618	0.453430	2.354083	0.999907	0.011659	-0.002094	0.006745
02056	3.219884	0.473938	12.671470	3.226749	0.239047	2.863643	0.999881	0.011944	-0.002071	0.009507
02057	3.574076	0.093008	13.579479	3.578496	-0.138069	3.765241	0.999848	0.011821	-0.002803	0.012501
02058	3.439022	0.219814	14.079633	3.406949	0.004305	4.276444	0.999809	0.011222	-0.004411	0.015388
02059	3.567275	0.664497	13.439981	3.473702	0.506395	3.658639	0.999755	0.010385	-0.006220	0.018546
02060	3.581883	0.965201	13.054619	3.424782	0.863616	3.291095	0.999678	0.009282	-0.008091	0.022172
02061	4.137499	1.081561	12.280769	3.925129	1.076198	2.538041	0.999569	0.008061	-0.010040	0.026378
02062	3.932893	1.371287	11.404565	3.664462	1.431491	1.673573	0.999424	0.006830	-0.011492	0.031207
02063	3.837957	1.443542	10.841315	3.527468	1.567405	1.116519	0.999234	0.005773	-0.012782	0.036523
02064	4.075082	1.259577	10.527749	3.735831	1.464220	0.813952	0.999006	0.004946	-0.014294	0.041925
02065	3.837384	1.279452	10.291999	3.449113	1.519675	0.583537	0.998741	0.004372	-0.016262	0.047243
02066	3.213489	1.610593	9.706422	2.751697	1.835765	-0.004892	0.998442	0.004196	-0.018513	0.052464
02067	2.786925	2.041355	9.331601	2.233659	2.246708	-0.379997	0.998094	0.004706	-0.020202	0.058123
02068	2.567090	1.637423	10.521597	1.975304	1.822393	0.805790	0.997697	0.005346	-0.020731	0.064367
02069	2.115677	0.670874	12.721953	1.552103	0.800784	2.982777	0.997286	0.005109	-0.020656	0.070480
02070	1.083490	0.428008	14.441044	0.494947	0.435663	4.660249	0.996897	0.003611	-0.020658	0.075871
02071	0.378763	1.274076	13.448799	-0.308912	1.231704	3.641830	0.996567	0.001218	-0.020860	0.080105
02072	0.839407	1.449348	11.096717	0.182397	1.552515	1.300295	0.996206	-0.001600	-0.020935	0.084451
02073	1.679513	1.264081	9.600498	1.075365	1.573657	-0.171368	0.995794	-0.004287	-0.021105	0.089050
02074	2.117903	1.734788	8.684588	1.432110	2.168021	-1.085403	0.995369	-0.006711	-0.021497	0.093451
02075	2.005161	1.716956	8.362824	1.306625	2.177686	-1.418906	0.994948	-0.008917	-0.022174	0.097509
02076	1.763334	1.311174	8.329882	1.114525	1.774222	-1.456541	0.994518	-0.010623	-0.023490	0.101337
02077	1.631684	1.101627	8.027098	1.000451	1.567083	-1.759525	0.994088	-0.011788	-0.025417	0.104901
02078	1.418920	1.263428	7.938576	0.716546	1.696228	-1.860346	0.993669	-0.012309	-0.027832	0.108146
02079	1.338575	0.686945	7.694088	0.727285	1.118377	-2.087224	0.993221	-0.012422	-0.030274	0.111544
02080	1.133084	0.437174	7.760941	0.539689	0.832791	-2.020235	0.992710	-0.012219	-0.031999	0.115559
02081	1.006341	0.683290	8.034032	0.318123	1.047540	-1.761183	0.992150	-0.011845	-0.032609	0.120144
02082	0.590637	0.104961	9.467322	-0.048874	0.413299	-0.335513	0.991553	-0.011927	-0.032679	0.124949
02083	0.050321	-0.170610	9.976700	-0.540099	0.028223	0.150930	0.990975	-0.012552	-0.032857	0.129352
02084	-0.391446	-0.158197	9.844724	-0.965297	-0.064028	-0.006520	0.990383	-0.013541	-0.032988	0.133681
02085	-0.665560	-0.427776	10.503645	-1.204669	-0.365173	0.645223	0.989804	-0.014998	-0.033207	0.137698
02086	-0.246581	-0.729360	10.338830	-0.722607	-0.516512	0.516645	0.989250	-0.016860	-0.034174	0.141183
02087	-0.596820	-0.000181	8.534706	-1.167255	0.062036	-1.337374	0.988741	-0.018330	-0.036117	0.144051
02088	-0.757195	1.312345	6.331484	-1.568469	1.217083	-3.612542	0.988428	-0.018732	-0.038457	0.145531
02089	0.604009	0.713853	6.693254	-0.159225	1.041376	-3.137051	0.988204	-0.018362	-0.041077	0.146387
02090	0.808346	-0.427218	7.738609	0.236359	0.023050	-2.023889	0.987946	-0.017569	-0.044347	0.147267
02091	0.165294	-0.246187	7.182084	-0.424856	-0.026963	-2.637115	0.987547	-0.016314	-0.047476	0.149098
02092	-0.586066	0.208707	7.437148	-1.324501	0.162648	-2.469844	0.987070	-0.014789	-0.048602	0.152026
02093	-0.386552	-0.100598	7.865936	-1.083566	-0.093005	-2.012069	0.986572	-0.013349	-0.047986	0.155548
02094	0.360778	-0.200447	8.193003	-0.356684	0.024486	-1.617095	0.985966	-0.011961	-0.046725	0.159826
02095	0.508131	-0.339349	7.832251	-0.114468	-0.082029	-1.957906	0.985267	-0.010527	-0.045188	0.164609
02096	0.654792	-0.305817	8.258427	0.006146	-0.014686	-1.522722	0.984546	-0.009059	-0.043446	0.169408
02097	-0.085323	-0.564742	9.118912	-0.643353	-0.521497	-0.713524	0.983820	-0.007583	-0.042260	0.173941
02098	-0.354962	-0.783119	9.373572	-0.816153	-0.845543	-0.473417	0.983072	-0.006112	-0.041800	0.178285
02099	-1.043535	-0.721834	9.550257	-1.475742	-1.061578	-0.351580	0.982377	-0.004712	-0.041618	0.182158
02100	-1.792945	-0.463896	9.447508	-2.244866	-1.126124	-0.518735	0.981830	-0.003161	-0.041819	0.185071
02101	-1.244701	-0.762192	9.922615	-1.660294	-1.244281	-0.000266	0.981439	-0.001810	-0.042271	0.187048
02102	-0.491254	-1.216000	10.160658	-0.815020	-1.418707	0.300765	0.981085	-0.000937	-0.042815	0.188782
02103	-0.365690	-0.923666	9.671884	-0.772229	-1.112692	-0.184719	0.980705	-0.000363	-0.043444	0.190603
02104	-0.591710	-0.660402	8.923098	-1.023148	-0.957367	-0.955796	0.980314	0.000187	-0.043902	0.192501
02105	-1.085749	-0.730095	9.245498	-1.479432	-1.227530	-0.675097	0.979888	0.000721	-0.044198	0.194593
02106	-1.117473	-1.138612	9.994514	-1.411553	-1.641667	0.074068	0.979403	0.000937	-0.044431	0.196965
02107	-2.089460	-1.072317	11.019316	-2.410428	-1.983076	1.013127	0.978942	0.001015	-0.044639	0.199195
02108	-1.441004	-1.859687	10.805597	-1.492065	-2.453819	0.866656	0.978451	0.000334	-0.045324	0.201442
02109	-1.866578	-0.706410	10.314555	-2.309081	-1.545154	0.319132	0.978138	-0.000678	-0.046408	0.202712
02110	-1.714624	-0.759378	9.594177	-2.109755	-1.507144	-0.387073	0.977981	-0.002100	-0.047479	0.203211
02111	-1.526980	-0.759098	8.688544	-1.877177	-1.397514	-1.273263	0.977965	-0.003771	-0.048022	0.203134
02112	-1.006845	-0.172774	7.989253	-1.576758	-0.619874	-1.938598	0.978039	-0.005293	-0.047422	0.202888
02113	-0.294497	0.046249	8.421340	-1.038132	-0.111315	-1.451012	0.978141	-0.006627	-0.045717	0.202745
02114	0.133136	-1.036344	9.503990	-0.289077	-0.907754	-0.299022	0.978251	-0.008013	-0.044023	0.202540
02115	0.071979	-1.819731	10.961501	-0.135149	-1.610938	1.180833	0.978365	-0.009849	-0.042553	0.202226
02116	-0.956142	-1.935225	11.942922	-1.095243	-2.064863	2.096515	0.978489	-0.012335	-0.041467	0.201712
02117	-1.028659	-1.706736	11.548467	-1.214295	-1.818190	1.700668	0.978660	-0.015436	-0.040682	0.200826
02118	-0.441522	-1.454240	10.579317	-0.700278	-1.295293	0.773295	0.978850	-0.018964	-0.040152	0.199701
02119	-0.096322	-1.591659	9.753886	-0.277122	-1.232112	-0.010362	0.979020	-0.022740	-0.040306	0.198442
02120	0.301561	-1.672088	9.772616	0.090058	-1.077910	0.047348	0.979144	-0.026752	-0.041071	0.197167
02121	0.140166	-2.197051	11.105501	-0.013515	-1.486762	1.410823	0.979196	-0.031436	-0.042131	0.195990
02122	0.051863	-2.601925	12.709054	-0.144001	-1.700613	3.047250	0.979177	-0.037133	-0.043484	0.194791
02123	-0.578836	-2.936826	13.715751	-0.778127	-2.037389	4.055333	0.979092	-0.043936	-0.045504	0.193333
02124	-0.916391	-2.467883	12.938623	-1.297177	-1.611305	3.227833	0.978957	-0.051525	-0.048460	0.191418
02125	-0.675360	-1.766532	11.293245	-1.275574	-0.841601	1.535233	0.978724	-0.059386	-0.052163	0.189347
02126	-0.017002	-1.366672	9.086005	-0.659751	-0.299143	-0.653179	0.978366	-0.067255	-0.056051	0.187442
02127	0.625585	-1.194890	7.609813	-0.020755	0.049651	-2.084550	0.977837	-0.074938	-0.059165	0.186327
02128	0.813003	-1.093707	6.885347	0.157437	0.220521	-2.799070	0.977069	-0.082096	-0.061344	0.186635
02129	0.626906	-1.442226	6.618088	0.109080	-0.112859	-3.012196	0.976106	-0.089066	-0.062298	0.188160
02130	0.742859	-1.987178	6.695747	0.377376	-0.458789	-2.814116	0.974957	-0.095920	-0.062233	0.190749
02131	1.119841	-2.204868	7.599718	0.653297	-0.254163	-1.851616	0.973638	-0.102747	-0.061778	0.194050
02132	0.048105	-2.661124	8.468881	-0.313787	-0.810067	-0.978101	0.972235	-0.109564	-0.062144	0.197212
02133	-1.126994	-2.290851	7.721480	-1.432116	-0.979084	-1.867312	0.970841	-0.116033	-0.063314	0.199987
02134	-0.833870	-2.241368	7.282241	-1.135730	-0.814520	-2.276371	0.969482	-0.122338	-0.063934	0.202611
02135	-0.005852	-2.940586	8.280021	-0.309656	-0.783189	-1.066521	0.968097	-0.128830	-0.064467	0.205026
02136	-0.011605	-3.027839	8.385303	-0.331494	-0.726399	-0.933356	0.966677	-0.135365	-0.065663	0.207126
02137	-0.199502	-2.674117	7.994139	-0.602891	-0.484116	-1.416361	0.965308	-0.141218	-0.066776	0.209237
02138	-1.058211	-1.416552	7.663687	-1.827736	0.247006	-2.166999	0.964363	-0.145530	-0.067039	0.210549
02139	-1.593222	-2.188274	6.703604	-1.851715	-0.834950	-2.874468	0.963267	-0.150270	-0.067745	0.212006
02140	-0.950439	-1.940651	6.358026	-1.319087	-0.382080	-3.239427	0.962238	-0.154415	-0.068225	0.213541
02141	-0.909103	-2.142101	6.547389	-1.245960	-0.438621	-2.990782	0.961298	-0.157760	-0.067678	0.215496
02142	-2.750177	-0.114864	7.358221	-3.850728	0.762893	-3.007551	0.960426	-0.160751	-0.066671	0.217477
02143	-3.387976	0.199293	7.323523	-4.561836	0.815208	-3.203926	0.960873	-0.166045	-0.068900	0.210723
02144	0.405407	-9.733397	9.889515	2.141777	-5.225076	2.868666	0.960422	-0.168267	-0.067285	0.211539
02145	-1.353939	-2.651382	11.048778	-2.355458	0.504178	1.373684	0.958977	-0.173171	-0.065029	0.214815
02146	-0.972840	-3.462365	9.937315	-1.457540	-0.252383	0.651329	0.957713	-0.177798	-0.063732	0.217050
02147	-1.712233	-3.878987	8.930268	-1.756567	-1.165057	-0.154282	0.956854	-0.180849	-0.063477	0.218389
02148	-0.951697	-3.481075	8.498698	-1.152440	-0.586657	-0.670530	0.956005	-0.183220	-0.063897	0.220006
02149	-0.369768	-2.983899	8.109696	-0.767297	-0.005858	-1.197661	0.955195	-0.185091	-0.065042	0.221616
02150	0.048789	-2.661688	7.639534	-0.454649	0.315340	-1.741554	0.954571	-0.186284	-0.067103	0.222687
02151	-0.100360	-3.510404	7.927830	-0.342093	-0.349213	-1.155643	0.953927	-0.187412	-0.069135	0.223875
02152	-0.405530	-3.677604	8.399369	-0.673301	-0.450449	-0.670352	0.953133	-0.189037	-0.070225	0.225546
02153	-0.377579	-3.933153	8.291565	-0.534575	-0.648328	-0.666320	0.952118	-0.191533	-0.070444	0.227649
02154	0.062996	-3.994328	7.785102	-0.003842	-0.614163	-1.084061	0.951011	-0.194392	-0.069434	0.230149
02155	0.640967	-4.114463	8.309391	0.466616	-0.202895	-0.532264	0.949840	-0.197211	-0.067559	0.233124
02156	-0.085166	-4.398876	8.803392	-0.128710	-0.531998	0.013650	0.948573	-0.200189	-0.065533	0.236303
02157	-0.565195	-4.070471	8.435588	-0.575572	-0.551943	-0.463307	0.947267	-0.203281	-0.063613	0.239409
02158	-0.724038	-3.935283	8.227711	-0.696606	-0.529202	-0.705536	0.946111	-0.206055	-0.061783	0.242072
02159	-0.495698	-4.073361	9.007137	-0.575173	-0.193675	0.066480	0.945255	-0.207914	-0.060447	0.244154
02160	-0.720700	-3.525700	7.753793	-0.735054	-0.282050	-1.300858	0.944207	-0.210562	-0.060352	0.245956
02161	-0.443537	-3.626688	7.145542	-0.319206	-0.408395	-1.803972	0.943186	-0.212973	-0.060004	0.247876
02162	-0.067783	-4.172295	8.010265	0.062022	-0.293430	-0.785674	0.942389	-0.214390	-0.060369	0.249590
02163	-0.164213	-4.671815	8.351493	0.118949	-0.581637	-0.260317	0.941731	-0.215205	-0.061077	0.251196
02164	-1.183189	-4.562178	8.839043	-0.929938	-0.807645	0.128389	0.941275	-0.215661	-0.061810	0.252332
02165	-1.786272	-4.038825	8.303353	-1.577222	-0.895372	-0.584513	0.940763	-0.216476	-0.062390	0.253397
02166	-1.457668	-3.794105	7.996055	-1.343865	-0.634964	-0.966916	0.939866	-0.218512	-0.062883	0.254852
02167	-0.933954	-3.969649	8.193778	-0.868372	-0.390999	-0.709873	0.938806	-0.221202	-0.063200	0.256358
02168	-0.608242	-4.008109	8.463873	-0.643413	-0.097290	-0.450621	0.937592	-0.224360	-0.063308	0.258023
02169	-0.946043	-4.135231	8.462005	-0.883646	-0.308786	-0.393335	0.936457	-0.227364	-0.063094	0.259564
02170	-0.920503	-4.589557	8.970906	-0.776604	-0.385311	0.268816	0.935577	-0.229812	-0.062879	0.260631
02171	-0.900564	-4.410161	8.510681	-0.744126	-0.372589	-0.221053	0.934714	-0.232495	-0.063121	0.261288
02172	-0.737562	-4.301730	7.735693	-0.488643	-0.468575	-0.956547	0.933716	-0.235588	-0.063523	0.261989
02173	-0.509304	-4.217755	7.041976	-0.182099	-0.518160	-1.606813	0.932626	-0.238832	-0.063642	0.262902
02174	-0.608504	-4.329461	7.043949	-0.225128	-0.599540	-1.547013	0.931589	-0.241807	-0.063443	0.263906
02175	-0.696150	-4.625640	7.430777	-0.265822	-0.653275	-1.060546	0.930672	-0.244493	-0.063590	0.264630
02176	-0.683038	-4.889041	7.914927	-0.269602	-0.592774	-0.507254	0.929788	-0.246751	-0.064612	0.265394
02177	-0.476735	-5.071755	8.490857	-0.187154	-0.340470	0.081425	0.928874	-0.248555	-0.066820	0.266362
02178	-0.431002	-5.233939	7.992813	0.000281	-0.624247	-0.269369	0.927826	-0.250425	-0.069949	0.267457
02179	-0.425166	-5.597597	7.913908	0.132970	-0.893673	-0.152094	0.926588	-0.252646	-0.073259	0.268772
02180	0.150515	-5.731941	8.774770	0.380096	-0.268769	0.659030	0.924912	-0.255915	-0.076879	0.270434
02181	0.477150	-5.693717	8.875334	0.520566	0.057486	0.729687	0.922431	-0.261237	-0.080755	0.272682
02182	0.214630	-6.242632	8.081181	0.681448	-0.706192	0.353748	0.919230	-0.268527	-0.084719	0.275196
02183	0.102869	-7.104786	8.004298	0.906009	-1.252446	0.778085	0.915609	-0.276838	-0.088401	0.277862
02184	0.055229	-7.437396	8.375250	0.794396	-1.146879	1.300884	0.911271	-0.286341	-0.092329	0.281191
02185	1.034081	-7.288726	9.317508	1.100001	0.195432	2.009092	0.905996	-0.297848	-0.095902	0.285061
02186	0.191978	-7.804331	8.931098	0.654158	-0.501303	2.020264	0.899372	-0.311513	-0.097928	0.290687
02187	-1.089763	-8.725321	6.767522	0.728801	-2.609326	0.946990	0.892676	-0.323629	-0.099658	0.297425
02188	-0.478664	-8.229504	7.024126	0.859676	-1.527490	0.874391	0.886325	-0.334379	-0.100608	0.304132
02189	-0.303329	-6.917784	6.992904	0.348429	-0.401090	0.013832	0.879543	-0.345868	-0.101865	0.310489
02190	-1.379587	-6.400407	6.086114	-0.455440	-1.030810	-0.945053	0.872600	-0.357595	-0.104398	0.315905
02191	-1.397887	-5.887515	5.965633	-0.751880	-0.639939	-1.373040	0.866103	-0.368070	-0.109121	0.320130
02192	0.097836	-5.083116	6.374981	-0.271354	1.117664	-1.740411	0.859813	-0.378078	-0.115192	0.323278
02193	0.787952	-5.025612	7.681960	-0.502326	2.518091	-0.964475	0.852543	-0.389869	-0.120850	0.326448
02194	0.249471	-5.691001	7.568600	-0.737577	2.003014	-0.583996	0.843974	-0.403902	-0.126474	0.329509
02195	-1.180853	-6.497371	6.297048	-1.034634	0.189658	-0.749155	0.834353	-0.419512	-0.132357	0.332185
02196	-2.082418	-7.232177	5.639843	-1.250210	-0.845505	-0.530429	0.823714	-0.436192	-0.138796	0.334615
02197	-1.847335	-8.004756	5.834118	-1.064421	-0.561177	0.190514	0.812225	-0.453367	-0.146030	0.336786
02198	-0.652436	-8.400784	6.573667	-0.691164	0.923387	0.811017	0.800011	-0.471023	-0.153856	0.338300
02199	0.483632	-8.594648	7.518385	-0.638363	2.631384	1.290131	0.787178	-0.489201	-0.161619	0.338988
02200	1.070511	-9.061462	8.584896	-1.015752	4.023112	2.007196	0.773766	-0.507746	-0.168513	0.339239
02201	1.215305	-9.473449	8.957311	-1.355259	4.720361	2.324244	0.759991	-0.526604	-0.174207	0.338752
02202	0.440352	-9.665964	8.311937	-1.787905	4.166875	2.108819	0.745947	-0.545667	-0.178291	0.337673
02203	-0.306641	-9.972060	7.738233	-2.166171	3.672617	2.070339	0.731848	-0.564443	-0.180721	0.336368
02204	-0.996861	-10.170964	6.888470	-2.319475	3.038810	1.902842	0.718262	-0.582185	-0.181915	0.334764
02205	-1.386952	-9.888314	6.321064	-2.529883	2.827415	1.378569	0.705803	-0.598311	-0.182221	0.332658
02206	-1.413473	-8.957791	5.864703	-2.667985	2.907283	0.239733	0.694605	-0.612652	-0.182186	0.330136
02207	-1.325477	-7.934674	5.417326	-2.700031	2.973421	-0.985302	0.684070	-0.625918	-0.181969	0.327355
02208	-1.116164	-7.161138	5.045130	-2.595175	3.097705	-1.961379	0.673634	-0.638738	-0.181320	0.324582
02209	-0.877489	-6.879073	4.716803	-2.365726	3.241383	-2.448594	0.663087	-0.651592	-0.180026	0.321457
02210	-0.382075	-6.129153	3.991037	-1.758312	3.206666	-3.467581	0.651773	-0.665588	-0.177752	0.317158
02211	-1.234096	-5.699167	2.349568	-1.481540	1.600736	-3.916854	0.639413	-0.681232	-0.174420	0.310888
02212	-2.326557	-6.592116	1.629935	-1.797596	0.709605	-2.900081	0.627526	-0.695369	-0.171800	0.305216
02213	-1.706832	-7.573031	0.765161	-0.754882	0.818224	-2.092304	0.616776	-0.707633	-0.170137	0.299827
02214	-1.897283	-7.451334	-0.030628	-0.536253	0.292654	-2.148198	0.606392	-0.719412	-0.168005	0.294125
02215	-1.850693	-7.132225	-0.886145	-0.119647	-0.192393	-2.394953	0.595972	-0.730862	-0.165299	0.288675
02216	-1.812603	-7.197481	-2.073276	0.531037	-0.868392	-2.174185	0.585715	-0.741891	-0.162602	0.283013
02217	-2.208496	-7.515581	-2.918483	0.632064	-1.464993	-1.607311	0.576346	-0.751961	-0.160152	0.277006
02218	-2.547023	-7.801267	-3.359439	0.512772	-1.714359	-1.127884	0.567416	-0.761372	-0.157542	0.271168
02219	-3.088400	-8.509269	-4.270856	0.519872	-2.289886	-0.083041	0.558619	-0.770378	-0.154582	0.265646
02220	-3.398938	-8.898280	-5.049608	0.593047	-2.721319	0.602099	0.551011	-0.778166	-0.152157	0.260179
02221	-3.482800	-8.270742	-5.810797	0.784332	-3.410580	0.289296	0.545816	-0.783720	-0.150965	0.255103
02222	-2.858108	-7.508680	-5.674111	1.071802	-3.163099	-0.561242	0.542833	-0.787310	-0.150954	0.250375
02223	-2.426582	-6.858243	-5.414959	1.165842	-2.928493	-1.309193	0.540422	-0.790241	-0.151330	0.246095
02224	-1.993024	-6.427659	-5.525374	1.493672	-2.914174	-1.744695	0.537803	-0.793135	-0.151565	0.242348
02225	-1.169185	-6.260476	-5.360636	2.017107	-2.394280	-2.099389	0.534875	-0.796205	-0.151764	0.238610
02226	-0.778024	-6.449162	-5.153002	2.159193	-1.918554	-2.040522	0.531482	-0.799590	-0.152421	0.234418
02227	-1.015175	-6.576295	-5.723573	2.176242	-2.377961	-1.649003	0.528089	-0.802832	-0.153536	0.230236
02228	-1.250288	-7.034697	-5.884402	1.968792	-2.383654	-1.088159	0.524961	-0.805720	-0.154986	0.226299
02229	-1.394998	-6.906528	-5.941503	1.789839	-2.493743	-1.122212	0.521486	-0.808683	-0.156239	0.222878
02230	-1.587984	-6.723824	-6.330569	1.753772	-2.892925	-1.074165	0.517155	-0.812020	-0.157060	0.220242
02231	-1.868271	-7.248891	-6.908778	1.729393	-3.165289	-0.286047	0.512313	-0.815401	-0.158016	0.218373
02232	-1.817437	-7.407481	-6.663873	1.579640	-2.782444	-0.203190	0.507207	-0.818716	-0.159308	0.216947
02233	-1.498332	-7.671043	-6.314815	1.604482	-2.136864	-0.126374	0.501564	-0.822220	-0.160693	0.215790
02234	-1.099265	-7.865027	-6.135069	1.778349	-1.603786	-0.067451	0.495661	-0.825867	-0.162592	0.214074
02235	-0.935879	-7.466693	-5.992585	1.784013	-1.485910	-0.477485	0.489954	-0.829455	-0.165176	0.211343
02236	-1.132683	-7.419572	-6.131331	1.591190	-1.603513	-0.388178	0.484700	-0.832751	-0.168097	0.208170
02237	-1.098281	-7.911789	-6.003781	1.418570	-1.178669	0.007966	0.480917	-0.835057	-0.171174	0.205178
02238	-0.266179	-8.608487	-5.465309	1.705823	-0.004726	0.243943	0.478968	-0.836130	-0.174786	0.202304
02239	-0.262965	-9.177912	-5.213405	1.431700	0.461412	0.638120	0.478495	-0.836283	-0.178670	0.199376
02240	-0.663099	-9.640046	-5.208633	0.946722	0.475086	1.113311	0.478448	-0.836196	-0.182011	0.196815
02241	-0.377919	-9.270164	-4.941839	1.026603	0.626784	0.630175	0.477412	-0.836805	-0.184223	0.194673
02242	-0.618449	-8.338794	-5.446154	1.125018	-0.280196	0.098620	0.475298	-0.838119	-0.185516	0.192956
02243	-0.627895	-7.844711	-5.399468	1.114431	-0.452957	-0.344810	0.473461	-0.839126	-0.186524	0.192120
02244	0.279984	-8.115787	-4.675437	1.471317	0.683161	-0.583795	0.471538	-0.840158	-0.187335	0.191552
02245	0.569816	-8.124208	-4.553118	1.626983	0.956907	-0.675110	0.469233	-0.841528	-0.188086	0.190459
02246	0.190214	-7.881072	-4.704717	1.370047	0.590488	-0.754225	0.466254	-0.843426	-0.188446	0.189017
02247	-0.334029	-8.515827	-5.545844	1.199659	0.114561	0.283559	0.462301	-0.845889	-0.188253	0.187909
02248	-0.513484	-9.443848	-6.378427	1.272932	-0.002253	1.523657	0.457789	-0.848581	-0.188033	0.187039
02249	-1.007792	-10.237964	-6.927273	0.948922	-0.108340	2.552788	0.453121	-0.851175	-0.188195	0.186456
02250	-1.124544	-11.050828	-7.131809	0.779721	0.239402	3.362339	0.448602	-0.853515	-0.188518	0.186358
02251	-1.785626	-10.671512	-8.029367	0.667029	-0.776355	3.622011	0.443963	-0.855737	-0.189018	0.186770
02252	-2.067915	-9.467030	-8.399154	0.775769	-1.688752	2.875571	0.439790	-0.857479	-0.189694	0.187964
02253	-2.373219	-8.101688	-8.240202	0.654459	-2.353510	1.728629	0.435212	-0.859284	-0.190546	0.189506
02254	-1.861217	-6.522974	-7.598979	1.041738	-2.415680	0.027826	0.429466	-0.861619	-0.191294	0.191253
02255	-1.710595	-6.674895	-6.969802	0.830408	-1.698922	-0.196002	0.422348	-0.864766	-0.191794	0.192395
02256	-1.607130	-7.418358	-5.839374	0.215212	-0.324421	-0.244021	0.414492	-0.868296	-0.192132	0.193247
02257	-1.648873	-8.196157	-5.623054	-0.093160	0.415285	0.253633	0.406487	-0.871866	-0.192268	0.194035
02258	-1.804275	-8.757118	-5.763945	-0.288698	0.748072	0.794881	0.399483	-0.874837	-0.192632	0.194851
02259	-1.887533	-9.193990	-5.675798	-0.510634	1.170619	1.081088	0.393748	-0.877158	-0.193071	0.195655
02260	-1.582988	-9.094911	-5.295765	-0.441928	1.612634	0.697852	0.388892	-0.879243	-0.192898	0.196176
02261	-1.410907	-8.299169	-5.449297	-0.088431	1.208171	0.141882	0.384554	-0.881156	-0.192486	0.196546
02262	-1.645291	-7.960501	-5.427044	-0.250789	0.984188	-0.091722	0.380482	-0.883071	-0.191777	0.196572
02263	-1.982641	-7.815976	-5.868351	-0.311130	0.553548	0.139898	0.376339	-0.885038	-0.190851	0.196601
02264	-2.340191	-7.646599	-6.536433	-0.277216	-0.034170	0.511712	0.372361	-0.886890	-0.190263	0.196399
02265	-2.279465	-6.770004	-6.725905	0.011256	-0.597410	-0.019375	0.368017	-0.888815	-0.189930	0.196208
02266	-1.640215	-4.685860	-6.293195	0.724816	-1.320168	-1.939763	0.362560	-0.891134	-0.189971	0.195810
02267	-1.047117	-4.278994	-5.985358	1.123827	-1.031171	-2.539231	0.355063	-0.894382	-0.190399	0.194316
02268	-0.480051	-4.852282	-5.064503	0.990966	0.270902	-2.858065	0.344894	-0.898852	-0.190570	0.191822
02269	-1.136744	-6.045091	-5.275446	0.198520	0.844051	-1.756044	0.332298	-0.904469	-0.189079	0.189110
02270	-1.542094	-8.042155	-6.092822	-0.294581	1.880123	0.214657	0.319085	-0.910300	-0.186438	0.186491
02271	-2.167412	-9.134182	-6.938030	-0.788610	2.243218	1.615561	0.306977	-0.915601	-0.183458	0.183799
02272	-3.363155	-8.697638	-8.012820	-1.339624	1.125746	2.356828	0.297360	-0.919704	-0.180725	0.181822
02273	-3.455959	-7.994314	-8.101593	-1.285254	0.721902	1.990400	0.290735	-0.922423	-0.178584	0.180876
02274	-2.866121	-6.650074	-7.538308	-0.744210	0.348490	0.607871	0.286277	-0.924166	-0.177150	0.180498
02275	-2.162268	-5.198385	-7.169644	0.019206	-0.223069	-0.699400	0.283418	-0.925263	-0.176490	0.180036
02276	-1.467213	-4.367055	-6.428478	0.476690	-0.191089	-1.920580	0.281753	-0.925950	-0.176650	0.178961
02277	-0.589297	-3.441038	-5.578885	1.067991	-0.128444	-3.320016	0.280272	-0.926637	-0.177152	0.177227
02278	0.077193	-3.007083	-5.093188	1.513262	0.059753	-4.094703	0.277501	-0.927983	-0.177259	0.174413
02279	0.087722	-2.145409	-4.998008	1.637554	-0.532910	-4.652789	0.272593	-0.930294	-0.176800	0.170256
02280	-0.748813	-2.191670	-6.162445	1.296552	-1.302483	-3.491218	0.264754	-0.933756	-0.175170	0.165292
02281	-5.621484	-5.277770	-13.252840	-1.089554	-3.755617	5.012654	0.254801	-0.937792	-0.172589	0.160735
02282	-8.036647	-7.739381	-16.152593	-2.891945	-3.685677	9.251346	0.248456	-0.940202	-0.171060	0.158204
02283	-3.202375	-7.539721	-10.641157	-0.696052	0.520494	3.588092	0.245344	-0.940724	-0.172906	0.157948
02284	-0.792574	-5.920769	-8.110635	0.864205	1.259422	0.143849	0.241796	-0.941315	-0.175007	0.157585
02285	-1.312344	-4.476493	-7.649839	0.559186	0.110683	-0.870879	0.238158	-0.942265	-0.175690	0.156686
02286	-2.635648	-4.517580	-8.600041	-0.303654	-0.698983	0.223976	0.234657	-0.943315	-0.175278	0.156111
02287	-2.818823	-5.024898	-8.924641	-0.499811	-0.410150	0.790432	0.231493	-0.944160	-0.175230	0.155778
02288	-2.994429	-5.268492	-9.060694	-0.691280	-0.288629	1.061987	0.230096	-0.944167	-0.177388	0.155366
02289	-2.665839	-4.611955	-8.528545	-0.441755	-0.501476	0.220568	0.230380	-0.943565	-0.180504	0.155011
02290	-2.573766	-4.379377	-8.024303	-0.493717	-0.487414	-0.341084	0.231000	-0.942919	-0.183023	0.155066
02291	-2.477093	-4.113764	-8.146602	-0.288874	-0.735275	-0.389203	0.231731	-0.942350	-0.184730	0.155410
02292	-2.359176	-3.312882	-7.611186	-0.149258	-1.156986	-1.262243	0.232343	-0.941941	-0.185032	0.156609
02293	-2.656987	-4.141724	-8.485300	-0.281175	-0.933290	-0.052383	0.232564	-0.941815	-0.183769	0.158519
02294	-2.515976	-4.720918	-8.752700	-0.166657	-0.486814	0.432406	0.232507	-0.941848	-0.181676	0.160798
02295	-2.162748	-5.536108	-9.109986	0.115437	0.211393	1.062035	0.232771	-0.942018	-0.178914	0.162513
02296	-2.358942	-6.178395	-9.484045	-0.030544	0.502805	1.738509	0.235151	-0.941321	-0.177988	0.164129
02297	-2.244739	-5.451746	-9.133614	0.170435	0.032090	1.057123	0.238068	-0.940365	-0.177905	0.165492
02298	-2.505043	-5.249467	-8.984018	-0.026854	-0.232692	0.887295	0.240104	-0.939620	-0.177912	0.166765
02299	-1.982539	-5.716185	-8.627316	0.205936	0.477412	0.711827	0.241068	-0.939114	-0.178231	0.167885
02300	-1.830849	-5.656629	-8.188931	0.195850	0.662891	0.283364	0.240310	-0.939178	-0.178476	0.168352
02301	-2.189516	-5.272756	-8.553898	0.121316	0.090652	0.470402	0.237821	-0.939895	-0.177906	0.168484
02302	-2.710990	-4.886981	-8.750826	-0.168042	-0.452476	0.559175	0.234362	-0.940966	-0.176573	0.168760
02303	-3.183314	-4.496477	-8.945833	-0.409822	-0.962104	0.641284	0.230722	-0.941994	-0.175160	0.169512
02304	-2.748144	-4.336176	-8.851341	-0.012713	-0.807380	0.387731	0.227782	-0.942599	-0.174467	0.170833
02305	-2.247484	-4.309857	-8.748337	0.414815	-0.534761	0.172363	0.225868	-0.942639	-0.175084	0.172514
02306	-2.370057	-4.403377	-8.798337	0.324084	-0.483924	0.290691	0.223896	-0.942636	-0.176141	0.174017
02307	-2.626295	-4.454699	-8.819368	0.107950	-0.513462	0.397484	0.221889	-0.942709	-0.177255	0.175060
02308	-2.716708	-4.493113	-8.614548	-0.057403	-0.406546	0.267507	0.219918	-0.942871	-0.178092	0.175820
02309	-2.929652	-4.757483	-8.789909	-0.235492	-0.292130	0.595869	0.217780	-0.943189	-0.178178	0.176689
02310	-2.785731	-5.034250	-8.875805	-0.138553	0.014339	0.763906	0.215911	-0.943518	-0.177963	0.177439
02311	-2.480679	-4.742631	-8.939761	0.236866	-0.088569	0.603721	0.214257	-0.943868	-0.177551	0.177996
02312	-2.277998	-3.855024	-9.141495	0.731702	-0.796983	0.308914	0.213438	-0.944018	-0.177354	0.178380
02313	-2.318580	-3.720987	-9.085541	0.712454	-0.890901	0.210650	0.212693	-0.944095	-0.177473	0.178744
02314	-2.667356	-3.761550	-9.004948	0.365750	-0.952913	0.252663	0.211576	-0.944257	-0.177697	0.178991
02315	-2.451611	-3.798644	-8.373714	0.284573	-0.593781	-0.319240	0.209953	-0.944582	-0.177799	0.179084
02316	-2.379819	-4.251130	-8.099950	0.110395	-0.047506	-0.361224	0.207271	-0.945237	-0.177438	0.179115
02317	-2.587845	-5.113158	-8.483891	-0.154656	0.535283	0.410172	0.203964	-0.946134	-0.176817	0.178788
02318	-2.490506	-5.489829	-8.562034	-0.160453	0.943751	0.614790	0.200383	-0.947236	-0.175883	0.177920
02319	-2.204170	-4.731163	-8.488163	0.226719	0.504186	0.136436	0.196919	-0.948476	-0.174551	0.176490
02320	-2.241191	-3.879461	-8.332664	0.315330	-0.129436	-0.358071	0.193577	-0.949810	-0.172888	0.174639
02321	-2.348532	-3.530297	-8.669148	0.399429	-0.519910	-0.184476	0.190810	-0.951060	-0.171185	0.172544
02322	-2.292598	-3.504279	-8.542159	0.359269	-0.437507	-0.316178	0.188820	-0.952131	-0.169693	0.170289
02323	-2.534393	-3.501067	-8.380641	0.033909	-0.451690	-0.394074	0.187165	-0.953215	-0.168109	0.167601
02324	-2.414623	-3.863106	-8.441073	0.013612	-0.080167	-0.221090	0.185723	-0.954317	-0.166500	0.164511
02325	-2.410178	-4.238892	-8.431400	-0.146473	0.278837	-0.077903	0.184312	-0.955526	-0.164696	0.160855
02326	-2.414011	-4.300722	-8.559276	-0.190957	0.319198	0.058786	0.182920	-0.956867	-0.162355	0.156803
02327	-2.408593	-4.002310	-8.741019	-0.123669	0.027692	0.097337	0.181815	-0.958249	-0.159589	0.152423
02328	-2.394744	-3.941729	-8.716936	-0.183890	0.001521	0.047467	0.181430	-0.959545	-0.156429	0.147938
02329	-2.294465	-4.247959	-8.643955	-0.268639	0.333563	0.078915	0.181697	-0.960766	-0.152821	0.143388
02330	-1.739618	-3.551114	-8.208899	0.195159	0.030361	-0.703170	0.182539	-0.961815	-0.149307	0.138923
02331	-1.519058	-3.529460	-8.083039	0.297492	0.108437	-0.868443	0.183193	-0.962677	-0.146808	0.134687
02332	-1.579144	-3.871551	-8.256142	0.152901	0.324473	-0.565121	0.183661	-0.963358	-0.145177	0.130897
02333	-1.603532	-3.791021	-8.584593	0.187147	0.126628	-0.294967	0.184192	-0.963928	-0.143888	0.127327
02334	-1.572872	-3.497706	-8.720704	0.263588	-0.184989	-0.291420	0.184854	-0.964391	-0.142899	0.123930
02335	-1.419838	-3.596829	-8.738067	0.334179	-0.073929	-0.263366	0.185752	-0.964670	-0.142301	0.121069
02336	-1.439441	-4.014155	-8.981234	0.241175	0.188684	0.124818	0.186749	-0.964867	-0.141852	0.118467
02337	-1.481770	-4.014019	-9.316911	0.250482	0.034774	0.436635	0.188209	-0.964914	-0.141601	0.116048
02338	-1.269350	-3.843466	-9.476858	0.490767	-0.142873	0.479677	0.190070	-0.964820	-0.141580	0.113798
02339	-1.244022	-3.751822	-9.498982	0.506905	-0.271381	0.459777	0.192276	-0.964575	-0.141734	0.111970
02340	-1.121692	-3.656180	-9.609152	0.645659	-0.407719	0.501295	0.194670	-0.964209	-0.142142	0.110455
02341	-1.080099	-3.591394	-9.924372	0.759184	-0.619541	0.751276	0.197378	-0.963680	-0.143084	0.109039
02342	-1.265669	-3.484684	-9.926000	0.586414	-0.837943	0.733589	0.200201	-0.963058	-0.144499	0.107512
02343	-1.393730	-3.802602	-9.792019	0.328731	-0.619698	0.760549	0.202992	-0.962364	-0.146451	0.105837
02344	-1.317299	-4.141768	-9.828421	0.284780	-0.369698	0.923659	0.204654	-0.961978	-0.148557	0.103183
02345	-1.274424	-4.435579	-9.152535	0.027679	0.101600	0.436994	0.206132	-0.961656	-0.150270	0.100728
02346	-1.186544	-4.404430	-9.314955	0.108454	0.012635	0.558576	0.206680	-0.961581	-0.151511	0.098440
02347	-0.932563	-4.419921	-9.517032	0.345177	0.016955	0.716303	0.207073	-0.961592	-0.152265	0.096320
02348	-1.413427	-4.626654	-8.955737	-0.334750	0.243774	0.357726	0.206221	-0.961977	-0.152083	0.094573
02349	-1.729442	-4.164359	-9.055352	-0.546272	-0.238049	0.285614	0.200691	-0.963616	-0.151001	0.091466
02350	-1.321350	-3.858242	-9.313504	-0.094776	-0.353032	0.347937	0.194791	-0.965163	-0.150186	0.089228
02351	-1.119047	-3.706664	-9.746496	0.181318	-0.474987	0.662363	0.190907	-0.966091	-0.149953	0.087955
02352	-0.877923	-3.879701	-9.373319	0.244565	-0.060975	0.366616	0.189160	-0.966637	-0.149509	0.086484
02353	-1.340956	-3.680780	-9.099658	-0.230389	-0.262436	0.088223	0.187689	-0.967026	-0.149497	0.085344
02354	-1.200695	-3.908342	-8.958934	-0.209530	0.055912	0.032728	0.186414	-0.967269	-0.149881	0.084713
02355	-0.898828	-3.696300	-8.986773	0.123292	-0.023801	-0.054777	0.185347	-0.967388	-0.150483	0.084631
02356	-0.934202	-3.520650	-8.879952	0.106288	-0.134293	-0.216236	0.184145	-0.967537	-0.151010	0.084609
02357	-0.825952	-3.724817	-8.774233	0.125804	0.139797	-0.246695	0.182812	-0.967701	-0.151599	0.084576
02358	-0.857067	-3.662383	-8.943462	0.143244	0.041077	-0.111611	0.181702	-0.967780	-0.152379	0.084655
02359	-0.894539	-3.541788	-8.943449	0.136911	-0.060106	-0.153114	0.180836	-0.967805	-0.153133	0.084862
02360	-0.753484	-3.261180	-8.600993	0.272832	-0.136507	-0.588425	0.180049	-0.967820	-0.153669	0.085399
02361	-0.883510	-3.145601	-8.902746	0.253181	-0.364233	-0.339700	0.179324	-0.967862	-0.153942	0.085955
02362	-0.831025	-3.029234	-8.711439	0.302233	-0.376789	-0.564839	0.178919	-0.967832	-0.154153	0.086757
02363	-0.888351	-3.078705	-8.733733	0.253971	-0.349546	-0.519734	0.178543	-0.967807	-0.154236	0.087649
02364	-0.940842	-3.224919	-8.766266	0.188707	-0.237664	-0.429694	0.178168	-0.967781	-0.154264	0.088643
02365	-0.996433	-3.242087	-8.763679	0.149622	-0.230607	-0.419579	0.177847	-0.967740	-0.154261	0.089746
02366	-1.024327	-3.345059	-8.682656	0.097478	-0.111430	-0.452922	0.177330	-0.967744	-0.154146	0.090907
02367	-1.103960	-3.429139	-8.937320	0.078371	-0.129511	-0.177832	0.176752	-0.967777	-0.153906	0.092080
02368	-1.166543	-3.765537	-8.843171	-0.069554	0.192988	-0.132831	0.176279	-0.967780	-0.153700	0.093298
02369	-1.119942	-3.846627	-8.850979	-0.022632	0.287269	-0.101480	0.176177	-0.967703	-0.153537	0.094544
02370	-1.057100	-3.822795	-8.727660	0.038440	0.328282	-0.231771	0.176359	-0.967553	-0.153456	0.095863
02371	-1.147462	-3.762385	-8.797830	0.012363	0.223400	-0.178172	0.176486	-0.967394	-0.153432	0.097260
02372	-1.110002	-3.546945	-8.831968	0.138947	0.033492	-0.231660	0.176708	-0.967187	-0.153568	0.098690
02373	-1.176667	-3.535415	-8.950920	0.134127	-0.038009	-0.118194	0.177025	-0.966967	-0.153763	0.099966
02374	-1.244242	-3.639389	-9.017282	0.083312	0.006066	-0.009747	0.177548	-0.966723	-0.153970	0.101074
02375	-1.215153	-3.747668	-9.108175	0.126346	0.072886	0.109971	0.178341	-0.966433	-0.154210	0.102088
02376	-1.125761	-3.751076	-9.187273	0.249537	0.065138	0.171166	0.179345	-0.966105	-0.154478	0.103023
02377	-1.106223	-3.616243	-9.415895	0.383030	-0.142922	0.325990	0.180798	-0.965669	-0.154803	0.104076
02378	-1.182273	-3.558058	-9.481647	0.372651	-0.271371	0.372914	0.182625	-0.965131	-0.155100	0.105419
02379	-1.286701	-3.544626	-9.746569	0.384995	-0.441739	0.621483	0.184868	-0.964419	-0.155616	0.107252
02380	-1.318297	-3.450293	-9.605038	0.391538	-0.535465	0.456623	0.187452	-0.963506	-0.156632	0.109475
02381	-1.507425	-3.481144	-9.769191	0.304900	-0.681076	0.640561	0.190449	-0.962377	-0.158306	0.111798
02382	-1.062260	-3.302450	-8.795556	0.545802	-0.413947	-0.382584	0.193010	-0.961357	-0.160205	0.113463
02383	-1.622860	-3.598974	-8.759657	-0.032593	-0.376407	-0.211905	0.194372	-0.960680	-0.161829	0.114561
02384	-1.597021	-3.854971	-9.174014	0.058492	-0.304612	0.260919	0.195080	-0.960272	-0.162697	0.115544
02385	-1.425585	-4.299545	-9.330924	0.159437	0.075588	0.558105	0.195907	-0.959967	-0.163007	0.116247
02386	-1.341979	-4.413913	-9.596729	0.297604	0.090475	0.830802	0.197485	-0.959495	-0.163436	0.116868
02387	-1.922292	-4.731183	-9.998693	-0.181374	-0.030214	1.413125	0.200641	-0.958632	-0.163887	0.117933
02388	-2.135172	-4.967375	-10.131452	-0.355958	-0.036447	1.665589	0.205491	-0.957343	-0.164183	0.119636
02389	-2.054927	-4.019988	-10.049058	0.010864	-0.916498	1.165678	0.211921	-0.955599	-0.164538	0.121846
02390	-1.807605	-2.989334	-9.890615	0.532890	-1.793441	0.508412	0.219298	-0.953531	-0.165357	0.123874
02391	-1.500132	-3.019563	-8.835683	0.545633	-1.399932	-0.475769	0.226794	-0.951419	-0.166393	0.125219
02392	-1.415031	-3.093560	-7.732186	0.306240	-1.001014	-1.430438	0.233550	-0.949520	-0.167177	0.126170
02393	-0.593757	-3.225431	-5.946033	0.490729	0.043461	-3.040087	0.238705	-0.948174	-0.167313	0.126462
02394	-0.203577	-3.021719	-4.827465	0.555602	0.437228	-4.157888	0.240203	-0.948121	-0.166077	0.125645
02395	-0.596353	-4.070368	-5.626510	0.170492	0.837244	-2.895247	0.237912	-0.949354	-0.163559	0.123990
02396	-1.564148	-5.582286	-7.508316	-0.540908	1.034992	-0.398946	0.232918	-0.951343	-0.160419	0.122317
02397	-2.360256	-6.928106	-9.988444	-0.886152	1.001307	2.497822	0.227490	-0.953342	-0.157117	0.121250
02398	-2.538175	-6.841704	-10.877117	-0.777976	0.645735	3.246394	0.223724	-0.954740	-0.154040	0.121208
02399	-2.674313	-6.586560	-11.087123	-0.759322	0.381451	3.330242	0.222447	-0.955202	-0.151929	0.122577
02400	-2.739297	-5.455255	-10.894791	-0.550408	-0.516728	2.652847	0.223698	-0.954805	-0.150398	0.125248
02401	-3.026493	-4.682372	-10.766412	-0.577950	-1.282528	2.229697	0.228234	-0.953211	-0.150185	0.129391
02402	-2.421466	-4.263081	-10.309878	0.069673	-1.375546	1.520011	0.235466	-0.950564	-0.150918	0.134935
02403	-1.937972	-3.829624	-9.284858	0.424933	-1.308852	0.323046	0.243558	-0.947588	-0.151867	0.140327
02404	-2.091528	-3.895533	-8.952215	0.294020	-1.326719	0.078795	0.252129	-0.944358	-0.152907	0.145732
02405	-2.541534	-4.369691	-9.168938	0.000147	-1.370363	0.567096	0.261889	-0.940577	-0.154267	0.151430
02406	-2.452293	-4.686252	-9.513729	0.304875	-1.462055	0.969089	0.274107	-0.935679	-0.156470	0.157759
02407	-2.573136	-5.157281	-9.261138	0.195187	-1.295516	1.015954	0.288160	-0.929709	-0.159450	0.164868
02408	-2.203127	-5.493957	-9.005560	0.570591	-1.084429	0.893489	0.303762	-0.922605	-0.163346	0.172763
02409	-1.515358	-5.339571	-9.558447	1.659961	-1.583996	0.998749	0.323219	-0.914148	-0.166601	0.179185
02410	-1.362315	-5.909680	-5.733772	0.226140	0.549178	-1.488557	0.343921	-0.905115	-0.168526	0.184617
02411	-1.564322	-6.473660	-5.389674	-0.054648	0.736705	-1.277477	0.359877	-0.897331	-0.170409	0.190383
02412	-1.479068	-6.941434	-5.151007	-0.028013	0.993252	-1.099949	0.370881	-0.891129	-0.172101	0.196770
02413	-1.552865	-7.277904	-5.862458	0.346908	0.564488	-0.362661	0.381419	-0.885147	-0.171810	0.203755
02414	-1.365806	-8.204796	-5.395697	0.338605	1.321280	0.007118	0.394002	-0.878346	-0.169384	0.211138
02415	-1.087096	-9.068562	-4.758261	0.375116	2.142193	0.253145	0.407909	-0.870998	-0.165545	0.218099
02416	-1.003347	-8.868741	-4.496635	0.573307	1.956077	-0.029278	0.422530	-0.863391	-0.160716	0.224041
02417	-1.218104	-7.769340	-4.710195	0.819127	0.796564	-0.717765	0.437361	-0.855668	-0.155052	0.229143
02418	-1.138949	-7.321655	-5.252348	1.397322	-0.049571	-0.838978	0.451760	-0.848238	-0.148111	0.233385
02419	-1.930850	-7.434162	-6.173446	1.383620	-1.266614	-0.139109	0.466560	-0.840766	-0.140277	0.236130
02420	-2.306189	-7.836759	-6.626596	1.466029	-1.878046	0.432034	0.483945	-0.831634	-0.132246	0.238103
02421	-2.516753	-8.379452	-5.595306	0.937652	-1.329172	0.443659	0.503837	-0.820688	-0.123557	0.239483
02422	-2.365197	-8.364806	-4.413999	0.651184	-0.783092	-0.117746	0.525056	-0.808504	-0.114193	0.239994
02423	-2.242346	-8.692868	-3.823910	0.676102	-0.556664	-0.095201	0.546793	-0.795406	-0.103961	0.239873
02424	-2.655840	-8.949081	-2.895180	0.080775	-0.315033	-0.045583	0.568881	-0.781671	-0.093099	0.238112
02425	-2.719838	-8.404136	-2.430489	-0.099688	-0.548079	-0.668850	0.589885	-0.768616	-0.081237	0.233808
02426	-2.383613	-8.947559	-0.377339	-0.502690	1.160255	-0.632748	0.609553	-0.756317	-0.069548	0.227140
02427	-2.582425	-9.410073	-0.963316	-0.235723	0.296529	-0.015310	0.629320	-0.743516	-0.059637	0.218137
02428	-2.132443	-9.227590	-3.909648	1.300618	-2.759701	-0.032975	0.653498	-0.726818	-0.050132	0.205335
02429	-2.405183	-8.720348	6.240673	-2.620881	5.991963	-0.982935	0.682170	-0.705190	-0.042737	0.188482
02430	-2.704269	-6.640840	8.493008	-3.948073	7.483221	-2.605572	0.698302	-0.690350	-0.050254	0.182391
02431	-3.068958	-7.858810	1.629998	-1.892740	0.504183	-1.447110	0.712200	-0.672257	-0.060725	0.192754
02432	-3.839259	-10.288414	3.084074	-2.527724	1.053814	1.258740	0.723994	-0.654601	-0.068076	0.206629
02433	-2.771939	-10.202539	0.814356	-0.602750	-1.127336	0.712723	0.735883	-0.636809	-0.076279	0.217097
02434	-2.320262	-8.050950	-1.590034	0.387665	-3.357394	-1.983953	0.751270	-0.615380	-0.082302	0.223891
02435	-1.551283	-5.863255	-1.287154	0.570252	-2.829119	-4.326665	0.771469	-0.587634	-0.083508	0.229234
02436	-0.543949	-1.893989	-2.461515	0.980850	-2.815541	-8.789321	0.794944	-0.554771	-0.077822	0.232889
02437	-1.709445	-1.665647	1.115327	-1.405424	-0.359811	-7.614276	0.820066	-0.517576	-0.062734	0.235948
02438	-3.827650	-4.752006	3.738158	-2.961808	-0.472557	-3.317210	0.837887	-0.488049	-0.042993	0.240636
02439	-2.586057	-16.173902	6.441269	1.950930	-2.814724	7.449512	0.846454	-0.471980	-0.025860	0.245118
02440	1.555506	-23.797052	7.223322	8.563974	-4.273347	13.192740	0.853911	-0.464952	-0.025277	0.232416
02441	-2.738641	-5.737879	7.497637	-2.209272	2.034693	-0.452396	0.862622	-0.455890	-0.023442	0.217942
02442	-4.303099	-8.210727	7.942386	-2.805734	0.388994	2.061116	0.868651	-0.447041	-0.019066	0.212687
02443	-0.547169	-8.858676	5.554084	1.455237	-0.545778	0.541204	0.874127	-0.437628	-0.014520	0.210174
02444	-0.764291	-7.661803	5.703211	0.910477	-0.098911	-0.274866	0.880247	-0.426897	-0.008341	0.207013
02445	-1.901858	-6.380524	6.174942	-0.548598	0.332331	-0.754992	0.886444	-0.415433	-0.001443	0.204038
02446	-1.778783	-6.262079	6.635143	-0.406302	0.584438	-0.544973	0.892297	-0.403794	0.006400	0.201780
02447	-1.696521	-6.278320	7.709329	-0.306117	1.162649	0.201099	0.898032	-0.391127	0.013946	0.200907
02448	-1.620052	-5.246962	10.771816	-0.824420	3.691382	1.670579	0.904280	-0.374901	0.017869	0.203490
02449	-1.827285	-5.883708	8.577351	-0.354471	1.326930	0.657624	0.910827	-0.356913	0.020334	0.206383
02450	-2.082429	-4.994568	8.865183	-0.820993	1.628747	0.411416	0.917278	-0.338220	0.022980	0.208997
02451	-2.252753	-4.104854	9.661849	-1.262752	2.293759	0.599099	0.923337	-0.319729	0.025452	0.211126
02452	-2.155601	-3.582595	10.009981	-1.271739	2.523624	0.660142	0.929161	-0.301106	0.028046	0.212625
02453	-2.731246	-2.726425	10.490862	-2.028316	2.808458	0.814256	0.935242	-0.281094	0.031020	0.212947
02454	-1.926941	-2.371826	9.504555	-1.230810	2.434869	-0.209848	0.941987	-0.258915	0.034103	0.210858
02455	-2.029780	-2.880876	8.188453	-0.896766	0.926523	-0.992776	0.949160	-0.234059	0.039324	0.206796
02456	-1.726995	-2.832186	7.722485	-0.444028	0.448193	-1.432693	0.956033	-0.207049	0.047341	0.202215
02457	-1.395905	-1.833949	6.328545	-0.339670	0.409634	-3.099925	0.962581	-0.174290	0.059574	0.198774
02458	-1.310167	-3.197472	6.032190	0.522924	-1.250575	-2.995871	0.967539	-0.140315	0.074346	0.196602
02459	-1.198054	-4.200347	6.554242	1.307626	-2.340524	-2.407909	0.970995	-0.112929	0.086943	0.191981
02460	-1.536194	-5.144921	8.783488	1.817662	-3.103366	-0.167344	0.973768	-0.094839	0.093848	0.184317
02461	-2.850447	-5.396782	10.055245	0.948725	-3.766942	1.289783	0.975995	-0.085853	0.095424	0.175948
02462	-3.179960	-2.494267	10.010124	-0.438762	-1.324406	0.891947	0.977496	-0.082921	0.094523	0.169385
02463	-2.466219	-0.987680	9.809273	-0.376223	0.209508	0.340823	0.978807	-0.080097	0.092330	0.164305
02464	-1.967705	-0.907330	10.164190	0.046594	0.425923	0.570983	0.980370	-0.075541	0.087171	0.159902
02465	-3.560646	-2.284371	11.144285	-0.984570	-1.241593	2.001604	0.981548	-0.074566	0.079326	0.157197
02466	-2.125831	-2.852016	9.658884	0.151579	-1.610695	0.352299	0.982200	-0.077784	0.070954	0.155558
02467	-1.520244	-2.451365	8.337232	0.257503	-1.243950	-1.082667	0.982611	-0.082427	0.061658	0.154528
02468	-0.826180	-3.847920	7.233848	1.071034	-2.493272	-2.037643	0.982773	-0.088210	0.051620	0.153984
02469	-0.069988	-3.460120	7.242147	1.518252	-1.873163	-2.156926	0.983145	-0.089664	0.043101	0.153389
02470	-0.398572	-0.901476	7.077569	0.298566	0.355536	-2.681990	0.983843	-0.084801	0.036681	0.153348
02471	-1.005668	2.147334	5.828003	-1.308596	2.702077	-4.283462	0.985169	-0.071785	0.035922	0.151653
02472	-0.488823	-1.297066	5.861597	0.275246	-0.566800	-3.822824	0.986839	-0.053422	0.039252	0.147491
02473	-1.336950	-2.237747	2.887013	-0.405388	-2.243097	-6.661342	0.988588	-0.026253	0.046756	0.140779
02474	-0.441896	-2.103389	7.608472	0.891519	-1.916583	-2.196272	0.990278	0.011610	0.050350	0.129152
02475	1.677922	2.237587	19.915879	3.194569	1.864142	9.952768	0.990077	0.039944	0.046765	0.126355
02476	-3.538814	5.741154	17.645554	-2.948440	3.305738	8.550767	0.989574	0.049683	0.044560	0.127627
02477	-1.262668	3.947085	11.545511	-0.990007	2.470762	2.161768	0.989725	0.051734	0.042731	0.126258
02478	0.841153	1.377942	9.061349	1.380099	0.710032	-0.740465	0.989776	0.053644	0.040163	0.125910
02479	0.746406	0.948475	8.596706	1.302866	0.255562	-1.233843	0.989466	0.057995	0.036731	0.127452
02480	-1.004642	1.965070	9.908932	-0.567990	0.564370	0.307381	0.989129	0.061755	0.033843	0.129094
02481	-1.324621	1.813470	10.036244	-0.872951	0.254045	0.431461	0.988976	0.063791	0.031637	0.129830
02482	-0.397938	1.362868	10.009745	0.094504	0.032799	0.296744	0.988947	0.064604	0.029830	0.130078
02483	-0.135957	0.639351	9.351820	0.450718	-0.527890	-0.463787	0.988944	0.064781	0.028769	0.130255
02484	-0.272693	2.417240	9.392000	-0.139695	1.131956	-0.178050	0.989007	0.064751	0.028638	0.129815
02485	-0.721109	2.590464	9.967565	-0.572569	1.104478	0.435977	0.988897	0.065509	0.028497	0.130302
02486	-1.025881	2.267794	8.480724	-0.889882	0.882375	-1.063546	0.988618	0.065876	0.030113	0.131861
02487	-0.463545	0.019093	7.228379	0.174071	-1.001445	-2.641159	0.988032	0.070436	0.034325	0.132869
02488	-0.023698	-1.522709	7.891105	1.129678	-2.530398	-2.268971	0.987488	0.079030	0.038965	0.130783
02489	-0.000105	0.375659	7.707799	0.735394	-0.830584	-2.176078	0.986655	0.090146	0.042962	0.128610
02490	-0.788123	1.463946	7.910418	-0.173003	-0.221905	-1.734621	0.985265	0.103905	0.047827	0.127155
02491	-0.351785	2.105340	8.545375	0.292890	0.137755	-1.011136	0.983234	0.120014	0.053226	0.126546
02492	-0.775576	2.372325	9.040129	0.024506	-0.130361	-0.435834	0.980511	0.137979	0.058087	0.127227
02493	-0.979041	3.187139	8.923715	-0.238115	0.269364	-0.293844	0.977288	0.156344	0.063608	0.128133
02494	-1.086295	3.935085	9.140859	-0.311532	0.521604	0.179220	0.973540	0.174301	0.070722	0.129756
02495	-1.607059	4.075814	11.154454	-0.241698	-0.495475	2.157942	0.969541	0.190283	0.079743	0.131996
02496	-2.103987	5.319542	12.596447	-0.435097	-0.349858	4.010155	0.966437	0.201035	0.087820	0.133689
02497	-1.563415	6.191656	11.765142	-0.129215	0.705550	3.554574	0.965534	0.204117	0.091117	0.133333
02498	-1.304307	5.062740	9.193043	-0.163436	0.680466	0.739777	0.964956	0.205939	0.093375	0.133156
02499	-2.071949	5.099908	9.665335	-0.744713	0.285062	1.281671	0.964724	0.206863	0.094359	0.132708
02500	-1.528760	4.789681	9.166449	-0.271625	0.349717	0.632688	0.964777	0.207029	0.094155	0.132210
02501	-1.316525	4.596339	9.146805	-0.040097	0.250644	0.505218	0.964965	0.206806	0.093484	0.131660
02502	-1.275293	4.278453	8.899847	-0.011021	0.082961	0.143805	0.965308	0.206161	0.092090	0.131138
02503	-1.721537	3.380107	8.500785	-0.363589	-0.683934	-0.536259	0.965583	0.205878	0.090391	0.130739
02504	-2.011036	3.925186	8.477671	-0.795224	-0.280099	-0.293691	0.965845	0.206102	0.088221	0.129935
02505	-1.371417	4.169593	8.654404	-0.237234	0.040742	-0.111816	0.965949	0.207103	0.085922	0.129104
02506	-0.392269	4.640141	7.798228	0.367951	1.035274	-0.796599	0.965983	0.208204	0.083847	0.128442
02507	0.666060	4.187328	7.409558	1.374586	1.059785	-1.454087	0.965640	0.209784	0.083903	0.128410
02508	1.164764	4.757232	7.364609	1.739694	1.696765	-1.308589	0.964962	0.211408	0.086395	0.129191
02509	-0.172370	2.498121	8.275899	1.215814	-1.037610	-1.315311	0.964112	0.212893	0.091021	0.129923
02510	-0.474088	3.137409	8.442881	0.924240	-0.635443	-0.863304	0.963490	0.213484	0.096565	0.129566
02511	-2.631905	5.895440	9.410009	-1.369079	0.789887	1.489198	0.963318	0.212638	0.100052	0.129592
02512	-1.137137	3.567862	8.214867	0.279417	-0.324821	-0.794763	0.963386	0.211085	0.102458	0.129741
02513	0.229086	2.376961	7.242279	1.605812	-0.585309	-2.380888	0.962864	0.211866	0.105232	0.130124
02514	-1.227789	3.934901	8.522039	0.292105	-0.151101	-0.351838	0.962144	0.213349	0.107761	0.130955
02515	-1.220285	5.128408	7.472531	-0.193276	1.266933	-0.758086	0.961423	0.214899	0.109274	0.132453
02516	-2.389862	4.478576	8.160437	-0.950488	0.040518	-0.249399	0.960503	0.217312	0.110265	0.134356
02517	-3.023283	3.978087	8.405465	-1.366290	-0.732809	-0.157981	0.959967	0.219191	0.109764	0.135537
02518	-2.820229	4.087337	8.831448	-1.101313	-0.773004	0.229421	0.959883	0.219987	0.108136	0.136148
02519	-2.408886	4.587445	8.748240	-0.890686	-0.186106	0.314050	0.960365	0.219304	0.105217	0.136139
02520	-1.865551	4.745144	8.676345	-0.502213	0.167592	0.236927	0.961273	0.217416	0.101431	0.135634
02521	-1.623404	4.559637	9.084169	-0.216092	-0.034812	0.478033	0.962509	0.214457	0.096881	0.134907
02522	-1.299878	3.863324	8.469240	-0.007528	-0.258424	-0.417196	0.963676	0.211667	0.092138	0.134302
02523	-1.742737	3.571813	8.691217	-0.399620	-0.700507	-0.290021	0.964447	0.210417	0.087594	0.133770
02524	-1.752692	3.652197	9.151711	-0.411758	-0.797075	0.155195	0.965117	0.209792	0.082844	0.132941
02525	-1.198703	4.901239	9.381086	-0.207603	0.379238	0.830437	0.965811	0.209069	0.077994	0.131968
02526	-1.677355	5.471115	9.273535	-0.911544	0.798085	1.016732	0.966723	0.207748	0.072876	0.130295
02527	-1.141235	3.386305	8.635583	-0.157602	-0.626730	-0.489354	0.967496	0.207187	0.068031	0.128049
02528	-0.808206	1.407062	8.062700	0.410407	-2.067726	-1.863108	0.967948	0.207996	0.063856	0.125449
02529	-0.833420	1.101170	7.734789	0.333442	-2.251680	-2.292549	0.967914	0.210785	0.060511	0.122682
02530	-0.783069	1.653564	8.730261	0.387449	-2.202722	-1.177753	0.967511	0.214942	0.057330	0.120147
02531	-0.957606	3.630763	9.269069	-0.156654	-0.805822	0.154274	0.967164	0.218883	0.053408	0.117610
02532	-1.072570	4.950276	9.509094	-0.570420	0.143445	0.945169	0.966929	0.222341	0.048420	0.115193
02533	-0.926256	5.389754	9.623745	-0.597367	0.443065	1.231284	0.966892	0.225062	0.042091	0.112670
02534	-0.591453	5.071341	8.881546	-0.429256	0.496971	0.410687	0.966902	0.227442	0.034755	0.110284
02535	-0.512030	4.902367	7.981543	-0.555215	0.697562	-0.474384	0.966834	0.229930	0.026477	0.107993
02536	-0.403063	4.728874	7.449230	-0.601984	0.751274	-1.032751	0.966782	0.232141	0.017427	0.105543
02537	-0.127047	4.878902	7.091288	-0.527306	1.052933	-1.285215	0.966689	0.234123	0.007821	0.103138
02538	0.837976	4.706970	6.684537	0.290210	1.243894	-1.694324	0.966723	0.235257	-0.001940	0.100485
02539	1.478010	5.079311	7.206293	0.731650	1.421195	-1.017373	0.966683	0.235852	-0.011722	0.098796
02540	0.917346	6.313695	7.639908	-0.206250	2.165928	-0.100000	0.966614	0.235827	-0.021727	0.097827
02541	1.128270	6.651848	7.926550	-0.239923	2.349995	0.324742	0.966445	0.235617	-0.031832	0.097240
02542	0.866293	5.814095	8.288165	-0.515862	1.394458	0.238892	0.966178	0.235322	-0.042063	0.096716
02543	1.206336	4.785511	8.796259	-0.178073	0.309963	0.266976	0.965876	0.234800	-0.052240	0.096038
02544	1.297291	3.939872	8.678063	-0.091063	-0.368150	-0.201864	0.965511	0.234324	-0.061746	0.095230
02545	1.519058	2.847673	8.569061	0.202102	-1.250195	-0.744067	0.965064	0.234276	-0.070109	0.094082
02546	1.914687	2.093637	8.397892	0.632214	-1.788074	-1.153822	0.964620	0.234482	-0.076560	0.093083
02547	1.837043	2.050258	8.098516	0.503964	-1.718621	-1.448708	0.964199	0.235092	-0.080832	0.092293
02548	1.602814	2.440681	8.228028	0.125822	-1.494464	-1.211700	0.963817	0.236231	-0.082942	0.091502
02549	1.661918	2.810761	8.558879	0.051126	-1.347527	-0.751881	0.963483	0.237907	-0.082999	0.090623
02550	1.577885	3.176489	8.809977	-0.113401	-1.195922	-0.391855	0.963141	0.240256	-0.080960	0.089901
02551	1.359402	3.166959	9.026742	-0.285381	-1.385377	-0.254540	0.962727	0.243373	-0.077153	0.089296
02552	1.139161	3.473315	9.027962	-0.469554	-1.208754	-0.159563	0.962253	0.247005	-0.071827	0.088870
02553	0.527145	3.474942	9.049005	-0.952764	-1.361935	-0.248511	0.961842	0.250370	-0.065824	0.088559
02554	0.259926	4.041381	8.914883	-1.191228	-0.900955	-0.135756	0.961486	0.253475	-0.059157	0.088297
02555	-0.195041	4.514760	8.703433	-1.581174	-0.506894	-0.147702	0.961141	0.256423	-0.052136	0.087963
02556	-0.732803	4.622239	8.637282	-1.986729	-0.507845	-0.205509	0.960817	0.259127	-0.045033	0.087493
02557	-1.081564	4.521793	8.334901	-2.160978	-0.532852	-0.531982	0.960603	0.261345	-0.037908	0.086625
02558	-1.223163	4.604228	8.381839	-2.181349	-0.536252	-0.437039	0.960515	0.263014	-0.030995	0.085284
02559	-1.395224	4.897523	8.455054	-2.269281	-0.367921	-0.214058	0.960561	0.264180	-0.024299	0.083311
02560	-1.267792	4.793246	8.551984	-1.991308	-0.490945	-0.142576	0.960743	0.264743	-0.017788	0.081044
02561	-0.964999	4.614295	8.470603	-1.532413	-0.550228	-0.256457	0.961007	0.264861	-0.011311	0.078649
02562	-1.048300	4.570407	8.457890	-1.477328	-0.580489	-0.273164	0.961283	0.264711	-0.004759	0.076420
02563	-1.136713	4.259273	8.453461	-1.386360	-0.840950	-0.417806	0.961500	0.264519	0.002105	0.074459
02564	-1.650052	4.077632	8.664937	-1.721746	-1.164273	-0.320097	0.961618	0.264377	0.009234	0.072872
02565	-2.603771	3.646368	8.612190	-2.473588	-1.633634	-0.568423	0.961686	0.264226	0.016272	0.071270
02566	-4.082273	4.754870	8.755734	-3.945366	-0.939757	0.161574	0.962470	0.261936	0.021439	0.067682
02567	-1.726054	3.545331	8.678231	-1.379308	-1.533731	-0.506523	0.963058	0.259731	0.025894	0.066245
02568	-6.403626	3.972159	10.825396	-5.810240	-2.795212	1.693788	0.964643	0.254634	0.027223	0.062320
02569	-7.028047	-3.444212	5.250463	-6.152804	-6.474461	-6.804848	0.964588	0.255620	0.022667	0.060943
02570	-4.088376	1.630827	7.325792	-3.697856	-2.714510	-2.601759	0.964305	0.257998	0.015248	0.057624
02571	1.219288	3.161959	7.813028	1.329672	-1.009820	-1.461689	0.964414	0.258750	0.007990	0.053755
02572	3.418447	2.988873	6.386676	3.389659	-0.248243	-2.751737	0.964123	0.260454	0.004549	0.051083
02573	1.793888	2.930101	7.708255	1.815291	-1.173069	-1.654917	0.963694	0.262396	0.004363	0.049225
02574	-0.195580	2.548511	7.412653	-0.132457	-1.581353	-2.133996	0.963323	0.264017	0.005031	0.047738
02575	-1.266804	2.570871	7.211252	-1.198624	-1.592965	-2.313221	0.962757	0.266306	0.005301	0.046394
02576	-1.239527	3.282025	7.854904	-1.207137	-1.345824	-1.402034	0.962185	0.268642	0.004591	0.044842
02577	-0.576695	3.148387	7.590264	-0.559173	-1.300221	-1.697662	0.961616	0.270959	0.003138	0.043199
02578	-0.318869	3.356219	7.967943	-0.327756	-1.336160	-1.270963	0.961028	0.273308	0.001402	0.041537
02579	-0.275360	3.608316	7.954713	-0.332511	-1.154087	-1.156445	0.960424	0.275678	-0.000721	0.039831
02580	-0.312004	3.458017	7.678572	-0.396549	-1.178829	-1.477907	0.959818	0.278021	-0.003100	0.038005
02581	-0.601018	3.416738	7.555138	-0.719926	-1.210825	-1.619350	0.959120	0.280631	-0.005749	0.036071
02582	-1.095786	3.878270	7.662992	-1.289478	-0.955145	-1.304588	0.958431	0.283152	-0.009275	0.033887
02583	-0.982144	4.230411	7.323392	-1.259730	-0.508463	-1.407502	0.957690	0.285758	-0.013687	0.031396
02584	-0.785706	4.461215	7.247786	-1.143908	-0.302060	-1.348062	0.956935	0.288288	-0.018667	0.028573
02585	-0.632011	4.821247	6.983389	-1.078673	0.110334	-1.372584	0.956094	0.290970	-0.023931	0.025444
02586	-0.572101	5.586939	6.947591	-1.132778	0.725562	-0.980924	0.955182	0.293736	-0.029405	0.021938
02587	-0.485462	6.305544	6.916513	-1.155660	1.292410	-0.602517	0.954158	0.296660	-0.035328	0.018086
02588	-0.301432	6.756301	7.083588	-1.078822	1.521452	-0.198309	0.953039	0.299619	-0.041873	0.013836
02589	-0.017116	6.627577	6.889040	-0.858479	1.473786	-0.406623	0.951807	0.302585	-0.049185	0.009276
02590	0.255903	6.265867	6.784769	-0.651716	1.180389	-0.672634	0.950431	0.305613	-0.057126	0.004363
02591	0.538527	5.968448	6.889411	-0.470973	0.810964	-0.729979	0.948870	0.308747	-0.065735	-0.000867
02592	0.889514	5.946537	6.918470	-0.238669	0.698931	-0.676454	0.947160	0.311839	-0.074853	-0.006382
02593	1.473373	5.961349	6.886793	0.219935	0.625583	-0.609705	0.945258	0.314973	-0.084461	-0.012097
02594	2.523121	5.972259	6.245587	1.239193	0.856599	-0.937426	0.943295	0.317938	-0.093744	-0.017916
02595	3.209967	5.900034	5.709649	1.912302	0.963038	-1.261168	0.941248	0.321089	-0.101951	-0.023653
02596	3.306442	5.952273	5.788625	1.905531	0.848314	-1.122566	0.939172	0.324348	-0.109090	-0.029234
02597	3.318939	6.168766	5.690528	1.862519	0.976696	-1.036186	0.937063	0.327632	-0.115590	-0.034766
02598	3.291262	6.435129	5.732129	1.758996	1.065119	-0.819864	0.934936	0.330860	-0.121649	-0.040340
02599	3.508715	6.695947	6.029299	1.831407	0.951597	-0.366082	0.932729	0.334077	-0.127633	-0.046035
02600	3.393460	7.122433	6.686597	1.474708	0.792420	0.392749	0.930345	0.337274	-0.134164	-0.051997
02601	3.229267	7.478015	6.955228	1.149838	0.822859	0.804418	0.927716	0.340286	-0.141982	-0.058223
02602	3.652077	7.663354	6.990593	1.419625	0.750702	1.066256	0.924812	0.342894	-0.151542	-0.064660
02603	4.734273	7.896383	6.492157	2.458456	0.881310	1.145883	0.921803	0.345055	-0.161733	-0.071123
02604	5.380179	7.981079	6.020965	3.081174	0.957586	1.072266	0.918822	0.347036	-0.171263	-0.077467
02605	5.640534	8.087993	5.428187	3.413458	1.207213	0.844928	0.915908	0.349052	-0.179761	-0.083429
02606	5.563230	7.899070	4.743990	3.495000	1.385371	0.272647	0.913140	0.351081	-0.187148	-0.088838
02607	5.331225	7.880587	4.156106	3.437298	1.684650	-0.161559	0.910513	0.353329	-0.193266	-0.093665
02608	5.452095	8.038095	4.318456	3.423049	1.559412	0.128895	0.908078	0.355688	-0.198258	-0.097843
02609	5.727477	8.330462	4.656085	3.483193	1.378281	0.668070	0.905827	0.358022	-0.202467	-0.101514
02610	5.538166	8.571669	5.159045	3.052651	1.213744	1.140293	0.903803	0.360266	-0.205892	-0.104678
02611	5.223710	8.954952	5.838370	2.434123	1.092780	1.782349	0.901805	0.362431	-0.209355	-0.107522
02612	4.686234	9.268364	5.971823	1.846879	1.342581	1.947914	0.899845	0.364152	-0.213377	-0.110191
02613	4.101026	9.561589	5.884404	1.307568	1.744149	1.939588	0.897773	0.365638	-0.218166	-0.112764
02614	3.992299	9.826524	5.599230	1.277513	2.090132	1.928223	0.895768	0.366581	-0.223321	-0.115528
02615	4.170766	9.742184	4.544352	1.865679	2.556306	1.275169	0.893864	0.367266	-0.228256	-0.118418
02616	4.607201	9.885962	4.820911	2.055105	2.274176	1.711366	0.892004	0.368475	-0.232280	-0.120837
02617	5.312001	10.147423	4.755309	2.654992	2.169116	2.105616	0.890387	0.369606	-0.235553	-0.122954
02618	5.469706	9.948507	4.318195	2.960011	2.179453	1.764241	0.889093	0.370789	-0.237802	-0.124415
02619	4.872341	9.874412	4.337727	2.405862	2.304267	1.543437	0.888035	0.372296	-0.238928	-0.125314
02620	3.980409	9.821095	4.581478	1.496260	2.430903	1.373878	0.887125	0.373944	-0.239471	-0.125814
02621	3.241918	9.818002	4.613767	0.832531	2.661042	1.160717	0.886193	0.375716	-0.239957	-0.126177
02622	3.062839	9.747516	4.585703	0.672324	2.659032	1.045538	0.885160	0.377447	-0.240825	-0.126605
02623	3.197937	9.664219	4.251946	0.932405	2.709241	0.840641	0.883989	0.379071	-0.242262	-0.127192
02624	3.458463	9.769807	4.821044	0.834869	2.285788	1.355594	0.882830	0.380793	-0.243485	-0.127759
02625	3.717950	9.958654	5.352843	0.759921	1.939755	1.905271	0.881836	0.382329	-0.244446	-0.128204
02626	4.269104	9.906877	6.380310	0.656377	1.011631	2.662303	0.880876	0.383538	-0.245870	-0.128467
02627	4.845752	9.585456	6.105944	1.243951	0.701812	2.459426	0.880241	0.383995	-0.247273	-0.128760
02628	4.874200	9.479679	6.709408	0.929271	0.232450	2.746003	0.880047	0.384718	-0.246932	-0.128582
02629	4.520531	8.821827	6.939590	0.494165	-0.217735	2.275576	0.880242	0.385316	-0.245705	-0.127808
02630	4.114446	8.573672	6.830938	0.213461	-0.154488	1.893242	0.880543	0.385588	-0.244691	-0.126856
02631	3.803319	8.358870	6.639380	0.050733	-0.051303	1.519219	0.880778	0.385717	-0.244128	-0.125910
02632	3.430239	8.369519	6.463609	-0.173987	0.221033	1.301020	0.880960	0.385678	-0.243927	-0.125150
02633	2.908072	8.395293	6.318404	-0.545874	0.544694	1.062302	0.881038	0.385653	-0.243971	-0.124591
02634	2.546758	8.368741	6.124915	-0.761082	0.796752	0.809097	0.881004	0.385545	-0.244351	-0.124419
02635	2.573112	8.223083	5.834136	-0.599491	0.871182	0.539065	0.880867	0.385436	-0.244914	-0.124618
02636	2.683193	8.063746	5.750142	-0.477088	0.772979	0.408004	0.880592	0.385279	-0.245852	-0.125196
02637	2.835214	8.099991	5.550234	-0.255832	0.860125	0.368084	0.880194	0.385053	-0.247207	-0.126023
02638	2.999817	8.128521	5.176857	0.064379	1.041823	0.226339	0.879696	0.384869	-0.248732	-0.127054
02639	3.112139	7.972155	5.084715	0.187277	0.943549	0.095370	0.879178	0.384790	-0.250110	-0.128168
02640	3.384486	7.861280	4.984721	0.454523	0.810603	0.048257	0.878710	0.384871	-0.251102	-0.129194
02641	3.633753	7.782194	4.922971	0.689016	0.681099	0.039404	0.878332	0.385148	-0.251562	-0.130042
02642	3.552261	7.840725	4.933846	0.616649	0.735533	0.062387	0.878060	0.385516	-0.251585	-0.130743
02643	3.114691	7.691610	5.251401	0.078256	0.613003	-0.011796	0.877870	0.385855	-0.251335	-0.131494
02644	2.913527	7.634651	5.307000	-0.114946	0.614063	-0.088981	0.877649	0.386171	-0.251173	-0.132350
02645	2.998742	7.687966	5.196537	0.025660	0.671008	-0.083846	0.877416	0.386325	-0.251229	-0.133336
02646	2.837132	7.539993	5.268967	-0.150064	0.587500	-0.205652	0.877141	0.386487	-0.251374	-0.134395
02647	3.167138	7.557905	5.223843	0.157733	0.477717	-0.107630	0.876902	0.386512	-0.251552	-0.135547
02648	3.677208	7.263173	4.866935	0.771910	0.272552	-0.363219	0.876703	0.386633	-0.251549	-0.136490
02649	3.557297	7.192922	4.853594	0.682248	0.276638	-0.463470	0.876538	0.386794	-0.251424	-0.137319
02650	3.285007	7.221804	4.878517	0.449315	0.389421	-0.517952	0.876398	0.386967	-0.251216	-0.138109
02651	3.359428	7.420752	4.994477	0.468540	0.409158	-0.277953	0.876285	0.387181	-0.250839	-0.138909
02652	3.525622	7.780571	5.662485	0.274889	0.158035	0.430870	0.876220	0.387365	-0.250404	-0.139587
02653	2.957533	7.705770	5.277067	0.016880	0.583212	-0.033481	0.876166	0.387493	-0.249974	-0.140344
02654	2.877818	8.186776	5.538052	-0.156059	0.768903	0.451794	0.875979	0.387579	-0.249965	-0.141284
02655	3.058707	8.424946	5.374478	0.103681	0.940017	0.595292	0.875728	0.387489	-0.250308	-0.142473
02656	3.197651	8.430485	5.098239	0.375050	1.043823	0.485849	0.875438	0.387443	-0.250679	-0.143725
02657	2.949348	8.611113	5.126104	0.168099	1.247666	0.557555	0.875123	0.387450	-0.251028	-0.145006
02658	3.198186	8.754066	4.953198	0.484424	1.327089	0.646777	0.874813	0.387406	-0.251411	-0.146328
02659	4.039794	9.053834	4.972165	1.202519	1.126530	1.155409	0.874608	0.387371	-0.251475	-0.147533
02660	3.696799	9.219612	4.484432	1.209367	1.674969	0.888227	0.874566	0.387446	-0.250993	-0.148399
02661	3.127962	9.340481	4.294506	0.868122	2.116866	0.686679	0.874612	0.387545	-0.250212	-0.149186
02662	3.317833	9.638421	4.380685	1.023079	2.165889	1.020583	0.874754	0.387638	-0.249172	-0.149852
02663	3.492872	9.798223	4.548359	1.118400	2.083732	1.291368	0.875064	0.387654	-0.247742	-0.150369
02664	3.451719	9.829302	4.541211	1.125033	2.123948	1.294750	0.875526	0.387554	-0.246048	-0.150719
02665	3.175216	9.775893	4.605007	0.894162	2.176067	1.201905	0.876112	0.387366	-0.244122	-0.150930
02666	2.976519	9.775473	4.349732	0.904811	2.423056	0.987760	0.876750	0.387133	-0.242132	-0.151030
02667	2.952334	9.943109	4.657872	0.771589	2.362182	1.282450	0.877427	0.386807	-0.240179	-0.151049
02668	3.227569	10.054234	5.014701	0.860128	2.103258	1.654151	0.878124	0.386335	-0.238390	-0.151041
02669	3.571915	10.032940	5.526956	0.916398	1.638717	2.038066	0.878913	0.385590	-0.236705	-0.151006
02670	3.767341	9.747984	5.689804	1.010626	1.285971	1.973519	0.879772	0.384621	-0.235133	-0.150931
02671	3.590720	9.343413	5.871547	0.770549	1.013779	1.721869	0.880731	0.383436	-0.233549	-0.150816
02672	3.236827	8.894952	5.948919	0.427778	0.856696	1.325972	0.881724	0.382045	-0.232159	-0.150688
02673	3.160877	8.546093	5.745545	0.471210	0.817003	0.918035	0.882760	0.380376	-0.231038	-0.150569
02674	3.115531	8.479326	5.819685	0.415937	0.786222	0.896322	0.883781	0.378563	-0.230180	-0.150459
02675	3.298376	8.525456	5.811698	0.607423	0.785222	0.974005	0.884895	0.376549	-0.229278	-0.150345
02676	3.830220	8.716532	5.943236	1.041271	0.649614	1.343657	0.886100	0.374506	-0.228125	-0.150105
02677	4.418490	8.872794	5.959629	1.590017	0.541519	1.630427	0.887504	0.372367	-0.226393	-0.149754
02678	4.717719	8.866146	5.807358	1.973985	0.552559	1.606083	0.889091	0.370296	-0.223981	-0.149103
02679	4.618313	9.084782	5.714294	2.018957	0.856753	1.663564	0.890828	0.368232	-0.221066	-0.148191
02680	4.358361	9.346538	5.670020	1.905747	1.231818	1.735139	0.892574	0.366146	-0.218234	-0.147044
02681	4.598037	9.737939	5.409590	2.337729	1.621855	1.897864	0.894357	0.363760	-0.215788	-0.145739
02682	5.420903	10.027375	5.273066	3.197538	1.639718	2.221674	0.896236	0.361197	-0.213389	-0.144095
02683	5.886481	10.140105	4.905141	3.843891	1.836509	2.161592	0.898366	0.358439	-0.210499	-0.141951
02684	5.341387	10.008851	4.626989	3.538325	2.227328	1.704021	0.900663	0.355621	-0.207222	-0.139281
02685	4.806800	9.790367	4.672180	3.075837	2.362387	1.400831	0.903088	0.352597	-0.203806	-0.136270
02686	4.591724	9.492475	4.817580	2.832950	2.254868	1.200433	0.905525	0.349419	-0.200614	-0.132983
02687	4.249215	9.193703	4.685670	2.595919	2.355384	0.782014	0.907970	0.346014	-0.197724	-0.129501
02688	4.388804	9.074547	4.748207	2.705149	2.293031	0.750334	0.910317	0.342392	-0.195550	-0.125900
02689	5.200313	9.044217	4.444018	3.577218	2.275562	0.704645	0.912676	0.338426	-0.193756	-0.122268
02690	5.060579	8.934700	4.758303	3.319824	2.190845	0.782464	0.915052	0.334518	-0.191689	-0.118463
02691	4.030002	8.794177	5.315891	2.159433	2.247169	0.776122	0.917465	0.330449	-0.189553	-0.114596
02692	3.698887	8.448435	5.513967	1.759450	2.106408	0.576138	0.919807	0.326069	-0.188034	-0.110801
02693	3.697550	7.764255	5.257305	1.815433	1.851170	-0.072520	0.922131	0.321320	-0.186930	-0.107172
02694	3.249325	7.053089	5.249191	1.357606	1.563209	-0.671001	0.924293	0.316697	-0.186105	-0.103680
02695	2.955815	6.761252	5.431124	0.995763	1.433517	-0.818186	0.926369	0.312053	-0.185465	-0.100330
02696	3.403572	6.545262	5.434758	1.386041	1.230993	-0.839172	0.928312	0.307542	-0.185001	-0.097100
02697	3.602980	6.444465	5.776485	1.426779	1.013509	-0.603096	0.930223	0.303098	-0.184350	-0.093978
02698	2.842205	6.135554	5.739534	0.727320	1.098367	-1.041754	0.932034	0.298900	-0.183573	-0.090954
02699	2.190542	5.652226	5.410196	0.233073	1.147330	-1.772468	0.933766	0.294750	-0.182872	-0.088099
02700	2.510873	5.381201	5.309089	0.552357	0.969381	-1.925802	0.935321	0.290867	-0.182409	-0.085431
02701	2.771134	5.230897	5.489724	0.717006	0.758440	-1.807141	0.936811	0.287205	-0.181751	-0.082854
02702	2.434041	5.162806	5.828017	0.277198	0.684514	-1.688702	0.938193	0.283875	-0.180982	-0.080343
02703	2.276186	4.943760	6.129036	0.013609	0.455496	-1.628625	0.939527	0.280603	-0.180196	-0.077976
02704	2.614571	4.631777	6.055380	0.347278	0.209734	-1.763335	0.940750	0.277597	-0.179422	-0.075744
02705	3.119697	4.391403	6.135172	0.788172	-0.093710	-1.686989	0.941999	0.274802	-0.178111	-0.073479
02706	3.071025	4.207775	6.436448	0.645194	-0.331503	-1.564175	0.943234	0.272395	-0.176210	-0.071141
02707	2.517963	4.015822	6.996093	-0.048665	-0.592868	-1.383089	0.944489	0.270215	-0.173782	-0.068730
02708	1.905585	3.817933	7.273865	-0.691118	-0.719362	-1.438823	0.945659	0.268206	-0.171445	-0.066346
02709	1.721189	3.575613	7.053375	-0.758641	-0.741230	-1.789444	0.946772	0.266218	-0.169253	-0.064064
02710	1.758965	3.409741	7.222011	-0.757121	-0.938841	-1.724245	0.947757	0.264461	-0.167285	-0.061911
02711	1.597318	3.316993	7.478098	-0.968741	-1.077100	-1.604335	0.948707	0.262775	-0.165301	-0.059841
02712	1.513207	3.256038	7.968556	-1.187139	-1.318968	-1.254630	0.949568	0.261178	-0.163584	-0.057856
02713	1.747700	3.205427	8.134541	-0.994476	-1.456024	-1.072503	0.950415	0.259481	-0.161993	-0.056031
02714	1.762745	3.169225	8.280753	-1.002958	-1.528675	-0.959484	0.951216	0.257857	-0.160476	-0.054271
02715	1.619808	3.052850	8.489716	-1.181197	-1.670343	-0.877726	0.952002	0.256226	-0.158990	-0.052555
02716	1.397182	3.021860	8.629242	-1.413205	-1.694272	-0.830497	0.952705	0.254710	-0.157740	-0.050930
02717	1.055043	2.931104	8.498799	-1.674565	-1.624310	-1.066750	0.953361	0.253222	-0.156628	-0.049485
02718	1.228945	2.976335	8.618934	-1.529460	-1.647147	-0.890666	0.953917	0.251954	-0.155687	-0.048199
02719	1.564931	3.183353	8.934785	-1.289229	-1.647159	-0.429841	0.954453	0.250750	-0.154698	-0.047045
02720	1.550579	3.393772	9.462066	-1.447352	-1.684013	0.113131	0.954946	0.249652	-0.153731	-0.046026
02721	1.273525	3.398436	9.506125	-1.704834	-1.631996	0.085175	0.955435	0.248481	-0.152837	-0.045178
02722	1.274058	3.385626	9.539683	-1.700414	-1.636551	0.113110	0.955842	0.247393	-0.152254	-0.044504
02723	1.437543	3.374694	9.404057	-1.492828	-1.586431	0.043581	0.956217	0.246245	-0.151911	-0.043996
02724	1.407651	3.336203	9.471403	-1.535906	-1.624563	0.077760	0.956546	0.245227	-0.151608	-0.043579
02725	1.207594	3.323068	9.664784	-1.778037	-1.671439	0.185009	0.956885	0.244168	-0.151276	-0.043234
02726	1.346841	3.331414	9.610140	-1.622695	-1.639187	0.184661	0.957210	0.243090	-0.151039	-0.042941
02727	1.519298	3.401103	9.691007	-1.474924	-1.617017	0.336263	0.957579	0.241904	-0.150681	-0.042663
02728	1.317426	3.416091	9.615794	-1.634807	-1.515077	0.232245	0.957970	0.240727	-0.150163	-0.042378
02729	1.144807	3.451049	9.295160	-1.688023	-1.290030	-0.060424	0.958396	0.239525	-0.149449	-0.042065
02730	1.145867	3.545729	9.317864	-1.677399	-1.193088	0.009257	0.958846	0.238294	-0.148619	-0.041735
02731	1.229714	3.629268	9.332022	-1.580141	-1.112808	0.088581	0.959349	0.237015	-0.147501	-0.041433
02732	0.818291	3.504011	9.324003	-1.948648	-1.134649	-0.076161	0.959862	0.235717	-0.146328	-0.041114
02733	0.365137	3.382497	9.265444	-2.344510	-1.125003	-0.291100	0.960332	0.234374	-0.145482	-0.040820
02734	0.601649	3.565044	9.119833	-2.063970	-0.907122	-0.264915	0.960701	0.232970	-0.145368	-0.040570
02735	0.823597	3.695299	9.513472	-1.965632	-0.964284	0.189615	0.961048	0.231410	-0.145620	-0.040392
02736	0.457922	3.614861	9.256625	-2.244187	-0.839936	-0.157634	0.961404	0.229794	-0.145856	-0.040292
02737	0.273514	3.415146	8.908239	-2.321306	-0.810140	-0.590437	0.961771	0.228228	-0.145942	-0.040120
02738	0.605801	3.438173	9.139593	-2.073479	-0.904799	-0.294172	0.962118	0.226640	-0.146177	-0.039954
02739	0.902164	3.542828	9.144058	-1.790981	-0.822247	-0.164085	0.962511	0.224991	-0.146185	-0.039770
02740	0.878354	3.463877	8.831491	-1.718802	-0.726592	-0.470157	0.962931	0.223425	-0.145886	-0.039535
02741	0.875064	3.330767	8.810691	-1.707528	-0.807460	-0.543367	0.963380	0.221923	-0.145284	-0.039255
02742	0.878198	3.138420	8.593420	-1.630413	-0.864226	-0.809212	0.963811	0.220580	-0.144561	-0.038924
02743	0.991040	3.062573	8.446347	-1.466588	-0.864239	-0.935501	0.964202	0.219416	-0.143822	-0.038555
02744	1.165359	3.174520	8.371864	-1.264846	-0.737155	-0.903115	0.964535	0.218434	-0.143210	-0.038082
02745	1.592223	3.356571	8.343534	-0.835186	-0.601293	-0.737602	0.964837	0.217585	-0.142617	-0.037498
02746	1.882495	3.368697	8.526936	-0.599579	-0.688680	-0.497821	0.965113	0.216885	-0.142010	-0.036745
02747	1.858336	3.030963	8.238425	-0.530217	-0.859179	-0.896834	0.965434	0.216238	-0.141029	-0.035904
02748	1.517383	2.941710	8.206748	-0.828179	-0.874311	-1.045905	0.965758	0.215957	-0.139483	-0.034909
02749	1.243495	3.217712	8.738312	-1.211721	-0.801400	-0.531121	0.966076	0.215673	-0.137973	-0.033852
02750	1.250623	3.409060	8.795874	-1.196391	-0.647018	-0.394455	0.966364	0.215328	-0.136741	-0.032819
02751	1.609613	3.411168	8.803332	-0.834206	-0.682996	-0.296220	0.966644	0.214860	-0.135741	-0.031765
02752	1.833199	3.531351	8.634854	-0.557369	-0.521847	-0.335940	0.966913	0.214400	-0.134810	-0.030625
02753	1.908436	3.653005	8.547623	-0.447063	-0.373466	-0.341200	0.967188	0.213893	-0.133913	-0.029392
02754	1.904034	3.787241	8.639060	-0.463346	-0.276428	-0.204838	0.967453	0.213388	-0.133089	-0.028060
02755	1.905576	3.887707	8.705558	-0.469546	-0.199261	-0.103309	0.967713	0.212817	-0.132409	-0.026624
02756	1.837437	3.903603	8.769794	-0.543674	-0.189406	-0.056044	0.967989	0.212187	-0.131689	-0.025123
02757	1.925092	3.884146	8.625137	-0.411704	-0.141942	-0.169251	0.968286	0.211506	-0.130897	-0.023518
02758	2.163286	3.860039	8.403099	-0.113122	-0.081647	-0.316779	0.968597	0.210865	-0.129930	-0.021795
02759	2.053618	3.922549	8.299554	-0.178209	0.044296	-0.407765	0.968963	0.210184	-0.128593	-0.019929
02760	1.883075	3.841911	8.549456	-0.384457	-0.098162	-0.260623	0.969342	0.209587	-0.126984	-0.017986
02761	2.057443	3.956007	8.554269	-0.193951	0.005315	-0.167956	0.969749	0.208929	-0.125219	-0.015967
02762	2.165940	4.062793	8.527412	-0.055674	0.122589	-0.122688	0.970195	0.208255	-0.123122	-0.013899
02763	2.054450	4.029741	8.588684	-0.143502	0.095717	-0.107267	0.970680	0.207507	-0.120761	-0.011729
02764	2.143339	3.986420	8.585929	-0.018820	0.071235	-0.107120	0.971160	0.206734	-0.118401	-0.009543
02765	1.928596	3.921669	8.299203	-0.124670	0.161601	-0.435377	0.971639	0.205885	-0.116080	-0.007352
02766	1.082441	3.669560	8.072572	-0.857268	0.089420	-0.921076	0.972071	0.205140	-0.113878	-0.005319
02767	1.147091	3.541652	8.174303	-0.783295	-0.056772	-0.864978	0.972452	0.204358	-0.112082	-0.003516
02768	1.913759	3.531228	8.008872	0.023477	-0.023077	-0.853171	0.972783	0.203592	-0.110639	-0.001828
02769	1.387004	3.659834	8.584492	-0.593158	-0.091315	-0.397200	0.973140	0.202890	-0.108787	-0.000314
02770	0.090556	3.767612	8.983698	-1.919783	-0.080613	-0.261887	0.973478	0.202130	-0.107163	0.000874
02771	-0.451647	3.985130	9.299548	-2.508256	0.031506	-0.000732	0.973726	0.201152	-0.106738	0.001789
02772	0.190360	3.933935	8.688201	-1.759738	0.220549	-0.439773	0.973907	0.199856	-0.107509	0.002311
02773	1.214922	3.489280	8.049413	-0.622239	0.047035	-0.977830	0.974086	0.198510	-0.108374	0.002478
02774	1.115978	3.231217	7.908076	-0.686775	-0.110423	-1.225490	0.974297	0.197359	-0.108576	0.002457
02775	0.233499	2.989459	7.788910	-1.511686	-0.236855	-1.607983	0.974540	0.196346	-0.108239	0.002209
02776	-0.586142	2.791194	7.690742	-2.276773	-0.336985	-1.939660	0.974735	0.195576	-0.107880	0.001620
02777	-0.377108	2.942936	7.450091	-2.026033	-0.100471	-2.054336	0.974825	0.195060	-0.108015	0.000706
02778	0.803373	2.968585	7.128884	-0.807785	0.006597	-2.090879	0.974836	0.194799	-0.108389	-0.000380
02779	2.342084	3.017954	6.832611	0.756918	0.101758	-2.022008	0.974842	0.194837	-0.108257	-0.001338
02780	2.451003	2.788808	7.043965	0.841889	-0.200692	-1.897309	0.974897	0.195230	-0.107038	-0.002097
02781	1.563618	2.475526	7.102888	0.000423	-0.483573	-2.145210	0.974968	0.195984	-0.104977	-0.002735
02782	0.909850	2.347951	7.160836	-0.612420	-0.609275	-2.271344	0.974986	0.197105	-0.102670	-0.003428
02783	1.115812	2.517885	7.073195	-0.362777	-0.448052	-2.244177	0.974940	0.198525	-0.100313	-0.004208
02784	1.561892	2.431416	7.053936	0.120828	-0.565253	-2.211702	0.974871	0.200193	-0.097597	-0.005012
02785	1.801005	2.222551	6.900832	0.436733	-0.737787	-2.391806	0.974772	0.202244	-0.094255	-0.005737
02786	1.484045	2.407714	7.069380	0.144320	-0.653433	-2.228006	0.974621	0.204685	-0.090422	-0.006434
02787	0.970246	2.557782	7.520260	-0.381468	-0.711652	-1.851189	0.974411	0.207386	-0.086374	-0.007287
02788	0.756844	2.833791	7.764128	-0.572147	-0.594745	-1.554164	0.974116	0.210339	-0.082388	-0.008276
02789	0.884453	3.159488	7.914714	-0.409207	-0.418052	-1.264911	0.973751	0.213425	-0.078553	-0.009409
02790	0.965451	3.294856	8.176957	-0.302865	-0.464632	-0.961558	0.973327	0.216643	-0.074743	-0.010712
02791	1.008981	3.435731	8.253811	-0.201560	-0.432144	-0.828282	0.972862	0.219944	-0.070818	-0.012172
02792	0.985533	3.437883	8.402288	-0.171099	-0.555081	-0.699479	0.972368	0.223261	-0.066817	-0.013772
02793	1.062007	3.455765	8.344988	-0.012462	-0.582531	-0.736969	0.971830	0.226638	-0.062807	-0.015407
02794	0.928927	3.550574	8.336435	-0.068581	-0.552144	-0.721195	0.971228	0.230121	-0.058885	-0.017093
02795	0.739263	3.909694	8.443814	-0.192526	-0.336888	-0.486448	0.970562	0.233730	-0.054997	-0.018834
02796	0.736023	4.314354	8.659472	-0.136821	-0.146942	-0.112146	0.969853	0.237387	-0.051034	-0.020713
02797	0.767351	4.751177	8.844749	-0.033713	0.076753	0.256270	0.969116	0.241041	-0.046914	-0.022652
02798	0.671444	5.086405	8.907438	-0.038297	0.271422	0.462937	0.968373	0.244594	-0.042693	-0.024610
02799	0.627862	5.146739	8.631661	0.037578	0.380787	0.249176	0.967626	0.248042	-0.038282	-0.026649
02800	0.649731	5.153678	8.422967	0.173725	0.411824	0.073054	0.966885	0.251363	-0.033523	-0.028747
02801	0.631429	5.040299	7.947587	0.288857	0.472087	-0.396755	0.966074	0.254908	-0.028077	-0.030564
02802	0.071875	5.431816	8.751610	-0.189821	0.382927	0.478867	0.965257	0.258305	-0.022366	-0.032506
02803	-0.101210	5.608955	8.280805	-0.208668	0.709849	0.161950	0.964457	0.261442	-0.016757	-0.034496
02804	-0.174140	5.636328	8.308639	-0.164948	0.655071	0.206002	0.963593	0.264624	-0.011241	-0.036566
02805	-0.315925	5.729229	8.355604	-0.187070	0.651007	0.300654	0.962687	0.267770	-0.005869	-0.038698
02806	-0.490961	5.758707	8.403741	-0.246698	0.593013	0.366338	0.961709	0.270994	-0.000615	-0.040968
02807	-0.595838	5.938604	8.627081	-0.226413	0.563732	0.660034	0.960668	0.274248	0.004540	-0.043406
02808	-0.619442	6.107865	8.704633	-0.119123	0.592433	0.821858	0.959596	0.277429	0.009640	-0.046007
02809	-0.588087	6.152037	8.733631	0.033836	0.537335	0.872734	0.958511	0.280477	0.014652	-0.048727
02810	-0.531603	6.246145	8.504151	0.215443	0.662632	0.729155	0.957400	0.283454	0.019662	-0.051508
02811	-0.655391	6.387938	8.513312	0.224828	0.715960	0.824374	0.956281	0.286299	0.024581	-0.054360
02812	-1.126308	6.396917	8.341010	-0.130203	0.791941	0.728471	0.955162	0.289002	0.029314	-0.057304
02813	-1.547496	6.278790	8.086837	-0.461563	0.811478	0.499546	0.954051	0.291571	0.033625	-0.060352
02814	-1.639325	6.371059	8.076053	-0.442089	0.844491	0.559912	0.952947	0.294041	0.037262	-0.063585
02815	-1.603328	6.373817	8.101031	-0.318965	0.776148	0.585294	0.951905	0.296279	0.040147	-0.066962
02816	-1.510445	6.385508	8.154673	-0.149852	0.697112	0.629816	0.950911	0.298356	0.042348	-0.070419
02817	-1.415882	6.460322	8.280611	0.021239	0.631205	0.766052	0.949986	0.300222	0.043817	-0.073979
02818	-1.265213	6.589710	8.342633	0.241774	0.642875	0.871533	0.949143	0.301862	0.044605	-0.077570
02819	-0.973017	6.660132	8.192554	0.570746	0.717005	0.750553	0.948406	0.303221	0.044823	-0.081088
02820	-0.741761	6.652777	8.028365	0.816434	0.747475	0.581489	0.947758	0.304333	0.044702	-0.084485
02821	-0.735713	6.551086	7.975256	0.821982	0.670311	0.479915	0.947170	0.305281	0.044459	-0.087724
02822	-0.809400	6.516864	7.791273	0.753277	0.738949	0.322156	0.946651	0.306059	0.044050	-0.090770
02823	-0.936782	6.265131	7.569252	0.583385	0.670624	0.017516	0.946210	0.306646	0.043492	-0.093614
02824	-0.794709	6.097571	7.512802	0.694605	0.535723	-0.143942	0.945780	0.307252	0.042852	-0.096234
02825	-0.509594	6.119245	7.537938	0.984689	0.480646	-0.152216	0.945384	0.307789	0.042334	-0.098606
02826	-0.350527	6.056684	7.658014	1.138149	0.320460	-0.114576	0.944994	0.308333	0.042199	-0.100676
02827	-0.403933	6.062525	7.723337	1.102128	0.279469	-0.051824	0.944586	0.308942	0.042476	-0.102511
02828	-0.606220	6.128545	7.765740	0.938494	0.322830	0.048764	0.944172	0.309576	0.043010	-0.104179
02829	-0.834258	6.160988	7.794851	0.745035	0.353308	0.123785	0.943778	0.310156	0.043646	-0.105739
02830	-0.887607	6.056394	7.718655	0.688791	0.309945	0.009473	0.943381	0.310760	0.044268	-0.107243
02831	-0.997360	5.894758	7.749595	0.565518	0.168609	-0.042794	0.942988	0.311362	0.044867	-0.108695
02832	-1.057794	5.847751	7.811008	0.515619	0.090313	-0.012029	0.942585	0.312000	0.045384	-0.110138
02833	-1.032635	5.920142	7.828611	0.574710	0.116756	0.039094	0.942187	0.312628	0.045851	-0.111561
02834	-1.113820	5.911862	7.834535	0.510525	0.106305	0.051322	0.941804	0.313210	0.046297	-0.112971
02835	-1.163478	5.704458	7.752501	0.426757	-0.010515	-0.126949	0.941428	0.313767	0.046780	-0.114350
02836	-1.164044	5.678024	7.728941	0.436136	-0.030988	-0.161767	0.941034	0.314384	0.047378	-0.115644
02837	-1.178000	5.710291	7.842040	0.451913	-0.086045	-0.051488	0.940648	0.314973	0.048122	-0.116862
02838	-1.158569	5.731163	7.856457	0.497093	-0.096893	-0.032305	0.940273	0.315534	0.048980	-0.118012
02839	-1.124638	5.687611	7.806077	0.540347	-0.120195	-0.104851	0.939914	0.316038	0.049944	-0.119109
02840	-1.112993	5.611154	7.743030	0.553685	-0.157088	-0.202952	0.939554	0.316572	0.050944	-0.120107
02841	-1.055389	5.616008	7.730940	0.632764	-0.170769	-0.221482	0.939204	0.317115	0.051918	-0.120993
02842	-0.893900	5.688801	7.706142	0.828869	-0.144663	-0.229466	0.938865	0.317643	0.052938	-0.121794
02843	-0.769891	5.773031	7.780441	0.995569	-0.162801	-0.146346	0.938536	0.318159	0.054058	-0.122486
02844	-0.833854	5.840768	7.874738	0.979093	-0.170842	-0.023229	0.938199	0.318717	0.055326	-0.123049
02845	-1.052562	5.868599	7.793369	0.799113	-0.072099	-0.033061	0.937886	0.319231	0.056618	-0.123515
02846	-1.231351	5.950436	7.640959	0.668269	0.104198	-0.073556	0.937582	0.319758	0.057804	-0.123912
02847	-1.345088	5.948137	7.468579	0.573683	0.217031	-0.190161	0.937304	0.320249	0.058803	-0.124273
02848	-1.286733	6.043120	7.367274	0.669862	0.328279	-0.226490	0.937043	0.320727	0.059668	-0.124597
02849	-1.180083	6.114888	7.382980	0.808520	0.341069	-0.193811	0.936792	0.321215	0.060468	-0.124837
02850	-1.257519	6.168849	7.416548	0.763919	0.363950	-0.121187	0.936549	0.321736	0.061186	-0.124973
02851	-1.353528	6.138737	7.434447	0.676017	0.337024	-0.106167	0.936353	0.322171	0.061808	-0.125014
02852	-1.380455	6.016867	7.577566	0.632325	0.150353	-0.060488	0.936180	0.322590	0.062383	-0.124945
02853	-1.429520	5.931453	7.664254	0.574669	0.031888	-0.033364	0.936041	0.322936	0.062974	-0.124792
02854	-1.522317	5.849025	7.681101	0.472702	-0.032307	-0.050344	0.935921	0.323272	0.063618	-0.124498
02855	-1.518633	5.811616	7.493558	0.467826	0.046848	-0.220323	0.935811	0.323601	0.064391	-0.124074
02856	-1.572942	5.881141	7.516730	0.446930	0.086574	-0.150600	0.935702	0.323945	0.065298	-0.123524
02857	-1.732675	5.932449	7.552932	0.322929	0.123429	-0.059567	0.935591	0.324286	0.066390	-0.122883
02858	-1.956914	5.868364	7.523623	0.103309	0.123880	-0.073792	0.935483	0.324637	0.067505	-0.122171
02859	-2.182674	5.843116	7.399603	-0.112401	0.213032	-0.137867	0.935387	0.324954	0.068573	-0.121469
02860	-2.280906	5.732768	7.292601	-0.230501	0.203919	-0.265203	0.935302	0.325254	0.069447	-0.120820
02861	-2.292435	5.752175	7.310698	-0.225042	0.200251	-0.236764	0.935200	0.325586	0.070226	-0.120261
02862	-2.219133	5.850693	7.451259	-0.110413	0.164411	-0.084523	0.935084	0.325940	0.070965	-0.119770
02863	-2.186506	5.828311	7.634631	-0.064587	0.017750	0.037851	0.934979	0.326250	0.071657	-0.119333
02864	-2.157114	5.753603	7.504566	-0.055442	0.028714	-0.113631	0.934872	0.326563	0.072339	-0.118904
02865	-2.147196	5.685426	7.578677	-0.049514	-0.079725	-0.098675	0.934766	0.326862	0.073127	-0.118434
02866	-2.202538	5.688953	7.572264	-0.090147	-0.073293	-0.089467	0.934633	0.327219	0.074079	-0.117906
02867	-2.239845	5.662652	7.479702	-0.124576	-0.038736	-0.168444	0.934506	0.327536	0.075169	-0.117336
02868	-2.278626	5.632593	7.458295	-0.155132	-0.052339	-0.194082	0.934365	0.327888	0.076376	-0.116701
02869	-2.339595	5.639104	7.378139	-0.199611	0.002261	-0.238230	0.934223	0.328218	0.077677	-0.116049
02870	-2.401626	5.677567	7.346325	-0.232449	0.049247	-0.225479	0.934040	0.328648	0.079028	-0.115386
02871	-2.527792	5.863961	7.427197	-0.277367	0.145767	-0.022856	0.933833	0.329117	0.080453	-0.114738
02872	-2.550264	5.887453	7.368864	-0.276345	0.189563	-0.047763	0.933624	0.329555	0.081883	-0.114168
02873	-2.574951	5.938594	7.431665	-0.259021	0.178593	0.037586	0.933410	0.329979	0.083355	-0.113633
02874	-2.659185	5.912208	7.334281	-0.333494	0.219629	-0.032215	0.933196	0.330396	0.084735	-0.113153
02875	-2.679127	5.766335	7.245492	-0.379281	0.156717	-0.181642	0.933013	0.330729	0.085962	-0.112766
02876	-2.654393	5.721816	7.163321	-0.358046	0.160440	-0.276222	0.932822	0.331111	0.086958	-0.112454
02877	-2.526323	5.841030	7.223458	-0.183767	0.182757	-0.189222	0.932644	0.331478	0.087788	-0.112208
02878	-2.622895	5.911346	7.240419	-0.244504	0.229253	-0.110373	0.932477	0.331840	0.088486	-0.111978
02879	-2.697242	5.948417	7.244623	-0.294935	0.256059	-0.066367	0.932312	0.332190	0.089163	-0.111781
02880	-2.628538	5.898403	7.309120	-0.225626	0.157288	-0.063435	0.932130	0.332558	0.089844	-0.111655
02881	-2.481015	5.997798	7.454035	-0.031251	0.108078	0.070580	0.931930	0.332956	0.090639	-0.111496
02882	-2.374883	6.100676	7.525447	0.118973	0.113155	0.160461	0.931713	0.333387	0.091550	-0.111279
02883	-2.329923	6.122392	7.507417	0.182058	0.123144	0.148496	0.931495	0.333795	0.092593	-0.111018
02884	-2.490556	6.095239	7.408115	0.028018	0.177813	0.097032	0.931294	0.334150	0.093716	-0.110696
02885	-2.672406	5.964273	7.339804	-0.171054	0.138558	0.012715	0.931119	0.334446	0.094773	-0.110370
02886	-2.809306	5.969299	7.255105	-0.295350	0.206444	-0.013125	0.930966	0.334733	0.095592	-0.110084
02887	-2.820164	5.921048	7.246832	-0.309564	0.169504	-0.045183	0.930857	0.334959	0.096092	-0.109881
02888	-2.746313	5.971522	7.320047	-0.212865	0.144494	0.021854	0.930792	0.335143	0.096246	-0.109742
02889	-2.664570	5.973658	7.321782	-0.133736	0.130804	0.003525	0.930774	0.335234	0.096214	-0.109634
02890	-2.691362	6.003177	7.476350	-0.136424	0.054717	0.145011	0.930759	0.335339	0.096129	-0.109523
02891	-2.611393	6.017851	7.575770	-0.047318	-0.010476	0.208483	0.930775	0.335368	0.096068	-0.109351
02892	-2.610780	6.018216	7.575692	-0.048042	-0.010900	0.208479	0.930798	0.335359	0.096143	-0.109112
02893	-2.632513	6.034775	7.563542	-0.064610	0.012723	0.214848	0.930838	0.335277	0.096363	-0.108834
02894	-2.658476	6.082231	7.600616	-0.069542	0.028668	0.278137	0.930880	0.335167	0.096681	-0.108530
02895	-2.639949	6.080760	7.566731	-0.052193	0.049129	0.246898	0.930956	0.334970	0.096953	-0.108243
02896	-2.743285	5.961293	7.499222	-0.187764	0.019578	0.150511	0.931044	0.334752	0.097165	-0.107971
02897	-2.703687	5.805404	7.497357	-0.189478	-0.097936	0.045178	0.931136	0.334523	0.097304	-0.107763
02898	-2.708442	5.849738	7.573274	-0.172462	-0.109322	0.130545	0.931214	0.334339	0.097403	-0.107570
02899	-2.717531	5.957852	7.747517	-0.131683	-0.134995	0.329769	0.931306	0.334126	0.097495	-0.107350
02900	-2.619843	6.034964	7.842050	-0.005326	-0.146826	0.422571	0.931393	0.333907	0.097707	-0.107079
02901	-2.632177	6.226974	7.995820	0.056841	-0.095098	0.657480	0.931475	0.333639	0.098209	-0.106745
02902	-2.599747	6.255648	7.976941	0.103711	-0.061795	0.651959	0.931546	0.333343	0.099001	-0.106321
02903	-2.740249	6.213519	7.993597	-0.024119	-0.081941	0.675737	0.931622	0.332965	0.100074	-0.105830
02904	-2.877828	6.090519	7.886564	-0.181585	-0.084122	0.557179	0.931707	0.332516	0.101286	-0.105343
02905	-3.005205	5.855719	7.607309	-0.380107	-0.060304	0.239362	0.931836	0.331954	0.102364	-0.104927
02906	-3.077205	5.612368	7.511093	-0.508949	-0.166695	0.041121	0.931980	0.331404	0.103213	-0.104556
02907	-2.965192	5.652119	7.524329	-0.376313	-0.150335	0.045817	0.932124	0.330853	0.103915	-0.104320
02908	-2.796182	5.787549	7.655195	-0.150740	-0.142580	0.180976	0.932277	0.330295	0.104487	-0.104154
02909	-2.742377	5.742836	7.650814	-0.101284	-0.169471	0.137024	0.932460	0.329650	0.105018	-0.104022
02910	-2.815633	5.780084	7.690792	-0.146055	-0.146683	0.209417	0.932622	0.329060	0.105567	-0.103881
02911	-2.794331	5.895301	7.549033	-0.103495	0.039596	0.164208	0.932787	0.328442	0.106172	-0.103739
02912	-2.592347	5.922540	7.474568	0.098822	0.093554	0.068981	0.932930	0.327856	0.106931	-0.103528
02913	-2.449723	5.921237	7.310032	0.227757	0.189316	-0.096154	0.933052	0.327267	0.107984	-0.103194
02914	-2.537036	5.736015	7.105049	0.086792	0.195080	-0.337746	0.933122	0.326756	0.109346	-0.102745
02915	-2.690511	5.635936	6.909388	-0.090395	0.264835	-0.503342	0.933139	0.326332	0.110949	-0.102225
02916	-2.720407	5.673523	6.981512	-0.073390	0.253471	-0.417939	0.933118	0.326008	0.112600	-0.101644
02917	-2.624555	5.696163	7.038386	0.057377	0.225614	-0.388294	0.933106	0.325672	0.114177	-0.101063
02918	-2.515905	5.728419	6.953324	0.180077	0.293216	-0.465237	0.933083	0.325384	0.115717	-0.100457
02919	-2.499506	5.787693	6.982427	0.238920	0.319524	-0.413752	0.933043	0.325137	0.117248	-0.099851
02920	-2.581175	5.834822	6.941211	0.190179	0.390180	-0.394642	0.932982	0.324932	0.118820	-0.099226
02921	-2.590194	5.737645	6.787912	0.154495	0.412156	-0.565437	0.932910	0.324746	0.120381	-0.098632
02922	-2.513569	5.780559	6.832700	0.269099	0.407654	-0.529367	0.932822	0.324594	0.121972	-0.098001
02923	-2.488143	5.780353	6.761413	0.304493	0.448654	-0.591733	0.932745	0.324408	0.123588	-0.097330
02924	-2.468713	5.721753	6.553163	0.294431	0.531400	-0.790059	0.932665	0.324223	0.125203	-0.096640
02925	-2.581191	5.674381	6.427545	0.174789	0.583345	-0.879401	0.932581	0.324074	0.126741	-0.095941
02926	-2.843711	5.606026	6.366840	-0.084371	0.590664	-0.885490	0.932498	0.324003	0.128015	-0.095299
02927	-2.985780	5.584686	6.394303	-0.206297	0.566827	-0.833442	0.932431	0.324020	0.128814	-0.094821
02928	-2.916385	5.652978	6.633720	-0.072108	0.459143	-0.633816	0.932372	0.324142	0.129132	-0.094545
02929	-2.803064	5.686787	6.900918	0.094269	0.304437	-0.446908	0.932352	0.324252	0.129063	-0.094466
02930	-2.755982	5.673541	6.880320	0.127636	0.300857	-0.484424	0.932347	0.324392	0.128700	-0.094529
02931	-2.762754	5.713992	6.821925	0.113012	0.368673	-0.502882	0.932380	0.324498	0.128056	-0.094715
02932	-2.735565	5.663616	6.858125	0.120666	0.304021	-0.512863	0.932415	0.324654	0.127213	-0.094966
02933	-2.701034	5.672120	7.031851	0.173713	0.197646	-0.386861	0.932452	0.324814	0.126372	-0.095185
02934	-2.730760	5.726616	7.032287	0.146828	0.240860	-0.345657	0.932470	0.324994	0.125641	-0.095352
02935	-2.850112	5.609399	7.058667	-0.002356	0.143311	-0.357915	0.932467	0.325173	0.125158	-0.095410
02936	-3.115784	5.409746	7.050306	-0.314486	0.015812	-0.400933	0.932409	0.325443	0.124928	-0.095356
02937	-3.209206	5.339449	7.152433	-0.406306	-0.099607	-0.336876	0.932303	0.325778	0.124911	-0.095273
02938	-3.127692	5.483945	7.347226	-0.256738	-0.126324	-0.129921	0.932171	0.326125	0.125097	-0.095136
02939	-3.084961	5.547102	7.483552	-0.172191	-0.175328	-0.002974	0.932035	0.326435	0.125431	-0.094964
02940	-3.258609	5.618185	7.487790	-0.312828	-0.115377	0.093793	0.931895	0.326746	0.125805	-0.094776
02941	-3.518711	5.618434	7.526488	-0.548589	-0.122484	0.201312	0.931807	0.326957	0.126017	-0.094631
02942	-3.777172	5.531966	7.585743	-0.805824	-0.207343	0.272987	0.931775	0.327107	0.125888	-0.094603
02943	-3.799928	5.558690	7.464890	-0.848174	-0.108467	0.203894	0.931831	0.327120	0.125346	-0.094719
02944	-3.657602	5.513257	7.408551	-0.746700	-0.118267	0.091307	0.931924	0.327117	0.124522	-0.094904
02945	-3.469722	5.455485	7.538297	-0.575629	-0.257722	0.098388	0.932044	0.327052	0.123568	-0.095191
02946	-3.392679	5.422553	7.536893	-0.526119	-0.284948	0.054486	0.932136	0.327017	0.122751	-0.095471
02947	-3.345689	5.503982	7.598777	-0.461569	-0.262388	0.134522	0.932186	0.327014	0.122122	-0.095801
02948	-3.365630	5.517636	7.659738	-0.474331	-0.287052	0.194109	0.932172	0.327094	0.121723	-0.096169
02949	-3.389389	5.632686	7.725534	-0.459890	-0.237705	0.318007	0.932122	0.327200	0.121456	-0.096624
02950	-3.451469	5.717332	7.736463	-0.496974	-0.174498	0.393974	0.932034	0.327373	0.121199	-0.097210
02951	-3.552107	5.787175	7.718171	-0.579714	-0.100440	0.450493	0.931932	0.327590	0.120797	-0.097954
02952	-3.502042	5.812474	7.881559	-0.503074	-0.190348	0.573785	0.931839	0.327801	0.120162	-0.098918
02953	-3.361060	5.857548	8.008145	-0.344756	-0.249329	0.654258	0.931780	0.327955	0.119292	-0.100000
02954	-3.068482	5.854533	8.110640	-0.062423	-0.345347	0.644389	0.931742	0.328080	0.118293	-0.101127
02955	-2.926301	5.960977	8.061374	0.079884	-0.244265	0.628394	0.931749	0.328093	0.117224	-0.102258
02956	-2.738874	5.847776	7.979697	0.201995	-0.293942	0.446273	0.931802	0.327961	0.116236	-0.103323
02957	-2.670554	5.634956	7.809812	0.173555	-0.348577	0.173609	0.931875	0.327716	0.115515	-0.104243
02958	-2.704143	5.543566	7.554170	0.072650	-0.244582	-0.063642	0.931925	0.327475	0.115066	-0.105050
02959	-2.724941	5.551146	7.341341	0.020740	-0.094026	-0.214430	0.931971	0.327226	0.114729	-0.105789
02960	-2.572647	5.569238	7.275608	0.159793	-0.049996	-0.297365	0.932015	0.326979	0.114447	-0.106467
02961	-2.458954	5.592015	7.410629	0.294308	-0.125840	-0.214142	0.932043	0.326768	0.114266	-0.107063
02962	-2.595076	5.713949	7.530821	0.216733	-0.087425	-0.012571	0.932059	0.326598	0.114071	-0.107640
02963	-2.716513	5.743201	7.502848	0.104373	-0.026520	0.018127	0.932124	0.326345	0.113734	-0.108207
02964	-2.723448	5.694163	7.396302	0.064609	0.011654	-0.089435	0.932217	0.326070	0.113173	-0.108821
02965	-2.661452	5.734087	7.242058	0.104067	0.141197	-0.201251	0.932364	0.325718	0.112332	-0.109481
02966	-2.571631	5.725893	7.052076	0.148001	0.254231	-0.376356	0.932551	0.325322	0.111284	-0.110141
02967	-2.542149	5.613898	6.887198	0.106978	0.280124	-0.575701	0.932737	0.324968	0.110077	-0.110817
02968	-2.587166	5.626785	6.881163	0.050546	0.310308	-0.560354	0.932917	0.324646	0.108804	-0.111506
02969	-2.573006	5.654311	6.940242	0.061621	0.302838	-0.503390	0.933100	0.324349	0.107409	-0.112183
02970	-2.617096	5.734263	6.963303	0.024508	0.366118	-0.427387	0.933301	0.324044	0.105873	-0.112852
02971	-2.566085	5.602831	6.882722	0.003391	0.320410	-0.579830	0.933509	0.323742	0.104239	-0.113521
02972	-2.495820	5.591600	6.798396	0.033168	0.364948	-0.670535	0.933682	0.323532	0.102579	-0.114201
02973	-2.479438	5.652514	6.906676	0.055794	0.350057	-0.556609	0.933832	0.323377	0.100962	-0.114853
02974	-2.539998	5.616284	6.931827	-0.032222	0.322827	-0.542350	0.933956	0.323285	0.099364	-0.115494
02975	-2.661424	5.511653	6.961399	-0.197439	0.249006	-0.548696	0.934056	0.323263	0.097712	-0.116159
02976	-2.783501	5.473884	7.020025	-0.343362	0.208017	-0.494382	0.934157	0.323264	0.095908	-0.116847
02977	-2.860100	5.316552	7.121946	-0.478454	0.042616	-0.488676	0.934264	0.323292	0.093884	-0.117554
02978	-2.956772	5.309235	7.270645	-0.591011	-0.033187	-0.355297	0.934391	0.323301	0.091565	-0.118346
02979	-2.999098	5.140356	7.317618	-0.713837	-0.174298	-0.409215	0.934561	0.323249	0.088858	-0.119211
02980	-3.057534	5.035130	7.431516	-0.835391	-0.303157	-0.371371	0.934767	0.323146	0.085714	-0.120166
02981	-3.104542	4.939016	7.406616	-0.964521	-0.335818	-0.440035	0.935036	0.322930	0.082048	-0.121214
02982	-3.124858	4.863132	7.615467	-1.052702	-0.499475	-0.323113	0.935336	0.322662	0.077866	-0.122361
02983	-2.866748	4.888242	7.630646	-0.869898	-0.509893	-0.361621	0.935699	0.322208	0.073287	-0.123605
02984	-2.644634	4.752633	7.467173	-0.780748	-0.524538	-0.622746	0.936072	0.321681	0.068553	-0.124864
02985	-2.526424	4.836891	7.544692	-0.716328	-0.502001	-0.542573	0.936437	0.321101	0.063784	-0.126143
02986	-2.388464	4.891953	7.534837	-0.645283	-0.451673	-0.550464	0.936797	0.320462	0.059076	-0.127378
02987	-2.294886	4.965417	7.478403	-0.612209	-0.350063	-0.574153	0.937156	0.319775	0.054394	-0.128546
02988	-2.194471	4.979022	7.561076	-0.585024	-0.381404	-0.523556	0.937507	0.319065	0.049701	-0.129646
02989	-2.173518	4.940716	7.644807	-0.651221	-0.435721	-0.487270	0.937865	0.318304	0.044898	-0.130676
02990	-2.303925	4.709739	7.548362	-0.920288	-0.493719	-0.681633	0.938216	0.317527	0.039863	-0.131673
02991	-2.419095	4.536993	7.627170	-1.162702	-0.614361	-0.708842	0.938558	0.316728	0.034513	-0.132671
02992	-2.468102	4.368892	7.669218	-1.347016	-0.721402	-0.776101	0.938866	0.315955	0.028692	-0.133717
02993	-2.380358	4.385883	7.761636	-1.359821	-0.745713	-0.716598	0.939143	0.315137	0.022377	-0.134899
02994	-2.231348	4.324584	7.759362	-1.339496	-0.785765	-0.786292	0.939386	0.314271	0.015640	-0.136176
02995	-1.995591	4.213216	7.741639	-1.253098	-0.876094	-0.906087	0.939572	0.313401	0.008645	-0.137514
02996	-1.628181	4.106396	7.905357	-1.051677	-1.107213	-0.886603	0.939663	0.312640	0.001764	-0.138878
02997	-1.202352	4.068209	8.041412	-0.773279	-1.291346	-0.846433	0.939667	0.312016	-0.004636	-0.140181
02998	-0.849644	4.091880	8.278185	-0.551420	-1.476829	-0.674426	0.939590	0.311578	-0.010220	-0.141372
02999	-0.611926	4.039050	8.398720	-0.438304	-1.629997	-0.626976	0.939482	0.311274	-0.014865	-0.142342
03000	-0.625371	3.923513	8.494807	-0.565378	-1.754859	-0.617730	0.939349	0.311141	-0.018563	-0.143074
03001	-0.845338	3.665942	8.473789	-0.900184	-1.866918	-0.775937	0.939233	0.311066	-0.021600	-0.143572
03002	-0.959292	3.392334	8.406025	-1.120794	-1.995673	-0.989402	0.939116	0.311069	-0.024192	-0.143916
03003	-0.868573	3.335949	8.332553	-1.082535	-2.014974	-1.090172	0.938991	0.311160	-0.026552	-0.144122
03004	-0.842400	3.319945	8.175023	-1.079825	-1.938904	-1.231477	0.938849	0.311317	-0.028708	-0.144293
03005	-0.896491	3.269900	8.056182	-1.164914	-1.889807	-1.358724	0.938695	0.311517	-0.030815	-0.144424
03006	-0.909998	3.270853	7.931379	-1.196309	-1.810602	-1.462610	0.938517	0.311774	-0.032985	-0.144554
03007	-0.957122	3.288965	7.839900	-1.262155	-1.728418	-1.529161	0.938292	0.312091	-0.035367	-0.144760
03008	-0.920285	3.387342	7.820409	-1.241025	-1.650911	-1.493192	0.938017	0.312462	-0.037948	-0.145089
03009	-0.803914	3.550584	7.847213	-1.139331	-1.574662	-1.383343	0.937673	0.312909	-0.040795	-0.145580
03010	-0.666859	3.681720	7.854041	-1.026944	-1.518164	-1.308214	0.937277	0.313381	-0.043875	-0.146213
03011	-0.596867	3.735961	7.749325	-0.983470	-1.436456	-1.366694	0.936838	0.313857	-0.047259	-0.146953
03012	-0.554153	3.721637	7.697414	-0.994994	-1.428765	-1.423637	0.936337	0.314369	-0.050884	-0.147839
03013	-0.476600	3.736752	7.761810	-0.991738	-1.476705	-1.370436	0.935767	0.314937	-0.054788	-0.148840
