// General information: 
//  MT Manager version: 2021.0.0 
//  XDA version: 2021.0.0 build 5908 rev 109668 built on 2021-04-19
// Device information: 
//  DeviceId: 00B47F0C
//  ProductCode: MTW2-3A7G6
//  Firmware Version: 4.6.0
//  Hardware Version: 2.0.0
// Device settings: 
//  Filter Profile: human(46.1)
//  Option Flags: Orientation Smoother Disabled, Position/Velocity Smoother Disabled, Continuous Zero Rotation Update Disabled, AHS Disabled, ICC Disabled
// Coordinate system: ENU
PacketCounter	Acc_X	Acc_Y	Acc_Z	FreeAcc_E	FreeAcc_N	FreeAcc_U	Quat_q0	Quat_q1	Quat_q2	Quat_q3
06823	-0.093376	0.094186	9.715990	0.001279	0.023662	-0.095821	1.000000	0.000066	0.000257	0.000296
06824	-0.094540	0.064886	9.714231	0.000118	-0.005650	-0.097782	1.000000	0.000064	0.000257	0.000300
06825	-0.123863	0.066048	9.711817	-0.029220	-0.004587	-0.099901	1.000000	0.000077	0.000258	0.000289
06826	-0.094916	0.064746	9.714228	-0.000167	-0.005845	-0.097782	1.000000	0.000059	0.000266	0.000285
06827	-0.095061	0.064519	9.714228	-0.000308	-0.005942	-0.097782	1.000000	0.000063	0.000258	0.000304
06828	-0.097534	0.062846	9.743372	-0.002644	-0.007924	-0.068628	1.000000	0.000069	0.000251	0.000292
06829	-0.096666	0.092001	9.745131	-0.001766	0.021191	-0.066666	1.000000	0.000066	0.000259	0.000297
06830	-0.092946	0.066037	9.685081	0.001457	-0.004356	-0.126936	1.000000	0.000071	0.000259	0.000301
06831	-0.095569	0.064292	9.714225	-0.000878	-0.006335	-0.097782	1.000000	0.000068	0.000259	0.000305
06832	-0.093238	0.065813	9.685080	0.001175	-0.004550	-0.126936	1.000000	0.000066	0.000259	0.000301
06833	-0.069101	0.061165	9.745784	0.025841	-0.009575	-0.066505	1.000000	0.000063	0.000252	0.000298
06834	-0.096021	0.063929	9.714222	-0.001302	-0.006630	-0.097782	1.000000	0.000069	0.000268	0.000287
06835	-0.067073	0.062623	9.716638	0.027754	-0.007890	-0.095659	1.000000	0.000058	0.000261	0.000291
06836	-0.096252	0.063489	9.714223	-0.001587	-0.006824	-0.097783	1.000000	0.000048	0.000254	0.000278
06837	-0.127982	0.062830	9.740950	-0.033122	-0.007642	-0.070754	1.000000	0.000053	0.000254	0.000290
06838	-0.095451	0.092563	9.715985	-0.000849	0.022192	-0.095818	1.000000	0.000058	0.000254	0.000287
06839	-0.125790	0.064577	9.711802	-0.031208	-0.005955	-0.099908	1.000000	0.000071	0.000254	0.000284
06840	-0.068981	0.089807	9.747544	0.025865	0.018947	-0.064538	1.000000	0.000069	0.000247	0.000280
06841	-0.095824	0.092572	9.715982	-0.001274	0.021899	-0.095817	1.000000	0.000074	0.000255	0.000269
06842	-0.096990	0.063272	9.714217	-0.002437	-0.007412	-0.097783	1.000000	0.000071	0.000248	0.000281
06843	-0.098156	0.033972	9.712452	-0.003600	-0.036723	-0.099750	1.000000	0.000077	0.000256	0.000270
06844	-0.071694	0.031069	9.744014	0.023256	-0.039870	-0.068469	1.000000	0.000074	0.000257	0.000267
06845	-0.098526	0.033902	9.712449	-0.003883	-0.036917	-0.099751	1.000000	0.000086	0.000256	0.000279
06846	-0.096703	0.092428	9.715974	-0.001978	0.021411	-0.095816	1.000000	0.000092	0.000264	0.000276
06847	-0.098964	0.033903	9.712444	-0.004165	-0.037112	-0.099751	1.000000	0.000089	0.000264	0.000280
06848	-0.099112	0.033755	9.712443	-0.004306	-0.037209	-0.099752	1.000000	0.000086	0.000265	0.000276
06849	-0.070533	0.089295	9.747538	0.024592	0.018066	-0.064533	1.000000	0.000091	0.000265	0.000281
06850	-0.098680	0.119681	9.746880	-0.003720	0.048347	-0.064694	1.000000	0.000096	0.000250	0.000285
06851	-0.097288	0.092130	9.715971	-0.002682	0.020925	-0.095815	1.000000	0.000101	0.000258	0.000274
06852	-0.070304	0.032515	9.714864	0.024326	-0.038766	-0.097623	1.000000	0.000106	0.000251	0.000279
06853	-0.097508	0.091980	9.715970	-0.002964	0.020728	-0.095815	1.000000	0.000096	0.000251	0.000282
06854	-0.098603	0.062605	9.714205	-0.004128	-0.008582	-0.097785	1.000000	0.000096	0.000251	0.000283
06855	-0.099700	0.033307	9.712439	-0.005152	-0.037795	-0.099755	1.000000	0.000093	0.000252	0.000279
06856	-0.097737	0.091614	9.715972	-0.003247	0.020534	-0.095815	1.000000	0.000091	0.000245	0.000267
06857	-0.102269	0.031337	9.741582	-0.007641	-0.039878	-0.070603	1.000000	0.000088	0.000237	0.000279
06858	-0.098983	0.062017	9.714205	-0.004554	-0.008874	-0.097785	1.000000	0.000078	0.000253	0.000268
06859	-0.101623	0.060118	9.743348	-0.006901	-0.010861	-0.068633	1.000000	0.000075	0.000238	0.000279
06860	-0.068858	0.089771	9.718400	0.025384	0.018976	-0.093680	1.000000	0.000080	0.000230	0.000283
06861	-0.069076	0.089695	9.718400	0.025243	0.018879	-0.093680	1.000000	0.000077	0.000246	0.000288
06862	-0.099493	0.061565	9.714203	-0.005118	-0.009264	-0.097786	1.000000	0.000077	0.000246	0.000288
06863	-0.099643	0.061493	9.714202	-0.005118	-0.009264	-0.097786	1.000000	0.000075	0.000254	0.000284
06864	-0.099866	0.061423	9.714200	-0.005260	-0.009362	-0.097786	1.000000	0.000080	0.000254	0.000281
06865	-0.102432	0.059670	9.743342	-0.007609	-0.011351	-0.068634	1.000000	0.000077	0.000247	0.000285
06866	-0.100158	0.061273	9.714198	-0.005544	-0.009556	-0.097786	1.000000	0.000082	0.000262	0.000289
06867	-0.103893	0.030369	9.741568	-0.008921	-0.040757	-0.070608	1.000000	0.000087	0.000255	0.000293
06868	-0.100521	0.061122	9.714195	-0.005828	-0.009749	-0.097787	1.000000	0.000077	0.000263	0.000297
06869	-0.103235	0.059369	9.743335	-0.008179	-0.011738	-0.068635	1.000000	0.000089	0.000263	0.000302
06870	-0.098316	0.062724	9.685050	-0.003899	-0.008051	-0.126939	1.000000	0.000087	0.000256	0.000298
06871	-0.073260	0.087351	9.747536	0.021760	0.016108	-0.064523	1.000000	0.000092	0.000264	0.000295
06872	-0.098686	0.062580	9.685048	-0.004185	-0.008246	-0.126939	1.000000	0.000089	0.000264	0.000299
06873	-0.100303	0.089977	9.715961	-0.005511	0.018976	-0.095812	1.000000	0.000087	0.000264	0.000303
06874	-0.100453	0.089905	9.715960	-0.005651	0.018878	-0.095812	1.000000	0.000092	0.000264	0.000292
06875	-0.130798	0.061777	9.711754	-0.036015	-0.009260	-0.099928	1.000000	0.000089	0.000264	0.000304
06876	-0.104424	0.058783	9.743326	-0.009175	-0.012423	-0.068636	1.000000	0.000087	0.000281	0.000285
06877	-0.105598	0.029561	9.741552	-0.010345	-0.041732	-0.070613	1.000000	0.000099	0.000265	0.000297
06878	-0.073922	0.030064	9.714845	0.020920	-0.041107	-0.097624	1.000000	0.000097	0.000266	0.000293
06879	-0.102215	0.060387	9.714182	-0.007388	-0.010820	-0.097789	1.000000	0.000102	0.000266	0.000297
06880	-0.072087	0.088362	9.718390	0.022692	0.017124	-0.093670	1.000000	0.000099	0.000258	0.000301
06881	-0.073192	0.059067	9.716616	0.021523	-0.012186	-0.095647	1.000000	0.000104	0.000259	0.000283
06882	-0.101567	0.089399	9.715953	-0.006787	0.018104	-0.095812	1.000000	0.000102	0.000267	0.000279
06883	-0.101857	0.089323	9.715951	-0.006928	0.018006	-0.095811	1.000000	0.000107	0.000274	0.000299
06884	-0.099566	0.091075	9.686806	-0.004853	0.019806	-0.124963	1.000000	0.000119	0.000274	0.000296
06885	-0.069064	0.062357	9.658328	0.025389	-0.008780	-0.153949	1.000000	0.000116	0.000275	0.000300
06886	-0.103389	0.060095	9.714171	-0.008381	-0.011496	-0.097790	1.000000	0.000122	0.000275	0.000296
06887	-0.103535	0.060096	9.714170	-0.008522	-0.011594	-0.097791	1.000000	0.000127	0.000275	0.000301
06888	-0.106335	0.058343	9.743308	-0.010881	-0.013588	-0.068640	1.000000	0.000124	0.000291	0.000298
06889	-0.104125	0.059953	9.714164	-0.008804	-0.011788	-0.097791	1.000000	0.000129	0.000291	0.000302
06890	-0.107806	0.028896	9.741530	-0.012193	-0.042995	-0.070621	1.000000	0.000119	0.000291	0.000306
06891	-0.075172	0.058476	9.716605	0.020109	-0.013158	-0.095645	1.000000	0.000124	0.000284	0.000310
06892	-0.075620	0.115244	9.749297	0.019808	0.043271	-0.062532	1.000000	0.000129	0.000277	0.000299
06893	-0.103538	0.088806	9.715938	-0.008338	0.017036	-0.095811	1.000000	0.000126	0.000292	0.000303
06894	-0.103834	0.088735	9.715935	-0.008480	0.016938	-0.095811	1.000000	0.000131	0.000293	0.000300
06895	-0.077318	0.085802	9.747518	0.018352	0.013765	-0.064512	1.000000	0.000129	0.000293	0.000304
06896	-0.075986	0.058186	9.716600	0.019402	-0.013645	-0.095645	1.000000	0.000134	0.000293	0.000301
06897	-0.077166	0.028967	9.714823	0.018229	-0.042954	-0.097627	1.000000	0.000139	0.000294	0.000290
06898	-0.108039	0.057612	9.743294	-0.012297	-0.014563	-0.068643	1.000000	0.000136	0.000302	0.000302
06899	-0.108182	0.057533	9.743293	-0.012439	-0.014660	-0.068643	1.000000	0.000141	0.000294	0.000306
06900	-0.103231	0.060972	9.685010	-0.008135	-0.010959	-0.126944	1.000000	0.000154	0.000294	0.000303
06901	-0.105815	0.059291	9.714150	-0.010500	-0.012957	-0.097794	1.000000	0.000151	0.000287	0.000299
06902	-0.105888	0.059216	9.714150	-0.010641	-0.013056	-0.097795	1.000000	0.000156	0.000287	0.000303
06903	-0.107512	0.086755	9.745066	-0.011974	0.014157	-0.066660	1.000000	0.000161	0.000287	0.000307
06904	-0.105069	0.088435	9.715924	-0.009893	0.015961	-0.095810	1.000000	0.000166	0.000280	0.000311
06905	-0.106095	0.059205	9.714148	-0.011067	-0.013347	-0.097795	1.000000	0.000171	0.000272	0.000315
06906	-0.073527	0.088861	9.689230	0.021243	0.016489	-0.122808	1.000000	0.000169	0.000280	0.000312
06907	-0.105357	0.088282	9.715923	-0.010318	0.015668	-0.095810	1.000000	0.000173	0.000273	0.000316
06908	-0.079875	0.056192	9.745732	0.015473	-0.016723	-0.066493	1.000000	0.000178	0.000280	0.000320
06909	-0.105794	0.088133	9.715919	-0.010602	0.015473	-0.095810	1.000000	0.000168	0.000288	0.000324
06910	-0.107047	0.058759	9.714140	-0.011778	-0.013836	-0.097797	1.000000	0.000173	0.000288	0.000328
06911	-0.110744	0.027853	9.741500	-0.015182	-0.045049	-0.070634	1.000000	0.000178	0.000289	0.000317
06912	-0.075585	0.059193	9.687448	0.019363	-0.013308	-0.124793	1.000000	0.000176	0.000282	0.000321
06913	-0.106309	0.087762	9.715917	-0.011166	0.015082	-0.095810	1.000000	0.000173	0.000282	0.000325
06914	-0.104827	0.059996	9.684999	-0.010115	-0.012321	-0.126948	1.000000	0.000162	0.000267	0.000329
06915	-0.078244	0.056977	9.716590	0.016708	-0.015504	-0.095642	1.000000	0.000167	0.000275	0.000333
06916	-0.079947	0.084442	9.747509	0.015370	0.011703	-0.064504	1.000000	0.000165	0.000275	0.000329
06917	-0.106748	0.087237	9.715917	-0.011735	0.014692	-0.095811	1.000000	0.000170	0.000275	0.000334
06918	-0.048626	0.084796	9.720819	0.046513	0.012231	-0.091496	1.000000	0.000167	0.000283	0.000338
06919	-0.108297	0.057867	9.714131	-0.013050	-0.014714	-0.097800	1.000000	0.000172	0.000291	0.000335
06920	-0.110963	0.056106	9.743270	-0.015423	-0.016715	-0.068651	1.000000	0.000169	0.000284	0.000339
06921	-0.109553	0.028417	9.712348	-0.014368	-0.044116	-0.099790	1.000000	0.000167	0.000284	0.000343
06922	-0.107627	0.086641	9.715913	-0.012439	0.014207	-0.095811	1.000000	0.000156	0.000284	0.000347
06923	-0.082160	0.054316	9.745723	0.013343	-0.018191	-0.066492	1.000000	0.000153	0.000284	0.000358
06924	-0.111552	0.055127	9.743269	-0.015995	-0.017105	-0.068652	1.000000	0.000128	0.000292	0.000362
06925	-0.105699	0.087363	9.686776	-0.010631	0.015824	-0.124960	1.000000	0.000125	0.000293	0.000358
06926	-0.111851	0.054679	9.743268	-0.016280	-0.017303	-0.068653	1.000000	0.000130	0.000285	0.000370
06927	-0.077779	0.056796	9.687445	0.017242	-0.014768	-0.124791	1.000000	0.000127	0.000293	0.000374
06928	-0.109617	0.056142	9.714127	-0.014329	-0.015591	-0.097803	1.000000	0.000125	0.000285	0.000378
06929	-0.080446	0.054800	9.716584	0.014722	-0.016872	-0.095641	1.000000	0.000122	0.000278	0.000381
06930	-0.106275	0.086835	9.686774	-0.011338	0.015335	-0.124960	1.000000	0.000127	0.000294	0.000371
06931	-0.082379	0.082117	9.747508	0.013240	0.010234	-0.064499	1.000000	0.000117	0.000287	0.000375
06932	-0.081041	0.054435	9.716581	0.014299	-0.017162	-0.095641	1.000000	0.000122	0.000294	0.000379
06933	-0.139522	0.056886	9.711662	-0.044229	-0.014889	-0.099969	1.000000	0.000134	0.000287	0.000384
06934	-0.054538	0.051547	9.748178	0.040969	-0.020453	-0.064329	1.000000	0.000124	0.000280	0.000379
06935	-0.110428	0.055473	9.714121	-0.015320	-0.016270	-0.097806	1.000000	0.000129	0.000280	0.000376
06936	-0.112210	0.083008	9.745045	-0.016660	0.010933	-0.066663	1.000000	0.000134	0.000296	0.000373
06937	-0.078361	0.085215	9.689225	0.016870	0.013471	-0.122795	1.000000	0.000140	0.000304	0.000363
06938	-0.082230	0.054232	9.716572	0.013446	-0.017748	-0.095641	1.000000	0.000138	0.000312	0.000359
06939	-0.083789	0.081609	9.747501	0.012104	0.009453	-0.064497	1.000000	0.000134	0.000297	0.000370
06940	-0.107968	0.086108	9.686762	-0.012748	0.014367	-0.124960	1.000000	0.000139	0.000304	0.000375
06941	-0.081626	0.083154	9.718360	0.014063	0.011171	-0.093645	1.000000	0.000137	0.000313	0.000364
06942	-0.114593	0.053358	9.743243	-0.018554	-0.018865	-0.068660	1.000000	0.000143	0.000313	0.000361
06943	-0.085498	0.052092	9.745707	0.010496	-0.020150	-0.066493	1.000000	0.000140	0.000306	0.000364
06944	-0.083114	0.053637	9.716568	0.012594	-0.018335	-0.095641	1.000000	0.000137	0.000313	0.000368
06945	-0.083411	0.053491	9.716566	0.012453	-0.018432	-0.095641	1.000000	0.000135	0.000321	0.000365
06946	-0.084974	0.080943	9.747496	0.011106	0.008768	-0.064495	1.000000	0.000139	0.000306	0.000369
06947	-0.083478	0.053334	9.716567	0.012167	-0.018627	-0.095641	1.000000	0.000136	0.000306	0.000380
06948	-0.114130	0.082049	9.745031	-0.018369	0.009761	-0.066665	1.000000	0.000149	0.000291	0.000377
06949	-0.111747	0.083674	9.715892	-0.016266	0.011577	-0.095813	1.000000	0.000139	0.000307	0.000374
06950	-0.113088	0.054305	9.714097	-0.017450	-0.017730	-0.097812	1.000000	0.000144	0.000307	0.000378
06951	-0.114202	0.025004	9.712304	-0.018633	-0.047038	-0.099811	1.000000	0.000141	0.000300	0.000382
06952	-0.080482	0.083877	9.689219	0.014746	0.012009	-0.122790	1.000000	0.000146	0.000300	0.000386
06953	-0.086817	0.051186	9.745700	0.009070	-0.021129	-0.066494	1.000000	0.000144	0.000308	0.000382
06954	-0.110991	0.055553	9.684957	-0.015767	-0.016205	-0.126961	1.000000	0.000133	0.000293	0.000386
06955	-0.113528	0.053630	9.714096	-0.018155	-0.018218	-0.097814	1.000000	0.000131	0.000294	0.000382
06956	-0.084508	0.052438	9.716563	0.010898	-0.019504	-0.095641	1.000000	0.000143	0.000294	0.000379
06957	-0.084656	0.052364	9.716562	0.010757	-0.019601	-0.095641	1.000000	0.000133	0.000294	0.000383
06958	-0.082714	0.110662	9.720152	0.012700	0.038722	-0.091639	1.000000	0.000138	0.000295	0.000380
06959	-0.113147	0.082636	9.715885	-0.017676	0.010606	-0.095814	1.000000	0.000143	0.000302	0.000384
06960	-0.087783	0.050445	9.745695	0.008081	-0.021811	-0.066494	1.000000	0.000141	0.000303	0.000381
06961	-0.113591	0.082417	9.715882	-0.017960	0.010410	-0.095814	1.000000	0.000138	0.000311	0.000385
06962	-0.084493	0.081143	9.718353	0.011090	0.009120	-0.093639	1.000000	0.000143	0.000295	0.000389
06963	-0.085687	0.051846	9.716556	0.009905	-0.020187	-0.095642	1.000000	0.000140	0.000311	0.000386
06964	-0.088374	0.050148	9.745691	0.007513	-0.022202	-0.066495	1.000000	0.000153	0.000296	0.000382
06965	-0.085834	0.051772	9.716555	0.009623	-0.020381	-0.095642	1.000000	0.000143	0.000297	0.000386
06966	-0.116641	0.080341	9.745016	-0.020921	0.008004	-0.066668	1.000000	0.000147	0.000296	0.000390
06967	-0.091203	0.048140	9.774827	0.004831	-0.024416	-0.037348	1.000000	0.000144	0.000296	0.000402
06968	-0.058073	0.020966	9.717229	0.037342	-0.051076	-0.095468	1.000000	0.000141	0.000289	0.000406
06969	-0.111694	0.083357	9.686744	-0.016839	0.011553	-0.124963	1.000000	0.000138	0.000274	0.000409
06970	-0.114306	0.081654	9.715880	-0.019236	0.009532	-0.095816	1.000000	0.000152	0.000282	0.000406
06971	-0.086405	0.051231	9.716552	0.008769	-0.020968	-0.095642	1.000000	0.000149	0.000282	0.000418
06972	-0.084381	0.109453	9.720152	0.010719	0.037353	-0.091631	1.000000	0.000139	0.000275	0.000406
06973	-0.058881	0.077254	9.749963	0.036468	0.004930	-0.062310	1.000000	0.000151	0.000275	0.000411
06974	-0.112277	0.083061	9.686739	-0.017546	0.011064	-0.124963	1.000000	0.000149	0.000275	0.000407
06975	-0.089318	0.049156	9.745688	0.005946	-0.023280	-0.066496	1.000000	0.000153	0.000268	0.000411
06976	-0.085795	0.080004	9.718351	0.009108	0.007751	-0.093636	1.000000	0.000151	0.000268	0.000415
06977	-0.121174	0.048426	9.772348	-0.025785	-0.024204	-0.039532	1.000000	0.000148	0.000261	0.000411
06978	-0.087147	0.050564	9.716549	0.007779	-0.021654	-0.095643	1.000000	0.000154	0.000277	0.000401
06979	-0.087513	0.050566	9.716546	0.007637	-0.021752	-0.095643	1.000000	0.000158	0.000284	0.000420
06980	-0.119366	0.049909	9.743204	-0.023955	-0.022575	-0.068680	1.000000	0.000148	0.000277	0.000424
06981	-0.087654	0.050260	9.716546	0.007353	-0.021946	-0.095643	1.000000	0.000148	0.000277	0.000424
06982	-0.085550	0.108705	9.720150	0.009446	0.036474	-0.091626	1.000000	0.000148	0.000277	0.000424
06983	-0.089294	0.077778	9.747483	0.006140	0.005342	-0.064489	1.000000	0.000153	0.000284	0.000428
06984	-0.116135	0.080687	9.715866	-0.020934	0.008364	-0.095818	1.000000	0.000158	0.000285	0.000425
06985	-0.088242	0.050265	9.716541	0.007069	-0.022139	-0.095643	1.000000	0.000163	0.000293	0.000422
06986	-0.090036	0.077714	9.747477	0.005711	0.005047	-0.064488	1.000000	0.000161	0.000301	0.000419
06987	-0.117855	0.051326	9.714057	-0.022409	-0.021139	-0.097829	1.000000	0.000166	0.000293	0.000423
06988	-0.088831	0.050120	9.716536	0.006641	-0.022432	-0.095644	1.000000	0.000171	0.000301	0.000427
06989	-0.086429	0.051752	9.687400	0.008761	-0.020605	-0.124790	1.000000	0.000168	0.000294	0.000423
06990	-0.091603	0.048191	9.745671	0.004097	-0.024552	-0.066498	1.000000	0.000165	0.000294	0.000427
06991	-0.117167	0.080173	9.715858	-0.021925	0.007683	-0.095820	1.000000	0.000163	0.000279	0.000423
06992	-0.086580	0.051229	9.687401	0.008341	-0.020897	-0.124790	1.000000	0.000152	0.000287	0.000427
06993	-0.088225	0.078597	9.718341	0.006985	0.006289	-0.093633	1.000000	0.000152	0.000287	0.000427
06994	-0.088305	0.078452	9.718341	0.006984	0.006289	-0.093633	1.000000	0.000142	0.000288	0.000416
06995	-0.089366	0.049010	9.716537	0.005794	-0.023017	-0.095645	1.000000	0.000140	0.000274	0.000412
06996	-0.118600	0.050136	9.714054	-0.023538	-0.021914	-0.097833	1.000000	0.000144	0.000281	0.000432
06997	-0.057032	0.078511	9.691689	0.038015	0.006725	-0.120589	1.000000	0.000135	0.000297	0.000413
06998	-0.121905	0.048071	9.743182	-0.026088	-0.024035	-0.068689	1.000000	0.000132	0.000305	0.000410
06999	-0.061686	0.104032	9.751766	0.034250	0.031885	-0.060284	1.000000	0.000137	0.000305	0.000414
07000	-0.119716	0.049707	9.714043	-0.024107	-0.022302	-0.097835	1.000000	0.000142	0.000305	0.000418
07001	-0.093180	0.046718	9.745664	0.002676	-0.025527	-0.066500	1.000000	0.000140	0.000298	0.000407
07002	-0.089720	0.077502	9.718336	0.005854	0.005512	-0.093632	1.000000	0.000137	0.000306	0.000419
07003	-0.089861	0.077423	9.718335	0.005712	0.005414	-0.093632	1.000000	0.000142	0.000299	0.000423
07004	-0.089783	0.077493	9.718335	0.005571	0.005317	-0.093631	1.000000	0.000154	0.000284	0.000419
07005	-0.090836	0.048268	9.716527	0.004379	-0.023989	-0.095646	1.000000	0.000151	0.000284	0.000423
07006	-0.088870	0.106562	9.720144	0.006337	0.034332	-0.091616	1.000000	0.000149	0.000284	0.000427
07007	-0.089999	0.077264	9.718335	0.005144	0.005026	-0.093631	1.000000	0.000149	0.000284	0.000427
07008	-0.091131	0.047970	9.716526	0.005602	-0.021629	-0.095641	1.000000	0.000015	0.000362	0.000295
07009	-0.091128	0.047891	9.716526	0.005462	-0.021724	-0.095641	1.000000	0.000019	0.000347	0.000306
07010	-0.090071	0.076962	9.718337	0.006377	0.007388	-0.093633	1.000000	0.000009	0.000348	0.000292
07011	-0.089016	0.105958	9.720149	0.007297	0.036501	-0.091625	1.000000	0.000006	0.000333	0.000303
07012	-0.090219	0.076586	9.718338	0.006094	0.007197	-0.093633	1.000000	0.000003	0.000348	0.000299
07013	-0.123221	0.046789	9.743172	-0.026563	-0.022820	-0.068687	1.000000	0.000008	0.000341	0.000303
07014	-0.091570	0.047291	9.716525	0.004753	-0.022204	-0.095642	1.000000	0.000013	0.000341	0.000299
07015	-0.093145	0.074726	9.747471	0.003405	0.004986	-0.064487	1.000000	0.000010	0.000334	0.000295
07016	-0.091718	0.047143	9.716524	0.004470	-0.022394	-0.095642	1.000000	0.000015	0.000334	0.000300
07017	-0.089305	0.048780	9.687389	0.006599	-0.020566	-0.124788	1.000000	0.000012	0.000335	0.000303
07018	-0.094572	0.045281	9.745657	0.001920	-0.024511	-0.066497	1.000000	0.000018	0.000335	0.000293
07019	-0.064571	0.073295	9.749958	0.032030	0.003390	-0.062293	1.000000	0.000023	0.000343	0.000297
07020	-0.120415	0.077356	9.715841	-0.024218	0.007641	-0.095826	1.000000	0.000020	0.000328	0.000294
07021	-0.061178	0.103936	9.722637	0.035082	0.034330	-0.089426	1.000000	0.000010	0.000344	0.000291
07022	-0.094265	0.073993	9.747466	0.002419	0.004311	-0.064486	1.000000	0.000007	0.000345	0.000286
07023	-0.091930	0.075564	9.718330	0.004550	0.006141	-0.093631	1.000000	0.000005	0.000353	0.000283
07024	-0.121321	0.076632	9.715835	-0.024780	0.007257	-0.095827	1.000000	0.000003	0.000354	0.000280
07025	-0.063213	0.074062	9.720823	0.033458	0.004736	-0.091435	1.000000	-0.000000	0.000362	0.000284
07026	-0.096071	0.044257	9.745647	0.000792	-0.025282	-0.066499	1.000000	0.000004	0.000346	0.000287
07027	-0.093655	0.045900	9.716512	0.002924	-0.023452	-0.095644	1.000000	0.000002	0.000362	0.000284
07028	-0.096449	0.043967	9.745645	0.000511	-0.025474	-0.066500	1.000000	-0.000008	0.000356	0.000273
07029	-0.121994	0.075970	9.715832	-0.025482	0.006779	-0.095828	1.000000	-0.000003	0.000348	0.000277
07030	-0.095392	0.072963	9.747462	0.001290	0.003542	-0.064486	1.000000	-0.000006	0.000341	0.000273
07031	-0.123127	0.046600	9.714015	-0.026828	-0.022620	-0.097843	1.000000	-0.000001	0.000341	0.000269
07032	-0.063888	0.073324	9.720824	0.032474	0.004064	-0.091432	1.000000	-0.000004	0.000342	0.000267
07033	-0.092216	0.103611	9.720144	0.004208	0.034391	-0.091615	1.000000	-0.000006	0.000350	0.000271
07034	-0.093573	0.074245	9.718325	0.003002	0.005086	-0.093630	1.000000	-0.000009	0.000358	0.000266
07035	-0.065693	0.043666	9.719004	0.030987	-0.025433	-0.093446	1.000000	-0.000011	0.000358	0.000263
07036	-0.123114	0.075168	9.715824	-0.026467	0.006111	-0.095830	1.000000	-0.000014	0.000359	0.000260
07037	-0.095082	0.044659	9.716504	0.001517	-0.024408	-0.095646	1.000000	-0.000009	0.000352	0.000264
07038	-0.097794	0.042936	9.745636	-0.000901	-0.026434	-0.066502	1.000000	-0.000004	0.000359	0.000269
07039	-0.095447	0.044584	9.716501	0.001237	-0.024600	-0.095647	1.000000	-0.000007	0.000360	0.000265
07040	-0.065372	0.072519	9.720820	0.031350	0.003296	-0.091428	1.000000	-0.000002	0.000360	0.000263
07041	-0.093026	0.046157	9.687367	0.003235	-0.022861	-0.124792	1.000000	-0.000005	0.000345	0.000266
07042	-0.094601	0.073651	9.718319	0.001880	0.004322	-0.093630	1.000000	0.000007	0.000353	0.000279
07043	-0.067163	0.099934	9.751772	0.029713	0.030287	-0.060264	1.000000	0.000005	0.000353	0.000275
07044	-0.097387	0.071775	9.747452	-0.000681	0.002199	-0.064485	1.000000	0.000002	0.000338	0.000286
07045	-0.097313	0.071622	9.747453	-0.000822	0.002104	-0.064485	1.000000	-0.000001	0.000331	0.000275
07046	-0.098452	0.042254	9.745632	-0.002029	-0.027201	-0.066505	1.000000	-0.000004	0.000331	0.000279
07047	-0.126702	0.072617	9.744951	-0.030292	0.003128	-0.066690	1.000000	0.000001	0.000332	0.000276
07048	-0.095039	0.073048	9.718320	0.001038	0.003746	-0.093629	1.000000	-0.000002	0.000325	0.000280
07049	-0.092612	0.074695	9.689186	0.003180	0.005583	-0.122773	1.000000	0.000003	0.000332	0.000284
07050	-0.095406	0.072976	9.718317	0.000757	0.003555	-0.093629	1.000000	0.000009	0.000333	0.000274
07051	-0.066238	0.071830	9.720820	0.029805	0.002241	-0.091423	1.000000	0.000021	0.000317	0.000285
07052	-0.095539	0.073040	9.718315	0.000475	0.003363	-0.093629	1.000000	0.000018	0.000333	0.000298
07053	-0.098332	0.071242	9.747446	-0.001950	0.001334	-0.064485	1.000000	0.000018	0.000333	0.000298
07054	-0.067734	0.042453	9.718995	0.028458	-0.027161	-0.093443	1.000000	0.000015	0.000333	0.000295
07055	-0.095983	0.072821	9.718312	0.000196	0.003170	-0.093629	1.000000	0.000020	0.000334	0.000291
07056	-0.098710	0.070951	9.747444	-0.002228	0.001140	-0.064485	1.000000	0.000010	0.000334	0.000288
07057	-0.067050	0.071084	9.720819	0.029105	0.001759	-0.091420	1.000000	-0.000008	0.000327	0.000291
07058	-0.098930	0.070574	9.747445	-0.002510	0.000949	-0.064485	1.000000	0.000019	0.000334	0.000304
07059	-0.096571	0.072298	9.718310	-0.000364	0.002788	-0.093629	1.000000	0.000002	0.000335	0.000300
07060	-0.125811	0.073295	9.715804	-0.029693	0.003911	-0.095838	1.000000	0.000006	0.000328	0.000303
07061	-0.096719	0.072073	9.718310	-0.000646	0.002595	-0.093629	1.000000	0.000011	0.000328	0.000300
07062	-0.100512	0.041055	9.745616	-0.004144	-0.028644	-0.066509	1.000000	0.000009	0.000329	0.000296
07063	-0.095949	0.101148	9.720134	0.000141	0.031610	-0.091605	1.000000	0.000014	0.000329	0.000300
07064	-0.099664	0.070124	9.747441	-0.003356	0.000371	-0.064486	1.000000	0.000011	0.000321	0.000304
07065	-0.099812	0.069898	9.747441	-0.003497	0.000275	-0.064486	1.000000	0.000000	0.000330	0.000308
07066	-0.095947	0.043988	9.687348	-0.000130	-0.025156	-0.124797	1.000000	0.000006	0.000330	0.000297
07067	-0.097533	0.071482	9.718307	-0.001491	0.002019	-0.093629	1.000000	0.000010	0.000323	0.000300
07068	-0.097676	0.071480	9.718305	-0.001632	0.001924	-0.093629	1.000000	0.000015	0.000330	0.000305
07069	-0.100399	0.069751	9.747436	-0.004063	-0.000109	-0.064486	1.000000	0.000020	0.000323	0.000309
07070	-0.098882	0.042253	9.716477	-0.002986	-0.027472	-0.095655	1.000000	0.000025	0.000315	0.000312
07071	-0.100463	0.069742	9.747435	-0.004348	-0.000298	-0.064486	1.000000	0.000029	0.000315	0.000317
07072	-0.068937	0.070170	9.720813	0.026992	0.000320	-0.091414	1.000000	0.000027	0.000323	0.000321
07073	-0.099391	0.042101	9.716472	-0.003407	-0.027759	-0.095656	1.000000	0.000032	0.000324	0.000318
07074	-0.100062	0.098595	9.749259	-0.003699	0.028620	-0.062459	1.000000	0.000014	0.000332	0.000314
07075	-0.096044	0.072685	9.689168	-0.000324	0.003196	-0.122771	1.000000	0.000026	0.000317	0.000310
07076	-0.102501	0.039935	9.745600	-0.006126	-0.029986	-0.066514	1.000000	0.000016	0.000340	0.000314
07077	-0.070055	0.069438	9.720810	0.026287	-0.000160	-0.091412	1.000000	0.000014	0.000341	0.000318
07078	-0.096777	0.072317	9.689163	-0.000744	0.002909	-0.122771	1.000000	0.000018	0.000341	0.000323
07079	-0.128671	0.071813	9.715778	-0.032366	0.002099	-0.095846	1.000000	0.000023	0.000341	0.000320
07080	-0.073153	0.067636	9.749938	0.023571	-0.002387	-0.062269	1.000000	0.000029	0.000349	0.000317
07081	-0.098509	0.043030	9.687327	-0.002237	-0.026582	-0.124801	1.000000	0.000026	0.000357	0.000321
07082	-0.101843	0.097716	9.749250	-0.004825	0.027853	-0.062457	1.000000	0.000008	0.000366	0.000317
07083	-0.097812	0.071959	9.689156	-0.001444	0.002432	-0.122771	1.000000	0.000036	0.000350	0.000314
07084	-0.100470	0.070301	9.718285	-0.003881	0.000395	-0.093629	1.000000	0.000026	0.000358	0.000318
07085	-0.100616	0.070151	9.718285	-0.004021	0.000300	-0.093629	1.000000	0.000030	0.000351	0.000322
07086	-0.098023	0.071803	9.689155	-0.001864	0.002147	-0.122771	1.000000	0.000027	0.000344	0.000326
07087	-0.100685	0.069996	9.718285	-0.004303	0.000109	-0.093629	1.000000	0.000032	0.000344	0.000322
07088	-0.100830	0.069997	9.718284	-0.004444	0.000013	-0.093629	1.000000	0.000037	0.000344	0.000327
07089	-0.101975	0.040625	9.716452	-0.005658	-0.029289	-0.095661	1.000000	0.000027	0.000337	0.000330
07090	-0.102646	0.097188	9.749246	-0.005953	0.027087	-0.062456	1.000000	0.000032	0.000353	0.000319
07091	-0.102350	0.040560	9.716448	-0.005941	-0.029479	-0.095662	1.000000	0.000045	0.000338	0.000316
07092	-0.101277	0.069780	9.718281	-0.005007	-0.000369	-0.093630	1.000000	0.000042	0.000338	0.000312
07093	-0.101426	0.069632	9.718280	-0.005148	-0.000465	-0.093630	1.000000	0.000039	0.000339	0.000316
07094	-0.074927	0.066518	9.749932	0.021593	-0.003734	-0.062265	1.000000	0.000036	0.000331	0.000319
07095	-0.072406	0.068172	9.720802	0.023755	-0.001885	-0.091406	1.000000	0.000041	0.000331	0.000323
07096	-0.104308	0.067595	9.747410	-0.007878	-0.002696	-0.064489	1.000000	0.000038	0.000332	0.000319
07097	-0.100274	0.041696	9.687315	-0.004487	-0.028108	-0.124806	1.000000	0.000036	0.000325	0.000315
07098	-0.075372	0.066221	9.749931	0.021025	-0.004118	-0.062264	1.000000	0.000049	0.000332	0.000312
07099	-0.102085	0.069259	9.718276	-0.005998	-0.001038	-0.093630	1.000000	0.000053	0.000325	0.000316
07100	-0.102083	0.069105	9.718277	-0.006139	-0.001135	-0.093630	1.000000	0.000043	0.000318	0.000319
07101	-0.104825	0.067223	9.747407	-0.008585	-0.003177	-0.064489	1.000000	0.000048	0.000326	0.000316
07102	-0.099857	0.070693	9.689144	-0.004115	0.000618	-0.122772	1.000000	0.000053	0.000326	0.000320
07103	-0.070915	0.069390	9.691667	0.024931	-0.000708	-0.120544	1.000000	0.000050	0.000334	0.000317
07104	-0.101377	0.041258	9.687305	-0.005471	-0.028778	-0.124808	1.000000	0.000048	0.000335	0.000314
07105	-0.129538	0.071560	9.686616	-0.033720	0.001565	-0.125000	1.000000	0.000045	0.000327	0.000317
07106	-0.072881	0.096581	9.722632	0.023279	0.026266	-0.089365	1.000000	0.000058	0.000335	0.000314
07107	-0.135021	0.068165	9.744871	-0.038618	-0.002520	-0.066719	1.000000	0.000062	0.000327	0.000318
07108	-0.103484	0.068595	9.718266	-0.007266	-0.001897	-0.093631	1.000000	0.000060	0.000343	0.000315
07109	-0.102631	0.097668	9.720102	-0.006328	0.027213	-0.091593	1.000000	0.000057	0.000336	0.000319
07110	-0.074545	0.067065	9.720793	0.021639	-0.003325	-0.091401	1.000000	0.000054	0.000329	0.000315
07111	-0.103706	0.068221	9.718266	-0.007687	-0.002188	-0.093632	1.000000	0.000059	0.000321	0.000319
07112	-0.074691	0.066914	9.720793	0.021357	-0.003515	-0.091401	1.000000	0.000056	0.000329	0.000315
07113	-0.105153	0.038782	9.716425	-0.009048	-0.031583	-0.095671	1.000000	0.000054	0.000330	0.000319
07114	-0.075213	0.066699	9.720791	0.021076	-0.003706	-0.091400	1.000000	0.000059	0.000346	0.000309
07115	-0.133690	0.069250	9.715728	-0.037436	-0.001334	-0.095865	1.000000	0.000072	0.000331	0.000290
07116	-0.075516	0.066786	9.720788	0.020797	-0.003898	-0.091400	1.000000	0.000069	0.000347	0.000302
07117	-0.104895	0.067868	9.718256	-0.008529	-0.002760	-0.093633	1.000000	0.000066	0.000339	0.000306
07118	-0.104970	0.067795	9.718256	-0.008670	-0.002855	-0.093633	1.000000	0.000072	0.000340	0.000295
07119	-0.073435	0.068158	9.691657	0.022688	-0.002235	-0.120539	1.000000	0.000062	0.000348	0.000291
07120	-0.075189	0.095421	9.722626	0.021315	0.024924	-0.089357	1.000000	0.000059	0.000349	0.000288
07121	-0.108180	0.065474	9.747382	-0.011404	-0.005094	-0.064493	1.000000	0.000049	0.000349	0.000292
07122	-0.080620	0.091644	9.780885	0.016406	0.020831	-0.031076	1.000000	0.000061	0.000342	0.000288
07123	-0.105870	0.066989	9.718251	-0.009372	-0.003331	-0.093634	1.000000	0.000043	0.000357	0.000300
07124	-0.107093	0.037619	9.716409	-0.010593	-0.032632	-0.095676	1.000000	0.000055	0.000342	0.000296
07125	-0.075851	0.094824	9.722627	0.020613	0.024447	-0.089355	1.000000	0.000053	0.000351	0.000293
07126	-0.106462	0.066773	9.718246	-0.009797	-0.003619	-0.093634	1.000000	0.000058	0.000366	0.000290
07127	-0.078749	0.036249	9.718937	0.018167	-0.034157	-0.093441	1.000000	0.000056	0.000374	0.000294
07128	-0.079420	0.092870	9.751750	0.017872	0.022207	-0.060213	1.000000	0.000060	0.000374	0.000299
07129	-0.110886	0.035671	9.745525	-0.013616	-0.035063	-0.066539	1.000000	0.000066	0.000375	0.000288
07130	-0.107350	0.066485	9.718239	-0.010359	-0.003999	-0.093635	1.000000	0.000055	0.000375	0.000291
07131	-0.078343	0.064879	9.720778	0.018686	-0.005333	-0.091396	1.000000	0.000037	0.000376	0.000287
07132	-0.078495	0.064733	9.720778	0.018546	-0.005429	-0.091396	1.000000	0.000050	0.000376	0.000284
07133	-0.110417	0.064232	9.747365	-0.013098	-0.006241	-0.064496	1.000000	0.000048	0.000377	0.000273
07134	-0.109035	0.036534	9.716391	-0.012002	-0.033587	-0.095681	1.000000	0.000037	0.000377	0.000284
07135	-0.078944	0.064291	9.720777	0.018125	-0.005716	-0.091395	1.000000	0.000034	0.000378	0.000281
07136	-0.108253	0.065380	9.718236	-0.011200	-0.004573	-0.093636	1.000000	0.000032	0.000378	0.000285
07137	-0.110942	0.063412	9.747365	-0.013661	-0.006624	-0.064497	1.000000	0.000021	0.000371	0.000280
07138	-0.079165	0.063840	9.720779	0.017703	-0.006005	-0.091395	1.000000	0.000033	0.000363	0.000292
07139	-0.108469	0.065152	9.718235	-0.011622	-0.004861	-0.093637	1.000000	0.000039	0.000372	0.000281
07140	-0.112314	0.034042	9.745514	-0.015167	-0.036119	-0.066545	1.000000	0.000028	0.000365	0.000285
07141	-0.079535	0.063619	9.720777	0.017282	-0.006292	-0.091394	1.000000	0.000033	0.000365	0.000281
07142	-0.078603	0.092763	9.722625	0.018224	0.022815	-0.089346	1.000000	0.000031	0.000365	0.000285
07143	-0.079829	0.063394	9.720776	0.017000	-0.006486	-0.091394	1.000000	0.000028	0.000366	0.000289
07144	-0.080049	0.063244	9.720775	0.016860	-0.006583	-0.091394	1.000000	0.000025	0.000373	0.000293
07145	-0.110584	0.035269	9.716378	-0.013549	-0.034643	-0.095687	1.000000	0.000038	0.000381	0.000290
07146	-0.080411	0.063166	9.720773	0.016576	-0.006774	-0.091393	1.000000	0.000027	0.000366	0.000309
07147	-0.083099	0.061266	9.749901	0.014110	-0.008829	-0.062254	1.000000	0.000032	0.000374	0.000298
07148	-0.109794	0.064110	9.718227	-0.012889	-0.005725	-0.093639	1.000000	0.000022	0.000367	0.000301
07149	-0.080782	0.062644	9.720773	0.016155	-0.007062	-0.091393	1.000000	0.000019	0.000375	0.000306
07150	-0.082615	0.089967	9.751751	0.014771	0.020088	-0.060204	1.000000	0.000016	0.000383	0.000302
07151	-0.109382	0.092814	9.720075	-0.012227	0.023194	-0.091589	1.000000	0.000014	0.000384	0.000298
07152	-0.080223	0.091421	9.722624	0.016817	0.021856	-0.089341	1.000000	0.000011	0.000369	0.000302
07153	-0.110466	0.063371	9.718224	-0.013593	-0.006202	-0.093640	1.000000	0.000016	0.000369	0.000291
07154	-0.081455	0.062132	9.720771	0.015448	-0.007541	-0.091392	1.000000	0.000021	0.000369	0.000295
07155	-0.113380	0.061396	9.747350	-0.016205	-0.008354	-0.064502	1.000000	0.000003	0.000370	0.000306
07156	-0.084367	0.060002	9.749898	0.012836	-0.009692	-0.062253	1.000000	0.000015	0.000370	0.000303
07157	-0.111054	0.062999	9.718220	-0.014159	-0.006583	-0.093641	1.000000	0.000013	0.000370	0.000299
07158	-0.082046	0.061610	9.720769	0.014883	-0.007923	-0.091391	1.000000	0.000010	0.000371	0.000295
07159	-0.113978	0.060879	9.747346	-0.016772	-0.008736	-0.064503	1.000000	-0.000000	0.000371	0.000299
07160	-0.082343	0.061237	9.720769	0.014602	-0.008115	-0.091391	1.000000	0.000004	0.000371	0.000303
07161	-0.082411	0.061156	9.720769	0.014462	-0.008211	-0.091391	1.000000	0.000001	0.000364	0.000314
07162	-0.138101	0.065394	9.686541	-0.041714	-0.003852	-0.125032	1.000000	0.000014	0.000356	0.000311
07163	-0.084093	0.088696	9.751750	0.012936	0.018841	-0.060199	1.000000	0.000019	0.000365	0.000300
07164	-0.082706	0.061085	9.720767	0.014040	-0.008497	-0.091391	1.000000	0.000009	0.000357	0.000304
07165	-0.081696	0.090153	9.722624	0.014988	0.020611	-0.089336	1.000000	0.000014	0.000358	0.000300
07166	-0.112090	0.062109	9.718214	-0.015427	-0.007444	-0.093644	1.000000	0.000011	0.000358	0.000296
07167	-0.116403	0.087671	9.778323	-0.019147	0.017737	-0.033313	1.000000	0.000008	0.000359	0.000300
07168	-0.079064	0.034859	9.660655	0.017053	-0.034158	-0.151721	1.000000	0.000006	0.000359	0.000297
07169	-0.084917	0.088034	9.751749	0.012087	0.018262	-0.060196	1.000000	0.000018	0.000359	0.000293
07170	-0.110135	0.063428	9.689083	-0.013657	-0.005862	-0.122782	1.000000	0.000001	0.000368	0.000290
07171	-0.085221	0.087742	9.751749	0.011804	0.018070	-0.060196	1.000000	0.000013	0.000353	0.000286
07172	-0.082743	0.089500	9.722621	0.014001	0.019940	-0.089333	1.000000	0.000011	0.000369	0.000283
07173	-0.084051	0.060136	9.720761	0.012771	-0.009360	-0.091390	1.000000	0.000008	0.000361	0.000287
07174	-0.081500	0.061669	9.691636	0.014966	-0.007489	-0.120527	1.000000	-0.000002	0.000362	0.000283
07175	-0.057742	0.056832	9.752443	0.039334	-0.012765	-0.059995	1.000000	0.000010	0.000362	0.000295
07176	-0.112487	0.090298	9.720064	-0.015744	0.020806	-0.091588	1.000000	0.000007	0.000362	0.000291
07177	-0.085574	0.030463	9.718899	0.011119	-0.038947	-0.093448	1.000000	0.000004	0.000355	0.000302
07178	-0.112780	0.090073	9.720062	-0.016025	0.020615	-0.091588	1.000000	0.000010	0.000371	0.000292
07179	-0.085079	0.059615	9.720755	0.011927	-0.009934	-0.091389	1.000000	0.000015	0.000378	0.000296
07180	-0.086315	0.030400	9.718893	0.010693	-0.039236	-0.093449	1.000000	0.000020	0.000371	0.000285
07181	-0.085299	0.059616	9.720754	0.011644	-0.010127	-0.091389	1.000000	0.000024	0.000371	0.000297
07182	-0.117232	0.059105	9.747318	-0.020020	-0.010944	-0.064512	1.000000	0.000030	0.000371	0.000293
07183	-0.084504	0.088760	9.722613	0.012454	0.018883	-0.089328	1.000000	0.000027	0.000372	0.000289
07184	-0.085668	0.059470	9.720751	0.011220	-0.010416	-0.091389	1.000000	0.000027	0.000372	0.000290
07185	-0.113737	0.089859	9.720053	-0.016871	0.020038	-0.091589	1.000000	0.000024	0.000365	0.000293
07186	-0.088528	0.057416	9.749876	0.008738	-0.012480	-0.062252	1.000000	0.000014	0.000381	0.000282
07187	-0.115348	0.060353	9.718187	-0.018244	-0.009357	-0.093650	1.000000	0.000026	0.000381	0.000294
07188	-0.086333	0.059101	9.720748	0.010797	-0.010702	-0.091389	1.000000	0.000024	0.000381	0.000291
07189	-0.056158	0.086915	9.725174	0.040932	0.017155	-0.087064	1.000000	0.000021	0.000373	0.000302
07190	-0.089111	0.057111	9.749873	0.008173	-0.012863	-0.062252	1.000000	0.000026	0.000374	0.000299
07191	-0.114691	0.089265	9.720048	-0.017713	0.019467	-0.091589	1.000000	0.000023	0.000374	0.000303
07192	-0.086845	0.058573	9.720746	0.010233	-0.011084	-0.091388	1.000000	0.000012	0.000382	0.000306
07193	-0.085901	0.087716	9.722610	0.011186	0.018024	-0.089325	1.000000	0.000025	0.000375	0.000303
07194	-0.087143	0.058353	9.720745	0.009951	-0.011275	-0.091388	1.000000	0.000007	0.000383	0.000299
07195	-0.116373	0.059453	9.718180	-0.019372	-0.010118	-0.093653	1.000000	0.000019	0.000368	0.000311
07196	-0.115201	0.088588	9.720048	-0.018419	0.018992	-0.091589	1.000000	0.000008	0.000360	0.000314
07197	-0.087285	0.057895	9.720746	0.009529	-0.011560	-0.091388	1.000000	0.000006	0.000369	0.000311
07198	-0.119233	0.057240	9.747305	-0.022141	-0.012374	-0.064518	1.000000	0.000003	0.000361	0.000307
07199	-0.116669	0.058854	9.718180	-0.019935	-0.010497	-0.093655	1.000000	0.000000	0.000362	0.000311
07200	-0.084943	0.059285	9.691621	0.011455	-0.009874	-0.120524	1.000000	0.000005	0.000354	0.000315
07201	-0.090290	0.055604	9.749871	0.006618	-0.013915	-0.062252	1.000000	-0.000006	0.000354	0.000326
07202	-0.091533	0.026238	9.748001	0.005380	-0.043214	-0.064318	1.000000	-0.000000	0.000355	0.000315
07203	-0.087944	0.057293	9.720744	0.008683	-0.012133	-0.091388	1.000000	0.000012	0.000355	0.000327
07204	-0.116075	0.087685	9.720045	-0.019544	0.018228	-0.091590	1.000000	0.000001	0.000347	0.000330
07205	-0.089705	0.084514	9.751737	0.007147	0.014904	-0.060186	1.000000	0.000006	0.000355	0.000335
07206	-0.119081	0.085695	9.749167	-0.022177	0.016065	-0.062455	1.000000	0.000003	0.000355	0.000339
07207	-0.056727	0.057346	9.694186	0.039653	-0.011797	-0.118254	1.000000	0.000001	0.000356	0.000335
07208	-0.116738	0.087241	9.720042	-0.020105	0.017849	-0.091591	1.000000	0.000006	0.000357	0.000332
07209	-0.086186	0.058313	9.691616	0.010192	-0.010731	-0.120524	1.000000	-0.000012	0.000357	0.000328
07210	-0.088980	0.056325	9.720740	0.007699	-0.012802	-0.091388	1.000000	-0.000007	0.000357	0.000332
07211	-0.091767	0.054633	9.749862	0.005206	-0.014873	-0.062253	1.000000	0.000005	0.000358	0.000329
07212	-0.118354	0.057582	9.718168	-0.021764	-0.011737	-0.093660	1.000000	-0.000005	0.000351	0.000332
07213	-0.089273	0.056100	9.720739	0.007277	-0.013089	-0.091388	1.000000	-0.000008	0.000351	0.000329
07214	-0.086780	0.057723	9.691615	0.009488	-0.011209	-0.120524	1.000000	-0.000010	0.000352	0.000325
07215	-0.056750	0.085534	9.696058	0.039627	0.016641	-0.116181	1.000000	-0.000013	0.000359	0.000329
07216	-0.119027	0.056920	9.718163	-0.022328	-0.012118	-0.093662	1.000000	-0.000016	0.000360	0.000325
07217	-0.091570	0.082961	9.751733	0.005455	0.013754	-0.060183	1.000000	-0.000018	0.000360	0.000329
07218	-0.090091	0.055512	9.720735	0.006572	-0.013565	-0.091388	1.000000	-0.000006	0.000353	0.000326
07219	-0.089139	0.084803	9.722607	0.007529	0.015542	-0.089317	1.000000	-0.000001	0.000361	0.000330
07220	-0.087815	0.057288	9.691608	0.008645	-0.011782	-0.120523	1.000000	-0.000003	0.000362	0.000311
07221	-0.092091	0.082819	9.751729	0.004890	0.013370	-0.060182	1.000000	-0.000006	0.000354	0.000323
07222	-0.090606	0.055215	9.720732	0.006003	-0.013949	-0.091389	1.000000	-0.000009	0.000354	0.000334
07223	-0.093397	0.053366	9.749854	0.003505	-0.016024	-0.062254	1.000000	-0.000005	0.000354	0.000338
07224	-0.089722	0.084350	9.722605	0.006821	0.015061	-0.089316	1.000000	-0.000005	0.000354	0.000338
07225	-0.088315	0.056978	9.691605	0.008081	-0.012163	-0.120523	1.000000	0.000008	0.000362	0.000343
07226	-0.120187	0.056540	9.718151	-0.023601	-0.012978	-0.093666	1.000000	0.000012	0.000346	0.000347
07227	-0.116368	0.087377	9.690905	-0.020283	0.018109	-0.120728	1.000000	0.000002	0.000340	0.000335
07228	-0.090011	0.084046	9.722605	0.006397	0.014774	-0.089315	1.000000	-0.000008	0.000347	0.000354
07229	-0.090231	0.083746	9.722606	0.006257	0.014678	-0.089315	1.000000	-0.000019	0.000348	0.000350
07230	-0.120636	0.055645	9.718151	-0.024165	-0.013363	-0.093668	1.000000	-0.000014	0.000348	0.000354
07231	-0.094282	0.052615	9.749849	0.002514	-0.016700	-0.062255	1.000000	-0.000008	0.000349	0.000335
07232	-0.088113	0.085390	9.693479	0.008198	0.016370	-0.118449	1.000000	-0.000002	0.000358	0.000317
07233	-0.089518	0.056190	9.691599	0.006958	-0.012928	-0.120524	1.000000	0.000003	0.000366	0.000299
07234	-0.095142	0.052445	9.749842	0.002093	-0.016985	-0.062255	1.000000	-0.000013	0.000376	0.000265
07235	-0.121897	0.055358	9.718137	-0.024866	-0.013837	-0.093670	1.000000	0.000001	0.000378	0.000216
07236	-0.090878	0.112411	9.724473	0.006375	0.043212	-0.087238	1.000000	-0.000016	0.000395	0.000197
07237	-0.090557	0.055531	9.691593	0.006396	-0.013307	-0.120524	1.000000	-0.000012	0.000379	0.000216
07238	-0.093131	0.053747	9.720716	0.003892	-0.015385	-0.091390	1.000000	-0.000012	0.000379	0.000216
07239	-0.032645	0.109526	9.729641	0.064456	0.040495	-0.082673	1.000000	-0.000022	0.000373	0.000189
07240	-0.151466	0.055904	9.715554	-0.054611	-0.012956	-0.095954	1.000000	-0.000024	0.000366	0.000185
07241	-0.094946	0.080614	9.751720	0.002346	0.011642	-0.060179	1.000000	-0.000034	0.000382	0.000181
07242	-0.123930	0.024920	9.716249	-0.026812	-0.043613	-0.095751	1.000000	-0.000045	0.000382	0.000185
07243	-0.090011	0.083727	9.693476	0.006797	0.015416	-0.118446	1.000000	-0.000039	0.000375	0.000174
07244	-0.121818	0.083201	9.720015	-0.024889	0.014601	-0.091596	1.000000	-0.000035	0.000367	0.000193
07245	-0.092808	0.081793	9.722598	0.004151	0.013242	-0.089312	1.000000	-0.000045	0.000376	0.000182
07246	-0.094125	0.052508	9.720713	0.002909	-0.016056	-0.091390	1.000000	-0.000033	0.000376	0.000186
07247	-0.091533	0.054356	9.691590	0.005136	-0.014167	-0.120524	1.000000	-0.000028	0.000368	0.000190
07248	-0.093245	0.081643	9.722595	0.003731	0.012953	-0.089311	1.000000	-0.000038	0.000376	0.000194
07249	-0.068061	0.049238	9.752418	0.029299	-0.019595	-0.059971	1.000000	-0.000034	0.000376	0.000206
07250	-0.122687	0.082672	9.720008	-0.025732	0.014025	-0.091598	1.000000	-0.000036	0.000369	0.000202
07251	-0.097440	0.050349	9.749830	-0.000165	-0.018524	-0.062258	1.000000	-0.000031	0.000377	0.000191
07252	-0.091251	0.083056	9.693471	0.005538	0.014552	-0.118444	1.000000	-0.000033	0.000378	0.000187
07253	-0.097894	0.050137	9.749827	-0.000446	-0.018717	-0.062258	1.000000	-0.000036	0.000386	0.000184
07254	-0.124609	0.053180	9.718115	-0.027396	-0.015561	-0.093680	1.000000	-0.000023	0.000386	0.000181
07255	-0.065349	0.079952	9.725176	0.031927	0.011013	-0.087022	1.000000	-0.000018	0.000387	0.000185
07256	-0.095743	0.051919	9.720700	0.001502	-0.017017	-0.091392	1.000000	-0.000021	0.000387	0.000189
07257	-0.064144	0.052290	9.694168	0.032913	-0.016392	-0.118236	1.000000	-0.000024	0.000395	0.000193
07258	-0.095244	0.080770	9.722583	0.002326	0.011991	-0.089310	1.000000	-0.000033	0.000411	0.000182
07259	-0.093897	0.053038	9.691575	0.003453	-0.015319	-0.120525	1.000000	-0.000045	0.000403	0.000201
07260	-0.095468	0.080170	9.722586	0.002044	0.011799	-0.089310	1.000000	-0.000055	0.000397	0.000189
07261	-0.096714	0.050883	9.720696	0.000798	-0.017499	-0.091393	1.000000	-0.000042	0.000404	0.000193
07262	-0.093169	0.081957	9.693462	0.004138	0.013595	-0.118442	1.000000	-0.000037	0.000405	0.000190
07263	-0.096061	0.080105	9.722581	0.001624	0.011510	-0.089309	1.000000	-0.000039	0.000413	0.000187
07264	-0.099974	0.048958	9.749812	-0.001998	-0.019777	-0.062260	1.000000	-0.000042	0.000406	0.000190
07265	-0.096282	0.079881	9.722580	0.001343	0.011318	-0.089309	1.000000	-0.000037	0.000406	0.000187
07266	-0.097603	0.050596	9.720689	0.000096	-0.017981	-0.091393	1.000000	-0.000039	0.000414	0.000183
07267	-0.100420	0.048738	9.749808	-0.002420	-0.020066	-0.062261	1.000000	-0.000035	0.000407	0.000187
07268	-0.067651	0.078330	9.725173	0.030103	0.009759	-0.087015	1.000000	-0.000045	0.000415	0.000176
07269	-0.094430	0.081305	9.693455	0.003160	0.012924	-0.118441	1.000000	-0.000032	0.000423	0.000188
07270	-0.097387	0.079592	9.722572	0.000644	0.010839	-0.089308	1.000000	-0.000027	0.000430	0.000193
07271	-0.098705	0.050228	9.720680	-0.000604	-0.018458	-0.091394	1.000000	-0.000038	0.000431	0.000197
07272	-0.068525	0.078027	9.725170	0.029543	0.009376	-0.087013	1.000000	-0.000033	0.000423	0.000201
07273	-0.101519	0.048287	9.749799	-0.003263	-0.020642	-0.062263	1.000000	-0.000028	0.000424	0.000205
07274	-0.097893	0.079136	9.722570	0.000083	0.010456	-0.089308	1.000000	-0.000039	0.000424	0.000209
07275	-0.098038	0.078909	9.722571	-0.000057	0.010360	-0.089308	1.000000	-0.000042	0.000424	0.000220
07276	-0.069109	0.077422	9.725170	0.028982	0.008993	-0.087011	1.000000	-0.000052	0.000433	0.000209
07277	-0.098415	0.078619	9.722569	-0.000338	0.010169	-0.089307	1.000000	-0.000039	0.000425	0.000205
07278	-0.101162	0.076831	9.751688	-0.002859	0.008081	-0.060175	1.000000	-0.000042	0.000426	0.000209
07279	-0.102410	0.047391	9.749794	-0.004109	-0.021216	-0.062264	1.000000	-0.000053	0.000426	0.000213
07280	-0.098709	0.078243	9.722569	-0.000759	0.009883	-0.089307	1.000000	-0.000053	0.000426	0.000213
07281	-0.098859	0.078172	9.722568	-0.000759	0.009883	-0.089307	1.000000	-0.000055	0.000434	0.000210
07282	-0.099010	0.078027	9.722568	-0.000900	0.009786	-0.089307	1.000000	-0.000058	0.000427	0.000206
07283	-0.101616	0.076088	9.751689	-0.003423	0.007696	-0.060175	1.000000	-0.000060	0.000412	0.000201
07284	-0.097431	0.050371	9.691554	0.000093	-0.017612	-0.120528	1.000000	-0.000056	0.000420	0.000221
07285	-0.103076	0.046716	9.749790	-0.004814	-0.021696	-0.062265	1.000000	-0.000059	0.000428	0.000218
07286	-0.100619	0.048433	9.720669	-0.002574	-0.019799	-0.091397	1.000000	-0.000054	0.000428	0.000222
07287	-0.099588	0.077569	9.722566	-0.001605	0.009306	-0.089307	1.000000	-0.000057	0.000420	0.000225
07288	-0.070506	0.076148	9.725170	0.027434	0.007934	-0.087005	1.000000	-0.000059	0.000421	0.000229
07289	-0.103515	0.046186	9.749788	-0.005381	-0.022084	-0.062267	1.000000	-0.000070	0.000414	0.000233
07290	-0.097056	0.078757	9.693450	0.000361	0.011011	-0.118438	1.000000	-0.000073	0.000407	0.000229
07291	-0.101059	0.047602	9.720669	-0.003276	-0.020281	-0.091398	1.000000	-0.000075	0.000422	0.000241
07292	-0.101350	0.047602	9.720666	-0.003418	-0.020375	-0.091399	1.000000	-0.000063	0.000422	0.000238
07293	-0.101500	0.047531	9.720664	-0.003559	-0.020470	-0.091399	1.000000	-0.000073	0.000423	0.000234
07294	-0.068715	0.077047	9.696052	0.028976	0.009355	-0.116133	1.000000	-0.000076	0.000423	0.000230
07295	-0.100627	0.076379	9.722564	-0.002730	0.008539	-0.089306	1.000000	-0.000078	0.000416	0.000226
07296	-0.101806	0.047015	9.720664	-0.003981	-0.020758	-0.091400	1.000000	-0.000081	0.000416	0.000230
07297	-0.104563	0.045072	9.749782	-0.006511	-0.022851	-0.062269	1.000000	-0.000084	0.000409	0.000226
07298	-0.071621	0.074654	9.725174	0.026029	0.006973	-0.087001	1.000000	-0.000087	0.000402	0.000237
07299	-0.129998	0.077047	9.719959	-0.032467	0.009431	-0.091612	1.000000	-0.000090	0.000402	0.000234
07300	-0.071914	0.074429	9.725173	0.025747	0.006780	-0.087000	1.000000	-0.000085	0.000410	0.000238
07301	-0.130442	0.076828	9.719955	-0.032749	0.009239	-0.091613	1.000000	-0.000095	0.000411	0.000234
07302	-0.072287	0.074059	9.725174	0.025467	0.006589	-0.086999	1.000000	-0.000098	0.000411	0.000238
07303	-0.101587	0.075259	9.722563	-0.003851	0.007771	-0.089306	1.000000	-0.000093	0.000412	0.000235
07304	-0.104420	0.073388	9.751680	-0.006384	0.005675	-0.060175	1.000000	-0.000095	0.000412	0.000239
07305	-0.072657	0.073761	9.725173	0.025045	0.006301	-0.086997	1.000000	-0.000098	0.000405	0.000235
07306	-0.104641	0.073087	9.751680	-0.006667	0.005485	-0.060176	1.000000	-0.000101	0.000412	0.000247
07307	-0.102169	0.074730	9.722561	-0.004415	0.007390	-0.089306	1.000000	-0.000104	0.000412	0.000258
07308	-0.074268	0.044238	9.723266	0.023508	-0.023186	-0.089093	1.000000	-0.000091	0.000413	0.000255
07309	-0.131539	0.076005	9.719947	-0.033873	0.008477	-0.091616	1.000000	-0.000094	0.000406	0.000251
07310	-0.077103	0.042366	9.752383	0.020832	-0.025380	-0.059963	1.000000	-0.000089	0.000406	0.000255
07311	-0.069656	0.104389	9.697958	0.027710	0.036928	-0.114027	1.000000	-0.000084	0.000406	0.000252
07312	-0.102826	0.074582	9.722555	-0.005119	0.006910	-0.089306	1.000000	-0.000087	0.000414	0.000256
07313	-0.071128	0.074949	9.696051	0.026314	0.007537	-0.116124	1.000000	-0.000090	0.000406	0.000267
07314	-0.106766	0.043262	9.749767	-0.008910	-0.024481	-0.062275	1.000000	-0.000093	0.000399	0.000263
07315	-0.100351	0.076075	9.693438	-0.003142	0.008629	-0.118436	1.000000	-0.000080	0.000399	0.000260
07316	-0.103180	0.074422	9.722553	-0.005679	0.006531	-0.089306	1.000000	-0.000068	0.000399	0.000272
07317	-0.076790	0.071344	9.754284	0.020960	0.003151	-0.057863	1.000000	-0.000071	0.000392	0.000261
07318	-0.104365	0.045059	9.720646	-0.007078	-0.022860	-0.091406	1.000000	-0.000074	0.000385	0.000264
07319	-0.100634	0.075994	9.693436	-0.003704	0.008248	-0.118436	1.000000	-0.000069	0.000385	0.000269
07320	-0.074247	0.072917	9.725167	0.022933	0.004865	-0.086991	1.000000	-0.000064	0.000378	0.000257
07321	-0.100781	0.075920	9.693435	-0.003985	0.008056	-0.118436	1.000000	-0.000067	0.000378	0.000269
07322	-0.103544	0.073969	9.722553	-0.006524	0.005956	-0.089306	1.000000	-0.000070	0.000371	0.000265
07323	-0.077310	0.070745	9.754285	0.020112	0.002573	-0.057861	1.000000	-0.000072	0.000387	0.000262
07324	-0.102807	0.103041	9.724458	-0.005689	0.034964	-0.087204	1.000000	-0.000059	0.000372	0.000258
07325	-0.104062	0.073902	9.722547	-0.006946	0.005669	-0.089306	1.000000	-0.000054	0.000387	0.000263
07326	-0.104281	0.073827	9.722546	-0.007087	0.005573	-0.089306	1.000000	-0.000057	0.000380	0.000266
07327	-0.075201	0.072394	9.725164	0.021949	0.004194	-0.086989	1.000000	-0.000060	0.000380	0.000270
07328	-0.076462	0.043032	9.723254	0.020692	-0.025101	-0.089092	1.000000	-0.000063	0.000381	0.000267
07329	-0.107194	0.071649	9.751663	-0.009910	0.003281	-0.060177	1.000000	-0.000058	0.000366	0.000270
07330	-0.101957	0.075106	9.693429	-0.005247	0.007198	-0.118436	1.000000	-0.000068	0.000382	0.000259
07331	-0.102113	0.074889	9.693429	-0.005387	0.007102	-0.118436	1.000000	-0.000071	0.000367	0.000255
07332	-0.075803	0.071655	9.725165	0.021245	0.003716	-0.086987	1.000000	-0.000074	0.000382	0.000267
07333	-0.105171	0.072936	9.722543	-0.008072	0.004906	-0.089307	1.000000	-0.000061	0.000375	0.000264
07334	-0.105245	0.072937	9.722542	-0.008216	0.004810	-0.089307	1.000000	-0.000064	0.000375	0.000260
07335	-0.109205	0.041850	9.749746	-0.011881	-0.026493	-0.062283	1.000000	-0.000059	0.000376	0.000257
07336	-0.073616	0.073459	9.696044	0.023084	0.005342	-0.116115	1.000000	-0.000046	0.000368	0.000261
07337	-0.105536	0.072938	9.722539	-0.008639	0.004524	-0.089307	1.000000	-0.000049	0.000368	0.000257
07338	-0.104569	0.102077	9.724450	-0.007659	0.033627	-0.087201	1.000000	-0.000044	0.000369	0.000261
07339	-0.079308	0.069631	9.754277	0.017850	0.001037	-0.057856	1.000000	-0.000054	0.000362	0.000250
07340	-0.105912	0.072571	9.722538	-0.009059	0.004236	-0.089307	1.000000	-0.000049	0.000370	0.000254
07341	-0.074279	0.073091	9.696042	0.022385	0.004863	-0.116113	1.000000	-0.000044	0.000370	0.000258
07342	-0.080935	0.040268	9.752361	0.016307	-0.028453	-0.059963	1.000000	-0.000039	0.000370	0.000262
07343	-0.103714	0.074369	9.693416	-0.007071	0.005958	-0.118436	1.000000	-0.000035	0.000370	0.000267
07344	-0.109186	0.070761	9.751648	-0.012029	0.001840	-0.060179	1.000000	-0.000035	0.000370	0.000266
07345	-0.081224	0.040188	9.752359	0.016026	-0.028647	-0.059963	1.000000	-0.000037	0.000370	0.000270
07346	-0.077553	0.071127	9.725155	0.019415	0.002466	-0.086983	1.000000	-0.000033	0.000371	0.000275
07347	-0.107888	0.043196	9.720616	-0.011022	-0.025541	-0.091417	1.000000	-0.000028	0.000363	0.000279
07348	-0.110815	0.041171	9.749731	-0.013574	-0.027649	-0.062289	1.000000	-0.000045	0.000379	0.000275
07349	-0.104521	0.073775	9.693412	-0.007771	0.005477	-0.118436	1.000000	-0.000045	0.000379	0.000275
07350	-0.110000	0.070089	9.751643	-0.012595	0.001456	-0.060180	1.000000	-0.000048	0.000379	0.000279
07351	-0.110149	0.069941	9.751643	-0.012736	0.001360	-0.060180	1.000000	-0.000051	0.000380	0.000275
07352	-0.078440	0.070383	9.725153	0.018709	0.001988	-0.086981	1.000000	-0.000046	0.000380	0.000287
07353	-0.081361	0.068576	9.754267	0.016156	-0.000120	-0.057853	1.000000	-0.000041	0.000388	0.000284
07354	-0.105327	0.073482	9.693405	-0.008335	0.005098	-0.118436	1.000000	-0.000036	0.000388	0.000273
07355	-0.108253	0.071527	9.722519	-0.010888	0.002989	-0.089309	1.000000	-0.000047	0.000396	0.000292
07356	-0.076540	0.071741	9.696034	0.020559	0.003617	-0.116108	1.000000	-0.000057	0.000389	0.000295
07357	-0.105689	0.072954	9.693405	-0.008757	0.004812	-0.118437	1.000000	-0.000045	0.000381	0.000292
07358	-0.079321	0.069784	9.725150	0.017865	0.001414	-0.086980	1.000000	-0.000055	0.000382	0.000288
07359	-0.082175	0.067902	9.754265	0.015309	-0.000696	-0.057852	1.000000	-0.000043	0.000382	0.000293
07360	-0.107567	0.100208	9.724436	-0.010469	0.031713	-0.087197	1.000000	-0.000046	0.000375	0.000296
07361	-0.075391	0.043888	9.665000	0.021151	-0.024043	-0.147347	1.000000	-0.000056	0.000383	0.000293
07362	-0.108912	0.070624	9.722519	-0.011874	0.002322	-0.089310	1.000000	-0.000051	0.000368	0.000296
07363	-0.108980	0.070620	9.722518	-0.012015	0.002226	-0.089310	1.000000	-0.000046	0.000376	0.000301
07364	-0.080055	0.069109	9.725149	0.017018	0.000837	-0.086978	1.000000	-0.000064	0.000376	0.000296
07365	-0.103935	0.073871	9.664286	-0.007463	0.006065	-0.147565	1.000000	-0.000052	0.000376	0.000301
07366	-0.083057	0.067148	9.754263	0.014319	-0.001370	-0.057850	1.000000	-0.000054	0.000377	0.000305
07367	-0.078905	0.041481	9.694112	0.017891	-0.026633	-0.118219	1.000000	-0.000049	0.000377	0.000301
07368	-0.081689	0.039596	9.723226	0.015330	-0.028745	-0.089092	1.000000	-0.000052	0.000370	0.000305
07369	-0.109866	0.069952	9.722513	-0.012861	0.001652	-0.089311	1.000000	-0.000055	0.000378	0.000302
07370	-0.083655	0.066782	9.754260	0.013752	-0.001754	-0.057850	1.000000	-0.000049	0.000378	0.000291
07371	-0.107528	0.071622	9.693395	-0.010723	0.003478	-0.118438	1.000000	-0.000053	0.000378	0.000302
07372	-0.081237	0.068367	9.725145	0.015891	0.000073	-0.086976	1.000000	-0.000055	0.000379	0.000298
07373	-0.110534	0.069663	9.722507	-0.013425	0.001272	-0.089311	1.000000	-0.000043	0.000379	0.000295
07374	-0.109091	0.042266	9.691469	-0.012272	-0.026007	-0.120555	1.000000	-0.000045	0.000380	0.000291
07375	-0.081679	0.068373	9.725141	0.015467	-0.000216	-0.086975	1.000000	-0.000033	0.000380	0.000296
07376	-0.078057	0.099470	9.697946	0.018875	0.030904	-0.113985	1.000000	-0.000028	0.000387	0.000300
07377	-0.111188	0.069663	9.722500	-0.013989	0.000886	-0.089312	1.000000	-0.000031	0.000380	0.000304
07378	-0.084979	0.066488	9.754251	0.012621	-0.002524	-0.057848	1.000000	-0.000025	0.000396	0.000294
07379	-0.114351	0.067786	9.751610	-0.016695	-0.001324	-0.060186	1.000000	-0.000020	0.000388	0.000298
07380	-0.108840	0.071480	9.693381	-0.011986	0.002621	-0.118439	1.000000	-0.000008	0.000373	0.000294
07381	-0.110510	0.098733	9.724419	-0.013423	0.029704	-0.087194	1.000000	-0.000026	0.000382	0.000290
07382	-0.083763	0.038721	9.723212	0.013356	-0.030085	-0.089093	1.000000	-0.000028	0.000375	0.000286
07383	-0.080073	0.069524	9.696022	0.016768	0.001038	-0.116100	1.000000	-0.000039	0.000383	0.000290
07384	-0.114952	0.067044	9.751608	-0.017402	-0.001804	-0.060187	1.000000	-0.000034	0.000391	0.000294
07385	-0.112456	0.068862	9.722491	-0.015116	0.000122	-0.089314	1.000000	-0.000028	0.000391	0.000283
07386	-0.083459	0.067421	9.725132	0.013921	-0.001275	-0.086973	1.000000	-0.000039	0.000392	0.000287
07387	-0.112834	0.068573	9.722489	-0.015394	-0.000073	-0.089314	1.000000	-0.000033	0.000400	0.000276
07388	-0.110256	0.070385	9.693373	-0.013108	0.001853	-0.118441	1.000000	-0.000029	0.000392	0.000295
07389	-0.054895	0.065900	9.727773	0.042673	-0.002861	-0.084631	1.000000	-0.000031	0.000408	0.000292
07390	-0.113418	0.068349	9.722483	-0.015814	-0.000361	-0.089315	1.000000	-0.000034	0.000401	0.000288
07391	-0.082748	0.039583	9.694087	0.014520	-0.028931	-0.118220	1.000000	-0.000029	0.000401	0.000285
07392	-0.116289	0.066385	9.751596	-0.018524	-0.002574	-0.060190	1.000000	-0.000032	0.000394	0.000288
07393	-0.113711	0.068124	9.722482	-0.016235	-0.000647	-0.089316	1.000000	-0.000027	0.000402	0.000293
07394	-0.052838	0.067271	9.698658	0.044402	-0.001320	-0.113753	1.000000	-0.000030	0.000395	0.000289
07395	-0.087432	0.064860	9.754240	0.010226	-0.004164	-0.057846	1.000000	-0.000025	0.000387	0.000293
07396	-0.112874	0.097183	9.724407	-0.015526	0.028262	-0.087193	1.000000	-0.000020	0.000395	0.000297
07397	-0.086201	0.037315	9.723196	0.011247	-0.031529	-0.089095	1.000000	-0.000030	0.000396	0.000293
07398	-0.117020	0.065856	9.751591	-0.019374	-0.003150	-0.060191	1.000000	-0.000026	0.000388	0.000305
07399	-0.085214	0.066293	9.725125	0.012092	-0.002522	-0.086971	1.000000	-0.000029	0.000388	0.000309
07400	-0.085292	0.066146	9.725125	0.011948	-0.002618	-0.086971	1.000000	-0.000031	0.000381	0.000297
07401	-0.114670	0.067381	9.722476	-0.017366	-0.001413	-0.089318	1.000000	-0.000025	0.000397	0.000287
07402	-0.084616	0.095221	9.727052	0.012798	0.026387	-0.084845	1.000000	-0.000029	0.000389	0.000298
07403	-0.082940	0.067672	9.696011	0.013961	-0.000881	-0.116096	1.000000	-0.000032	0.000375	0.000294
07404	-0.115940	0.037789	9.720546	-0.018920	-0.030899	-0.091444	1.000000	-0.000035	0.000375	0.000305
07405	-0.081954	0.096653	9.697942	0.014812	0.028125	-0.113969	1.000000	-0.000030	0.000375	0.000302
07406	-0.085955	0.065623	9.725123	0.011103	-0.003195	-0.086970	1.000000	-0.000025	0.000375	0.000306
07407	-0.115245	0.066922	9.722472	-0.018211	-0.001988	-0.089319	1.000000	-0.000020	0.000375	0.000310
07408	-0.088894	0.063797	9.754234	0.008385	-0.005415	-0.057845	1.000000	-0.000015	0.000368	0.000314
07409	-0.086242	0.065543	9.725121	0.010681	-0.003484	-0.086970	1.000000	-0.000018	0.000368	0.000303
07410	-0.115540	0.066774	9.722469	-0.018632	-0.002277	-0.089320	1.000000	-0.000013	0.000369	0.000307
07411	-0.085404	0.094604	9.727051	0.011534	0.025522	-0.084842	1.000000	-0.000016	0.000369	0.000318
07412	-0.084028	0.066992	9.696006	0.012695	-0.001742	-0.116094	1.000000	-0.000026	0.000377	0.000307
07413	-0.116055	0.066327	9.722466	-0.019057	-0.002563	-0.089321	1.000000	-0.000021	0.000369	0.000319
07414	-0.084171	0.066838	9.696006	0.012416	-0.001934	-0.116094	1.000000	-0.000021	0.000369	0.000319
07415	-0.113392	0.068067	9.693354	-0.016757	-0.000630	-0.118446	1.000000	-0.000024	0.000370	0.000323
07416	-0.087119	0.064865	9.725118	0.009836	-0.004060	-0.086969	1.000000	-0.000019	0.000370	0.000327
07417	-0.113758	0.067845	9.693351	-0.017037	-0.000822	-0.118447	1.000000	-0.000029	0.000378	0.000323
07418	-0.059480	0.033983	9.725836	0.037594	-0.034752	-0.086745	1.000000	-0.000032	0.000371	0.000319
07419	-0.086511	0.093636	9.727051	0.010548	0.024851	-0.084839	1.000000	-0.000027	0.000379	0.000324
07420	-0.115257	0.038261	9.691414	-0.018592	-0.030303	-0.120578	1.000000	-0.000031	0.000364	0.000335
07421	-0.089312	0.091581	9.756164	0.007826	0.022630	-0.055714	1.000000	-0.000033	0.000364	0.000323
07422	-0.088998	0.034839	9.723180	0.007858	-0.033832	-0.089099	1.000000	-0.000035	0.000365	0.000320
07423	-0.114430	0.066958	9.693349	-0.017878	-0.001394	-0.118448	1.000000	-0.000046	0.000365	0.000323
07424	-0.061824	0.060547	9.756883	0.035439	-0.008164	-0.055488	1.000000	-0.000041	0.000373	0.000328
07425	-0.116396	0.094196	9.724395	-0.019469	0.025581	-0.087193	1.000000	-0.000041	0.000373	0.000328
07426	-0.085719	0.065501	9.696002	0.011009	-0.002890	-0.116092	1.000000	-0.000036	0.000373	0.000332
07427	-0.088528	0.063678	9.725113	0.008425	-0.005017	-0.086968	1.000000	-0.000031	0.000366	0.000321
07428	-0.088753	0.063457	9.725112	0.008284	-0.005113	-0.086968	1.000000	-0.000049	0.000382	0.000332
07429	-0.089045	0.063307	9.725110	0.008143	-0.005209	-0.086968	1.000000	-0.000037	0.000382	0.000337
07430	-0.119395	0.035477	9.720513	-0.022307	-0.033196	-0.091459	1.000000	-0.000037	0.000381	0.000337
07431	-0.090870	0.090619	9.756159	0.006692	0.021858	-0.055711	1.000000	-0.000047	0.000390	0.000333
07432	-0.060346	0.061782	9.727767	0.037033	-0.006709	-0.084609	1.000000	-0.000041	0.000390	0.000330
07433	-0.118783	0.064322	9.722447	-0.021453	-0.004189	-0.089327	1.000000	-0.000045	0.000390	0.000341
07434	-0.089709	0.062861	9.725107	0.007577	-0.005593	-0.086968	1.000000	-0.000047	0.000383	0.000337
07435	-0.119002	0.064096	9.722446	-0.021736	-0.004380	-0.089327	1.000000	-0.000042	0.000391	0.000342
07436	-0.088863	0.091995	9.727045	0.008432	0.023414	-0.084833	1.000000	-0.000038	0.000383	0.000346
07437	-0.090142	0.062630	9.725105	0.007155	-0.005878	-0.086968	1.000000	-0.000048	0.000391	0.000357
07438	-0.122256	0.061818	9.751553	-0.024610	-0.006700	-0.060205	1.000000	-0.000058	0.000392	0.000346
07439	-0.088917	0.034734	9.694051	0.008181	-0.033233	-0.118226	1.000000	-0.000061	0.000392	0.000349
07440	-0.089527	0.091246	9.727046	0.007866	0.023028	-0.084832	1.000000	-0.000057	0.000392	0.000361
07441	-0.090662	0.061882	9.725105	0.006588	-0.006264	-0.086967	1.000000	-0.000067	0.000377	0.000357
07442	-0.113340	0.095922	9.666163	-0.016687	0.028214	-0.145440	1.000000	-0.000061	0.000393	0.000346
07443	-0.088223	0.063649	9.695992	0.008757	-0.004424	-0.116091	1.000000	-0.000049	0.000378	0.000342
07444	-0.093703	0.059984	9.754213	0.003715	-0.008591	-0.057844	1.000000	-0.000052	0.000378	0.000354
07445	-0.087225	0.092703	9.697935	0.009615	0.024582	-0.113953	1.000000	-0.000055	0.000379	0.000350
07446	-0.121540	0.033694	9.720492	-0.024427	-0.034632	-0.091469	1.000000	-0.000049	0.000379	0.000347
07447	-0.087523	0.092484	9.697934	0.009335	0.024392	-0.113952	1.000000	-0.000060	0.000380	0.000351
07448	-0.092769	0.032012	9.723155	0.004466	-0.036133	-0.089105	1.000000	-0.000062	0.000388	0.000347
07449	-0.120924	0.062311	9.722434	-0.023707	-0.005721	-0.089333	1.000000	-0.000073	0.000381	0.000358
07450	-0.089029	0.062750	9.695990	0.007775	-0.005091	-0.116090	1.000000	-0.000061	0.000373	0.000355
07451	-0.090785	0.090207	9.727044	0.006321	0.021972	-0.084828	1.000000	-0.000055	0.000381	0.000344
07452	-0.094892	0.059093	9.754207	0.002585	-0.009358	-0.057845	1.000000	-0.000058	0.000381	0.000356
07453	-0.118685	0.063993	9.693318	-0.021818	-0.004064	-0.118457	1.000000	-0.000054	0.000381	0.000360
07454	-0.118831	0.063843	9.693317	-0.021960	-0.004161	-0.118457	1.000000	-0.000064	0.000382	0.000363
07455	-0.094187	0.087920	9.756152	0.003301	0.019549	-0.055704	1.000000	-0.000059	0.000382	0.000368
07456	-0.092722	0.060541	9.725094	0.004473	-0.007706	-0.086967	1.000000	-0.000054	0.000382	0.000372
07457	-0.092869	0.060390	9.725093	0.004333	-0.007802	-0.086967	1.000000	-0.000065	0.000382	0.000375
07458	-0.061126	0.060762	9.698653	0.035820	-0.007170	-0.113720	1.000000	-0.000059	0.000383	0.000364
07459	-0.095771	0.058488	9.754202	0.001594	-0.010032	-0.057845	1.000000	-0.000047	0.000368	0.000361
07460	-0.119565	0.063475	9.693311	-0.022801	-0.004732	-0.118460	1.000000	-0.000049	0.000384	0.000358
07461	-0.093466	0.060253	9.725088	0.003772	-0.008182	-0.086967	1.000000	-0.000045	0.000384	0.000362
07462	-0.122755	0.061494	9.722416	-0.025540	-0.006962	-0.089338	1.000000	-0.000048	0.000384	0.000366
07463	-0.095363	0.087398	9.756146	0.002174	0.018783	-0.055703	1.000000	-0.000051	0.000384	0.000377
07464	-0.064752	0.058550	9.727759	0.032520	-0.009781	-0.084596	1.000000	-0.000054	0.000385	0.000381
07465	-0.091368	0.061634	9.695975	0.005669	-0.006520	-0.116089	1.000000	-0.000048	0.000393	0.000371
07466	-0.122280	0.090111	9.724361	-0.024960	0.021853	-0.087196	1.000000	-0.000066	0.000386	0.000366
07467	-0.092817	0.031987	9.694024	0.004247	-0.035908	-0.118233	1.000000	-0.000061	0.000394	0.000371
07468	-0.092882	0.032054	9.694023	0.004105	-0.036003	-0.118234	1.000000	-0.000049	0.000378	0.000382
07469	-0.093344	0.088708	9.727034	0.003790	0.020251	-0.084823	1.000000	-0.000044	0.000379	0.000371
07470	-0.095784	0.030221	9.723131	0.001362	-0.038236	-0.089113	1.000000	-0.000047	0.000380	0.000368
07471	-0.092037	0.061045	9.695973	0.004827	-0.007092	-0.116089	1.000000	-0.000057	0.000380	0.000371
07472	-0.095012	0.059059	9.725081	0.002225	-0.009232	-0.086968	1.000000	-0.000052	0.000388	0.000376
07473	-0.123308	0.089518	9.724354	-0.025942	0.021186	-0.087197	1.000000	-0.000055	0.000396	0.000372
07474	-0.095529	0.058915	9.725077	0.001944	-0.009424	-0.086968	1.000000	-0.000050	0.000396	0.000376
07475	-0.098504	0.057076	9.754183	-0.000661	-0.011564	-0.057847	1.000000	-0.000045	0.000404	0.000381
07476	-0.094747	0.087972	9.727027	0.002805	0.019581	-0.084821	1.000000	-0.000055	0.000397	0.000384
07477	-0.096039	0.058612	9.725073	0.001520	-0.009711	-0.086968	1.000000	-0.000050	0.000404	0.000389
07478	-0.067116	0.057217	9.727751	0.030546	-0.011126	-0.084591	1.000000	-0.000053	0.000405	0.000385
07479	-0.126700	0.030582	9.720437	-0.029080	-0.037779	-0.091494	1.000000	-0.000048	0.000405	0.000382
07480	-0.096560	0.058320	9.725070	0.001092	-0.009997	-0.086968	1.000000	-0.000058	0.000405	0.000385
07481	-0.124561	0.088553	9.724347	-0.027074	0.020422	-0.087199	1.000000	-0.000069	0.000391	0.000381
07482	-0.068715	0.027340	9.725796	0.028833	-0.040704	-0.086738	1.000000	-0.000064	0.000406	0.000386
07483	-0.096857	0.057947	9.725069	0.000668	-0.010285	-0.086969	1.000000	-0.000051	0.000391	0.000382
07484	-0.099686	0.056025	9.754177	-0.001942	-0.012426	-0.057848	1.000000	-0.000062	0.000399	0.000401
07485	-0.094382	0.059558	9.695960	0.002855	-0.008428	-0.116090	1.000000	-0.000057	0.000399	0.000390
07486	-0.100132	0.055806	9.754174	-0.002225	-0.012619	-0.057848	1.000000	-0.000060	0.000407	0.000394
07487	-0.096443	0.086783	9.727021	0.001250	0.018528	-0.084819	1.000000	-0.000055	0.000408	0.000391
07488	-0.068594	0.056175	9.727747	0.029131	-0.012086	-0.084588	1.000000	-0.000057	0.000408	0.000395
07489	-0.097884	0.057349	9.725062	-0.000180	-0.010861	-0.086969	1.000000	-0.000060	0.000408	0.000399
07490	-0.098183	0.057281	9.725060	-0.000321	-0.010959	-0.086969	1.000000	-0.000054	0.000424	0.000388
07491	-0.123634	0.089662	9.695222	-0.026012	0.021511	-0.116321	1.000000	-0.000050	0.000416	0.000392
07492	-0.100166	0.084650	9.756122	-0.001927	0.015998	-0.055698	1.000000	-0.000045	0.000424	0.000397
07493	-0.098768	0.057285	9.725054	-0.000743	-0.011244	-0.086970	1.000000	-0.000040	0.000425	0.000393
07494	-0.095001	0.088265	9.697903	0.002736	0.019905	-0.113938	1.000000	-0.000042	0.000425	0.000390
07495	-0.096228	0.058909	9.695945	0.001448	-0.009386	-0.116090	1.000000	-0.000045	0.000418	0.000386
07496	-0.097850	0.086127	9.727013	-0.000020	0.017662	-0.084817	1.000000	-0.000048	0.000411	0.000381
07497	-0.128292	0.058174	9.722365	-0.030478	-0.010305	-0.089355	1.000000	-0.000043	0.000419	0.000378
07498	-0.096452	0.058689	9.695944	0.001025	-0.009675	-0.116090	1.000000	-0.000038	0.000404	0.000382
07499	-0.099366	0.056618	9.725052	-0.001590	-0.011822	-0.086971	1.000000	-0.000056	0.000419	0.000394
07500	-0.098441	0.085606	9.727011	-0.000583	0.017280	-0.084817	1.000000	-0.000051	0.000412	0.000382
07501	-0.096899	0.058172	9.695943	0.000603	-0.009960	-0.116091	1.000000	-0.000054	0.000413	0.000379
07502	-0.099821	0.056182	9.725050	-0.002014	-0.012104	-0.086971	1.000000	-0.000056	0.000413	0.000375
07503	-0.099970	0.056034	9.725049	-0.002154	-0.012200	-0.086971	1.000000	-0.000059	0.000414	0.000379
07504	-0.094646	0.059651	9.666833	0.002655	-0.008189	-0.145211	1.000000	-0.000054	0.000421	0.000383
07505	-0.071272	0.054638	9.727736	0.026730	-0.013714	-0.084583	1.000000	-0.000049	0.000422	0.000365
07506	-0.099350	0.084959	9.727008	-0.001430	0.016713	-0.084816	1.000000	-0.000067	0.000416	0.000360
07507	-0.129793	0.056856	9.722353	-0.031890	-0.011252	-0.089361	1.000000	-0.000062	0.000423	0.000365
07508	-0.099564	0.084804	9.727007	-0.001711	0.016523	-0.084815	1.000000	-0.000050	0.000408	0.000376
07509	-0.101934	0.026383	9.723080	-0.004153	-0.041962	-0.089129	1.000000	-0.000052	0.000416	0.000373
07510	-0.070640	0.083248	9.729700	0.027177	0.015004	-0.082425	1.000000	-0.000063	0.000409	0.000376
07511	-0.102159	0.025934	9.723079	-0.004434	-0.042154	-0.089130	1.000000	-0.000066	0.000409	0.000380
07512	-0.101231	0.054996	9.725042	-0.003424	-0.013054	-0.086973	1.000000	-0.000068	0.000417	0.000377
07513	-0.101453	0.054772	9.725041	-0.003565	-0.013150	-0.086973	1.000000	-0.000079	0.000417	0.000388
07514	-0.071229	0.082571	9.729701	0.026613	0.014622	-0.082423	1.000000	-0.000067	0.000410	0.000385
07515	-0.101750	0.054550	9.725039	-0.003848	-0.013341	-0.086973	1.000000	-0.000084	0.000426	0.000381
07516	-0.101905	0.054256	9.725039	-0.003989	-0.013436	-0.086973	1.000000	-0.000087	0.000411	0.000377
07517	-0.104685	0.052257	9.754146	-0.006612	-0.015587	-0.057854	1.000000	-0.000090	0.000412	0.000373
07518	-0.129971	0.084572	9.724311	-0.032285	0.016897	-0.087208	1.000000	-0.000085	0.000404	0.000377
07519	-0.072981	0.052621	9.727735	0.024759	-0.015050	-0.084580	1.000000	-0.000088	0.000412	0.000389
07520	-0.102339	0.053875	9.725036	-0.004551	-0.013815	-0.086974	1.000000	-0.000083	0.000412	0.000393
07521	-0.101328	0.083081	9.727004	-0.003538	0.015284	-0.084814	1.000000	-0.000078	0.000412	0.000398
07522	-0.105487	0.051800	9.754140	-0.007319	-0.016061	-0.057856	1.000000	-0.000096	0.000421	0.000394
07523	-0.098927	0.084343	9.697899	-0.001336	0.017152	-0.113932	1.000000	-0.000107	0.000414	0.000397
07524	-0.076573	0.050018	9.756838	0.021565	-0.017584	-0.055460	1.000000	-0.000094	0.000414	0.000394
07525	-0.071156	0.053800	9.698625	0.026396	-0.013565	-0.113697	1.000000	-0.000089	0.000414	0.000398
07526	-0.104847	0.080632	9.756106	-0.006736	0.012748	-0.055695	1.000000	-0.000085	0.000414	0.000402
07527	-0.101740	0.025847	9.693953	-0.004210	-0.041620	-0.118256	1.000000	-0.000087	0.000414	0.000406
07528	-0.105213	0.080405	9.756104	-0.007019	0.012556	-0.055695	1.000000	-0.000090	0.000422	0.000410
07529	-0.105440	0.080109	9.756104	-0.007160	0.012460	-0.055695	1.000000	-0.000108	0.000423	0.000406
07530	-0.074828	0.051204	9.727728	0.023199	-0.016103	-0.084578	1.000000	-0.000103	0.000423	0.000395
07531	-0.074978	0.051284	9.727727	0.023059	-0.016199	-0.084577	1.000000	-0.000090	0.000424	0.000392
07532	-0.133557	0.053962	9.722318	-0.035417	-0.013630	-0.089376	1.000000	-0.000092	0.000439	0.000389
07533	-0.071485	0.082208	9.700592	0.026424	0.014865	-0.111531	1.000000	-0.000095	0.000425	0.000385
07534	-0.106198	0.079681	9.756100	-0.007866	0.011983	-0.055695	1.000000	-0.000098	0.000425	0.000389
07535	-0.104793	0.052260	9.725019	-0.006672	-0.015247	-0.086977	1.000000	-0.000092	0.000433	0.000378
07536	-0.074718	0.080136	9.729695	0.023512	0.012523	-0.082412	1.000000	-0.000088	0.000433	0.000382
07537	-0.105085	0.052109	9.725017	-0.006952	-0.015434	-0.086978	1.000000	-0.000099	0.000426	0.000393
07538	-0.105229	0.052033	9.725016	-0.007095	-0.015530	-0.086978	1.000000	-0.000086	0.000434	0.000391
07539	-0.101434	0.083177	9.697883	-0.003587	0.015630	-0.113930	1.000000	-0.000081	0.000427	0.000379
07540	-0.075308	0.079916	9.729693	0.022948	0.012139	-0.082410	1.000000	-0.000083	0.000443	0.000376
07541	-0.105831	0.051825	9.725010	-0.007517	-0.015817	-0.086979	1.000000	-0.000094	0.000435	0.000379
07542	-0.105907	0.051601	9.725011	-0.007660	-0.015909	-0.086979	1.000000	-0.000096	0.000436	0.000376
07543	-0.075759	0.079323	9.729694	0.022524	0.011855	-0.082409	1.000000	-0.000099	0.000436	0.000380
07544	-0.134187	0.081924	9.724277	-0.035952	0.014428	-0.087217	1.000000	-0.000094	0.000437	0.000376
07545	-0.078771	0.077239	9.758798	0.019747	0.009600	-0.053290	1.000000	-0.000105	0.000429	0.000380
07546	-0.105342	0.080287	9.726984	-0.007065	0.012902	-0.084812	1.000000	-0.000100	0.000445	0.000385
07547	-0.106792	0.051158	9.725003	-0.008363	-0.016387	-0.086981	1.000000	-0.000087	0.000445	0.000381
07548	-0.106865	0.051082	9.725003	-0.008503	-0.016483	-0.086981	1.000000	-0.000098	0.000438	0.000385
07549	-0.075007	0.051453	9.698609	0.023020	-0.015850	-0.113692	1.000000	-0.000092	0.000438	0.000381
07550	-0.105854	0.080064	9.726981	-0.007628	0.012518	-0.084812	1.000000	-0.000095	0.000431	0.000385
07551	-0.077945	0.049365	9.727713	0.020241	-0.018107	-0.084574	1.000000	-0.000098	0.000431	0.000389
07552	-0.107234	0.050557	9.725002	-0.009070	-0.016868	-0.086982	1.000000	-0.000101	0.000432	0.000385
07553	-0.081113	0.047363	9.756815	0.017458	-0.020366	-0.055457	1.000000	-0.000088	0.000440	0.000375
07554	-0.077309	0.078282	9.729690	0.020975	0.010797	-0.082404	1.000000	-0.000106	0.000432	0.000385
07555	-0.074662	0.079768	9.700588	0.023334	0.012767	-0.111520	1.000000	-0.000116	0.000441	0.000389
07556	-0.078839	0.048626	9.727710	0.019532	-0.018587	-0.084574	1.000000	-0.000104	0.000441	0.000386
07557	-0.106966	0.079251	9.726975	-0.008616	0.011848	-0.084812	1.000000	-0.000099	0.000441	0.000383
07558	-0.105477	0.051834	9.695890	-0.007418	-0.015374	-0.116101	1.000000	-0.000102	0.000441	0.000387
07559	-0.078040	0.077754	9.729688	0.020268	0.010319	-0.082402	1.000000	-0.000097	0.000433	0.000398
07560	-0.110122	0.077157	9.756076	-0.011541	0.009495	-0.055696	1.000000	-0.000100	0.000442	0.000395
07561	-0.107697	0.078953	9.726969	-0.009180	0.011466	-0.084812	1.000000	-0.000094	0.000457	0.000392
07562	-0.077138	0.050192	9.698599	0.021187	-0.017092	-0.113690	1.000000	-0.000098	0.000450	0.000403
07563	-0.111796	0.047801	9.754090	-0.013125	-0.019984	-0.057869	1.000000	-0.000085	0.000435	0.000400
07564	-0.075897	0.079391	9.700582	0.022067	0.011911	-0.111516	1.000000	-0.000088	0.000435	0.000396
07565	-0.111946	0.047652	9.754089	-0.013408	-0.020175	-0.057870	1.000000	-0.000091	0.000435	0.000400
07566	-0.106495	0.051156	9.695882	-0.008540	-0.016132	-0.116103	1.000000	-0.000101	0.000436	0.000404
07567	-0.079067	0.077004	9.729686	0.019143	0.009557	-0.082399	1.000000	-0.000101	0.000436	0.000404
07568	-0.080303	0.047722	9.727702	0.017980	-0.019635	-0.084573	1.000000	-0.000104	0.000436	0.000408
07569	-0.111229	0.076411	9.756070	-0.012671	0.008733	-0.055696	1.000000	-0.000091	0.000437	0.000397
07570	-0.108569	0.078348	9.726965	-0.010308	0.010707	-0.084813	1.000000	-0.000087	0.000436	0.000416
07571	-0.105839	0.080061	9.697862	-0.007942	0.012681	-0.113929	1.000000	-0.000097	0.000429	0.000404
07572	-0.079726	0.076628	9.729684	0.018577	0.009175	-0.082397	1.000000	-0.000100	0.000445	0.000416
07573	-0.110246	0.048690	9.724977	-0.011892	-0.018773	-0.086989	1.000000	-0.000095	0.000437	0.000420
07574	-0.080012	0.076471	9.729683	0.018295	0.008981	-0.082397	1.000000	-0.000098	0.000437	0.000424
07575	-0.107660	0.050405	9.695873	-0.009667	-0.016895	-0.116105	1.000000	-0.000093	0.000438	0.000421
07576	-0.080230	0.076396	9.729681	0.018013	0.008788	-0.082396	1.000000	-0.000088	0.000430	0.000425
07577	-0.109518	0.077747	9.726959	-0.011294	0.010035	-0.084813	1.000000	-0.000083	0.000439	0.000414
07578	-0.109817	0.077527	9.726957	-0.011437	0.009938	-0.084813	1.000000	-0.000101	0.000446	0.000425
07579	-0.111055	0.048169	9.724971	-0.012741	-0.019350	-0.086991	1.000000	-0.000089	0.000431	0.000421
07580	-0.112688	0.075502	9.756060	-0.014228	0.007677	-0.055698	1.000000	-0.000092	0.000431	0.000433
07581	-0.082055	0.046737	9.727692	0.016143	-0.020883	-0.084572	1.000000	-0.000087	0.000432	0.000430
07582	-0.079399	0.048534	9.698589	0.018516	-0.018907	-0.113688	1.000000	-0.000089	0.000432	0.000426
07583	-0.111496	0.047870	9.724967	-0.013302	-0.019732	-0.086992	1.000000	-0.000092	0.000433	0.000422
07584	-0.081343	0.075581	9.729679	0.016889	0.008022	-0.082393	1.000000	-0.000094	0.000434	0.000419
07585	-0.107898	0.078731	9.697850	-0.009905	0.011343	-0.113929	1.000000	-0.000089	0.000442	0.000415
07586	-0.109366	0.049309	9.695860	-0.011211	-0.017945	-0.116109	1.000000	-0.000107	0.000450	0.000411
07587	-0.083114	0.045942	9.727687	0.015301	-0.021459	-0.084572	1.000000	-0.000094	0.000435	0.000408
07588	-0.080453	0.047816	9.698584	0.017671	-0.019480	-0.113687	1.000000	-0.000097	0.000451	0.000405
07589	-0.111454	0.076352	9.726948	-0.012983	0.008888	-0.084814	1.000000	-0.000100	0.000443	0.000416
07590	-0.083481	0.045641	9.727685	0.014874	-0.021745	-0.084572	1.000000	-0.000103	0.000436	0.000412
07591	-0.081219	0.103977	9.731667	0.017065	0.036544	-0.080210	1.000000	-0.000098	0.000436	0.000416
07592	-0.112840	0.046843	9.724957	-0.014573	-0.020590	-0.086996	1.000000	-0.000101	0.000437	0.000412
07593	-0.085567	0.072753	9.758776	0.013102	0.005085	-0.053276	1.000000	-0.000096	0.000444	0.000417
07594	-0.084074	0.045197	9.727682	0.014311	-0.022128	-0.084572	1.000000	-0.000114	0.000438	0.000412
07595	-0.112189	0.075526	9.726946	-0.013829	0.008315	-0.084815	1.000000	-0.000109	0.000445	0.000432
07596	-0.080380	0.076044	9.700572	0.017713	0.008951	-0.111504	1.000000	-0.000104	0.000438	0.000421
07597	-0.112407	0.075451	9.726944	-0.014110	0.008126	-0.084815	1.000000	-0.000107	0.000438	0.000425
07598	-0.109743	0.077177	9.697842	-0.011736	0.010110	-0.113930	1.000000	-0.000110	0.000439	0.000421
07599	-0.084738	0.044673	9.727679	0.013604	-0.022602	-0.084572	1.000000	-0.000105	0.000439	0.000418
07600	-0.084885	0.044599	9.727678	0.013461	-0.022700	-0.084572	1.000000	-0.000107	0.000439	0.000422
07601	-0.080974	0.075603	9.700571	0.017007	0.008474	-0.111502	1.000000	-0.000107	0.000439	0.000422
07602	-0.082297	0.046179	9.698577	0.015840	-0.020720	-0.113687	1.000000	-0.000125	0.000448	0.000418
07603	-0.114328	0.045511	9.724946	-0.015985	-0.021545	-0.087000	1.000000	-0.000113	0.000433	0.000414
07604	-0.084087	0.073281	9.729673	0.014207	0.006205	-0.082388	1.000000	-0.000124	0.000440	0.000433
07605	-0.114618	0.045207	9.724944	-0.016266	-0.021734	-0.087001	1.000000	-0.000126	0.000441	0.000422
07606	-0.084463	0.072989	9.729672	0.013926	0.006013	-0.082387	1.000000	-0.000121	0.000442	0.000418
07607	-0.083365	0.102119	9.731668	0.014954	0.035109	-0.080201	1.000000	-0.000124	0.000434	0.000422
07608	-0.114919	0.044913	9.724941	-0.016689	-0.022020	-0.087002	1.000000	-0.000126	0.000435	0.000418
07609	-0.085858	0.043563	9.727674	0.012336	-0.023465	-0.084573	1.000000	-0.000114	0.000428	0.000407
07610	-0.113974	0.073975	9.726937	-0.015798	0.006980	-0.084817	1.000000	-0.000132	0.000436	0.000419
07611	-0.111304	0.075477	9.697838	-0.013415	0.008965	-0.113931	1.000000	-0.000142	0.000429	0.000422
07612	-0.057171	0.041536	9.730408	0.041080	-0.025104	-0.082141	1.000000	-0.000137	0.000437	0.000411
07613	-0.115596	0.044177	9.724937	-0.017389	-0.022499	-0.087005	1.000000	-0.000140	0.000430	0.000415
07614	-0.115667	0.044099	9.724936	-0.017531	-0.022594	-0.087005	1.000000	-0.000135	0.000430	0.000419
07615	-0.079864	0.075633	9.671471	0.017713	0.009313	-0.140612	1.000000	-0.000138	0.000430	0.000415
07616	-0.082759	0.073604	9.700571	0.015050	0.007138	-0.111498	1.000000	-0.000141	0.000423	0.000419
07617	-0.114861	0.073004	9.726934	-0.016780	0.006312	-0.084818	1.000000	-0.000136	0.000431	0.000424
07618	-0.084702	0.100629	9.731672	0.013412	0.034057	-0.080195	1.000000	-0.000154	0.000424	0.000419
07619	-0.088768	0.069390	9.758771	0.009575	0.002688	-0.053271	1.000000	-0.000142	0.000424	0.000431
07620	-0.115378	0.072482	9.726932	-0.017203	0.006027	-0.084818	1.000000	-0.000159	0.000440	0.000427
07621	-0.112849	0.074216	9.697830	-0.014816	0.008014	-0.113932	1.000000	-0.000147	0.000439	0.000440
07622	-0.085103	0.043651	9.698564	0.013038	-0.022625	-0.113687	1.000000	-0.000150	0.000448	0.000436
07623	-0.118864	0.070380	9.756025	-0.020151	0.003657	-0.055706	1.000000	-0.000150	0.000448	0.000436
07624	-0.084154	0.072712	9.700566	0.014067	0.006472	-0.111496	1.000000	-0.000152	0.000448	0.000433
07625	-0.089953	0.068799	9.758765	0.008869	0.002209	-0.053270	1.000000	-0.000155	0.000448	0.000436
07626	-0.116339	0.071892	9.726925	-0.017909	0.005549	-0.084819	1.000000	-0.000158	0.000441	0.000432
07627	-0.111935	0.046303	9.666722	-0.014162	-0.019570	-0.145237	1.000000	-0.000161	0.000441	0.000444
07628	-0.089151	0.097478	9.760770	0.009616	0.031111	-0.051077	1.000000	-0.000171	0.000450	0.000433
07629	-0.113962	0.073335	9.697823	-0.015800	0.007348	-0.113933	1.000000	-0.000158	0.000443	0.000429
07630	-0.058588	0.068727	9.732407	0.039856	0.002459	-0.079943	1.000000	-0.000161	0.000443	0.000433
07631	-0.143313	0.074543	9.695079	-0.045244	0.008512	-0.116372	1.000000	-0.000164	0.000443	0.000445
07632	-0.085111	0.071667	9.700565	0.012942	0.005708	-0.111494	1.000000	-0.000167	0.000436	0.000441
07633	-0.090843	0.067823	9.758763	0.007737	0.001441	-0.053269	1.000000	-0.000162	0.000436	0.000437
07634	-0.114547	0.072887	9.697820	-0.016503	0.006874	-0.113934	1.000000	-0.000164	0.000444	0.000434
07635	-0.089637	0.040285	9.727654	0.008814	-0.025855	-0.084575	1.000000	-0.000167	0.000444	0.000446
07636	-0.088537	0.069265	9.729663	0.009845	0.003242	-0.082381	1.000000	-0.000177	0.000438	0.000434
07637	-0.088540	0.069117	9.729664	0.009705	0.003146	-0.082381	1.000000	-0.000173	0.000430	0.000438
07638	-0.092623	0.037953	9.756753	0.005852	-0.028228	-0.055463	1.000000	-0.000175	0.000431	0.000426
07639	-0.115077	0.072153	9.697819	-0.017208	0.006399	-0.113935	1.000000	-0.000178	0.000431	0.000423
07640	-0.118057	0.070194	9.726916	-0.019885	0.004217	-0.084823	1.000000	-0.000173	0.000432	0.000419
07641	-0.064092	0.036307	9.759496	0.034591	-0.029871	-0.053021	1.000000	-0.000175	0.000448	0.000416
07642	-0.086608	0.070502	9.700561	0.011534	0.004757	-0.111492	1.000000	-0.000178	0.000440	0.000427
07643	-0.089433	0.068530	9.729660	0.008857	0.002573	-0.082380	1.000000	-0.000174	0.000432	0.000431
07644	-0.086753	0.070274	9.700561	0.011254	0.004567	-0.111491	1.000000	-0.000183	0.000441	0.000420
07645	-0.116041	0.071570	9.697812	-0.018049	0.005830	-0.113936	1.000000	-0.000171	0.000434	0.000417
07646	-0.088634	0.097445	9.731670	0.009612	0.031476	-0.080182	1.000000	-0.000181	0.000434	0.000420
07647	-0.088378	0.040703	9.698548	0.009659	-0.024912	-0.113688	1.000000	-0.000184	0.000442	0.000424
07648	-0.087417	0.069832	9.700558	0.010692	0.004184	-0.111491	1.000000	-0.000179	0.000442	0.000429
07649	-0.119533	0.069307	9.726905	-0.021150	0.003358	-0.084825	1.000000	-0.000174	0.000442	0.000425
07650	-0.088890	0.040480	9.698544	0.009235	-0.025196	-0.113689	1.000000	-0.000185	0.000443	0.000429
07651	-0.119833	0.068937	9.726904	-0.021432	0.003168	-0.084825	1.000000	-0.000187	0.000444	0.000425
07652	-0.061636	0.066129	9.732406	0.036754	0.000355	-0.079931	1.000000	-0.000183	0.000436	0.000429
07653	-0.090920	0.067347	9.729654	0.007450	0.001619	-0.082378	1.000000	-0.000193	0.000444	0.000426
07654	-0.120282	0.068570	9.726901	-0.021854	0.002881	-0.084826	1.000000	-0.000187	0.000445	0.000422
07655	-0.091222	0.067130	9.729653	0.007168	0.001425	-0.082378	1.000000	-0.000190	0.000438	0.000418
07656	-0.088460	0.068951	9.700555	0.009567	0.003420	-0.111489	1.000000	-0.000185	0.000438	0.000414
07657	-0.094284	0.065090	9.758749	0.004342	-0.000860	-0.053266	1.000000	-0.000188	0.000438	0.000418
07658	-0.091590	0.066907	9.729651	0.006743	0.001137	-0.082378	1.000000	-0.000183	0.000438	0.000423
07659	-0.088892	0.068721	9.700553	0.009147	0.003134	-0.111489	1.000000	-0.000186	0.000438	0.000434
07660	-0.093059	0.037472	9.727633	0.005282	-0.028246	-0.084579	1.000000	-0.000189	0.000439	0.000430
07661	-0.093212	0.037253	9.727633	0.005142	-0.028341	-0.084579	1.000000	-0.000199	0.000440	0.000426
07662	-0.092183	0.066311	9.729649	0.006179	0.000753	-0.082377	1.000000	-0.000194	0.000440	0.000423
07663	-0.092405	0.066238	9.729648	0.006039	0.000657	-0.082377	1.000000	-0.000197	0.000448	0.000427
07664	-0.092628	0.066091	9.729647	0.005897	0.000563	-0.082377	1.000000	-0.000199	0.000448	0.000424
07665	-0.123169	0.038187	9.724869	-0.024584	-0.027360	-0.087033	1.000000	-0.000194	0.000456	0.000421
07666	-0.063868	0.064582	9.732402	0.034776	-0.000993	-0.079924	1.000000	-0.000197	0.000449	0.000416
07667	-0.123391	0.037964	9.724867	-0.024868	-0.027552	-0.087034	1.000000	-0.000200	0.000449	0.000428
07668	-0.064008	0.064346	9.732403	0.034495	-0.001184	-0.079923	1.000000	-0.000195	0.000442	0.000432
07669	-0.090516	0.067538	9.700546	0.007741	0.002179	-0.111487	1.000000	-0.000198	0.000457	0.000437
07670	-0.093584	0.065494	9.729642	0.005053	-0.000013	-0.082377	1.000000	-0.000200	0.000450	0.000432
07671	-0.122722	0.066717	9.726883	-0.024249	0.001256	-0.084832	1.000000	-0.000203	0.000443	0.000428
07672	-0.094921	0.036072	9.727621	0.003592	-0.029394	-0.084582	1.000000	-0.000198	0.000451	0.000425
07673	-0.093888	0.065204	9.729641	0.004632	-0.000300	-0.082376	1.000000	-0.000201	0.000444	0.000421
07674	-0.119066	0.097601	9.699805	-0.020942	0.032256	-0.111737	1.000000	-0.000196	0.000444	0.000426
07675	-0.094109	0.065054	9.729640	0.004348	-0.000491	-0.082376	1.000000	-0.000198	0.000445	0.000422
07676	-0.094251	0.065051	9.729638	0.004207	-0.000585	-0.082376	1.000000	-0.000186	0.000444	0.000434
07677	-0.094324	0.064976	9.729638	0.004067	-0.000681	-0.082376	1.000000	-0.000196	0.000438	0.000422
07678	-0.068119	0.061560	9.761496	0.030536	-0.004239	-0.050808	1.000000	-0.000192	0.000438	0.000419
07679	-0.094627	0.064759	9.729636	0.003786	-0.000871	-0.082376	1.000000	-0.000194	0.000446	0.000423
07680	-0.094847	0.064610	9.729635	0.003644	-0.000966	-0.082376	1.000000	-0.000197	0.000446	0.000427
07681	-0.093810	0.093739	9.731658	0.004685	0.028128	-0.080168	1.000000	-0.000192	0.000447	0.000424
07682	-0.092142	0.066433	9.700538	0.005916	0.000940	-0.111486	1.000000	-0.000187	0.000432	0.000427
07683	-0.125241	0.036707	9.724848	-0.027122	-0.029077	-0.087044	1.000000	-0.000182	0.000425	0.000401
07684	-0.093967	0.093673	9.731657	0.004262	0.027839	-0.080167	1.000000	-0.000185	0.000441	0.000413
07685	-0.092516	0.066293	9.700536	0.005494	0.000654	-0.111485	1.000000	-0.000180	0.000433	0.000417
07686	-0.092587	0.066291	9.700535	0.005354	0.000560	-0.111485	1.000000	-0.000175	0.000433	0.000413
07687	-0.124720	0.065767	9.726864	-0.026503	-0.000267	-0.084837	1.000000	-0.000170	0.000434	0.000410
07688	-0.092883	0.066297	9.700532	0.005072	0.000371	-0.111485	1.000000	-0.000165	0.000434	0.000406
07689	-0.095734	0.064320	9.729629	0.002375	-0.001825	-0.082376	1.000000	-0.000168	0.000419	0.000410
07690	-0.092730	0.066138	9.700535	0.004792	0.000181	-0.111485	1.000000	-0.000164	0.000404	0.000413
07691	-0.124789	0.065612	9.726864	-0.027067	-0.000646	-0.084839	1.000000	-0.000158	0.000412	0.000403
07692	-0.098729	0.062264	9.758724	-0.000605	-0.004213	-0.053266	1.000000	-0.000161	0.000412	0.000414
07693	-0.091976	0.095187	9.702557	0.005556	0.029083	-0.109273	1.000000	-0.000157	0.000412	0.000426
07694	-0.067024	0.062627	9.732394	0.030833	-0.003674	-0.079911	1.000000	-0.000160	0.000412	0.000430
07695	-0.096301	0.063926	9.729626	0.001531	-0.002400	-0.082376	1.000000	-0.000155	0.000412	0.000434
07696	-0.096447	0.063926	9.729624	0.001391	-0.002495	-0.082376	1.000000	-0.000150	0.000413	0.000431
07697	-0.122873	0.067131	9.697759	-0.025350	0.000883	-0.113950	1.000000	-0.000153	0.000413	0.000435
07698	-0.095225	0.036484	9.698500	0.002484	-0.029772	-0.113698	1.000000	-0.000147	0.000429	0.000424
07699	-0.096007	0.092922	9.731644	0.002154	0.026407	-0.080162	1.000000	-0.000149	0.000430	0.000421
07700	-0.097341	0.063568	9.729618	0.000828	-0.002877	-0.082376	1.000000	-0.000153	0.000430	0.000432
07701	-0.094551	0.065390	9.700522	0.003250	-0.000869	-0.111484	1.000000	-0.000148	0.000422	0.000436
07702	-0.097553	0.063410	9.729616	0.000547	-0.003068	-0.082376	1.000000	-0.000151	0.000430	0.000440
07703	-0.094918	0.065167	9.700520	0.002970	-0.001059	-0.111484	1.000000	-0.000153	0.000431	0.000437
07704	-0.097931	0.063121	9.729615	0.000264	-0.003257	-0.082376	1.000000	-0.000156	0.000431	0.000425
07705	-0.098161	0.063057	9.729613	0.000124	-0.003353	-0.082376	1.000000	-0.000150	0.000440	0.000415
07706	-0.098314	0.062988	9.729612	-0.000018	-0.003447	-0.082376	1.000000	-0.000153	0.000433	0.000411
07707	-0.094259	0.094013	9.702546	0.003593	0.027752	-0.109268	1.000000	-0.000149	0.000425	0.000430
07708	-0.127438	0.064131	9.726840	-0.029457	-0.002264	-0.084846	1.000000	-0.000159	0.000418	0.000418
07709	-0.101164	0.060769	9.758708	-0.003003	-0.005839	-0.053268	1.000000	-0.000147	0.000410	0.000430
07710	-0.098373	0.062670	9.729613	-0.000580	-0.003829	-0.082376	1.000000	-0.000150	0.000411	0.000426
07711	-0.097330	0.091798	9.731642	0.000467	0.025264	-0.080159	1.000000	-0.000145	0.000411	0.000430
07712	-0.098587	0.062515	9.729612	-0.000864	-0.004015	-0.082376	1.000000	-0.000148	0.000403	0.000442
07713	-0.098654	0.062356	9.729612	-0.001004	-0.004111	-0.082376	1.000000	-0.000152	0.000403	0.000453
07714	-0.097609	0.091485	9.731642	0.000040	0.024980	-0.080158	1.000000	-0.000146	0.000403	0.000442
07715	-0.101886	0.060381	9.758703	-0.003857	-0.006412	-0.053268	1.000000	-0.000141	0.000411	0.000447
07716	-0.065995	0.091875	9.705321	0.031491	0.025522	-0.106792	1.000000	-0.000151	0.000405	0.000420
07717	-0.099186	0.062076	9.729609	-0.001567	-0.004495	-0.082376	1.000000	-0.000139	0.000397	0.000431
07718	-0.098066	0.091277	9.731639	-0.000520	0.024601	-0.080157	1.000000	-0.000141	0.000398	0.000420
07719	-0.070349	0.060546	9.732383	0.027311	-0.006059	-0.079902	1.000000	-0.000144	0.000406	0.000432
07720	-0.103758	0.030669	9.756667	-0.005752	-0.036077	-0.055489	1.000000	-0.000147	0.000406	0.000428
07721	-0.070644	0.060246	9.732383	0.027027	-0.006251	-0.079901	1.000000	-0.000150	0.000399	0.000432
07722	-0.097060	0.063389	9.700511	0.000298	-0.002862	-0.111484	1.000000	-0.000152	0.000407	0.000429
07723	-0.096094	0.092448	9.702543	0.001348	0.026231	-0.109264	1.000000	-0.000155	0.000408	0.000425
07724	-0.130628	0.033373	9.724790	-0.032900	-0.032973	-0.087075	1.000000	-0.000157	0.000409	0.000421
07725	-0.067260	0.090846	9.705322	0.030231	0.024664	-0.106786	1.000000	-0.000152	0.000409	0.000425
07726	-0.100596	0.061041	9.729601	-0.002831	-0.005353	-0.082377	1.000000	-0.000155	0.000409	0.000429
07727	-0.096607	0.092000	9.702542	0.000792	0.025850	-0.109262	1.000000	-0.000158	0.000402	0.000433
07728	-0.071611	0.059354	9.732381	0.026744	-0.009191	-0.079903	1.000000	-0.000044	0.000438	0.000343
07729	-0.103831	0.058678	9.758693	-0.005128	-0.010022	-0.053272	1.000000	-0.000047	0.000446	0.000355
07730	-0.102379	0.031315	9.727562	-0.003890	-0.037188	-0.084608	1.000000	-0.000042	0.000446	0.000344
07731	-0.100059	0.089714	9.731633	-0.001638	0.021090	-0.080149	1.000000	-0.000038	0.000438	0.000364
07732	-0.072185	0.059193	9.732378	0.026182	-0.009577	-0.079901	1.000000	-0.000025	0.000438	0.000363
07733	-0.101468	0.060585	9.729594	-0.003118	-0.008290	-0.082379	1.000000	-0.000027	0.000439	0.000351
07734	-0.069623	0.060894	9.703284	0.028475	-0.007652	-0.109007	1.000000	-0.000038	0.000440	0.000348
07735	-0.101774	0.060220	9.729594	-0.003398	-0.008483	-0.082380	1.000000	-0.000033	0.000440	0.000352
07736	-0.068724	0.089874	9.705321	0.029391	0.021343	-0.106775	1.000000	-0.000035	0.000441	0.000349
07737	-0.103189	0.030792	9.727555	-0.004878	-0.037863	-0.084611	1.000000	-0.000038	0.000433	0.000361
07738	-0.099268	0.061756	9.700499	-0.001246	-0.006654	-0.111486	1.000000	-0.000041	0.000441	0.000356
07739	-0.101164	0.088895	9.731629	-0.002765	0.020316	-0.080148	1.000000	-0.000044	0.000441	0.000367
07740	-0.099712	0.061387	9.700497	-0.001527	-0.006846	-0.111486	1.000000	-0.000054	0.000450	0.000356
07741	-0.131870	0.060792	9.726802	-0.033403	-0.007677	-0.084862	1.000000	-0.000041	0.000443	0.000352
07742	-0.105758	0.057490	9.758679	-0.006963	-0.011281	-0.053274	1.000000	-0.000044	0.000450	0.000356
07743	-0.103032	0.059330	9.729586	-0.004525	-0.009257	-0.082381	1.000000	-0.000044	0.000450	0.000356
07744	-0.101906	0.088530	9.731625	-0.003328	0.019930	-0.080147	1.000000	-0.000039	0.000451	0.000362
07745	-0.072923	0.087067	9.734412	0.025690	0.018445	-0.077664	1.000000	-0.000041	0.000451	0.000358
07746	-0.100601	0.061027	9.700490	-0.002227	-0.007330	-0.111487	1.000000	-0.000044	0.000459	0.000355
07747	-0.102358	0.088166	9.731624	-0.003748	0.019638	-0.080147	1.000000	-0.000046	0.000445	0.000351
07748	-0.103701	0.058813	9.729582	-0.005089	-0.009645	-0.082381	1.000000	-0.000049	0.000460	0.000361
07749	-0.075984	0.028144	9.730328	0.022730	-0.040317	-0.082132	1.000000	-0.000044	0.000452	0.000365
07750	-0.101109	0.060573	9.700487	-0.002790	-0.007712	-0.111487	1.000000	-0.000047	0.000453	0.000369
07751	-0.107011	0.056589	9.758671	-0.008093	-0.012056	-0.053276	1.000000	-0.000050	0.000453	0.000373
07752	-0.101330	0.060273	9.700487	-0.003068	-0.007907	-0.111488	1.000000	-0.000053	0.000446	0.000369
07753	-0.072271	0.058729	9.703278	0.025951	-0.009394	-0.109002	1.000000	-0.000056	0.000446	0.000381
07754	-0.103228	0.087330	9.731622	-0.004731	0.018961	-0.080146	1.000000	-0.000050	0.000447	0.000369
07755	-0.104581	0.058061	9.729577	-0.006071	-0.010323	-0.082383	1.000000	-0.000053	0.000447	0.000365
07756	-0.075524	0.056594	9.732368	0.022947	-0.011808	-0.079896	1.000000	-0.000048	0.000440	0.000370
07757	-0.130976	0.061145	9.697693	-0.032925	-0.006999	-0.113976	1.000000	-0.000059	0.000440	0.000374
07758	-0.074544	0.085416	9.734414	0.023865	0.017185	-0.077657	1.000000	-0.000062	0.000440	0.000375
07759	-0.106224	0.028259	9.727530	-0.007836	-0.039894	-0.084622	1.000000	-0.000064	0.000441	0.000372
07760	-0.075968	0.055917	9.732369	0.022382	-0.012195	-0.079895	1.000000	-0.000067	0.000434	0.000375
07761	-0.105247	0.057162	9.729575	-0.006916	-0.010901	-0.082384	1.000000	-0.000069	0.000442	0.000371
07762	-0.074989	0.084893	9.734415	0.023302	0.016797	-0.077655	1.000000	-0.000065	0.000427	0.000375
07763	-0.105468	0.057012	9.729573	-0.007197	-0.011095	-0.082384	1.000000	-0.000067	0.000443	0.000371
07764	-0.102732	0.058783	9.700481	-0.004751	-0.009063	-0.111489	1.000000	-0.000071	0.000427	0.000385
07765	-0.101677	0.087759	9.702530	-0.003688	0.020027	-0.109249	1.000000	-0.000080	0.000443	0.000381
07766	-0.106063	0.056494	9.729570	-0.007621	-0.011384	-0.082385	1.000000	-0.000075	0.000444	0.000376
07767	-0.103327	0.058420	9.700477	-0.005173	-0.009354	-0.111490	1.000000	-0.000070	0.000444	0.000373
07768	-0.076030	0.084231	9.734413	0.022457	0.016217	-0.077652	1.000000	-0.000073	0.000445	0.000370
07769	-0.104755	0.029076	9.698426	-0.006657	-0.038732	-0.113731	1.000000	-0.000073	0.000445	0.000370
07770	-0.076183	0.084163	9.734412	0.022317	0.016121	-0.077652	1.000000	-0.000067	0.000445	0.000359
07771	-0.106662	0.056284	9.729565	-0.008184	-0.011769	-0.082386	1.000000	-0.000070	0.000445	0.000370
07772	-0.074793	0.056661	9.703271	0.023422	-0.011133	-0.108997	1.000000	-0.000073	0.000446	0.000366
07773	-0.077751	0.054735	9.732361	0.020691	-0.013359	-0.079893	1.000000	-0.000060	0.000438	0.000370
07774	-0.108559	0.083480	9.760704	-0.009993	0.014996	-0.051040	1.000000	-0.000060	0.000438	0.000371
07775	-0.104063	0.057977	9.700472	-0.006014	-0.009932	-0.111491	1.000000	-0.000071	0.000439	0.000374
07776	-0.107094	0.055899	9.729562	-0.008746	-0.012158	-0.082387	1.000000	-0.000066	0.000439	0.000387
07777	-0.106037	0.085026	9.731612	-0.007682	0.016931	-0.080144	1.000000	-0.000068	0.000439	0.000375
07778	-0.074170	0.085481	9.705320	0.023929	0.017567	-0.106753	1.000000	-0.000064	0.000440	0.000381
07779	-0.108813	0.026553	9.727506	-0.010370	-0.041637	-0.084631	1.000000	-0.000059	0.000447	0.000386
07780	-0.080465	0.081488	9.763498	0.018460	0.013113	-0.048544	1.000000	-0.000068	0.000456	0.000374
07781	-0.137187	0.056861	9.726752	-0.038605	-0.011248	-0.084884	1.000000	-0.000064	0.000448	0.000385
07782	-0.079074	0.053987	9.732355	0.019567	-0.014136	-0.079892	1.000000	-0.000066	0.000456	0.000381
07783	-0.107221	0.084440	9.731604	-0.008525	0.016349	-0.080144	1.000000	-0.000069	0.000457	0.000385
07784	-0.076555	0.055619	9.703263	0.021881	-0.012197	-0.108995	1.000000	-0.000072	0.000457	0.000381
07785	-0.110409	0.082214	9.760694	-0.011401	0.014024	-0.051040	1.000000	-0.000075	0.000457	0.000393
07786	-0.047644	0.053915	9.706067	0.050755	-0.013788	-0.106496	1.000000	-0.000077	0.000450	0.000388
07787	-0.075720	0.084447	9.705317	0.022664	0.016697	-0.106748	1.000000	-0.000072	0.000458	0.000377
07788	-0.109096	0.054723	9.729547	-0.010438	-0.013321	-0.082390	1.000000	-0.000067	0.000451	0.000382
07789	-0.080042	0.053173	9.732351	0.018578	-0.014816	-0.079891	1.000000	-0.000077	0.000452	0.000378
07790	-0.106504	0.056284	9.700456	-0.008119	-0.011381	-0.111494	1.000000	-0.000079	0.000460	0.000376
07791	-0.106729	0.056064	9.700454	-0.008259	-0.011478	-0.111494	1.000000	-0.000090	0.000460	0.000379
07792	-0.109772	0.053909	9.729544	-0.010997	-0.013707	-0.082391	1.000000	-0.000093	0.000461	0.000383
07793	-0.107025	0.055691	9.700453	-0.008538	-0.011670	-0.111495	1.000000	-0.000095	0.000461	0.000379
07794	-0.110069	0.053687	9.729541	-0.011277	-0.013900	-0.082392	1.000000	-0.000090	0.000461	0.000383
07795	-0.106112	0.084743	9.702509	-0.007609	0.017323	-0.109246	1.000000	-0.000093	0.000462	0.000380
07796	-0.110289	0.053538	9.729540	-0.011555	-0.014092	-0.082392	1.000000	-0.000088	0.000455	0.000384
07797	-0.080172	0.081259	9.734405	0.018669	0.013597	-0.077640	1.000000	-0.000091	0.000470	0.000389
07798	-0.107907	0.055249	9.700446	-0.009235	-0.012150	-0.111496	1.000000	-0.000093	0.000471	0.000384
07799	-0.109749	0.082295	9.731594	-0.010768	0.014803	-0.080143	1.000000	-0.000104	0.000471	0.000388
07800	-0.080770	0.080743	9.734404	0.018249	0.013307	-0.077639	1.000000	-0.000099	0.000472	0.000385
07801	-0.112390	0.023675	9.727473	-0.013465	-0.043761	-0.084644	1.000000	-0.000101	0.000465	0.000381
07802	-0.110051	0.081850	9.731595	-0.011188	0.014512	-0.080143	1.000000	-0.000112	0.000465	0.000384
07803	-0.108573	0.054429	9.700443	-0.009933	-0.012634	-0.111497	1.000000	-0.000107	0.000472	0.000403
07804	-0.107516	0.083484	9.702505	-0.008866	0.016456	-0.109246	1.000000	-0.000117	0.000466	0.000375
07805	-0.082579	0.050802	9.732343	0.016336	-0.016365	-0.079889	1.000000	-0.000112	0.000466	0.000387
07806	-0.079896	0.052661	9.703253	0.018800	-0.014323	-0.108991	1.000000	-0.000114	0.000474	0.000383
07807	-0.108033	0.083267	9.702501	-0.009286	0.016168	-0.109246	1.000000	-0.000102	0.000474	0.000388
07808	-0.083161	0.050725	9.732338	0.015915	-0.016655	-0.079889	1.000000	-0.000105	0.000475	0.000392
07809	-0.082022	0.079771	9.734402	0.016985	0.012433	-0.077636	1.000000	-0.000108	0.000467	0.000395
07810	-0.112357	0.051975	9.729525	-0.013522	-0.015448	-0.082397	1.000000	-0.000095	0.000460	0.000393
07811	-0.082163	0.079842	9.734400	0.016704	0.012237	-0.077635	1.000000	-0.000090	0.000468	0.000397
07812	-0.111512	0.081176	9.731584	-0.012591	0.013544	-0.080144	1.000000	-0.000093	0.000468	0.000394
07813	-0.107133	0.055699	9.671342	-0.008726	-0.011459	-0.140602	1.000000	-0.000095	0.000476	0.000406
07814	-0.114857	0.079016	9.760669	-0.015479	0.011209	-0.051042	1.000000	-0.000090	0.000476	0.000402
07815	-0.081276	0.052207	9.703244	0.017542	-0.015197	-0.108990	1.000000	-0.000093	0.000477	0.000406
07816	-0.112174	0.080654	9.731581	-0.013150	0.013156	-0.080144	1.000000	-0.000103	0.000470	0.000402
07817	-0.080294	0.081114	9.705309	0.018475	0.013795	-0.106735	1.000000	-0.000090	0.000478	0.000392
07818	-0.113843	0.051247	9.729511	-0.014639	-0.016222	-0.082400	1.000000	-0.000108	0.000487	0.000389
07819	-0.082364	0.108084	9.736462	0.016800	0.040646	-0.075376	1.000000	-0.000096	0.000471	0.000400
07820	-0.109862	0.082150	9.702490	-0.011097	0.014913	-0.109246	1.000000	-0.000106	0.000479	0.000404
07821	-0.082170	0.051396	9.703241	0.016706	-0.015774	-0.108990	1.000000	-0.000101	0.000480	0.000400
07822	-0.113141	0.079992	9.731575	-0.013987	0.012578	-0.080144	1.000000	-0.000104	0.000480	0.000405
07823	-0.082469	0.051177	9.703239	0.016427	-0.015968	-0.108990	1.000000	-0.000106	0.000481	0.000393
07824	-0.082622	0.051109	9.703238	0.016287	-0.016065	-0.108990	1.000000	-0.000101	0.000481	0.000390
07825	-0.113516	0.079700	9.731573	-0.014407	0.012286	-0.080145	1.000000	-0.000104	0.000474	0.000401
07826	-0.108896	0.054369	9.671330	-0.010536	-0.012708	-0.140605	1.000000	-0.000092	0.000466	0.000413
07827	-0.113651	0.079615	9.731572	-0.014689	0.012093	-0.080145	1.000000	-0.000102	0.000474	0.000401
07828	-0.086119	0.048793	9.732322	0.013113	-0.018593	-0.079888	1.000000	-0.000104	0.000490	0.000398
07829	-0.115394	0.050056	9.729499	-0.016182	-0.017283	-0.082404	1.000000	-0.000107	0.000475	0.000402
07830	-0.085049	0.077763	9.734392	0.014045	0.010398	-0.077629	1.000000	-0.000103	0.000475	0.000406
07831	-0.112623	0.051918	9.700411	-0.013849	-0.015331	-0.111506	1.000000	-0.000097	0.000476	0.000403
07832	-0.112694	0.051765	9.700411	-0.013991	-0.015428	-0.111506	1.000000	-0.000108	0.000468	0.000414
07833	-0.085338	0.077457	9.734392	0.013622	0.010106	-0.077628	1.000000	-0.000103	0.000469	0.000411
07834	-0.114538	0.078643	9.731569	-0.015672	0.011417	-0.080145	1.000000	-0.000122	0.000461	0.000422
07835	-0.085557	0.077001	9.734394	0.013342	0.009912	-0.077627	1.000000	-0.000117	0.000469	0.000426
07836	-0.086992	0.047879	9.732319	0.011987	-0.019369	-0.079888	1.000000	-0.000104	0.000469	0.000423
07837	-0.112055	0.080507	9.702478	-0.013474	0.013273	-0.109246	1.000000	-0.000099	0.000462	0.000427
07838	-0.087129	0.047870	9.732318	0.011704	-0.019563	-0.079888	1.000000	-0.000102	0.000462	0.000439
07839	-0.113481	0.051225	9.700405	-0.014971	-0.016104	-0.111509	1.000000	-0.000090	0.000462	0.000435
07840	-0.113619	0.051294	9.700403	-0.015110	-0.016199	-0.111509	1.000000	-0.000085	0.000462	0.000455
07841	-0.083336	0.079065	9.705300	0.015121	0.011478	-0.106726	1.000000	-0.000081	0.000454	0.000459
07842	-0.086410	0.076906	9.734387	0.012358	0.009233	-0.077625	1.000000	-0.000098	0.000463	0.000440
07843	-0.119834	0.046816	9.758574	-0.020773	-0.020785	-0.053310	1.000000	-0.000108	0.000456	0.000443
07844	-0.112704	0.079824	9.702476	-0.014455	0.012598	-0.109247	1.000000	-0.000096	0.000441	0.000439
07845	-0.084873	0.049136	9.703229	0.013343	-0.018094	-0.108989	1.000000	-0.000106	0.000449	0.000435
07846	-0.086800	0.076172	9.734389	0.011799	0.008846	-0.077624	1.000000	-0.000108	0.000450	0.000431
07847	-0.114375	0.050189	9.700399	-0.016090	-0.016875	-0.111512	1.000000	-0.000111	0.000450	0.000435
07848	-0.090016	0.074004	9.763474	0.008896	0.006503	-0.048524	1.000000	-0.000106	0.000451	0.000431
07849	-0.091310	0.044807	9.761398	0.007538	-0.022778	-0.050789	1.000000	-0.000106	0.000451	0.000431
07850	-0.113530	0.079095	9.702473	-0.015152	0.012118	-0.109247	1.000000	-0.000124	0.000459	0.000428
07851	-0.088696	0.046311	9.732311	0.010021	-0.020725	-0.079889	1.000000	-0.000119	0.000452	0.000432
07852	-0.113674	0.078868	9.702473	-0.015432	0.011925	-0.109248	1.000000	-0.000114	0.000444	0.000436
07853	-0.058416	0.074082	9.737218	0.040111	0.006853	-0.075098	1.000000	-0.000109	0.000445	0.000432
07854	-0.087689	0.075504	9.734387	0.010818	0.008168	-0.077623	1.000000	-0.000104	0.000445	0.000428
07855	-0.089057	0.046232	9.732309	0.009460	-0.021113	-0.079889	1.000000	-0.000107	0.000446	0.000432
07856	-0.117185	0.076703	9.731553	-0.018614	0.009390	-0.080148	1.000000	-0.000109	0.000454	0.000429
07857	-0.085439	0.077015	9.705298	0.013026	0.010030	-0.106721	1.000000	-0.000119	0.000462	0.000426
07858	-0.088503	0.075138	9.734382	0.010259	0.007781	-0.077622	1.000000	-0.000092	0.000454	0.000438
07859	-0.092789	0.044216	9.761387	0.006273	-0.023651	-0.050790	1.000000	-0.000086	0.000462	0.000427
07860	-0.117996	0.076714	9.731544	-0.019174	0.009003	-0.080149	1.000000	-0.000089	0.000463	0.000423
07861	-0.061112	0.044600	9.735133	0.037773	-0.023107	-0.077361	1.000000	-0.000084	0.000463	0.000435
07862	-0.119430	0.047436	9.729464	-0.020674	-0.020374	-0.082419	1.000000	-0.000084	0.000463	0.000435
07863	-0.089085	0.075139	9.734377	0.009699	0.007394	-0.077621	1.000000	-0.000087	0.000456	0.000431
07864	-0.090386	0.045872	9.732298	0.008340	-0.021884	-0.079890	1.000000	-0.000082	0.000457	0.000420
07865	-0.089394	0.075080	9.734374	0.009420	0.007202	-0.077620	1.000000	-0.000076	0.000465	0.000410
07866	-0.118586	0.076496	9.731538	-0.019874	0.008521	-0.080150	1.000000	-0.000072	0.000449	0.000428
07867	-0.122732	0.045119	9.758546	-0.023865	-0.022913	-0.053322	1.000000	-0.000090	0.000450	0.000424
07868	-0.089610	0.074698	9.734375	0.008998	0.006911	-0.077620	1.000000	-0.000077	0.000450	0.000420
07869	-0.093980	0.043476	9.761379	0.005005	-0.024523	-0.050791	1.000000	-0.000088	0.000458	0.000432
07870	-0.119174	0.075895	9.731536	-0.020435	0.008136	-0.080151	1.000000	-0.000083	0.000459	0.000429
07871	-0.117616	0.048651	9.700369	-0.019164	-0.018989	-0.111521	1.000000	-0.000077	0.000459	0.000425
07872	-0.090419	0.074403	9.734370	0.008437	0.006526	-0.077619	1.000000	-0.000080	0.000467	0.000429
07873	-0.120915	0.046404	9.729450	-0.022077	-0.021336	-0.082424	1.000000	-0.000091	0.000460	0.000433
07874	-0.055808	0.076513	9.679040	0.042577	0.009226	-0.133282	1.000000	-0.000085	0.000476	0.000422
07875	-0.093875	0.072164	9.763452	0.005383	0.004080	-0.048520	1.000000	-0.000073	0.000461	0.000418
07876	-0.090944	0.074115	9.734367	0.007877	0.006141	-0.077618	1.000000	-0.000075	0.000461	0.000415
07877	-0.118579	0.048293	9.700359	-0.020004	-0.019565	-0.111524	1.000000	-0.000063	0.000469	0.000420
07878	-0.091378	0.074189	9.734363	0.007595	0.005947	-0.077618	1.000000	-0.000058	0.000469	0.000424
07879	-0.092673	0.044913	9.732281	0.006233	-0.023333	-0.079892	1.000000	-0.000061	0.000462	0.000428
07880	-0.092748	0.044763	9.732281	0.006094	-0.023431	-0.079892	1.000000	-0.000063	0.000462	0.000424
07881	-0.091751	0.073894	9.734361	0.007177	0.005655	-0.077617	1.000000	-0.000058	0.000471	0.000413
07882	-0.119243	0.047926	9.700352	-0.020700	-0.020048	-0.111527	1.000000	-0.000068	0.000456	0.000416
07883	-0.091829	0.073367	9.734365	0.006899	0.005460	-0.077617	1.000000	-0.000087	0.000457	0.000427
07884	-0.090341	0.046050	9.703195	0.008172	-0.021662	-0.108990	1.000000	-0.000066	0.000464	0.000417
07885	-0.092272	0.073373	9.734360	0.006618	0.005266	-0.077617	1.000000	-0.000068	0.000465	0.000421
07886	-0.093647	0.044105	9.732275	0.005255	-0.024013	-0.079893	1.000000	-0.000063	0.000466	0.000410
07887	-0.090937	0.045915	9.703190	0.007754	-0.021951	-0.108991	1.000000	-0.000073	0.000474	0.000414
07888	-0.092798	0.073010	9.734358	0.006201	0.004975	-0.077616	1.000000	-0.000073	0.000474	0.000414
07889	-0.117904	0.105587	9.704513	-0.019087	0.037738	-0.106976	1.000000	-0.000068	0.000482	0.000418
07890	-0.090156	0.074742	9.705273	0.008699	0.007037	-0.106714	1.000000	-0.000086	0.000475	0.000413
07891	-0.094471	0.043369	9.732271	0.004694	-0.024402	-0.079893	1.000000	-0.000081	0.000483	0.000418
07892	-0.061326	0.073091	9.708119	0.037571	0.005423	-0.104173	1.000000	-0.000077	0.000475	0.000422
07893	-0.122579	0.073985	9.731508	-0.023514	0.006010	-0.080156	1.000000	-0.000072	0.000475	0.000426
07894	-0.094830	0.043287	9.732268	0.004273	-0.024691	-0.079894	1.000000	-0.000074	0.000476	0.000423
07895	-0.093752	0.072336	9.734354	0.005359	0.004395	-0.077616	1.000000	-0.000077	0.000476	0.000426
07896	-0.093897	0.072258	9.734353	0.005219	0.004299	-0.077615	1.000000	-0.000072	0.000476	0.000431
07897	-0.092327	0.044864	9.703182	0.006496	-0.022820	-0.108992	1.000000	-0.000083	0.000476	0.000442
07898	-0.123381	0.073458	9.731502	-0.024215	0.005529	-0.080158	1.000000	-0.000070	0.000484	0.000439
07899	-0.094485	0.071885	9.734350	0.004796	0.004008	-0.077615	1.000000	-0.000088	0.000485	0.000435
07900	-0.092775	0.044497	9.703179	0.006075	-0.023107	-0.108992	1.000000	-0.000076	0.000470	0.000431
07901	-0.091617	0.073692	9.705268	0.007162	0.005978	-0.106712	1.000000	-0.000078	0.000478	0.000435
07902	-0.120958	0.075047	9.702415	-0.022133	0.007307	-0.109256	1.000000	-0.000073	0.000478	0.000439
07903	-0.062861	0.072039	9.708118	0.036030	0.004361	-0.104167	1.000000	-0.000083	0.000479	0.000435
07904	-0.095005	0.071287	9.734350	0.004091	0.003527	-0.077615	1.000000	-0.000087	0.000471	0.000438
07905	-0.092206	0.073095	9.705267	0.006597	0.005593	-0.106711	1.000000	-0.000089	0.000479	0.000443
07906	-0.096603	0.041715	9.732257	0.002582	-0.025850	-0.079896	1.000000	-0.000100	0.000480	0.000446
07907	-0.089702	0.074682	9.676183	0.008965	0.007563	-0.135808	1.000000	-0.000095	0.000488	0.000451
07908	-0.095742	0.070765	9.734346	0.003530	0.003137	-0.077614	1.000000	-0.000089	0.000481	0.000439
07909	-0.124939	0.072199	9.731491	-0.025761	0.004466	-0.080161	1.000000	-0.000084	0.000481	0.000443
07910	-0.097270	0.041575	9.732251	0.002022	-0.026239	-0.079897	1.000000	-0.000079	0.000489	0.000433
07911	-0.067142	0.069270	9.737197	0.032261	0.001419	-0.075066	1.000000	-0.000082	0.000490	0.000437
07912	-0.093458	0.072659	9.705258	0.005619	0.004915	-0.106710	1.000000	-0.000069	0.000489	0.000441
07913	-0.099425	0.068660	9.763422	0.000179	0.000486	-0.048518	1.000000	-0.000080	0.000482	0.000444
07914	-0.094906	0.043311	9.703164	0.004110	-0.024459	-0.108994	1.000000	-0.000067	0.000490	0.000441
07915	-0.127204	0.042640	9.729387	-0.027831	-0.025295	-0.082448	1.000000	-0.000085	0.000491	0.000437
07916	-0.069185	0.039552	9.735101	0.030329	-0.028246	-0.077349	1.000000	-0.000080	0.000499	0.000442
07917	-0.094344	0.072145	9.705253	0.004919	0.004433	-0.106710	1.000000	-0.000075	0.000499	0.000438
07918	-0.124774	0.044311	9.700300	-0.025600	-0.023416	-0.111546	1.000000	-0.000077	0.000492	0.000434
07919	-0.094496	0.072000	9.705253	0.004641	0.004241	-0.106709	1.000000	-0.000072	0.000493	0.000430
07920	-0.065524	0.070495	9.708111	0.033651	0.002715	-0.104158	1.000000	-0.000075	0.000493	0.000427
07921	-0.097747	0.069970	9.734332	0.001707	0.001879	-0.077613	1.000000	-0.000062	0.000494	0.000423
07922	-0.097973	0.069827	9.734331	0.001565	0.001781	-0.077613	1.000000	-0.000079	0.000502	0.000419
07923	-0.095319	0.071571	9.705248	0.004079	0.003852	-0.106709	1.000000	-0.000074	0.000510	0.000424
07924	-0.099802	0.040418	9.732230	0.000055	-0.027596	-0.079901	1.000000	-0.000069	0.000518	0.000413
07925	-0.095763	0.071580	9.705244	0.003801	0.003657	-0.106709	1.000000	-0.000064	0.000511	0.000417
07926	-0.098859	0.069688	9.734323	0.001004	0.001391	-0.077613	1.000000	-0.000051	0.000518	0.000421
07927	-0.099077	0.069764	9.734320	0.000864	0.001294	-0.077613	1.000000	-0.000046	0.000519	0.000418
07928	-0.071337	0.039137	9.735087	0.028643	-0.029411	-0.077347	1.000000	-0.000041	0.000519	0.000415
07929	-0.128346	0.071126	9.731455	-0.028565	0.002535	-0.080168	1.000000	-0.000044	0.000504	0.000418
07930	-0.099378	0.069471	9.734319	0.000444	0.001010	-0.077613	1.000000	-0.000054	0.000521	0.000407
07931	-0.100981	0.040129	9.732219	-0.000929	-0.028269	-0.079903	1.000000	-0.000050	0.000528	0.000427
07932	-0.096931	0.071285	9.705234	0.002824	0.002987	-0.106708	1.000000	-0.000044	0.000521	0.000416
07933	-0.097081	0.071215	9.705233	0.002685	0.002890	-0.106708	1.000000	-0.000047	0.000529	0.000420
07934	-0.126420	0.072576	9.702364	-0.026606	0.004226	-0.109265	1.000000	-0.000042	0.000529	0.000424
07935	-0.097448	0.070991	9.705231	0.002404	0.002697	-0.106708	1.000000	-0.000052	0.000530	0.000420
07936	-0.097672	0.070771	9.705230	0.002266	0.002601	-0.106708	1.000000	-0.000055	0.000538	0.000424
07937	-0.099126	0.041349	9.703130	0.000893	-0.026677	-0.108999	1.000000	-0.000066	0.000538	0.000436
07938	-0.071803	0.067062	9.737179	0.028476	-0.001199	-0.075054	1.000000	-0.000053	0.000531	0.000432
07939	-0.100924	0.068577	9.734310	-0.000814	0.000137	-0.077613	1.000000	-0.000048	0.000524	0.000421
07940	-0.070228	0.039765	9.705998	0.029622	-0.028401	-0.106440	1.000000	-0.000058	0.000532	0.000424
07941	-0.127528	0.071690	9.702356	-0.027583	0.003550	-0.109268	1.000000	-0.000053	0.000539	0.000429
07942	-0.101590	0.068209	9.734305	-0.001237	-0.000153	-0.077613	1.000000	-0.000056	0.000540	0.000433
07943	-0.101734	0.068132	9.734304	-0.001377	-0.000250	-0.077613	1.000000	-0.000051	0.000540	0.000437
07944	-0.098916	0.070025	9.705223	0.001147	0.001828	-0.106708	1.000000	-0.000054	0.000540	0.000433
07945	-0.102106	0.067988	9.734301	-0.001657	-0.000443	-0.077613	1.000000	-0.000048	0.000549	0.000430
07946	-0.096393	0.071925	9.676139	0.003532	0.003809	-0.135802	1.000000	-0.000043	0.000549	0.000434
07947	-0.104134	0.095070	9.765481	-0.003366	0.026368	-0.046225	1.000000	-0.000053	0.000542	0.000422
07948	-0.105448	0.065650	9.763380	-0.004743	-0.002909	-0.048519	1.000000	-0.000056	0.000542	0.000434
07949	-0.071846	0.038873	9.705990	0.028362	-0.029273	-0.106439	1.000000	-0.000051	0.000550	0.000438
07950	-0.128920	0.070950	9.702344	-0.028843	0.002684	-0.109271	1.000000	-0.000047	0.000535	0.000434
07951	-0.073650	0.066023	9.737172	0.026649	-0.002462	-0.075049	1.000000	-0.000049	0.000536	0.000430
07952	-0.104160	0.038125	9.732194	-0.003876	-0.030302	-0.079910	1.000000	-0.000052	0.000536	0.000426
07953	-0.100099	0.069289	9.705216	-0.000112	0.000958	-0.106707	1.000000	-0.000039	0.000536	0.000431
07954	-0.103291	0.067173	9.734295	-0.002922	-0.001314	-0.077614	1.000000	-0.000057	0.000545	0.000427
07955	-0.071274	0.067548	9.708092	0.028755	-0.000672	-0.104142	1.000000	-0.000045	0.000529	0.000438
07956	-0.102270	0.096064	9.736399	-0.001967	0.027673	-0.075316	1.000000	-0.000062	0.000545	0.000435
07957	-0.103740	0.066577	9.734294	-0.003344	-0.001604	-0.077614	1.000000	-0.000065	0.000538	0.000431
07958	-0.103816	0.066504	9.734294	-0.003486	-0.001700	-0.077614	1.000000	-0.000060	0.000539	0.000427
07959	-0.105200	0.037310	9.732186	-0.004863	-0.030978	-0.079912	1.000000	-0.000055	0.000539	0.000431
07960	-0.101059	0.068398	9.705213	-0.001097	0.000284	-0.106707	1.000000	-0.000058	0.000531	0.000435
07961	-0.073253	0.037533	9.705985	0.026674	-0.030433	-0.106438	1.000000	-0.000069	0.000532	0.000438
07962	-0.102932	0.095312	9.736400	-0.002810	0.027093	-0.075315	1.000000	-0.000057	0.000524	0.000450
07963	-0.104393	0.065968	9.734291	-0.004188	-0.002185	-0.077614	1.000000	-0.000074	0.000540	0.000446
07964	-0.105861	0.036707	9.732181	-0.005565	-0.031460	-0.079914	1.000000	-0.000054	0.000533	0.000436
07965	-0.072527	0.066581	9.708089	0.027354	-0.001637	-0.104138	1.000000	-0.000054	0.000533	0.000436
07966	-0.100480	0.097222	9.707316	-0.000560	0.028987	-0.104408	1.000000	-0.000049	0.000533	0.000432
07967	-0.104765	0.066053	9.734286	-0.004612	-0.002470	-0.077614	1.000000	-0.000044	0.000525	0.000436
07968	-0.101935	0.067949	9.705207	-0.002818	0.000216	-0.106708	1.000000	-0.000078	0.000495	0.000339
07969	-0.106373	0.036709	9.732175	-0.006879	-0.031239	-0.079914	1.000000	-0.000072	0.000496	0.000335
07970	-0.108104	0.063927	9.763362	-0.008452	-0.004331	-0.048522	1.000000	-0.000068	0.000481	0.000339
07971	-0.134398	0.067125	9.731402	-0.035063	-0.000803	-0.080189	1.000000	-0.000085	0.000497	0.000336
07972	-0.106673	0.036338	9.732173	-0.007305	-0.031526	-0.079915	1.000000	-0.000073	0.000482	0.000331
07973	-0.102449	0.067652	9.705203	-0.003522	-0.000263	-0.106708	1.000000	-0.000061	0.000482	0.000335
07974	-0.102667	0.067577	9.705202	-0.003662	-0.000359	-0.106708	1.000000	-0.000071	0.000490	0.000339
07975	-0.105940	0.065381	9.734278	-0.006482	-0.002636	-0.077616	1.000000	-0.000074	0.000498	0.000343
07976	-0.074065	0.065835	9.708083	0.025205	-0.001999	-0.104132	1.000000	-0.000069	0.000498	0.000340
07977	-0.072402	0.038541	9.676894	0.026498	-0.029095	-0.135526	1.000000	-0.000072	0.000491	0.000344
07978	-0.103332	0.067135	9.705198	-0.004222	-0.000743	-0.106708	1.000000	-0.000066	0.000491	0.000334
07979	-0.106532	0.065010	9.734274	-0.007043	-0.003021	-0.077616	1.000000	-0.000077	0.000499	0.000353
07980	-0.076237	0.092674	9.739271	0.023209	0.024616	-0.072736	1.000000	-0.000065	0.000484	0.000349
07981	-0.103619	0.066905	9.705196	-0.004644	-0.001030	-0.106709	1.000000	-0.000067	0.000484	0.000345
07982	-0.106750	0.064706	9.734274	-0.007466	-0.003311	-0.077616	1.000000	-0.000077	0.000485	0.000349
07983	-0.074799	0.065008	9.708083	0.024223	-0.002675	-0.104130	1.000000	-0.000080	0.000485	0.000353
07984	-0.103987	0.066380	9.705196	-0.005064	-0.001321	-0.106709	1.000000	-0.000076	0.000478	0.000358
07985	-0.077921	0.062873	9.737160	0.021259	-0.005050	-0.075037	1.000000	-0.000078	0.000478	0.000362
07986	-0.075089	0.064780	9.708082	0.023805	-0.002964	-0.104129	1.000000	-0.000073	0.000479	0.000352
07987	-0.108661	0.034915	9.732157	-0.009415	-0.032972	-0.079922	1.000000	-0.000083	0.000487	0.000356
07988	-0.106385	0.093225	9.736383	-0.007060	0.025290	-0.075312	1.000000	-0.000071	0.000486	0.000367
07989	-0.047724	0.033903	9.708854	0.051281	-0.033885	-0.103852	1.000000	-0.000074	0.000479	0.000370
07990	-0.107767	0.063945	9.734268	-0.008592	-0.004082	-0.077618	1.000000	-0.000069	0.000479	0.000373
07991	-0.104928	0.065924	9.705189	-0.006046	-0.001994	-0.106709	1.000000	-0.000064	0.000479	0.000370
07992	-0.108061	0.063948	9.734264	-0.008873	-0.004272	-0.077618	1.000000	-0.000059	0.000480	0.000366
07993	-0.077423	0.035356	9.705960	0.021571	-0.032816	-0.106433	1.000000	-0.000047	0.000487	0.000371
07994	-0.105591	0.065858	9.705182	-0.006465	-0.002279	-0.106710	1.000000	-0.000064	0.000496	0.000369
07995	-0.079537	0.062279	9.737151	0.019854	-0.006014	-0.075035	1.000000	-0.000052	0.000481	0.000365
07996	-0.105741	0.065637	9.705182	-0.006745	-0.002471	-0.106710	1.000000	-0.000062	0.000489	0.000369
07997	-0.079902	0.062051	9.737149	0.019573	-0.006206	-0.075034	1.000000	-0.000058	0.000497	0.000381
07998	-0.106250	0.065411	9.705178	-0.007028	-0.002664	-0.106710	1.000000	-0.000060	0.000497	0.000377
07999	-0.105150	0.094457	9.707294	-0.005918	0.026418	-0.104402	1.000000	-0.000063	0.000497	0.000381
08000	-0.081741	0.032561	9.735029	0.017897	-0.035675	-0.077342	1.000000	-0.000058	0.000505	0.000377
08001	-0.079460	0.090947	9.739262	0.020258	0.022586	-0.072724	1.000000	-0.000053	0.000505	0.000389
08002	-0.105577	0.094374	9.707290	-0.006337	0.026130	-0.104401	1.000000	-0.000049	0.000490	0.000393
08003	-0.109892	0.063202	9.734249	-0.010420	-0.005332	-0.077620	1.000000	-0.000043	0.000498	0.000382
08004	-0.080921	0.061593	9.737144	0.018585	-0.006883	-0.075033	1.000000	-0.000054	0.000490	0.000400
08005	-0.110178	0.062894	9.734248	-0.010702	-0.005525	-0.077621	1.000000	-0.000049	0.000498	0.000405
08006	-0.110398	0.062896	9.734245	-0.010842	-0.005622	-0.077621	1.000000	-0.000044	0.000499	0.000402
08007	-0.110548	0.062825	9.734244	-0.010983	-0.005719	-0.077621	1.000000	-0.000047	0.000499	0.000398
08008	-0.107701	0.064806	9.705166	-0.008431	-0.003626	-0.106712	1.000000	-0.000034	0.000499	0.000402
08009	-0.081792	0.061439	9.737137	0.017881	-0.007367	-0.075032	1.000000	-0.000029	0.000507	0.000406
08010	-0.078956	0.063204	9.708062	0.020434	-0.005274	-0.104122	1.000000	-0.000047	0.000501	0.000386
08011	-0.108150	0.064517	9.705163	-0.008852	-0.003914	-0.106712	1.000000	-0.000034	0.000500	0.000398
08012	-0.074847	0.094145	9.681106	0.024101	0.025901	-0.130899	1.000000	-0.000046	0.000492	0.000417
08013	-0.108433	0.064207	9.705162	-0.009133	-0.004107	-0.106713	1.000000	-0.000048	0.000509	0.000406
08014	-0.082538	0.060619	9.737136	0.017175	-0.007851	-0.075031	1.000000	-0.000051	0.000501	0.000410
08015	-0.083791	0.031349	9.735016	0.015781	-0.037126	-0.077344	1.000000	-0.000051	0.000501	0.000410
08016	-0.079617	0.062453	9.708061	0.019732	-0.005756	-0.104121	1.000000	-0.000053	0.000502	0.000406
08017	-0.079762	0.062453	9.708060	0.019592	-0.005852	-0.104121	1.000000	-0.000041	0.000502	0.000410
08018	-0.112093	0.061778	9.734233	-0.012392	-0.006681	-0.077623	1.000000	-0.000059	0.000510	0.000422
08019	-0.110910	0.090818	9.736355	-0.011278	0.022401	-0.075309	1.000000	-0.000047	0.000495	0.000418
