// General information: 
//  MT Manager version: 2021.0.0 
//  XDA version: 2021.0.0 build 5908 rev 109668 built on 2021-04-19
// Device information: 
//  DeviceId: 00B48506
//  ProductCode: MTW2-3A7G6
//  Firmware Version: 4.6.0
//  Hardware Version: 2.0.0
// Device settings: 
//  Filter Profile: human(46.1)
//  Option Flags: Orientation Smoother Disabled, Position/Velocity Smoother Disabled, Continuous Zero Rotation Update Disabled, AHS Disabled, ICC Disabled
// Coordinate system: ENU
PacketCounter	Acc_X	Acc_Y	Acc_Z	FreeAcc_E	FreeAcc_N	FreeAcc_U	Quat_q0	Quat_q1	Quat_q2	Quat_q3
26986	0.000079	0.127446	9.788711	-0.003354	0.020162	-0.023168	-0.999999	0.000757	-0.000160	0.000988
26987	-0.005595	0.099544	9.818887	-0.009014	-0.008004	0.006698	-0.999999	0.000757	-0.000173	0.000979
26988	-0.000493	0.127470	9.788711	-0.003835	0.020240	-0.023168	-0.999999	0.000757	-0.000161	0.000978
26989	-0.000588	0.127522	9.788710	-0.004084	0.020274	-0.023168	-0.999999	0.000755	-0.000158	0.000960
26990	-0.000711	0.127666	9.788709	-0.004325	0.020317	-0.023168	-0.999999	0.000746	-0.000149	0.000939
26991	-0.000821	0.127764	9.788707	-0.004570	0.020350	-0.023169	-0.999999	0.000749	-0.000144	0.000931
26992	-0.012760	0.153811	9.782228	-0.016532	0.046518	-0.029366	-0.999999	0.000748	-0.000141	0.000913
26993	-0.018459	0.126003	9.812402	-0.022193	0.018352	0.000499	-0.999999	0.000746	-0.000154	0.000912
26994	-0.018723	0.126069	9.812401	-0.022435	0.018394	0.000498	-0.999999	0.000746	-0.000143	0.000886
26995	-0.034165	0.140560	9.766263	-0.037923	0.033533	-0.045485	-0.999999	0.000758	-0.000145	0.000856
26996	-0.022695	0.114414	9.772743	-0.026442	0.007451	-0.039287	-0.999999	0.000761	-0.000149	0.000856
26997	-0.002324	0.127832	9.788706	-0.006024	0.020579	-0.023170	-0.999999	0.000750	-0.000149	0.000819
26998	0.009308	0.101962	9.795185	0.005457	-0.005502	-0.016970	-0.999999	0.000748	-0.000138	0.000800
26999	0.018070	0.141424	9.804667	0.014159	0.033750	-0.007052	-0.999999	0.000742	-0.000137	0.000773
27000	0.014342	0.130109	9.765007	0.010400	0.022772	-0.046836	-0.999999	0.000737	-0.000135	0.000746
27001	0.017720	0.141761	9.804663	0.013678	0.033824	-0.007051	-0.999999	0.000726	-0.000126	0.000725
27002	0.034802	0.143785	9.780967	0.030582	0.035944	-0.030715	-0.999999	0.000721	-0.000116	0.000714
27003	0.061831	0.103222	9.833593	0.057303	-0.005248	0.021473	-0.999999	0.000726	-0.000103	0.000698
27004	0.058132	0.091815	9.793934	0.053549	-0.016226	-0.018310	-1.000000	0.000719	-0.000110	0.000678
27005	0.025378	0.104619	9.771485	0.020924	-0.003165	-0.040632	-1.000000	0.000722	-0.000114	0.000678
27006	0.040341	0.090031	9.817630	0.035918	-0.018221	0.005356	-0.999999	0.000725	-0.000117	0.000679
27007	0.036495	0.078641	9.777972	0.032165	-0.029213	-0.034428	-1.000000	0.000718	-0.000123	0.000684
27008	0.007338	0.102928	9.795177	0.003051	-0.005126	-0.016969	-1.000000	0.000720	-0.000119	0.000684
27009	0.007080	0.103020	9.795176	0.002808	-0.005094	-0.016969	-1.000000	0.000713	-0.000125	0.000689
27010	0.027620	0.116452	9.811143	0.023223	0.008052	-0.000845	-1.000000	0.000711	-0.000105	0.000687
27011	0.015716	0.142409	9.804657	0.011260	0.034206	-0.007050	-0.999999	0.000724	-0.000115	0.000683
27012	0.000284	0.156992	9.758511	-0.004211	0.049346	-0.053039	-1.000000	0.000713	-0.000097	0.000686
27013	0.015348	0.142649	9.804654	0.010767	0.034279	-0.007049	-1.000000	0.000705	-0.000111	0.000700
27014	0.026779	0.116691	9.811142	0.022252	0.008202	-0.000843	-1.000000	0.000709	-0.000106	0.000692
27015	0.006013	0.103257	9.795174	0.001358	-0.004875	-0.016968	-0.999999	0.000721	-0.000099	0.000703
27016	0.005788	0.103234	9.795175	0.001117	-0.004832	-0.016968	-0.999999	0.000715	-0.000104	0.000709
27017	0.017469	0.077257	9.801663	0.012603	-0.030917	-0.010761	-0.999999	0.000720	-0.000083	0.000709
27018	-0.011587	0.101439	9.818862	-0.016521	-0.006835	0.006689	-0.999999	0.000720	-0.000095	0.000725
27019	0.031193	0.144685	9.780966	0.026474	0.036585	-0.030706	-0.999999	0.000702	-0.000096	0.000710
27020	-0.003441	0.141118	9.828339	-0.008079	0.032467	0.016608	-0.999999	0.000711	-0.000106	0.000721
27021	-0.018929	0.155633	9.782189	-0.023531	0.047596	-0.029386	-0.999999	0.000711	-0.000095	0.000719
27022	-0.003829	0.141110	9.828339	-0.008552	0.032546	0.016608	-0.999999	0.000711	-0.000099	0.000727
27023	0.013069	0.143001	9.804652	0.008369	0.034660	-0.007048	-0.999999	0.000710	-0.000095	0.000734
27024	-0.007731	0.129724	9.788678	-0.012520	0.021595	-0.023178	-0.999999	0.000711	-0.000091	0.000733
27025	0.029790	0.144977	9.780966	0.025046	0.036820	-0.030703	-0.999999	0.000704	-0.000097	0.000739
27026	0.024140	0.116946	9.811146	0.019376	0.008664	-0.000837	-0.999999	0.000731	-0.000095	0.000738
27027	-0.013894	0.101533	9.818858	-0.018668	-0.006498	0.006686	-0.999999	0.000733	-0.000099	0.000739
27028	-0.025871	0.127763	9.812363	-0.030641	0.019662	0.000474	-0.999999	0.000714	-0.000091	0.000748
27029	-0.008863	0.129849	9.788676	-0.013722	0.021777	-0.023180	-0.999999	0.000713	-0.000088	0.000730
27030	-0.009111	0.129869	9.788675	-0.013963	0.021820	-0.023181	-0.999999	0.000716	-0.000092	0.000731
27031	0.011283	0.143186	9.804652	0.006434	0.034969	-0.007048	-0.999999	0.000717	-0.000088	0.000730
27032	0.002112	0.103821	9.795170	-0.002717	-0.004216	-0.016968	-0.999999	0.000722	-0.000099	0.000731
27033	0.010750	0.143098	9.804654	0.005955	0.035043	-0.007048	-0.999999	0.000728	-0.000086	0.000732
27034	0.039480	0.119047	9.787466	0.034610	0.011055	-0.024485	-0.999999	0.000712	-0.000094	0.000718
27035	-0.010255	0.130015	9.788672	-0.015170	0.022009	-0.023183	-0.999999	0.000721	-0.000079	0.000736
27036	0.022025	0.117184	9.811148	0.016962	0.009050	-0.000833	-0.999999	0.000729	-0.000082	0.000721
27037	-0.027839	0.128001	9.812354	-0.032820	0.020003	0.000466	-0.999999	0.000729	-0.000086	0.000729
27038	0.012524	0.077894	9.801666	0.007573	-0.030099	-0.010753	-0.999999	0.000723	-0.000092	0.000734
27039	-0.028434	0.128167	9.812350	-0.033309	0.020076	0.000464	-0.999999	0.000726	-0.000087	0.000726
27040	0.017391	0.105906	9.771489	0.012519	-0.001826	-0.040618	-0.999999	0.000720	-0.000093	0.000732
27041	0.037682	0.119304	9.787470	0.032913	0.011325	-0.024480	-0.999999	0.000722	-0.000097	0.000732
27042	-0.000332	0.104130	9.795167	-0.005131	-0.003833	-0.016969	-0.999999	0.000724	-0.000093	0.000731
27043	0.042578	0.147227	9.757295	0.037862	0.039605	-0.054343	-0.999999	0.000722	-0.000097	0.000746
27044	0.007886	0.143495	9.804651	0.003283	0.035477	-0.007048	-0.999999	0.000731	-0.000107	0.000757
27045	0.031142	0.091406	9.817651	0.026517	-0.016712	0.005388	-0.999999	0.000730	-0.000103	0.000764
27046	-0.013282	0.130176	9.788666	-0.017832	0.022439	-0.023188	-0.999999	0.000730	-0.000108	0.000771
27047	0.015433	0.105957	9.771491	0.010839	-0.001554	-0.040616	-0.999999	0.000738	-0.000102	0.000773
27048	0.018750	0.117401	9.811153	0.014060	0.009521	-0.000829	-0.999999	0.000737	-0.000098	0.000780
27049	-0.013876	0.130074	9.788667	-0.018552	0.022546	-0.023190	-0.999999	0.000744	-0.000100	0.000790
27050	-0.002261	0.104113	9.795167	-0.007055	-0.003523	-0.016970	-0.999999	0.000735	-0.000090	0.000794
27051	0.018168	0.117598	9.811151	0.013337	0.009625	-0.000828	-0.999999	0.000732	-0.000095	0.000810
27052	0.018037	0.117523	9.811152	0.013096	0.009669	-0.000828	-0.999999	0.000746	-0.000079	0.000813
27053	0.017812	0.117500	9.811153	0.012851	0.009703	-0.000828	-0.999999	0.000738	-0.000093	0.000826
27054	-0.014990	0.130228	9.788663	-0.019758	0.022736	-0.023193	-0.999999	0.000746	-0.000095	0.000837
27055	0.013596	0.105939	9.771494	0.008904	-0.001260	-0.040614	-0.999999	0.000754	-0.000105	0.000848
27056	-0.015653	0.130063	9.788664	-0.020252	0.022805	-0.023194	-0.999999	0.000753	-0.000101	0.000855
27057	0.021985	0.145203	9.780983	0.017306	0.038052	-0.030691	-0.999999	0.000764	-0.000094	0.000873
27058	-0.004289	0.103929	9.795168	-0.008997	-0.003227	-0.016972	-0.999999	0.000764	-0.000106	0.000889
27059	0.000686	0.131822	9.764994	-0.003797	0.025006	-0.046836	-0.999999	0.000766	-0.000110	0.000890
27060	-0.016582	0.130085	9.788663	-0.021216	0.022960	-0.023196	-0.999999	0.000755	-0.000092	0.000893
27061	0.009212	0.171432	9.774478	0.004604	0.064315	-0.036914	-0.999999	0.000757	-0.000104	0.000901
27062	0.032417	0.119341	9.787488	0.027846	0.012140	-0.024465	-0.999999	0.000764	-0.000106	0.000911
27063	0.014950	0.117440	9.811159	0.010422	0.010081	-0.000825	-0.999999	0.000764	-0.000110	0.000919
27064	0.014801	0.117434	9.811159	0.010180	0.010124	-0.000825	-0.999999	0.000769	-0.000097	0.000928
27065	0.011209	0.105976	9.771497	0.006496	-0.000875	-0.040612	-0.999999	0.000767	-0.000101	0.000943
27066	0.031570	0.119363	9.787491	0.026877	0.012295	-0.024462	-0.999999	0.000768	-0.000097	0.000942
27067	-0.023664	0.102229	9.818832	-0.028350	-0.004981	0.006663	-0.999999	0.000777	-0.000107	0.000953
27068	-0.009836	0.169297	9.798151	-0.014277	0.062496	-0.013278	-0.999999	0.000789	-0.000107	0.000973
27069	-0.024162	0.102074	9.818833	-0.028836	-0.004900	0.006662	-0.999999	0.000779	-0.000097	0.000976
27070	0.018713	0.145281	9.780989	0.014163	0.038561	-0.030688	-0.999999	0.000781	-0.000109	0.000985
27071	-0.007576	0.104085	9.795164	-0.012134	-0.002730	-0.016975	-0.999999	0.000780	-0.000106	0.000992
27072	0.001052	0.143530	9.804653	-0.003503	0.036549	-0.007052	-0.999999	0.000777	-0.000102	0.001006
27073	0.000723	0.143607	9.804652	-0.003743	0.036584	-0.007052	-0.999999	0.000776	-0.000114	0.001022
27074	0.012148	0.117515	9.811162	0.007761	0.010521	-0.000823	-0.999999	0.000789	-0.000116	0.001017
27075	0.000046	0.143465	9.804654	-0.004234	0.036663	-0.007053	-0.999999	0.000787	-0.000120	0.001032
27076	0.008142	0.105867	9.771501	0.003842	-0.000438	-0.040610	-0.999999	0.000804	-0.000120	0.001037
27077	0.007976	0.105930	9.771501	0.003602	-0.000405	-0.040610	-0.999999	0.000784	-0.000112	0.001046
27078	0.011266	0.117648	9.811161	0.006787	0.010677	-0.000823	-0.999999	0.000783	-0.000109	0.001053
27079	-0.038468	0.128476	9.812312	-0.042996	0.021589	0.000423	-0.999999	0.000784	-0.000105	0.001052
27080	0.010924	0.117772	9.811160	0.006310	0.010753	-0.000822	-0.999999	0.000778	-0.000102	0.001049
27081	-0.024979	0.119006	9.748985	-0.029708	0.012718	-0.062998	-0.999999	0.000782	-0.000089	0.001058
27082	-0.021783	0.130438	9.788648	-0.026527	0.023800	-0.023211	-0.999999	0.000787	-0.000101	0.001059
27083	0.010439	0.117841	9.811160	0.005592	0.010859	-0.000822	-0.999999	0.000780	-0.000083	0.001047
27084	0.015646	0.145738	9.780988	0.010793	0.039100	-0.030686	-0.999999	0.000789	-0.000093	0.001058
27085	-0.022432	0.130494	9.788646	-0.027253	0.023907	-0.023213	-0.999999	0.000785	-0.000090	0.001047
27086	0.009789	0.117898	9.811160	0.004863	0.010981	-0.000822	-0.999999	0.000787	-0.000086	0.001047
27087	0.006049	0.106446	9.771496	0.001206	-0.000029	-0.040609	-0.999999	0.000786	-0.000099	0.001038
27088	-0.011471	0.104645	9.795155	-0.016227	-0.002082	-0.016981	-0.999999	0.000783	-0.000096	0.001028
27089	0.017637	0.157453	9.820650	0.012991	0.050328	0.009103	-0.999999	0.000781	-0.000100	0.001043
27090	-0.020366	0.142224	9.828303	-0.025051	0.035139	0.016571	-0.999999	0.000787	-0.000095	0.001028
27091	0.008544	0.118073	9.811159	0.003653	0.011169	-0.000821	-0.999999	0.000787	-0.000083	0.001026
27092	0.025464	0.120038	9.787500	0.020607	0.013308	-0.024448	-0.999999	0.000782	-0.000097	0.001032
27093	-0.012555	0.104876	9.795151	-0.017433	-0.001893	-0.016983	-0.999999	0.000781	-0.000097	0.001032
27094	0.013225	0.146174	9.780985	0.008614	0.039444	-0.030685	-0.999999	0.000777	-0.000103	0.001030
27095	-0.004305	0.144421	9.804639	-0.008816	0.037378	-0.007059	-0.999999	0.000773	-0.000109	0.001029
27096	0.012526	0.146415	9.780982	0.008139	0.039518	-0.030685	-0.999999	0.000769	-0.000114	0.001027
27097	-0.013798	0.105366	9.795144	-0.018150	-0.001786	-0.016984	-0.999999	0.000757	-0.000122	0.001022
27098	0.038839	0.106150	9.833679	0.034565	-0.001565	0.021580	-0.999999	0.000765	-0.000124	0.001032
27099	0.006211	0.118797	9.811152	0.001964	0.011429	-0.000821	-0.999999	0.000761	-0.000121	0.001022
27100	-0.005913	0.144786	9.804633	-0.010031	0.037573	-0.007061	-0.999999	0.000771	-0.000131	0.001033
27101	0.002189	0.107277	9.771489	-0.001921	0.000464	-0.040610	-0.999999	0.000767	-0.000128	0.001022
27102	-0.023669	0.142960	9.828284	-0.027718	0.035552	0.016562	-0.999999	0.000768	-0.000132	0.001030
27103	0.016953	0.092956	9.817671	0.012747	-0.014516	0.005419	-0.999999	0.000757	-0.000122	0.001034
27104	-0.010166	0.133605	9.764965	-0.014400	0.026683	-0.046851	-0.999999	0.000759	-0.000118	0.001033
27105	0.013527	0.158272	9.820643	0.009352	0.050901	0.009104	-0.999999	0.000780	-0.000126	0.001032
27106	0.001093	0.107289	9.771489	-0.003125	0.000659	-0.040610	-0.999999	0.000776	-0.000122	0.001046
27107	0.004262	0.119020	9.811150	0.000024	0.011738	-0.000821	-0.999999	0.000758	-0.000123	0.001031
27108	0.026692	0.148991	9.757324	0.022434	0.042078	-0.054305	-0.999999	0.000758	-0.000111	0.001029
27109	0.003970	0.119226	9.811148	-0.000460	0.011815	-0.000822	-0.999999	0.000763	-0.000114	0.001022
27110	-0.020039	0.171152	9.798103	-0.024215	0.064055	-0.013308	-0.999999	0.000770	-0.000126	0.001016
27111	0.008577	0.146967	9.780978	0.004503	0.040088	-0.030685	-0.999999	0.000773	-0.000129	0.001016
27112	-0.008847	0.145065	9.804627	-0.012944	0.038031	-0.007066	-0.999999	0.000777	-0.000125	0.001008
27113	-0.008910	0.145003	9.804628	-0.013189	0.038062	-0.007066	-0.999999	0.000783	-0.000111	0.001009
27114	-0.018015	0.105732	9.795133	-0.022264	-0.001139	-0.016992	-0.999999	0.000771	-0.000135	0.000997
27115	0.019176	0.120996	9.787503	0.015287	0.014141	-0.024440	-0.999999	0.000784	-0.000144	0.000992
27116	-0.027430	0.143256	9.828270	-0.031128	0.036079	0.016550	-0.999999	0.000773	-0.000152	0.000988
27117	-0.005453	0.096291	9.731819	-0.009174	-0.009979	-0.080400	-0.999999	0.000774	-0.000148	0.000963
27118	-0.016080	0.117422	9.834793	-0.019863	0.010056	0.022794	-0.999999	0.000773	-0.000145	0.000945
27119	-0.014248	0.133850	9.764956	-0.018036	0.027238	-0.046858	-0.999999	0.000775	-0.000142	0.000920
27120	-0.043491	0.157928	9.782074	-0.047247	0.051274	-0.029490	-0.999999	0.000783	-0.000145	0.000905
27121	-0.002937	0.107859	9.771482	-0.006759	0.001217	-0.040612	-0.999999	0.000772	-0.000144	0.000893
27122	-0.043968	0.158166	9.782068	-0.047731	0.051348	-0.029493	-0.999999	0.000769	-0.000142	0.000858
27123	-0.020487	0.106322	9.795122	-0.024453	-0.000812	-0.016998	-0.999999	0.000759	-0.000133	0.000837
27124	-0.015118	0.134244	9.764949	-0.019243	0.027428	-0.046861	-0.999999	0.000768	-0.000119	0.000806
27125	0.020476	0.133003	9.827165	0.016233	0.025566	0.015352	-0.999999	0.000771	-0.000124	0.000781
27126	0.016776	0.121493	9.787501	0.012620	0.014561	-0.024437	-0.999999	0.000774	-0.000128	0.000757
27127	0.066080	0.110778	9.786411	0.061938	0.003754	-0.025623	-0.999999	0.000768	-0.000127	0.000729
27128	0.043286	0.081107	9.840225	0.039031	-0.026503	0.027854	-0.999999	0.000770	-0.000124	0.000704
27129	0.045227	0.097501	9.770389	0.040872	-0.009320	-0.041797	-0.999999	0.000770	-0.000124	0.000704
27130	0.039595	0.069599	9.800561	0.035419	-0.037517	-0.011935	-0.999999	0.000774	-0.000135	0.000705
27131	0.077002	0.084993	9.792946	0.072972	-0.022225	-0.019367	-0.999999	0.000757	-0.000136	0.000690
27132	0.021837	0.068000	9.824202	0.017719	-0.039543	0.011679	-0.999999	0.000768	-0.000130	0.000684
27133	0.035867	0.135165	9.803525	0.031743	0.027936	-0.008256	-0.999999	0.000768	-0.000125	0.000683
27134	0.035724	0.135111	9.803526	0.031501	0.027979	-0.008256	-0.999999	0.000777	-0.000119	0.000685
27135	0.023775	0.161088	9.796995	0.019496	0.054104	-0.014508	-0.999999	0.000775	-0.000115	0.000692
27136	0.006406	0.159256	9.820634	0.002036	0.052042	0.009102	-0.999999	0.000777	-0.000111	0.000692
27137	0.047079	0.109038	9.810060	0.042542	0.001997	-0.002000	-0.999999	0.000787	-0.000105	0.000686
27138	0.014435	0.121821	9.787501	0.009959	0.014976	-0.024434	-0.999999	0.000767	-0.000115	0.000687
27139	-0.018323	0.134432	9.764941	-0.022625	0.027944	-0.046870	-0.999999	0.000794	-0.000120	0.000687
27140	0.017125	0.133120	9.827170	0.012830	0.026103	0.015356	-0.999999	0.000786	-0.000118	0.000692
27141	-0.007155	0.108462	9.771473	-0.011340	0.001925	-0.040616	-0.999999	0.000779	-0.000132	0.000706
27142	0.042062	0.097885	9.770399	0.037982	-0.008859	-0.041785	-0.999999	0.000770	-0.000130	0.000710
27143	-0.007779	0.108791	9.771469	-0.011822	0.002004	-0.040617	-0.999999	0.000768	-0.000135	0.000725
27144	0.012462	0.122186	9.787499	0.008511	0.015205	-0.024433	-0.999999	0.000771	-0.000138	0.000726
27145	-0.016852	0.146228	9.804599	-0.020721	0.039219	-0.007084	-0.999999	0.000781	-0.000140	0.000728
27146	-0.011676	0.174083	9.774429	-0.015506	0.067459	-0.036947	-0.999999	0.000777	-0.000137	0.000743
27147	-0.029078	0.172362	9.798060	-0.032969	0.065383	-0.013342	-0.999999	0.000769	-0.000135	0.000748
27148	0.003065	0.159680	9.820629	-0.000873	0.052497	0.009100	-0.999999	0.000786	-0.000135	0.000752
27149	0.011173	0.122039	9.787502	0.007303	0.015389	-0.024433	-0.999999	0.000788	-0.000147	0.000761
27150	0.028048	0.124015	9.763869	0.024288	0.017541	-0.048036	-0.999999	0.000780	-0.000145	0.000765
27151	0.010576	0.122230	9.787501	0.006820	0.015462	-0.024432	-0.999999	0.000782	-0.000148	0.000766
27152	0.010262	0.122212	9.787501	0.006579	0.015505	-0.024432	-0.999999	0.000785	-0.000152	0.000766
27153	-0.027816	0.106923	9.795097	-0.031457	0.000269	-0.017018	-0.999999	0.000790	-0.000155	0.000759
27154	0.009621	0.122222	9.787502	0.006096	0.015583	-0.024432	-0.999999	0.000784	-0.000161	0.000764
27155	-0.002428	0.148221	9.780962	-0.005913	0.041704	-0.030692	-0.999999	0.000794	-0.000155	0.000759
27156	-0.002589	0.148236	9.780962	-0.006154	0.041746	-0.030693	-0.999999	0.000786	-0.000153	0.000763
27157	0.012298	0.133820	9.827168	0.008712	0.026745	0.015359	-0.999999	0.000789	-0.000157	0.000764
27158	0.029183	0.135751	9.803539	0.025700	0.028898	-0.008241	-0.999999	0.000785	-0.000163	0.000762
27159	0.008298	0.122454	9.787500	0.004895	0.015766	-0.024432	-0.999999	0.000785	-0.000167	0.000769
27160	0.028606	0.135850	9.803539	0.025217	0.028975	-0.008240	-0.999999	0.000786	-0.000162	0.000769
27161	0.019712	0.096493	9.794042	0.016187	-0.010245	-0.018169	-0.999999	0.000787	-0.000158	0.000768
27162	0.002234	0.094705	9.817668	-0.001286	-0.012313	0.005430	-0.999999	0.000781	-0.000164	0.000774
27163	-0.013242	0.109284	9.771458	-0.016628	0.002748	-0.040624	-0.999999	0.000783	-0.000168	0.000774
27164	0.003827	0.111132	9.747832	0.000365	0.004902	-0.064222	-0.999999	0.000788	-0.000155	0.000758
27165	-0.010290	0.120675	9.811125	-0.013781	0.013881	-0.000834	-0.999999	0.000794	-0.000166	0.000776
27166	-0.002156	0.083059	9.778003	-0.005573	-0.023219	-0.034361	-0.999999	0.000804	-0.000168	0.000779
27167	0.021486	0.107882	9.833713	0.018065	0.001037	0.021625	-0.999999	0.000803	-0.000164	0.000786
27168	0.006109	0.122408	9.787502	0.002727	0.016108	-0.024431	-0.999999	0.000806	-0.000167	0.000786
27169	0.026355	0.135698	9.803548	0.023049	0.029310	-0.008236	-0.999999	0.000815	-0.000170	0.000789
27170	0.043263	0.137589	9.779925	0.040044	0.031466	-0.031831	-0.999999	0.000809	-0.000176	0.000794
27171	0.005301	0.122531	9.787501	0.002010	0.016211	-0.024431	-0.999999	0.000798	-0.000165	0.000823
27172	0.016885	0.096585	9.794046	0.013545	-0.009830	-0.018164	-0.999999	0.000807	-0.000175	0.000834
27173	-0.000544	0.094584	9.817670	-0.003937	-0.011911	0.005430	-0.999999	0.000814	-0.000161	0.000835
27174	-0.003982	0.082991	9.778003	-0.007493	-0.022926	-0.034361	-0.999999	0.000821	-0.000163	0.000845
27175	-0.000974	0.094446	9.817671	-0.004424	-0.011834	0.005430	-0.999999	0.000821	-0.000167	0.000853
27176	0.000880	0.110879	9.747836	-0.002515	0.005347	-0.064223	-0.999999	0.000820	-0.000163	0.000860
27177	0.024668	0.135698	9.803552	0.021110	0.029618	-0.008233	-0.999999	0.000832	-0.000148	0.000870
27178	0.003922	0.122247	9.787505	0.000317	0.016488	-0.024432	-0.999999	0.000832	-0.000160	0.000886
27179	0.012286	0.161747	9.797006	0.008848	0.055778	-0.014502	-0.999999	0.000823	-0.000158	0.000890
27180	0.023937	0.135866	9.803551	0.020384	0.029740	-0.008231	-0.999999	0.000824	-0.000153	0.000915
27181	0.035517	0.109946	9.810099	0.031917	0.003690	-0.001961	-0.999999	0.000820	-0.000159	0.000913
27182	-0.008915	0.148587	9.780953	-0.012430	0.042722	-0.030703	-0.999999	0.000823	-0.000153	0.000929
27183	-0.029656	0.135131	9.764904	-0.033217	0.029576	-0.046905	-0.999999	0.000830	-0.000156	0.000940
27184	-0.014831	0.120597	9.811121	-0.018375	0.014597	-0.000842	-0.999999	0.000831	-0.000160	0.000947
27185	-0.018524	0.109114	9.771451	-0.021920	0.003565	-0.040635	-0.999999	0.000832	-0.000172	0.000956
27186	-0.018719	0.109000	9.771452	-0.022160	0.003608	-0.040635	-0.999999	0.000846	-0.000155	0.000984
27187	0.004983	0.133766	9.827175	0.001450	0.027879	0.015359	-0.999999	0.000849	-0.000159	0.000984
27188	0.033784	0.109815	9.810107	0.030234	0.003959	-0.001955	-0.999999	0.000836	-0.000158	0.001004
27189	0.001156	0.122573	9.787502	-0.002328	0.016893	-0.024433	-0.999999	0.000836	-0.000162	0.001012
27190	0.021453	0.135945	9.803556	0.017974	0.030115	-0.008228	-0.999999	0.000842	-0.000157	0.001021
27191	0.021380	0.135955	9.803556	0.017734	0.030146	-0.008228	-0.999999	0.000838	-0.000145	0.001027
27192	-0.011155	0.148656	9.780950	-0.014831	0.043090	-0.030708	-0.999999	0.000834	-0.000150	0.001050
27193	0.003618	0.134340	9.827168	-0.000003	0.028107	0.015359	-0.999999	0.000825	-0.000156	0.001063
27194	-0.017158	0.121009	9.811112	-0.020786	0.014970	-0.000848	-0.999999	0.000831	-0.000151	0.001047
27195	0.014963	0.108422	9.833720	0.011296	0.002110	0.021635	-0.999999	0.000829	-0.000155	0.001062
27196	-0.003675	0.111456	9.747829	-0.007307	0.006106	-0.064226	-0.999999	0.000830	-0.000151	0.001086
27197	-0.012295	0.148904	9.780945	-0.016046	0.043280	-0.030711	-0.999999	0.000837	-0.000137	0.001087
27198	0.020013	0.136239	9.803555	0.016035	0.030427	-0.008226	-0.999999	0.000843	-0.000131	0.001096
27199	-0.000707	0.122723	9.787500	-0.004751	0.017272	-0.024434	-0.999999	0.000852	-0.000132	0.001099
27200	0.019509	0.136062	9.803559	0.015545	0.030498	-0.008225	-0.999999	0.000852	-0.000136	0.001107
27201	-0.001305	0.122597	9.787502	-0.005232	0.017351	-0.024434	-0.999999	0.000862	-0.000138	0.001109
27202	0.036069	0.137849	9.779951	0.032317	0.032697	-0.031806	-0.999999	0.000862	-0.000151	0.001125
27203	-0.022593	0.109151	9.771442	-0.026249	0.004246	-0.040646	-0.999999	0.000865	-0.000154	0.001125
27204	0.001083	0.134178	9.827170	-0.002676	0.028537	0.015357	-0.999999	0.000853	-0.000137	0.001128
27205	-0.022712	0.109369	9.771440	-0.026736	0.004323	-0.040647	-0.999999	0.000859	-0.000131	0.001137
27206	-0.052026	0.133419	9.788494	-0.056018	0.028321	-0.023348	-0.999999	0.000860	-0.000135	0.001145
27207	-0.008064	0.094911	9.817663	-0.012159	-0.010612	0.005425	-0.999999	0.000858	-0.000131	0.001152
27208	-0.035211	0.135477	9.764881	-0.039249	0.030516	-0.046930	-0.999999	0.000852	-0.000129	0.001149
27209	-0.020249	0.120966	9.811106	-0.024424	0.015537	-0.000857	-0.999999	0.000865	-0.000122	0.001136
27210	0.034566	0.138271	9.779950	0.030382	0.033009	-0.031801	-0.999999	0.000848	-0.000122	0.001146
27211	-0.006721	0.111591	9.747825	-0.010925	0.006673	-0.064229	-0.999999	0.000855	-0.000125	0.001131
27212	0.016797	0.136544	9.803557	0.012635	0.030970	-0.008222	-0.999999	0.000847	-0.000123	0.001135
27213	-0.036343	0.135866	9.764871	-0.040454	0.030699	-0.046936	-0.999999	0.000843	-0.000129	0.001133
27214	0.004336	0.162735	9.796996	0.000362	0.057118	-0.014505	-0.999999	0.000846	-0.000132	0.001134
27215	-0.042321	0.108074	9.795033	-0.046404	0.002579	-0.017077	-0.999999	0.000842	-0.000130	0.001123
27216	0.015664	0.136913	9.803554	0.011670	0.031123	-0.008222	-0.999999	0.000838	-0.000136	0.001121
27217	0.009912	0.109173	9.833718	0.005961	0.002958	0.021639	-0.999999	0.000831	-0.000142	0.001127
27218	-0.005507	0.123629	9.787487	-0.009334	0.018007	-0.024439	-0.999999	0.000844	-0.000143	0.001122
27219	-0.011044	0.095666	9.817653	-0.015052	-0.010154	0.005421	-0.999999	0.000843	-0.000131	0.001120
27220	0.026609	0.111062	9.810115	0.022495	0.005203	-0.001935	-0.999999	0.000840	-0.000128	0.001110
27221	0.014502	0.137107	9.803553	0.010467	0.031307	-0.008221	-0.999999	0.000840	-0.000133	0.001118
27222	-0.038614	0.136374	9.764855	-0.042612	0.031038	-0.046946	-0.999999	0.000832	-0.000131	0.001123
27223	0.013997	0.137245	9.803552	0.009981	0.031383	-0.008221	-0.999999	0.000841	-0.000133	0.001125
27224	-0.027220	0.110348	9.771417	-0.031304	0.005040	-0.040661	-0.999999	0.000843	-0.000128	0.001125
27225	0.008317	0.109229	9.833719	0.004031	0.003266	0.021640	-0.999999	0.000852	-0.000115	0.001118
27226	-0.006973	0.123805	9.787484	-0.011256	0.018311	-0.024441	-0.999999	0.000836	-0.000124	0.001104
27227	-0.007345	0.124018	9.787481	-0.011493	0.018345	-0.024442	-0.999999	0.000834	-0.000128	0.001119
27228	-0.004323	0.135477	9.827152	-0.008483	0.029457	0.015351	-0.999999	0.000845	-0.000122	0.001114
27229	-0.007874	0.123905	9.787482	-0.011975	0.018418	-0.024442	-0.999999	0.000844	-0.000135	0.001105
27230	0.012294	0.137348	9.803552	0.008303	0.031657	-0.008220	-0.999999	0.000846	-0.000131	0.001105
27231	-0.020253	0.150060	9.780914	-0.024258	0.044565	-0.030733	-0.999999	0.000832	-0.000130	0.001099
27232	0.023676	0.111663	9.810115	0.019606	0.005664	-0.001929	-0.999999	0.000836	-0.000134	0.001099
27233	-0.005862	0.135832	9.827146	-0.009692	0.029643	0.015350	-0.999999	0.000826	-0.000149	0.001096
27234	-0.006060	0.135986	9.827144	-0.009934	0.029686	0.015349	-0.999999	0.000824	-0.000130	0.001094
27235	-0.004032	0.152283	9.757309	-0.007936	0.046844	-0.054305	-0.999999	0.000838	-0.000139	0.001090
27236	0.010751	0.137751	9.803549	0.006860	0.031889	-0.008219	-0.999999	0.000834	-0.000137	0.001079
27237	-0.009989	0.124354	9.787475	-0.013894	0.018718	-0.024445	-0.999999	0.000839	-0.000140	0.001073
27238	-0.004912	0.152264	9.757309	-0.008657	0.046956	-0.054306	-0.999999	0.000835	-0.000146	0.001071
27239	-0.010569	0.124424	9.787473	-0.014377	0.018790	-0.024446	-0.999999	0.000838	-0.000141	0.001063
27240	0.009746	0.137902	9.803547	0.005894	0.032033	-0.008219	-0.999999	0.000833	-0.000139	0.001060
27241	-0.019741	0.085234	9.777965	-0.023570	-0.020402	-0.034381	-0.999999	0.000828	-0.000154	0.001042
27242	0.005784	0.126696	9.763874	0.002179	0.021036	-0.048013	-0.999999	0.000820	-0.000153	0.001021
27243	0.000262	0.098936	9.794038	-0.003546	-0.007131	-0.018153	-0.999999	0.000819	-0.000140	0.001020
27244	-0.023660	0.150788	9.780895	-0.027381	0.045046	-0.030744	-0.999999	0.000833	-0.000150	0.001016
27245	0.003045	0.110277	9.833710	-0.000795	0.004017	0.021640	-0.999999	0.000830	-0.000139	0.000998
27246	-0.003503	0.164207	9.796972	-0.007355	0.058322	-0.014515	-0.999999	0.000829	-0.000136	0.000980
27247	-0.012380	0.124788	9.787466	-0.016302	0.019093	-0.024450	-0.999999	0.000837	-0.000139	0.000965
27248	-0.012621	0.124760	9.787466	-0.016543	0.019136	-0.024450	-0.999999	0.000836	-0.000136	0.000947
27249	-0.018028	0.096830	9.817631	-0.022273	-0.009022	0.005409	-0.999999	0.000846	-0.000113	0.000932
27250	-0.000872	0.098835	9.794039	-0.005234	-0.006850	-0.018154	-0.999999	0.000831	-0.000122	0.000917
27251	0.004131	0.126725	9.763874	0.000001	0.021374	-0.048014	-0.999999	0.000849	-0.000131	0.000899
27252	0.036231	0.114114	9.786529	0.032065	0.008556	-0.025482	-0.999999	0.000840	-0.000122	0.000878
27253	0.018843	0.112325	9.810118	0.014539	0.006459	-0.001921	-0.999999	0.000841	-0.000118	0.000852
27254	0.020842	0.128822	9.740282	0.016558	0.023623	-0.071574	-0.999999	0.000830	-0.000117	0.000840
27255	0.035628	0.114490	9.786527	0.031332	0.008661	-0.025480	-0.999999	0.000831	-0.000122	0.000823
27256	0.035383	0.114486	9.786528	0.031091	0.008705	-0.025479	-0.999999	0.000834	-0.000117	0.000815
27257	0.017890	0.112483	9.810118	0.013572	0.006608	-0.001920	-0.999999	0.000844	-0.000120	0.000793
27258	0.022953	0.140505	9.779953	0.018813	0.034846	-0.031779	-0.999999	0.000824	-0.000130	0.000794
27259	0.025788	0.075352	9.777022	0.021671	-0.030456	-0.035412	-0.999999	0.000826	-0.000134	0.000794
27260	0.017002	0.112806	9.810116	0.012843	0.006728	-0.001919	-0.999999	0.000831	-0.000121	0.000778
27261	0.016845	0.112797	9.810116	0.012601	0.006764	-0.001918	-0.999999	0.000831	-0.000125	0.000785
27262	0.048935	0.100261	9.832779	0.044661	-0.006046	0.020622	-0.999999	0.000833	-0.000121	0.000785
27263	0.016440	0.112859	9.810116	0.012115	0.006839	-0.001918	-0.999999	0.000831	-0.000117	0.000791
27264	0.021702	0.140778	9.779952	0.017357	0.035077	-0.031777	-0.999999	0.000833	-0.000113	0.000791
27265	0.001073	0.127331	9.763867	-0.003377	0.021893	-0.048015	-0.999999	0.000838	-0.000107	0.000801
27266	0.004007	0.138980	9.803536	-0.000411	0.033014	-0.008221	-0.999999	0.000822	-0.000116	0.000787
27267	0.020892	0.140852	9.779952	0.016633	0.035178	-0.031776	-0.999999	0.000845	-0.000122	0.000802
27268	0.015236	0.112974	9.810117	0.010907	0.007026	-0.001917	-0.999999	0.000826	-0.000115	0.000811
27269	0.032385	0.115099	9.786531	0.027956	0.009190	-0.025470	-0.999999	0.000826	-0.000111	0.000811
27270	0.014871	0.113191	9.810115	0.010424	0.007099	-0.001916	-0.999999	0.000829	-0.000114	0.000811
27271	0.011356	0.101660	9.770445	0.006981	-0.003945	-0.041711	-0.999999	0.000832	-0.000118	0.000811
27272	-0.014792	0.137167	9.827118	-0.019158	0.031103	0.015331	-0.999999	0.000841	-0.000112	0.000813
27273	0.022810	0.152464	9.819625	0.018380	0.046481	0.008021	-0.999999	0.000839	-0.000109	0.000795
27274	-0.003427	0.111214	9.833699	-0.007839	0.005115	0.021637	-0.999999	0.000839	-0.000121	0.000811
27275	0.001773	0.139388	9.803531	-0.002589	0.033345	-0.008222	-0.999999	0.000813	-0.000108	0.000809
27276	-0.001626	0.128073	9.763857	-0.006026	0.022308	-0.048017	-0.999999	0.000822	-0.000118	0.000820
27277	0.001174	0.139578	9.803528	-0.003076	0.033419	-0.008223	-0.999999	0.000818	-0.000123	0.000818
27278	0.018104	0.141607	9.779947	0.013977	0.035598	-0.031773	-0.999999	0.000814	-0.000129	0.000816
27279	0.009230	0.102280	9.770440	0.005051	-0.003644	-0.041709	-0.999999	0.000815	-0.000124	0.000816
27280	-0.032001	0.152332	9.780847	-0.036103	0.046380	-0.030778	-0.999999	0.000815	-0.000128	0.000823
27281	-0.003140	0.128117	9.763856	-0.007242	0.022487	-0.048019	-0.999999	0.000834	-0.000128	0.000821
27282	0.020221	0.152972	9.819623	0.016191	0.046829	0.008023	-0.999999	0.000828	-0.000134	0.000826
27283	-0.017716	0.137743	9.827105	-0.021830	0.031505	0.015324	-0.999999	0.000827	-0.000122	0.000825
27284	0.011263	0.113701	9.810114	0.007036	0.007627	-0.001913	-0.999999	0.000830	-0.000126	0.000825
27285	0.016375	0.141587	9.779950	0.012284	0.035860	-0.031772	-0.999999	0.000830	-0.000130	0.000833
27286	0.010609	0.113783	9.810114	0.006554	0.007708	-0.001913	-0.999999	0.000827	-0.000135	0.000831
27287	-0.001503	0.139818	9.803525	-0.005495	0.033799	-0.008225	-0.999999	0.000827	-0.000131	0.000830
27288	-0.004927	0.128347	9.763852	-0.008917	0.022759	-0.048021	-0.999999	0.000826	-0.000136	0.000845
27289	0.018546	0.076460	9.777030	0.014464	-0.029321	-0.035396	-0.999999	0.000827	-0.000132	0.000845
27290	-0.007591	0.112095	9.833687	-0.011711	0.005723	0.021633	-0.999999	0.000823	-0.000128	0.000859
27291	0.009478	0.114254	9.810110	0.005349	0.007895	-0.001913	-0.999999	0.000805	-0.000129	0.000844
27292	-0.005906	0.128820	9.763846	-0.009880	0.022911	-0.048022	-0.999999	0.000815	-0.000139	0.000855
27293	0.046653	0.129699	9.802634	0.042651	0.023334	-0.009205	-0.999999	0.000811	-0.000128	0.000861
27294	-0.011651	0.100998	9.794010	-0.015849	-0.005207	-0.018164	-0.999999	0.000810	-0.000124	0.000868
27295	0.025853	0.116417	9.786535	0.021691	0.010185	-0.025455	-0.999999	0.000808	-0.000128	0.000884
27296	0.028697	0.127993	9.826207	0.024622	0.021312	0.014341	-0.999999	0.000809	-0.000133	0.000891
27297	0.007953	0.114450	9.810109	0.003905	0.008122	-0.001912	-0.999999	0.000823	-0.000133	0.000904
27298	-0.004060	0.140407	9.803516	-0.008150	0.034219	-0.008228	-0.999999	0.000813	-0.000123	0.000907
27299	0.004432	0.102832	9.770438	0.000253	-0.002886	-0.041708	-0.999999	0.000836	-0.000129	0.000923
27300	0.004142	0.102773	9.770439	0.000013	-0.002844	-0.041708	-0.999999	0.000823	-0.000128	0.000942
27301	0.015546	0.153842	9.819618	0.011592	0.047555	0.008026	-0.999999	0.000825	-0.000140	0.000951
27302	0.023855	0.116374	9.786540	0.020001	0.010459	-0.025452	-0.999999	0.000825	-0.000144	0.000959
27303	0.035495	0.090416	9.793135	0.031572	-0.015565	-0.019133	-0.999999	0.000828	-0.000139	0.000976
27304	0.023397	0.116379	9.786541	0.019516	0.010532	-0.025451	-0.999999	0.000829	-0.000143	0.000983
27305	0.034980	0.090337	9.793138	0.031091	-0.015489	-0.019132	-0.999999	0.000840	-0.000143	0.001003
27306	0.014176	0.153734	9.819622	0.010377	0.047746	0.008026	-0.999999	0.000837	-0.000140	0.001018
27307	0.002257	0.102966	9.770437	-0.001678	-0.002591	-0.041708	-0.999999	0.000828	-0.000138	0.001022
27308	-0.006724	0.140538	9.803513	-0.010578	0.034590	-0.008232	-0.999999	0.000831	-0.000142	0.001023
27309	-0.015696	0.101147	9.794002	-0.019471	-0.004659	-0.018171	-0.999999	0.000831	-0.000154	0.001039
27310	0.009865	0.142484	9.779946	0.006250	0.036808	-0.031770	-0.999999	0.000834	-0.000149	0.001056
27311	0.004226	0.114559	9.810110	0.000513	0.008645	-0.001912	-0.999999	0.000839	-0.000151	0.001073
27312	0.003975	0.114654	9.810109	0.000272	0.008688	-0.001912	-0.999999	0.000828	-0.000150	0.001085
27313	0.012387	0.154078	9.819619	0.008679	0.048002	0.008027	-0.999999	0.000841	-0.000142	0.001097
27314	0.020835	0.116517	9.786545	0.017106	0.010906	-0.025447	-0.999999	0.000840	-0.000154	0.001113
27315	0.029152	0.155970	9.796056	0.025510	0.050217	-0.015508	-0.999999	0.000839	-0.000142	0.001112
27316	-0.017257	0.101307	9.793998	-0.021155	-0.004399	-0.018174	-0.999999	0.000831	-0.000141	0.001116
27317	0.002994	0.114916	9.810106	-0.000935	0.008869	-0.001912	-0.999999	0.000827	-0.000137	0.001131
27318	0.002724	0.115080	9.810104	-0.001176	0.008912	-0.001912	-0.999999	0.000819	-0.000143	0.001144
27319	-0.014846	0.113290	9.833665	-0.018738	0.006802	0.021621	-0.999999	0.000817	-0.000139	0.001150
27320	0.019673	0.117205	9.786540	0.015656	0.011135	-0.025445	-0.999999	0.000817	-0.000127	0.001149
27321	-0.035630	0.099980	9.817552	-0.039684	-0.006359	0.005356	-0.999999	0.000811	-0.000141	0.001155
27322	0.007286	0.143295	9.779936	0.003351	0.037258	-0.031770	-0.999999	0.000816	-0.000128	0.001164
27323	0.039515	0.130883	9.802650	0.035390	0.024478	-0.009179	-0.999999	0.000807	-0.000126	0.001168
27324	-0.010432	0.141474	9.803496	-0.014452	0.035188	-0.008239	-0.999999	0.000816	-0.000136	0.001179
27325	0.018482	0.117299	9.786541	0.014449	0.011319	-0.025443	-0.999999	0.000827	-0.000129	0.001173
27326	-0.002188	0.103838	9.770428	-0.006250	-0.001874	-0.041710	-0.999999	0.000820	-0.000135	0.001179
27327	-0.014333	0.129879	9.763823	-0.018311	0.024209	-0.048037	-0.999999	0.000821	-0.000131	0.001178
27328	0.000519	0.115473	9.810100	-0.003594	0.009295	-0.001913	-0.999999	0.000823	-0.000127	0.001178
27329	0.000435	0.115504	9.810099	-0.003834	0.009321	-0.001913	-0.999999	0.000822	-0.000115	0.001177
27330	0.000190	0.115551	9.810099	-0.004076	0.009364	-0.001913	-0.999999	0.000822	-0.000128	0.001193
27331	-0.029406	0.139579	9.827051	-0.033463	0.033299	0.015286	-0.999999	0.000824	-0.000131	0.001193
27332	0.016849	0.117542	9.786541	0.012768	0.011590	-0.025441	-0.999999	0.000821	-0.000129	0.001183
27333	-0.000789	0.115635	9.810098	-0.004806	0.009473	-0.001914	-0.999999	0.000825	-0.000140	0.001184
27334	-0.016190	0.130043	9.763818	-0.019999	0.024470	-0.048041	-0.999999	0.000826	-0.000144	0.001192
27335	0.036236	0.131030	9.802660	0.032489	0.024938	-0.009170	-0.999999	0.000828	-0.000148	0.001192
27336	0.010151	0.089682	9.816705	0.006296	-0.016453	0.004417	-0.999999	0.000830	-0.000144	0.001191
27337	0.003617	0.143474	9.779936	-0.000267	0.037818	-0.031772	-0.999999	0.000836	-0.000130	0.001192
27338	-0.005142	0.104040	9.770425	-0.009131	-0.001426	-0.041712	-0.999999	0.000836	-0.000142	0.001208
27339	0.003000	0.143418	9.779937	-0.000753	0.037892	-0.031772	-0.999999	0.000843	-0.000145	0.001194
27340	0.014549	0.117543	9.786545	0.010833	0.011890	-0.025439	-0.999999	0.000832	-0.000152	0.001189
27341	-0.006166	0.104282	9.770422	-0.009856	-0.001318	-0.041712	-0.999999	0.000826	-0.000150	0.001187
27342	-0.006402	0.104280	9.770421	-0.010096	-0.001275	-0.041713	-0.999999	0.000836	-0.000152	0.001189
27343	0.013709	0.117706	9.786544	0.010112	0.011998	-0.025439	-0.999999	0.000834	-0.000157	0.001180
27344	-0.003936	0.115796	9.810095	-0.007460	0.009891	-0.001916	-0.999999	0.000837	-0.000161	0.001180
27345	0.033663	0.131122	9.802668	0.030084	0.025314	-0.009163	-0.999999	0.000846	-0.000147	0.001174
27346	0.013053	0.117760	9.786544	0.009397	0.012112	-0.025438	-0.999999	0.000830	-0.000156	0.001160
27347	0.033081	0.131194	9.802669	0.029597	0.025390	-0.009162	-0.999999	0.000853	-0.000162	0.001176
27348	0.007014	0.089796	9.816707	0.003408	-0.016006	0.004419	-0.999999	0.000839	-0.000154	0.001170
27349	0.012243	0.117833	9.786544	0.008669	0.012223	-0.025438	-0.999999	0.000841	-0.000158	0.001170
27350	-0.025750	0.102493	9.793967	-0.029349	-0.003132	-0.018195	-0.999999	0.000836	-0.000156	0.001167
27351	0.032149	0.131438	9.802669	0.028628	0.025547	-0.009160	-0.999999	0.000838	-0.000159	0.001167
27352	0.008383	0.106503	9.746868	0.004840	0.001247	-0.065235	-0.999999	0.000833	-0.000157	0.001164
27353	0.019728	0.157562	9.796054	0.016316	0.051664	-0.015496	-0.999999	0.000830	-0.000162	0.001155
27354	0.026095	0.103813	9.832830	0.022400	-0.002528	0.020699	-0.999999	0.000828	-0.000143	0.001153
27355	0.031575	0.131512	9.802670	0.027666	0.025693	-0.009157	-0.999999	0.000853	-0.000133	0.001152
27356	-0.018280	0.142000	9.803477	-0.022183	0.036375	-0.008258	-0.999999	0.000837	-0.000141	0.001163
27357	0.051487	0.145100	9.818798	0.047623	0.039021	0.007124	-0.999999	0.000840	-0.000136	0.001154
27358	-0.039151	0.128772	9.787344	-0.043101	0.023202	-0.024540	-0.999999	0.000832	-0.000135	0.001159
27359	0.010208	0.118377	9.786540	0.006261	0.012598	-0.025436	-0.999999	0.000830	-0.000140	0.001149
27360	0.030313	0.131784	9.802670	0.026456	0.025892	-0.009154	-0.999999	0.000843	-0.000141	0.001145
27361	-0.022602	0.130618	9.763797	-0.026487	0.025460	-0.048059	-0.999999	0.000850	-0.000135	0.001146
27362	-0.002461	0.144203	9.779926	-0.006293	0.038754	-0.031777	-0.999999	0.000835	-0.000144	0.001132
27363	-0.008313	0.116376	9.810086	-0.012040	0.010594	-0.001921	-0.999999	0.000849	-0.000153	0.001128
27364	-0.011800	0.104852	9.770410	-0.015373	-0.000461	-0.041719	-0.999999	0.000838	-0.000161	0.001124
27365	0.008398	0.118524	9.786540	0.004822	0.012829	-0.025436	-0.999999	0.000832	-0.000151	0.001112
27366	0.008222	0.118583	9.786539	0.004581	0.012872	-0.025436	-0.999999	0.000835	-0.000154	0.001113
27367	-0.009366	0.116735	9.810080	-0.013004	0.010749	-0.001922	-0.999999	0.000827	-0.000152	0.001117
27368	0.010785	0.130278	9.826213	0.007185	0.024046	0.014363	-0.999999	0.000832	-0.000156	0.001110
27369	0.015912	0.158093	9.796053	0.012447	0.052271	-0.015494	-0.999999	0.000837	-0.000159	0.001103
27370	0.007200	0.118802	9.786537	0.003612	0.013021	-0.025435	-0.999999	0.000823	-0.000151	0.001072
27371	-0.001851	0.156230	9.819592	-0.005388	0.050190	0.008018	-0.999999	0.000846	-0.000157	0.001088
27372	-0.013589	0.105245	9.770404	-0.017303	-0.000160	-0.041723	-0.999999	0.000830	-0.000142	0.001056
27373	0.006692	0.118862	9.786537	0.002882	0.013131	-0.025435	-0.999999	0.000836	-0.000146	0.001049
27374	-0.010886	0.116918	9.810077	-0.014706	0.011017	-0.001925	-0.999999	0.000835	-0.000143	0.001031
27375	-0.005724	0.144908	9.779914	-0.009435	0.039242	-0.031782	-0.999999	0.000828	-0.000149	0.001012
27376	-0.031848	0.103663	9.793937	-0.035612	-0.002166	-0.018215	-0.999999	0.000827	-0.000146	0.000994
27377	0.008757	0.130762	9.826208	0.004996	0.024380	0.014363	-0.999999	0.000817	-0.000146	0.000982
27378	0.013951	0.158660	9.796046	0.010265	0.052616	-0.015493	-0.999999	0.000829	-0.000147	0.000977
27379	0.005333	0.119317	9.786532	0.001435	0.013350	-0.025435	-0.999999	0.000813	-0.000132	0.000945
27380	0.025525	0.132937	9.802668	0.021617	0.026652	-0.009144	-0.999999	0.000818	-0.000144	0.000922
27381	0.004769	0.119532	9.786530	0.000956	0.013425	-0.025435	-0.999999	0.000809	-0.000143	0.000902
27382	0.016399	0.093629	9.793156	0.012555	-0.012567	-0.019086	-0.999999	0.000817	-0.000146	0.000887
27383	0.004195	0.119503	9.786531	0.000474	0.013499	-0.025435	-0.999999	0.000820	-0.000151	0.000863
27384	0.053586	0.108936	9.785763	0.049847	0.002928	-0.026299	-0.999999	0.000824	-0.000146	0.000855
27385	0.015711	0.093404	9.793159	0.011828	-0.012456	-0.019085	-0.999999	0.000837	-0.000139	0.000841
27386	0.015582	0.093254	9.793161	0.011587	-0.012413	-0.019085	-0.999999	0.000843	-0.000134	0.000826
27387	0.053097	0.108611	9.785769	0.049117	0.003041	-0.026295	-0.999999	0.000846	-0.000138	0.000826
27388	0.052845	0.108655	9.785770	0.048877	0.003084	-0.026294	-0.999999	0.000843	-0.000135	0.000816
27389	0.040855	0.134699	9.779142	0.036800	0.029151	-0.032645	-0.999999	0.000840	-0.000124	0.000822
27390	0.032257	0.095316	9.769627	0.027985	-0.010102	-0.042587	-0.999999	0.000843	-0.000120	0.000814
27391	0.023173	0.132865	9.802675	0.018956	0.027063	-0.009140	-0.999999	0.000836	-0.000125	0.000819
27392	0.002455	0.119398	9.786533	-0.001701	0.013841	-0.025436	-0.999999	0.000846	-0.000127	0.000822
27393	0.002255	0.119259	9.786534	-0.001945	0.013876	-0.025436	-0.999999	0.000854	-0.000121	0.000824
27394	-0.027274	0.143179	9.803439	-0.031388	0.037789	-0.008288	-0.999999	0.000859	-0.000133	0.000825
27395	0.021814	0.132580	9.802682	0.017987	0.027217	-0.009139	-0.999999	0.000865	-0.000152	0.000827
27396	0.038900	0.134609	9.779151	0.035104	0.029421	-0.032639	-0.999999	0.000853	-0.000134	0.000830
27397	0.038714	0.134742	9.779150	0.034859	0.029452	-0.032639	-0.999999	0.000855	-0.000146	0.000838
27398	0.012545	0.093394	9.793164	0.008691	-0.011965	-0.019081	-0.999999	0.000857	-0.000142	0.000838
27399	0.038156	0.134773	9.779152	0.034373	0.029528	-0.032637	-0.999999	0.000857	-0.000146	0.000845
27400	0.000227	0.119490	9.786532	-0.003640	0.014141	-0.025437	-0.999999	0.000847	-0.000136	0.000849
27401	0.008582	0.158878	9.796049	0.004684	0.053473	-0.015493	-0.999999	0.000863	-0.000136	0.000854
27402	-0.029343	0.143569	9.803427	-0.033329	0.038084	-0.008296	-0.999999	0.000840	-0.000130	0.000853
27403	0.020054	0.133046	9.802680	0.016049	0.027518	-0.009136	-0.999999	0.000867	-0.000136	0.000854
27404	-0.017811	0.117504	9.810060	-0.021964	0.012128	-0.001940	-0.999999	0.000856	-0.000118	0.000857
27405	0.011247	0.093637	9.793163	0.007004	-0.011709	-0.019080	-0.999999	0.000857	-0.000130	0.000866
27406	0.022443	0.144696	9.842356	0.018364	0.038740	0.030664	-0.999999	0.000849	-0.000128	0.000870
27407	0.013768	0.105361	9.832838	0.009563	-0.000530	0.020720	-0.999999	0.000853	-0.000124	0.000862
27408	0.019067	0.133232	9.802679	0.014839	0.027706	-0.009135	-0.999999	0.000854	-0.000120	0.000862
27409	-0.001560	0.119749	9.786528	-0.005807	0.014468	-0.025439	-0.999999	0.000856	-0.000123	0.000862
27410	-0.013693	0.145686	9.779894	-0.017896	0.040539	-0.031799	-0.999999	0.000858	-0.000119	0.000862
27411	0.001055	0.131397	9.826203	-0.003247	0.025652	0.014361	-0.999999	0.000849	-0.000118	0.000866
27412	0.000733	0.131427	9.826203	-0.003489	0.025695	0.014360	-0.999999	0.000859	-0.000128	0.000877
27413	0.017863	0.133323	9.802680	0.013634	0.027887	-0.009134	-0.999999	0.000858	-0.000116	0.000876
27414	-0.002701	0.119924	9.786526	-0.007009	0.014656	-0.025440	-0.999999	0.000854	-0.000121	0.000874
27415	0.014395	0.121958	9.763002	0.010122	0.016856	-0.048933	-0.999999	0.000852	-0.000118	0.000881
27416	-0.003201	0.120038	9.786525	-0.007488	0.014733	-0.025440	-0.999999	0.000855	-0.000121	0.000881
27417	0.008560	0.094024	9.793162	0.004120	-0.011259	-0.019078	-0.999999	0.000864	-0.000107	0.000874
27418	0.008363	0.094177	9.793161	0.003879	-0.011216	-0.019077	-0.999999	0.000843	-0.000117	0.000875
27419	0.036800	0.147189	9.818833	0.032580	0.041389	0.007176	-0.999999	0.000857	-0.000126	0.000871
27420	0.016104	0.133685	9.802678	0.011941	0.028156	-0.009132	-0.999999	0.000849	-0.000124	0.000876
27421	0.024722	0.096299	9.769640	0.020526	-0.008945	-0.042568	-0.999999	0.000851	-0.000128	0.000876
27422	0.015529	0.133759	9.802678	0.011457	0.028233	-0.009132	-0.999999	0.000854	-0.000131	0.000877
27423	0.032644	0.135752	9.779159	0.028591	0.030433	-0.032621	-0.999999	0.000850	-0.000128	0.000891
27424	0.026864	0.107904	9.809318	0.022829	0.002283	-0.002766	-0.999999	0.000855	-0.000140	0.000892
27425	-0.005773	0.120516	9.786517	-0.009662	0.015060	-0.025443	-0.999999	0.000837	-0.000140	0.000902
27426	-0.011437	0.092838	9.816674	-0.015425	-0.013090	0.004412	-0.999999	0.000838	-0.000136	0.000901
27427	-0.023431	0.118850	9.810032	-0.027519	0.012966	-0.001955	-0.999999	0.000832	-0.000125	0.000915
27428	-0.006306	0.120846	9.786513	-0.010384	0.015177	-0.025443	-0.999999	0.000837	-0.000135	0.000941
27429	-0.009136	0.104482	9.856349	-0.013127	-0.001871	0.044211	-0.999999	0.000839	-0.000139	0.000941
27430	0.013454	0.134311	9.802674	0.009531	0.028533	-0.009131	-0.999999	0.000840	-0.000134	0.000965
27431	0.013297	0.134354	9.802673	0.009286	0.028566	-0.009130	-0.999999	0.000839	-0.000131	0.000972
27432	0.045405	0.122009	9.825477	0.041290	0.015867	0.013553	-0.999999	0.000835	-0.000127	0.000987
27433	-0.002017	0.148803	9.756352	-0.006066	0.043552	-0.055300	-0.999999	0.000845	-0.000129	0.000989
27434	0.024582	0.108470	9.809318	0.020414	0.002662	-0.002761	-0.999999	0.000841	-0.000125	0.001004
27435	-0.025315	0.119043	9.810024	-0.029456	0.013262	-0.001961	-0.999999	0.000839	-0.000130	0.001019
27436	0.009151	0.123086	9.762994	0.005064	0.017645	-0.048930	-0.999999	0.000831	-0.000128	0.001024
27437	-0.020391	0.147177	9.779860	-0.024417	0.041533	-0.031817	-0.999999	0.000831	-0.000132	0.001031
27438	-0.029088	0.107794	9.770342	-0.033188	0.002270	-0.041764	-0.999999	0.000830	-0.000128	0.001038
27439	0.031839	0.148364	9.818832	0.027727	0.042152	0.007188	-0.999999	0.000828	-0.000124	0.001045
27440	0.011397	0.134897	9.802668	0.007100	0.028910	-0.009130	-0.999999	0.000830	-0.000111	0.001061
27441	0.014434	0.146337	9.842346	0.009864	0.040058	0.030671	-0.999999	0.000843	-0.000096	0.001064
27442	0.011222	0.134745	9.802670	0.006621	0.028987	-0.009130	-0.999999	0.000838	-0.000109	0.001095
27443	0.002391	0.095624	9.793150	-0.002152	-0.010287	-0.019076	-0.999999	0.000816	-0.000110	0.001095
27444	0.010467	0.135272	9.802664	0.006130	0.029063	-0.009129	-0.999999	0.000820	-0.000121	0.001121
27445	0.039469	0.111223	9.785804	0.035123	0.005250	-0.026236	-0.999999	0.000828	-0.000114	0.001123
27446	-0.036233	0.080337	9.800492	-0.040652	-0.025626	-0.011917	-0.999999	0.000819	-0.000121	0.001135
27447	-0.005224	0.149677	9.756337	-0.009461	0.044074	-0.055305	-0.999999	0.000824	-0.000115	0.001145
27448	0.018472	0.097828	9.769638	0.014019	-0.007922	-0.042555	-0.999999	0.000823	-0.000111	0.001152
27449	-0.022976	0.147714	9.779846	-0.027331	0.041973	-0.031827	-0.999999	0.000828	-0.000114	0.001170
27450	0.008948	0.135449	9.802663	0.004666	0.029286	-0.009129	-0.999999	0.000812	-0.000123	0.001155
27451	-0.011626	0.122182	9.786492	-0.015957	0.016029	-0.025452	-0.999999	0.000806	-0.000111	0.001169
27452	0.025871	0.137657	9.779152	0.021568	0.031535	-0.032607	-0.999999	0.000816	-0.000121	0.001180
27453	-0.009253	0.133658	9.826169	-0.013446	0.027223	0.014348	-0.999999	0.000818	-0.000125	0.001180
27454	0.004903	0.124087	9.762984	0.000717	0.018323	-0.048930	-0.999999	0.000817	-0.000122	0.001187
27455	0.007711	0.135705	9.802661	0.003472	0.029469	-0.009129	-0.999999	0.000816	-0.000118	0.001194
27456	-0.012884	0.122235	9.786489	-0.017144	0.016221	-0.025455	-0.999999	0.000816	-0.000122	0.001202
27457	-0.056394	0.078950	9.823982	-0.060685	-0.027405	0.011548	-0.999999	0.000812	-0.000128	0.001200
27458	-0.013500	0.122178	9.786489	-0.017631	0.016297	-0.025456	-0.999999	0.000833	-0.000126	0.001215
27459	-0.013708	0.122086	9.786490	-0.017865	0.016325	-0.025456	-0.999999	0.000825	-0.000125	0.001220
27460	0.006478	0.135620	9.802663	0.002266	0.029661	-0.009130	-0.999999	0.000835	-0.000118	0.001214
27461	0.003444	0.124028	9.762986	-0.000956	0.018577	-0.048931	-0.999999	0.000832	-0.000107	0.001220
27462	0.006248	0.135622	9.802663	0.001779	0.029738	-0.009130	-0.999999	0.000835	-0.000110	0.001220
27463	-0.026343	0.148001	9.779834	-0.030696	0.042496	-0.031839	-0.999999	0.000838	-0.000114	0.001220
27464	-0.011685	0.133638	9.826166	-0.016099	0.027642	0.014343	-0.999999	0.000839	-0.000110	0.001220
27465	0.034674	0.111703	9.785817	0.030313	0.006012	-0.026220	-0.999999	0.000837	-0.000123	0.001218
27466	-0.012191	0.133724	9.826165	-0.016587	0.027717	0.014342	-0.999999	0.000840	-0.000103	0.001201
27467	0.002242	0.124090	9.762985	-0.002397	0.018807	-0.048932	-0.999999	0.000845	-0.000097	0.001210
27468	-0.003404	0.096361	9.793142	-0.008170	-0.009342	-0.019078	-0.999999	0.000828	-0.000098	0.001195
27469	0.004637	0.135987	9.802659	0.000086	0.030000	-0.009130	-0.999999	0.000829	-0.000110	0.001204
27470	0.036573	0.123669	9.825493	0.032076	0.017326	0.013585	-0.999999	0.000824	-0.000108	0.001201
27471	0.015958	0.110284	9.809315	0.011463	0.004059	-0.002747	-0.999999	0.000819	-0.000113	0.001199
27472	0.015625	0.110335	9.809315	0.011222	0.004102	-0.002746	-0.999999	0.000822	-0.000117	0.001200
27473	-0.004856	0.096758	9.793138	-0.009390	-0.009165	-0.019079	-0.999999	0.000828	-0.000103	0.001200
27474	0.003348	0.136373	9.802654	-0.001135	0.030190	-0.009131	-0.999999	0.000808	-0.000113	0.001201
27475	0.002974	0.136586	9.802651	-0.001381	0.030221	-0.009131	-0.999999	0.000810	-0.000116	0.001202
27476	0.002605	0.136458	9.802653	-0.001622	0.030264	-0.009131	-0.999999	0.000825	-0.000125	0.001198
27477	0.031619	0.112445	9.785819	0.027407	0.006465	-0.026212	-0.999999	0.000821	-0.000123	0.001187
27478	-0.023767	0.095123	9.816630	-0.028002	-0.011151	0.004386	-0.999999	0.000815	-0.000129	0.001192
27479	0.019079	0.138546	9.779155	0.015052	0.032557	-0.032598	-0.999999	0.000820	-0.000132	0.001185
27480	0.013313	0.110624	9.809315	0.009276	0.004408	-0.002744	-0.999999	0.000823	-0.000136	0.001185
27481	0.018612	0.138495	9.779157	0.014567	0.032628	-0.032597	-0.999999	0.000822	-0.000135	0.001186
27482	0.003923	0.148110	9.842330	0.000115	0.041570	0.030670	-0.999999	0.000822	-0.000148	0.001202
27483	0.012524	0.110604	9.809317	0.008788	0.004466	-0.002744	-0.999999	0.000829	-0.000151	0.001187
27484	0.000490	0.136593	9.802651	-0.003324	0.030520	-0.009133	-0.999999	0.000818	-0.000133	0.001190
27485	0.017695	0.138693	9.779156	0.013838	0.032736	-0.032597	-0.999999	0.000820	-0.000145	0.001199
27486	-0.008413	0.097315	9.793130	-0.012295	-0.008717	-0.019082	-0.999999	0.000819	-0.000141	0.001206
27487	0.002675	0.148339	9.842327	-0.001101	0.041751	0.030669	-0.999999	0.000821	-0.000145	0.001206
27488	0.028737	0.112888	9.785822	0.024990	0.006842	-0.026206	-0.999999	0.000817	-0.000151	0.001204
27489	-0.030256	0.160797	9.819472	-0.033806	0.054526	0.007938	-0.999999	0.000822	-0.000154	0.001197
27490	0.010626	0.110887	9.809316	0.007106	0.004731	-0.002743	-0.999999	0.000827	-0.000166	0.001199
27491	-0.004473	0.125187	9.762971	-0.007954	0.019650	-0.048936	-0.999999	0.000831	-0.000153	0.001182
27492	0.015664	0.138822	9.779157	0.012158	0.032999	-0.032595	-0.999999	0.000820	-0.000161	0.001178
27493	-0.001945	0.137050	9.802645	-0.005492	0.030850	-0.009135	-0.999999	0.000814	-0.000150	0.001166
27494	0.015361	0.139047	9.779155	0.011678	0.033075	-0.032595	-0.999999	0.000821	-0.000145	0.001151
27495	-0.028069	0.095663	9.816614	-0.031861	-0.010577	0.004375	-0.999999	0.000818	-0.000151	0.001142
27496	-0.002545	0.137137	9.802643	-0.006214	0.030965	-0.009135	-0.999999	0.000818	-0.000148	0.001124
27497	0.014572	0.139238	9.779153	0.010959	0.033179	-0.032595	-0.999999	0.000809	-0.000155	0.001112
27498	-0.015018	0.163196	9.795970	-0.018571	0.057046	-0.015530	-0.999999	0.000820	-0.000149	0.001082
27499	-0.023668	0.123796	9.786450	-0.027285	0.017763	-0.025480	-0.999999	0.000808	-0.000157	0.001077
27500	-0.006519	0.125806	9.762962	-0.010112	0.019989	-0.048939	-0.999999	0.000819	-0.000151	0.001071
27501	-0.003815	0.137247	9.802641	-0.007422	0.031147	-0.009137	-0.999999	0.000825	-0.000155	0.001040
27502	0.013317	0.139273	9.779154	0.009752	0.033374	-0.032594	-0.999999	0.000817	-0.000154	0.001019
27503	-0.004360	0.137392	9.802639	-0.007905	0.031225	-0.009137	-0.999999	0.000820	-0.000158	0.000995
27504	0.007241	0.111454	9.809312	0.003730	0.005261	-0.002741	-0.999999	0.000823	-0.000163	0.000970
27505	0.024510	0.113265	9.785830	0.020900	0.007478	-0.026197	-0.999999	0.000840	-0.000147	0.000941
27506	0.024306	0.113098	9.785832	0.020660	0.007521	-0.026196	-0.999999	0.000844	-0.000159	0.000942
27507	-0.008170	0.125387	9.762966	-0.011802	0.020242	-0.048941	-0.999999	0.000853	-0.000145	0.000911
27508	0.018575	0.085211	9.815989	0.014636	-0.020599	0.003657	-0.999999	0.000839	-0.000137	0.000905
27509	0.023906	0.113323	9.785830	0.019935	0.007626	-0.026195	-0.999999	0.000833	-0.000135	0.000878
27510	0.050402	0.073142	9.838858	0.046372	-0.033213	0.026406	-0.999999	0.000834	-0.000140	0.000861
27511	0.014928	0.073902	9.776310	0.010990	-0.031620	-0.036144	-0.999999	0.000843	-0.000142	0.000863
27512	0.023033	0.113230	9.785834	0.019211	0.007742	-0.026194	-0.999999	0.000849	-0.000145	0.000856
27513	0.002598	0.099510	9.769638	-0.001370	-0.005541	-0.042544	-0.999999	0.000867	-0.000129	0.000844
27514	0.022728	0.112848	9.785839	0.018728	0.007817	-0.026193	-0.999999	0.000872	-0.000141	0.000846
27515	0.042659	0.126340	9.802039	0.038825	0.021166	-0.009841	-0.999999	0.000874	-0.000144	0.000846
27516	0.010158	0.138771	9.779165	0.006367	0.033896	-0.032593	-0.999999	0.000871	-0.000142	0.000836
27517	-0.007432	0.136890	9.802644	-0.011303	0.031748	-0.009142	-0.999999	0.000870	-0.000138	0.000842
27518	0.009815	0.138895	9.779164	0.005880	0.033978	-0.032593	-0.999999	0.000871	-0.000134	0.000842
27519	0.024490	0.124559	9.825520	0.020431	0.019140	0.013612	-0.999999	0.000872	-0.000130	0.000841
27520	-0.022834	0.151318	9.756287	-0.026817	0.046739	-0.055349	-0.999999	0.000873	-0.000134	0.000849
27521	0.038437	0.114995	9.762362	0.034457	0.010274	-0.049639	-0.999999	0.000875	-0.000137	0.000849
27522	0.003503	0.110894	9.809321	-0.000636	0.005940	-0.002741	-0.999999	0.000894	-0.000120	0.000862
27523	0.003394	0.110726	9.809323	-0.000877	0.005969	-0.002741	-0.999999	0.000896	-0.000123	0.000862
27524	0.020701	0.112820	9.785844	0.016309	0.008200	-0.026189	-0.999999	0.000885	-0.000106	0.000865
27525	0.003124	0.110891	9.809321	-0.001361	0.006044	-0.002741	-0.999999	0.000896	-0.000116	0.000869
27526	-0.018158	0.174279	9.835648	-0.022468	0.069221	0.024252	-0.999999	0.000888	-0.000114	0.000873
27527	-0.021323	0.162834	9.795965	-0.025610	0.058119	-0.015552	-0.999999	0.000888	-0.000118	0.000881
27528	0.028096	0.152448	9.795370	0.023791	0.047673	-0.016236	-0.999999	0.000889	-0.000114	0.000880
27529	0.002063	0.111035	9.809320	-0.002325	0.006190	-0.002741	-0.999999	0.000891	-0.000117	0.000881
27530	0.007284	0.138715	9.779169	0.002980	0.034423	-0.032593	-0.999999	0.000913	-0.000116	0.000896
27531	0.019109	0.112640	9.785849	0.014621	0.008458	-0.026186	-0.999999	0.000912	-0.000104	0.000894
27532	-0.022375	0.162638	9.795966	-0.026823	0.058309	-0.015557	-0.999999	0.000901	-0.000111	0.000890
27533	-0.007155	0.071515	9.799793	-0.011728	-0.032982	-0.012693	-0.999999	0.000902	-0.000107	0.000889
27534	-0.010931	0.136771	9.802643	-0.015415	0.032383	-0.009150	-0.999999	0.000915	-0.000109	0.000884
27535	0.006104	0.138661	9.779170	0.001780	0.034606	-0.032594	-0.999999	0.000914	-0.000122	0.000876
27536	-0.014609	0.125137	9.762961	-0.018785	0.021324	-0.048954	-0.999999	0.000918	-0.000126	0.000876
27537	-0.012058	0.136773	9.802641	-0.016133	0.032486	-0.009152	-0.999999	0.000910	-0.000132	0.000882
27538	0.017014	0.112732	9.785852	0.012948	0.008723	-0.026184	-0.999999	0.000932	-0.000131	0.000897
27539	-0.000662	0.110509	9.809326	-0.004734	0.006561	-0.002742	-0.999999	0.000939	-0.000133	0.000882
27540	0.036713	0.126139	9.802066	0.032782	0.022124	-0.009821	-0.999999	0.000924	-0.000141	0.000893
27541	-0.004172	0.099228	9.769641	-0.008109	-0.004499	-0.042546	-0.999999	0.000927	-0.000137	0.000884
27542	-0.013387	0.136687	9.802641	-0.017355	0.032675	-0.009154	-0.999999	0.000928	-0.000132	0.000884
27543	-0.004492	0.099258	9.769640	-0.008589	-0.004427	-0.042547	-0.999999	0.000926	-0.000129	0.000891
27544	-0.010203	0.071354	9.799791	-0.014379	-0.032575	-0.012696	-0.999999	0.000934	-0.000131	0.000901
27545	-0.019389	0.108698	9.832792	-0.023627	0.004578	0.020695	-0.999999	0.000942	-0.000117	0.000895
27546	0.041087	0.154089	9.771919	0.036878	0.050529	-0.039668	-0.999999	0.000936	-0.000123	0.000900
27547	0.040743	0.154214	9.771918	0.036635	0.050560	-0.039667	-0.999999	0.000933	-0.000127	0.000916
27548	0.014790	0.112855	9.785854	0.010527	0.009082	-0.026181	-0.999999	0.000933	-0.000115	0.000914
27549	0.022903	0.152348	9.795385	0.018708	0.048438	-0.016229	-0.999999	0.000932	-0.000127	0.000931
27550	0.014126	0.113010	9.785853	0.010041	0.009154	-0.026181	-0.999999	0.000926	-0.000133	0.000936
27551	0.013882	0.113058	9.785853	0.009804	0.009190	-0.026181	-0.999999	0.000931	-0.000128	0.000945
27552	0.013733	0.113053	9.785853	0.009563	0.009233	-0.026181	-0.999999	0.000930	-0.000124	0.000952
27553	-0.015893	0.137071	9.802632	-0.020012	0.033065	-0.009161	-0.999999	0.000925	-0.000129	0.000975
27554	-0.004196	0.111240	9.809317	-0.008362	0.007113	-0.002745	-0.999999	0.000927	-0.000125	0.000974
27555	0.033264	0.126567	9.802073	0.029152	0.022670	-0.009811	-0.999999	0.000949	-0.000131	0.000990
27556	0.012688	0.112914	9.785856	0.008599	0.009379	-0.026180	-0.999999	0.000941	-0.000129	0.000995
27557	0.012425	0.113031	9.785855	0.008358	0.009411	-0.026180	-0.999999	0.000941	-0.000133	0.001002
27558	0.044419	0.100726	9.808762	0.040320	-0.003205	-0.003391	-0.999999	0.000940	-0.000130	0.001009
27559	0.029383	0.115065	9.762393	0.025327	0.011683	-0.049612	-0.999999	0.000945	-0.000132	0.001027
27560	0.014515	0.124587	9.825539	0.010501	0.020667	0.013625	-0.999999	0.000950	-0.000135	0.001044
27561	0.028631	0.114987	9.762396	0.024850	0.011757	-0.049611	-0.999999	0.000951	-0.000155	0.001062
27562	0.001672	0.150278	9.818855	-0.001873	0.046733	0.007206	-0.999999	0.000972	-0.000154	0.001076
27563	0.010721	0.112759	9.785860	0.006917	0.009629	-0.026179	-0.999999	0.000960	-0.000136	0.001080
27564	0.018882	0.152273	9.795395	0.015087	0.049001	-0.016225	-0.999999	0.000969	-0.000146	0.001091
27565	0.018502	0.152219	9.795396	0.014843	0.049039	-0.016225	-0.999999	0.000970	-0.000150	0.001098
27566	0.012856	0.124372	9.825544	0.009047	0.020892	0.013626	-0.999999	0.000969	-0.000138	0.001097
27567	-0.002019	0.138716	9.779171	-0.005947	0.035777	-0.032599	-0.999999	0.000972	-0.000133	0.001113
27568	-0.002235	0.138673	9.779172	-0.006188	0.035819	-0.032600	-0.999999	0.000977	-0.000135	0.001131
27569	0.029750	0.126431	9.802086	0.025773	0.023197	-0.009802	-0.999999	0.000966	-0.000134	0.001143
27570	-0.023113	0.125358	9.762942	-0.026970	0.022552	-0.048976	-0.999999	0.000966	-0.000146	0.001159
27571	0.003241	0.085197	9.816007	-0.000572	-0.018263	0.003673	-0.999999	0.000963	-0.000150	0.001175
27572	0.008337	0.113054	9.785859	0.004743	0.009970	-0.026178	-0.999999	0.000973	-0.000160	0.001186
27573	0.008023	0.113036	9.785860	0.004505	0.010005	-0.026178	-0.999999	0.000969	-0.000158	0.001175
27574	0.010677	0.124686	9.825543	0.007109	0.021189	0.013627	-0.999999	0.000968	-0.000154	0.001182
27575	0.016002	0.152593	9.795395	0.012416	0.049413	-0.016223	-0.999999	0.000971	-0.000149	0.001199
27576	0.007462	0.113142	9.785859	0.003775	0.010124	-0.026178	-0.999999	0.000971	-0.000153	0.001206
27577	0.015646	0.152474	9.795397	0.011931	0.049490	-0.016223	-0.999999	0.000987	-0.000136	0.001202
27578	0.007288	0.112939	9.785861	0.003291	0.010201	-0.026177	-0.999999	0.000984	-0.000133	0.001216
27579	-0.022364	0.136879	9.802622	-0.026310	0.034015	-0.009179	-0.999999	0.000986	-0.000137	0.001217
27580	-0.010758	0.111156	9.809313	-0.014652	0.008069	-0.002753	-0.999999	0.000970	-0.000145	0.001228
27581	0.006426	0.113246	9.785858	0.002553	0.010309	-0.026177	-0.999999	0.000981	-0.000138	0.001221
27582	-0.008405	0.122695	9.848997	-0.012311	0.019292	0.037051	-0.999999	0.000986	-0.000141	0.001214
27583	-0.011544	0.111110	9.809312	-0.015390	0.008175	-0.002755	-0.999999	0.000986	-0.000145	0.001222
27584	0.011058	0.141029	9.755714	0.007387	0.038610	-0.056027	-0.999999	0.000986	-0.000149	0.001230
27585	-0.012012	0.111111	9.809312	-0.015874	0.008248	-0.002755	-0.999999	0.000992	-0.000135	0.001231
27586	-0.012238	0.111088	9.809312	-0.016115	0.008291	-0.002756	-0.999999	0.000992	-0.000148	0.001247
27587	0.013122	0.152807	9.795396	0.009497	0.049857	-0.016222	-0.999999	0.000969	-0.000150	0.001247
27588	-0.007493	0.139358	9.779159	-0.011036	0.036553	-0.032607	-0.999999	0.000984	-0.000159	0.001243
27589	-0.013183	0.111350	9.809307	-0.016847	0.008392	-0.002757	-0.999999	0.000983	-0.000159	0.001243
27590	0.009668	0.141223	9.755712	0.006176	0.038786	-0.056027	-0.999999	0.000987	-0.000154	0.001235
27591	-0.025467	0.137220	9.802609	-0.028998	0.034408	-0.009188	-0.999999	0.000987	-0.000158	0.001243
27592	-0.016612	0.099725	9.769622	-0.020161	-0.002680	-0.042563	-0.999999	0.000994	-0.000160	0.001253
27593	-0.025899	0.137081	9.802610	-0.029482	0.034486	-0.009189	-0.999999	0.001001	-0.000146	0.001254
27594	0.003457	0.113160	9.785861	-0.000355	0.010747	-0.026178	-0.999999	0.001002	-0.000142	0.001253
27595	0.023487	0.126681	9.802100	0.019686	0.024128	-0.009791	-0.999999	0.001010	-0.000145	0.001238
27596	0.002937	0.113291	9.785860	-0.000842	0.010821	-0.026178	-0.999999	0.000987	-0.000147	0.001238
27597	0.022823	0.127075	9.802096	0.019193	0.024201	-0.009790	-0.999999	0.000991	-0.000158	0.001240
27598	0.010540	0.152920	9.795397	0.007046	0.050228	-0.016222	-0.999999	0.000995	-0.000153	0.001232
27599	0.002093	0.113476	9.785858	-0.001571	0.010919	-0.026178	-0.999999	0.000993	-0.000150	0.001239
27600	-0.015539	0.111557	9.809302	-0.019280	0.008756	-0.002762	-0.999999	0.000990	-0.000147	0.001228
27601	0.021819	0.127253	9.802096	0.018223	0.024346	-0.009788	-0.999999	0.000985	-0.000161	0.001235
27602	0.001363	0.113541	9.785857	-0.002300	0.011037	-0.026178	-0.999999	0.001008	-0.000143	0.001233
27603	-0.016169	0.111520	9.809301	-0.020013	0.008864	-0.002764	-0.999999	0.000991	-0.000144	0.001217
27604	0.001089	0.113677	9.785855	-0.002784	0.011113	-0.026178	-0.999999	0.000996	-0.000138	0.001227
27605	-0.004532	0.085710	9.816002	-0.008598	-0.017045	0.003671	-0.999999	0.001002	-0.000133	0.001211
27606	-0.011180	0.139475	9.779154	-0.015183	0.037170	-0.032615	-0.999999	0.001001	-0.000129	0.001218
27607	0.000553	0.113613	9.785856	-0.003516	0.011216	-0.026179	-0.999999	0.001003	-0.000133	0.001219
27608	0.008598	0.153047	9.795397	0.004614	0.050596	-0.016223	-0.999999	0.001007	-0.000128	0.001211
27609	0.020528	0.127033	9.802102	0.016282	0.024643	-0.009786	-0.999999	0.001020	-0.000113	0.001214
27610	0.008353	0.152779	9.795401	0.004132	0.050668	-0.016223	-0.999999	0.001025	-0.000124	0.001215
27611	0.007961	0.152744	9.795402	0.003886	0.050697	-0.016223	-0.999999	0.001027	-0.000128	0.001216
27612	0.019676	0.126952	9.802104	0.015554	0.024759	-0.009785	-0.999999	0.001019	-0.000126	0.001220
27613	0.019416	0.127044	9.802104	0.015310	0.024794	-0.009784	-0.999999	0.001022	-0.000130	0.001220
27614	0.001707	0.125056	9.825544	-0.002407	0.022628	0.013626	-0.999999	0.001021	-0.000127	0.001202
27615	0.007023	0.152958	9.795400	0.002912	0.050843	-0.016223	-0.999999	0.001024	-0.000122	0.001195
27616	-0.033781	0.125738	9.762906	-0.037877	0.024169	-0.049016	-0.999999	0.001032	-0.000133	0.001188
27617	-0.001864	0.113365	9.785859	-0.005939	0.011581	-0.026180	-0.999999	0.001035	-0.000128	0.001180
27618	0.000610	0.124892	9.825546	-0.003385	0.022773	0.013625	-0.999999	0.001040	-0.000140	0.001181
27619	-0.014532	0.139123	9.779155	-0.018330	0.037633	-0.032622	-0.999999	0.001047	-0.000143	0.001167
27620	0.017337	0.126936	9.802109	0.013611	0.025056	-0.009783	-0.999999	0.001031	-0.000151	0.001177
27621	0.017135	0.127114	9.802107	0.013368	0.025088	-0.009782	-0.999999	0.001031	-0.000151	0.001177
27622	0.002266	0.141547	9.755712	-0.001335	0.039918	-0.056030	-0.999999	0.001020	-0.000151	0.001165
27623	-0.032946	0.137664	9.802581	-0.036530	0.035523	-0.009217	-0.999999	0.001021	-0.000156	0.001148
27624	0.033946	0.129413	9.778670	0.030371	0.027369	-0.033188	-0.999999	0.001020	-0.000153	0.001130
27625	0.004088	0.153319	9.795396	0.000738	0.051168	-0.016225	-0.999999	0.001021	-0.000174	0.001122
27626	-0.004489	0.113792	9.785853	-0.007858	0.011870	-0.026182	-0.999999	0.001030	-0.000160	0.001116
27627	-0.004620	0.113665	9.785855	-0.008107	0.011897	-0.026182	-0.999999	0.001038	-0.000162	0.001101
27628	-0.034253	0.137646	9.802577	-0.037744	0.035705	-0.009222	-0.999999	0.001023	-0.000154	0.001095
27629	0.027277	0.101630	9.808815	0.023595	-0.000648	-0.003336	-0.999999	0.001024	-0.000151	0.001070
27630	-0.005177	0.113881	9.785852	-0.008825	0.012009	-0.026183	-0.999999	0.001032	-0.000154	0.001056
27631	-0.005491	0.113811	9.785852	-0.009065	0.012038	-0.026183	-0.999999	0.001035	-0.000158	0.001032
27632	0.002470	0.153176	9.795399	-0.000957	0.051422	-0.016226	-0.999999	0.001046	-0.000161	0.001010
27633	0.026264	0.101326	9.808821	0.022633	-0.000496	-0.003334	-0.999999	0.001045	-0.000161	0.001009
27634	-0.006174	0.113561	9.785855	-0.009545	0.012115	-0.026184	-0.999999	0.001055	-0.000172	0.000996
27635	0.025685	0.101318	9.808823	0.022390	-0.000461	-0.003333	-0.999999	0.001042	-0.000172	0.000965
27636	0.025409	0.101402	9.808822	0.022149	-0.000418	-0.003333	-0.999999	0.001050	-0.000175	0.000951
27637	0.042653	0.103356	9.785395	0.039397	0.001828	-0.026733	-0.999999	0.001051	-0.000171	0.000950
27638	0.004781	0.087768	9.792565	0.001409	-0.013709	-0.019737	-0.999999	0.001055	-0.000167	0.000942
27639	0.042325	0.103383	9.785396	0.038916	0.001899	-0.026732	-0.999999	0.001051	-0.000164	0.000932
27640	0.012705	0.127323	9.802111	0.009269	0.025703	-0.009779	-0.999999	0.001052	-0.000160	0.000932
27641	0.009891	0.115672	9.762425	0.006262	0.014577	-0.049585	-0.999999	0.001063	-0.000145	0.000943
27642	0.062159	0.117023	9.801657	0.058455	0.015382	-0.010321	-0.999999	0.001047	-0.000154	0.000928
27643	0.009347	0.115920	9.762422	0.005782	0.014647	-0.049585	-0.999999	0.001050	-0.000158	0.000929
27644	-0.005647	0.125330	9.825539	-0.009182	0.023628	0.013620	-0.999999	0.001067	-0.000158	0.000934
27645	0.023599	0.101313	9.808828	0.019986	-0.000101	-0.003328	-0.999999	0.001067	-0.000154	0.000934
27646	-0.020738	0.139519	9.779138	-0.024348	0.038519	-0.032638	-0.999999	0.001069	-0.000150	0.000933
27647	0.011308	0.127228	9.802114	0.007578	0.025950	-0.009778	-0.999999	0.001070	-0.000145	0.000932
27648	0.031378	0.140845	9.818376	0.027591	0.039364	0.006632	-0.999999	0.001068	-0.000142	0.000939
27649	0.040531	0.103331	9.785404	0.036500	0.002266	-0.026722	-0.999999	0.001079	-0.000127	0.000925
27650	-0.009373	0.113558	9.785852	-0.013408	0.012693	-0.026189	-0.999999	0.001079	-0.000139	0.000942
27651	0.039977	0.103338	9.785406	0.036018	0.002338	-0.026721	-0.999999	0.001075	-0.000136	0.000931
27652	0.007458	0.115624	9.762427	0.003605	0.014981	-0.049585	-0.999999	0.001085	-0.000146	0.000942
27653	0.010060	0.127190	9.802116	0.006116	0.026161	-0.009778	-0.999999	0.001079	-0.000127	0.000948
27654	0.009968	0.127270	9.802115	0.005874	0.026203	-0.009778	-0.999999	0.001080	-0.000131	0.000956
27655	0.001451	0.087900	9.792565	-0.002694	-0.013107	-0.019737	-0.999999	0.001074	-0.000129	0.000953
27656	0.009470	0.127361	9.802114	0.005392	0.026281	-0.009778	-0.999999	0.001084	-0.000130	0.000955
27657	0.009250	0.127291	9.802115	0.005153	0.026312	-0.009778	-0.999999	0.001085	-0.000126	0.000955
27658	-0.005792	0.141631	9.755709	-0.009761	0.041169	-0.056040	-0.999999	0.001084	-0.000139	0.000971
27659	0.008745	0.127431	9.802114	0.004665	0.026386	-0.009778	-0.999999	0.001077	-0.000120	0.000959
27660	0.000394	0.088044	9.792564	-0.003900	-0.012918	-0.019737	-0.999999	0.001080	-0.000124	0.000960
27661	0.005531	0.115832	9.762426	0.001435	0.015302	-0.049585	-0.999999	0.001092	-0.000134	0.000963
27662	0.007881	0.127370	9.802116	0.003940	0.026502	-0.009778	-0.999999	0.001088	-0.000139	0.000961
27663	-0.007050	0.141583	9.755709	-0.010968	0.041345	-0.056042	-0.999999	0.001105	-0.000131	0.000958
27664	0.019369	0.101217	9.808838	0.015382	0.000606	-0.003320	-0.999999	0.001110	-0.000143	0.000959
27665	0.006959	0.127223	9.802118	0.003219	0.026612	-0.009778	-0.999999	0.001096	-0.000151	0.000962
27666	0.006688	0.127335	9.802117	0.002978	0.026654	-0.009778	-0.999999	0.001102	-0.000146	0.000946
27667	0.006433	0.127087	9.802120	0.002736	0.026683	-0.009778	-0.999999	0.001125	-0.000152	0.000962
27668	0.018027	0.101178	9.808841	0.014420	0.000757	-0.003318	-0.999999	0.001109	-0.000160	0.000973
27669	0.005770	0.127217	9.802119	0.002252	0.026765	-0.009778	-0.999999	0.001112	-0.000156	0.000964
27670	-0.005434	0.076156	9.752877	-0.009039	-0.023700	-0.059545	-0.999999	0.001116	-0.000160	0.000965
27671	-0.012195	0.125175	9.825535	-0.015738	0.024616	0.013609	-0.999999	0.001116	-0.000155	0.000964
27672	-0.003180	0.087724	9.792566	-0.006787	-0.012469	-0.019738	-0.999999	0.001119	-0.000159	0.000964
27673	0.004863	0.127026	9.802122	0.001289	0.026909	-0.009778	-0.999999	0.001136	-0.000151	0.000961
27674	0.024824	0.140681	9.818398	0.021285	0.040333	0.006643	-0.999999	0.001116	-0.000161	0.000962
27675	0.016150	0.101369	9.808842	0.012738	0.001014	-0.003316	-0.999999	0.001125	-0.000171	0.000973
27676	0.036198	0.115023	9.825119	0.032734	0.014439	0.013107	-0.999999	0.001113	-0.000154	0.000976
27677	-0.008164	0.153293	9.795394	-0.011601	0.053023	-0.016241	-0.999999	0.001117	-0.000165	0.000977
27678	0.035695	0.115140	9.825120	0.032249	0.014517	0.013108	-0.999999	0.001116	-0.000161	0.000984
27679	-0.028957	0.139800	9.779113	-0.032314	0.039711	-0.032666	-0.999999	0.001112	-0.000167	0.000982
27680	0.020399	0.129610	9.778705	0.017118	0.029395	-0.033162	-0.999999	0.001112	-0.000171	0.000990
27681	0.002624	0.127436	9.802118	-0.000640	0.027210	-0.009779	-0.999999	0.001132	-0.000171	0.000987
27682	0.011708	0.090121	9.769152	0.008327	-0.009874	-0.043121	-0.999999	0.001103	-0.000166	0.001001
27683	0.022394	0.141259	9.818395	0.019104	0.040674	0.006647	-0.999999	0.001126	-0.000172	0.001017
27684	0.019552	0.129612	9.778706	0.016143	0.029555	-0.033161	-0.999999	0.001114	-0.000154	0.001019
27685	0.019438	0.129786	9.778704	0.015899	0.029589	-0.033160	-0.999999	0.001112	-0.000158	0.001034
27686	0.019189	0.129858	9.778704	0.015658	0.029632	-0.033160	-0.999999	0.001111	-0.000155	0.001041
27687	-0.010468	0.153772	9.795384	-0.014027	0.053396	-0.016247	-0.999999	0.001109	-0.000151	0.001049
27688	-0.018836	0.114298	9.785830	-0.022565	0.014087	-0.026208	-0.999999	0.001115	-0.000145	0.001058
27689	0.021467	0.141328	9.818396	0.017635	0.040898	0.006648	-0.999999	0.001130	-0.000137	0.001062
27690	-0.039410	0.100623	9.769548	-0.043289	0.000775	-0.042638	-0.999999	0.001109	-0.000147	0.001063
27691	-0.016908	0.125859	9.825519	-0.020589	0.025365	0.013598	-0.999999	0.001127	-0.000154	0.001093
27692	0.008503	0.167345	9.811667	0.004979	0.066986	0.000180	-0.999999	0.001114	-0.000153	0.001112
27693	0.017544	0.129996	9.778705	0.013962	0.029887	-0.033158	-0.999999	0.001121	-0.000155	0.001123
27694	-0.008454	0.088416	9.792557	-0.012088	-0.011649	-0.019742	-0.999999	0.001126	-0.000157	0.001140
27695	0.007721	0.167386	9.811667	0.004260	0.067083	0.000180	-0.999999	0.001122	-0.000154	0.001155
27696	0.016791	0.129946	9.778707	0.013247	0.030000	-0.033158	-0.999999	0.001129	-0.000157	0.001165
27697	0.010958	0.102106	9.808842	0.007424	0.001840	-0.003311	-0.999999	0.001120	-0.000163	0.001179
27698	-0.001175	0.127923	9.802111	-0.004751	0.027844	-0.009782	-0.999999	0.001138	-0.000146	0.001192
27699	0.016222	0.129787	9.778710	0.012523	0.030101	-0.033157	-0.999999	0.001140	-0.000149	0.001192
27700	-0.033586	0.140138	9.779093	-0.037395	0.040484	-0.032687	-0.999999	0.001129	-0.000132	0.001195
27701	0.016001	0.130086	9.778706	0.012040	0.030174	-0.033157	-0.999999	0.001126	-0.000136	0.001210
27702	-0.004499	0.116463	9.762419	-0.008420	0.016823	-0.049591	-0.999999	0.001134	-0.000139	0.001220
27703	0.015468	0.130052	9.778708	0.011550	0.030246	-0.033156	-0.999999	0.001132	-0.000134	0.001227
27704	-0.002212	0.128108	9.802109	-0.006214	0.028061	-0.009783	-0.999999	0.001128	-0.000131	0.001242
27705	-0.005236	0.116628	9.762417	-0.009151	0.016922	-0.049591	-0.999999	0.001125	-0.000145	0.001241
27706	-0.002733	0.128291	9.802106	-0.006698	0.028131	-0.009784	-0.999999	0.001123	-0.000125	0.001239
27707	-0.008336	0.100525	9.832240	-0.012518	-0.000023	0.020062	-0.999999	0.001116	-0.000130	0.001269
27708	0.002287	0.156286	9.771970	-0.001585	0.056397	-0.039630	-0.999999	0.001130	-0.000140	0.001265
27709	-0.023777	0.114671	9.785815	-0.027624	0.014839	-0.026222	-0.999999	0.001130	-0.000144	0.001273
27710	-0.015857	0.154238	9.795369	-0.019588	0.054237	-0.016261	-0.999999	0.001124	-0.000142	0.001270
27711	-0.021604	0.126364	9.825503	-0.025424	0.026072	0.013585	-0.999999	0.001131	-0.000144	0.001281
27712	0.001170	0.156320	9.771969	-0.002550	0.056533	-0.039631	-0.999999	0.001125	-0.000142	0.001278
27713	-0.007266	0.116934	9.762412	-0.011071	0.017212	-0.049594	-0.999999	0.001126	-0.000145	0.001285
27714	-0.004737	0.128462	9.802103	-0.008628	0.028422	-0.009786	-0.999999	0.001135	-0.000131	0.001279
27715	0.007140	0.102475	9.808842	0.003073	0.002496	-0.003309	-0.999999	0.001142	-0.000134	0.001264
27716	0.012393	0.130416	9.778707	0.008422	0.030727	-0.033154	-0.999999	0.001134	-0.000133	0.001269
27717	-0.005312	0.128535	9.802102	-0.009354	0.028526	-0.009787	-0.999999	0.001130	-0.000129	0.001283
27718	-0.055184	0.138776	9.802465	-0.059276	0.038893	-0.009341	-0.999999	0.001134	-0.000124	0.001275
27719	0.006321	0.102597	9.808841	0.002098	0.002645	-0.003308	-0.999999	0.001146	-0.000126	0.001270
27720	-0.020653	0.142598	9.755675	-0.024702	0.043431	-0.056076	-0.999999	0.001151	-0.000129	0.001263
27721	0.023292	0.104568	9.785447	0.019143	0.004951	-0.026674	-0.999999	0.001143	-0.000127	0.001267
27722	0.011082	0.130288	9.778711	0.006961	0.030950	-0.033154	-0.999999	0.001169	-0.000125	0.001267
27723	-0.006520	0.128280	9.802105	-0.010812	0.028745	-0.009789	-0.999999	0.001143	-0.000111	0.001266
27724	0.022810	0.104615	9.785448	0.018423	0.005065	-0.026673	-0.999999	0.001157	-0.000120	0.001262
27725	0.013226	0.142028	9.818401	0.008910	0.042223	0.006655	-0.999999	0.001149	-0.000110	0.001258
27726	-0.009792	0.116910	9.762410	-0.014206	0.017692	-0.049599	-0.999999	0.001152	-0.000114	0.001258
27727	0.012711	0.142163	9.818399	0.008420	0.042300	0.006655	-0.999999	0.001148	-0.000119	0.001256
27728	-0.010456	0.117011	9.762408	-0.014692	0.017767	-0.049600	-0.999999	0.001151	-0.000123	0.001256
27729	-0.045832	0.113004	9.809190	-0.050009	0.013331	-0.002876	-0.999999	0.001144	-0.000129	0.001262
27730	0.021107	0.105032	9.785447	0.016969	0.005294	-0.026670	-0.999999	0.001136	-0.000128	0.001241
27731	-0.004862	0.063352	9.799281	-0.009066	-0.036270	-0.013271	-0.999999	0.001164	-0.000133	0.001242
27732	0.008687	0.130607	9.778709	0.004542	0.031320	-0.033154	-0.999999	0.001152	-0.000116	0.001245
27733	0.008489	0.130759	9.778707	0.004305	0.031350	-0.033154	-0.999999	0.001152	-0.000129	0.001237
27734	-0.029536	0.115121	9.785794	-0.033674	0.015750	-0.026242	-0.999999	0.001153	-0.000125	0.001236
27735	0.007999	0.130801	9.778707	0.003823	0.031424	-0.033154	-0.999999	0.001154	-0.000121	0.001236
27736	0.025285	0.132842	9.755318	0.021122	0.033702	-0.056513	-0.999999	0.001157	-0.000125	0.001236
27737	0.010070	0.142458	9.818398	0.005998	0.042674	0.006655	-0.999999	0.001150	-0.000131	0.001241
27738	0.027434	0.144516	9.795010	0.023297	0.044953	-0.016704	-0.999999	0.001160	-0.000117	0.001235
27739	0.007179	0.130922	9.778706	0.002865	0.031567	-0.033154	-0.999999	0.001150	-0.000115	0.001240
27740	-0.010599	0.128923	9.802093	-0.014918	0.029373	-0.009796	-0.999999	0.001158	-0.000118	0.001225
27741	0.006697	0.130915	9.778706	0.002383	0.031640	-0.033154	-0.999999	0.001159	-0.000114	0.001225
27742	0.021211	0.116591	9.825145	0.016741	0.016905	0.013143	-0.999999	0.001168	-0.000108	0.001227
27743	-0.043312	0.141038	9.779042	-0.047785	0.042012	-0.032739	-0.999999	0.001164	-0.000105	0.001216
27744	-0.008780	0.140574	9.841783	-0.013237	0.040688	0.030010	-0.999999	0.001153	-0.000113	0.001212
27745	-0.031836	0.115382	9.785784	-0.036312	0.016128	-0.026252	-0.999999	0.001165	-0.000106	0.001199
27746	0.008234	0.142699	9.818396	0.003830	0.042994	0.006654	-0.999999	0.001150	-0.000115	0.001185
27747	0.007821	0.143050	9.818392	0.003589	0.043026	0.006654	-0.999999	0.001133	-0.000124	0.001196
27748	-0.012751	0.129432	9.802083	-0.016843	0.029655	-0.009800	-0.999999	0.001152	-0.000132	0.001177
27749	-0.012989	0.129378	9.802084	-0.017087	0.029685	-0.009801	-0.999999	0.001142	-0.000123	0.001156
27750	-0.013195	0.129526	9.802082	-0.017329	0.029727	-0.009801	-0.999999	0.001141	-0.000129	0.001147
27751	-0.001428	0.103667	9.808832	-0.005622	0.003809	-0.003310	-0.999999	0.001147	-0.000124	0.001131
27752	-0.016236	0.117922	9.762389	-0.020453	0.018625	-0.049612	-0.999999	0.001146	-0.000121	0.001113
27753	-0.051464	0.113803	9.809153	-0.055794	0.014181	-0.002908	-0.999999	0.001154	-0.000115	0.001090
27754	-0.013953	0.129550	9.802080	-0.018299	0.029878	-0.009804	-0.999999	0.001142	-0.000115	0.001085
27755	0.003475	0.131662	9.778698	-0.000987	0.032146	-0.033155	-0.999999	0.001151	-0.000102	0.001054
27756	-0.002233	0.103823	9.808830	-0.006827	0.004000	-0.003311	-0.999999	0.001140	-0.000109	0.001050
27757	0.002937	0.131808	9.778696	-0.001473	0.032218	-0.033156	-0.999999	0.001145	-0.000113	0.001018
27758	0.002762	0.131815	9.778696	-0.001714	0.032261	-0.033156	-0.999999	0.001143	-0.000103	0.000999
27759	0.014664	0.106031	9.785448	0.009989	0.006342	-0.026661	-0.999999	0.001141	-0.000099	0.000981
27760	0.005177	0.143545	9.818386	0.000424	0.043509	0.006653	-0.999999	0.001139	-0.000088	0.000963
27761	0.014409	0.106336	9.785445	0.009505	0.006410	-0.026661	-0.999999	0.001121	-0.000090	0.000948
27762	0.046312	0.094192	9.808512	0.041399	-0.006075	-0.003703	-0.999999	0.001133	-0.000091	0.000943
27763	0.031413	0.108546	9.762065	0.026578	0.008728	-0.050008	-0.999999	0.001116	-0.000092	0.000928
27764	0.033847	0.120239	9.801756	0.028962	0.019948	-0.010198	-0.999999	0.001127	-0.000086	0.000922
27765	-0.004086	0.104528	9.808822	-0.009018	0.004318	-0.003313	-0.999999	0.001125	-0.000091	0.000913
27766	0.050904	0.122268	9.778381	0.046031	0.022266	-0.033543	-0.999999	0.001126	-0.000087	0.000912
27767	0.033133	0.120183	9.801759	0.028235	0.020055	-0.010196	-0.999999	0.001133	-0.000090	0.000897
27768	0.030363	0.108536	9.762069	0.025373	0.008920	-0.050005	-0.999999	0.001133	-0.000090	0.000897
27769	0.032998	0.120080	9.801761	0.027992	0.020089	-0.010196	-0.999999	0.001140	-0.000076	0.000898
27770	0.012618	0.106386	9.785447	0.007574	0.006710	-0.026659	-0.999999	0.001144	-0.000088	0.000899
27771	0.017933	0.134524	9.755311	0.012931	0.034923	-0.056503	-0.999999	0.001118	-0.000074	0.000898
27772	0.000292	0.132563	9.778686	-0.004868	0.032722	-0.033159	-0.999999	0.001140	-0.000073	0.000888
27773	0.032166	0.120224	9.801762	0.027027	0.020233	-0.010193	-0.999999	0.001133	-0.000079	0.000893
27774	0.019895	0.146196	9.795003	0.014829	0.046220	-0.016693	-0.999999	0.001132	-0.000075	0.000900
27775	-0.017968	0.130546	9.802061	-0.023149	0.030576	-0.009816	-0.999999	0.001135	-0.000071	0.000893
27776	0.031503	0.120356	9.801763	0.026301	0.020343	-0.010191	-0.999999	0.001135	-0.000075	0.000901
27777	-0.006612	0.104749	9.808818	-0.011674	0.004707	-0.003316	-0.999999	0.001133	-0.000088	0.000899
27778	0.018747	0.146320	9.795004	0.013859	0.046363	-0.016692	-0.999999	0.001134	-0.000084	0.000899
27779	0.010339	0.106639	9.785447	0.005410	0.007026	-0.026658	-0.999999	0.001157	-0.000091	0.000914
27780	-0.001802	0.132419	9.778688	-0.006790	0.033011	-0.033161	-0.999999	0.001145	-0.000073	0.000917
27781	-0.013919	0.158396	9.771926	-0.018998	0.058978	-0.039664	-0.999999	0.001147	-0.000077	0.000918
27782	0.000301	0.144123	9.818379	-0.004675	0.044259	0.006648	-0.999999	0.001150	-0.000088	0.000926
27783	-0.040398	0.116850	9.785735	-0.045250	0.017435	-0.026292	-0.999999	0.001152	-0.000092	0.000927
27784	-0.012423	0.169947	9.811618	-0.017116	0.070273	0.000144	-0.999999	0.001155	-0.000096	0.000927
27785	0.026195	0.108839	9.762077	0.021523	0.009482	-0.049996	-0.999999	0.001141	-0.000104	0.000931
27786	-0.003631	0.132711	9.778684	-0.008244	0.033219	-0.033162	-0.999999	0.001152	-0.000098	0.000900
27787	0.025648	0.108742	9.762080	0.021039	0.009561	-0.049995	-0.999999	0.001161	-0.000108	0.000911
27788	0.015973	0.146276	9.795009	0.011435	0.046726	-0.016691	-0.999999	0.001147	-0.000100	0.000905
27789	0.007730	0.106917	9.785446	0.002987	0.007384	-0.026657	-0.999999	0.001152	-0.000094	0.000914
27790	0.015701	0.146442	9.795007	0.010948	0.046797	-0.016691	-0.999999	0.001146	-0.000092	0.000912
27791	-0.002036	0.144508	9.818373	-0.006863	0.044579	0.006646	-0.999999	0.001144	-0.000088	0.000918
27792	-0.004871	0.132939	9.778680	-0.009698	0.033438	-0.033165	-0.999999	0.001147	-0.000092	0.000919
27793	0.006883	0.107181	9.785444	0.002023	0.007531	-0.026657	-0.999999	0.001139	-0.000090	0.000923
27794	-0.002779	0.144622	9.818371	-0.007590	0.044696	0.006645	-0.999999	0.001151	-0.000092	0.000919
27795	0.006371	0.107316	9.785443	0.001539	0.007605	-0.026657	-0.999999	0.001129	-0.000094	0.000918
27796	0.006019	0.107435	9.785442	0.001299	0.007648	-0.026657	-0.999999	0.001143	-0.000103	0.000914
27797	-0.014437	0.093780	9.769114	-0.019106	-0.005754	-0.043133	-0.999999	0.001134	-0.000101	0.000919
27798	-0.012108	0.105441	9.808805	-0.016761	0.005472	-0.003324	-0.999999	0.001140	-0.000104	0.000912
27799	0.025295	0.121037	9.801772	0.020726	0.021185	-0.010180	-0.999999	0.001147	-0.000106	0.000922
27800	-0.007012	0.133242	9.778675	-0.011637	0.033731	-0.033168	-0.999999	0.001144	-0.000095	0.000928
27801	-0.012818	0.105465	9.808804	-0.017490	0.005573	-0.003325	-0.999999	0.001138	-0.000108	0.000934
27802	0.024543	0.121226	9.801772	0.020000	0.021301	-0.010179	-0.999999	0.001140	-0.000104	0.000934
27803	-0.025264	0.131467	9.802032	-0.029932	0.031586	-0.009838	-0.999999	0.001134	-0.000093	0.000947
27804	0.024290	0.121323	9.801771	0.019523	0.021379	-0.010178	-0.999999	0.001142	-0.000096	0.000932
27805	0.011976	0.147083	9.795003	0.007320	0.047342	-0.016690	-0.999999	0.001146	-0.000099	0.000950
27806	-0.008487	0.133496	9.778670	-0.013075	0.033948	-0.033170	-0.999999	0.001140	-0.000105	0.000956
27807	0.023404	0.121410	9.801772	0.018804	0.021473	-0.010177	-0.999999	0.001138	-0.000102	0.000963
27808	0.015107	0.082031	9.792210	0.010378	-0.017858	-0.020144	-0.999999	0.001132	-0.000099	0.000960
27809	0.022997	0.121475	9.801773	0.018321	0.021551	-0.010176	-0.999999	0.001146	-0.000100	0.000972
27810	0.008202	0.135609	9.755309	0.003540	0.036343	-0.056500	-0.999999	0.001148	-0.000096	0.000972
27811	0.022755	0.121553	9.801772	0.017837	0.021629	-0.010175	-0.999999	0.001131	-0.000079	0.000990
27812	0.010618	0.147571	9.794997	0.005627	0.047606	-0.016690	-0.999999	0.001134	-0.000082	0.000990
27813	0.002192	0.108087	9.785436	-0.002798	0.008264	-0.026658	-0.999999	0.001134	-0.000086	0.000998
27814	0.010063	0.147606	9.794997	0.005140	0.047681	-0.016690	-0.999999	0.001135	-0.000082	0.001022
27815	-0.015836	0.106067	9.808793	-0.020858	0.006081	-0.003332	-0.999999	0.001137	-0.000085	0.001022
27816	0.021616	0.121791	9.801772	0.016629	0.021818	-0.010173	-0.999999	0.001136	-0.000082	0.001029
27817	-0.016418	0.106189	9.808791	-0.021324	0.006151	-0.003333	-0.999999	0.001130	-0.000096	0.001036
27818	-0.011285	0.134144	9.778658	-0.015952	0.034381	-0.033176	-0.999999	0.001133	-0.000099	0.001061
27819	0.020776	0.122037	9.801771	0.015925	0.021925	-0.010173	-0.999999	0.001126	-0.000081	0.001049
27820	0.000337	0.108367	9.785433	-0.004461	0.008525	-0.026659	-0.999999	0.001139	-0.000107	0.001062
27821	0.020099	0.121897	9.801774	0.015438	0.021998	-0.010172	-0.999999	0.001142	-0.000093	0.001070
27822	-0.000077	0.108187	9.785435	-0.004946	0.008597	-0.026659	-0.999999	0.001148	-0.000088	0.001079
27823	0.031846	0.096007	9.808552	0.026928	-0.003861	-0.003652	-0.999999	0.001145	-0.000092	0.001095
27824	-0.000537	0.108193	9.785435	-0.005427	0.008670	-0.026659	-0.999999	0.001151	-0.000087	0.001104
27825	0.019452	0.121777	9.801777	0.014478	0.022145	-0.010171	-0.999999	0.001157	-0.000081	0.001113
27826	0.007111	0.147601	9.795000	0.002264	0.048119	-0.016691	-0.999999	0.001156	-0.000094	0.001129
27827	0.018746	0.121779	9.801778	0.014006	0.022217	-0.010170	-0.999999	0.001159	-0.000098	0.001130
27828	0.036149	0.123903	9.778426	0.031353	0.024516	-0.033491	-0.999999	0.001153	-0.000087	0.001143
27829	-0.001730	0.108342	9.785433	-0.006613	0.008845	-0.026660	-0.999999	0.001146	-0.000093	0.001149
27830	-0.031626	0.132326	9.802002	-0.036418	0.032561	-0.009863	-0.999999	0.001136	-0.000091	0.001161
27831	0.035400	0.124438	9.778422	0.030630	0.024626	-0.033489	-0.999999	0.001133	-0.000096	0.001176
27832	0.284013	-0.181775	9.938747	0.278579	-0.284560	0.123802	-0.999999	0.001054	-0.000101	0.001031
27833	0.692020	-0.961279	9.664259	0.686847	-1.060615	-0.158456	-0.999999	0.001136	-0.000050	-0.000963
27834	0.738975	-0.144693	9.809484	0.735909	-0.237811	-0.004789	-0.999977	0.001263	-0.000118	-0.006731
27835	-0.592538	-0.041523	9.697440	-0.594315	-0.151883	-0.116457	-0.999914	0.001044	-0.000055	-0.013094
27836	-0.940633	0.843705	9.857857	-0.968681	0.711030	0.052912	-0.999839	0.000983	-0.000030	-0.017919
27837	-0.119139	1.051987	9.824465	-0.161393	0.943869	0.022151	-0.999793	0.001045	0.000009	-0.020307
27838	-0.069899	0.399603	9.750195	-0.088266	0.295340	-0.058927	-0.999790	0.001076	-0.000003	-0.020479
27839	0.028064	0.162472	9.811319	0.019298	0.061986	-0.000198	-0.999790	0.001067	0.000006	-0.020481
27840	-0.002544	0.110642	9.785408	-0.009233	0.009188	-0.026663	-0.999790	0.001072	0.000004	-0.020464
27841	-0.020615	0.109436	9.808747	-0.027065	0.006944	-0.003348	-0.999790	0.001062	-0.000012	-0.020467
27842	-0.014237	0.136940	9.778616	-0.021689	0.035163	-0.033190	-0.999790	0.001088	-0.000009	-0.020467
27843	-0.011328	0.148216	9.818312	-0.019396	0.046361	0.006621	-0.999790	0.001086	0.000003	-0.020468
27844	-0.003784	0.110575	9.785408	-0.010193	0.009273	-0.026664	-0.999790	0.001073	-0.000021	-0.020456
27845	-0.004137	0.110750	9.785406	-0.010436	0.009281	-0.026664	-0.999790	0.001071	-0.000009	-0.020456
27846	0.005522	0.149968	9.794965	-0.002530	0.048693	-0.016694	-0.999790	0.001065	-0.000007	-0.020459
27847	-0.001464	0.122347	9.825097	-0.008395	0.020532	0.013147	-0.999790	0.001075	-0.000008	-0.020457
27848	0.015976	0.123605	9.801760	0.008960	0.022825	-0.010166	-0.999790	0.001074	-0.000005	-0.020450
27849	0.033382	0.125001	9.778422	0.026343	0.025092	-0.033477	-0.999790	0.001068	-0.000011	-0.020451
27850	-0.002045	0.122507	9.825095	-0.009100	0.020602	0.013146	-0.999790	0.001066	0.000008	-0.020453
27851	0.012531	0.112348	9.762065	0.005740	0.011685	-0.049977	-0.999790	0.001068	0.000005	-0.020453
27852	-0.037028	0.124571	9.762250	-0.044207	0.021925	-0.049697	-0.999790	0.001070	0.000001	-0.020452
27853	0.014911	0.123793	9.801759	0.007777	0.022920	-0.010165	-0.999790	0.001074	-0.000002	-0.020459
27854	0.014600	0.123757	9.801760	0.007534	0.022952	-0.010165	-0.999790	0.001077	-0.000006	-0.020459
27855	0.003448	0.150085	9.794964	-0.004694	0.048886	-0.016696	-0.999790	0.001077	-0.000002	-0.020459
27856	-0.016306	0.071924	9.775839	-0.021217	-0.029846	-0.036639	-0.999790	0.001073	-0.000007	-0.020461
27857	-0.000058	0.138738	9.755269	-0.007705	0.037738	-0.056508	-0.999790	0.001073	-0.000003	-0.020461
27858	0.013717	0.124173	9.801756	0.006551	0.023040	-0.010164	-0.999790	0.001049	0.000003	-0.020462
27859	0.002587	0.150747	9.794954	-0.005682	0.048977	-0.016697	-0.999790	0.001051	0.000000	-0.020461
27860	0.002272	0.150735	9.794954	-0.005925	0.049009	-0.016697	-0.999790	0.001054	-0.000004	-0.020461
27861	-0.025534	0.110290	9.808726	-0.031906	0.007371	-0.003362	-0.999790	0.001057	-0.000015	-0.020459
27862	-0.019112	0.137971	9.778593	-0.026525	0.035590	-0.033203	-0.999790	0.001051	-0.000013	-0.020462
27863	0.015262	0.136096	9.841446	0.007829	0.034336	0.029648	-0.999790	0.001044	-0.000010	-0.020465
27864	0.012095	0.124689	9.801752	0.005076	0.023173	-0.010164	-0.999790	0.001045	-0.000006	-0.020465
27865	0.043323	0.111291	9.824915	0.036934	0.010715	0.012878	-0.999790	0.001034	-0.000021	-0.020468
27866	-0.013327	0.166011	9.748452	-0.021883	0.063859	-0.063046	-0.999790	0.001043	-0.000007	-0.020475
27867	0.011417	0.124849	9.801751	0.004353	0.023224	-0.010164	-0.999790	0.001039	-0.000004	-0.020485
27868	0.014243	0.136364	9.841443	0.006614	0.034451	0.029649	-0.999790	0.001045	0.000001	-0.020476
27869	-0.009463	0.112010	9.785388	-0.016240	0.009807	-0.026672	-0.999789	0.001048	0.000014	-0.020492
27870	-0.020552	0.138371	9.778584	-0.028468	0.035760	-0.033209	-0.999789	0.001044	0.000008	-0.020494
27871	0.007695	0.113452	9.762057	0.000890	0.012128	-0.049976	-0.999789	0.001042	0.000003	-0.020503
27872	0.010423	0.125022	9.801749	0.003147	0.023356	-0.010163	-0.999789	0.001040	0.000007	-0.020496
27873	-0.000678	0.151480	9.794943	-0.009069	0.049297	-0.016701	-0.999789	0.001031	0.000008	-0.020492
27874	0.010004	0.125163	9.801748	0.002674	0.023408	-0.010163	-0.999789	0.001043	0.000007	-0.020497
27875	0.009738	0.125256	9.801747	0.002434	0.023434	-0.010163	-0.999789	0.001026	0.000005	-0.020512
27876	-0.019202	0.150353	9.818267	-0.027410	0.047118	0.006598	-0.999789	0.001040	-0.000004	-0.020516
27877	-0.001755	0.151609	9.794941	-0.010048	0.049401	-0.016703	-0.999789	0.001034	0.000007	-0.020527
27878	-0.000742	0.086183	9.792186	-0.006423	-0.015872	-0.020137	-0.999788	0.001041	0.000004	-0.020542
27879	-0.002250	0.151632	9.794941	-0.010533	0.049444	-0.016703	-0.999788	0.001036	-0.000002	-0.020543
27880	-0.029933	0.111328	9.808702	-0.036510	0.007821	-0.003379	-0.999788	0.001033	0.000001	-0.020554
27881	0.001562	0.097768	9.831879	-0.004657	-0.004608	0.019675	-0.999788	0.001044	0.000015	-0.020568
27882	-0.012541	0.112475	9.785379	-0.019376	0.010145	-0.026678	-0.999788	0.001048	0.000004	-0.020567
27883	0.028496	0.138168	9.818117	0.020591	0.037097	0.006352	-0.999788	0.001038	0.000013	-0.020588
27884	-0.006107	0.140417	9.755243	-0.014230	0.038381	-0.056518	-0.999787	0.001028	0.000021	-0.020609
27885	0.028231	0.138523	9.818113	0.020115	0.037150	0.006353	-0.999787	0.001028	0.000016	-0.020625
27886	-0.010444	0.124478	9.825065	-0.017850	0.021442	0.013132	-0.999787	0.001027	0.000011	-0.020635
27887	0.006975	0.125845	9.801742	-0.000463	0.023722	-0.010164	-0.999786	0.001024	0.000013	-0.020652
27888	0.017706	0.099583	9.808552	0.011285	-0.002164	-0.003621	-0.999786	0.001024	0.000016	-0.020670
27889	0.017542	0.099548	9.808552	0.011038	-0.002157	-0.003621	-0.999785	0.001031	0.000021	-0.020692
27890	0.017236	0.099463	9.808554	0.010796	-0.002125	-0.003620	-0.999785	0.001035	0.000010	-0.020691
27891	0.017022	0.099715	9.808552	0.010562	-0.002113	-0.003620	-0.999785	0.001008	0.000023	-0.020692
27892	0.034513	0.101170	9.785230	0.027942	0.000191	-0.026913	-0.999785	0.001022	0.000014	-0.020696
27893	0.027512	0.073481	9.815364	0.022073	-0.027983	0.002925	-0.999785	0.001019	0.000024	-0.020714
27894	0.023182	0.127529	9.778419	0.015469	0.026154	-0.033457	-0.999785	0.001015	0.000019	-0.020716
27895	0.036786	0.112853	9.824924	0.029693	0.011449	0.012902	-0.999785	0.001008	0.000021	-0.020719
27896	0.022655	0.127768	9.778417	0.014986	0.026198	-0.033456	-0.999785	0.001008	0.000017	-0.020711
27897	0.036386	0.112901	9.824925	0.029200	0.011507	0.012903	-0.999785	0.001016	0.000032	-0.020718
27898	-0.005102	0.087456	9.792174	-0.011232	-0.015408	-0.020141	-0.999785	0.000996	0.000022	-0.020717
27899	0.053511	0.114579	9.801605	0.046347	0.013834	-0.010386	-0.999785	0.000998	0.000018	-0.020717
27900	0.003947	0.126786	9.801731	-0.003611	0.024032	-0.010165	-0.999785	0.001001	0.000014	-0.020716
27901	0.013356	0.165947	9.811292	0.004239	0.063449	-0.000189	-0.999785	0.000998	0.000010	-0.020702
27902	0.021077	0.128176	9.778415	0.013527	0.026366	-0.033455	-0.999785	0.000999	0.000015	-0.020702
27903	0.020932	0.128151	9.778415	0.013293	0.026384	-0.033454	-0.999785	0.001004	0.000020	-0.020693
27904	-0.006629	0.087702	9.792170	-0.012673	-0.015250	-0.020142	-0.999785	0.001005	0.000024	-0.020693
27905	0.002935	0.126844	9.801731	-0.004810	0.024151	-0.010166	-0.999785	0.001005	0.000028	-0.020693
27906	0.002616	0.126882	9.801731	-0.005053	0.024182	-0.010166	-0.999786	0.001005	0.000016	-0.020677
27907	-0.000567	0.115380	9.762037	-0.007739	0.012998	-0.049980	-0.999785	0.001008	0.000028	-0.020694
27908	0.011939	0.166028	9.811292	0.002567	0.063622	-0.000190	-0.999786	0.001006	0.000023	-0.020678
27909	0.022541	0.139725	9.818111	0.014329	0.037739	0.006360	-0.999786	0.001011	0.000020	-0.020686
27910	0.001666	0.126921	9.801730	-0.006002	0.024293	-0.010167	-0.999786	0.001010	0.000023	-0.020679
27911	0.001426	0.126949	9.801730	-0.006252	0.024307	-0.010167	-0.999786	0.001012	0.000020	-0.020679
27912	0.001189	0.126953	9.801730	-0.006495	0.024339	-0.010167	-0.999786	0.001013	0.000024	-0.020679
27913	0.029551	0.102037	9.785237	0.022885	0.000723	-0.026900	-0.999786	0.001005	0.000019	-0.020674
27914	0.000802	0.126979	9.801730	-0.006990	0.024389	-0.010168	-0.999786	0.001023	0.000036	-0.020661
27915	0.000697	0.126766	9.801733	-0.007234	0.024413	-0.010168	-0.999786	0.001031	0.000033	-0.020676
27916	0.011373	0.100450	9.808552	0.004522	-0.001466	-0.003615	-0.999785	0.001027	0.000036	-0.020686
27917	-0.002813	0.115293	9.762038	-0.010162	0.013261	-0.049982	-0.999786	0.001031	0.000024	-0.020685
27918	0.017428	0.128102	9.778423	0.009678	0.026774	-0.033451	-0.999786	0.001032	0.000020	-0.020677
27919	0.020106	0.139681	9.818117	0.011880	0.037980	0.006363	-0.999785	0.001027	0.000023	-0.020686
27920	-0.000683	0.126864	9.801731	-0.008444	0.024530	-0.010169	-0.999786	0.001035	0.000029	-0.020685
27921	0.037522	0.140887	9.794810	0.029017	0.040305	-0.016918	-0.999786	0.001039	0.000036	-0.020675
27922	0.009814	0.100398	9.808555	0.003057	-0.001336	-0.003615	-0.999786	0.001044	0.000024	-0.020674
27923	-0.001479	0.126933	9.801730	-0.009200	0.024598	-0.010170	-0.999786	0.001021	0.000023	-0.020674
27924	-0.004753	0.115552	9.762034	-0.011881	0.013426	-0.049985	-0.999786	0.001035	0.000014	-0.020678
27925	0.008803	0.100641	9.808553	0.002306	-0.001267	-0.003614	-0.999786	0.001035	0.000018	-0.020678
27926	-0.009158	0.099431	9.831858	-0.015578	-0.003516	0.019664	-0.999786	0.001028	0.000012	-0.020673
27927	-0.002713	0.127134	9.801727	-0.010175	0.024692	-0.010171	-0.999786	0.001031	0.000009	-0.020673
27928	0.025677	0.102182	9.785247	0.019227	0.001097	-0.026892	-0.999786	0.001027	0.000012	-0.020658
27929	0.017364	0.139996	9.818117	0.009415	0.038231	0.006364	-0.999786	0.001035	0.000002	-0.020648
27930	-0.021267	0.125814	9.825031	-0.028546	0.022494	0.013105	-0.999786	0.001036	0.000006	-0.020648
27931	0.016827	0.139944	9.818119	0.008918	0.038281	0.006365	-0.999786	0.001038	0.000003	-0.020648
27932	-0.007059	0.115745	9.762031	-0.013826	0.013621	-0.049987	-0.999786	0.001027	-0.000004	-0.020652
27933	0.044917	0.115252	9.801640	0.038076	0.014696	-0.010351	-0.999786	0.001023	0.000008	-0.020645
27934	-0.004506	0.127478	9.801722	-0.011887	0.024865	-0.010174	-0.999786	0.001025	0.000004	-0.020645
27935	0.026787	0.114085	9.824942	0.019937	0.012472	0.012925	-0.999786	0.001017	0.000006	-0.020641
27936	0.012765	0.129022	9.778418	0.005265	0.027205	-0.033449	-0.999787	0.001015	0.000010	-0.020634
27937	-0.005093	0.127711	9.801719	-0.012633	0.024942	-0.010175	-0.999787	0.001020	0.000016	-0.020625
27938	0.005534	0.101394	9.808548	-0.000870	-0.000932	-0.003614	-0.999787	0.001020	0.000004	-0.020609
27939	0.014828	0.140500	9.818114	0.006941	0.038478	0.006366	-0.999787	0.001027	0.000002	-0.020623
27940	0.011615	0.128928	9.778421	0.004279	0.027304	-0.033449	-0.999787	0.001030	-0.000002	-0.020623
27941	0.007515	0.112777	9.848244	0.000805	0.010331	0.036200	-0.999787	0.001034	0.000004	-0.020613
27942	0.011246	0.128887	9.778422	0.003788	0.027347	-0.033449	-0.999787	0.001033	0.000008	-0.020607
27943	0.004301	0.101333	9.808549	-0.002087	-0.000817	-0.003614	-0.999787	0.001031	0.000011	-0.020600
27944	0.018872	0.091214	9.745556	0.012907	-0.009706	-0.066700	-0.999788	0.001029	0.000007	-0.020585
27945	-0.014095	0.100306	9.831843	-0.020216	-0.003059	0.019656	-0.999788	0.001013	-0.000009	-0.020573
27946	0.013068	0.140763	9.818113	0.005247	0.038655	0.006366	-0.999788	0.001031	0.000008	-0.020560
27947	0.010090	0.129285	9.778418	0.002592	0.027468	-0.033449	-0.999788	0.001013	0.000007	-0.020575
27948	-0.007878	0.128017	9.801713	-0.015303	0.025213	-0.010179	-0.999788	0.001030	0.000007	-0.020570
27949	0.020570	0.102942	9.785251	0.014123	0.001616	-0.026884	-0.999788	0.001025	0.000010	-0.020555
27950	-0.008259	0.128072	9.801712	-0.015782	0.025264	-0.010180	-0.999789	0.001019	0.000014	-0.020534
27951	0.029899	0.142314	9.794816	0.021677	0.041057	-0.016902	-0.999789	0.001019	0.000018	-0.020534
27952	-0.008572	0.128138	9.801711	-0.016280	0.025307	-0.010181	-0.999789	0.001024	0.000024	-0.020525
27953	0.011866	0.141063	9.818110	0.003532	0.038812	0.006366	-0.999789	0.001012	0.000026	-0.020512
27954	0.016851	0.091868	9.745553	0.010494	-0.009475	-0.066697	-0.999789	0.001013	0.000030	-0.020513
27955	0.022360	0.114704	9.824946	0.015061	0.012966	0.012933	-0.999789	0.001036	0.000024	-0.020497
27956	0.008150	0.129471	9.778417	0.000407	0.027692	-0.033449	-0.999790	0.001020	0.000016	-0.020487
27957	0.018813	0.103408	9.785250	0.012175	0.001809	-0.026881	-0.999790	0.001015	0.000019	-0.020473
27958	-0.030686	0.115584	9.785303	-0.037792	0.011956	-0.026734	-0.999790	0.001020	0.000017	-0.020455
27959	-0.030910	0.115567	9.785302	-0.038042	0.011979	-0.026735	-0.999790	0.001021	0.000022	-0.020456
27960	-0.010549	0.128433	9.801705	-0.018230	0.025508	-0.010185	-0.999790	0.001021	0.000018	-0.020448
27961	-0.010774	0.128416	9.801705	-0.018471	0.025526	-0.010186	-0.999791	0.001026	0.000023	-0.020439
27962	-0.011016	0.128468	9.801704	-0.018714	0.025558	-0.010186	-0.999791	0.001019	0.000017	-0.020433
27963	0.006311	0.129815	9.778414	-0.001318	0.027870	-0.033450	-0.999791	0.001028	0.000009	-0.020423
27964	0.006146	0.129883	9.778413	-0.001561	0.027902	-0.033450	-0.999791	0.001016	0.000026	-0.020420
27965	-0.011759	0.128670	9.801701	-0.019476	0.025630	-0.010188	-0.999791	0.001020	0.000015	-0.020419
27966	-0.012075	0.128683	9.801700	-0.019719	0.025662	-0.010189	-0.999791	0.001018	0.000019	-0.020412
27967	-0.004230	0.090870	9.768843	-0.010322	-0.011435	-0.043433	-0.999791	0.001023	0.000015	-0.020419
27968	-0.030466	0.127472	9.824985	-0.037856	0.023414	0.013071	-0.999791	0.001011	-0.000000	-0.020415
27969	0.004660	0.130156	9.778410	-0.002774	0.028022	-0.033450	-0.999791	0.001023	0.000007	-0.020428
27970	-0.031093	0.127423	9.824984	-0.038346	0.023469	0.013069	-0.999791	0.001023	-0.000006	-0.020412
27971	-0.006956	0.156593	9.771567	-0.015266	0.053969	-0.040024	-0.999791	0.001005	-0.000007	-0.020427
27972	0.017461	0.115644	9.824945	0.010903	0.013415	0.012938	-0.999791	0.001014	-0.000017	-0.020416
27973	0.006211	0.141861	9.818104	-0.001349	0.039329	0.006365	-0.999791	0.001016	-0.000013	-0.020424
27974	0.014168	0.103945	9.785252	0.008045	0.002253	-0.026877	-0.999791	0.001027	-0.000006	-0.020429
27975	-0.000902	0.113953	9.848234	-0.007491	0.011190	0.036196	-0.999791	0.001039	-0.000008	-0.020434
27976	0.013661	0.103726	9.785255	0.007557	0.002304	-0.026876	-0.999791	0.001034	-0.000013	-0.020436
27977	0.013274	0.103675	9.785256	0.007318	0.002328	-0.026876	-0.999791	0.001048	-0.000023	-0.020440
27978	-0.008903	0.156410	9.771569	-0.016959	0.054153	-0.040028	-0.999791	0.001024	-0.000017	-0.020441
27979	-0.013047	0.140555	9.841386	-0.020481	0.037197	0.029619	-0.999791	0.001026	-0.000020	-0.020441
27980	-0.005163	0.102649	9.808535	-0.011079	0.000121	-0.003620	-0.999790	0.001037	-0.000014	-0.020447
27981	-0.016348	0.128900	9.801691	-0.023330	0.026036	-0.010197	-0.999790	0.001034	-0.000020	-0.020456
27982	0.012011	0.103990	9.785254	0.006117	0.002466	-0.026875	-0.999790	0.001035	-0.000024	-0.020448
27983	0.000723	0.130368	9.778409	-0.006136	0.028383	-0.033453	-0.999790	0.001030	-0.000030	-0.020450
27984	0.031927	0.117003	9.801671	0.025679	0.016027	-0.010313	-0.999790	0.001030	-0.000034	-0.020443
27985	0.031564	0.117175	9.801670	0.025434	0.016051	-0.010313	-0.999790	0.001017	-0.000042	-0.020465
27986	-0.000257	0.130782	9.778403	-0.006866	0.028470	-0.033454	-0.999790	0.001018	-0.000038	-0.020465
27987	0.013458	0.116042	9.824946	0.007270	0.013800	0.012941	-0.999790	0.001016	-0.000026	-0.020466
27988	-0.000561	0.130775	9.778403	-0.007355	0.028514	-0.033454	-0.999790	0.001025	-0.000036	-0.020455
27989	0.012846	0.115950	9.824948	0.006784	0.013853	0.012941	-0.999790	0.001025	-0.000041	-0.020472
27990	-0.008079	0.103177	9.808527	-0.013494	0.000375	-0.003623	-0.999790	0.001021	-0.000046	-0.020474
27991	0.039539	0.156536	9.811244	0.031992	0.055609	-0.000324	-0.999790	0.001026	-0.000050	-0.020482
27992	-0.016838	0.140990	9.841374	-0.023638	0.037535	0.029611	-0.999790	0.001029	-0.000054	-0.020481
27993	0.015488	0.132136	9.755128	0.009120	0.030933	-0.056705	-0.999789	0.001029	-0.000059	-0.020498
27994	0.000266	0.142292	9.818100	-0.006445	0.039881	0.006360	-0.999790	0.001036	-0.000061	-0.020488
27995	0.008249	0.104401	9.785254	0.002982	0.002802	-0.026874	-0.999789	0.001040	-0.000048	-0.020505
27996	-0.017809	0.140995	9.841372	-0.024610	0.037642	0.029608	-0.999789	0.001029	-0.000056	-0.020509
27997	0.007789	0.104651	9.785251	0.002495	0.002861	-0.026874	-0.999789	0.001030	-0.000051	-0.020510
27998	-0.021164	0.129663	9.801672	-0.027451	0.026486	-0.010209	-0.999789	0.001028	-0.000056	-0.020520
27999	-0.003680	0.131060	9.778399	-0.010012	0.028801	-0.033457	-0.999789	0.001026	-0.000054	-0.020538
28000	-0.010660	0.103521	9.808521	-0.015911	0.000641	-0.003627	-0.999788	0.001023	-0.000051	-0.020548
28001	0.016481	0.143925	9.794824	0.009530	0.042360	-0.016888	-0.999788	0.001037	-0.000052	-0.020560
28002	-0.022035	0.129877	9.801667	-0.028421	0.026577	-0.010212	-0.999788	0.001013	-0.000046	-0.020561
28003	0.013249	0.132784	9.755123	0.006702	0.031198	-0.056704	-0.999788	0.001015	-0.000050	-0.020560
28004	0.008969	0.116626	9.824945	0.003145	0.014254	0.012943	-0.999788	0.001023	-0.000053	-0.020575
28005	-0.022805	0.130065	9.801663	-0.029147	0.026645	-0.010215	-0.999788	0.001018	-0.000050	-0.020585
28006	-0.002404	0.142957	9.818090	-0.009366	0.040193	0.006357	-0.999787	0.001022	-0.000046	-0.020593
28007	0.008378	0.116703	9.824944	0.002426	0.014318	0.012943	-0.999787	0.001018	-0.000044	-0.020603
28008	0.008110	0.116795	9.824943	0.002183	0.014350	0.012943	-0.999787	0.001016	-0.000049	-0.020612
28009	0.014569	0.144470	9.794819	0.007607	0.042557	-0.016887	-0.999787	0.001016	-0.000054	-0.020629
28010	0.004645	0.105238	9.785247	-0.000631	0.003181	-0.026874	-0.999787	0.001028	-0.000056	-0.020634
28011	0.013981	0.144181	9.794824	0.007121	0.042603	-0.016887	-0.999786	0.001040	-0.000058	-0.020663
28012	0.024595	0.117915	9.801681	0.018906	0.016746	-0.010299	-0.999786	0.001029	-0.000066	-0.020667
28013	0.006655	0.116646	9.824946	0.000968	0.014455	0.012943	-0.999785	0.001037	-0.000052	-0.020698
28014	-0.007256	0.131312	9.778393	-0.013635	0.029158	-0.033463	-0.999785	0.001043	-0.000055	-0.020705
28015	0.006202	0.116456	9.824949	0.000484	0.014509	0.012943	-0.999785	0.001050	-0.000058	-0.020720
28016	0.003148	0.104882	9.785252	-0.002088	0.003324	-0.026874	-0.999784	0.001052	-0.000055	-0.020745
28017	0.023516	0.117860	9.801684	0.017683	0.016865	-0.010297	-0.999784	0.001040	-0.000054	-0.020758
28018	0.020457	0.106360	9.761987	0.015114	0.005679	-0.050113	-0.999784	0.001053	-0.000056	-0.020762
28019	0.033984	0.091543	9.808543	0.029243	-0.008974	-0.003706	-0.999784	0.001049	-0.000054	-0.020773
28020	0.022790	0.117837	9.801686	0.016970	0.016945	-0.010296	-0.999783	0.001056	-0.000057	-0.020787
28021	0.023888	0.052326	9.798968	0.020776	-0.048326	-0.013692	-0.999783	0.001060	-0.000053	-0.020795
28022	0.011534	0.144071	9.794829	0.004456	0.042889	-0.016887	-0.999783	0.001059	-0.000041	-0.020797
28023	0.022322	0.117795	9.801688	0.016242	0.017021	-0.010295	-0.999783	0.001061	-0.000044	-0.020797
28024	0.008331	0.132570	9.755131	0.001649	0.031721	-0.056704	-0.999783	0.001062	-0.000040	-0.020797
28025	0.004104	0.116406	9.824950	-0.001942	0.014766	0.012942	-0.999783	0.001071	-0.000041	-0.020795
28026	0.010725	0.144161	9.794829	0.003477	0.042990	-0.016887	-0.999783	0.001052	-0.000035	-0.020811
28027	0.039199	0.119199	9.778429	0.032962	0.019432	-0.033529	-0.999783	0.001075	-0.000041	-0.020795
28028	0.021060	0.117801	9.801690	0.015024	0.017158	-0.010293	-0.999783	0.001063	-0.000048	-0.020799
28029	0.000225	0.105090	9.785250	-0.005226	0.003656	-0.026875	-0.999783	0.001064	-0.000044	-0.020800
28030	-0.008086	0.142926	9.818087	-0.015189	0.040791	0.006347	-0.999783	0.001065	-0.000040	-0.020801
28031	0.020463	0.118031	9.801689	0.014299	0.017230	-0.010292	-0.999783	0.001060	-0.000037	-0.020787
28032	-0.000249	0.105200	9.785249	-0.005951	0.003735	-0.026876	-0.999784	0.001066	-0.000031	-0.020777
28033	0.020056	0.118153	9.801688	0.013809	0.017277	-0.010291	-0.999783	0.001054	-0.000038	-0.020781
28034	-0.008934	0.143257	9.818082	-0.016166	0.040884	0.006345	-0.999783	0.001055	-0.000034	-0.020782
28035	0.046893	0.158581	9.788013	0.038986	0.059044	-0.023534	-0.999784	0.001077	-0.000040	-0.020766
28036	-0.009583	0.143040	9.818084	-0.016662	0.040930	0.006344	-0.999784	0.001061	-0.000048	-0.020756
28037	0.036632	0.119580	9.778434	0.030529	0.019685	-0.033521	-0.999784	0.001064	-0.000043	-0.020764
28038	-0.012882	0.131660	9.778383	-0.019453	0.029762	-0.033474	-0.999784	0.001067	-0.000047	-0.020763
28039	0.008713	0.079067	9.792111	0.004367	-0.021988	-0.020279	-0.999784	0.001069	-0.000050	-0.020763
28040	-0.013509	0.131636	9.778382	-0.019947	0.029808	-0.033476	-0.999784	0.001071	-0.000054	-0.020763
28041	-0.013917	0.131678	9.778381	-0.020200	0.029834	-0.033476	-0.999784	0.001069	-0.000067	-0.020764
28042	0.003524	0.133069	9.755127	-0.002739	0.032175	-0.056705	-0.999784	0.001070	-0.000062	-0.020765
28043	-0.000599	0.117056	9.824943	-0.006350	0.015223	0.012940	-0.999784	0.001063	-0.000051	-0.020752
28044	0.005988	0.144687	9.794825	-0.000927	0.043447	-0.016888	-0.999784	0.001072	-0.000061	-0.020741
28045	0.034422	0.119653	9.778441	0.028570	0.019896	-0.033516	-0.999784	0.001075	-0.000056	-0.020749
28046	0.023308	0.145936	9.771575	0.016290	0.045809	-0.040116	-0.999784	0.001076	-0.000052	-0.020749
28047	0.016234	0.118410	9.801692	0.010392	0.017633	-0.010288	-0.999784	0.001069	-0.000059	-0.020744
28048	0.015974	0.118533	9.801691	0.010149	0.017664	-0.010288	-0.999784	0.001067	-0.000055	-0.020737
28049	-0.001865	0.117162	9.824942	-0.007806	0.015369	0.012938	-0.999784	0.001076	-0.000040	-0.020743
28050	-0.015820	0.131881	9.778375	-0.022377	0.030059	-0.033482	-0.999785	0.001075	-0.000052	-0.020727
28051	-0.023033	0.104279	9.808492	-0.028287	0.001884	-0.003655	-0.999785	0.001077	-0.000056	-0.020727
28052	0.032810	0.119916	9.778443	0.026882	0.020076	-0.033511	-0.999785	0.001069	-0.000054	-0.020722
28053	0.025734	0.092415	9.808560	0.020970	-0.008099	-0.003684	-0.999785	0.001068	-0.000058	-0.020715
28054	0.007795	0.091121	9.831808	0.003018	-0.010380	0.019540	-0.999785	0.001068	-0.000046	-0.020716
28055	0.003549	0.145135	9.794820	-0.003598	0.043710	-0.016890	-0.999785	0.001061	-0.000044	-0.020719
28056	0.011505	0.107348	9.761990	0.005918	0.006640	-0.050104	-0.999785	0.001068	-0.000046	-0.020709
28057	0.014069	0.118743	9.801692	0.007953	0.017879	-0.010286	-0.999785	0.001078	-0.000039	-0.020714
28058	0.042575	0.093801	9.785316	0.037463	-0.005653	-0.026903	-0.999785	0.001071	-0.000045	-0.020709
28059	0.002472	0.145055	9.794821	-0.004580	0.043807	-0.016891	-0.999785	0.001080	-0.000055	-0.020698
28060	-0.007265	0.105920	9.785238	-0.012771	0.004422	-0.026883	-0.999785	0.001073	-0.000036	-0.020710
28061	0.002209	0.145202	9.794819	-0.005067	0.043849	-0.016891	-0.999785	0.001069	-0.000041	-0.020694
28062	0.015609	0.130511	9.841390	0.009006	0.029226	0.029533	-0.999785	0.001070	-0.000044	-0.020687
28063	0.009872	0.107409	9.761992	0.004207	0.006803	-0.050103	-0.999785	0.001077	-0.000038	-0.020685
28064	0.001440	0.145183	9.794819	-0.005806	0.043936	-0.016892	-0.999786	0.001078	-0.000042	-0.020678
28065	0.012067	0.119032	9.801691	0.005995	0.018079	-0.010285	-0.999786	0.001068	-0.000048	-0.020665
28066	0.011961	0.119184	9.801689	0.005752	0.018110	-0.010285	-0.999786	0.001065	-0.000028	-0.020667
28067	0.039202	0.159521	9.788031	0.031164	0.059866	-0.023510	-0.999786	0.001088	-0.000034	-0.020652
28068	-0.026599	0.104732	9.808478	-0.032437	0.002305	-0.003668	-0.999786	0.001076	-0.000017	-0.020649
28069	0.032090	0.131896	9.818149	0.025003	0.031725	0.006317	-0.999786	0.001084	-0.000026	-0.020638
28070	0.017988	0.146625	9.771576	0.010450	0.046409	-0.040110	-0.999787	0.001082	-0.000031	-0.020623
28071	0.010834	0.119131	9.801691	0.004533	0.018231	-0.010284	-0.999787	0.001075	-0.000037	-0.020618
28072	0.018819	0.081372	9.768866	0.014073	-0.018837	-0.043493	-0.999787	0.001080	-0.000031	-0.020608
28073	-0.007361	0.117906	9.824931	-0.013671	0.015962	0.012931	-0.999787	0.001071	-0.000029	-0.020604
28074	0.030776	0.132245	9.818148	0.023786	0.031856	0.006319	-0.999787	0.001072	-0.000025	-0.020604
28075	0.027791	0.120766	9.778448	0.021282	0.020650	-0.033499	-0.999787	0.001069	-0.000029	-0.020589
28076	0.009621	0.119397	9.801689	0.003318	0.018363	-0.010284	-0.999788	0.001078	-0.000039	-0.020578
28077	-0.019449	0.144320	9.818051	-0.026696	0.041937	0.006318	-0.999788	0.001074	-0.000035	-0.020564
28078	0.009032	0.119291	9.801691	0.002830	0.018413	-0.010284	-0.999788	0.001092	-0.000043	-0.020558
28079	0.008671	0.119176	9.801693	0.002589	0.018430	-0.010284	-0.999788	0.001089	-0.000047	-0.020543
28080	0.026137	0.120615	9.778455	0.020070	0.020782	-0.033496	-0.999789	0.001087	-0.000051	-0.020528
28081	0.008005	0.119395	9.801690	0.002101	0.018485	-0.010284	-0.999789	0.001080	-0.000057	-0.020522
28082	-0.010050	0.118190	9.824925	-0.015867	0.016196	0.012927	-0.999789	0.001076	-0.000054	-0.020508
28083	0.018476	0.093370	9.808568	0.013664	-0.007337	-0.003670	-0.999789	0.001073	-0.000058	-0.020493
28084	-0.024390	0.133009	9.778343	-0.030650	0.030892	-0.033507	-0.999790	0.001082	-0.000068	-0.020482
28085	0.006828	0.119523	9.801690	0.001128	0.018588	-0.010284	-0.999790	0.001087	-0.000062	-0.020473
28086	-0.013915	0.106617	9.785223	-0.019087	0.005071	-0.026893	-0.999790	0.001087	-0.000066	-0.020465
28087	-0.004701	0.145819	9.794809	-0.011417	0.044504	-0.016900	-0.999790	0.001086	-0.000069	-0.020457
28088	0.005981	0.119514	9.801690	0.000390	0.018664	-0.010284	-0.999790	0.001094	-0.000072	-0.020447
28089	-0.014896	0.106507	9.785223	-0.019826	0.005141	-0.026895	-0.999791	0.001102	-0.000081	-0.020437
28090	0.008192	0.130909	9.841394	0.002142	0.029950	0.029534	-0.999790	0.001100	-0.000061	-0.020439
28091	-0.026172	0.132727	9.778342	-0.032362	0.031064	-0.033513	-0.999791	0.001108	-0.000071	-0.020428
28092	-0.012783	0.117978	9.824924	-0.018314	0.016453	0.012923	-0.999790	0.001105	-0.000069	-0.020439
28093	-0.006242	0.145726	9.794809	-0.012888	0.044672	-0.016902	-0.999790	0.001100	-0.000074	-0.020441
28094	-0.033838	0.105343	9.808449	-0.038777	0.002958	-0.003691	-0.999790	0.001095	-0.000072	-0.020444
28095	-0.006789	0.146034	9.794805	-0.013376	0.044705	-0.016903	-0.999791	0.001086	-0.000077	-0.020438
28096	0.003864	0.119845	9.801688	-0.001566	0.018867	-0.010285	-0.999791	0.001089	-0.000081	-0.020437
28097	-0.007459	0.146197	9.794802	-0.013862	0.044753	-0.016904	-0.999791	0.001082	-0.000087	-0.020432
28098	0.003210	0.119965	9.801686	-0.002052	0.018916	-0.010285	-0.999791	0.001089	-0.000089	-0.020422
28099	0.002916	0.119859	9.801688	-0.002293	0.018931	-0.010285	-0.999791	0.001096	-0.000092	-0.020436
28100	0.002721	0.120016	9.801686	-0.002536	0.018962	-0.010285	-0.999791	0.001076	-0.000085	-0.020427
28101	0.002615	0.120169	9.801684	-0.002779	0.018982	-0.010285	-0.999791	0.001084	-0.000078	-0.020425
28102	0.002553	0.120109	9.801685	-0.003022	0.019014	-0.010285	-0.999791	0.001084	-0.000078	-0.020425
28103	0.002396	0.120104	9.801685	-0.003021	0.019000	-0.010285	-0.999791	0.001086	-0.000082	-0.020425
28104	-0.011533	0.134838	9.755097	-0.017544	0.033671	-0.056726	-0.999791	0.001087	-0.000078	-0.020426
28105	0.015866	0.105332	9.848273	0.010768	0.004412	0.036155	-0.999791	0.001093	-0.000056	-0.020433
28106	0.002091	0.120097	9.801685	-0.003754	0.019082	-0.010286	-0.999791	0.001087	-0.000062	-0.020428
28107	0.012749	0.093911	9.808572	0.008055	-0.006769	-0.003663	-0.999791	0.001089	-0.000065	-0.020427
28108	0.001380	0.120108	9.801685	-0.004243	0.019130	-0.010286	-0.999791	0.001098	-0.000075	-0.020416
28109	0.018908	0.121321	9.778463	0.013256	0.021479	-0.033486	-0.999791	0.001108	-0.000069	-0.020422
28110	0.000902	0.119800	9.801689	-0.004725	0.019183	-0.010286	-0.999791	0.001117	-0.000070	-0.020420
28111	0.000588	0.119788	9.801689	-0.004968	0.019199	-0.010286	-0.999791	0.001112	-0.000076	-0.020421
28112	0.029076	0.094873	9.785355	0.024586	-0.004307	-0.026861	-0.999791	0.001122	-0.000078	-0.020419
28113	0.000036	0.119780	9.801689	-0.005457	0.019246	-0.010287	-0.999791	0.001115	-0.000075	-0.020421
28114	0.020364	0.132721	9.818169	0.014255	0.032837	0.006334	-0.999791	0.001121	-0.000070	-0.020437
28115	-0.000218	0.119853	9.801688	-0.005945	0.019295	-0.010287	-0.999791	0.001115	-0.000059	-0.020423
28116	0.017467	0.121099	9.778468	0.011554	0.021656	-0.033484	-0.999791	0.001137	-0.000058	-0.020433
28117	0.017174	0.120994	9.778470	0.011315	0.021675	-0.033484	-0.999791	0.001130	-0.000064	-0.020428
28118	-0.032387	0.133089	9.778318	-0.038681	0.031682	-0.033538	-0.999791	0.001131	-0.000060	-0.020428
28119	-0.001126	0.119680	9.801690	-0.006914	0.019397	-0.010288	-0.999790	0.001138	-0.000063	-0.020443
28120	0.016435	0.121094	9.778470	0.010587	0.021758	-0.033484	-0.999790	0.001129	-0.000061	-0.020438
28121	-0.012743	0.146214	9.794796	-0.019457	0.045314	-0.016916	-0.999790	0.001119	-0.000076	-0.020442
28122	0.015877	0.121421	9.778467	0.010105	0.021812	-0.033483	-0.999790	0.001122	-0.000056	-0.020459
28123	0.007479	0.159261	9.811277	0.000009	0.058923	-0.000292	-0.999790	0.001119	-0.000060	-0.020444
28124	-0.002396	0.120019	9.801686	-0.008122	0.019529	-0.010289	-0.999790	0.001133	-0.000070	-0.020448
28125	-0.031425	0.144827	9.818012	-0.038164	0.043079	0.006275	-0.999790	0.001132	-0.000058	-0.020449
28126	0.035613	0.134236	9.794955	0.029095	0.035474	-0.016856	-0.999790	0.001133	-0.000054	-0.020450
28127	-0.002853	0.119957	9.801686	-0.008834	0.019597	-0.010290	-0.999790	0.001136	-0.000050	-0.020458
28128	-0.020826	0.118583	9.824903	-0.026825	0.017297	0.012902	-0.999790	0.001137	-0.000046	-0.020458
28129	-0.003182	0.119989	9.801686	-0.009319	0.019645	-0.010291	-0.999790	0.001135	-0.000043	-0.020476
28130	-0.003348	0.119979	9.801686	-0.009562	0.019677	-0.010291	-0.999789	0.001141	-0.000038	-0.020491
28131	-0.014633	0.146089	9.794795	-0.021872	0.045559	-0.016922	-0.999789	0.001155	-0.000047	-0.020496
28132	-0.003888	0.119872	9.801687	-0.010053	0.019729	-0.010291	-0.999789	0.001140	-0.000039	-0.020502
28133	0.013801	0.121431	9.778470	0.007449	0.022082	-0.033481	-0.999789	0.001138	-0.000035	-0.020520
28134	-0.004282	0.120131	9.801684	-0.010545	0.019780	-0.010292	-0.999789	0.001137	-0.000041	-0.020529
28135	0.027014	0.106880	9.825066	0.021216	0.007511	0.012971	-0.999788	0.001131	-0.000030	-0.020541
28136	0.013251	0.121684	9.778468	0.006721	0.022170	-0.033481	-0.999788	0.001132	-0.000026	-0.020542
28137	-0.022527	0.118851	9.824896	-0.029030	0.017522	0.012895	-0.999788	0.001145	-0.000019	-0.020555
28138	0.015519	0.133192	9.818171	0.008419	0.033457	0.006339	-0.999788	0.001129	-0.000028	-0.020569
28139	-0.005386	0.120298	9.801681	-0.011765	0.019907	-0.010294	-0.999787	0.001148	-0.000037	-0.020588
28140	0.014800	0.133093	9.818174	0.007930	0.033508	0.006339	-0.999787	0.001144	-0.000034	-0.020598
28141	0.005195	0.094020	9.808578	-0.000186	-0.005902	-0.003660	-0.999787	0.001141	-0.000023	-0.020617
28142	0.011841	0.121709	9.778469	0.005261	0.022324	-0.033481	-0.999786	0.001142	-0.000028	-0.020634
28143	0.022571	0.095511	9.785366	0.017085	-0.003515	-0.026845	-0.999786	0.001138	-0.000026	-0.020644
28144	0.042792	0.108508	9.801858	0.036778	0.010088	-0.010209	-0.999786	0.001136	-0.000031	-0.020654
28145	0.011081	0.121823	9.778469	0.004531	0.022389	-0.033480	-0.999786	0.001146	-0.000024	-0.020659
28146	0.006615	0.105628	9.848281	0.000773	0.005461	0.036161	-0.999786	0.001150	-0.000036	-0.020658
28147	0.028405	0.123284	9.755259	0.021799	0.024778	-0.056664	-0.999786	0.001129	-0.000021	-0.020675
28148	0.024040	0.107303	9.825069	0.018039	0.007850	0.012977	-0.999786	0.001143	-0.000030	-0.020679
28149	0.023731	0.107242	9.825071	0.017792	0.007871	0.012978	-0.999785	0.001139	-0.000028	-0.020689
28150	0.030315	0.134920	9.794963	0.023241	0.036098	-0.016842	-0.999785	0.001142	-0.000031	-0.020689
28151	0.029998	0.134934	9.794964	0.022997	0.036118	-0.016842	-0.999785	0.001141	-0.000035	-0.020681
28152	0.001027	0.159833	9.811271	-0.007076	0.059668	-0.000299	-0.999786	0.001145	-0.000022	-0.020673
28153	-0.008554	0.120769	9.801673	-0.015177	0.020253	-0.010299	-0.999786	0.001133	-0.000020	-0.020661
28154	0.029518	0.135073	9.794964	0.022271	0.036198	-0.016840	-0.999786	0.001145	-0.000022	-0.020665
28155	0.008743	0.122059	9.778468	0.002099	0.022641	-0.033480	-0.999786	0.001148	-0.000025	-0.020665
28156	0.028966	0.135066	9.794965	0.021784	0.036248	-0.016839	-0.999786	0.001139	-0.000023	-0.020661
28157	0.028797	0.135160	9.794964	0.021539	0.036262	-0.016839	-0.999786	0.001141	-0.000018	-0.020643
28158	0.008170	0.122249	9.778466	0.001370	0.022717	-0.033480	-0.999786	0.001142	-0.000014	-0.020644
28159	0.010671	0.133767	9.818170	0.003290	0.033969	0.006340	-0.999786	0.001147	-0.000008	-0.020635
28160	0.018799	0.095947	9.785370	0.012959	-0.003091	-0.026838	-0.999787	0.001147	-0.000012	-0.020627
28161	-0.003423	0.148455	9.771565	-0.011422	0.048638	-0.040122	-0.999787	0.001152	-0.000006	-0.020618
28162	0.010137	0.133771	9.818171	0.002563	0.034053	0.006340	-0.999787	0.001147	0.000004	-0.020629
28163	-0.031053	0.107946	9.785169	-0.037530	0.006914	-0.026948	-0.999787	0.001155	-0.000006	-0.020618
28164	0.007092	0.122300	9.778466	-0.000083	0.022865	-0.033480	-0.999787	0.001143	0.000012	-0.020615
28165	0.027386	0.135328	9.794966	0.019599	0.036461	-0.016836	-0.999787	0.001147	0.000000	-0.020614
28166	0.009237	0.133945	9.818169	0.001587	0.034151	0.006340	-0.999787	0.001148	0.000005	-0.020614
28167	0.006379	0.122336	9.778466	-0.000805	0.022928	-0.033481	-0.999787	0.001157	0.000003	-0.020611
28168	0.006157	0.122295	9.778467	-0.001048	0.022960	-0.033481	-0.999787	0.001156	0.000007	-0.020605
28169	-0.005105	0.148677	9.771560	-0.013360	0.048833	-0.040126	-0.999787	0.001148	0.000001	-0.020599
28170	-0.009591	0.132488	9.841371	-0.017152	0.031907	0.029514	-0.999787	0.001170	0.000002	-0.020585
28171	-0.003023	0.159927	9.811269	-0.011700	0.060124	-0.000306	-0.999787	0.001172	-0.000001	-0.020585
28172	-0.012838	0.120876	9.801667	-0.019786	0.020721	-0.010308	-0.999787	0.001161	-0.000009	-0.020589
28173	-0.013053	0.121127	9.801664	-0.020030	0.020739	-0.010309	-0.999787	0.001150	0.000001	-0.020585
28174	0.015691	0.096346	9.785371	0.009575	-0.002737	-0.026834	-0.999787	0.001153	0.000006	-0.020593
28175	0.025053	0.135628	9.794968	0.017171	0.036711	-0.016832	-0.999787	0.001142	0.000015	-0.020589
28176	-0.022760	0.082366	9.792061	-0.028598	-0.018620	-0.020313	-0.999787	0.001135	0.000025	-0.020593
28177	-0.002547	0.095360	9.808566	-0.008932	-0.005016	-0.003663	-0.999787	0.001139	0.000014	-0.020592
28178	0.003974	0.122980	9.778460	-0.003476	0.023211	-0.033482	-0.999787	0.001140	0.000018	-0.020593
28179	0.014717	0.096530	9.785371	0.008352	-0.002624	-0.026833	-0.999788	0.001162	0.000013	-0.020577
