// General information: 
//  MT Manager version: 2021.0.0 
//  XDA version: 2021.0.0 build 5908 rev 109668 built on 2021-04-19
// Device information: 
//  DeviceId: 00B47F0C
//  ProductCode: MTW2-3A7G6
//  Firmware Version: 4.6.0
//  Hardware Version: 2.0.0
// Device settings: 
//  Filter Profile: human(46.1)
//  Option Flags: Orientation Smoother Disabled, Position/Velocity Smoother Disabled, Continuous Zero Rotation Update Disabled, AHS Disabled, ICC Disabled
// Coordinate system: ENU
PacketCounter	Acc_X	Acc_Y	Acc_Z	FreeAcc_E	FreeAcc_N	FreeAcc_U	Quat_q0	Quat_q1	Quat_q2	Quat_q3
26986	-0.101332	0.071136	9.713898	-0.023939	0.003939	-0.098031	0.999997	-0.000318	0.001562	-0.001572
26987	-0.115812	0.036926	9.732728	-0.038271	-0.030272	-0.079323	0.999998	-0.000322	0.001563	-0.001561
26988	-0.128761	0.077727	9.705522	-0.051405	0.010697	-0.106142	0.999998	-0.000311	0.001550	-0.001564
26989	-0.101577	0.070917	9.713897	-0.024220	0.003669	-0.098032	0.999998	-0.000315	0.001560	-0.001552
26990	-0.101782	0.070911	9.713894	-0.024303	0.003583	-0.098032	0.999998	-0.000302	0.001562	-0.001554
26991	-0.074590	0.064172	9.722269	0.002882	-0.003447	-0.089921	0.999998	-0.000300	0.001555	-0.001543
26992	-0.138995	0.071492	9.732408	-0.061395	0.003965	-0.079218	0.999998	-0.000298	0.001564	-0.001521
26993	-0.133665	0.049764	9.697456	-0.056477	-0.017491	-0.114363	0.999998	-0.000305	0.001549	-0.001505
26994	-0.139132	0.071222	9.732408	-0.061570	0.003783	-0.079219	0.999998	-0.000303	0.001566	-0.001484
26995	-0.129629	0.077401	9.705513	-0.052042	0.010068	-0.106145	0.999998	-0.000301	0.001573	-0.001463
26996	-0.089554	0.029565	9.741096	-0.011799	-0.038019	-0.071216	0.999998	-0.000315	0.001568	-0.001449
26997	-0.112343	0.064098	9.740782	-0.034571	-0.003435	-0.071109	0.999998	-0.000299	0.001565	-0.001420
26998	-0.098132	0.098128	9.721953	-0.020418	0.030600	-0.089813	0.999998	-0.000305	0.001567	-0.001401
26999	-0.102686	0.070247	9.713890	-0.025127	0.002767	-0.098034	0.999998	-0.000298	0.001565	-0.001373
27000	-0.080802	0.085100	9.757221	-0.002937	0.017094	-0.054776	0.999998	-0.000289	0.001557	-0.001355
27001	-0.065682	0.069788	9.695376	0.011611	0.002019	-0.116845	0.999998	-0.000282	0.001562	-0.001319
27002	-0.075670	0.063589	9.722265	0.001903	-0.004448	-0.089921	0.999998	-0.000278	0.001565	-0.001314
27003	-0.047594	0.007336	9.687626	0.029494	-0.060580	-0.125176	0.999998	-0.000277	0.001557	-0.001296
27004	-0.035674	0.015715	9.757849	0.042052	-0.052621	-0.054993	0.999998	-0.000288	0.001569	-0.001291
27005	-0.048822	0.056384	9.730644	0.028912	-0.011657	-0.081808	0.999998	-0.000285	0.001570	-0.001279
27006	-0.053337	0.028533	9.722579	0.024218	-0.039485	-0.090030	0.999998	-0.000283	0.001564	-0.001268
27007	-0.053330	0.028434	9.722579	0.024119	-0.039579	-0.090031	0.999998	-0.000285	0.001560	-0.001274
27008	-0.090475	0.028963	9.741089	-0.012871	-0.039111	-0.071222	0.999998	-0.000280	0.001564	-0.001278
27009	-0.076245	0.062993	9.722264	0.001274	-0.005086	-0.089921	0.999998	-0.000280	0.001564	-0.001278
27010	-0.103379	0.069765	9.713886	-0.025991	0.001866	-0.098036	0.999998	-0.000280	0.001549	-0.001260
27011	-0.071635	0.090623	9.730332	0.005804	0.022568	-0.081697	0.999998	-0.000285	0.001551	-0.001249
27012	-0.089169	0.103643	9.695062	-0.011930	0.035799	-0.116734	0.999998	-0.000272	0.001553	-0.001253
27013	-0.071849	0.090542	9.730331	0.005621	0.022382	-0.081697	0.999998	-0.000282	0.001550	-0.001259
27014	-0.108119	0.041592	9.705819	-0.030966	-0.026239	-0.106262	0.999998	-0.000278	0.001553	-0.001255
27015	-0.076558	0.062508	9.722265	0.000829	-0.005538	-0.089922	0.999998	-0.000280	0.001556	-0.001259
27016	-0.081201	0.034567	9.714197	-0.003863	-0.033365	-0.098147	0.999998	-0.000283	0.001561	-0.001264
27017	-0.104040	0.069122	9.713883	-0.026629	0.001223	-0.098037	0.999998	-0.000283	0.001561	-0.001264
27018	-0.113805	0.062910	9.740773	-0.036240	-0.005159	-0.071116	0.999998	-0.000277	0.001550	-0.001278
27019	-0.126895	0.103701	9.713569	-0.049372	0.035811	-0.097927	0.999998	-0.000278	0.001569	-0.001280
27020	-0.099829	0.096749	9.721950	-0.022157	0.028786	-0.089811	0.999998	-0.000282	0.001559	-0.001285
27021	-0.104249	0.068790	9.713884	-0.026869	0.000955	-0.098038	0.999998	-0.000285	0.001555	-0.001290
27022	-0.104341	0.068649	9.713884	-0.026940	0.000863	-0.098038	0.999998	-0.000287	0.001559	-0.001295
27023	-0.077275	0.061698	9.722264	0.000241	-0.006175	-0.089922	0.999998	-0.000289	0.001563	-0.001299
27024	-0.110021	0.090038	9.748838	-0.032128	0.022037	-0.062890	0.999998	-0.000284	0.001567	-0.001302
27025	-0.077654	0.061739	9.722261	0.000074	-0.006357	-0.089922	0.999998	-0.000269	0.001577	-0.001311
27026	-0.095135	0.074708	9.686991	-0.017647	0.006888	-0.124960	0.999998	-0.000282	0.001567	-0.001310
27027	-0.109611	0.040462	9.705807	-0.031995	-0.027324	-0.106268	0.999998	-0.000283	0.001585	-0.001312
27028	-0.142460	0.068672	9.732379	-0.064372	0.000886	-0.079237	0.999998	-0.000292	0.001584	-0.001326
27029	-0.119630	0.033958	9.732693	-0.041807	-0.033890	-0.079349	0.999998	-0.000283	0.001569	-0.001315
27030	-0.115202	0.061819	9.740763	-0.037272	-0.006239	-0.071120	0.999998	-0.000277	0.001580	-0.001316
27031	-0.078350	0.061229	9.722259	-0.000455	-0.006896	-0.089923	0.999998	-0.000273	0.001582	-0.001312
27032	-0.101161	0.095833	9.721945	-0.023198	0.027698	-0.089811	0.999998	-0.000270	0.001577	-0.001309
27033	-0.078565	0.061063	9.722258	-0.000634	-0.007079	-0.089923	0.999998	-0.000279	0.001589	-0.001313
27034	-0.088633	0.054700	9.749143	-0.010351	-0.013548	-0.063003	0.999998	-0.000275	0.001591	-0.001308
27035	-0.106084	0.067722	9.713871	-0.028090	-0.000308	-0.098041	0.999998	-0.000271	0.001585	-0.001305
27036	-0.106066	0.067698	9.713872	-0.028176	-0.000400	-0.098042	0.999998	-0.000268	0.001580	-0.001303
27037	-0.083437	0.033049	9.714184	-0.005613	-0.035178	-0.098155	0.999998	-0.000264	0.001589	-0.001289
27038	-0.116233	0.061361	9.740754	-0.037994	-0.006957	-0.071123	0.999998	-0.000268	0.001592	-0.001284
27039	-0.111022	0.039619	9.705795	-0.033069	-0.028400	-0.106275	0.999998	-0.000272	0.001595	-0.001280
27040	-0.079463	0.060442	9.722255	-0.001262	-0.007704	-0.089923	0.999998	-0.000275	0.001598	-0.001277
27041	-0.074242	0.038774	9.687295	0.003663	-0.029147	-0.125074	0.999998	-0.000271	0.001600	-0.001273
27042	-0.079677	0.060276	9.722254	-0.001443	-0.007876	-0.089923	0.999998	-0.000275	0.001596	-0.001275
27043	-0.080800	0.109531	9.765287	-0.001948	0.041114	-0.046539	0.999998	-0.000276	0.001615	-0.001277
27044	-0.070242	0.066405	9.695368	0.008021	-0.001667	-0.116841	0.999998	-0.000262	0.001604	-0.001295
27045	-0.080240	0.060207	9.722250	-0.001719	-0.008147	-0.089924	0.999998	-0.000264	0.001622	-0.001290
27046	-0.107865	0.066839	9.713858	-0.029076	-0.001280	-0.098044	0.999998	-0.000272	0.001636	-0.001301
27047	-0.108048	0.066727	9.713856	-0.029175	-0.001373	-0.098045	0.999998	-0.000266	0.001632	-0.001313
27048	-0.117095	0.011065	9.697703	-0.038489	-0.056933	-0.114515	0.999998	-0.000268	0.001636	-0.001318
27049	-0.090856	0.053496	9.749129	-0.011718	-0.014898	-0.063007	0.999998	-0.000270	0.001633	-0.001331
27050	-0.098662	0.072588	9.686972	-0.019789	0.004742	-0.124963	0.999998	-0.000277	0.001655	-0.001341
27051	-0.113240	0.038455	9.705774	-0.034148	-0.029472	-0.106282	0.999998	-0.000271	0.001650	-0.001353
27052	-0.086047	0.031511	9.714166	-0.006947	-0.036510	-0.098160	0.999998	-0.000281	0.001649	-0.001366
27053	-0.081680	0.059197	9.722244	-0.002428	-0.008870	-0.089924	0.999998	-0.000274	0.001653	-0.001376
27054	-0.081855	0.059160	9.722243	-0.002514	-0.008964	-0.089925	0.999998	-0.000275	0.001658	-0.001390
27055	-0.109257	0.065857	9.713849	-0.029888	-0.002102	-0.098047	0.999998	-0.000277	0.001661	-0.001394
27056	-0.087502	0.080484	9.757202	-0.007731	0.012200	-0.054771	0.999998	-0.000279	0.001658	-0.001407
27057	-0.099390	0.071809	9.686970	-0.020434	0.004106	-0.124964	0.999998	-0.000283	0.001639	-0.001414
27058	-0.104631	0.093396	9.721932	-0.025537	0.025359	-0.089810	0.999998	-0.000268	0.001636	-0.001433
27059	-0.119190	0.059407	9.740730	-0.039901	-0.008855	-0.071133	0.999998	-0.000269	0.001654	-0.001435
27060	-0.109657	0.065683	9.713846	-0.030327	-0.002554	-0.098049	0.999998	-0.000254	0.001659	-0.001452
27061	-0.099993	0.071885	9.686963	-0.020780	0.003742	-0.124964	0.999998	-0.000262	0.001665	-0.001465
27062	-0.082787	0.058801	9.722237	-0.003233	-0.009690	-0.089925	0.999997	-0.000248	0.001668	-0.001474
27063	-0.082961	0.058849	9.722235	-0.003332	-0.009784	-0.089926	0.999997	-0.000248	0.001673	-0.001493
27064	-0.088531	0.080325	9.757194	-0.008441	0.011471	-0.054771	0.999997	-0.000249	0.001678	-0.001505
27065	-0.097662	0.024619	9.741032	-0.017781	-0.044087	-0.071251	0.999997	-0.000248	0.001684	-0.001524
27066	-0.073530	0.064844	9.695354	0.006053	-0.003658	-0.116841	0.999997	-0.000244	0.001673	-0.001536
27067	-0.120473	0.059139	9.740716	-0.040616	-0.009573	-0.071136	0.999997	-0.000246	0.001676	-0.001540
27068	-0.106432	0.093006	9.721916	-0.026429	0.024463	-0.089810	0.999997	-0.000251	0.001692	-0.001566
27069	-0.083797	0.058294	9.722231	-0.003874	-0.010321	-0.089926	0.999997	-0.000246	0.001680	-0.001579
27070	-0.111051	0.064974	9.713834	-0.031235	-0.003447	-0.098052	0.999997	-0.000256	0.001685	-0.001584
27071	-0.106696	0.092574	9.721918	-0.026713	0.024191	-0.089810	0.999997	-0.000257	0.001682	-0.001597
27072	-0.083959	0.057822	9.722233	-0.004131	-0.010584	-0.089927	0.999997	-0.000261	0.001679	-0.001601
27073	-0.096890	0.098525	9.695042	-0.017231	0.030405	-0.116724	0.999997	-0.000263	0.001675	-0.001606
27074	-0.084143	0.057540	9.722233	-0.004320	-0.010760	-0.089927	0.999997	-0.000265	0.001686	-0.001608
27075	-0.111611	0.064224	9.713833	-0.031692	-0.003893	-0.098053	0.999997	-0.000268	0.001690	-0.001612
27076	-0.094326	0.051120	9.749109	-0.014151	-0.017329	-0.063014	0.999997	-0.000262	0.001687	-0.001622
27077	-0.080046	0.085035	9.730317	0.000023	0.016700	-0.081684	0.999997	-0.000271	0.001684	-0.001636
27078	-0.111921	0.063849	9.713832	-0.031948	-0.004155	-0.098054	0.999997	-0.000273	0.001697	-0.001639
27079	-0.107689	0.091596	9.721916	-0.027424	0.023482	-0.089811	0.999997	-0.000267	0.001699	-0.001642
27080	-0.112209	0.063861	9.713829	-0.032115	-0.004338	-0.098055	0.999997	-0.000256	0.001694	-0.001638
27081	-0.144873	0.092213	9.740391	-0.064515	0.023869	-0.071025	0.999997	-0.000261	0.001696	-0.001627
27082	-0.085105	0.056850	9.722229	-0.005020	-0.011482	-0.089928	0.999997	-0.000264	0.001692	-0.001633
27083	-0.102718	0.069772	9.686950	-0.022738	0.001780	-0.124968	0.999997	-0.000265	0.001711	-0.001635
27084	-0.085586	0.056506	9.722226	-0.005204	-0.011665	-0.089928	0.999997	-0.000277	0.001708	-0.001634
27085	-0.095515	0.050190	9.749102	-0.014956	-0.018151	-0.063017	0.999997	-0.000264	0.001709	-0.001636
27086	-0.108562	0.091130	9.721911	-0.028039	0.022847	-0.089811	0.999997	-0.000259	0.001713	-0.001639
27087	-0.113174	0.063254	9.713821	-0.032761	-0.004976	-0.098057	0.999997	-0.000262	0.001715	-0.001636
27088	-0.123022	0.056920	9.740697	-0.042492	-0.011457	-0.071146	0.999997	-0.000259	0.001703	-0.001634
27089	-0.071603	0.090353	9.703438	0.008613	0.022002	-0.108593	0.999997	-0.000255	0.001704	-0.001629
27090	-0.113372	0.063065	9.713820	-0.033020	-0.005237	-0.098058	0.999997	-0.000257	0.001716	-0.001630
27091	-0.086295	0.056173	9.722222	-0.005848	-0.012295	-0.089930	0.999997	-0.000254	0.001710	-0.001627
27092	-0.086369	0.056094	9.722222	-0.005925	-0.012382	-0.089930	0.999997	-0.000256	0.001715	-0.001631
27093	-0.086518	0.056020	9.722221	-0.006024	-0.012476	-0.089930	0.999997	-0.000252	0.001717	-0.001626
27094	-0.086649	0.056007	9.722220	-0.006103	-0.012566	-0.089930	0.999997	-0.000248	0.001719	-0.001623
27095	-0.123863	0.056577	9.740689	-0.043129	-0.012088	-0.071150	0.999997	-0.000244	0.001721	-0.001618
27096	-0.109696	0.090553	9.721903	-0.028921	0.021949	-0.089811	0.999997	-0.000245	0.001727	-0.001630
27097	-0.091495	0.028076	9.714127	-0.010999	-0.040569	-0.098180	0.999997	-0.000245	0.001727	-0.001630
27098	-0.087187	0.055816	9.722216	-0.006362	-0.012836	-0.089931	0.999997	-0.000247	0.001738	-0.001633
27099	-0.114559	0.062561	9.713810	-0.033731	-0.005962	-0.098061	0.999997	-0.000243	0.001732	-0.001630
27100	-0.087336	0.055570	9.722216	-0.006541	-0.013013	-0.089931	0.999997	-0.000255	0.001729	-0.001627
27101	-0.114635	0.062225	9.713811	-0.033909	-0.006138	-0.098062	0.999997	-0.000251	0.001731	-0.001623
27102	-0.110299	0.090014	9.721901	-0.029365	0.021507	-0.089812	0.999997	-0.000248	0.001733	-0.001617
27103	-0.097469	0.049062	9.749088	-0.016478	-0.019679	-0.063022	0.999997	-0.000252	0.001728	-0.001615
27104	-0.105054	0.068122	9.686937	-0.024509	-0.000009	-0.124972	0.999997	-0.000263	0.001733	-0.001614
27105	-0.087776	0.054822	9.722216	-0.006997	-0.013468	-0.089932	0.999997	-0.000267	0.001728	-0.001612
27106	-0.115082	0.061577	9.713810	-0.034351	-0.006584	-0.098064	0.999997	-0.000260	0.001732	-0.001622
27107	-0.120533	0.083120	9.748776	-0.039482	0.014653	-0.062903	0.999997	-0.000259	0.001724	-0.001604
27108	-0.093201	0.076328	9.757183	-0.012298	0.007596	-0.054771	0.999997	-0.000248	0.001712	-0.001608
27109	-0.120507	0.083084	9.748776	-0.039666	0.014473	-0.062904	0.999997	-0.000257	0.001724	-0.001612
27110	-0.105547	0.067615	9.686935	-0.025050	-0.000547	-0.124974	0.999997	-0.000254	0.001733	-0.001599
27111	-0.073986	0.088492	9.703437	0.006748	0.020115	-0.108588	0.999997	-0.000258	0.001728	-0.001597
27112	-0.111147	0.088827	9.721903	-0.030260	0.020599	-0.089812	0.999997	-0.000270	0.001732	-0.001587
27113	-0.115701	0.060790	9.713807	-0.034986	-0.007221	-0.098067	0.999997	-0.000273	0.001728	-0.001593
27114	-0.115758	0.060686	9.713807	-0.035073	-0.007310	-0.098067	0.999997	-0.000271	0.001728	-0.001574
27115	-0.093123	0.025938	9.714117	-0.012532	-0.042102	-0.098189	0.999997	-0.000276	0.001730	-0.001563
27116	-0.084310	0.081522	9.730311	-0.003368	0.013259	-0.081679	0.999997	-0.000263	0.001732	-0.001566
27117	-0.116052	0.060523	9.713805	-0.035363	-0.007587	-0.098068	0.999997	-0.000270	0.001725	-0.001549
27118	-0.121401	0.081936	9.748775	-0.040485	0.013648	-0.062906	0.999997	-0.000269	0.001718	-0.001532
27119	-0.143270	0.067083	9.705398	-0.062816	-0.000798	-0.106203	0.999997	-0.000273	0.001720	-0.001521
27120	-0.138833	0.094754	9.713497	-0.058273	0.026842	-0.097948	0.999997	-0.000273	0.001713	-0.001503
27121	-0.153173	0.060703	9.732269	-0.072664	-0.007376	-0.079298	0.999997	-0.000266	0.001710	-0.001467
27122	-0.111455	0.087790	9.721909	-0.031186	0.019686	-0.089813	0.999997	-0.000275	0.001688	-0.001445
27123	-0.078855	0.059305	9.695347	0.001018	-0.008708	-0.116842	0.999998	-0.000266	0.001701	-0.001414
27124	-0.116003	0.059968	9.713809	-0.035988	-0.008220	-0.098071	0.999998	-0.000260	0.001685	-0.001388
27125	-0.115935	0.059872	9.713810	-0.036087	-0.008313	-0.098071	0.999998	-0.000267	0.001685	-0.001362
27126	-0.093301	0.025088	9.714118	-0.013532	-0.043103	-0.098194	0.999998	-0.000266	0.001686	-0.001343
27127	-0.051752	0.052123	9.703756	0.027931	-0.016047	-0.108707	0.999998	-0.000274	0.001678	-0.001318
27128	-0.051766	0.052042	9.703757	0.027850	-0.016136	-0.108706	0.999998	-0.000265	0.001678	-0.001298
27129	-0.054241	0.026482	9.792774	0.026018	-0.042408	-0.019854	0.999998	-0.000264	0.001677	-0.001271
27130	-0.039115	0.011135	9.730933	0.040636	-0.057411	-0.081924	0.999998	-0.000258	0.001681	-0.001279
27131	-0.061101	-0.003647	9.687553	0.018308	-0.071851	-0.125225	0.999998	-0.000263	0.001683	-0.001268
27132	-0.034906	0.038669	9.739034	0.045081	-0.029866	-0.073664	0.999998	-0.000268	0.001685	-0.001257
27133	-0.047805	0.079432	9.711858	0.032015	0.011143	-0.100446	0.999998	-0.000266	0.001678	-0.001246
27134	-0.075003	0.086173	9.703450	0.004663	0.018032	-0.108582	0.999998	-0.000270	0.001674	-0.001244
27135	-0.080456	0.107650	9.738422	-0.000473	0.039261	-0.073417	0.999998	-0.000265	0.001677	-0.001247
27136	-0.057818	0.072937	9.738728	0.022080	0.004470	-0.073540	0.999998	-0.000268	0.001673	-0.001253
27137	-0.085024	0.079691	9.730320	-0.005283	0.011356	-0.081678	0.999998	-0.000265	0.001666	-0.001242
27138	-0.099457	0.045654	9.749085	-0.019658	-0.022856	-0.063035	0.999998	-0.000259	0.001671	-0.001252
27139	-0.089750	0.051842	9.722215	-0.010088	-0.016547	-0.089939	0.999998	-0.000261	0.001675	-0.001256
27140	-0.112562	0.086432	9.721908	-0.032802	0.018066	-0.089816	0.999998	-0.000255	0.001671	-0.001269
27141	-0.067313	0.016957	9.722519	0.012364	-0.051435	-0.090064	0.999998	-0.000271	0.001685	-0.001281
27142	-0.090217	0.051406	9.722213	-0.010350	-0.016816	-0.089940	0.999998	-0.000271	0.001686	-0.001280
27143	-0.094793	0.023545	9.714107	-0.014982	-0.044540	-0.098203	0.999998	-0.000273	0.001690	-0.001284
27144	-0.085909	0.079001	9.730318	-0.005799	0.010820	-0.081677	0.999998	-0.000275	0.001687	-0.001297
27145	-0.107814	0.064221	9.686933	-0.028123	-0.003612	-0.124983	0.999998	-0.000272	0.001688	-0.001285
27146	-0.126108	0.126567	9.694734	-0.046205	0.058730	-0.116595	0.999998	-0.000275	0.001685	-0.001290
27147	-0.109010	0.113345	9.730012	-0.028710	0.045251	-0.081553	0.999998	-0.000276	0.001703	-0.001292
27148	-0.103775	0.091805	9.695036	-0.023749	0.023842	-0.116719	0.999998	-0.000264	0.001691	-0.001297
27149	-0.081154	0.057117	9.695341	-0.001216	-0.010956	-0.116844	0.999998	-0.000271	0.001705	-0.001316
27150	-0.081337	0.056921	9.695341	-0.001302	-0.011044	-0.116844	0.999998	-0.000275	0.001700	-0.001313
27151	-0.091280	0.050588	9.722207	-0.011073	-0.017541	-0.089942	0.999998	-0.000271	0.001702	-0.001309
27152	-0.108773	0.063621	9.686927	-0.028748	-0.004241	-0.124985	0.999998	-0.000272	0.001707	-0.001321
27153	-0.091603	0.050477	9.722205	-0.011256	-0.017722	-0.089943	0.999998	-0.000267	0.001710	-0.001324
27154	-0.104511	0.091272	9.695034	-0.024292	0.023304	-0.116719	0.999998	-0.000272	0.001705	-0.001313
27155	-0.146096	0.064007	9.705377	-0.065960	-0.003931	-0.106225	0.999998	-0.000266	0.001701	-0.001325
27156	-0.087196	0.077944	9.730315	-0.006880	0.009729	-0.081677	0.999998	-0.000278	0.001698	-0.001325
27157	-0.104621	0.090899	9.695036	-0.024566	0.023026	-0.116719	0.999998	-0.000271	0.001701	-0.001336
27158	-0.114649	0.084668	9.721899	-0.034322	0.016531	-0.089818	0.999998	-0.000267	0.001704	-0.001332
27159	-0.064856	0.043168	9.730618	0.015469	-0.025255	-0.081803	0.999998	-0.000262	0.001706	-0.001335
27160	-0.092208	0.050022	9.722201	-0.011866	-0.018353	-0.089945	0.999998	-0.000258	0.001709	-0.001329
27161	-0.082467	0.056264	9.695335	-0.002289	-0.012040	-0.116846	0.999998	-0.000253	0.001712	-0.001332
27162	-0.092653	0.050058	9.722197	-0.012042	-0.018541	-0.089945	0.999998	-0.000245	0.001731	-0.001342
27163	-0.120087	0.056930	9.713777	-0.039402	-0.011647	-0.098088	0.999998	-0.000241	0.001726	-0.001339
27164	-0.093041	0.049941	9.722194	-0.012219	-0.018721	-0.089946	0.999998	-0.000249	0.001740	-0.001350
27165	-0.093199	0.049879	9.722193	-0.012317	-0.018814	-0.089946	0.999998	-0.000238	0.001733	-0.001346
27166	-0.083446	0.056109	9.695328	-0.002723	-0.012491	-0.116846	0.999998	-0.000242	0.001744	-0.001340
27167	-0.056310	0.049174	9.703746	0.024440	-0.019573	-0.108704	0.999998	-0.000237	0.001731	-0.001345
27168	-0.071669	0.064411	9.765584	0.009639	-0.004759	-0.046634	0.999998	-0.000239	0.001743	-0.001350
27169	-0.079286	0.083630	9.703438	0.001636	0.014950	-0.108576	0.999998	-0.000240	0.001740	-0.001363
27170	-0.084854	0.105054	9.738413	-0.003485	0.036176	-0.073406	0.999998	-0.000242	0.001752	-0.001365
27171	-0.089604	0.077159	9.730299	-0.008220	0.008363	-0.081677	0.999997	-0.000242	0.001757	-0.001384
27172	-0.094278	0.049257	9.722185	-0.012930	-0.019449	-0.089948	0.999997	-0.000244	0.001762	-0.001390
27173	-0.103375	-0.006515	9.705958	-0.022302	-0.074982	-0.106492	0.999997	-0.000252	0.001761	-0.001411
27174	-0.081612	0.008078	9.749354	-0.000173	-0.060745	-0.063178	0.999997	-0.000245	0.001758	-0.001429
27175	-0.089159	0.027307	9.687209	-0.008173	-0.041032	-0.125120	0.999997	-0.000254	0.001762	-0.001435
27176	-0.127266	0.077119	9.748739	-0.045598	0.008496	-0.062923	0.999997	-0.000249	0.001759	-0.001446
27177	-0.085764	0.104235	9.738414	-0.004119	0.035539	-0.073404	0.999997	-0.000252	0.001762	-0.001442
27178	-0.077517	0.035425	9.757466	0.004100	-0.033383	-0.054907	0.999997	-0.000253	0.001760	-0.001461
27179	-0.076014	0.110317	9.711553	0.005380	0.041771	-0.100301	0.999997	-0.000247	0.001756	-0.001473
27180	-0.063270	0.069371	9.738721	0.018238	0.000564	-0.073531	0.999997	-0.000249	0.001760	-0.001477
27181	-0.090572	0.076168	9.730298	-0.009119	0.007463	-0.081677	0.999997	-0.000243	0.001756	-0.001489
27182	-0.095076	0.048316	9.722182	-0.013838	-0.020343	-0.089951	0.999997	-0.000246	0.001753	-0.001494
27183	-0.122322	0.055045	9.713760	-0.041195	-0.013444	-0.098098	0.999997	-0.000246	0.001751	-0.001514
27184	-0.117963	0.082742	9.721876	-0.036636	0.014179	-0.089823	0.999997	-0.000246	0.001757	-0.001536
27185	-0.109809	0.013887	9.740924	-0.028436	-0.054755	-0.071330	0.999997	-0.000254	0.001762	-0.001548
27186	-0.053982	0.074941	9.711862	0.027386	0.006418	-0.100427	0.999997	-0.000255	0.001761	-0.001569
27187	-0.095599	0.047541	9.722181	-0.014293	-0.020809	-0.089953	0.999997	-0.000266	0.001757	-0.001568
27188	-0.073737	0.062162	9.765583	0.007846	-0.006579	-0.046633	0.999997	-0.000252	0.001746	-0.001586
27189	-0.095651	0.047528	9.722181	-0.014467	-0.020985	-0.089953	0.999997	-0.000251	0.001759	-0.001604
27190	-0.096844	0.096764	9.765276	-0.014947	0.027946	-0.046503	0.999997	-0.000252	0.001765	-0.001617
27191	-0.081722	0.081356	9.703438	-0.000316	0.012957	-0.108573	0.999997	-0.000254	0.001768	-0.001621
27192	-0.118988	0.081901	9.721871	-0.037346	0.013458	-0.089825	0.999997	-0.000248	0.001772	-0.001631
27193	-0.119237	0.081869	9.721868	-0.037444	0.013365	-0.089825	0.999997	-0.000248	0.001784	-0.001641
27194	-0.096680	0.047108	9.722172	-0.014908	-0.021432	-0.089955	0.999997	-0.000252	0.001781	-0.001645
27195	-0.079320	0.033878	9.757457	0.002565	-0.034934	-0.054912	0.999997	-0.000252	0.001771	-0.001667
27196	-0.109426	0.087804	9.695011	-0.028012	0.019517	-0.116721	0.999997	-0.000249	0.001766	-0.001662
27197	-0.096741	0.046850	9.722173	-0.015180	-0.021702	-0.089956	0.999997	-0.000250	0.001778	-0.001672
27198	-0.102421	0.068292	9.757150	-0.020315	-0.000490	-0.054782	0.999997	-0.000249	0.001784	-0.001693
27199	-0.060096	0.046068	9.703739	0.021576	-0.022474	-0.108703	0.999997	-0.000250	0.001788	-0.001705
27200	-0.082922	0.080649	9.703433	-0.001116	0.012157	-0.108572	0.999997	-0.000251	0.001790	-0.001704
27201	-0.102946	0.068093	9.757146	-0.020491	-0.000668	-0.054782	0.999997	-0.000250	0.001809	-0.001713
27202	-0.097797	0.046295	9.722165	-0.015529	-0.022057	-0.089957	0.999997	-0.000268	0.001808	-0.001720
27203	-0.120475	0.080778	9.721862	-0.038243	0.012565	-0.089827	0.999997	-0.000257	0.001794	-0.001724
27204	-0.146892	0.038313	9.670328	-0.065181	-0.029539	-0.141433	0.999997	-0.000258	0.001813	-0.001725
27205	-0.125265	0.052864	9.713735	-0.043070	-0.015328	-0.098108	0.999997	-0.000261	0.001802	-0.001731
27206	-0.110831	0.086833	9.695004	-0.028826	0.018716	-0.116722	0.999997	-0.000262	0.001802	-0.001730
27207	-0.125201	0.052700	9.713737	-0.043157	-0.015413	-0.098109	0.999997	-0.000266	0.001797	-0.001728
27208	-0.098065	0.045773	9.722165	-0.015975	-0.022500	-0.089959	0.999997	-0.000261	0.001801	-0.001731
27209	-0.093646	0.073630	9.730289	-0.011432	0.005123	-0.081678	0.999997	-0.000250	0.001794	-0.001727
27210	-0.093712	0.073538	9.730289	-0.011512	0.005044	-0.081678	0.999997	-0.000261	0.001799	-0.001722
27211	-0.080909	0.032262	9.757450	0.001312	-0.036180	-0.054916	0.999997	-0.000280	0.001789	-0.001730
27212	-0.120827	0.079847	9.721865	-0.038958	0.011869	-0.089829	0.999997	-0.000269	0.001776	-0.001733
27213	-0.120819	0.079835	9.721865	-0.039056	0.011776	-0.089829	0.999997	-0.000272	0.001778	-0.001730
27214	-0.116491	0.107465	9.729992	-0.034494	0.039401	-0.081546	0.999997	-0.000276	0.001782	-0.001727
27215	-0.098375	0.044952	9.722166	-0.016623	-0.023125	-0.089962	0.999997	-0.000271	0.001783	-0.001723
27216	-0.125742	0.051654	9.713735	-0.043948	-0.016211	-0.098114	0.999997	-0.000281	0.001789	-0.001728
27217	-0.098699	0.044670	9.722164	-0.016791	-0.023307	-0.089962	0.999997	-0.000276	0.001792	-0.001731
27218	-0.098839	0.044670	9.722162	-0.016875	-0.023392	-0.089963	0.999997	-0.000272	0.001794	-0.001726
27219	-0.094511	0.072212	9.730291	-0.012330	0.004229	-0.081678	0.999997	-0.000292	0.001798	-0.001717
27220	-0.061867	0.043639	9.703739	0.019894	-0.024162	-0.108704	0.999997	-0.000283	0.001784	-0.001707
27221	-0.098955	0.044290	9.722163	-0.017151	-0.023667	-0.089964	0.999997	-0.000276	0.001787	-0.001718
27222	-0.104522	0.065829	9.757145	-0.022286	-0.002456	-0.054786	0.999997	-0.000272	0.001789	-0.001713
27223	-0.094765	0.072004	9.730290	-0.012691	0.003866	-0.081679	0.999997	-0.000276	0.001792	-0.001710
27224	-0.109226	0.037715	9.749014	-0.027105	-0.030350	-0.063073	0.999997	-0.000288	0.001789	-0.001708
27225	-0.085107	0.077965	9.703436	-0.003171	0.010103	-0.108570	0.999997	-0.000273	0.001799	-0.001716
27226	-0.095181	0.071580	9.730289	-0.012938	0.003601	-0.081679	0.999997	-0.000291	0.001798	-0.001723
27227	-0.095256	0.071414	9.730289	-0.013037	0.003508	-0.081679	0.999997	-0.000281	0.001798	-0.001710
27228	-0.099866	0.043614	9.722157	-0.017765	-0.024293	-0.089967	0.999997	-0.000283	0.001802	-0.001714
27229	-0.112842	0.084359	9.695003	-0.030777	0.016751	-0.116724	0.999997	-0.000288	0.001804	-0.001703
27230	-0.095584	0.071125	9.730288	-0.013300	0.003239	-0.081679	0.999997	-0.000286	0.001798	-0.001692
27231	-0.090221	0.049498	9.695303	-0.008348	-0.018150	-0.116859	0.999997	-0.000289	0.001801	-0.001689
27232	-0.122988	0.077792	9.721855	-0.040729	0.010072	-0.089834	0.999997	-0.000286	0.001804	-0.001682
27233	-0.068706	0.064152	9.738720	0.013678	-0.004036	-0.073525	0.999997	-0.000273	0.001805	-0.001684
27234	-0.123231	0.077915	9.721851	-0.040902	0.009895	-0.089835	0.999997	-0.000271	0.001806	-0.001664
27235	-0.054473	0.098205	9.720000	0.027847	0.029917	-0.092125	0.999997	-0.000268	0.001800	-0.001660
27236	-0.118787	0.105488	9.729986	-0.036424	0.037420	-0.081545	0.999997	-0.000279	0.001798	-0.001661
27237	-0.090795	0.049161	9.695300	-0.008864	-0.018688	-0.116860	0.999997	-0.000275	0.001807	-0.001655
27238	-0.096263	0.070653	9.730285	-0.014007	0.002511	-0.081680	0.999997	-0.000273	0.001793	-0.001648
27239	-0.090826	0.049106	9.695300	-0.009054	-0.018876	-0.116861	0.999997	-0.000268	0.001796	-0.001651
27240	-0.123599	0.077415	9.721850	-0.041433	0.009336	-0.089836	0.999997	-0.000271	0.001799	-0.001649
27241	-0.138194	0.043362	9.740564	-0.055877	-0.024889	-0.071239	0.999997	-0.000259	0.001808	-0.001642
27242	-0.096739	0.070376	9.730282	-0.014368	0.002145	-0.081680	0.999997	-0.000279	0.001804	-0.001634
27243	-0.101135	0.042390	9.722149	-0.019113	-0.025660	-0.089973	0.999997	-0.000270	0.001789	-0.001623
27244	-0.114060	0.083264	9.694998	-0.032098	0.015388	-0.116726	0.999997	-0.000274	0.001807	-0.001612
27245	-0.106866	0.063685	9.757134	-0.024346	-0.004556	-0.054792	0.999997	-0.000280	0.001800	-0.001595
27246	-0.096916	0.069801	9.730285	-0.014721	0.001781	-0.081681	0.999997	-0.000280	0.001793	-0.001575
27247	-0.128567	0.048824	9.713713	-0.046718	-0.019012	-0.098132	0.999997	-0.000277	0.001787	-0.001564
27248	-0.128607	0.048782	9.713713	-0.046800	-0.019092	-0.098132	0.999997	-0.000275	0.001788	-0.001550
27249	-0.106860	0.063307	9.757136	-0.024702	-0.004906	-0.054793	0.999997	-0.000282	0.001781	-0.001533
27250	-0.097149	0.069465	9.730285	-0.015089	0.001430	-0.081681	0.999997	-0.000277	0.001799	-0.001525
27251	-0.101740	0.041707	9.722146	-0.019836	-0.026375	-0.089976	0.999997	-0.000270	0.001782	-0.001499
27252	-0.124395	0.076289	9.721849	-0.042525	0.008257	-0.089840	0.999997	-0.000275	0.001784	-0.001490
27253	-0.060180	0.068657	9.711872	0.021579	0.000558	-0.100411	0.999997	-0.000276	0.001782	-0.001455
27254	-0.091892	0.047584	9.695297	-0.010407	-0.020223	-0.116865	0.999997	-0.000283	0.001776	-0.001437
27255	-0.070144	0.062099	9.738723	0.011690	-0.006041	-0.073523	0.999997	-0.000280	0.001777	-0.001425
27256	-0.060329	0.068384	9.711873	0.021312	0.000290	-0.100410	0.999997	-0.000271	0.001776	-0.001405
27257	-0.047638	0.027572	9.739018	0.034110	-0.040950	-0.073660	0.999997	-0.000259	0.001777	-0.001400
27258	-0.064883	0.040735	9.703732	0.016481	-0.027598	-0.108706	0.999997	-0.000259	0.001763	-0.001381
27259	-0.080262	0.055978	9.765569	0.001623	-0.012825	-0.046636	0.999997	-0.000252	0.001774	-0.001391
27260	-0.075002	0.034297	9.730580	0.006597	-0.034200	-0.081820	0.999997	-0.000267	0.001769	-0.001374
27261	-0.075004	0.034039	9.730581	0.006498	-0.034293	-0.081820	0.999997	-0.000269	0.001765	-0.001379
27262	-0.065174	0.040232	9.703732	0.016118	-0.027955	-0.108707	0.999997	-0.000264	0.001768	-0.001381
27263	-0.070667	0.061598	9.738722	0.010964	-0.006761	-0.073523	0.999997	-0.000276	0.001764	-0.001380
27264	-0.097810	0.068241	9.730287	-0.016367	0.000164	-0.081683	0.999997	-0.000279	0.001753	-0.001388
27265	-0.087889	0.074405	9.703439	-0.006759	0.006494	-0.108569	0.999997	-0.000277	0.001754	-0.001376
27266	-0.093289	0.095911	9.738430	-0.011890	0.027684	-0.073385	0.999997	-0.000271	0.001743	-0.001391
27267	-0.097829	0.067922	9.730289	-0.016639	-0.000118	-0.081684	0.999997	-0.000288	0.001749	-0.001397
27268	-0.102499	0.040007	9.722145	-0.021377	-0.027918	-0.089984	0.999997	-0.000275	0.001751	-0.001400
27269	-0.043673	0.054027	9.747162	0.037671	-0.014339	-0.065361	0.999997	-0.000278	0.001747	-0.001405
27270	-0.075467	0.032989	9.730581	0.005691	-0.035118	-0.081823	0.999997	-0.000280	0.001751	-0.001409
27271	-0.098319	0.067504	9.730287	-0.017003	-0.000484	-0.081684	0.999997	-0.000284	0.001754	-0.001406
27272	-0.115769	0.080517	9.695001	-0.034622	0.012872	-0.116731	0.999997	-0.000285	0.001759	-0.001417
27273	-0.098661	0.067246	9.730285	-0.017181	-0.000664	-0.081685	0.999997	-0.000287	0.001763	-0.001421
27274	-0.098718	0.067227	9.730285	-0.017259	-0.000753	-0.081685	0.999997	-0.000277	0.001756	-0.001410
27275	-0.116074	0.080211	9.695000	-0.034895	0.012599	-0.116732	0.999997	-0.000295	0.001761	-0.001416
27276	-0.088895	0.073180	9.703440	-0.007731	0.005496	-0.108569	0.999997	-0.000284	0.001749	-0.001419
27277	-0.094390	0.094711	9.738431	-0.012887	0.026686	-0.073383	0.999997	-0.000284	0.001761	-0.001429
27278	-0.089235	0.073093	9.703437	-0.007917	0.005317	-0.108569	0.999997	-0.000285	0.001765	-0.001440
27279	-0.089410	0.072971	9.703436	-0.008015	0.005224	-0.108569	0.999997	-0.000287	0.001769	-0.001444
27280	-0.099467	0.066618	9.730281	-0.017810	-0.001291	-0.081686	0.999997	-0.000284	0.001770	-0.001433
27281	-0.113872	0.032378	9.748980	-0.032273	-0.035517	-0.063107	0.999997	-0.000298	0.001758	-0.001425
27282	-0.094864	0.094097	9.738433	-0.013333	0.026232	-0.073382	0.999997	-0.000286	0.001753	-0.001429
27283	-0.089598	0.072683	9.703437	-0.008372	0.004858	-0.108569	0.999997	-0.000278	0.001764	-0.001439
27284	-0.095235	0.094127	9.738429	-0.013511	0.026055	-0.073382	0.999997	-0.000283	0.001767	-0.001427
27285	-0.082537	0.053030	9.765567	-0.000729	-0.015195	-0.046640	0.999997	-0.000286	0.001763	-0.001432
27286	-0.094474	0.044592	9.695287	-0.013275	-0.023112	-0.116875	0.999997	-0.000282	0.001766	-0.001427
27287	-0.109965	0.059774	9.757124	-0.028145	-0.008352	-0.054805	0.999997	-0.000283	0.001770	-0.001439
27288	-0.067526	0.037589	9.703727	0.013789	-0.030310	-0.108710	0.999997	-0.000284	0.001771	-0.001437
27289	-0.131921	0.044942	9.713687	-0.050415	-0.022689	-0.098158	0.999997	-0.000295	0.001774	-0.001434
27290	-0.073210	0.058663	9.738721	0.008648	-0.009115	-0.073522	0.999997	-0.000304	0.001781	-0.001446
27291	-0.105002	0.037632	9.722127	-0.023349	-0.029891	-0.089994	0.999997	-0.000300	0.001775	-0.001443
27292	-0.122277	0.050788	9.686841	-0.040957	-0.016521	-0.125042	0.999997	-0.000295	0.001772	-0.001453
27293	-0.077824	0.030597	9.730570	0.003720	-0.037092	-0.081829	0.999997	-0.000306	0.001768	-0.001452
27294	-0.068900	0.085997	9.746875	0.012949	0.018228	-0.065215	0.999997	-0.000301	0.001771	-0.001456
27295	-0.127896	0.071866	9.721837	-0.046293	0.004479	-0.089855	0.999997	-0.000310	0.001769	-0.001470
27296	-0.073689	0.057895	9.738722	0.008115	-0.009667	-0.073522	0.999997	-0.000311	0.001781	-0.001475
27297	-0.095566	0.043233	9.695282	-0.014167	-0.024011	-0.116878	0.999997	-0.000305	0.001770	-0.001495
27298	-0.063912	0.064013	9.711879	0.017649	-0.003420	-0.100403	0.999997	-0.000313	0.001776	-0.001508
27299	-0.106559	0.086016	9.765275	-0.024470	0.018362	-0.046500	0.999997	-0.000307	0.001772	-0.001519
27300	-0.128501	0.071262	9.721833	-0.046737	0.004028	-0.089857	0.999997	-0.000318	0.001784	-0.001515
27301	-0.091557	0.070526	9.703435	-0.009874	0.003337	-0.108570	0.999997	-0.000311	0.001781	-0.001534
27302	-0.101581	0.064209	9.730276	-0.019684	-0.003180	-0.081690	0.999997	-0.000313	0.001785	-0.001538
27303	-0.064637	0.063560	9.711878	0.017178	-0.003872	-0.100403	0.999997	-0.000305	0.001789	-0.001556
27304	-0.079178	0.029406	9.730563	0.002725	-0.038097	-0.081833	0.999997	-0.000314	0.001788	-0.001571
27305	-0.064864	0.063426	9.711877	0.017001	-0.004056	-0.100402	0.999997	-0.000299	0.001791	-0.001588
27306	-0.102001	0.063974	9.730273	-0.020040	-0.003542	-0.081691	0.999997	-0.000311	0.001780	-0.001587
27307	-0.060493	0.091025	9.720034	0.021480	0.023471	-0.092091	0.999997	-0.000301	0.001793	-0.001611
27308	-0.134934	0.092155	9.756822	-0.052529	0.024577	-0.054669	0.999997	-0.000310	0.001792	-0.001626
27309	-0.092570	0.069936	9.703429	-0.010604	0.002610	-0.108571	0.999997	-0.000303	0.001803	-0.001636
27310	-0.092744	0.069898	9.703428	-0.010681	0.002522	-0.108571	0.999997	-0.000305	0.001801	-0.001649
27311	-0.107256	0.035876	9.722109	-0.025156	-0.031706	-0.090004	0.999997	-0.000291	0.001803	-0.001658
27312	-0.098358	0.091460	9.738423	-0.015923	0.023612	-0.073380	0.999997	-0.000292	0.001801	-0.001672
27313	-0.065897	0.063114	9.711872	0.016284	-0.004786	-0.100401	0.999997	-0.000277	0.001811	-0.001680
27314	-0.130406	0.070501	9.721814	-0.048005	0.002756	-0.089862	0.999997	-0.000293	0.001811	-0.001703
27315	-0.075976	0.056611	9.738712	0.006380	-0.011401	-0.073523	0.999997	-0.000281	0.001798	-0.001707
27316	-0.103115	0.063424	9.730265	-0.020937	-0.004457	-0.081693	0.999997	-0.000290	0.001796	-0.001721
27317	-0.117644	0.029166	9.748946	-0.035415	-0.038686	-0.063129	0.999997	-0.000292	0.001800	-0.001726
27318	-0.093391	0.069358	9.703425	-0.011400	0.001797	-0.108571	0.999997	-0.000296	0.001796	-0.001730
27319	-0.126056	0.097613	9.729976	-0.043803	0.030009	-0.081550	0.999997	-0.000296	0.001794	-0.001750
27320	-0.071692	0.083805	9.746874	0.010596	0.015854	-0.065208	0.999997	-0.000296	0.001795	-0.001750
27321	-0.135083	0.041948	9.713657	-0.053204	-0.025486	-0.098180	0.999997	-0.000298	0.001792	-0.001763
27322	-0.099099	0.090352	9.738426	-0.016728	0.022800	-0.073379	0.999997	-0.000314	0.001805	-0.001768
27323	-0.093772	0.068739	9.703426	-0.011762	0.001436	-0.108572	0.999997	-0.000300	0.001794	-0.001787
27324	-0.103643	0.062391	9.730266	-0.021566	-0.005082	-0.081695	0.999997	-0.000312	0.001791	-0.001785
27325	-0.084028	0.074825	9.676588	-0.002216	0.007690	-0.135449	0.999997	-0.000304	0.001809	-0.001794
27326	-0.114118	0.055930	9.757099	-0.031475	-0.011695	-0.054818	0.999997	-0.000308	0.001812	-0.001790
27327	-0.094344	0.068340	9.703423	-0.012125	0.001078	-0.108572	0.999997	-0.000311	0.001808	-0.001795
27328	-0.104439	0.061923	9.730260	-0.021926	-0.005441	-0.081696	0.999997	-0.000313	0.001821	-0.001797
27329	-0.131792	0.068570	9.721809	-0.049265	0.001501	-0.089868	0.999997	-0.000325	0.001816	-0.001789
27330	-0.114629	0.055105	9.757098	-0.031825	-0.012060	-0.054820	0.999997	-0.000334	0.001822	-0.001802
27331	-0.141859	0.061947	9.748646	-0.059163	-0.005116	-0.062993	0.999997	-0.000320	0.001810	-0.001822
27332	-0.067757	0.060768	9.711874	0.014675	-0.006413	-0.100400	0.999997	-0.000323	0.001828	-0.001810
27333	-0.105106	0.061210	9.730258	-0.022389	-0.005903	-0.081697	0.999997	-0.000326	0.001824	-0.001815
27334	-0.067981	0.060529	9.711874	0.014490	-0.006593	-0.100400	0.999997	-0.000323	0.001818	-0.001811
27335	-0.115029	0.054828	9.757095	-0.032301	-0.012518	-0.054822	0.999997	-0.000323	0.001818	-0.001811
27336	-0.105106	0.061039	9.730259	-0.022559	-0.006078	-0.081698	0.999997	-0.000326	0.001815	-0.001817
27337	-0.100626	0.088826	9.738424	-0.017997	0.021530	-0.073378	0.999997	-0.000312	0.001810	-0.001827
27338	-0.105181	0.060959	9.730258	-0.022740	-0.006257	-0.081698	0.999997	-0.000326	0.001812	-0.001809
27339	-0.117021	0.052233	9.659969	-0.035282	-0.014142	-0.151943	0.999997	-0.000344	0.001803	-0.001818
27340	-0.109543	0.032596	9.722096	-0.027580	-0.034140	-0.090019	0.999997	-0.000335	0.001788	-0.001807
27341	-0.110550	0.081841	9.765267	-0.028084	0.014734	-0.046504	0.999997	-0.000337	0.001799	-0.001810
27342	-0.100711	0.087900	9.738432	-0.018436	0.021079	-0.073378	0.999997	-0.000349	0.001788	-0.001810
27343	-0.119710	0.025825	9.748930	-0.037587	-0.040851	-0.063146	0.999997	-0.000352	0.001799	-0.001806
27344	-0.063883	0.086983	9.720049	0.018358	0.020289	-0.092077	0.999997	-0.000348	0.001802	-0.001803
27345	-0.105640	0.059806	9.730261	-0.023370	-0.006901	-0.081700	0.999997	-0.000343	0.001804	-0.001806
27346	-0.064013	0.086970	9.720049	0.018184	0.020097	-0.092077	0.999997	-0.000339	0.001792	-0.001806
27347	-0.137374	0.038887	9.713637	-0.055445	-0.027750	-0.098199	0.999997	-0.000335	0.001801	-0.001801
27348	-0.105838	0.059616	9.730260	-0.023638	-0.007176	-0.081701	0.999997	-0.000347	0.001797	-0.001799
27349	-0.068803	0.058877	9.711879	0.013232	-0.007874	-0.100399	0.999997	-0.000340	0.001801	-0.001809
27350	-0.096144	0.065774	9.703424	-0.014089	-0.000915	-0.108575	0.999997	-0.000336	0.001803	-0.001803
27351	-0.096274	0.065762	9.703422	-0.014187	-0.001008	-0.108575	0.999997	-0.000332	0.001805	-0.001799
27352	-0.069213	0.058863	9.711876	0.012978	-0.008140	-0.100399	0.999997	-0.000328	0.001808	-0.001795
27353	-0.106398	0.059358	9.730255	-0.024089	-0.007627	-0.081702	0.999997	-0.000334	0.001802	-0.001785
27354	-0.106381	0.059334	9.730255	-0.024173	-0.007714	-0.081703	0.999997	-0.000321	0.001797	-0.001788
27355	-0.106363	0.059395	9.730255	-0.024272	-0.007807	-0.081703	0.999997	-0.000318	0.001791	-0.001784
27356	-0.106364	0.059224	9.730256	-0.024349	-0.007902	-0.081703	0.999997	-0.000329	0.001788	-0.001785
27357	-0.064825	0.086242	9.720050	0.017186	0.019098	-0.092073	0.999997	-0.000324	0.001790	-0.001788
27358	-0.096659	0.065370	9.703421	-0.014796	-0.001649	-0.108576	0.999997	-0.000319	0.001794	-0.001793
27359	-0.106745	0.059008	9.730253	-0.024628	-0.008181	-0.081704	0.999997	-0.000322	0.001797	-0.001789
27360	-0.109779	0.106166	9.676303	-0.027815	0.039358	-0.135300	0.999997	-0.000318	0.001807	-0.001782
27361	-0.107230	0.059002	9.730248	-0.024811	-0.008356	-0.081705	0.999997	-0.000305	0.001815	-0.001775
27362	-0.107278	0.059057	9.730247	-0.024890	-0.008448	-0.081705	0.999997	-0.000303	0.001802	-0.001774
27363	-0.102690	0.086799	9.738421	-0.020323	0.019157	-0.073378	0.999997	-0.000299	0.001796	-0.001771
27364	-0.097248	0.065143	9.703417	-0.015331	-0.002184	-0.108577	0.999997	-0.000311	0.001793	-0.001768
27365	-0.097406	0.064910	9.703417	-0.015429	-0.002277	-0.108577	0.999997	-0.000314	0.001804	-0.001763
27366	-0.092111	0.043353	9.668409	-0.010437	-0.023616	-0.143777	0.999997	-0.000315	0.001805	-0.001761
27367	-0.103080	0.086166	9.738423	-0.020578	0.018901	-0.073378	0.999997	-0.000326	0.001808	-0.001759
27368	-0.097713	0.064433	9.703417	-0.015591	-0.002447	-0.108577	0.999997	-0.000331	0.001803	-0.001750
27369	-0.103138	0.085805	9.738425	-0.020760	0.018718	-0.073378	0.999997	-0.000328	0.001797	-0.001746
27370	-0.097844	0.064249	9.703417	-0.015775	-0.002630	-0.108578	0.999997	-0.000329	0.001809	-0.001750
27371	-0.125090	0.071125	9.694959	-0.043108	0.004325	-0.116758	0.999997	-0.000320	0.001794	-0.001739
27372	-0.103308	0.085664	9.738425	-0.021030	0.018450	-0.073378	0.999997	-0.000325	0.001796	-0.001727
27373	-0.080668	0.050794	9.738707	0.001439	-0.016389	-0.073528	0.999997	-0.000332	0.001789	-0.001710
27374	-0.107879	0.057624	9.730249	-0.025877	-0.009429	-0.081709	0.999997	-0.000323	0.001789	-0.001689
27375	-0.112479	0.029879	9.722071	-0.030642	-0.037219	-0.090040	0.999997	-0.000320	0.001790	-0.001677
27376	-0.102642	0.036119	9.695239	-0.020984	-0.030868	-0.116910	0.999997	-0.000319	0.001791	-0.001658
27377	-0.130776	0.092193	9.729967	-0.048720	0.025042	-0.081559	0.999997	-0.000319	0.001782	-0.001633
27378	-0.080830	0.050595	9.738706	0.001003	-0.016840	-0.073529	0.999997	-0.000312	0.001774	-0.001604
27379	-0.076418	0.078387	9.746883	0.005572	0.010764	-0.065197	0.999997	-0.000307	0.001783	-0.001599
27380	-0.108227	0.057487	9.730246	-0.026417	-0.009978	-0.081711	0.999997	-0.000306	0.001776	-0.001583
27381	-0.083940	0.097706	9.684763	-0.002367	0.030509	-0.127116	0.999997	-0.000310	0.001785	-0.001571
27382	-0.075909	0.028944	9.703694	0.005707	-0.038464	-0.108731	0.999997	-0.000300	0.001786	-0.001557
27383	-0.071577	0.056668	9.711872	0.010277	-0.010861	-0.100398	0.999997	-0.000306	0.001794	-0.001538
27384	-0.054529	0.043355	9.747161	0.027687	-0.024440	-0.065348	0.999997	-0.000303	0.001796	-0.001525
27385	-0.076384	0.028819	9.703691	0.005429	-0.038735	-0.108732	0.999997	-0.000293	0.001796	-0.001512
27386	-0.076516	0.028721	9.703690	0.005344	-0.038820	-0.108732	0.999997	-0.000304	0.001800	-0.001509
27387	-0.054842	0.043124	9.747160	0.027405	-0.024714	-0.065347	0.999997	-0.000301	0.001794	-0.001505
27388	-0.066700	0.034737	9.676861	0.014918	-0.032558	-0.135601	0.999997	-0.000305	0.001797	-0.001494
27389	-0.050516	0.070772	9.755340	0.031905	0.002799	-0.057013	0.999997	-0.000292	0.001799	-0.001496
27390	-0.109463	0.056826	9.730236	-0.027315	-0.010879	-0.081714	0.999997	-0.000297	0.001794	-0.001495
27391	-0.086871	0.022066	9.730517	-0.004851	-0.045722	-0.081866	0.999997	-0.000291	0.001797	-0.001498
27392	-0.099653	0.063026	9.703406	-0.017753	-0.004619	-0.108582	0.999997	-0.000288	0.001792	-0.001495
27393	-0.067955	0.083793	9.720050	0.014050	0.015928	-0.092062	0.999997	-0.000291	0.001788	-0.001500
27394	-0.099690	0.062647	9.703408	-0.017939	-0.004797	-0.108582	0.999997	-0.000309	0.001786	-0.001507
27395	-0.109677	0.055980	9.730239	-0.027781	-0.011334	-0.081716	0.999997	-0.000320	0.001782	-0.001506
27396	-0.072562	0.055206	9.711873	0.009108	-0.012029	-0.100398	0.999997	-0.000315	0.001778	-0.001516
27397	-0.082504	0.048905	9.738701	-0.000735	-0.018567	-0.073532	0.999997	-0.000313	0.001772	-0.001505
27398	-0.095294	0.089795	9.711595	-0.013641	0.022541	-0.100246	0.999997	-0.000314	0.001776	-0.001517
27399	-0.082680	0.048696	9.738700	-0.000924	-0.018748	-0.073532	0.999997	-0.000316	0.001772	-0.001522
27400	-0.105438	0.083322	9.738422	-0.023561	0.015913	-0.073379	0.999997	-0.000310	0.001777	-0.001533
27401	-0.095709	0.089714	9.711591	-0.013913	0.022265	-0.100245	0.999997	-0.000296	0.001786	-0.001534
27402	-0.095783	0.089635	9.711591	-0.013989	0.022178	-0.100245	0.999997	-0.000309	0.001776	-0.001534
27403	-0.133085	0.089869	9.729957	-0.051064	0.022697	-0.081565	0.999997	-0.000327	0.001795	-0.001523
27404	-0.073433	0.054401	9.711871	0.008390	-0.012758	-0.100399	0.999997	-0.000316	0.001782	-0.001528
27405	-0.110568	0.055028	9.730234	-0.028685	-0.012239	-0.081720	0.999997	-0.000318	0.001785	-0.001532
27406	-0.093507	0.041685	9.765523	-0.011288	-0.025839	-0.046668	0.999997	-0.000320	0.001790	-0.001538
27407	-0.100938	0.061122	9.703405	-0.019120	-0.005981	-0.108585	0.999997	-0.000314	0.001792	-0.001541
27408	-0.096487	0.088880	9.711591	-0.014535	0.021628	-0.100245	0.999997	-0.000311	0.001787	-0.001537
27409	-0.095631	0.039550	9.668391	-0.014228	-0.027405	-0.143791	0.999997	-0.000315	0.001789	-0.001534
27410	-0.106573	0.082491	9.738417	-0.024459	0.015002	-0.073380	0.999997	-0.000303	0.001784	-0.001536
27411	-0.096692	0.088617	9.711592	-0.014808	0.021356	-0.100245	0.999997	-0.000323	0.001788	-0.001527
27412	-0.096841	0.088458	9.711592	-0.014889	0.021267	-0.100245	0.999997	-0.000310	0.001791	-0.001529
27413	-0.074326	0.053786	9.711867	0.007570	-0.013579	-0.100399	0.999997	-0.000312	0.001794	-0.001534
27414	-0.084449	0.047274	9.738692	-0.002259	-0.020115	-0.073535	0.999997	-0.000323	0.001799	-0.001531
27415	-0.106356	0.032501	9.695212	-0.024509	-0.034391	-0.116930	0.999997	-0.000325	0.001802	-0.001535
27416	-0.106514	0.032354	9.695210	-0.024587	-0.034477	-0.116930	0.999997	-0.000329	0.001806	-0.001531
27417	-0.116621	0.025902	9.722033	-0.034436	-0.041017	-0.090068	0.999997	-0.000333	0.001809	-0.001528
27418	-0.074958	0.052939	9.711867	0.007127	-0.014029	-0.100399	0.999997	-0.000330	0.001795	-0.001526
27419	-0.102211	0.059866	9.703400	-0.020199	-0.007059	-0.108588	0.999997	-0.000322	0.001807	-0.001535
27420	-0.085249	0.046461	9.738689	-0.002810	-0.020660	-0.073537	0.999997	-0.000340	0.001813	-0.001542
27421	-0.102561	0.059450	9.703399	-0.020384	-0.007242	-0.108589	0.999997	-0.000336	0.001807	-0.001539
27422	-0.088158	0.093513	9.684767	-0.006036	0.026813	-0.127107	0.999997	-0.000330	0.001811	-0.001549
27423	-0.085591	0.046203	9.738687	-0.003086	-0.020934	-0.073537	0.999997	-0.000331	0.001816	-0.001560
27424	-0.075814	0.052387	9.711864	0.006583	-0.014572	-0.100400	0.999997	-0.000332	0.001821	-0.001572
27425	-0.080522	0.024526	9.703669	0.001810	-0.042357	-0.108746	0.999997	-0.000332	0.001826	-0.001591
27426	-0.103350	0.059160	9.703392	-0.020824	-0.007690	-0.108590	0.999997	-0.000328	0.001829	-0.001587
27427	-0.108014	0.031324	9.695197	-0.025597	-0.035474	-0.116937	0.999997	-0.000330	0.001832	-0.001591
27428	-0.113719	0.052600	9.730211	-0.030763	-0.014317	-0.081729	0.999997	-0.000338	0.001846	-0.001602
27429	-0.082145	0.073252	9.746876	0.001041	0.006215	-0.065192	0.999997	-0.000340	0.001835	-0.001616
27430	-0.082172	0.073117	9.746877	0.000959	0.006126	-0.065191	0.999997	-0.000342	0.001839	-0.001620
27431	-0.082347	0.073080	9.746876	0.000861	0.006033	-0.065191	0.999997	-0.000334	0.001844	-0.001638
27432	-0.067043	0.057883	9.685037	0.015612	-0.008848	-0.127262	0.999997	-0.000336	0.001841	-0.001652
27433	-0.104276	0.058448	9.703386	-0.021468	-0.008325	-0.108592	0.999997	-0.000330	0.001844	-0.001655
27434	-0.072742	0.079317	9.720053	0.010349	0.012210	-0.092052	0.999997	-0.000324	0.001848	-0.001665
27435	-0.114488	0.052204	9.730204	-0.031407	-0.014957	-0.081732	0.999997	-0.000318	0.001844	-0.001677
27436	-0.104655	0.058490	9.703382	-0.021730	-0.008592	-0.108593	0.999997	-0.000316	0.001852	-0.001656
27437	-0.110257	0.079624	9.738400	-0.026909	0.012553	-0.073383	0.999997	-0.000343	0.001850	-0.001657
27438	-0.114741	0.051487	9.730205	-0.031671	-0.015225	-0.081733	0.999997	-0.000345	0.001840	-0.001671
27439	-0.077568	0.050751	9.711858	0.005214	-0.015935	-0.100401	0.999997	-0.000345	0.001838	-0.001691
27440	-0.110243	0.079107	9.738404	-0.027173	0.012283	-0.073384	0.999997	-0.000338	0.001835	-0.001711
27441	-0.073126	0.078527	9.720056	0.009712	0.011572	-0.092051	0.999997	-0.000332	0.001831	-0.001722
27442	-0.087711	0.044347	9.738677	-0.004809	-0.022658	-0.073542	0.999997	-0.000341	0.001837	-0.001735
27443	-0.105051	0.057473	9.703384	-0.022373	-0.009229	-0.108595	0.999997	-0.000332	0.001835	-0.001762
27444	-0.110673	0.078970	9.738400	-0.027545	0.011925	-0.073384	0.999997	-0.000328	0.001845	-0.001755
27445	-0.115339	0.051146	9.730200	-0.032320	-0.015857	-0.081736	0.999997	-0.000329	0.001841	-0.001768
27446	-0.105417	0.057338	9.703381	-0.022652	-0.009493	-0.108596	0.999997	-0.000330	0.001839	-0.001788
27447	-0.115483	0.050991	9.730199	-0.032510	-0.016039	-0.081737	0.999997	-0.000324	0.001842	-0.001791
27448	-0.115557	0.050997	9.730198	-0.032592	-0.016131	-0.081738	0.999997	-0.000324	0.001843	-0.001793
27449	-0.111050	0.078760	9.738398	-0.027914	0.011557	-0.073385	0.999997	-0.000324	0.001843	-0.001793
27450	-0.115715	0.050936	9.730196	-0.032576	-0.016125	-0.081737	0.999997	-0.000326	0.001855	-0.001795
27451	-0.069722	0.105627	9.728254	0.013667	0.038540	-0.083696	0.999997	-0.000338	0.001851	-0.001794
27452	-0.074322	0.077810	9.720053	0.008911	0.010766	-0.092049	0.999997	-0.000322	0.001855	-0.001810
27453	-0.133350	0.063915	9.694899	-0.050313	-0.002871	-0.116792	0.999997	-0.000325	0.001859	-0.001814
27454	-0.088989	0.043559	9.738669	-0.005705	-0.023561	-0.073544	0.999997	-0.000336	0.001849	-0.001823
27455	-0.074533	0.077479	9.720054	0.008637	0.010488	-0.092048	0.999997	-0.000330	0.001852	-0.001826
27456	-0.116342	0.050266	9.730192	-0.033102	-0.016669	-0.081740	0.999997	-0.000333	0.001856	-0.001830
27457	-0.116434	0.050124	9.730192	-0.033200	-0.016762	-0.081741	0.999997	-0.000335	0.001852	-0.001835
27458	-0.116509	0.050045	9.730192	-0.033284	-0.016848	-0.081741	0.999997	-0.000331	0.001855	-0.001830
27459	-0.102183	0.084039	9.711576	-0.018940	0.017201	-0.100244	0.999997	-0.000334	0.001858	-0.001834
27460	-0.112301	0.077573	9.738393	-0.028778	0.010653	-0.073386	0.999997	-0.000338	0.001861	-0.001825
27461	-0.085106	0.070545	9.746871	-0.001653	0.003484	-0.065190	0.999997	-0.000335	0.001848	-0.001823
27462	-0.106804	0.055984	9.703373	-0.023879	-0.010753	-0.108600	0.999997	-0.000332	0.001850	-0.001816
27463	-0.102444	0.083671	9.711577	-0.019297	0.016842	-0.100244	0.999997	-0.000334	0.001853	-0.001820
27464	-0.075416	0.076679	9.720053	0.007843	0.009679	-0.092047	0.999997	-0.000330	0.001856	-0.001815
27465	-0.117128	0.049512	9.730187	-0.033922	-0.017480	-0.081744	0.999997	-0.000327	0.001850	-0.001812
27466	-0.080130	0.048825	9.711847	0.002988	-0.018191	-0.100404	0.999997	-0.000328	0.001862	-0.001816
27467	-0.122964	0.070738	9.765205	-0.039182	0.003567	-0.046531	0.999997	-0.000333	0.001864	-0.001805
27468	-0.080519	0.048536	9.711846	0.002805	-0.018377	-0.100404	0.999997	-0.000333	0.001870	-0.001825
27469	-0.097814	0.061708	9.676551	-0.014749	-0.004936	-0.135458	0.999997	-0.000329	0.001864	-0.001822
27470	-0.070564	0.054783	9.685030	0.012386	-0.012099	-0.127261	0.999997	-0.000324	0.001853	-0.001834
27471	-0.090518	0.042094	9.738662	-0.007245	-0.025106	-0.073549	0.999997	-0.000327	0.001856	-0.001831
27472	-0.053445	0.041316	9.720325	0.029655	-0.025814	-0.092207	0.999997	-0.000332	0.001851	-0.001828
27473	-0.090603	0.041769	9.738662	-0.007432	-0.025286	-0.073550	0.999997	-0.000335	0.001847	-0.001833
27474	-0.076270	0.075849	9.720053	0.006933	0.008768	-0.092045	0.999997	-0.000321	0.001857	-0.001835
27475	-0.118041	0.048751	9.730180	-0.034835	-0.018389	-0.081749	0.999997	-0.000320	0.001849	-0.001816
27476	-0.118024	0.048726	9.730180	-0.034916	-0.018482	-0.081750	0.999997	-0.000314	0.001846	-0.001830
27477	-0.090905	0.041872	9.738659	-0.007794	-0.025655	-0.073551	0.999997	-0.000304	0.001846	-0.001816
27478	-0.108172	0.055095	9.703363	-0.025332	-0.012198	-0.108605	0.999997	-0.000306	0.001843	-0.001827
27479	-0.091063	0.041724	9.738658	-0.007979	-0.025829	-0.073552	0.999997	-0.000309	0.001846	-0.001824
27480	-0.086637	0.069330	9.746866	-0.003379	0.001767	-0.065190	0.999997	-0.000312	0.001843	-0.001829
27481	-0.103763	0.082469	9.711573	-0.020927	0.015213	-0.100244	0.999997	-0.000309	0.001829	-0.001827
27482	-0.093863	0.088698	9.684759	-0.011240	0.021574	-0.127098	0.999997	-0.000310	0.001841	-0.001833
27483	-0.091297	0.041325	9.738658	-0.008342	-0.026203	-0.073553	0.999997	-0.000307	0.001835	-0.001830
27484	-0.108571	0.054477	9.703362	-0.025877	-0.012747	-0.108607	0.999997	-0.000310	0.001839	-0.001833
27485	-0.104117	0.082218	9.711571	-0.021292	0.014845	-0.100245	0.999997	-0.000300	0.001832	-0.001821
27486	-0.086975	0.068966	9.746866	-0.003917	0.001211	-0.065190	0.999997	-0.000302	0.001836	-0.001826
27487	-0.091645	0.041060	9.738655	-0.008700	-0.026566	-0.073554	0.999997	-0.000305	0.001839	-0.001823
27488	-0.104331	0.081881	9.711572	-0.021542	0.014568	-0.100245	0.999997	-0.000310	0.001827	-0.001823
27489	-0.118737	0.047709	9.730176	-0.036096	-0.019669	-0.081756	0.999997	-0.000306	0.001821	-0.001820
27490	-0.118738	0.047623	9.730177	-0.036177	-0.019761	-0.081757	0.999997	-0.000309	0.001818	-0.001826
27491	-0.104397	0.081618	9.711573	-0.021817	0.014290	-0.100245	0.999997	-0.000305	0.001828	-0.001820
27492	-0.114469	0.075419	9.738385	-0.031667	0.007743	-0.073392	0.999997	-0.000289	0.001819	-0.001799
27493	-0.109044	0.054013	9.703360	-0.026677	-0.013573	-0.108611	0.999997	-0.000291	0.001823	-0.001803
27494	-0.156323	0.048164	9.748503	-0.073521	-0.019500	-0.063109	0.999997	-0.000296	0.001825	-0.001794
27495	-0.104884	0.081520	9.711569	-0.022168	0.013926	-0.100245	0.999997	-0.000291	0.001835	-0.001788
27496	-0.105070	0.081574	9.711567	-0.022243	0.013839	-0.100245	0.999997	-0.000281	0.001836	-0.001775
27497	-0.105165	0.081599	9.711565	-0.022341	0.013746	-0.100245	0.999997	-0.000279	0.001836	-0.001755
27498	-0.146874	0.054337	9.721683	-0.064101	-0.013399	-0.089964	0.999997	-0.000285	0.001831	-0.001745
27499	-0.109836	0.053591	9.703353	-0.027206	-0.014116	-0.108613	0.999997	-0.000283	0.001838	-0.001724
27500	-0.120006	0.047167	9.730163	-0.037062	-0.020662	-0.081762	0.999997	-0.000288	0.001841	-0.001712
27501	-0.092924	0.040244	9.738647	-0.009943	-0.027843	-0.073559	0.999997	-0.000272	0.001838	-0.001683
27502	-0.110098	0.053544	9.703350	-0.027468	-0.014382	-0.108614	0.999997	-0.000273	0.001830	-0.001658
27503	-0.088393	0.068049	9.746859	-0.005439	-0.000342	-0.065191	0.999997	-0.000264	0.001829	-0.001637
27504	-0.078515	0.074219	9.720048	0.004253	0.006033	-0.092042	0.999997	-0.000278	0.001831	-0.001619
27505	-0.051617	0.067093	9.728532	0.031371	-0.001149	-0.083837	0.999997	-0.000274	0.001847	-0.001605
27506	-0.100821	0.059410	9.676534	-0.018049	-0.008278	-0.135466	0.999997	-0.000281	0.001856	-0.001578
27507	-0.089195	0.067462	9.746856	-0.005799	-0.000703	-0.065191	0.999997	-0.000280	0.001848	-0.001559
27508	-0.056576	0.039060	9.720317	0.026424	-0.029098	-0.092207	0.999997	-0.000272	0.001847	-0.001531
27509	-0.056690	0.038936	9.720317	0.026326	-0.029191	-0.092207	0.999997	-0.000283	0.001851	-0.001528
27510	-0.061429	0.011003	9.712100	0.021554	-0.056964	-0.100578	0.999997	-0.000281	0.001859	-0.001509
27511	-0.047097	0.044944	9.693506	0.035923	-0.022912	-0.119056	0.999997	-0.000286	0.001861	-0.001498
27512	-0.078936	0.023968	9.676801	0.003941	-0.043593	-0.135633	0.999997	-0.000289	0.001864	-0.001495
27513	-0.057302	0.038385	9.720315	0.025967	-0.029559	-0.092207	0.999997	-0.000289	0.001864	-0.001495
27514	-0.080074	0.073002	9.720044	0.003458	0.005217	-0.092041	0.999997	-0.000294	0.001875	-0.001483
27515	-0.067565	0.031893	9.747123	0.016107	-0.036113	-0.065358	0.999997	-0.000290	0.001869	-0.001480
27516	-0.107536	0.079720	9.711555	-0.023946	0.012131	-0.100247	0.999997	-0.000298	0.001882	-0.001490
27517	-0.107610	0.079641	9.711555	-0.024043	0.012038	-0.100247	0.999997	-0.000289	0.001867	-0.001479
27518	-0.090411	0.066431	9.746852	-0.006688	-0.001596	-0.065192	0.999997	-0.000284	0.001870	-0.001479
27519	-0.080576	0.072676	9.720043	0.002995	0.004775	-0.092041	0.999997	-0.000287	0.001874	-0.001483
27520	-0.117881	0.073334	9.738360	-0.034090	0.005317	-0.073399	0.999997	-0.000274	0.001876	-0.001485
27521	-0.080864	0.072687	9.720040	0.002808	0.004596	-0.092040	0.999997	-0.000277	0.001879	-0.001481
27522	-0.068402	0.031639	9.747118	0.015466	-0.036735	-0.065359	0.999997	-0.000268	0.001885	-0.001508
27523	-0.095601	0.038555	9.738628	-0.011847	-0.029735	-0.073567	0.999997	-0.000271	0.001873	-0.001515
27524	-0.090976	0.066191	9.746849	-0.007243	-0.002145	-0.065192	0.999997	-0.000271	0.001866	-0.001497
27525	-0.108221	0.079371	9.711550	-0.024773	0.011322	-0.100248	0.999997	-0.000270	0.001871	-0.001516
27526	-0.108322	0.079242	9.711550	-0.024849	0.011233	-0.100248	0.999997	-0.000275	0.001867	-0.001514
27527	-0.086628	0.093574	9.755070	-0.002827	0.025259	-0.056817	0.999997	-0.000277	0.001863	-0.001519
27528	-0.108332	0.078997	9.711552	-0.025031	0.011052	-0.100248	0.999997	-0.000274	0.001858	-0.001516
27529	-0.095706	0.037910	9.738629	-0.012390	-0.030282	-0.073569	0.999997	-0.000275	0.001855	-0.001529
27530	-0.112829	0.050946	9.703333	-0.029900	-0.016808	-0.108625	0.999997	-0.000288	0.001844	-0.001529
27531	-0.091200	0.065268	9.746853	-0.007878	-0.002784	-0.065193	0.999997	-0.000283	0.001853	-0.001523
27532	-0.091331	0.065256	9.746852	-0.007954	-0.002865	-0.065193	0.999997	-0.000280	0.001849	-0.001517
27533	-0.101344	0.058799	9.773659	-0.017837	-0.009426	-0.038347	0.999997	-0.000289	0.001846	-0.001531
27534	-0.091543	0.064924	9.746852	-0.008137	-0.003050	-0.065193	0.999997	-0.000290	0.001859	-0.001543
27535	-0.081779	0.071179	9.720044	0.001551	0.003324	-0.092040	0.999997	-0.000286	0.001861	-0.001538
27536	-0.109082	0.078047	9.711551	-0.025738	0.010333	-0.100249	0.999997	-0.000289	0.001865	-0.001535
27537	-0.082076	0.071031	9.720042	0.001377	0.003143	-0.092040	0.999997	-0.000282	0.001868	-0.001545
27538	-0.076705	0.049536	9.685012	0.006393	-0.018159	-0.127264	0.999997	-0.000285	0.001865	-0.001551
27539	-0.082169	0.070890	9.720043	0.001200	0.002958	-0.092039	0.999997	-0.000282	0.001859	-0.001548
27540	-0.096756	0.036895	9.738623	-0.013372	-0.031273	-0.073574	0.999997	-0.000269	0.001861	-0.001549
27541	-0.086899	0.043206	9.711816	-0.003682	-0.024898	-0.100419	0.999997	-0.000273	0.001864	-0.001546
27542	-0.097045	0.036821	9.738620	-0.013558	-0.031460	-0.073574	0.999997	-0.000267	0.001867	-0.001551
27543	-0.111736	0.002698	9.757199	-0.028137	-0.065700	-0.055110	0.999997	-0.000269	0.001870	-0.001555
27544	-0.114524	0.049965	9.703318	-0.031158	-0.018078	-0.108631	0.999997	-0.000264	0.001874	-0.001560
27545	-0.092975	0.064460	9.746841	-0.009141	-0.004063	-0.065195	0.999997	-0.000258	0.001876	-0.001563
27546	-0.087502	0.043009	9.711811	-0.004127	-0.025360	-0.100421	0.999997	-0.000256	0.001864	-0.001561
27547	-0.083059	0.070618	9.720037	0.000468	0.002224	-0.092039	0.999997	-0.000263	0.001877	-0.001572
27548	-0.056156	0.063472	9.728532	0.027589	-0.004967	-0.083827	0.999997	-0.000266	0.001881	-0.001577
27549	-0.087925	0.042770	9.711809	-0.004413	-0.025636	-0.100421	0.999997	-0.000245	0.001875	-0.001587
27550	-0.056304	0.063656	9.728529	0.027413	-0.005151	-0.083827	0.999997	-0.000247	0.001879	-0.001592
27551	-0.083632	0.070477	9.720033	0.000105	0.001858	-0.092039	0.999997	-0.000249	0.001883	-0.001596
27552	-0.120895	0.070991	9.738340	-0.036976	0.002406	-0.073408	0.999997	-0.000251	0.001881	-0.001607
27553	-0.083769	0.070140	9.720034	-0.000072	0.001681	-0.092039	0.999997	-0.000261	0.001877	-0.001613
27554	-0.093964	0.063642	9.746837	-0.009951	-0.004877	-0.065196	0.999997	-0.000260	0.001891	-0.001631
27555	-0.094130	0.063593	9.746836	-0.010050	-0.004970	-0.065196	0.999997	-0.000257	0.001885	-0.001628
27556	-0.061517	0.035055	9.720302	0.022170	-0.033373	-0.092210	0.999997	-0.000266	0.001883	-0.001643
27557	-0.067023	0.056368	9.755334	0.016974	-0.012262	-0.056982	0.999997	-0.000260	0.001879	-0.001655
27558	-0.084265	0.069656	9.720034	-0.000518	0.001228	-0.092039	0.999997	-0.000255	0.001883	-0.001657
27559	-0.088971	0.041784	9.711803	-0.005311	-0.026541	-0.100424	0.999997	-0.000263	0.001888	-0.001670
27560	-0.101726	0.082626	9.684733	-0.018112	0.014622	-0.127096	0.999997	-0.000264	0.001887	-0.001691
27561	-0.084538	0.069240	9.720034	-0.000794	0.000952	-0.092039	0.999997	-0.000266	0.001876	-0.001705
27562	-0.090039	0.090624	9.755067	-0.005973	0.022069	-0.056811	0.999997	-0.000259	0.001881	-0.001715
27563	-0.116438	0.048369	9.703304	-0.032877	-0.019797	-0.108640	0.999997	-0.000259	0.001886	-0.001734
27564	-0.084858	0.069136	9.720032	-0.001059	0.000685	-0.092039	0.999997	-0.000253	0.001882	-0.001746
27565	-0.122198	0.069647	9.738334	-0.038160	0.001226	-0.073413	0.999997	-0.000262	0.001894	-0.001750
27566	-0.107917	0.103513	9.719763	-0.023749	0.035290	-0.091867	0.999997	-0.000265	0.001899	-0.001752
27567	-0.108019	0.103384	9.719763	-0.023847	0.035197	-0.091867	0.999997	-0.000266	0.001896	-0.001765
27568	-0.085419	0.068560	9.720031	-0.001423	0.000327	-0.092039	0.999997	-0.000268	0.001893	-0.001778
27569	-0.090037	0.040755	9.711798	-0.006217	-0.027441	-0.100427	0.999997	-0.000262	0.001896	-0.001781
27570	-0.127286	0.041319	9.730098	-0.043300	-0.026897	-0.081803	0.999997	-0.000265	0.001893	-0.001787
27571	-0.084749	0.019142	9.676763	-0.001294	-0.048826	-0.135658	0.999997	-0.000265	0.001898	-0.001806
27572	-0.100378	0.034097	9.738596	-0.016283	-0.034187	-0.073588	0.999996	-0.000272	0.001898	-0.001835
27573	-0.117644	0.047252	9.703295	-0.033792	-0.020697	-0.108646	0.999996	-0.000267	0.001900	-0.001831
27574	-0.127733	0.040777	9.730094	-0.043669	-0.027256	-0.081806	0.999996	-0.000278	0.001897	-0.001836
27575	-0.096150	0.061447	9.746830	-0.011863	-0.006784	-0.065199	0.999996	-0.000271	0.001901	-0.001847
27576	-0.118955	0.096183	9.746562	-0.034460	0.027910	-0.065026	0.999996	-0.000265	0.001905	-0.001858
27577	-0.103656	0.081066	9.684726	-0.019659	0.013092	-0.127097	0.999996	-0.000263	0.001911	-0.001884
27578	-0.086603	0.067666	9.720027	-0.002337	-0.000578	-0.092039	0.999996	-0.000269	0.001906	-0.001874
27579	-0.113856	0.074474	9.711525	-0.029642	0.006440	-0.100257	0.999996	-0.000268	0.001911	-0.001893
27580	-0.091308	0.039720	9.711790	-0.007223	-0.028434	-0.100431	0.999996	-0.000265	0.001906	-0.001890
27581	-0.114040	0.074277	9.711524	-0.029829	0.006258	-0.100258	0.999996	-0.000273	0.001911	-0.001903
27582	-0.118671	0.046326	9.703287	-0.034615	-0.021501	-0.108650	0.999996	-0.000277	0.001907	-0.001908
27583	-0.107089	0.054322	9.773624	-0.022409	-0.013983	-0.038362	0.999996	-0.000280	0.001910	-0.001905
27584	-0.118838	0.046020	9.703286	-0.034796	-0.021687	-0.108651	0.999996	-0.000283	0.001907	-0.001912
27585	-0.118847	0.045946	9.703286	-0.034894	-0.021780	-0.108652	0.999996	-0.000283	0.001907	-0.001912
27586	-0.104310	0.079924	9.684728	-0.020381	0.012377	-0.127097	0.999996	-0.000288	0.001902	-0.001901
27587	-0.097167	0.060236	9.746827	-0.012875	-0.007781	-0.065201	0.999996	-0.000282	0.001898	-0.001913
27588	-0.114559	0.073469	9.711524	-0.030362	0.005716	-0.100259	0.999996	-0.000283	0.001917	-0.001916
27589	-0.114707	0.073395	9.711523	-0.030460	0.005623	-0.100259	0.999996	-0.000280	0.001904	-0.001914
27590	-0.087538	0.066346	9.720028	-0.003343	-0.001580	-0.092040	0.999996	-0.000284	0.001907	-0.001911
27591	-0.083175	0.093947	9.728268	0.001259	0.025999	-0.083645	0.999996	-0.000286	0.001910	-0.001915
27592	-0.092449	0.038395	9.711785	-0.008232	-0.029432	-0.100435	0.999996	-0.000280	0.001921	-0.001917
27593	-0.092571	0.038370	9.711784	-0.008330	-0.029525	-0.100435	0.999996	-0.000279	0.001913	-0.001899
27594	-0.088106	0.066100	9.720024	-0.003715	-0.001935	-0.092040	0.999996	-0.000273	0.001917	-0.001907
27595	-0.088107	0.066014	9.720025	-0.003813	-0.002028	-0.092040	0.999996	-0.000279	0.001904	-0.001899
27596	-0.102698	0.031834	9.738580	-0.018405	-0.036267	-0.073599	0.999996	-0.000275	0.001914	-0.001894
27597	-0.088378	0.065829	9.720024	-0.003998	-0.002211	-0.092040	0.999996	-0.000278	0.001916	-0.001891
27598	-0.071381	0.052387	9.755326	0.013313	-0.015893	-0.056982	0.999996	-0.000282	0.001919	-0.001887
27599	-0.115861	0.072329	9.711517	-0.031388	0.004724	-0.100262	0.999996	-0.000299	0.001925	-0.001894
27600	-0.088870	0.065154	9.720024	-0.004269	-0.002484	-0.092040	0.999996	-0.000295	0.001927	-0.001890
27601	-0.116158	0.072182	9.711515	-0.031571	0.004541	-0.100262	0.999996	-0.000282	0.001929	-0.001892
27602	-0.099089	0.058904	9.746816	-0.014258	-0.009139	-0.065204	0.999996	-0.000285	0.001925	-0.001896
27603	-0.120756	0.044356	9.703270	-0.036455	-0.023307	-0.108661	0.999996	-0.000282	0.001920	-0.001893
27604	-0.093747	0.037241	9.711777	-0.009339	-0.030509	-0.100439	0.999996	-0.000292	0.001931	-0.001889
27605	-0.116438	0.071839	9.711514	-0.031938	0.004187	-0.100263	0.999996	-0.000283	0.001916	-0.001878
27606	-0.076630	0.023800	9.747079	0.007875	-0.044290	-0.065381	0.999996	-0.000288	0.001918	-0.001868
27607	-0.079370	0.070990	9.693228	0.004891	0.003365	-0.118876	0.999996	-0.000291	0.001921	-0.001864
27608	-0.094960	0.085924	9.755063	-0.010102	0.017980	-0.056806	0.999996	-0.000294	0.001918	-0.001872
27609	-0.089553	0.064354	9.720023	-0.005095	-0.003304	-0.092041	0.999996	-0.000297	0.001921	-0.001869
27610	-0.095054	0.085524	9.755065	-0.010286	0.017800	-0.056806	0.999996	-0.000310	0.001910	-0.001868
27611	-0.094034	0.036211	9.711778	-0.009982	-0.031153	-0.100442	0.999996	-0.000304	0.001905	-0.001880
27612	-0.112212	0.098581	9.719766	-0.027863	0.031223	-0.091864	0.999996	-0.000309	0.001908	-0.001868
27613	-0.095204	0.085191	9.755067	-0.010568	0.017529	-0.056805	0.999996	-0.000305	0.001910	-0.001863
27614	-0.079743	0.070077	9.693232	0.004261	0.002732	-0.118876	0.999996	-0.000303	0.001903	-0.001853
27615	-0.089827	0.063654	9.720025	-0.005646	-0.003841	-0.092041	0.999996	-0.000305	0.001907	-0.001857
27616	-0.122640	0.091894	9.746557	-0.038044	0.024379	-0.065030	0.999996	-0.000307	0.001911	-0.001862
27617	-0.127234	0.064058	9.738308	-0.042846	-0.003383	-0.073433	0.999996	-0.000305	0.001904	-0.001851
27618	-0.090199	0.063340	9.720024	-0.005918	-0.004112	-0.092042	0.999996	-0.000307	0.001916	-0.001854
27619	-0.117577	0.070150	9.711512	-0.033217	0.002918	-0.100267	0.999996	-0.000312	0.001918	-0.001843
27620	-0.090498	0.062935	9.720023	-0.006098	-0.004296	-0.092042	0.999996	-0.000323	0.001914	-0.001842
27621	-0.123126	0.091286	9.746557	-0.038505	0.023922	-0.065031	0.999996	-0.000305	0.001907	-0.001837
27622	-0.100465	0.056615	9.746816	-0.016088	-0.010961	-0.065209	0.999996	-0.000310	0.001902	-0.001828
27623	-0.095025	0.035087	9.711772	-0.011079	-0.032241	-0.100446	0.999996	-0.000307	0.001902	-0.001816
27624	-0.107749	0.076018	9.684722	-0.023844	0.008948	-0.127101	0.999997	-0.000312	0.001905	-0.001804
27625	-0.127914	0.063244	9.738304	-0.043568	-0.004109	-0.073436	0.999997	-0.000310	0.001906	-0.001792
27626	-0.101032	0.056263	9.746812	-0.016457	-0.011325	-0.065210	0.999997	-0.000304	0.001923	-0.001787
27627	-0.112804	0.048055	9.676465	-0.028833	-0.018995	-0.135507	0.999997	-0.000310	0.001910	-0.001778
27628	-0.128172	0.063117	9.738301	-0.043835	-0.004385	-0.073438	0.999997	-0.000297	0.001899	-0.001744
27629	-0.118226	0.069449	9.711510	-0.034118	0.002005	-0.100270	0.999997	-0.000301	0.001909	-0.001732
27630	-0.101361	0.056034	9.746810	-0.016821	-0.011695	-0.065211	0.999997	-0.000299	0.001917	-0.001712
27631	-0.118574	0.069352	9.711506	-0.034304	0.001822	-0.100271	0.999997	-0.000290	0.001908	-0.001693
27632	-0.091445	0.062308	9.720019	-0.007187	-0.005395	-0.092043	0.999997	-0.000297	0.001910	-0.001675
27633	-0.064251	0.055183	9.728532	0.019914	-0.012615	-0.083815	0.999997	-0.000296	0.001894	-0.001658
27634	-0.091515	0.062123	9.720019	-0.007369	-0.005571	-0.092043	0.999997	-0.000291	0.001912	-0.001649
27635	-0.106273	0.028022	9.738553	-0.021990	-0.039815	-0.073620	0.999997	-0.000290	0.001904	-0.001631
27636	-0.031794	0.026726	9.701999	0.051959	-0.041193	-0.110826	0.999997	-0.000281	0.001890	-0.001621
27637	-0.074502	0.048757	9.755321	0.009736	-0.019460	-0.056984	0.999997	-0.000284	0.001900	-0.001616
27638	-0.059289	0.033527	9.693485	0.024580	-0.034245	-0.119054	0.999997	-0.000287	0.001911	-0.001611
27639	-0.086644	0.040416	9.684970	-0.002716	-0.027209	-0.127284	0.999997	-0.000284	0.001912	-0.001599
27640	-0.075055	0.048483	9.755318	0.009479	-0.019729	-0.056984	0.999997	-0.000281	0.001907	-0.001596
27641	-0.096639	0.033952	9.711761	-0.012707	-0.033874	-0.100454	0.999997	-0.000286	0.001894	-0.001595
27642	-0.065010	0.054529	9.728531	0.019117	-0.013435	-0.083815	0.999997	-0.000290	0.001905	-0.001585
27643	-0.092382	0.061359	9.720016	-0.008179	-0.006397	-0.092045	0.999997	-0.000292	0.001908	-0.001590
27644	-0.082462	0.067488	9.693227	0.001564	-0.000001	-0.118874	0.999997	-0.000301	0.001907	-0.001604
27645	-0.065428	0.054105	9.728530	0.018845	-0.013711	-0.083815	0.999997	-0.000289	0.001908	-0.001598
27646	-0.098199	0.082584	9.755060	-0.013550	0.014510	-0.056804	0.999997	-0.000283	0.001912	-0.001610
27647	-0.088278	0.088798	9.728271	-0.003828	0.020902	-0.083633	0.999997	-0.000292	0.001910	-0.001623
27648	-0.102874	0.054581	9.746802	-0.018455	-0.013334	-0.065216	0.999997	-0.000289	0.001904	-0.001619
27649	-0.075866	0.047596	9.755316	0.008644	-0.020559	-0.056985	0.999997	-0.000283	0.001914	-0.001621
27650	-0.065918	0.053945	9.728528	0.018375	-0.014163	-0.083814	0.999997	-0.000277	0.001903	-0.001635
27651	-0.082977	0.067280	9.693224	0.000902	-0.000637	-0.118874	0.999997	-0.000271	0.001899	-0.001646
27652	-0.110143	0.074118	9.684710	-0.026378	0.006407	-0.127106	0.999997	-0.000283	0.001895	-0.001646
27653	-0.103243	0.054273	9.746800	-0.018922	-0.013793	-0.065218	0.999997	-0.000282	0.001908	-0.001664
27654	-0.088841	0.088221	9.728271	-0.004477	0.020269	-0.083632	0.999997	-0.000286	0.001904	-0.001662
27655	-0.110576	0.073720	9.684708	-0.026659	0.006133	-0.127106	0.999997	-0.000281	0.001907	-0.001665
27656	-0.120692	0.067320	9.711494	-0.036555	-0.000439	-0.100279	0.999997	-0.000284	0.001904	-0.001669
27657	-0.120785	0.067093	9.711495	-0.036653	-0.000531	-0.100279	0.999997	-0.000295	0.001907	-0.001667
27658	-0.079281	0.094113	9.701485	0.004985	0.026399	-0.110459	0.999997	-0.000282	0.001917	-0.001667
27659	-0.066954	0.052926	9.728526	0.017549	-0.014982	-0.083814	0.999997	-0.000299	0.001922	-0.001674
27660	-0.094211	0.059710	9.720008	-0.009732	-0.007939	-0.092047	0.999997	-0.000293	0.001919	-0.001687
27661	-0.089666	0.087447	9.728271	-0.005119	0.019632	-0.083631	0.999997	-0.000289	0.001913	-0.001683
27662	-0.104404	0.053313	9.746793	-0.019739	-0.014608	-0.065220	0.999997	-0.000290	0.001926	-0.001694
27663	-0.094544	0.059440	9.720007	-0.010012	-0.008213	-0.092048	0.999997	-0.000301	0.001922	-0.001693
27664	-0.090000	0.087005	9.728272	-0.005383	0.019369	-0.083631	0.999997	-0.000298	0.001917	-0.001688
27665	-0.094684	0.059268	9.720007	-0.010192	-0.008388	-0.092048	0.999997	-0.000292	0.001927	-0.001690
27666	-0.090333	0.086821	9.728270	-0.005555	0.019188	-0.083631	0.999997	-0.000308	0.001928	-0.001712
27667	-0.105007	0.052606	9.746790	-0.020191	-0.015057	-0.065222	0.999997	-0.000298	0.001928	-0.001699
27668	-0.078158	0.045644	9.755308	0.006917	-0.022286	-0.056988	0.999997	-0.000296	0.001949	-0.001716
27669	-0.095524	0.058862	9.720001	-0.010549	-0.008752	-0.092049	0.999997	-0.000299	0.001945	-0.001721
27670	-0.127297	0.037958	9.703214	-0.042543	-0.029359	-0.108702	0.999997	-0.000303	0.001948	-0.001717
27671	-0.095692	0.058556	9.720001	-0.010734	-0.008928	-0.092049	0.999997	-0.000305	0.001944	-0.001722
27672	-0.083213	0.017427	9.747039	0.001832	-0.050309	-0.065408	0.999997	-0.000300	0.001947	-0.001725
27673	-0.096006	0.058519	9.719998	-0.010919	-0.009110	-0.092049	0.999997	-0.000293	0.001958	-0.001735
27674	-0.041938	0.044564	9.737042	0.043392	-0.023477	-0.075578	0.999997	-0.000289	0.001961	-0.001730
27675	-0.086354	0.064654	9.693213	-0.001265	-0.002799	-0.118875	0.999997	-0.000306	0.001966	-0.001736
27676	-0.054777	0.085202	9.710005	0.030565	0.017638	-0.102218	0.999997	-0.000301	0.001963	-0.001747
27677	-0.106482	0.051609	9.746780	-0.021097	-0.015958	-0.065225	0.999997	-0.000314	0.001951	-0.001739
27678	-0.106493	0.051363	9.746781	-0.021185	-0.016042	-0.065226	0.999997	-0.000317	0.001955	-0.001742
27679	-0.092066	0.085377	9.728267	-0.006740	0.018018	-0.083629	0.999997	-0.000311	0.001957	-0.001745
27680	-0.096849	0.057598	9.719995	-0.011539	-0.009726	-0.092051	0.999996	-0.000312	0.001970	-0.001754
27681	-0.069741	0.050403	9.728520	0.015556	-0.016961	-0.083814	0.999996	-0.000324	0.001952	-0.001763
27682	-0.086704	0.063646	9.693216	-0.001903	-0.003405	-0.118875	0.999997	-0.000312	0.001946	-0.001763
27683	-0.079809	0.044099	9.755301	0.005531	-0.023624	-0.056990	0.999996	-0.000302	0.001959	-0.001787
27684	-0.059925	0.056697	9.701737	0.025115	-0.010730	-0.110638	0.999996	-0.000311	0.001958	-0.001801
27685	-0.070152	0.050245	9.728518	0.015186	-0.017316	-0.083814	0.999996	-0.000304	0.001969	-0.001811
27686	-0.092978	0.084985	9.728262	-0.007374	0.017403	-0.083629	0.999996	-0.000300	0.001971	-0.001806
27687	-0.102216	0.029452	9.711718	-0.016901	-0.038012	-0.100476	0.999996	-0.000301	0.001976	-0.001817
27688	-0.103207	0.078446	9.755042	-0.017396	0.010729	-0.056805	0.999996	-0.000305	0.001964	-0.001824
27689	-0.093264	0.084746	9.728261	-0.007661	0.017129	-0.083628	0.999996	-0.000296	0.001976	-0.001841
27690	-0.135093	0.057695	9.738242	-0.049491	-0.009961	-0.073469	0.999996	-0.000291	0.001965	-0.001851
27691	-0.088043	0.063200	9.693207	-0.002731	-0.004211	-0.118876	0.999996	-0.000307	0.001986	-0.001855
27692	-0.071128	0.049762	9.728513	0.014548	-0.017933	-0.083814	0.999996	-0.000293	0.001975	-0.001873
27693	-0.098224	0.056777	9.719986	-0.012742	-0.010881	-0.092053	0.999996	-0.000295	0.001972	-0.001885
27694	-0.135524	0.057214	9.738238	-0.049857	-0.010319	-0.073471	0.999996	-0.000305	0.001977	-0.001891
27695	-0.093908	0.084109	9.728260	-0.008214	0.016596	-0.083628	0.999996	-0.000306	0.001974	-0.001904
27696	-0.071410	0.049273	9.728514	0.014190	-0.018303	-0.083814	0.999996	-0.000307	0.001979	-0.001917
27697	-0.094138	0.083802	9.728261	-0.008383	0.016410	-0.083628	0.999996	-0.000316	0.001977	-0.001931
27698	-0.071564	0.049048	9.728514	0.014014	-0.018480	-0.083814	0.999996	-0.000302	0.001974	-0.001948
27699	-0.094432	0.083661	9.728259	-0.008558	0.016233	-0.083628	0.999996	-0.000317	0.001995	-0.001952
27700	-0.109438	0.049424	9.746758	-0.023197	-0.018016	-0.065234	0.999996	-0.000307	0.002008	-0.001978
27701	-0.094968	0.083391	9.728256	-0.008742	0.016045	-0.083627	0.999996	-0.000320	0.001997	-0.001978
27702	-0.109567	0.049074	9.746758	-0.023382	-0.018194	-0.065235	0.999996	-0.000322	0.002001	-0.001982
27703	-0.095079	0.083017	9.728258	-0.008926	0.015867	-0.083627	0.999996	-0.000325	0.001997	-0.001987
27704	-0.105210	0.076600	9.755035	-0.018849	0.009280	-0.056807	0.999996	-0.000320	0.002000	-0.001991
27705	-0.089794	0.061662	9.693201	-0.003990	-0.005481	-0.118877	0.999996	-0.000305	0.002003	-0.002001
27706	-0.099961	0.055208	9.719978	-0.013915	-0.012064	-0.092056	0.999996	-0.000321	0.002003	-0.002023
27707	-0.094421	0.033720	9.684923	-0.008892	-0.033319	-0.127306	0.999996	-0.000307	0.001991	-0.002042
27708	-0.100088	0.055116	9.719977	-0.014093	-0.012249	-0.092057	0.999996	-0.000310	0.002009	-0.002030
27709	-0.127381	0.061937	9.711445	-0.041380	-0.005191	-0.100299	0.999996	-0.000313	0.001997	-0.002037
27710	-0.090214	0.061173	9.693200	-0.004432	-0.005936	-0.118877	0.999996	-0.000314	0.002002	-0.002049
27711	-0.127509	0.061674	9.711445	-0.041558	-0.005374	-0.100300	0.999996	-0.000317	0.001998	-0.002054
27712	-0.133103	0.082977	9.746500	-0.046768	0.015701	-0.065050	0.999996	-0.000313	0.002001	-0.002049
27713	-0.090455	0.060873	9.693200	-0.004716	-0.006207	-0.118877	0.999996	-0.000317	0.001996	-0.002047
27714	-0.110547	0.048157	9.746752	-0.024472	-0.019285	-0.065239	0.999996	-0.000306	0.001991	-0.002049
27715	-0.096207	0.082114	9.728255	-0.010011	0.014777	-0.083627	0.999996	-0.000322	0.002012	-0.002053
27716	-0.128048	0.061055	9.711441	-0.042008	-0.005820	-0.100302	0.999996	-0.000328	0.001998	-0.002045
27717	-0.090928	0.060346	9.693199	-0.005076	-0.006567	-0.118878	0.999996	-0.000320	0.002010	-0.002055
27718	-0.101211	0.054024	9.719971	-0.015009	-0.013154	-0.092059	0.999996	-0.000315	0.002012	-0.002058
27719	-0.111338	0.047590	9.746746	-0.024949	-0.019745	-0.065241	0.999996	-0.000319	0.002008	-0.002056
27720	-0.091316	0.060144	9.693196	-0.005359	-0.006836	-0.118878	0.999996	-0.000321	0.002011	-0.002060
27721	-0.111571	0.047363	9.746744	-0.025141	-0.019926	-0.065242	0.999996	-0.000317	0.002013	-0.002056
27722	-0.086916	0.087779	9.701479	-0.000819	0.020640	-0.110444	0.999996	-0.000315	0.002000	-0.002054
27723	-0.101409	0.053661	9.719971	-0.015480	-0.013608	-0.092061	0.999996	-0.000311	0.001994	-0.002050
27724	-0.074416	0.046517	9.728505	0.011625	-0.020845	-0.083816	0.999996	-0.000322	0.002006	-0.002045
27725	-0.134380	0.081632	9.746494	-0.047970	0.014529	-0.065054	0.999996	-0.000326	0.002001	-0.002043
27726	-0.074649	0.046203	9.728505	0.011435	-0.021027	-0.083816	0.999996	-0.000321	0.002004	-0.002046
27727	-0.101865	0.053195	9.719969	-0.015849	-0.013964	-0.092062	0.999996	-0.000321	0.002004	-0.002046
27728	-0.114503	0.094200	9.692945	-0.028456	0.027356	-0.118689	0.999996	-0.000324	0.002009	-0.002049
27729	-0.116603	0.018861	9.738457	-0.030498	-0.048203	-0.073681	0.999996	-0.000330	0.002002	-0.002032
27730	-0.091934	0.059267	9.693196	-0.006173	-0.007635	-0.118879	0.999996	-0.000318	0.001996	-0.002035
27731	-0.139426	0.053415	9.738205	-0.053148	-0.013571	-0.073492	0.999996	-0.000334	0.002017	-0.002039
27732	-0.065199	0.052017	9.701730	0.020826	-0.014969	-0.110633	0.999996	-0.000323	0.002004	-0.002042
27733	-0.115003	0.093705	9.692944	-0.028922	0.026908	-0.118689	0.999996	-0.000327	0.002013	-0.002030
27734	-0.075435	0.045616	9.728501	0.010806	-0.021651	-0.083817	0.999996	-0.000316	0.002008	-0.002026
27735	-0.087966	0.086667	9.701479	-0.001910	0.019569	-0.110442	0.999996	-0.000320	0.002003	-0.002024
27736	-0.102633	0.052414	9.719965	-0.016556	-0.014670	-0.092064	0.999996	-0.000324	0.002006	-0.002018
27737	-0.098099	0.079974	9.728254	-0.011932	0.012892	-0.083626	0.999996	-0.000329	0.001994	-0.002017
27738	-0.098090	0.079876	9.728255	-0.012013	0.012800	-0.083626	0.999996	-0.000325	0.001996	-0.002014
27739	-0.112907	0.045634	9.746737	-0.026680	-0.021449	-0.065250	0.999996	-0.000335	0.002008	-0.002011
27740	-0.088421	0.085944	9.701482	-0.002345	0.019116	-0.110441	0.999996	-0.000329	0.002004	-0.002024
27741	-0.113141	0.045407	9.746735	-0.026862	-0.021634	-0.065251	0.999996	-0.000335	0.002005	-0.002005
27742	-0.103204	0.051653	9.719963	-0.017098	-0.015222	-0.092066	0.999996	-0.000331	0.002008	-0.002001
27743	-0.120432	0.064929	9.684653	-0.034531	-0.001653	-0.127130	0.999996	-0.000333	0.002011	-0.002005
27744	-0.109026	0.072793	9.755023	-0.022410	0.005746	-0.056811	0.999996	-0.000338	0.002013	-0.001996
27745	-0.093582	0.057605	9.693190	-0.007533	-0.008997	-0.118881	0.999996	-0.000341	0.002016	-0.001992
27746	-0.093647	0.057599	9.693190	-0.007604	-0.009085	-0.118881	0.999996	-0.000329	0.002011	-0.001995
27747	-0.103784	0.051075	9.719960	-0.017552	-0.015680	-0.092067	0.999996	-0.000349	0.002015	-0.001987
27748	-0.114087	0.044502	9.746729	-0.027489	-0.022269	-0.065254	0.999996	-0.000342	0.002027	-0.001995
27749	-0.089637	0.084954	9.701479	-0.003162	0.018297	-0.110440	0.999996	-0.000339	0.002028	-0.001983
27750	-0.104287	0.050835	9.719956	-0.017823	-0.015950	-0.092068	0.999996	-0.000336	0.002022	-0.001981
27751	-0.099804	0.078461	9.728249	-0.013197	0.011611	-0.083626	0.999996	-0.000340	0.002024	-0.001970
27752	-0.141686	0.051198	9.738184	-0.055040	-0.015471	-0.073506	0.999996	-0.000344	0.002027	-0.001967
27753	-0.131743	0.057532	9.711413	-0.045286	-0.009061	-0.100320	0.999996	-0.000334	0.002027	-0.001954
27754	-0.104647	0.050319	9.719955	-0.018185	-0.016307	-0.092070	0.999996	-0.000357	0.002022	-0.001930
27755	-0.104652	0.050227	9.719955	-0.018282	-0.016399	-0.092070	0.999996	-0.000334	0.002018	-0.001899
27756	-0.110103	0.071671	9.755019	-0.023497	0.004660	-0.056813	0.999996	-0.000341	0.002005	-0.001891
27757	-0.077404	0.043149	9.728497	0.008716	-0.023746	-0.083820	0.999996	-0.000340	0.002004	-0.001864
27758	-0.127223	0.084824	9.719711	-0.041017	0.018148	-0.091878	0.999996	-0.000338	0.002005	-0.001852
27759	-0.104723	0.050103	9.719955	-0.018658	-0.016762	-0.092071	0.999996	-0.000330	0.002004	-0.001824
27760	-0.063124	0.077097	9.710022	0.023017	0.010134	-0.102187	0.999996	-0.000337	0.002012	-0.001799
27761	-0.077913	0.042957	9.728494	0.008339	-0.024116	-0.083820	0.999996	-0.000326	0.002012	-0.001786
27762	-0.072329	0.021572	9.693431	0.013385	-0.045350	-0.119078	0.999996	-0.000329	0.001995	-0.001754
27763	-0.077960	0.042646	9.728495	0.008158	-0.024296	-0.083820	0.999996	-0.000347	0.002014	-0.001743
27764	-0.078184	0.042406	9.728494	0.008066	-0.024383	-0.083821	0.999996	-0.000344	0.002008	-0.001739
27765	-0.082658	0.014490	9.720198	0.003241	-0.052128	-0.092268	0.999996	-0.000358	0.001996	-0.001732
27766	-0.088100	0.035594	9.755265	-0.001973	-0.031067	-0.057010	0.999996	-0.000362	0.001992	-0.001729
27767	-0.109793	0.021161	9.711657	-0.024123	-0.045139	-0.100521	0.999996	-0.000357	0.001994	-0.001732
27768	-0.078319	0.041877	9.728495	0.007701	-0.024742	-0.083821	0.999996	-0.000352	0.002004	-0.001726
27769	-0.046919	0.062597	9.745335	0.039511	-0.004352	-0.067120	0.999996	-0.000346	0.002015	-0.001727
27770	-0.074227	0.069404	9.736792	0.012246	0.002728	-0.075373	0.999996	-0.000364	0.002013	-0.001735
27771	-0.078727	0.041526	9.728494	0.007421	-0.025016	-0.083822	0.999996	-0.000353	0.001999	-0.001739
27772	-0.101433	0.076255	9.728249	-0.015115	0.009716	-0.083627	0.999996	-0.000356	0.002017	-0.001726
27773	-0.084524	0.062806	9.763558	0.002109	-0.004054	-0.048563	0.999996	-0.000351	0.002006	-0.001739
27774	-0.064322	0.075455	9.710027	0.021745	0.008875	-0.102183	0.999996	-0.000354	0.002002	-0.001743
27775	-0.091545	0.082331	9.701484	-0.005533	0.015952	-0.110437	0.999996	-0.000356	0.002006	-0.001747
27776	-0.074655	0.068734	9.736793	0.011704	0.002183	-0.075372	0.999996	-0.000367	0.002010	-0.001746
27777	-0.069231	0.047057	9.701727	0.016737	-0.019053	-0.110632	0.999996	-0.000379	0.002006	-0.001745
27778	-0.073953	0.019284	9.693423	0.011921	-0.046790	-0.119083	0.999996	-0.000363	0.002018	-0.001761
27779	-0.092229	0.081645	9.701483	-0.005899	0.015588	-0.110436	0.999996	-0.000380	0.002023	-0.001767
27780	-0.092247	0.081499	9.701484	-0.005986	0.015501	-0.110436	0.999996	-0.000369	0.002010	-0.001771
27781	-0.129452	0.082155	9.719704	-0.043123	0.016072	-0.091883	0.999996	-0.000371	0.002014	-0.001775
27782	-0.070803	0.095709	9.745097	0.015882	0.029287	-0.066920	0.999996	-0.000373	0.002018	-0.001780
27783	-0.107202	0.047218	9.719943	-0.020853	-0.018933	-0.092080	0.999996	-0.000368	0.002021	-0.001783
27784	-0.065598	0.074224	9.710028	0.020833	0.007962	-0.102180	0.999996	-0.000370	0.002025	-0.001788
27785	-0.102961	0.074904	9.728244	-0.016305	0.008533	-0.083628	0.999996	-0.000356	0.002028	-0.001797
27786	-0.129115	0.032909	9.676324	-0.043169	-0.033166	-0.135599	0.999996	-0.000353	0.002015	-0.001794
27787	-0.070319	0.046365	9.701723	0.015820	-0.019956	-0.110633	0.999996	-0.000371	0.002020	-0.001800
27788	-0.107636	0.046819	9.719940	-0.021305	-0.019381	-0.092082	0.999996	-0.000365	0.002017	-0.001812
27789	-0.065940	0.073881	9.710028	0.020368	0.007511	-0.102179	0.999996	-0.000362	0.002017	-0.001800
27790	-0.103203	0.074517	9.728244	-0.016758	0.008087	-0.083628	0.999996	-0.000362	0.002018	-0.001800
27791	-0.076222	0.067511	9.736790	0.010420	0.000912	-0.075371	0.999996	-0.000356	0.002028	-0.001802
27792	-0.066302	0.073812	9.710026	0.020193	0.007340	-0.102178	0.999996	-0.000359	0.002025	-0.001806
27793	-0.103536	0.074333	9.728242	-0.016947	0.007912	-0.083628	0.999996	-0.000361	0.002021	-0.001819
27794	-0.076416	0.067327	9.736790	0.010147	0.000649	-0.075370	0.999996	-0.000349	0.002016	-0.001821
27795	-0.108247	0.046720	9.719933	-0.021859	-0.019917	-0.092084	0.999996	-0.000341	0.002027	-0.001831
27796	-0.066652	0.073653	9.710025	0.019830	0.006981	-0.102177	0.999996	-0.000353	0.002024	-0.001829
27797	-0.098427	0.052808	9.693170	-0.012176	-0.013584	-0.118891	0.999996	-0.000347	0.002028	-0.001839
27798	-0.086986	0.060804	9.763549	-0.000087	-0.006222	-0.048563	0.999996	-0.000347	0.002028	-0.001839
27799	-0.098667	0.052765	9.693167	-0.012265	-0.013672	-0.118892	0.999996	-0.000348	0.002039	-0.001842
27800	-0.081776	0.039236	9.728478	0.004956	-0.027448	-0.083827	0.999996	-0.000353	0.002035	-0.001840
27801	-0.067226	0.073169	9.710025	0.019456	0.006618	-0.102176	0.999996	-0.000355	0.002038	-0.001844
27802	-0.098982	0.052471	9.693166	-0.012538	-0.013936	-0.118892	0.999996	-0.000343	0.002033	-0.001846
27803	-0.067540	0.073046	9.710023	0.019273	0.006441	-0.102176	0.999996	-0.000359	0.002054	-0.001850
27804	-0.114115	0.018065	9.711613	-0.027310	-0.048278	-0.100545	0.999996	-0.000353	0.002051	-0.001863
27805	-0.115118	0.067095	9.754993	-0.027811	0.000412	-0.056824	0.999996	-0.000354	0.002047	-0.001876
27806	-0.078009	0.066314	9.736784	0.009149	-0.000347	-0.075369	0.999996	-0.000356	0.002052	-0.001881
27807	-0.095174	0.079509	9.701473	-0.008257	0.013251	-0.110435	0.999996	-0.000364	0.002050	-0.001902
27808	-0.109927	0.045316	9.719921	-0.022939	-0.020996	-0.092089	0.999996	-0.000358	0.002055	-0.001913
27809	-0.078432	0.065910	9.736783	0.008872	-0.000622	-0.075369	0.999996	-0.000366	0.002060	-0.001926
27810	-0.083075	0.038133	9.728471	0.004054	-0.028345	-0.083829	0.999996	-0.000355	0.002055	-0.001925
27811	-0.068533	0.072083	9.710024	0.018558	0.005721	-0.102174	0.999996	-0.000372	0.002060	-0.001932
27812	-0.095920	0.078910	9.701470	-0.008703	0.012812	-0.110435	0.999996	-0.000365	0.002072	-0.001941
27813	-0.073507	0.044208	9.701709	0.013642	-0.022108	-0.110634	0.999996	-0.000359	0.002068	-0.001953
27814	-0.079060	0.065500	9.736781	0.008420	-0.001062	-0.075369	0.999996	-0.000362	0.002065	-0.001958
27815	-0.106206	0.072455	9.728228	-0.018852	0.006026	-0.083630	0.999996	-0.000356	0.002061	-0.001970
27816	-0.089264	0.059027	9.763539	-0.001623	-0.007757	-0.048565	0.999996	-0.000357	0.002066	-0.001981
27817	-0.100881	0.050858	9.693155	-0.013888	-0.015287	-0.118896	0.999996	-0.000367	0.002063	-0.001988
27818	-0.106427	0.072136	9.728228	-0.019099	0.005760	-0.083631	0.999996	-0.000355	0.002058	-0.001990
27819	-0.094098	0.031151	9.755224	-0.006628	-0.035676	-0.057027	0.999996	-0.000345	0.002071	-0.002014
27820	-0.106777	0.072148	9.728224	-0.019284	0.005581	-0.083631	0.999996	-0.000357	0.002068	-0.002012
27821	-0.079695	0.064852	9.736780	0.007793	-0.001695	-0.075368	0.999996	-0.000365	0.002067	-0.002034
27822	-0.101328	0.050321	9.693153	-0.014334	-0.015725	-0.118898	0.999996	-0.000368	0.002063	-0.002037
27823	-0.079750	0.064582	9.736782	0.007605	-0.001871	-0.075368	0.999996	-0.000368	0.002063	-0.002037
27824	-0.096727	0.077890	9.701470	-0.009684	0.011832	-0.110434	0.999996	-0.000372	0.002052	-0.002044
27825	-0.106905	0.071462	9.728227	-0.019654	0.005224	-0.083631	0.999996	-0.000364	0.002063	-0.002053
27826	-0.069893	0.070650	9.710025	0.017320	0.004465	-0.102171	0.999996	-0.000380	0.002064	-0.002077
27827	-0.097148	0.077573	9.701469	-0.009951	0.011557	-0.110434	0.999996	-0.000364	0.002067	-0.002093
27828	-0.107327	0.071143	9.728225	-0.019902	0.004952	-0.083632	0.999996	-0.000376	0.002065	-0.002093
27829	-0.107503	0.070934	9.728225	-0.019999	0.004859	-0.083632	0.999996	-0.000376	0.002077	-0.002103
27830	-0.075015	0.042380	9.701706	0.012226	-0.023535	-0.110635	0.999996	-0.000387	0.002074	-0.002107
27831	-0.116789	0.015216	9.711587	-0.029655	-0.050603	-0.100564	0.999996	-0.000376	0.002068	-0.002056
27832	-1.194961	0.427959	9.658774	-1.108162	0.363758	-0.140942	0.999998	-0.000289	0.001978	-0.000090
27833	-1.641904	-0.905527	9.846444	-1.551187	-0.982329	0.041099	0.999987	-0.000198	0.001927	0.004652
27834	-0.892627	-0.488407	9.810988	-0.798926	-0.571470	0.001891	0.999936	-0.000219	0.001855	0.011158
27835	0.259815	0.148877	9.659688	0.339259	0.088652	-0.154723	0.999820	-0.000103	0.001772	0.018899
27836	0.176287	-0.576672	9.531095	0.282539	-0.637151	-0.288003	0.999719	0.000016	0.001656	0.023643
27837	2.132916	1.249824	9.825061	2.154272	1.281358	0.003648	0.999683	-0.000029	0.001763	0.025117
27838	0.443241	0.583192	9.729555	0.498792	0.535793	-0.083095	0.999672	-0.000087	0.001812	0.025531
27839	-0.109238	0.050375	9.719904	-0.025608	-0.023735	-0.092102	0.999673	-0.000080	0.001815	0.025521
27840	-0.098896	0.056200	9.693146	-0.015804	-0.017322	-0.118903	0.999673	-0.000075	0.001811	0.025515
27841	-0.092900	0.083637	9.701460	-0.011159	0.010223	-0.110434	0.999673	-0.000069	0.001814	0.025512
27842	-0.103580	0.077637	9.728216	-0.021112	0.003583	-0.083634	0.999673	-0.000084	0.001828	0.025503
27843	-0.109823	0.049992	9.719899	-0.025942	-0.024158	-0.092104	0.999673	-0.000081	0.001822	0.025506
27844	-0.099304	0.055850	9.693144	-0.016137	-0.017755	-0.118904	0.999673	-0.000068	0.001810	0.025499
27845	-0.109722	0.050032	9.719900	-0.026108	-0.024372	-0.092105	0.999673	-0.000071	0.001813	0.025502
27846	-0.093315	0.083114	9.701460	-0.011562	0.009700	-0.110434	0.999673	-0.000074	0.001810	0.025498
27847	-0.097758	0.104585	9.736534	-0.016794	0.030725	-0.075164	0.999673	-0.000078	0.001813	0.025501
27848	-0.087711	0.062690	9.763531	-0.004329	-0.010754	-0.048568	0.999673	-0.000079	0.001816	0.025500
27849	-0.103989	0.076829	9.728218	-0.021712	0.002859	-0.083635	0.999673	-0.000084	0.001803	0.025501
27850	-0.073094	0.046647	9.701701	0.010531	-0.025571	-0.110639	0.999673	-0.000075	0.001824	0.025490
27851	-0.110363	0.049446	9.719896	-0.026612	-0.024995	-0.092108	0.999674	-0.000063	0.001810	0.025486
27852	-0.099920	0.055227	9.693141	-0.016819	-0.018593	-0.118907	0.999673	-0.000067	0.001812	0.025493
27853	-0.073361	0.046540	9.701699	0.010259	-0.025885	-0.110639	0.999673	-0.000071	0.001814	0.025504
27854	-0.110618	0.049230	9.719894	-0.026866	-0.025344	-0.092109	0.999673	-0.000056	0.001817	0.025497
27855	-0.100326	0.055126	9.693137	-0.017076	-0.018922	-0.118908	0.999673	-0.000051	0.001820	0.025494
27856	-0.090289	0.013329	9.720132	-0.004619	-0.060388	-0.092316	0.999673	-0.000052	0.001824	0.025487
27857	-0.094646	0.082446	9.701453	-0.012515	0.008511	-0.110434	0.999674	-0.000046	0.001834	0.025485
27858	-0.084633	0.040503	9.728448	-0.000038	-0.032979	-0.083843	0.999674	-0.000062	0.001833	0.025472
27859	-0.105414	0.076194	9.728208	-0.022557	0.001760	-0.083637	0.999673	-0.000060	0.001841	0.025493
27860	-0.111525	0.048810	9.719886	-0.027372	-0.026000	-0.092112	0.999674	-0.000047	0.001829	0.025485
27861	-0.095002	0.082104	9.701453	-0.012838	0.008064	-0.110434	0.999673	-0.000042	0.001830	0.025490
27862	-0.105584	0.076227	9.728206	-0.022839	0.001432	-0.083637	0.999674	-0.000044	0.001833	0.025482
27863	-0.105809	0.076165	9.728204	-0.022932	0.001334	-0.083637	0.999673	-0.000039	0.001842	0.025488
27864	-0.079321	0.067654	9.736764	0.004152	-0.005981	-0.075368	0.999673	-0.000034	0.001845	0.025489
27865	-0.095588	0.081799	9.701449	-0.013223	0.007642	-0.110434	0.999673	-0.000046	0.001833	0.025489
27866	-0.068971	0.073211	9.710012	0.013875	0.000344	-0.102164	0.999673	-0.000032	0.001844	0.025488
27867	-0.112317	0.048590	9.719878	-0.028014	-0.026717	-0.092116	0.999674	-0.000026	0.001840	0.025476
27868	-0.089759	0.109102	9.709770	-0.008728	0.034986	-0.101956	0.999674	-0.000037	0.001836	0.025476
27869	-0.079586	0.067200	9.736765	0.003717	-0.006474	-0.075368	0.999674	-0.000032	0.001831	0.025472
27870	-0.106431	0.075640	9.728201	-0.023520	0.000631	-0.083639	0.999674	-0.000035	0.001843	0.025477
27871	-0.122906	0.089884	9.692883	-0.040893	0.014257	-0.118705	0.999674	-0.000031	0.001845	0.025481
27872	-0.112791	0.048049	9.719875	-0.028435	-0.027199	-0.092119	0.999674	-0.000035	0.001841	0.025483
27873	-0.080175	0.066892	9.736762	0.003384	-0.006860	-0.075368	0.999674	-0.000029	0.001851	0.025482
27874	-0.107033	0.075175	9.728198	-0.023864	0.000244	-0.083639	0.999673	-0.000049	0.001848	0.025489
27875	-0.096754	0.080742	9.701447	-0.014068	0.006670	-0.110435	0.999673	-0.000044	0.001858	0.025494
27876	-0.117666	0.069166	9.754949	-0.033924	-0.006475	-0.056845	0.999673	-0.000035	0.001843	0.025505
27877	-0.107193	0.075010	9.728197	-0.024128	-0.000049	-0.083640	0.999673	-0.000031	0.001845	0.025509
27878	-0.096887	0.080809	9.701445	-0.014326	0.006379	-0.110435	0.999673	-0.000027	0.001847	0.025513
27879	-0.113526	0.047555	9.719869	-0.029053	-0.027882	-0.092122	0.999672	-0.000024	0.001848	0.025525
27880	-0.107482	0.074922	9.728195	-0.024383	-0.000335	-0.083641	0.999672	-0.000023	0.001841	0.025544
27881	-0.107518	0.074780	9.728196	-0.024475	-0.000433	-0.083641	0.999672	-0.000029	0.001843	0.025562
27882	-0.113632	0.047301	9.719869	-0.029303	-0.028166	-0.092124	0.999671	-0.000020	0.001836	0.025574
27883	-0.107664	0.074775	9.728194	-0.024649	-0.000627	-0.083641	0.999671	-0.000015	0.001845	0.025579
27884	-0.076824	0.044552	9.701682	0.007581	-0.029035	-0.110646	0.999671	-0.000020	0.001848	0.025591
27885	-0.097499	0.080219	9.701444	-0.014929	0.005709	-0.110435	0.999670	-0.000034	0.001842	0.025607
27886	-0.075223	0.093108	9.745090	0.007014	0.019520	-0.066885	0.999670	-0.000031	0.001844	0.025619
27887	-0.077057	0.044024	9.701682	0.007319	-0.029326	-0.110646	0.999670	-0.000030	0.001844	0.025638
27888	-0.081533	0.065515	9.736761	0.002092	-0.008318	-0.075369	0.999669	-0.000034	0.001847	0.025648
27889	-0.087676	0.037890	9.728432	-0.002748	-0.036053	-0.083854	0.999669	-0.000041	0.001840	0.025665
27890	-0.081526	0.065392	9.736761	0.001923	-0.008510	-0.075369	0.999669	-0.000016	0.001831	0.025679
27891	-0.077214	0.043735	9.701682	0.006975	-0.029717	-0.110647	0.999668	-0.000036	0.001835	0.025688
27892	-0.071552	0.023410	9.763748	0.014277	-0.050075	-0.048788	0.999668	-0.000025	0.001836	0.025701
27893	-0.061238	0.029293	9.736997	0.024077	-0.043647	-0.075581	0.999668	-0.000018	0.001840	0.025690
27894	-0.040506	0.040936	9.683499	0.043781	-0.030683	-0.129165	0.999668	-0.000013	0.001843	0.025687
27895	-0.082069	0.065193	9.736758	0.001486	-0.008993	-0.075369	0.999668	-0.000017	0.001838	0.025690
27896	-0.087875	0.085079	9.674694	-0.005975	0.011178	-0.137228	0.999668	-0.000030	0.001834	0.025698
27897	-0.082068	0.064735	9.736761	0.001308	-0.009185	-0.075369	0.999668	-0.000028	0.001827	0.025709
27898	-0.082157	0.064583	9.736761	0.001231	-0.009279	-0.075370	0.999668	-0.000036	0.001834	0.025696
27899	-0.055491	0.055992	9.745330	0.028302	-0.016587	-0.067094	0.999668	-0.000024	0.001820	0.025692
27900	-0.088048	0.084593	9.674697	-0.006317	0.010799	-0.137228	0.999668	-0.000035	0.001832	0.025696
27901	-0.086779	0.085924	9.771842	-0.004184	0.011539	-0.040090	0.999668	-0.000029	0.001828	0.025684
27902	-0.071932	0.070068	9.710014	0.010778	-0.003131	-0.102161	0.999669	-0.000031	0.001818	0.025670
27903	-0.082314	0.064178	9.736763	0.000789	-0.009758	-0.075370	0.999669	-0.000027	0.001812	0.025673
27904	-0.055706	0.055568	9.745331	0.027875	-0.017062	-0.067094	0.999669	-0.000030	0.001817	0.025670
27905	-0.104896	0.050991	9.693111	-0.021396	-0.023842	-0.118927	0.999669	-0.000021	0.001821	0.025651
27906	-0.119823	0.066603	9.754940	-0.036519	-0.009362	-0.056857	0.999669	-0.000039	0.001820	0.025644
27907	-0.109550	0.072197	9.728192	-0.026714	-0.002930	-0.083647	0.999669	-0.000034	0.001829	0.025649
27908	-0.099267	0.078050	9.701443	-0.016893	0.003512	-0.110438	0.999670	-0.000026	0.001828	0.025623
27909	-0.072672	0.069553	9.710012	0.010177	-0.003799	-0.102160	0.999670	-0.000022	0.001830	0.025628
27910	-0.072815	0.069470	9.710012	0.010098	-0.003894	-0.102160	0.999670	-0.000025	0.001833	0.025631
27911	-0.105657	0.050492	9.693106	-0.021907	-0.024412	-0.118930	0.999670	-0.000022	0.001828	0.025634
27912	-0.083406	0.063575	9.736757	0.000018	-0.010613	-0.075371	0.999670	-0.000015	0.001832	0.025624
27913	-0.110176	0.072041	9.728187	-0.027236	-0.003498	-0.083649	0.999670	-0.000019	0.001827	0.025627
27914	-0.137000	0.080576	9.719614	-0.054476	0.003623	-0.091927	0.999670	-0.000005	0.001837	0.025626
27915	-0.083777	0.063616	9.736754	-0.000246	-0.010904	-0.075371	0.999670	0.000001	0.001833	0.025614
27916	-0.083799	0.063469	9.736755	-0.000321	-0.010993	-0.075371	0.999670	-0.000011	0.001830	0.025616
27917	-0.100281	0.077604	9.701437	-0.017674	0.002656	-0.110439	0.999670	-0.000012	0.001849	0.025614
27918	-0.100525	0.077482	9.701435	-0.017756	0.002557	-0.110439	0.999670	-0.000014	0.001845	0.025608
27919	-0.073773	0.068770	9.710009	0.009312	-0.004757	-0.102160	0.999670	-0.000020	0.001832	0.025616
27920	-0.057472	0.054243	9.745328	0.026491	-0.018603	-0.067093	0.999670	-0.000023	0.001829	0.025610
27921	-0.110862	0.071163	9.728185	-0.027922	-0.004269	-0.083651	0.999670	-0.000026	0.001825	0.025605
27922	-0.063425	0.074273	9.683266	0.018958	0.001485	-0.128948	0.999670	-0.000012	0.001835	0.025604
27923	-0.117266	0.043717	9.719843	-0.032851	-0.032093	-0.092147	0.999671	-0.000021	0.001833	0.025590
27924	-0.084539	0.062308	9.736756	-0.001023	-0.011771	-0.075372	0.999671	-0.000033	0.001829	0.025591
27925	-0.095110	0.056208	9.763501	-0.011019	-0.018403	-0.048585	0.999671	-0.000041	0.001835	0.025578
27926	-0.090936	0.034416	9.728415	-0.005953	-0.039596	-0.083869	0.999671	-0.000043	0.001839	0.025574
27927	-0.074481	0.067583	9.710012	0.008612	-0.005529	-0.102160	0.999671	-0.000038	0.001834	0.025570
27928	-0.084945	0.061694	9.736756	-0.001368	-0.012156	-0.075373	0.999671	-0.000041	0.001831	0.025565
27929	-0.101260	0.075979	9.701439	-0.018715	0.001499	-0.110440	0.999672	-0.000035	0.001834	0.025561
27930	-0.091225	0.034001	9.728414	-0.006298	-0.039977	-0.083871	0.999672	-0.000053	0.001832	0.025554
27931	-0.068694	0.094512	9.718357	0.013022	0.021721	-0.093661	0.999672	-0.000040	0.001834	0.025552
27932	-0.091399	0.033784	9.728413	-0.006477	-0.040171	-0.083872	0.999672	-0.000052	0.001831	0.025553
27933	-0.101572	0.075418	9.701440	-0.019069	0.001117	-0.110441	0.999672	-0.000044	0.001828	0.025534
27934	-0.085452	0.061040	9.736756	-0.001898	-0.012730	-0.075374	0.999673	-0.000045	0.001833	0.025522
27935	-0.085471	0.060980	9.736756	-0.001990	-0.012829	-0.075374	0.999673	-0.000041	0.001820	0.025517
27936	-0.075025	0.066812	9.710013	0.007831	-0.006386	-0.102160	0.999673	-0.000034	0.001824	0.025506
27937	-0.096034	0.055135	9.763498	-0.012074	-0.019555	-0.048589	0.999673	-0.000036	0.001821	0.025494
27938	-0.091718	0.033258	9.728411	-0.007006	-0.040738	-0.083874	0.999673	-0.000054	0.001820	0.025487
27939	-0.075205	0.066261	9.710016	0.007563	-0.006670	-0.102160	0.999673	-0.000050	0.001814	0.025490
27940	-0.079722	0.087873	9.745102	0.002331	0.014328	-0.066874	0.999674	-0.000043	0.001826	0.025480
27941	-0.118739	0.041615	9.719834	-0.034430	-0.033807	-0.092159	0.999674	-0.000037	0.001822	0.025469
27942	-0.106590	0.096387	9.736526	-0.025002	0.021364	-0.075156	0.999674	-0.000040	0.001818	0.025464
27943	-0.081643	0.038697	9.701668	0.002459	-0.034681	-0.110661	0.999674	-0.000042	0.001814	0.025459
27944	-0.112793	0.068686	9.728181	-0.029926	-0.006455	-0.083658	0.999674	-0.000045	0.001819	0.025455
27945	-0.075838	0.065957	9.710013	0.007047	-0.007240	-0.102160	0.999675	-0.000035	0.001824	0.025430
27946	-0.113109	0.068494	9.728178	-0.030097	-0.006649	-0.083659	0.999675	-0.000053	0.001823	0.025422
27947	-0.055318	0.029684	9.710242	0.029277	-0.042288	-0.102379	0.999675	-0.000041	0.001810	0.025417
27948	-0.086303	0.059714	9.736757	-0.003117	-0.014063	-0.075376	0.999675	-0.000053	0.001806	0.025419
27949	-0.107085	0.095457	9.736530	-0.025609	0.020693	-0.075156	0.999676	-0.000053	0.001818	0.025408
27950	-0.108972	0.046332	9.693090	-0.025293	-0.028120	-0.118948	0.999676	-0.000056	0.001815	0.025403
27951	-0.076226	0.065156	9.710015	0.006528	-0.007815	-0.102160	0.999676	-0.000050	0.001811	0.025391
27952	-0.086702	0.059272	9.736756	-0.003468	-0.014446	-0.075376	0.999676	-0.000052	0.001808	0.025386
27953	-0.113342	0.067661	9.728182	-0.030716	-0.007318	-0.083661	0.999676	-0.000054	0.001797	0.025372
27954	-0.113485	0.067414	9.728182	-0.030791	-0.007413	-0.083662	0.999677	-0.000068	0.001813	0.025351
27955	-0.080928	0.086134	9.745108	0.001030	0.012890	-0.066871	0.999677	-0.000062	0.001809	0.025339
27956	-0.103157	0.073154	9.701441	-0.021049	-0.001063	-0.110445	0.999677	-0.000050	0.001796	0.025336
27957	-0.091316	0.080399	9.771848	-0.009052	0.006162	-0.040089	0.999678	-0.000051	0.001801	0.025324
27958	-0.107730	0.094650	9.736531	-0.026381	0.019837	-0.075157	0.999678	-0.000052	0.001806	0.025312
27959	-0.113839	0.067101	9.728180	-0.031232	-0.007889	-0.083664	0.999678	-0.000055	0.001794	0.025306
27960	-0.113796	0.066959	9.728181	-0.031316	-0.007980	-0.083664	0.999678	-0.000057	0.001792	0.025294
27961	-0.107885	0.094330	9.736532	-0.026649	0.019549	-0.075157	0.999678	-0.000051	0.001802	0.025292
27962	-0.087462	0.058183	9.736756	-0.004335	-0.015401	-0.075378	0.999679	-0.000069	0.001801	0.025284
27963	-0.109713	0.044971	9.693088	-0.026427	-0.029357	-0.118955	0.999679	-0.000057	0.001787	0.025280
27964	-0.108093	0.093894	9.736534	-0.026907	0.019266	-0.075157	0.999679	-0.000067	0.001799	0.025284
27965	-0.130585	0.080647	9.692864	-0.048998	0.005312	-0.118734	0.999679	-0.000067	0.001797	0.025263
27966	-0.087716	0.057638	9.736757	-0.004686	-0.015784	-0.075379	0.999679	-0.000070	0.001794	0.025258
27967	-0.114499	0.065942	9.728180	-0.031932	-0.008651	-0.083666	0.999679	-0.000081	0.001797	0.025260
27968	-0.087915	0.057189	9.736757	-0.004856	-0.015973	-0.075379	0.999679	-0.000084	0.001794	0.025255
27969	-0.120659	0.038278	9.719824	-0.036863	-0.036467	-0.092177	0.999679	-0.000074	0.001787	0.025267
27970	-0.114643	0.065589	9.728181	-0.032179	-0.008935	-0.083668	0.999679	-0.000085	0.001791	0.025269
27971	-0.104379	0.071058	9.701443	-0.022355	-0.002491	-0.110448	0.999679	-0.000102	0.001797	0.025263
27972	-0.108877	0.092440	9.736539	-0.027589	0.018499	-0.075157	0.999680	-0.000096	0.001794	0.025251
27973	-0.077823	0.062256	9.710022	0.004628	-0.009916	-0.102160	0.999679	-0.000100	0.001789	0.025253
27974	-0.071814	0.089578	9.718381	0.009310	0.017618	-0.093649	0.999679	-0.000096	0.001791	0.025258
27975	-0.121253	0.037453	9.719820	-0.037374	-0.037041	-0.092181	0.999679	-0.000091	0.001794	0.025255
27976	-0.084187	0.034676	9.701661	-0.000385	-0.037822	-0.110673	0.999679	-0.000095	0.001790	0.025257
27977	-0.078109	0.062090	9.710020	0.004284	-0.010294	-0.102161	0.999680	-0.000081	0.001785	0.025247
27978	-0.115447	0.064860	9.728176	-0.032866	-0.009693	-0.083671	0.999679	-0.000079	0.001801	0.025269
27979	-0.094581	0.076508	9.674703	-0.013121	0.003295	-0.137229	0.999679	-0.000074	0.001782	0.025255
27980	-0.105386	0.022916	9.755131	-0.020563	-0.051286	-0.057116	0.999679	-0.000084	0.001794	0.025259
27981	-0.105304	0.070308	9.701439	-0.023208	-0.003437	-0.110451	0.999679	-0.000088	0.001797	0.025262
27982	-0.078719	0.061637	9.710018	0.003869	-0.010767	-0.102161	0.999680	-0.000089	0.001795	0.025249
27983	-0.089341	0.055745	9.736753	-0.006143	-0.017408	-0.075383	0.999679	-0.000084	0.001804	0.025255
27984	-0.089559	0.055670	9.736751	-0.006226	-0.017498	-0.075383	0.999679	-0.000088	0.001808	0.025259
27985	-0.105874	0.069815	9.701436	-0.023550	-0.003816	-0.110452	0.999679	-0.000098	0.001805	0.025253
27986	-0.079298	0.061155	9.710017	0.003523	-0.011142	-0.102161	0.999680	-0.000092	0.001809	0.025243
27987	-0.089821	0.055302	9.736751	-0.006490	-0.017784	-0.075383	0.999679	-0.000091	0.001802	0.025261
27988	-0.116392	0.063863	9.728171	-0.033721	-0.010641	-0.083674	0.999679	-0.000079	0.001789	0.025257
27989	-0.116447	0.063932	9.728170	-0.033814	-0.010739	-0.083675	0.999679	-0.000074	0.001798	0.025263
27990	-0.079526	0.061169	9.710015	0.003180	-0.011525	-0.102162	0.999679	-0.000076	0.001803	0.025258
27991	-0.079623	0.061031	9.710015	0.003088	-0.011623	-0.102162	0.999679	-0.000079	0.001799	0.025253
27992	-0.084105	0.082468	9.745113	-0.002150	0.009361	-0.066867	0.999680	-0.000081	0.001803	0.025248
27993	-0.084276	0.082338	9.745112	-0.002242	0.009262	-0.066867	0.999680	-0.000083	0.001807	0.025244
27994	-0.100475	0.096598	9.709798	-0.019550	0.022957	-0.101936	0.999679	-0.000083	0.001792	0.025262
27995	-0.106482	0.069179	9.701434	-0.024406	-0.004764	-0.110454	0.999680	-0.000074	0.001790	0.025236
27996	-0.079950	0.060658	9.710014	0.002662	-0.012092	-0.102162	0.999679	-0.000073	0.001798	0.025257
27997	-0.084483	0.082063	9.745113	-0.002589	0.008887	-0.066867	0.999680	-0.000083	0.001796	0.025251
27998	-0.127799	0.057202	9.754899	-0.044512	-0.018131	-0.056902	0.999679	-0.000079	0.001798	0.025256
27999	-0.127857	0.057185	9.754898	-0.044605	-0.018229	-0.056903	0.999679	-0.000075	0.001792	0.025260
28000	-0.111353	0.090488	9.736530	-0.029995	0.015843	-0.075160	0.999679	-0.000064	0.001794	0.025264
28001	-0.117482	0.063133	9.728163	-0.034853	-0.011877	-0.083680	0.999679	-0.000060	0.001788	0.025268
28002	-0.111605	0.090542	9.736526	-0.030164	0.015651	-0.075160	0.999679	-0.000055	0.001806	0.025274
28003	-0.107353	0.068872	9.701427	-0.025095	-0.005522	-0.110456	0.999679	-0.000061	0.001793	0.025283
28004	-0.091206	0.054391	9.736743	-0.007952	-0.019400	-0.075388	0.999679	-0.000056	0.001803	0.025289
28005	-0.101464	0.096082	9.709793	-0.020502	0.021913	-0.101935	0.999678	-0.000062	0.001797	0.025299
28006	-0.091406	0.054105	9.736743	-0.008124	-0.019593	-0.075388	0.999678	-0.000066	0.001800	0.025310
28007	-0.107664	0.068367	9.701427	-0.025439	-0.005900	-0.110457	0.999678	-0.000064	0.001793	0.025321
28008	-0.081030	0.059779	9.710011	0.001631	-0.013239	-0.102163	0.999677	-0.000061	0.001795	0.025332
28009	-0.112214	0.089874	9.736525	-0.030771	0.014980	-0.075161	0.999677	-0.000057	0.001797	0.025337
28010	-0.091577	0.053842	9.736743	-0.008462	-0.019979	-0.075389	0.999677	-0.000060	0.001781	0.025369
28011	-0.048366	0.078468	9.726964	0.033288	0.006848	-0.085346	0.999676	-0.000055	0.001790	0.025374
28012	-0.118487	0.062233	9.728157	-0.035782	-0.012928	-0.083685	0.999676	-0.000060	0.001793	0.025385
28013	-0.081354	0.059522	9.710010	0.001202	-0.013722	-0.102164	0.999675	-0.000045	0.001783	0.025413
28014	-0.085749	0.081098	9.745110	-0.004047	0.007256	-0.066866	0.999675	-0.000050	0.001785	0.025423
28015	-0.108105	0.067887	9.701425	-0.026125	-0.006668	-0.110460	0.999675	-0.000055	0.001779	0.025433
28016	-0.065294	0.044843	9.745327	0.018158	-0.027801	-0.067095	0.999675	-0.000051	0.001782	0.025438
28017	-0.065419	0.044820	9.745326	0.018066	-0.027900	-0.067096	0.999675	-0.000048	0.001783	0.025450
28018	-0.054997	0.050536	9.718595	0.027914	-0.021442	-0.093869	0.999674	-0.000054	0.001778	0.025460
28019	-0.075725	0.086426	9.718380	0.005443	0.013327	-0.093639	0.999674	-0.000046	0.001789	0.025451
28020	-0.065740	0.044594	9.745325	0.017814	-0.028186	-0.067096	0.999674	-0.000048	0.001780	0.025483
28021	-0.092617	0.052963	9.736738	-0.009425	-0.021037	-0.075392	0.999674	-0.000056	0.001800	0.025481
28022	-0.082302	0.058654	9.710007	0.000429	-0.014576	-0.102165	0.999674	-0.000054	0.001788	0.025484
28023	-0.082305	0.058567	9.710008	0.000337	-0.014674	-0.102165	0.999674	-0.000056	0.001792	0.025479
28024	-0.082475	0.058437	9.710007	0.000253	-0.014763	-0.102165	0.999674	-0.000058	0.001796	0.025476
28025	-0.076466	0.085691	9.718380	0.004930	0.012759	-0.093638	0.999674	-0.000062	0.001791	0.025479
28026	-0.093150	0.052239	9.736737	-0.009851	-0.021503	-0.075394	0.999674	-0.000071	0.001797	0.025466
28027	-0.076671	0.085341	9.718382	0.004758	0.012570	-0.093638	0.999674	-0.000067	0.001791	0.025470
28028	-0.098982	0.072185	9.674692	-0.017305	-0.001338	-0.137235	0.999674	-0.000077	0.001790	0.025456
28029	-0.109483	0.066202	9.701422	-0.027330	-0.007987	-0.110464	0.999674	-0.000073	0.001784	0.025460
28030	-0.056227	0.049021	9.718596	0.026879	-0.022582	-0.093868	0.999675	-0.000074	0.001789	0.025448
28031	-0.120155	0.060088	9.728150	-0.037438	-0.014731	-0.083693	0.999675	-0.000085	0.001786	0.025449
28032	-0.083031	0.057136	9.710010	-0.000437	-0.015522	-0.102167	0.999675	-0.000088	0.001782	0.025444
28033	-0.087409	0.078601	9.745116	-0.005694	0.005446	-0.066866	0.999674	-0.000086	0.001776	0.025454
28034	-0.077017	0.084289	9.718388	0.004158	0.011907	-0.093637	0.999675	-0.000094	0.001782	0.025442
28035	-0.103855	0.092804	9.709799	-0.023079	0.019060	-0.101935	0.999675	-0.000081	0.001784	0.025440
28036	-0.072948	0.062697	9.683281	0.009147	-0.009349	-0.128938	0.999675	-0.000084	0.001788	0.025436
28037	-0.110258	0.065360	9.701418	-0.028025	-0.008747	-0.110467	0.999675	-0.000078	0.001791	0.025433
28038	-0.083673	0.056735	9.710007	-0.000965	-0.016092	-0.102168	0.999675	-0.000081	0.001787	0.025428
28039	-0.120828	0.059369	9.728146	-0.038137	-0.015491	-0.083697	0.999675	-0.000077	0.001781	0.025431
28040	-0.099930	0.071044	9.674691	-0.018348	-0.002475	-0.137237	0.999675	-0.000072	0.001784	0.025429
28041	-0.098620	0.072294	9.771840	-0.016335	-0.001870	-0.040096	0.999675	-0.000075	0.001773	0.025422
28042	-0.083702	0.056417	9.710008	-0.001313	-0.016471	-0.102168	0.999675	-0.000078	0.001770	0.025417
28043	-0.110523	0.064907	9.701419	-0.028549	-0.009314	-0.110469	0.999675	-0.000073	0.001779	0.025423
28044	-0.083969	0.056311	9.710007	-0.001491	-0.016658	-0.102169	0.999675	-0.000073	0.001772	0.025442
28045	-0.088439	0.077808	9.745113	-0.006750	0.004306	-0.066866	0.999675	-0.000071	0.001778	0.025415
28046	-0.084240	0.056142	9.710005	-0.001665	-0.016851	-0.102169	0.999675	-0.000074	0.001782	0.025418
28047	-0.078305	0.083401	9.718386	0.003015	0.010668	-0.093635	0.999675	-0.000076	0.001786	0.025414
28048	-0.127815	0.031173	9.719758	-0.043688	-0.043956	-0.092237	0.999675	-0.000080	0.001789	0.025418
28049	-0.089032	0.077251	9.745112	-0.007093	0.003924	-0.066866	0.999675	-0.000084	0.001784	0.025420
28050	-0.090757	0.028130	9.701623	-0.006778	-0.044851	-0.110705	0.999675	-0.000087	0.001781	0.025414
28051	-0.089237	0.076901	9.745113	-0.007265	0.003729	-0.066866	0.999676	-0.000094	0.001794	0.025402
28052	-0.101547	0.021899	9.728346	-0.016890	-0.051598	-0.083938	0.999676	-0.000098	0.001784	0.025396
28053	-0.084960	0.055044	9.710005	-0.002269	-0.017524	-0.102170	0.999676	-0.000095	0.001785	0.025408
28054	-0.068519	0.088206	9.691664	0.012364	0.016554	-0.120402	0.999676	-0.000097	0.001789	0.025403
28055	-0.085281	0.054844	9.710004	-0.002442	-0.017716	-0.102171	0.999676	-0.000098	0.001793	0.025391
28056	-0.058718	0.046156	9.718595	0.024614	-0.025068	-0.093869	0.999676	-0.000101	0.001790	0.025386
28057	-0.085408	0.054573	9.710004	-0.002620	-0.017908	-0.102171	0.999676	-0.000103	0.001786	0.025380
28058	-0.085578	0.054443	9.710003	-0.002703	-0.017999	-0.102171	0.999676	-0.000105	0.001798	0.025378
28059	-0.090136	0.075954	9.745112	-0.007963	0.002961	-0.066866	0.999677	-0.000099	0.001794	0.025366
28060	-0.112528	0.062764	9.701410	-0.030019	-0.010930	-0.110475	0.999677	-0.000116	0.001800	0.025360
28061	-0.106597	0.089935	9.709797	-0.025337	0.016588	-0.101936	0.999676	-0.000113	0.001801	0.025372
28062	-0.090484	0.075520	9.745112	-0.008220	0.002677	-0.066867	0.999677	-0.000107	0.001798	0.025360
28063	-0.112852	0.062478	9.701408	-0.030285	-0.011218	-0.110476	0.999677	-0.000109	0.001801	0.025356
28064	-0.080112	0.081169	9.718390	0.001547	0.009047	-0.093633	0.999677	-0.000113	0.001790	0.025350
28065	-0.096656	0.047693	9.736726	-0.013264	-0.025224	-0.075407	0.999677	-0.000123	0.001787	0.025344
28066	-0.096706	0.047499	9.736726	-0.013344	-0.025317	-0.075407	0.999678	-0.000123	0.001786	0.025323
28067	-0.096560	0.095064	9.683076	-0.015913	0.022578	-0.128702	0.999678	-0.000124	0.001805	0.025322
28068	-0.091020	0.074819	9.745112	-0.008741	0.002109	-0.066867	0.999678	-0.000112	0.001792	0.025318
28069	-0.091032	0.074746	9.745113	-0.008834	0.002010	-0.066867	0.999678	-0.000122	0.001797	0.025313
28070	-0.080658	0.080396	9.718392	0.001029	0.008478	-0.093632	0.999678	-0.000123	0.001794	0.025300
28071	-0.086857	0.052871	9.710001	-0.003838	-0.019234	-0.102174	0.999678	-0.000125	0.001798	0.025296
28072	-0.080859	0.080133	9.718392	0.000859	0.008286	-0.093632	0.999679	-0.000128	0.001795	0.025290
28073	-0.091315	0.074154	9.745115	-0.009179	0.001628	-0.066867	0.999679	-0.000129	0.001785	0.025269
28074	-0.086882	0.052477	9.710003	-0.004090	-0.019521	-0.102175	0.999679	-0.000132	0.001782	0.025263
28075	-0.107569	0.088326	9.709801	-0.026545	0.015259	-0.101937	0.999680	-0.000131	0.001787	0.025244
28076	-0.087088	0.052313	9.710002	-0.004265	-0.019713	-0.102175	0.999680	-0.000128	0.001782	0.025247
28077	-0.087266	0.052195	9.710001	-0.004357	-0.019811	-0.102175	0.999680	-0.000134	0.001796	0.025228
28078	-0.076969	0.057958	9.683279	0.005510	-0.013343	-0.128940	0.999680	-0.000128	0.001793	0.025216
28079	-0.087562	0.052065	9.709999	-0.004530	-0.020002	-0.102176	0.999681	-0.000128	0.001797	0.025204
28080	-0.081510	0.079345	9.718393	0.000166	0.007522	-0.093631	0.999681	-0.000131	0.001787	0.025191
28081	-0.081569	0.079165	9.718394	0.000074	0.007424	-0.093631	0.999682	-0.000138	0.001794	0.025171
28082	-0.081709	0.079006	9.718394	-0.000010	0.007332	-0.093631	0.999682	-0.000138	0.001792	0.025151
28083	-0.087965	0.051562	9.709998	-0.004879	-0.020379	-0.102177	0.999682	-0.000133	0.001801	0.025156
28084	-0.092540	0.072976	9.745112	-0.010130	0.000583	-0.066868	0.999682	-0.000142	0.001800	0.025143
28085	-0.088165	0.051299	9.709997	-0.005051	-0.020566	-0.102177	0.999682	-0.000142	0.001800	0.025143
28086	-0.108850	0.087132	9.709797	-0.027401	0.014320	-0.101938	0.999683	-0.000151	0.001806	0.025131
28087	-0.082361	0.078456	9.718393	-0.000355	0.006955	-0.093631	0.999683	-0.000145	0.001809	0.025128
28088	-0.099082	0.045202	9.736713	-0.015170	-0.027313	-0.075415	0.999682	-0.000141	0.001811	0.025132
28089	-0.152567	0.062250	9.719517	-0.069538	-0.012875	-0.092031	0.999683	-0.000143	0.001815	0.025128
28090	-0.056098	0.069718	9.726989	0.026522	-0.000594	-0.085323	0.999683	-0.000144	0.001813	0.025109
28091	-0.109451	0.086775	9.709794	-0.027846	0.013845	-0.101939	0.999683	-0.000140	0.001807	0.025112
28092	-0.099387	0.044812	9.736712	-0.015525	-0.027684	-0.075417	0.999683	-0.000149	0.001806	0.025100
28093	-0.109562	0.086478	9.709795	-0.028024	0.013662	-0.101939	0.999683	-0.000147	0.001807	0.025112
28094	-0.095137	0.023029	9.701594	-0.010525	-0.048928	-0.110728	0.999683	-0.000149	0.001803	0.025105
28095	-0.125898	0.100668	9.674480	-0.045381	0.027300	-0.137010	0.999683	-0.000151	0.001807	0.025101
28096	-0.083219	0.077632	9.718393	-0.001142	0.006100	-0.093630	0.999683	-0.000146	0.001810	0.025097
28097	-0.099961	0.044317	9.736708	-0.015967	-0.028173	-0.075419	0.999683	-0.000148	0.001814	0.025093
28098	-0.120638	0.080137	9.736510	-0.038405	0.006616	-0.075179	0.999684	-0.000151	0.001811	0.025088
28099	-0.093975	0.071490	9.745109	-0.011361	-0.000753	-0.066869	0.999684	-0.000147	0.001805	0.025091
28100	-0.094145	0.071360	9.745109	-0.011439	-0.000846	-0.066869	0.999684	-0.000155	0.001819	0.025079
28101	-0.116559	0.058325	9.701390	-0.033494	-0.014719	-0.110491	0.999684	-0.000144	0.001812	0.025084
28102	-0.083780	0.077210	9.718391	-0.001658	0.005525	-0.093630	0.999684	-0.000140	0.001807	0.025086
28103	-0.063262	0.041146	9.718589	0.020605	-0.029456	-0.093872	0.999683	-0.000145	0.001809	0.025097
28104	-0.100580	0.043691	9.736705	-0.016567	-0.028838	-0.075422	0.999683	-0.000147	0.001813	0.025094
28105	-0.084117	0.076927	9.718390	-0.001923	0.005239	-0.093630	0.999683	-0.000138	0.001812	0.025114
28106	-0.111253	0.037777	9.763419	-0.026699	-0.035595	-0.048663	0.999683	-0.000141	0.001809	0.025109
28107	-0.090352	0.049360	9.709987	-0.006880	-0.022562	-0.102183	0.999683	-0.000143	0.001813	0.025105
28108	-0.090615	0.049177	9.709986	-0.006958	-0.022652	-0.102183	0.999683	-0.000151	0.001827	0.025094
28109	-0.068525	0.062006	9.753706	0.014910	-0.008981	-0.058559	0.999683	-0.000149	0.001820	0.025105
28110	-0.084809	0.076495	9.718388	-0.002350	0.004767	-0.093630	0.999683	-0.000135	0.001830	0.025104
28111	-0.095513	0.070718	9.745100	-0.012399	-0.001897	-0.066871	0.999683	-0.000131	0.001832	0.025109
28112	-0.091232	0.049172	9.709980	-0.007305	-0.023032	-0.102184	0.999683	-0.000127	0.001834	0.025113
28113	-0.085209	0.076564	9.718384	-0.002615	0.004479	-0.093630	0.999683	-0.000127	0.001834	0.025113
28114	-0.085368	0.076507	9.718383	-0.002606	0.004483	-0.093630	0.999683	-0.000129	0.001846	0.025110
28115	-0.102134	0.043032	9.736692	-0.017438	-0.029791	-0.075426	0.999683	-0.000140	0.001842	0.025111
28116	-0.096073	0.070109	9.745099	-0.012736	-0.002276	-0.066871	0.999683	-0.000152	0.001839	0.025112
28117	-0.081225	0.054346	9.683265	0.002306	-0.016848	-0.128944	0.999683	-0.000140	0.001840	0.025117
28118	-0.091857	0.048560	9.709977	-0.007731	-0.023505	-0.102186	0.999683	-0.000135	0.001844	0.025115
28119	-0.092008	0.048490	9.709976	-0.007823	-0.023603	-0.102186	0.999683	-0.000138	0.001847	0.025119
28120	-0.079971	0.103199	9.726789	0.001664	0.031520	-0.085073	0.999683	-0.000134	0.001849	0.025123
28121	-0.086294	0.075754	9.718381	-0.003211	0.003814	-0.093630	0.999683	-0.000134	0.001861	0.025113
28122	-0.096962	0.069748	9.745093	-0.013248	-0.002845	-0.066872	0.999683	-0.000140	0.001857	0.025123
28123	-0.086465	0.075352	9.718382	-0.003381	0.003626	-0.093630	0.999683	-0.000151	0.001853	0.025124
28124	-0.102680	0.089680	9.683065	-0.020631	0.017379	-0.128701	0.999682	-0.000141	0.001854	0.025137
28125	-0.097156	0.069362	9.745094	-0.013511	-0.003134	-0.066873	0.999682	-0.000144	0.001856	0.025141
28126	-0.102871	0.089567	9.683064	-0.020796	0.017193	-0.128701	0.999682	-0.000141	0.001852	0.025145
28127	-0.097286	0.069166	9.745094	-0.013677	-0.003322	-0.066873	0.999682	-0.000146	0.001854	0.025156
28128	-0.082498	0.053402	9.683260	0.001380	-0.017888	-0.128946	0.999682	-0.000142	0.001856	0.025159
28129	-0.130301	0.050139	9.728075	-0.045768	-0.023844	-0.083747	0.999681	-0.000148	0.001857	0.025178
28130	-0.087182	0.074740	9.718380	-0.003970	0.002962	-0.093630	0.999681	-0.000141	0.001861	0.025168
28131	-0.114298	0.035533	9.763392	-0.028771	-0.037882	-0.048677	0.999681	-0.000147	0.001848	0.025176
28132	-0.113740	0.083082	9.709777	-0.031277	0.010056	-0.101945	0.999681	-0.000147	0.001841	0.025196
28133	-0.113877	0.082901	9.709777	-0.031369	0.009959	-0.101945	0.999681	-0.000157	0.001853	0.025199
28134	-0.087455	0.074190	9.718382	-0.004321	0.002588	-0.093630	0.999681	-0.000152	0.001856	0.025197
28135	-0.087524	0.074098	9.718382	-0.004413	0.002490	-0.093630	0.999681	-0.000157	0.001850	0.025207
28136	-0.067016	0.038011	9.718577	0.017854	-0.032488	-0.093876	0.999680	-0.000155	0.001852	0.025220
28137	-0.098120	0.068060	9.745093	-0.014549	-0.004268	-0.066874	0.999680	-0.000154	0.001844	0.025238
28138	-0.093695	0.046420	9.709970	-0.009457	-0.025396	-0.102192	0.999680	-0.000157	0.001841	0.025233
28139	-0.077778	0.031828	9.745286	0.007618	-0.039348	-0.067121	0.999680	-0.000160	0.001858	0.025246
28140	-0.104082	0.088072	9.683064	-0.022012	0.015875	-0.128701	0.999679	-0.000151	0.001843	0.025257
28141	-0.077855	0.031725	9.745286	0.007442	-0.039538	-0.067122	0.999679	-0.000157	0.001844	0.025276
28142	-0.087942	0.073431	9.718384	-0.005021	0.001833	-0.093630	0.999679	-0.000155	0.001838	0.025287
28143	-0.094097	0.045923	9.709969	-0.009900	-0.025871	-0.102194	0.999678	-0.000160	0.001840	0.025298
28144	-0.088140	0.073145	9.718384	-0.005193	0.001641	-0.093630	0.999678	-0.000164	0.001844	0.025301
28145	-0.061619	0.064463	9.726992	0.021846	-0.005742	-0.085313	0.999678	-0.000161	0.001845	0.025313
28146	-0.067793	0.036981	9.718575	0.016974	-0.033441	-0.093877	0.999678	-0.000164	0.001841	0.025308
28147	-0.051177	0.070149	9.700284	0.031636	0.000638	-0.112066	0.999678	-0.000160	0.001835	0.025311
28148	-0.094412	0.045601	9.709967	-0.010335	-0.026342	-0.102195	0.999678	-0.000142	0.001828	0.025318
28149	-0.094533	0.045665	9.709966	-0.010427	-0.026440	-0.102196	0.999678	-0.000144	0.001838	0.025322
28150	-0.072443	0.058447	9.753700	0.011438	-0.012789	-0.058559	0.999678	-0.000149	0.001834	0.025324
28151	-0.062008	0.064146	9.726992	0.021314	-0.006314	-0.085312	0.999678	-0.000152	0.001837	0.025327
28152	-0.088805	0.072650	9.718382	-0.005896	0.000881	-0.093630	0.999677	-0.000148	0.001839	0.025332
28153	-0.084553	0.051069	9.683255	-0.000807	-0.020248	-0.128950	0.999678	-0.000149	0.001844	0.025320
28154	-0.062321	0.063932	9.726991	0.021060	-0.006597	-0.085312	0.999678	-0.000146	0.001831	0.025323
28155	-0.089033	0.072502	9.718381	-0.006161	0.000592	-0.093630	0.999677	-0.000141	0.001841	0.025328
28156	-0.095380	0.045077	9.709960	-0.011027	-0.027106	-0.102198	0.999678	-0.000141	0.001847	0.025309
28157	-0.095481	0.045038	9.709959	-0.011119	-0.027204	-0.102199	0.999678	-0.000141	0.001847	0.025309
28158	-0.073318	0.057896	9.753696	0.010835	-0.013456	-0.058559	0.999678	-0.000144	0.001850	0.025312
28159	-0.089618	0.072120	9.718378	-0.006416	0.000308	-0.093631	0.999678	-0.000155	0.001854	0.025315
28160	-0.063084	0.063246	9.726991	0.020633	-0.007077	-0.085311	0.999678	-0.000164	0.001853	0.025300
28161	-0.122595	0.052812	9.701347	-0.038505	-0.020200	-0.110520	0.999678	-0.000169	0.001855	0.025311
28162	-0.100453	0.065605	9.745086	-0.016639	-0.006554	-0.066879	0.999678	-0.000169	0.001853	0.025290
28163	-0.096135	0.043946	9.709958	-0.011549	-0.027680	-0.102201	0.999678	-0.000174	0.001855	0.025301
28164	-0.090277	0.071126	9.718379	-0.006847	-0.000169	-0.093631	0.999678	-0.000181	0.001869	0.025289
28165	-0.063842	0.062460	9.726991	0.020189	-0.007558	-0.085310	0.999678	-0.000172	0.001868	0.025310
28166	-0.086120	0.049487	9.683249	-0.001833	-0.021388	-0.128953	0.999678	-0.000176	0.001864	0.025312
