// General information: 
//  MT Manager version: 2021.0.0 
//  XDA version: 2021.0.0 build 5908 rev 109668 built on 2021-04-19
// Device information: 
//  DeviceId: 00B47ACA
//  ProductCode: MTW2-3A7G6
//  Firmware Version: 4.4.0
//  Hardware Version: 2.0.0
// Device settings: 
//  Filter Profile: human(46.1)
//  Option Flags: Orientation Smoother Disabled, Position/Velocity Smoother Disabled, Continuous Zero Rotation Update Disabled, AHS Disabled, ICC Disabled
// Coordinate system: ENU
PacketCounter	Acc_X	Acc_Y	Acc_Z	FreeAcc_E	FreeAcc_N	FreeAcc_U	Quat_q0	Quat_q1	Quat_q2	Quat_q3
01826	0.062862	0.092302	9.895558	0.028696	0.047952	0.083343	0.999999	-0.000974	0.000040	0.000793
01827	0.040328	0.058613	9.864267	0.006249	0.014350	0.051824	0.999999	-0.000974	0.000040	0.000796
01828	0.070424	0.034022	9.924070	0.036178	-0.010481	0.111620	0.999999	-0.000973	0.000040	0.000793
01829	0.038099	0.058501	9.864277	0.004100	0.014213	0.051825	0.999999	-0.000973	0.000048	0.000796
01830	0.006649	0.052228	9.891840	-0.027354	0.007690	0.079252	0.999999	-0.000965	0.000049	0.000800
01831	0.034270	0.057846	9.893531	0.000262	0.013256	0.081063	0.999999	-0.000964	0.000049	0.000796
01832	0.034931	0.058495	9.864288	0.000869	0.014011	0.051826	0.999999	-0.000962	0.000033	0.000808
01833	0.059450	0.062677	9.924478	0.025101	0.017941	0.112119	0.999999	-0.000962	0.000041	0.000804
01834	0.031273	0.057550	9.893542	-0.002977	0.013047	0.081063	0.999999	-0.000976	0.000032	0.000815
01835	0.060510	0.063654	9.866003	0.026332	0.019461	0.053652	0.999999	-0.000976	0.000040	0.000811
01836	0.023324	0.086018	9.893921	-0.010833	0.041641	0.081542	0.999999	-0.000976	0.000047	0.000815
01837	0.049336	0.090896	9.924877	0.015066	0.046411	0.112609	0.999999	-0.000975	0.000040	0.000818
01838	0.055594	0.062804	9.895269	0.021400	0.018441	0.082896	0.999999	-0.000974	0.000040	0.000814
01839	0.027432	0.057735	9.864317	-0.006651	0.013530	0.051825	0.999999	-0.000981	0.000040	0.000818
01840	0.053515	0.062633	9.895281	0.019241	0.018310	0.082901	0.999999	-0.000972	0.000033	0.000822
01841	0.029405	0.028277	9.893198	-0.004794	-0.016167	0.080580	0.999999	-0.000972	0.000041	0.000802
01842	0.024047	0.057563	9.864326	-0.009875	0.013318	0.051822	0.999999	-0.000980	0.000055	0.000806
01843	0.028583	0.028761	9.863962	-0.005216	-0.015477	0.051344	0.999999	-0.000971	0.000049	0.000810
01844	0.018635	0.056132	9.922818	-0.015474	0.011517	0.110289	0.999999	-0.000971	0.000049	0.000814
01845	0.019182	0.056772	9.893578	-0.014826	0.012277	0.081053	0.999999	-0.000970	0.000049	0.000810
01846	0.012407	0.085377	9.893947	-0.021654	0.040927	0.081527	0.999999	-0.000977	0.000048	0.000806
01847	0.049071	0.063586	9.836837	0.015160	0.019506	0.024446	0.999999	-0.000976	0.000040	0.000817
01848	0.044643	0.062134	9.895328	0.010610	0.017777	0.082915	0.999999	-0.000976	0.000056	0.000798
01849	0.060592	0.125210	9.897812	0.026683	0.080873	0.085736	0.999999	-0.000976	0.000064	0.000809
01850	0.065222	0.096427	9.897454	0.031355	0.052085	0.085265	0.999999	-0.000975	0.000056	0.000805
01851	0.038831	0.092015	9.837225	0.005095	0.047960	0.024926	0.999999	-0.000982	0.000055	0.000816
01852	0.076241	0.039498	9.867499	0.042482	-0.004646	0.055093	0.999999	-0.000973	0.000056	0.000813
01853	0.039021	0.061771	9.895354	0.005210	0.017439	0.082920	0.999999	-0.000981	0.000063	0.000816
01854	0.043611	0.032906	9.894996	0.009917	-0.011348	0.082448	0.999999	-0.000981	0.000063	0.000820
01855	0.042519	0.033006	9.895001	0.008844	-0.011414	0.082449	0.999999	-0.000964	0.000065	0.000809
01856	0.012748	0.027389	9.893236	-0.020894	-0.017233	0.080557	0.999999	-0.000964	0.000065	0.000820
01857	0.041892	0.033509	9.865770	0.008462	-0.010711	0.053219	0.999999	-0.000988	0.000078	0.000823
01858	0.004648	0.055671	9.893601	-0.028846	0.011338	0.081023	0.999999	-0.000971	0.000072	0.000820
01859	0.032385	0.061434	9.895380	-0.001261	0.017031	0.082922	0.999999	-0.000977	0.000064	0.000815
01860	0.061662	0.067745	9.867926	0.028093	0.023571	0.055596	0.999999	-0.000977	0.000071	0.000812
01861	0.024390	0.089894	9.895749	-0.009236	0.045605	0.083391	0.999999	-0.000984	0.000071	0.000807
01862	0.050301	0.094802	9.926782	0.016555	0.050475	0.114532	0.999999	-0.000984	0.000071	0.000811
01863	-0.000648	0.055085	9.893606	-0.034236	0.010973	0.081006	0.999999	-0.000999	0.000069	0.000829
01864	0.001664	0.056290	9.835127	-0.031736	0.012576	0.022542	0.999999	-0.000997	0.000070	0.000810
01865	0.027492	0.061275	9.866166	-0.005943	0.017457	0.053690	0.999999	-0.000998	0.000077	0.000822
01866	0.026484	0.061298	9.866168	-0.007015	0.017382	0.053689	0.999999	-0.000988	0.000063	0.000826
01867	0.058233	0.037743	9.896855	0.024610	-0.006430	0.084378	0.999999	-0.000980	0.000072	0.000822
01868	0.028407	0.031991	9.895054	-0.005120	-0.012303	0.082451	0.999999	-0.000980	0.000071	0.000826
01869	0.050189	0.066424	9.897225	0.016603	0.022142	0.084849	0.999999	-0.000979	0.000072	0.000822
01870	0.083589	0.043364	9.898688	0.050025	-0.000810	0.086322	0.999999	-0.000986	0.000071	0.000825
01871	0.015196	0.089802	9.866539	-0.018262	0.045734	0.054149	0.999999	-0.000986	0.000078	0.000821
01872	0.046958	0.066118	9.897243	0.013359	0.021941	0.084855	0.999999	-0.000984	0.000063	0.000832
01873	0.041797	0.095252	9.868368	0.008222	0.051418	0.056092	0.999999	-0.001008	0.000076	0.000851
01874	0.017814	0.060612	9.866192	-0.015628	0.016819	0.053680	0.999999	-0.000991	0.000070	0.000832
01875	0.037905	0.094438	9.897616	0.004239	0.050439	0.085322	0.999999	-0.000999	0.000069	0.000843
01876	0.014015	0.059720	9.895434	-0.019605	0.015829	0.082905	0.999999	-0.001005	0.000069	0.000839
01877	0.039870	0.064684	9.926509	0.006132	0.020760	0.114089	0.999999	-0.001005	0.000069	0.000843
01878	0.013667	0.060253	9.866201	-0.019932	0.016534	0.053673	0.999999	-0.001003	0.000061	0.000838
01879	0.037940	0.064451	9.926518	0.003966	0.020626	0.114090	0.999999	-0.001017	0.000052	0.000842
01880	0.044539	0.036267	9.896932	0.010625	-0.007288	0.084403	0.999999	-0.001016	0.000053	0.000838
01881	0.043604	0.036305	9.896936	0.009550	-0.007354	0.084404	0.999999	-0.001007	0.000038	0.000841
01882	0.071262	0.042012	9.898791	0.037113	-0.001554	0.086379	0.999999	-0.001022	0.000044	0.000852
01883	0.037344	0.065458	9.868064	0.003331	0.022048	0.055639	0.999999	-0.001014	0.000045	0.000856
01884	0.057293	0.099225	9.899514	0.023115	0.055696	0.087306	0.999999	-0.001021	0.000044	0.000860
01885	0.036948	0.065991	9.838837	0.003027	0.022760	0.026414	0.999999	-0.001020	0.000044	0.000863
01886	0.038314	0.035885	9.896959	0.004179	-0.007696	0.084407	0.999999	-0.001011	0.000038	0.000860
01887	0.055848	0.099949	9.870296	0.021717	0.056352	0.058088	0.999999	-0.001004	0.000046	0.000864
01888	0.054615	0.099881	9.870304	0.020634	0.056285	0.058091	0.999999	-0.001012	0.000053	0.000867
01889	0.002151	0.059330	9.866216	-0.031755	0.015733	0.053643	0.999999	-0.001011	0.000046	0.000879
01890	0.056589	0.070288	9.899202	0.022558	0.026619	0.086864	0.999999	-0.001010	0.000054	0.000859
01891	-0.000007	0.059217	9.866216	-0.033902	0.015585	0.053636	0.999999	-0.001009	0.000046	0.000871
01892	0.054424	0.070186	9.899215	0.020395	0.026487	0.086869	0.999999	-0.001009	0.000054	0.000874
01893	0.055042	0.070849	9.869987	0.021190	0.027277	0.057647	0.999999	-0.001008	0.000054	0.000870
01894	0.023461	0.064261	9.897339	-0.010389	0.020433	0.084861	0.999999	-0.001001	0.000062	0.000867
01895	0.056789	0.041392	9.898887	0.023125	-0.002385	0.086422	0.999999	-0.001009	0.000069	0.000870
01896	0.051500	0.070670	9.870008	0.017952	0.027079	0.057654	0.999999	-0.001008	0.000069	0.000866
01897	0.020073	0.064002	9.897348	-0.013630	0.020220	0.084858	0.999999	-0.001007	0.000062	0.000877
01898	0.057294	0.042629	9.840439	0.023674	-0.000872	0.027982	0.999999	-0.001004	0.000054	0.000858
01899	0.019843	0.064710	9.868119	-0.013895	0.020933	0.055632	0.999999	-0.000997	0.000063	0.000870
01900	0.045525	0.069830	9.899262	0.011745	0.025958	0.086885	0.999999	-0.001005	0.000062	0.000873
01901	0.023572	0.035827	9.867780	-0.010047	-0.007879	0.055177	0.999999	-0.001004	0.000062	0.000869
01902	0.014736	0.063731	9.897359	-0.019030	0.019861	0.084850	0.999999	-0.001003	0.000062	0.000865
01903	0.021414	0.035796	9.867785	-0.012193	-0.008021	0.055175	0.999999	-0.000994	0.000063	0.000861
01904	0.041182	0.069699	9.899282	0.007417	0.025686	0.086890	0.999999	-0.000994	0.000063	0.000873
01905	0.013364	0.064443	9.868132	-0.020360	0.020504	0.055622	0.999999	-0.000993	0.000056	0.000869
01906	0.010636	0.063522	9.897366	-0.023348	0.019574	0.084841	0.999999	-0.001007	0.000047	0.000879
01907	0.074688	0.047259	9.871651	0.040731	0.003665	0.059275	0.999999	-0.001006	0.000047	0.000875
01908	0.069449	0.076618	9.842771	0.035544	0.033130	0.030507	0.999999	-0.001005	0.000047	0.000879
01909	0.037935	0.069810	9.870075	0.003942	0.026213	0.057672	0.999999	-0.001013	0.000046	0.000882
01910	0.059489	0.104315	9.872360	0.025420	0.060803	0.060183	0.999999	-0.001012	0.000046	0.000878
01911	0.028045	0.097430	9.899657	-0.006193	0.053874	0.087341	0.999999	-0.001025	0.000037	0.000881
01912	0.067585	0.045924	9.900923	0.033428	0.002488	0.088516	0.999999	-0.001018	0.000046	0.000870
01913	0.062324	0.075361	9.872041	0.028230	0.031950	0.059746	0.999999	-0.001016	0.000039	0.000866
01914	0.038723	0.040596	9.869757	0.004618	-0.002788	0.057228	0.999999	-0.001023	0.000038	0.000869
01915	0.031641	0.069134	9.870102	-0.002520	0.025803	0.057674	0.999999	-0.001023	0.000038	0.000881
01916	0.026948	0.067617	9.928565	-0.007483	0.024000	0.116112	0.999999	-0.001021	0.000031	0.000877
01917	0.035666	0.040296	9.869770	0.001405	-0.002994	0.057229	0.999999	-0.001028	0.000030	0.000880
01918	0.028568	0.068835	9.870114	-0.005748	0.025590	0.057673	0.999999	-0.001027	0.000030	0.000876
01919	0.027489	0.068778	9.870117	-0.006824	0.025522	0.057672	0.999999	-0.001027	0.000030	0.000888
01920	0.030592	0.039319	9.899011	-0.003773	-0.004069	0.086447	0.999999	-0.001026	0.000030	0.000883
01921	0.025404	0.068677	9.870123	-0.008982	0.025383	0.057671	0.999999	-0.001025	0.000023	0.000879
01922	-0.006127	0.061719	9.897381	-0.040608	0.018390	0.084788	0.999999	-0.001040	0.000029	0.000890
01923	0.027390	0.038850	9.899022	-0.006997	-0.004278	0.086445	0.999999	-0.001040	0.000029	0.000894
01924	0.022125	0.068194	9.870135	-0.012211	0.025172	0.057668	0.999999	-0.001039	0.000029	0.000897
01925	0.025310	0.038746	9.899028	-0.009147	-0.004417	0.086444	0.999999	-0.001038	0.000022	0.000893
01926	0.052823	0.044799	9.901018	0.018359	0.001580	0.088556	0.999999	-0.001030	0.000030	0.000890
01927	0.047558	0.074072	9.872133	0.013140	0.031033	0.059780	0.999999	-0.001044	0.000021	0.000893
01928	0.046636	0.073959	9.872138	0.012065	0.030969	0.059782	0.999999	-0.001035	0.000015	0.000897
01929	0.049743	0.044584	9.901035	0.015134	0.001386	0.088561	0.999999	-0.001035	0.000023	0.000893
01930	0.044398	0.073848	9.872149	0.009909	0.030837	0.059785	0.999999	-0.001042	0.000022	0.000896
01931	0.014738	0.067593	9.870153	-0.019745	0.024678	0.057657	0.999999	-0.001049	0.000021	0.000892
01932	0.070918	0.079663	9.874166	0.036327	0.036800	0.061919	0.999999	-0.001040	0.000015	0.000888
01933	0.004724	0.095483	9.899715	-0.030047	0.052301	0.087305	0.999999	-0.001039	0.000015	0.000892
01934	0.032222	0.101563	9.901727	-0.002559	0.058330	0.089441	0.999999	-0.001031	0.000016	0.000896
01935	0.006589	0.066104	9.928609	-0.028060	0.022636	0.116079	0.999999	-0.001032	0.000031	0.000884
01936	0.066490	0.079688	9.874197	0.032009	0.036542	0.061935	0.999999	-0.001029	0.000016	0.000895
01937	0.036847	0.073328	9.872184	0.002361	0.030359	0.059791	0.999999	-0.001053	0.000029	0.000898
01938	0.033787	0.072446	9.901414	-0.000726	0.029412	0.089006	0.999999	-0.001036	0.000023	0.000895
01939	0.040876	0.044660	9.871861	0.006385	0.001586	0.059358	0.999999	-0.001035	0.000016	0.000891
01940	0.037958	0.043869	9.901090	0.003296	0.000637	0.088572	0.999999	-0.001034	0.000016	0.000894
01941	0.065469	0.049839	9.903129	0.030785	0.006709	0.090733	0.999999	-0.001041	0.000015	0.000890
01942	0.029666	0.072332	9.901428	-0.005048	0.029132	0.089006	0.999999	-0.001033	0.000016	0.000894
01943	0.036738	0.044310	9.871879	0.002094	0.001312	0.059359	0.999999	-0.001047	0.000007	0.000905
01944	0.064333	0.050224	9.873927	0.029581	0.007392	0.061529	0.999999	-0.001046	0.000007	0.000901
01945	0.034651	0.044289	9.871887	-0.000053	0.001172	0.059360	0.999999	-0.001022	0.000010	0.000890
01946	0.025398	0.072193	9.901441	-0.009374	0.028850	0.089003	0.999999	-0.001038	0.000016	0.000901
01947	0.032282	0.044080	9.871896	-0.002201	0.001036	0.059359	0.999999	-0.001038	0.000024	0.000897
01948	0.024961	0.072660	9.872226	-0.009495	0.029595	0.059789	0.999999	-0.001037	0.000024	0.000893
01949	0.050510	0.077985	9.903511	0.015938	0.034818	0.091186	0.999999	-0.001037	0.000024	0.000904
01950	0.022802	0.072544	9.872232	-0.011650	0.029453	0.059787	0.999999	-0.001036	0.000024	0.000900
01951	0.048264	0.077875	9.903523	0.013774	0.034684	0.091189	0.999999	-0.001036	0.000032	0.000896
01952	0.020639	0.072433	9.872238	-0.013804	0.029314	0.059785	0.999999	-0.001034	0.000017	0.000907
01953	0.056500	0.050672	9.844765	0.021968	0.007701	0.032343	0.999999	-0.001033	0.000009	0.000903
01954	0.051439	0.049030	9.903216	0.016777	0.005865	0.090767	0.999999	-0.001041	0.000024	0.000906
01955	0.044095	0.077522	9.903546	0.009449	0.034419	0.091195	0.999999	-0.001040	0.000016	0.000918
01956	0.043096	0.077397	9.903551	0.008364	0.034351	0.091197	0.999999	-0.001047	0.000016	0.000921
01957	0.048226	0.048640	9.903234	0.013543	0.005668	0.090772	0.999999	-0.001047	0.000016	0.000917
01958	0.020553	0.043174	9.871931	-0.014006	0.000271	0.059350	0.999999	-0.001046	0.000016	0.000913
01959	0.039929	0.077101	9.903567	0.005120	0.034149	0.091200	0.999999	-0.001052	0.000008	0.000916
01960	0.010282	0.070866	9.901478	-0.024505	0.027852	0.088980	0.999999	-0.001044	0.000017	0.000905
01961	0.045953	0.049211	9.874034	0.011315	0.006286	0.061568	0.999999	-0.001042	0.000009	0.000901
01962	0.010253	0.071454	9.872261	-0.024581	0.028598	0.059766	0.999999	-0.001057	-0.000000	0.000911
01963	0.043990	0.048744	9.874046	0.009167	0.006154	0.061570	0.999999	-0.001064	0.000007	0.000907
01964	-0.020517	0.064906	9.870160	-0.055271	0.022205	0.057528	0.999999	-0.001055	0.000008	0.000896
01965	0.006873	0.071121	9.872267	-0.027812	0.028376	0.059758	0.999999	-0.001056	0.000016	0.000899
01966	0.044859	0.019194	9.902960	0.010147	-0.023554	0.090360	0.999999	-0.001062	0.000007	0.000903
01967	0.037529	0.047759	9.903284	0.002769	0.004987	0.090782	0.999999	-0.001054	0.000016	0.000907
01968	0.009967	0.042330	9.871951	-0.024736	-0.000449	0.059329	0.999999	-0.001052	0.000001	0.000902
01969	0.035443	0.047660	9.903292	0.000617	0.004852	0.090782	0.999999	-0.001061	0.000016	0.000906
01970	0.029884	0.076888	9.874397	-0.004673	0.034277	0.061994	0.999999	-0.001061	0.000023	0.000902
01971	0.063622	0.054453	9.876212	0.029101	0.011881	0.063830	0.999999	-0.001059	0.000016	0.000905
01972	0.025782	0.076019	9.903622	-0.008946	0.033244	0.091200	0.999999	-0.001059	0.000016	0.000909
01973	0.061542	0.054357	9.876226	0.026950	0.011754	0.063836	0.999999	-0.001058	0.000016	0.000913
01974	0.080633	0.088315	9.907904	0.045939	0.045675	0.095727	0.999999	-0.001066	0.000023	0.000916
01975	0.024492	0.076459	9.874416	-0.010067	0.033925	0.061991	0.999999	-0.001064	0.000016	0.000904
01976	0.021458	0.075645	9.903635	-0.013271	0.032955	0.091196	0.999999	-0.001064	0.000016	0.000916
01977	0.022280	0.076111	9.874424	-0.012222	0.033783	0.061989	0.999999	-0.001088	0.000029	0.000919
01978	-0.009427	0.068792	9.901494	-0.043954	0.026504	0.088917	0.999999	-0.001085	0.000022	0.000899
01979	0.028472	0.048021	9.844900	-0.005882	0.005944	0.032367	0.999999	-0.001077	0.000022	0.000911
01980	0.058172	0.024091	9.905177	0.023653	-0.018205	0.092645	0.999999	-0.001084	0.000022	0.000906
01981	0.046506	0.081948	9.876596	0.011981	0.039817	0.064270	0.999999	-0.001084	0.000022	0.000910
01982	0.058071	0.024685	9.875974	0.023647	-0.017438	0.063445	0.999999	-0.001083	0.000022	0.000914
01983	0.022055	0.047014	9.874127	-0.012315	0.004759	0.061568	0.999999	-0.001076	0.000030	0.000918
01984	0.049428	0.053312	9.876300	0.015121	0.011021	0.063862	0.999999	-0.001075	0.000030	0.000929
01985	0.052656	0.023661	9.905209	0.018281	-0.018535	0.092655	0.999999	-0.001097	0.000028	0.000916
01986	0.045252	0.052063	9.905527	0.010812	0.009984	0.093069	0.999999	-0.001089	0.000029	0.000920
01987	0.013418	0.075855	9.845236	-0.020852	0.033964	0.032769	0.999999	-0.001096	0.000029	0.000916
01988	0.043180	0.051817	9.905537	0.008654	0.009846	0.093071	0.999999	-0.001102	0.000020	0.000919
01989	0.044332	0.052405	9.876329	0.009743	0.010683	0.063869	0.999999	-0.001108	0.000012	0.000922
01990	0.019114	0.016515	9.903048	-0.015590	-0.025234	0.090349	0.999999	-0.001115	0.000011	0.000926
01991	0.068662	0.057538	9.907744	0.033928	0.016009	0.095391	0.999999	-0.001123	0.000018	0.000937
01992	0.014673	0.046535	9.844937	-0.019803	0.005015	0.032349	0.999999	-0.001099	0.000013	0.000941
01993	0.033639	0.080856	9.876657	-0.000978	0.038993	0.064281	0.999999	-0.001098	0.000021	0.000922
01994	0.038949	0.052063	9.876353	0.004374	0.010343	0.063873	0.999999	-0.001112	0.000012	0.000932
01995	0.060106	0.086724	9.878871	0.025362	0.045239	0.066611	0.999999	-0.001119	0.000012	0.000928
01996	0.056942	0.085818	9.908091	0.022097	0.044265	0.095815	0.999999	-0.001119	0.000012	0.000932
01997	0.064339	0.057954	9.878577	0.029648	0.016533	0.066211	0.999999	-0.001119	0.000012	0.000943
01998	0.054774	0.085705	9.908104	0.019927	0.044134	0.095820	0.999999	-0.001118	0.000012	0.000946
01999	0.055858	0.086443	9.878898	0.021041	0.044979	0.066622	0.999999	-0.001117	0.000004	0.000950
02000	0.059005	0.057014	9.907810	0.024217	0.015426	0.095420	0.999999	-0.001117	0.000020	0.000946
02001	0.059865	0.057807	9.878606	0.025341	0.016273	0.066223	0.999999	-0.001109	0.000021	0.000950
02002	0.021756	0.079187	9.905903	-0.012898	0.037449	0.093477	0.999999	-0.001116	0.000020	0.000938
02003	0.035622	0.022678	9.876086	0.001172	-0.018849	0.063471	0.999999	-0.001115	0.000020	0.000942
02004	0.032528	0.021697	9.905300	-0.002110	-0.019831	0.092670	0.999999	-0.001129	0.000011	0.000937
02005	-0.003400	0.043773	9.903373	-0.038149	0.002240	0.090709	0.999999	-0.001120	0.000013	0.000933
02006	0.032574	0.022309	9.876097	-0.002035	-0.019056	0.063470	0.999999	-0.001127	0.000012	0.000944
02007	0.018712	0.079342	9.876709	-0.016085	0.038008	0.064271	0.999999	-0.001126	0.000004	0.000947
02008	0.021937	0.049996	9.905616	-0.012894	0.008452	0.093068	0.999999	-0.001118	0.000013	0.000936
02009	0.022973	0.050804	9.876410	-0.011744	0.009298	0.063868	0.999999	-0.001117	0.000006	0.000947
02010	0.048282	0.056216	9.907872	0.013429	0.014760	0.095442	0.999999	-0.001132	0.000012	0.000943
02011	0.049347	0.056805	9.878670	0.014583	0.015611	0.066246	0.999999	-0.001131	0.000004	0.000946
02012	0.039669	0.084603	9.908185	0.004760	0.043185	0.095843	0.999999	-0.001124	0.000013	0.000966
02013	0.073468	0.062384	9.910149	0.038669	0.021023	0.097833	0.999999	-0.001131	0.000012	0.000961
02014	0.041721	0.085917	9.849781	0.007076	0.044884	0.037452	0.999999	-0.001138	0.000011	0.000965
02015	0.044967	0.056503	9.878693	0.010281	0.015341	0.066252	0.999999	-0.001129	0.000013	0.000953
02016	0.035257	0.084297	9.908205	0.000423	0.042907	0.095846	0.999999	-0.001129	0.000012	0.000980
02017	0.036348	0.084806	9.879004	0.001591	0.043759	0.066650	0.999999	-0.001151	0.000010	0.000967
02018	0.041696	0.055958	9.878710	0.007052	0.015133	0.066255	0.999999	-0.001151	0.000018	0.000963
02019	0.069177	0.062366	9.880994	0.034443	0.021559	0.068662	0.999999	-0.001148	0.000003	0.000959
02020	0.037609	0.055010	9.907925	0.002641	0.014074	0.095452	0.999999	-0.001155	0.000002	0.000962
02021	0.032196	0.084244	9.879023	-0.002729	0.043480	0.066651	0.999999	-0.001155	0.000003	0.000958
02022	0.037550	0.055543	9.878729	0.002749	0.014862	0.066258	0.999999	-0.001163	0.000010	0.000961
02023	0.029883	0.084047	9.879032	-0.004890	0.043344	0.066651	0.999999	-0.001154	0.000011	0.000950
02024	0.011248	0.019615	9.905351	-0.023566	-0.021262	0.092639	0.999999	-0.001159	0.000003	0.000938
02025	0.034459	0.055343	9.878742	-0.000477	0.014657	0.066258	0.999999	-0.001158	-0.000004	0.000933
02026	0.004951	0.049040	9.876444	-0.030013	0.008061	0.063831	0.999999	-0.001134	-0.000002	0.000938
02027	0.036673	0.026338	9.907657	0.001671	-0.014954	0.095061	0.999999	-0.001133	-0.000001	0.000926
02028	0.040031	0.027903	9.849251	0.005166	-0.013173	0.036675	0.999999	-0.001131	-0.000009	0.000914
02029	0.036918	0.027079	9.878460	0.001811	-0.014167	0.065868	0.999999	-0.001129	-0.000015	0.000895
02030	0.033723	0.026248	9.907667	-0.001548	-0.015163	0.095061	0.999999	-0.001127	-0.000015	0.000876
02031	0.019531	0.083322	9.908256	-0.015823	0.041851	0.095837	0.999999	-0.001125	-0.000014	0.000841
02032	0.064408	0.034298	9.851585	0.029349	-0.006896	0.039122	0.999999	-0.001124	-0.000014	0.000837
02033	-0.008863	0.077663	9.876736	-0.044137	0.036079	0.064193	0.999999	-0.001108	-0.000019	0.000849
02034	0.080177	0.068076	9.912614	0.044437	0.026216	0.100351	0.999999	-0.001097	-0.000049	0.000867
02035	0.052927	0.062147	9.881095	0.017216	0.020521	0.068709	0.999999	-0.001123	-0.000029	0.000886
02036	0.022983	0.055121	9.878776	-0.012304	0.013883	0.066252	0.999999	-0.001141	-0.000008	0.000912
02037	0.043519	0.089879	9.881406	0.008436	0.048922	0.069098	0.999999	-0.001148	-0.000001	0.000907
02038	0.033499	0.117471	9.910904	-0.001594	0.076452	0.098675	0.999999	-0.001149	0.000006	0.000919
02039	0.043118	0.090524	9.852217	0.008590	0.049717	0.039910	0.999999	-0.001143	0.000030	0.000915
02040	0.046273	0.060953	9.881136	0.011829	0.020183	0.068717	0.999999	-0.001164	0.000020	0.000918
02041	0.045220	0.060670	9.881143	0.010753	0.020118	0.068719	0.999999	-0.001165	0.000028	0.000929
02042	0.044140	0.060615	9.881148	0.009680	0.020050	0.068720	0.999999	-0.001163	0.000021	0.000925
02043	0.034309	0.088227	9.910642	-0.000382	0.047577	0.098293	0.999999	-0.001171	0.000020	0.000928
02044	0.041988	0.060433	9.881158	0.007527	0.019911	0.068722	0.999999	-0.001163	0.000029	0.000932
02045	0.047438	0.031900	9.880876	0.013116	-0.008682	0.068342	0.999999	-0.001163	0.000029	0.000943
02046	0.037434	0.059560	9.910368	0.003035	0.018841	0.097912	0.999999	-0.001163	0.000036	0.000947
02047	0.045054	0.031840	9.880888	0.010971	-0.008813	0.068344	0.999999	-0.001156	0.000045	0.000943
02048	0.037417	0.060411	9.881177	0.003220	0.019639	0.068725	0.999999	-0.001153	0.000030	0.000939
02049	0.007961	0.053782	9.878807	-0.026284	0.012944	0.066226	0.999999	-0.001153	0.000038	0.000935
02050	0.009134	0.054536	9.849609	-0.025008	0.013809	0.037036	0.999999	-0.001152	0.000030	0.000946
02051	0.031993	0.059448	9.910388	-0.002363	0.018496	0.097913	0.999999	-0.001152	0.000039	0.000927
02052	0.030912	0.059328	9.910392	-0.003440	0.018422	0.097913	0.999999	-0.001157	0.000031	0.000922
02053	0.012572	0.025623	9.849331	-0.021520	-0.014930	0.036650	0.999999	-0.001165	0.000038	0.000918
02054	0.059396	0.066419	9.883593	0.025183	0.025874	0.071241	0.999999	-0.001164	0.000038	0.000914
02055	0.027530	0.058931	9.910405	-0.006680	0.018213	0.097912	0.999999	-0.001164	0.000046	0.000910
02056	0.063745	0.037775	9.883326	0.029744	-0.002768	0.070871	0.999999	-0.001164	0.000046	0.000921
02057	0.055860	0.066153	9.883615	0.021951	0.025682	0.071249	0.999999	-0.001173	0.000060	0.000924
02058	0.052443	0.096168	9.825511	0.018903	0.056018	0.013256	0.999999	-0.001173	0.000068	0.000920
02059	0.051040	0.065189	9.912827	0.017423	0.024610	0.100439	0.999999	-0.001166	0.000077	0.000924
02060	0.047758	0.095366	9.854719	0.014375	0.054944	0.042445	0.999999	-0.001165	0.000077	0.000928
02061	0.042108	0.093597	9.913117	0.008528	0.052988	0.100816	0.999999	-0.001172	0.000077	0.000923
02062	0.014893	0.087573	9.881511	-0.018578	0.047179	0.069093	0.999999	-0.001179	0.000076	0.000919
02063	0.048873	0.065492	9.883657	0.015498	0.025293	0.071263	0.999999	-0.001187	0.000084	0.000914
02064	0.019142	0.058694	9.881240	-0.013984	0.018525	0.068718	0.999999	-0.001187	0.000099	0.000895
02065	0.046261	0.065276	9.883671	0.013346	0.025156	0.071266	0.999999	-0.001187	0.000107	0.000907
02066	0.016823	0.058636	9.881244	-0.016136	0.018385	0.068715	0.999999	-0.001178	0.000093	0.000910
02067	0.048707	0.036075	9.912598	0.015556	-0.004427	0.100082	0.999999	-0.001169	0.000094	0.000907
02068	0.021495	0.030328	9.880972	-0.011514	-0.010258	0.068342	0.999999	-0.001161	0.000096	0.000903
02069	0.048822	0.037101	9.883414	0.015815	-0.003610	0.070903	0.999999	-0.001153	0.000097	0.000907
02070	0.012522	0.058866	9.881249	-0.020435	0.018099	0.068707	0.999999	-0.001161	0.000104	0.000910
02071	0.046584	0.037061	9.883424	0.013672	-0.003742	0.070906	0.999999	-0.001144	0.000098	0.000906
02072	0.045565	0.037164	9.883429	0.012603	-0.003814	0.070908	0.999999	-0.001144	0.000098	0.000918
02073	0.037623	0.065373	9.883707	0.004737	0.024616	0.071275	0.999999	-0.001168	0.000111	0.000920
02074	0.045634	0.037487	9.854248	0.012883	-0.002996	0.041729	0.999999	-0.001158	0.000097	0.000924
02075	0.033211	0.064372	9.912908	0.000158	0.023525	0.100457	0.999999	-0.001157	0.000105	0.000913
02076	0.055963	0.100349	9.886453	0.023093	0.059651	0.074226	0.999999	-0.001158	0.000113	0.000916
02077	0.000066	0.056695	9.939642	-0.032822	0.015677	0.127050	0.999999	-0.001157	0.000113	0.000912
02078	0.060466	0.071814	9.886197	0.027744	0.031027	0.073868	0.999999	-0.001148	0.000115	0.000908
02079	0.030956	0.065193	9.883731	-0.001722	0.024200	0.071277	0.999999	-0.001140	0.000116	0.000905
02080	0.064997	0.043208	9.885944	0.032414	0.002406	0.073511	0.999999	-0.001163	0.000121	0.000907
02081	0.021834	0.093178	9.884009	-0.010706	0.052544	0.071639	0.999999	-0.001164	0.000129	0.000918
02082	0.027597	0.064707	9.883744	-0.004950	0.023987	0.071277	0.999999	-0.001153	0.000115	0.000907
02083	0.029001	0.065656	9.854556	-0.003577	0.024876	0.042098	0.999999	-0.001145	0.000116	0.000911
02084	0.025629	0.064851	9.883749	-0.007104	0.023846	0.071276	0.999999	-0.001143	0.000109	0.000907
02085	0.053029	0.071482	9.886242	0.020198	0.030568	0.073888	0.999999	-0.001150	0.000108	0.000910
02086	0.058832	0.042870	9.885984	0.025972	0.002015	0.073530	0.999999	-0.001148	0.000101	0.000906
02087	0.050869	0.071309	9.886255	0.018040	0.030432	0.073892	0.999999	-0.001149	0.000116	0.000902
02088	0.028200	0.036003	9.883498	-0.004551	-0.004921	0.070914	0.999999	-0.001147	0.000101	0.000897
02089	0.048773	0.071222	9.886266	0.015882	0.030298	0.073896	0.999999	-0.001147	0.000109	0.000893
02090	0.026137	0.035753	9.883505	-0.006697	-0.005062	0.070913	0.999999	-0.001161	0.000100	0.000904
02091	0.046718	0.070822	9.886279	0.013724	0.030163	0.073900	0.999999	-0.001160	0.000100	0.000899
02092	0.052472	0.042211	9.886023	0.019527	0.001620	0.073545	0.999999	-0.001167	0.000100	0.000895
02093	0.013869	0.062952	9.912963	-0.019280	0.022238	0.100441	0.999999	-0.001165	0.000092	0.000898
02094	0.024473	0.036100	9.854329	-0.008503	-0.004378	0.041733	0.999999	-0.001164	0.000093	0.000894
02095	0.040074	0.069710	9.915487	0.006925	0.028930	0.103081	0.999999	-0.001157	0.000101	0.000898
02096	0.048147	0.042081	9.886045	0.015230	0.001354	0.073553	0.999999	-0.001156	0.000102	0.000894
02097	0.014304	0.064553	9.854595	-0.018618	0.023880	0.042083	0.999999	-0.001155	0.000094	0.000905
02098	0.039140	0.070381	9.886315	0.006173	0.029687	0.073909	0.999999	-0.001163	0.000109	0.000893
02099	0.037990	0.070245	9.886320	0.005095	0.029620	0.073910	0.999999	-0.001162	0.000101	0.000904
02100	0.039382	0.071112	9.857138	0.006518	0.030518	0.044737	0.999999	-0.001154	0.000102	0.000908
02101	0.064261	0.077114	9.888868	0.031295	0.036345	0.076573	0.999999	-0.001153	0.000103	0.000904
02102	0.039262	0.040918	9.915261	0.006278	-0.000022	0.102734	0.999999	-0.001152	0.000103	0.000900
02103	0.033798	0.070120	9.886336	0.000781	0.029344	0.073912	0.999999	-0.001159	0.000095	0.000903
02104	0.063656	0.077765	9.859704	0.030568	0.037121	0.047411	0.999999	-0.001150	0.000088	0.000907
02105	0.038663	0.041628	9.886089	0.005564	0.000745	0.073563	0.999999	-0.001150	0.000096	0.000902
02106	0.030691	0.070044	9.886347	-0.002456	0.029134	0.073912	0.999999	-0.001149	0.000089	0.000914
02107	0.036507	0.041514	9.886098	0.003416	0.000607	0.073564	0.999999	-0.001149	0.000097	0.000909
02108	0.026095	0.069084	9.915538	-0.007141	0.028020	0.103083	0.999999	-0.001147	0.000089	0.000913
02109	0.029873	0.070726	9.857174	-0.003165	0.029898	0.044740	0.999999	-0.001147	0.000097	0.000909
02110	0.030833	0.040504	9.915293	-0.002342	-0.000578	0.102736	0.999999	-0.001146	0.000089	0.000912
02111	0.025284	0.069689	9.886365	-0.007852	0.028782	0.073910	0.999999	-0.001154	0.000096	0.000915
02112	0.026576	0.070401	9.857186	-0.006394	0.029685	0.044739	0.999999	-0.001153	0.000097	0.000911
02113	0.029902	0.041017	9.886122	-0.003033	0.000188	0.073564	0.999999	-0.001154	0.000104	0.000922
02114	0.019364	0.068634	9.915556	-0.013632	0.027588	0.103078	0.999999	-0.001145	0.000105	0.000926
02115	0.058465	0.048776	9.859530	0.025704	0.007949	0.047100	0.999999	-0.001145	0.000106	0.000930
02116	0.026492	0.041049	9.886131	-0.006254	-0.000026	0.073563	0.999999	-0.001137	0.000114	0.000926
02117	0.053611	0.047943	9.888725	0.021007	0.006840	0.076274	0.999999	-0.001138	0.000122	0.000937
02118	0.017155	0.069440	9.886384	-0.015404	0.028277	0.073903	0.999999	-0.001137	0.000122	0.000933
02119	0.023015	0.040999	9.886140	-0.009478	-0.000239	0.073560	0.999999	-0.001129	0.000123	0.000937
02120	0.036314	0.104613	9.889234	0.003759	0.063524	0.076962	0.999999	-0.001151	0.000129	0.000924
02121	0.018203	0.039634	9.915327	-0.014191	-0.001364	0.102726	0.999999	-0.001152	0.000136	0.000935
02122	0.069178	0.082704	9.891610	0.036936	0.041902	0.079352	0.999999	-0.001152	0.000144	0.000931
02123	0.011482	0.068742	9.886397	-0.020798	0.027915	0.073894	0.999999	-0.001158	0.000128	0.000942
02124	0.048362	0.047952	9.859589	0.014985	0.004096	0.047124	0.999999	-0.000992	0.000074	0.000817
02125	0.000017	0.096155	9.915823	-0.033623	0.051960	0.103408	0.999999	-0.000992	0.000074	0.000821
02126	0.046208	0.047846	9.859600	0.012840	0.003959	0.047127	0.999999	-0.000991	0.000075	0.000816
02127	0.035557	0.075532	9.889025	0.002147	0.031335	0.076640	0.999999	-0.000975	0.000085	0.000805
02128	0.041372	0.047170	9.888787	0.008106	0.002826	0.076295	0.999999	-0.000975	0.000085	0.000816
02129	0.042799	0.047896	9.859615	0.009622	0.003752	0.047131	0.999999	-0.000982	0.000084	0.000819
02130	0.036805	0.046063	9.917974	0.003359	0.001688	0.105462	0.999999	-0.000979	0.000077	0.000800
02131	0.031204	0.075399	9.889040	-0.002174	0.031049	0.076641	0.999999	-0.000972	0.000086	0.000804
02132	0.011302	0.040796	9.856991	-0.021912	-0.003453	0.044369	0.999999	-0.000978	0.000077	0.000807
02133	0.036221	0.046709	9.888810	0.002726	0.002475	0.076298	0.999999	-0.000984	0.000069	0.000810
02134	0.006892	0.039618	9.886170	-0.026662	-0.004600	0.073528	0.999999	-0.000983	0.000069	0.000805
02135	0.034228	0.046470	9.888818	0.000575	0.002333	0.076299	0.999999	-0.000989	0.000061	0.000808
02136	0.026051	0.074772	9.889060	-0.007575	0.030690	0.076639	0.999999	-0.000990	0.000076	0.000804
02137	0.053221	0.081690	9.891717	0.019653	0.037635	0.079419	0.999999	-0.000989	0.000069	0.000815
02138	0.030845	0.046215	9.888830	-0.002652	0.002118	0.076299	0.999999	-0.000988	0.000077	0.000796
02139	0.027229	0.045372	9.918009	-0.006350	0.001046	0.105460	0.999999	-0.000979	0.000070	0.000807
02140	0.057066	0.053260	9.891499	0.023500	0.009005	0.079088	0.999999	-0.000979	0.000070	0.000810
02141	0.018004	0.073761	9.918249	-0.015606	0.029323	0.105796	0.999999	-0.000979	0.000078	0.000814
02142	0.054830	0.053143	9.891512	0.021345	0.008870	0.079093	0.999999	-0.000977	0.000071	0.000817
02143	0.046611	0.081516	9.891752	0.013161	0.037223	0.079431	0.999999	-0.000978	0.000086	0.000813
02144	0.024124	0.045995	9.888850	-0.009108	0.001684	0.076295	0.999999	-0.000978	0.000086	0.000824
02145	0.051391	0.052728	9.891533	0.018113	0.008666	0.079099	0.999999	-0.001000	0.000084	0.000826
02146	0.053022	0.053422	9.862366	0.019678	0.009602	0.049941	0.999999	-0.000989	0.000070	0.000814
02147	0.042378	0.081014	9.891775	0.008832	0.036944	0.079437	0.999999	-0.000990	0.000078	0.000818
02148	0.041141	0.080943	9.891781	0.007751	0.036872	0.079438	0.999999	-0.000990	0.000085	0.000814
02149	0.021314	0.046290	9.859692	-0.011834	0.002327	0.047129	0.999999	-0.000989	0.000086	0.000817
02150	0.045988	0.052400	9.891561	0.012729	0.008320	0.079108	0.999999	-0.000988	0.000086	0.000821
02151	0.016682	0.045235	9.888869	-0.016636	0.001172	0.076285	0.999999	-0.000994	0.000078	0.000816
02152	0.046623	0.053125	9.862399	0.013234	0.009190	0.049952	0.999999	-0.000985	0.000071	0.000819
02153	0.033293	0.079817	9.920974	-0.000322	0.035510	0.108600	0.999999	-0.000985	0.000079	0.000815
02154	0.013515	0.045074	9.888875	-0.019865	0.000948	0.076279	0.999999	-0.000992	0.000078	0.000818
02155	0.040748	0.052004	9.891586	0.007342	0.007973	0.079114	0.999999	-0.000991	0.000078	0.000821
02156	0.039741	0.051961	9.891591	0.006264	0.007900	0.079114	0.999999	-0.000989	0.000071	0.000817
02157	0.038668	0.051833	9.891595	0.005187	0.007831	0.079115	0.999999	-0.000997	0.000078	0.000820
02158	0.058614	0.087181	9.894546	0.025212	0.043273	0.082289	0.999999	-0.000997	0.000086	0.000816
02159	0.036371	0.051562	9.891606	0.003033	0.007690	0.079116	0.999999	-0.001003	0.000078	0.000811
02160	0.002596	0.073726	9.859940	-0.030819	0.029912	0.047435	0.999999	-0.000994	0.000071	0.000830
02161	0.027361	0.079964	9.891836	-0.006311	0.035946	0.079443	0.999999	-0.000992	0.000064	0.000826
02162	0.061732	0.058450	9.894348	0.028074	0.014605	0.081975	0.999999	-0.001008	0.000070	0.000821
02163	0.034973	0.052033	9.862453	0.001420	0.008423	0.049962	0.999999	-0.001006	0.000062	0.000824
02164	0.052492	0.086693	9.894585	0.018716	0.042867	0.082306	0.999999	-0.000997	0.000064	0.000820
02165	0.058568	0.058231	9.894369	0.024841	0.014405	0.081984	0.999999	-0.001005	0.000063	0.000831
02166	0.022119	0.079400	9.891854	-0.011714	0.035583	0.079439	0.999999	-0.001003	0.000055	0.000834
02167	0.046784	0.085587	9.923770	0.012762	0.041643	0.111466	0.999999	-0.001002	0.000056	0.000830
02168	0.029757	0.051554	9.862473	-0.003946	0.008065	0.049961	0.999999	-0.001024	0.000061	0.000817
02169	0.018761	0.078772	9.891866	-0.014958	0.035364	0.079435	0.999999	-0.001025	0.000069	0.000828
02170	0.017744	0.078793	9.891868	-0.016039	0.035289	0.079434	0.999999	-0.001015	0.000055	0.000832
02171	0.026616	0.051244	9.862484	-0.007167	0.007850	0.049960	0.999999	-0.001022	0.000054	0.000827
02172	0.058395	0.028966	9.894195	0.024535	-0.014458	0.081681	0.999999	-0.001021	0.000054	0.000830
02173	0.045549	0.086599	9.865474	0.011698	0.043270	0.053170	0.999999	-0.001021	0.000054	0.000834
02174	0.020845	0.050044	9.891658	-0.013115	0.006607	0.079109	0.999999	-0.001026	0.000046	0.000829
02175	0.050677	0.057964	9.865267	0.016792	0.014747	0.052855	0.999999	-0.001026	0.000054	0.000825
02176	0.018765	0.049866	9.891663	-0.015269	0.006461	0.079106	0.999999	-0.001024	0.000039	0.000836
02177	0.027718	0.022097	9.862284	-0.006347	-0.020967	0.049636	0.999999	-0.001046	0.000036	0.000838
02178	0.035208	0.084060	9.923830	0.000821	0.040867	0.111477	0.999999	-0.001037	0.000038	0.000826
02179	0.043975	0.056589	9.894454	0.009749	0.013445	0.082012	0.999999	-0.001037	0.000038	0.000829
02180	0.038320	0.085744	9.865512	0.004139	0.042779	0.053178	0.999999	-0.001043	0.000037	0.000832
02181	0.048989	0.027929	9.894249	0.014871	-0.015071	0.081700	0.999999	-0.001044	0.000045	0.000836
02182	0.005180	0.077388	9.891893	-0.029016	0.034390	0.079408	0.999999	-0.001050	0.000036	0.000839
02183	0.068033	0.063189	9.897270	0.033676	0.020389	0.084940	0.999999	-0.001056	0.000028	0.000841
02184	0.041279	0.056761	9.865318	0.007114	0.014124	0.052868	0.999999	-0.001057	0.000044	0.000837
02185	0.037464	0.055795	9.894485	0.003278	0.013024	0.082017	0.999999	-0.001056	0.000036	0.000848
02186	0.032008	0.085121	9.865540	-0.002339	0.042353	0.053181	0.999999	-0.001045	0.000022	0.000852
02187	0.035507	0.055859	9.894492	0.001122	0.012882	0.082017	0.999999	-0.001046	0.000038	0.000848
02188	0.090870	0.070145	9.900118	0.056512	0.027299	0.087897	0.999999	-0.001052	0.000029	0.000851
02189	0.036032	0.056504	9.865340	0.001739	0.013771	0.052871	0.999999	-0.001051	0.000030	0.000846
02190	0.057851	0.061869	9.926482	0.023344	0.018885	0.114110	0.999999	-0.001050	0.000030	0.000842
02191	0.033786	0.056466	9.865348	-0.000410	0.013629	0.052871	0.999999	-0.001043	0.000039	0.000846
02192	0.039927	0.027944	9.865143	0.005845	-0.014808	0.052563	0.999999	-0.001058	0.000037	0.000856
02193	0.024154	0.084399	9.865569	-0.009896	0.041847	0.053178	0.999999	-0.001066	0.000051	0.000844
02194	0.027671	0.055067	9.894521	-0.006423	0.012375	0.082016	0.999999	-0.001056	0.000037	0.000847
02195	0.033875	0.026714	9.894316	-0.000157	-0.016055	0.081709	0.999999	-0.001057	0.000053	0.000843
02196	0.018041	0.083388	9.894736	-0.015929	0.040587	0.082320	0.999999	-0.001056	0.000053	0.000839
02197	0.031643	0.026597	9.894323	-0.002304	-0.016200	0.081709	0.999999	-0.001055	0.000046	0.000850
02198	0.044262	0.090540	9.897583	0.010124	0.047729	0.085288	0.999999	-0.001054	0.000046	0.000853
02199	0.027666	0.056602	9.836221	-0.006209	0.014090	0.023724	0.999999	-0.001061	0.000045	0.000848
02200	0.021032	0.054637	9.894540	-0.012894	0.011935	0.082010	0.999999	-0.001061	0.000061	0.000844
02201	0.027114	0.026271	9.894338	-0.006600	-0.016490	0.081706	0.999999	-0.001053	0.000062	0.000848
02202	0.042328	0.091128	9.868449	0.008598	0.048489	0.056150	0.999999	-0.001060	0.000061	0.000851
02203	0.055929	0.034196	9.868047	0.022279	-0.008280	0.055548	0.999999	-0.001067	0.000060	0.000854
02204	0.044880	0.061526	9.897412	0.011005	0.018956	0.084994	0.999999	-0.001066	0.000053	0.000857
02205	0.043806	0.061395	9.897418	0.009926	0.018887	0.084995	0.999999	-0.001074	0.000060	0.000860
02206	0.050068	0.032982	9.897220	0.016241	-0.009530	0.084697	0.999999	-0.001064	0.000053	0.000856
02207	0.016201	0.054996	9.865401	-0.017612	0.012463	0.052857	0.999999	-0.001063	0.000054	0.000851
02208	0.004987	0.082147	9.894761	-0.028919	0.039686	0.082294	0.999999	-0.001086	0.000059	0.000854
02209	0.011291	0.053501	9.894562	-0.022593	0.011269	0.081994	0.999999	-0.001085	0.000051	0.000864
02210	0.041235	0.061756	9.868289	0.007365	0.019582	0.055859	0.999999	-0.001076	0.000053	0.000853
02211	0.029962	0.089140	9.897649	-0.003967	0.046807	0.085297	0.999999	-0.001083	0.000060	0.000840
02212	0.036169	0.060731	9.897453	0.002369	0.018392	0.085001	0.999999	-0.001074	0.000061	0.000836
02213	0.037897	0.061682	9.868303	0.004135	0.019371	0.055862	0.999999	-0.001073	0.000054	0.000840
02214	0.034151	0.060639	9.897461	0.000211	0.018249	0.085001	0.999999	-0.001080	0.000053	0.000843
02215	0.033068	0.060581	9.897465	-0.000868	0.018179	0.085001	0.999999	-0.001072	0.000054	0.000846
02216	0.031974	0.060602	9.897468	-0.001947	0.018104	0.085001	0.999999	-0.001071	0.000054	0.000842
02217	0.012712	0.025538	9.865222	-0.020916	-0.016624	0.052540	0.999999	-0.001095	0.000067	0.000844
02218	0.035228	0.061944	9.839175	0.001614	0.020065	0.026725	0.999999	-0.001084	0.000053	0.000848
02219	0.028686	0.060122	9.897481	-0.005184	0.017889	0.085001	0.999999	-0.001085	0.000061	0.000851
02220	0.055737	0.067409	9.900397	0.021923	0.025203	0.088040	0.999999	-0.001084	0.000061	0.000855
02221	0.026530	0.059930	9.897488	-0.007342	0.017743	0.084999	0.999999	-0.001090	0.000052	0.000857
02222	0.025521	0.059881	9.897491	-0.008421	0.017670	0.084999	0.999999	-0.001082	0.000054	0.000861
02223	0.024513	0.059831	9.897494	-0.009499	0.017599	0.084998	0.999999	-0.001088	0.000045	0.000864
02224	0.064770	0.040680	9.841927	0.030833	-0.001281	0.029488	0.999999	-0.001079	0.000039	0.000868
02225	0.022636	0.059830	9.897499	-0.011658	0.017452	0.084996	0.999999	-0.001077	0.000032	0.000863
02226	0.049775	0.066994	9.900432	0.015437	0.024791	0.088053	0.999999	-0.001093	0.000037	0.000889
02227	0.020365	0.059377	9.897506	-0.013819	0.017303	0.084993	0.999999	-0.001094	0.000045	0.000884
02228	0.050278	0.067566	9.871297	0.016166	0.025713	0.058922	0.999999	-0.001100	0.000036	0.000887
02229	0.049281	0.067446	9.871302	0.015089	0.025646	0.058924	0.999999	-0.001099	0.000037	0.000890
02230	0.048272	0.067404	9.871308	0.014010	0.025575	0.058925	0.999999	-0.001097	0.000029	0.000886
02231	0.016185	0.059095	9.897516	-0.018136	0.017008	0.084987	0.999999	-0.001089	0.000038	0.000882
02232	0.043311	0.066296	9.900467	0.008952	0.024374	0.088062	0.999999	-0.001110	0.000028	0.000884
02233	0.014131	0.058688	9.897521	-0.020294	0.016858	0.084983	0.999999	-0.001102	0.000029	0.000888
02234	0.015857	0.059563	9.868376	-0.018463	0.017845	0.055848	0.999999	-0.001109	0.000029	0.000891
02235	0.042984	0.066769	9.871336	0.008625	0.025229	0.058932	0.999999	-0.001117	0.000028	0.000901
02236	0.049462	0.038390	9.871153	0.015078	-0.003152	0.058652	0.999999	-0.001108	0.000021	0.000912
02237	0.009964	0.058377	9.897528	-0.024607	0.016560	0.084974	0.999999	-0.001107	0.000021	0.000908
02238	0.039891	0.066615	9.871350	0.005391	0.025017	0.058935	0.999999	-0.001114	0.000021	0.000911
02239	0.071606	0.044576	9.903285	0.037093	0.003048	0.090887	0.999999	-0.001122	0.000027	0.000914
02240	-0.021580	0.050439	9.894561	-0.056004	0.008853	0.081863	0.999999	-0.001121	0.000028	0.000909
02241	0.033664	0.065493	9.900510	-0.000772	0.023740	0.088068	0.999999	-0.001098	0.000031	0.000914
02242	0.029815	0.064575	9.929657	-0.004783	0.022597	0.117198	0.999999	-0.001111	0.000021	0.000924
02243	0.041929	0.037932	9.871190	0.007567	-0.003638	0.058661	0.999999	-0.001112	0.000029	0.000920
02244	0.005009	0.058720	9.868393	-0.029223	0.017095	0.055823	0.999999	-0.001111	0.000037	0.000915
02245	0.057353	0.072641	9.903515	0.023058	0.030952	0.091185	0.999999	-0.001111	0.000038	0.000911
02246	0.038465	0.037752	9.871204	0.004350	-0.003852	0.058662	0.999999	-0.001110	0.000038	0.000914
02247	0.058110	0.073420	9.874385	0.023842	0.031886	0.062061	0.999999	-0.001115	0.000030	0.000909
02248	0.057025	0.073370	9.874392	0.022764	0.031819	0.062064	0.999999	-0.001108	0.000039	0.000913
02249	0.035155	0.037583	9.871217	0.001134	-0.004061	0.058663	0.999999	-0.001108	0.000047	0.000909
02250	0.034011	0.037445	9.871222	0.000060	-0.004133	0.058663	0.999999	-0.001115	0.000046	0.000911
02251	0.056419	0.074058	9.845271	0.022487	0.032692	0.032944	0.999999	-0.001115	0.000046	0.000915
02252	0.024304	0.065635	9.871408	-0.009688	0.024015	0.058935	0.999999	-0.001107	0.000047	0.000918
02253	0.058949	0.044696	9.874248	0.024980	0.003189	0.061805	0.999999	-0.001121	0.000045	0.000921
02254	0.050327	0.072801	9.874432	0.016293	0.031408	0.062078	0.999999	-0.001120	0.000046	0.000916
02255	0.018223	0.064216	9.900558	-0.015889	0.022717	0.088057	0.999999	-0.001127	0.000045	0.000919
02256	0.024714	0.035791	9.900384	-0.009349	-0.005644	0.087787	0.999999	-0.001125	0.000046	0.000899
02257	0.054655	0.044280	9.874274	0.020683	0.002917	0.061815	0.999999	-0.001118	0.000047	0.000919
02258	0.017930	0.064933	9.871426	-0.016150	0.023574	0.058927	0.999999	-0.001131	0.000037	0.000913
02259	0.016867	0.064728	9.871429	-0.017227	0.023502	0.058925	0.999999	-0.001131	0.000045	0.000916
02260	0.040961	0.071313	9.903606	0.006838	0.029911	0.091212	0.999999	-0.001123	0.000047	0.000913
02261	0.047532	0.043050	9.903436	0.013402	0.001561	0.090947	0.999999	-0.001121	0.000039	0.000916
02262	0.010783	0.063754	9.900572	-0.023448	0.022190	0.088043	0.999999	-0.001121	0.000039	0.000927
02263	0.015481	0.065678	9.842298	-0.018538	0.024282	0.029794	0.999999	-0.001112	0.000041	0.000923
02264	0.044344	0.043037	9.903451	0.010171	0.001347	0.090951	0.999999	-0.001112	0.000041	0.000934
02265	0.046090	0.043927	9.874319	0.012095	0.002363	0.061830	0.999999	-0.001112	0.000049	0.000929
02266	0.045028	0.043730	9.874325	0.011021	0.002290	0.061831	0.999999	-0.001125	0.000040	0.000924
02267	0.064507	0.079225	9.877559	0.030390	0.038094	0.065280	0.999999	-0.001141	0.000045	0.000934
02268	0.042790	0.043076	9.874338	0.008871	0.002151	0.061833	0.999999	-0.001149	0.000052	0.000929
02269	0.031026	0.070253	9.903649	-0.002896	0.029266	0.091216	0.999999	-0.001149	0.000060	0.000933
02270	0.004724	0.063582	9.871450	-0.029071	0.022669	0.058900	0.999999	-0.001147	0.000053	0.000936
02271	0.064538	0.049501	9.906559	0.030740	0.008471	0.094155	0.999999	-0.001141	0.000069	0.000932
02272	0.038238	0.042901	9.874357	0.004577	0.001872	0.061836	0.999999	-0.001139	0.000054	0.000943
02273	0.054767	0.077917	9.906739	0.020885	0.036605	0.094419	0.999999	-0.001123	0.000065	0.000924
02274	0.040702	0.013699	9.903334	0.007105	-0.027626	0.090699	0.999999	-0.001139	0.000070	0.000934
02275	0.047662	0.106875	9.877786	0.014042	0.065821	0.065562	0.999999	-0.001138	0.000070	0.000937
02276	0.023180	0.069905	9.903673	-0.010463	0.028755	0.091213	0.999999	-0.001145	0.000070	0.000932
02277	0.001655	0.033818	9.900422	-0.031926	-0.007222	0.087739	0.999999	-0.001152	0.000069	0.000935
02278	0.052186	0.078078	9.877641	0.018509	0.037350	0.065312	0.999999	-0.001158	0.000061	0.000938
02279	0.030652	0.042143	9.874387	-0.002940	0.001372	0.061837	0.999999	-0.001150	0.000070	0.000926
02280	0.057758	0.049784	9.877489	0.024080	0.008956	0.065063	0.999999	-0.001148	0.000054	0.000952
02281	0.049220	0.078031	9.877657	0.015270	0.037146	0.065319	0.999999	-0.001145	0.000048	0.000932
02282	0.019950	0.070275	9.874559	-0.013903	0.029409	0.062088	0.999999	-0.001154	0.000062	0.000935
02283	0.054610	0.049490	9.877509	0.020853	0.008753	0.065070	0.999999	-0.001153	0.000054	0.000946
02284	0.050560	0.048538	9.906645	0.016719	0.007585	0.094189	0.999999	-0.001146	0.000063	0.000942
02285	0.052363	0.049449	9.877521	0.018702	0.008615	0.065075	0.999999	-0.001153	0.000063	0.000945
02286	0.087106	0.028704	9.880486	0.053468	-0.012023	0.068072	0.999999	-0.001151	0.000063	0.000941
02287	0.014306	0.069955	9.874571	-0.019295	0.029037	0.062080	0.999999	-0.001144	0.000072	0.000937
02288	0.038421	0.076659	9.906825	0.004639	0.035552	0.094444	0.999999	-0.001142	0.000057	0.000947
02289	0.040384	0.077586	9.877701	0.006629	0.036583	0.065330	0.999999	-0.001142	0.000065	0.000943
02290	0.046827	0.049020	9.877551	0.013323	0.008264	0.065084	0.999999	-0.001166	0.000077	0.000945
02291	0.035055	0.076100	9.906842	0.001390	0.035337	0.094446	0.999999	-0.001155	0.000063	0.000941
02292	0.037165	0.077129	9.877717	0.003388	0.036367	0.065333	0.999999	-0.001153	0.000056	0.000944
02293	0.040831	0.047837	9.906694	0.007014	0.006952	0.094201	0.999999	-0.001154	0.000064	0.000947
02294	0.006760	0.069238	9.874584	-0.026843	0.028505	0.062064	0.999999	-0.001162	0.000071	0.000950
02295	0.041528	0.048533	9.877577	0.007948	0.007915	0.065090	0.999999	-0.001160	0.000063	0.000953
02296	0.060715	0.084412	9.880885	0.027136	0.043807	0.068611	0.999999	-0.001161	0.000079	0.000949
02297	0.018960	0.012405	9.874281	-0.014463	-0.028197	0.061569	0.999999	-0.001165	0.000063	0.000936
02298	0.027470	0.075420	9.906871	-0.006193	0.034826	0.094446	0.999999	-0.001174	0.000078	0.000939
02299	0.033922	0.047082	9.906723	0.000542	0.006520	0.094204	0.999999	-0.001167	0.000086	0.000943
02300	0.024995	0.075261	9.906879	-0.008360	0.034682	0.094445	0.999999	-0.001174	0.000085	0.000946
02301	0.037715	0.048855	9.848482	0.004601	0.008598	0.035983	0.999999	-0.001173	0.000086	0.000941
02302	0.030595	0.046905	9.906735	-0.002695	0.006305	0.094204	0.999999	-0.001165	0.000087	0.000945
02303	0.024736	0.076155	9.877763	-0.008493	0.035574	0.065333	0.999999	-0.001164	0.000088	0.000940
02304	0.056432	0.054512	9.909918	0.023204	0.013923	0.097504	0.999999	-0.001172	0.000094	0.000943
02305	0.025385	0.076852	9.848648	-0.007532	0.036539	0.036222	0.999999	-0.001172	0.000102	0.000939
02306	0.029088	0.047424	9.877627	-0.003882	0.007128	0.065093	0.999999	-0.001185	0.000093	0.000933
02307	0.017249	0.074629	9.906900	-0.015935	0.034167	0.094437	0.999999	-0.001169	0.000096	0.000937
02308	0.050286	0.084436	9.851845	0.017290	0.044101	0.039534	0.999999	-0.001169	0.000096	0.000948
02309	0.043216	0.082332	9.910095	0.009948	0.041803	0.097751	0.999999	-0.001175	0.000087	0.000951
02310	0.027959	0.048195	9.848518	-0.005046	0.007951	0.035983	0.999999	-0.001175	0.000095	0.000954
02311	0.048715	0.053893	9.909962	0.015651	0.013441	0.097519	0.999999	-0.001175	0.000103	0.000950
02312	0.047639	0.053767	9.909968	0.014571	0.013368	0.097521	0.999999	-0.001181	0.000095	0.000953
02313	0.046716	0.053652	9.909973	0.013492	0.013300	0.097523	0.999999	-0.001180	0.000087	0.000963
02314	0.012936	0.075071	9.877794	-0.020365	0.034752	0.065318	0.999999	-0.001178	0.000080	0.000959
02315	0.050877	0.055568	9.851742	0.017633	0.015397	0.039315	0.999999	-0.001177	0.000081	0.000954
02316	0.010837	0.074971	9.877797	-0.022529	0.034602	0.065314	0.999999	-0.001176	0.000081	0.000957
02317	0.042521	0.053463	9.909993	0.009169	0.013018	0.097528	0.999999	-0.001176	0.000089	0.000953
02318	0.038304	0.052333	9.939118	0.004932	0.011823	0.126634	0.999999	-0.001183	0.000088	0.000948
02319	0.015150	0.046392	9.877663	-0.017857	0.006168	0.065078	0.999999	-0.001184	0.000104	0.000944
02320	0.042122	0.054136	9.880890	0.009098	0.013928	0.068427	0.999999	-0.001181	0.000089	0.000939
02321	0.037976	0.053009	9.910014	0.004854	0.012735	0.097532	0.999999	-0.001190	0.000103	0.000942
02322	0.036742	0.052931	9.910019	0.003773	0.012661	0.097532	0.999999	-0.001182	0.000104	0.000946
02323	0.038587	0.053854	9.880906	0.005868	0.013716	0.068430	0.999999	-0.001191	0.000119	0.000948
02324	0.001448	0.074034	9.877810	-0.031161	0.033996	0.065293	0.999999	-0.001197	0.000118	0.000943
02325	0.036299	0.053508	9.880917	0.003717	0.013577	0.068431	0.999999	-0.001196	0.000119	0.000939
02326	0.063122	0.061183	9.884168	0.030657	0.021362	0.071801	0.999999	-0.001205	0.000133	0.000942
02327	0.030771	0.052130	9.910043	-0.001625	0.012303	0.097533	0.999999	-0.001212	0.000132	0.000937
02328	0.021801	0.080209	9.910183	-0.010649	0.040422	0.097756	0.999999	-0.001211	0.000133	0.000948
02329	0.036588	0.023737	9.909916	0.004173	-0.016043	0.097310	0.999999	-0.001209	0.000126	0.000943
02330	0.058678	0.060657	9.884199	0.026351	0.021091	0.071814	0.999999	-0.001218	0.000140	0.000946
02331	0.035694	0.054760	9.822715	0.003657	0.015403	0.010232	0.999999	-0.001210	0.000134	0.000957
02332	0.064428	0.032332	9.884079	0.032160	-0.007239	0.071600	0.999999	-0.001217	0.000133	0.000960
02333	0.027481	0.052571	9.880950	-0.004893	0.012994	0.068431	0.999999	-0.001215	0.000126	0.000955
02334	0.026396	0.052520	9.880954	-0.005967	0.012919	0.068431	0.999999	-0.001215	0.000134	0.000951
02335	0.025246	0.052385	9.880957	-0.007043	0.012847	0.068430	0.999999	-0.001221	0.000133	0.000946
02336	0.049235	0.059127	9.913350	0.016672	0.019544	0.100928	0.999999	-0.001219	0.000118	0.000957
02337	0.043410	0.088295	9.884373	0.010819	0.048797	0.072049	0.999999	-0.001219	0.000126	0.000952
02338	0.022066	0.052291	9.880965	-0.010272	0.012626	0.068428	0.999999	-0.001205	0.000136	0.000964
02339	0.048935	0.060101	9.884255	0.016652	0.020473	0.071836	0.999999	-0.001219	0.000134	0.000959
02340	0.052613	0.030677	9.913245	0.020350	-0.008920	0.100720	0.999999	-0.001219	0.000142	0.000962
02341	0.046636	0.059828	9.884268	0.014496	0.020332	0.071840	0.999999	-0.001218	0.000142	0.000957
02342	0.045560	0.059706	9.884274	0.013418	0.020260	0.071842	0.999999	-0.001225	0.000142	0.000952
02343	0.016382	0.051745	9.880979	-0.015652	0.012254	0.068421	0.999999	-0.001218	0.000151	0.000956
02344	0.035412	0.087869	9.884409	0.003245	0.048295	0.072057	0.999999	-0.001214	0.000136	0.000952
02345	0.047283	0.030352	9.913273	0.014972	-0.009267	0.100729	0.999999	-0.001222	0.000135	0.000970
02346	0.041312	0.059415	9.884294	0.009111	0.019977	0.071847	0.999999	-0.001222	0.000143	0.000965
02347	0.032162	0.087616	9.884422	-0.000000	0.048081	0.072059	0.999999	-0.001214	0.000144	0.000969
02348	0.047100	0.031337	9.884180	0.014992	-0.008339	0.071640	0.999999	-0.001205	0.000138	0.000980
02349	0.030118	0.087664	9.884428	-0.002166	0.047934	0.072059	0.999999	-0.001212	0.000137	0.000975
02350	0.037097	0.059435	9.884311	0.004799	0.019690	0.071851	0.999999	-0.001202	0.000131	0.000979
02351	0.032846	0.058364	9.913422	0.000464	0.018475	0.100944	0.999999	-0.001210	0.000138	0.000966
02352	0.026858	0.087430	9.884440	-0.005414	0.047715	0.072059	0.999999	-0.001209	0.000138	0.000977
02353	0.058472	0.066008	9.916762	0.026278	0.026313	0.104397	0.999999	-0.001219	0.000153	0.000980
02354	0.004553	0.051093	9.880995	-0.027488	0.011421	0.068396	0.999999	-0.001207	0.000139	0.000968
02355	0.056449	0.065863	9.916775	0.024114	0.026178	0.104403	0.999999	-0.001222	0.000137	0.000970
02356	0.025724	0.087933	9.855349	-0.006466	0.048573	0.042966	0.999999	-0.001221	0.000138	0.000973
02357	0.065503	0.038454	9.887566	0.033308	-0.000970	0.075115	0.999999	-0.001221	0.000138	0.000976
02358	0.000328	0.050641	9.880999	-0.031783	0.011112	0.068384	0.999999	-0.001221	0.000146	0.000972
02359	0.027234	0.058559	9.884348	-0.004892	0.019045	0.071852	0.999999	-0.001218	0.000139	0.000960
02360	0.026227	0.058506	9.884351	-0.005969	0.018969	0.071852	0.999999	-0.001219	0.000139	0.000986
02361	0.064446	0.039294	9.858490	0.032301	-0.000088	0.046039	0.999999	-0.001216	0.000132	0.000966
02362	0.024066	0.058326	9.884358	-0.008125	0.018821	0.071850	0.999999	-0.001225	0.000147	0.000969
02363	0.022985	0.058261	9.884361	-0.009202	0.018749	0.071850	0.999999	-0.001215	0.000133	0.000980
02364	0.022053	0.058218	9.884363	-0.010280	0.018676	0.071849	0.999999	-0.001222	0.000132	0.000983
02365	0.076957	0.073999	9.891101	0.044556	0.034673	0.078828	0.999999	-0.001229	0.000131	0.000985
02366	0.024774	0.028675	9.913360	-0.007620	-0.010778	0.100736	0.999999	-0.001228	0.000131	0.000988
02367	0.018762	0.057799	9.884372	-0.013514	0.018455	0.071845	0.999999	-0.001229	0.000139	0.000999
02368	0.042516	0.064720	9.916852	0.010049	0.025264	0.104430	0.999999	-0.001226	0.000124	0.000995
02369	0.044656	0.065630	9.887756	0.012278	0.026353	0.075345	0.999999	-0.001235	0.000138	0.000997
02370	0.051654	0.037413	9.887652	0.019339	-0.001858	0.075152	0.999999	-0.001225	0.000125	0.001001
02371	0.006499	0.085669	9.884490	-0.025966	0.046297	0.072033	0.999999	-0.001233	0.000132	0.000996
02372	0.038173	0.064425	9.916872	0.005720	0.024979	0.104434	0.999999	-0.001225	0.000133	0.001007
02373	0.051631	0.038365	9.858569	0.019435	-0.000906	0.046073	0.999999	-0.001224	0.000133	0.001002
02374	0.036069	0.064328	9.916880	0.003553	0.024837	0.104435	0.999999	-0.001229	0.000125	0.000997
02375	0.038375	0.065262	9.887785	0.005801	0.025930	0.075352	0.999999	-0.001228	0.000118	0.001000
02376	0.037210	0.065208	9.887790	0.004721	0.025855	0.075353	0.999999	-0.001228	0.000134	0.000981
02377	0.035897	0.065127	9.887795	0.003643	0.025785	0.075353	0.999999	-0.001229	0.000141	0.000991
02378	0.070893	0.044972	9.891103	0.038673	0.005669	0.078695	0.999999	-0.001226	0.000134	0.000987
02379	0.045248	0.037933	9.858603	0.013005	-0.001326	0.046083	0.999999	-0.001225	0.000127	0.000990
02380	0.032866	0.064988	9.887807	0.000408	0.025568	0.075355	0.999999	-0.001224	0.000127	0.000993
02381	0.043168	0.037830	9.858612	0.010863	-0.001463	0.046086	0.999999	-0.001224	0.000128	0.000996
02382	-0.005460	0.084860	9.884497	-0.037867	0.045444	0.071999	0.999999	-0.001232	0.000135	0.000999
02383	0.060622	0.073753	9.862147	0.028453	0.034639	0.049820	0.999999	-0.001232	0.000142	0.001002
02384	0.033132	0.035368	9.916820	0.000942	-0.004012	0.104250	0.999999	-0.001232	0.000143	0.001013
02385	0.002553	0.057483	9.855303	-0.029545	0.018259	0.042722	0.999999	-0.001229	0.000136	0.000993
02386	0.034238	0.036247	9.887732	0.002150	-0.002987	0.075170	0.999999	-0.001238	0.000150	0.000996
02387	0.024934	0.064241	9.887835	-0.007138	0.025064	0.075353	0.999999	-0.001237	0.000143	0.000999
02388	0.051803	0.072208	9.891278	0.019701	0.033123	0.078914	0.999999	-0.001244	0.000150	0.000994
02389	0.030865	0.035910	9.887745	-0.001072	-0.003204	0.075170	0.999999	-0.001236	0.000151	0.000997
02390	0.054355	0.042978	9.920287	0.022394	0.003694	0.107816	0.999999	-0.001236	0.000160	0.000985
02391	0.023632	0.065128	9.858754	-0.008077	0.025943	0.046272	0.999999	-0.001227	0.000161	0.000981
02392	0.050561	0.073199	9.862208	0.018756	0.034023	0.049845	0.999999	-0.001233	0.000153	0.000983
02393	0.018325	0.063980	9.887851	-0.013613	0.024620	0.075348	0.999999	-0.001225	0.000154	0.000987
02394	0.045242	0.072123	9.891310	0.013217	0.032704	0.078926	0.999999	-0.001223	0.000147	0.000998
02395	0.044174	0.071922	9.891317	0.012137	0.032635	0.078928	0.999999	-0.001238	0.000153	0.000985
02396	0.023216	0.035515	9.887767	-0.008593	-0.003718	0.075166	0.999999	-0.001232	0.000162	0.000996
02397	0.045155	0.072844	9.862237	0.013372	0.033674	0.049855	0.999999	-0.001230	0.000154	0.000999
02398	0.024426	0.036539	9.858681	-0.007348	-0.002688	0.046089	0.999999	-0.001229	0.000155	0.000994
02399	0.048027	0.043660	9.891247	0.016081	0.004245	0.078758	0.999999	-0.001219	0.000149	0.000990
02400	0.042040	0.072779	9.862251	0.010133	0.033462	0.049860	0.999999	-0.001228	0.000155	0.001008
02401	0.037655	0.071582	9.891346	0.005650	0.032210	0.078935	0.999999	-0.001226	0.000148	0.001003
02402	0.036634	0.071605	9.891350	0.004570	0.032139	0.078936	0.999999	-0.001219	0.000149	0.001022
02403	0.015858	0.035268	9.887782	-0.016117	-0.004234	0.075157	0.999999	-0.001225	0.000148	0.001010
02404	0.046036	0.044301	9.862185	0.014114	0.005076	0.049693	0.999999	-0.001231	0.000148	0.001005
02405	0.033474	0.071236	9.891364	0.001328	0.031920	0.078938	0.999999	-0.001230	0.000141	0.001008
02406	0.035779	0.072331	9.862279	0.003672	0.033035	0.049866	0.999999	-0.001221	0.000142	0.001003
02407	0.003438	0.063107	9.887873	-0.028715	0.023557	0.075318	0.999999	-0.001221	0.000143	0.001007
02408	0.038517	0.043123	9.891291	0.006397	0.003610	0.078770	0.999999	-0.001219	0.000143	0.001002
02409	0.037513	0.043067	9.891295	0.005322	0.003540	0.078770	0.999999	-0.001219	0.000135	0.001028
02410	0.056103	0.079151	9.894888	0.023808	0.039791	0.082568	0.999999	-0.001234	0.000141	0.001022
02411	0.031975	0.041569	9.920391	-0.000266	0.002206	0.107842	0.999999	-0.001234	0.000141	0.001026
02412	0.026028	0.070774	9.891389	-0.006231	0.031412	0.078938	0.999999	-0.001224	0.000135	0.001021
02413	0.052991	0.078951	9.894907	0.020565	0.039587	0.082576	0.999999	-0.001229	0.000127	0.001016
02414	0.035642	0.043583	9.862231	0.003388	0.004372	0.049703	0.999999	-0.001230	0.000135	0.001019
02415	0.034416	0.043498	9.862236	0.002316	0.004302	0.049703	0.999999	-0.001231	0.000143	0.001030
02416	0.021611	0.070467	9.891402	-0.010556	0.031121	0.078935	0.999999	-0.001229	0.000144	0.001010
02417	0.053337	0.049548	9.923939	0.021129	0.010037	0.111491	0.999999	-0.001221	0.000145	0.001014
02418	0.050383	0.079692	9.865857	0.018604	0.040436	0.053519	0.999999	-0.001232	0.000174	0.001016
02419	0.017810	0.070302	9.891411	-0.013800	0.030898	0.078931	0.999999	-0.001223	0.000168	0.001012
02420	0.052908	0.050468	9.894877	0.021347	0.011021	0.082430	0.999999	-0.001223	0.000176	0.001007
02421	0.030671	0.044404	9.833177	-0.000660	0.005067	0.020636	0.999999	-0.001213	0.000170	0.001003
02422	0.042472	0.078622	9.894960	0.010820	0.038955	0.082594	0.999999	-0.001212	0.000171	0.001006
02423	0.056542	0.052638	9.836731	0.025058	0.013211	0.024306	0.999999	-0.001211	0.000163	0.001009
02424	0.012497	0.070188	9.891420	-0.019202	0.030517	0.078924	0.999999	-0.001219	0.000170	0.001012
02425	0.039240	0.078226	9.894977	0.007574	0.038743	0.082598	0.999999	-0.001226	0.000169	0.001015
02426	0.022144	0.042918	9.862273	-0.009492	0.003496	0.049699	0.999999	-0.001215	0.000156	0.001018
02427	0.040764	0.079164	9.865905	0.008893	0.039801	0.053536	0.999999	-0.001229	0.000154	0.001012
02428	0.051508	0.051980	9.836762	0.019703	0.012864	0.024318	0.999999	-0.001226	0.000147	0.001000
02429	0.004072	0.068579	9.920508	-0.028088	0.028932	0.107976	0.999999	-0.001218	0.000149	0.001004
02430	0.046010	0.050886	9.865851	0.014068	0.011525	0.053386	0.999999	-0.001225	0.000148	0.000998
02431	0.005228	0.069463	9.891431	-0.026758	0.029987	0.078908	0.999999	-0.001225	0.000156	0.000994
02432	0.071726	0.058999	9.869436	0.039765	0.019715	0.057086	0.999999	-0.001223	0.000141	0.001005
02433	0.039440	0.049577	9.894944	0.007347	0.010108	0.082452	0.999999	-0.001223	0.000149	0.001000
02434	0.033373	0.078838	9.865936	0.001349	0.039299	0.053541	0.999999	-0.001205	0.000144	0.000996
02435	0.048951	0.022699	9.865812	0.017130	-0.016886	0.053243	0.999999	-0.001215	0.000159	0.000999
02436	0.052011	0.084759	9.927685	0.020006	0.045085	0.115373	0.999999	-0.001221	0.000158	0.000994
02437	0.003512	0.039923	9.920448	-0.028309	0.000256	0.107802	0.999999	-0.001222	0.000166	0.000997
02438	0.025322	0.077341	9.895029	-0.006488	0.037799	0.082602	0.999999	-0.001219	0.000159	0.000992
02439	0.060557	0.057556	9.898567	0.028710	0.018037	0.086174	0.999999	-0.001218	0.000159	0.000987
02440	0.034959	0.050331	9.865899	0.003324	0.010815	0.053396	0.999999	-0.001211	0.000168	0.000991
02441	0.049971	0.085592	9.898640	0.018095	0.045952	0.086326	0.999999	-0.001216	0.000152	0.000993
02442	0.029453	0.048995	9.894982	-0.002350	0.009459	0.082455	0.999999	-0.001225	0.000167	0.000981
02443	0.031733	0.050021	9.865912	0.000104	0.010603	0.053397	0.999999	-0.001216	0.000161	0.000992
02444	0.027273	0.048955	9.894988	-0.004501	0.009311	0.082454	0.999999	-0.001215	0.000162	0.000987
02445	0.017841	0.076971	9.895048	-0.014053	0.037284	0.082596	0.999999	-0.001213	0.000154	0.000990
02446	0.028766	0.050041	9.865921	-0.003115	0.010382	0.053396	0.999999	-0.001204	0.000148	0.000994
02447	0.052219	0.057337	9.898616	0.020085	0.017491	0.086196	0.999999	-0.001203	0.000141	0.001005
02448	0.051055	0.057280	9.898622	0.019006	0.017419	0.086198	0.999999	-0.001203	0.000157	0.000985
02449	0.025569	0.050041	9.865930	-0.006337	0.010165	0.053395	0.999999	-0.001193	0.000143	0.000988
02450	0.049014	0.057289	9.898632	0.016846	0.017281	0.086203	0.999999	-0.001198	0.000143	0.000975
02451	0.042939	0.086391	9.869619	0.010820	0.046470	0.057288	0.999999	-0.001190	0.000144	0.000979
02452	-0.005367	0.041520	9.862303	-0.037375	0.001520	0.049633	0.999999	-0.001197	0.000143	0.000981
02453	0.073588	0.065514	9.902287	0.041412	0.025492	0.089970	0.999999	-0.001189	0.000145	0.000985
02454	0.036123	0.085178	9.898704	0.004007	0.045029	0.086346	0.999999	-0.001190	0.000152	0.000995
02455	0.043424	0.057062	9.898660	0.011444	0.016929	0.086211	0.999999	-0.001189	0.000153	0.000991
02456	0.038944	0.055845	9.927734	0.006794	0.015632	0.115265	0.999999	-0.001195	0.000144	0.000993
02457	0.013518	0.048416	9.895019	-0.018514	0.008346	0.082439	0.999999	-0.001195	0.000152	0.000988
02458	0.052285	0.029910	9.869559	0.020318	-0.010083	0.057029	0.999999	-0.001185	0.000139	0.000992
02459	0.042722	0.057901	9.869611	0.010709	0.017875	0.057164	0.999999	-0.001194	0.000153	0.000987
02460	0.049998	0.029637	9.869572	0.018179	-0.010222	0.057033	0.999999	-0.001200	0.000153	0.000989
02461	0.037018	0.056457	9.898689	0.004977	0.016503	0.086217	0.999999	-0.001198	0.000146	0.000985
02462	0.008185	0.047994	9.895027	-0.023893	0.007961	0.082428	0.999999	-0.001197	0.000146	0.000980
02463	0.043431	0.028250	9.898654	0.011375	-0.011666	0.086089	0.999999	-0.001204	0.000145	0.000990
02464	0.028916	0.085376	9.869679	-0.003226	0.045532	0.057298	0.999999	-0.001195	0.000139	0.000994
02465	0.005005	0.047825	9.895030	-0.027123	0.007735	0.082419	0.999999	-0.001194	0.000148	0.000974
02466	0.012433	0.019739	9.894989	-0.019631	-0.020359	0.082289	0.999999	-0.001193	0.000140	0.000984
02467	0.049956	0.092484	9.902436	0.017713	0.052566	0.090151	0.999999	-0.001208	0.000146	0.000979
02468	0.033112	0.056918	9.869654	0.001032	0.017226	0.057171	0.999999	-0.001206	0.000139	0.000974
02469	0.037116	0.027736	9.898681	0.004931	-0.012091	0.086093	0.999999	-0.001205	0.000139	0.000977
02470	0.027503	0.055699	9.898725	-0.004732	0.015846	0.086218	0.999999	-0.001205	0.000139	0.000988
02471	0.017969	0.083591	9.898767	-0.014402	0.043783	0.086342	0.999999	-0.001212	0.000131	0.000998
02472	0.053371	0.064002	9.902426	0.020884	0.024209	0.090038	0.999999	-0.001202	0.000125	0.000986
02473	0.024467	0.055561	9.898733	-0.007967	0.015630	0.086217	0.999999	-0.001202	0.000133	0.000981
02474	0.011300	0.082407	9.927835	-0.021275	0.042318	0.115383	0.999999	-0.001200	0.000126	0.000992
02475	0.053638	0.064959	9.873383	0.021269	0.025241	0.061000	0.999999	-0.001209	0.000133	0.000994
02476	0.021158	0.055219	9.898743	-0.011209	0.015407	0.086214	0.999999	-0.001207	0.000133	0.000989
02477	0.020081	0.055089	9.898746	-0.012287	0.015334	0.086213	0.999999	-0.001215	0.000132	0.000992
02478	0.041844	0.092599	9.873437	0.009407	0.053033	0.061125	0.999999	-0.001212	0.000125	0.000987
02479	0.058061	0.036466	9.873374	0.025580	-0.003031	0.060891	0.999999	-0.001218	0.000117	0.000989
02480	0.045027	0.063176	9.902473	0.012235	0.023648	0.090054	0.999999	-0.001224	0.000108	0.000992
02481	0.024746	0.026529	9.898723	-0.007965	-0.012962	0.086090	0.999999	-0.001224	0.000116	0.000987
02482	0.034209	0.090921	9.902517	0.001432	0.051500	0.090172	0.999999	-0.001231	0.000116	0.000990
02483	0.053782	0.035957	9.873400	0.021288	-0.003308	0.060901	0.999999	-0.001224	0.000125	0.000993
02484	0.044095	0.063983	9.873437	0.011565	0.024611	0.061018	0.999999	-0.001222	0.000117	0.000996
02485	0.048135	0.034731	9.902469	0.015486	-0.004695	0.089947	0.999999	-0.001229	0.000117	0.000999
02486	0.038384	0.062593	9.902505	0.005750	0.023222	0.090061	0.999999	-0.001230	0.000124	0.001002
02487	0.037207	0.062608	9.902509	0.004671	0.023152	0.090062	0.999999	-0.001221	0.000126	0.000990
02488	0.044720	0.034627	9.902486	0.012261	-0.004909	0.089951	0.999999	-0.001220	0.000127	0.001000
02489	0.038668	0.063710	9.873461	0.006181	0.024257	0.061023	0.999999	-0.001218	0.000120	0.000996
02490	0.034007	0.062523	9.902521	0.001433	0.022935	0.090063	0.999999	-0.001219	0.000127	0.001006
02491	0.044964	0.035652	9.873445	0.012707	-0.003864	0.060916	0.999999	-0.001212	0.000137	0.000995
02492	0.035175	0.063590	9.873475	0.002951	0.024045	0.061025	0.999999	-0.001219	0.000136	0.000997
02493	0.006337	0.054896	9.869719	-0.025861	0.015375	0.057140	0.999999	-0.001218	0.000137	0.001000
02494	0.038143	0.034284	9.902514	0.005808	-0.005326	0.089957	0.999999	-0.001217	0.000129	0.001003
02495	0.056099	0.070781	9.906308	0.023766	0.031188	0.093955	0.999999	-0.001218	0.000145	0.000998
02496	0.022133	0.091195	9.873514	-0.010061	0.051738	0.061132	0.999999	-0.001224	0.000137	0.001000
02497	0.033393	0.064142	9.844443	0.001257	0.024951	0.031990	0.999999	-0.001231	0.000136	0.001003
02498	0.061544	0.042258	9.906309	0.029233	0.003008	0.093859	0.999999	-0.001238	0.000135	0.001005
02499	0.024044	0.061603	9.902556	-0.008285	0.022286	0.090061	0.999999	-0.001230	0.000137	0.001009
02500	0.026639	0.062691	9.873507	-0.005662	0.023471	0.061025	0.999999	-0.001235	0.000128	0.001011
02501	0.041033	0.098003	9.906367	0.008554	0.058741	0.094071	0.999999	-0.001235	0.000137	0.001007
02502	0.033065	0.034591	9.873496	0.000916	-0.004642	0.060923	0.999999	-0.001227	0.000138	0.001002
02503	0.026835	0.063721	9.844466	-0.005182	0.024514	0.031990	0.999999	-0.001227	0.000146	0.001005
02504	0.049886	0.071066	9.877315	0.017746	0.031822	0.064942	0.999999	-0.001232	0.000138	0.000992
02505	0.017505	0.061275	9.902572	-0.014761	0.021838	0.090055	0.999999	-0.001224	0.000140	0.000996
02506	0.028799	0.034469	9.873510	-0.003377	-0.004936	0.060923	0.999999	-0.001222	0.000133	0.000991
02507	0.055468	0.042963	9.877317	0.023261	0.003655	0.064851	0.999999	-0.001230	0.000139	0.000994
02508	0.045692	0.070813	9.877337	0.013430	0.031539	0.064950	0.999999	-0.001227	0.000132	0.000989
02509	-0.005644	0.024401	9.898758	-0.038026	-0.015092	0.086017	0.999999	-0.001226	0.000125	0.000992
02510	0.043826	0.070679	9.877347	0.011272	0.031393	0.064953	0.999999	-0.001231	0.000117	0.000987
02511	0.023661	0.033925	9.873525	-0.008739	-0.005307	0.060919	0.999999	-0.001233	0.000132	0.000997
02512	0.026162	0.034921	9.844482	-0.006078	-0.004119	0.031888	0.999999	-0.001239	0.000124	0.001000
02513	0.036957	0.069135	9.906410	0.004297	0.029907	0.093987	0.999999	-0.001236	0.000117	0.000995
02514	0.051890	0.043418	9.848312	0.019481	0.004426	0.035837	0.999999	-0.001236	0.000125	0.000990
02515	0.015858	0.032416	9.902581	-0.016774	-0.006882	0.089943	0.999999	-0.001234	0.000110	0.001001
02516	0.028823	0.098121	9.877385	-0.003992	0.058906	0.065050	0.999999	-0.001232	0.000111	0.000988
02517	0.032890	0.068970	9.906425	-0.000028	0.029616	0.093988	0.999999	-0.001231	0.000104	0.000991
02518	0.035544	0.070004	9.877385	0.002641	0.030819	0.064961	0.999999	-0.001237	0.000103	0.000986
02519	0.034467	0.069876	9.877389	0.001563	0.030749	0.064961	0.999999	-0.001237	0.000104	0.000989
02520	0.026050	0.067514	9.935481	-0.007036	0.028121	0.123015	0.999999	-0.001236	0.000104	0.000984
02521	0.013178	0.033178	9.873547	-0.019466	-0.006058	0.060904	0.999999	-0.001230	0.000121	0.000988
02522	0.058692	0.078369	9.881251	0.026005	0.039259	0.068937	0.999999	-0.001243	0.000111	0.000982
02523	0.011271	0.032879	9.873551	-0.021613	-0.006206	0.060899	0.999999	-0.001238	0.000089	0.000977
02524	0.060654	0.079356	9.852221	0.027617	0.040406	0.039918	0.999999	-0.001239	0.000097	0.000972
02525	0.036897	0.041414	9.877411	0.003922	0.002386	0.064878	0.999999	-0.001245	0.000097	0.000967
02526	0.051212	0.076807	9.910318	0.017907	0.037708	0.097973	0.999999	-0.001242	0.000082	0.000969
02527	0.062668	0.049979	9.881281	0.029446	0.010991	0.068869	0.999999	-0.001242	0.000090	0.000965
02528	0.025094	0.069094	9.877423	-0.008146	0.030096	0.064960	0.999999	-0.001247	0.000082	0.000952
02529	0.024102	0.068906	9.877427	-0.009224	0.030025	0.064959	0.999999	-0.001254	0.000081	0.000954
02530	0.023038	0.068697	9.877431	-0.010300	0.029951	0.064959	0.999999	-0.001261	0.000081	0.000956
02531	0.027066	0.039525	9.906474	-0.006310	0.000669	0.093901	0.999999	-0.001254	0.000082	0.000968
02532	0.057363	0.049439	9.881316	0.024072	0.010653	0.068884	0.999999	-0.001253	0.000083	0.000963
02533	0.011041	0.096459	9.877437	-0.022404	0.057656	0.065033	0.999999	-0.001259	0.000074	0.000973
02534	0.055294	0.049190	9.881329	0.021921	0.010512	0.068889	0.999999	-0.001259	0.000082	0.000968
02535	0.017618	0.068321	9.877445	-0.015691	0.029580	0.064953	0.999999	-0.001258	0.000083	0.000963
02536	0.053048	0.049077	9.881342	0.019767	0.010374	0.068894	0.999999	-0.001258	0.000083	0.000974
02537	0.024209	0.040243	9.877455	-0.008963	0.001514	0.064875	0.999999	-0.001259	0.000091	0.000985
02538	0.038279	0.075555	9.910386	0.004913	0.036858	0.097991	0.999999	-0.001271	0.000081	0.000979
02539	0.013310	0.067845	9.877455	-0.020007	0.029279	0.064946	0.999999	-0.001264	0.000083	0.000982
02540	0.048751	0.048622	9.881366	0.015466	0.010098	0.068902	0.999999	-0.001271	0.000082	0.000984
02541	0.038902	0.076430	9.881364	0.005487	0.037941	0.068975	0.999999	-0.001269	0.000075	0.000987
02542	0.046819	0.048468	9.881376	0.013316	0.009957	0.068905	0.999999	-0.001267	0.000068	0.000990
02543	0.033222	0.075168	9.910407	-0.000499	0.036502	0.097993	0.999999	-0.001267	0.000068	0.001001
02544	0.031982	0.075085	9.910412	-0.001585	0.036430	0.097993	0.999999	-0.001268	0.000084	0.000996
02545	0.047243	0.049386	9.852359	0.013920	0.011047	0.039893	0.999999	-0.001273	0.000068	0.000998
02546	0.033568	0.075935	9.881388	0.000084	0.037580	0.068978	0.999999	-0.001281	0.000083	0.000985
02547	0.060083	0.084593	9.885317	0.026642	0.046346	0.073029	0.999999	-0.001280	0.000075	0.000996
02548	0.040211	0.047812	9.881409	0.006854	0.009533	0.068912	0.999999	-0.001281	0.000083	0.000999
02549	0.030081	0.075721	9.881401	-0.003161	0.037363	0.068978	0.999999	-0.001274	0.000092	0.001002
02550	0.037809	0.047734	9.881419	0.004705	0.009391	0.068913	0.999999	-0.001281	0.000091	0.001005
02551	0.024092	0.074274	9.910440	-0.009170	0.035917	0.097991	0.999999	-0.001286	0.000091	0.000984
02552	0.031908	0.046237	9.910459	-0.001298	0.007945	0.097927	0.999999	-0.001286	0.000092	0.000994
02553	0.033128	0.077627	9.823356	0.000235	0.039678	0.010951	0.999999	-0.001286	0.000100	0.000990
02554	0.061014	0.056038	9.885384	0.028031	0.017968	0.072988	0.999999	-0.001293	0.000099	0.000992
02555	0.023377	0.074978	9.881424	-0.009635	0.036922	0.068975	0.999999	-0.001293	0.000099	0.001003
02556	0.049942	0.083750	9.885380	0.016909	0.045722	0.073054	0.999999	-0.001293	0.000100	0.001006
02557	0.030123	0.046950	9.881449	-0.002815	0.008886	0.068914	0.999999	-0.001292	0.000100	0.001001
02558	0.025186	0.045696	9.910481	-0.007756	0.007507	0.097925	0.999999	-0.001292	0.000109	0.001004
02559	0.027793	0.046886	9.881456	-0.004960	0.008743	0.068914	0.999999	-0.001284	0.000110	0.001007
02560	0.054275	0.055680	9.885425	0.021580	0.017560	0.073005	0.999999	-0.001291	0.000118	0.000994
02561	0.016702	0.074537	9.881441	-0.016101	0.036478	0.068969	0.999999	-0.001296	0.000102	0.000997
02562	0.047215	0.084406	9.856389	0.014309	0.046614	0.044056	0.999999	-0.001303	0.000101	0.000999
02563	0.027355	0.047641	9.852443	-0.005374	0.009760	0.039902	0.999999	-0.001289	0.000111	0.001011
02564	0.046307	0.054147	9.914475	0.013384	0.015967	0.102022	0.999999	-0.001293	0.000103	0.000998
02565	0.067699	0.091996	9.889412	0.034788	0.054003	0.077175	0.999999	-0.001294	0.000111	0.000993
02566	0.047860	0.055161	9.885461	0.015119	0.017136	0.073017	0.999999	-0.001293	0.000112	0.000996
02567	0.046859	0.055046	9.885467	0.014043	0.017068	0.073019	0.999999	-0.001298	0.000104	0.000990
02568	0.040691	0.084023	9.856422	0.007839	0.046182	0.044065	0.999999	-0.001297	0.000104	0.000985
02569	0.020963	0.047113	9.852461	-0.011806	0.009309	0.039897	0.999999	-0.001304	0.000103	0.000988
02570	0.052546	0.026705	9.885512	0.019839	-0.011016	0.072974	0.999999	-0.001312	0.000118	0.000975
02571	0.005782	0.073586	9.881461	-0.026902	0.035711	0.068948	0.999999	-0.001296	0.000113	0.000979
02572	0.041354	0.054714	9.885493	0.008651	0.016711	0.073026	0.999999	-0.001294	0.000114	0.000974
02573	0.040265	0.054666	9.885498	0.007574	0.016642	0.073027	0.999999	-0.001293	0.000114	0.000969
02574	0.042990	0.055889	9.856481	0.010418	0.017890	0.044024	0.999999	-0.001285	0.000116	0.000972
02575	0.038065	0.054713	9.885506	0.005423	0.016500	0.073029	0.999999	-0.001284	0.000117	0.000960
02576	0.036977	0.054660	9.885511	0.004348	0.016425	0.073029	0.999999	-0.001284	0.000117	0.000970
02577	0.048813	0.027940	9.856529	0.016263	-0.010181	0.043984	0.999999	-0.001281	0.000110	0.000966
02578	0.031130	0.053292	9.914539	-0.001734	0.014955	0.102032	0.999999	-0.001288	0.000110	0.000968
02579	0.033965	0.054379	9.885523	0.001119	0.016208	0.073030	0.999999	-0.001286	0.000103	0.000963
02580	0.031547	0.084536	9.827454	-0.001167	0.046636	0.015070	0.999999	-0.001294	0.000109	0.000965
02581	0.068387	0.035110	9.889599	0.035620	-0.002809	0.077146	0.999999	-0.001301	0.000109	0.000968
02582	0.058279	0.062856	9.889570	0.025455	0.024969	0.077190	0.999999	-0.001299	0.000109	0.000963
02583	0.053337	0.061601	9.918594	0.020433	0.023574	0.106192	0.999999	-0.001298	0.000110	0.000958
02584	0.059950	0.063976	9.860566	0.027245	0.026162	0.048196	0.999999	-0.001297	0.000110	0.000953
02585	0.031195	0.054942	9.856531	-0.001396	0.017094	0.044031	0.999999	-0.001299	0.000118	0.000964
02586	0.053721	0.062469	9.889598	0.021140	0.024696	0.077200	0.999999	-0.001314	0.000124	0.000958
02587	0.048780	0.061130	9.918620	0.016105	0.023298	0.106201	0.999999	-0.001305	0.000118	0.000961
02588	0.024090	0.053484	9.885557	-0.008581	0.015547	0.073028	0.999999	-0.001295	0.000112	0.000957
02589	0.050664	0.062430	9.889614	0.017901	0.024496	0.077207	0.999999	-0.001302	0.000112	0.000951
02590	0.018128	0.052099	9.914577	-0.014701	0.014064	0.102023	0.999999	-0.001301	0.000112	0.000954
02591	0.043223	0.091308	9.860569	0.010583	0.053529	0.048248	0.999999	-0.001302	0.000120	0.000957
02592	0.024964	0.024045	9.914627	-0.007731	-0.013929	0.101987	0.999999	-0.001306	0.000112	0.000944
02593	0.031651	0.026351	9.856604	-0.000858	-0.011327	0.043996	0.999999	-0.001307	0.000120	0.000954
02594	0.041208	0.060779	9.918657	0.008525	0.022805	0.106211	0.999999	-0.001298	0.000122	0.000942
02595	0.016423	0.052939	9.885576	-0.016123	0.015028	0.073019	0.999999	-0.001305	0.000121	0.000945
02596	0.011521	0.051673	9.914589	-0.021182	0.013613	0.102012	0.999999	-0.001296	0.000115	0.000940
02597	0.014384	0.052928	9.885579	-0.018275	0.014879	0.073016	0.999999	-0.001295	0.000116	0.000935
02598	0.040879	0.061822	9.889663	0.008186	0.023859	0.077222	0.999999	-0.001301	0.000115	0.000938
02599	0.008248	0.051504	9.914594	-0.024423	0.013385	0.102004	0.999999	-0.001294	0.000124	0.000933
02600	0.038691	0.061784	9.889672	0.006030	0.023716	0.077224	0.999999	-0.001292	0.000109	0.000944
02601	0.010117	0.052688	9.885586	-0.022584	0.014575	0.073007	0.999999	-0.001293	0.000117	0.000954
02602	0.036600	0.061656	9.889681	0.003877	0.023569	0.077225	0.999999	-0.001291	0.000110	0.000965
02603	0.053958	0.098407	9.893730	0.021150	0.060402	0.081472	0.999999	-0.001299	0.000117	0.000960
02604	0.015945	0.024495	9.885645	-0.016469	-0.017149	0.072972	0.999999	-0.001113	0.000125	0.000990
02605	0.024145	0.089164	9.889640	-0.008394	0.047501	0.077266	0.999999	-0.001112	0.000126	0.000986
02606	0.032196	0.061268	9.889699	-0.000284	0.019605	0.077234	0.999999	-0.001111	0.000126	0.000996
02607	0.062589	0.071490	9.864806	0.030176	0.029990	0.052484	0.999999	-0.001111	0.000126	0.001007
02608	0.030021	0.061148	9.889707	-0.002442	0.019457	0.077234	0.999999	-0.001109	0.000127	0.000986
02609	0.025077	0.059879	9.918716	-0.007541	0.018022	0.106222	0.999999	-0.001108	0.000120	0.000997
02610	0.055531	0.070207	9.893831	0.022920	0.028414	0.081481	0.999999	-0.001099	0.000122	0.001001
02611	0.039992	0.034476	9.860771	0.007567	-0.007218	0.048219	0.999999	-0.001106	0.000121	0.001003
02612	0.034997	0.033041	9.889781	0.002466	-0.008656	0.077206	0.999999	-0.001113	0.000120	0.000997
02613	0.024752	0.060736	9.889724	-0.007834	0.019077	0.077232	0.999999	-0.001112	0.000121	0.001000
02614	0.055132	0.071090	9.864853	0.022630	0.029491	0.052506	0.999999	-0.001103	0.000123	0.000988
02615	0.059493	0.042092	9.893924	0.026750	0.000252	0.081469	0.999999	-0.001099	0.000100	0.000998
02616	0.025790	0.061945	9.860727	-0.007031	0.020215	0.048245	0.999999	-0.001106	0.000107	0.000985
02617	0.024627	0.061883	9.860731	-0.008106	0.020141	0.048244	0.999999	-0.001098	0.000109	0.000988
02618	0.047100	0.069844	9.893877	0.014273	0.027838	0.081499	0.999999	-0.001090	0.000111	0.000992
02619	0.022497	0.061995	9.860735	-0.010258	0.019986	0.048243	0.999999	-0.001088	0.000104	0.000995
02620	0.050316	0.040699	9.922957	0.017315	-0.001475	0.110465	0.999999	-0.001095	0.000103	0.000997
02621	0.025746	0.032700	9.889810	-0.007205	-0.009333	0.077203	0.999999	-0.001092	0.000096	0.000992
02622	0.010214	0.089428	9.860675	-0.022753	0.047547	0.048258	0.999999	-0.001101	0.000102	0.001002
02623	0.069376	0.078412	9.898062	0.036362	0.036642	0.085794	0.999999	-0.001108	0.000102	0.001004
02624	0.030411	0.034696	9.831820	-0.002299	-0.006815	0.019238	0.999999	-0.001106	0.000102	0.001000
02625	0.039608	0.069081	9.893916	0.006709	0.027327	0.081509	0.999999	-0.001108	0.000110	0.001010
02626	0.042519	0.070120	9.864922	0.009702	0.028631	0.052530	0.999999	-0.001120	0.000101	0.001004
02627	0.019316	0.031896	9.889827	-0.013645	-0.009789	0.077196	0.999999	-0.001103	0.000097	0.001000
02628	0.049779	0.042402	9.865003	0.016842	0.000701	0.052518	0.999999	-0.001102	0.000097	0.001004
02629	0.039454	0.070145	9.864935	0.006473	0.028414	0.052533	0.999999	-0.001102	0.000098	0.001007
02630	0.043625	0.041044	9.894011	0.010616	-0.000826	0.081500	0.999999	-0.001100	0.000098	0.001002
02631	0.033363	0.068795	9.893941	0.000234	0.026882	0.081512	0.999999	-0.001099	0.000091	0.001013
02632	0.041605	0.040951	9.894021	0.008465	-0.000975	0.081502	0.999999	-0.001098	0.000092	0.001008
02633	0.035177	0.069937	9.864953	0.002165	0.028112	0.052536	0.999999	-0.001098	0.000100	0.001003
02634	0.015912	0.032996	9.860844	-0.017065	-0.008957	0.048206	0.999999	-0.001087	0.000086	0.001006
02635	0.029137	0.068669	9.893955	-0.004086	0.026578	0.081512	0.999999	-0.001095	0.000093	0.001009
02636	0.032063	0.069794	9.864964	-0.001070	0.027885	0.052536	0.999999	-0.001093	0.000086	0.001003
02637	-0.004451	0.057969	9.918758	-0.037817	0.015811	0.106156	0.999999	-0.001100	0.000085	0.001013
02638	0.057501	0.078650	9.869175	0.024236	0.036969	0.056870	0.999999	-0.001107	0.000084	0.001023
02639	0.006788	0.031075	9.889847	-0.026534	-0.010730	0.077169	0.999999	-0.001106	0.000077	0.001034
02640	0.060765	0.049434	9.898263	0.027309	0.007674	0.085845	0.999999	-0.001105	0.000077	0.001028
02641	0.036132	0.041415	9.865067	0.002888	-0.000252	0.052532	0.999999	-0.001106	0.000085	0.001039
02642	0.053151	0.078418	9.869201	0.019913	0.036685	0.056880	0.999999	-0.001097	0.000087	0.001026
02643	0.020471	0.067882	9.893982	-0.012740	0.025969	0.081506	0.999999	-0.001105	0.000094	0.001029
02644	0.036683	0.042483	9.836088	0.003791	0.000915	0.023560	0.999999	-0.001104	0.000094	0.001024
02645	0.018224	0.067688	9.893988	-0.014898	0.025817	0.081504	0.999999	-0.001103	0.000095	0.001019
02646	0.026452	0.039850	9.894077	-0.006601	-0.002022	0.081503	0.999999	-0.001102	0.000096	0.001030
02647	-0.030007	0.113946	9.889586	-0.063253	0.071898	0.077137	0.999999	-0.001094	0.000089	0.001049
02648	-1.900182	1.775473	9.908216	-1.940169	1.726225	0.096482	0.999997	-0.001004	-0.000030	0.002250
02649	-2.885045	0.318789	9.795900	-2.923906	0.249299	-0.026302	0.999979	-0.000905	-0.000184	0.006427
02650	-1.519460	1.917981	9.991789	-1.590289	1.844764	0.181864	0.999934	-0.001009	-0.000072	0.011457
02651	4.179311	2.500470	9.954878	4.080789	2.558525	0.168278	0.999911	-0.001050	-0.000082	0.013330
02652	2.600494	1.996255	10.182691	2.513337	1.997763	0.391562	0.999960	-0.000013	-0.000661	0.008897
02653	1.466695	-0.858724	9.701656	1.428438	-0.936720	-0.112571	0.999993	0.003157	-0.000742	0.001607
02654	0.611674	1.121507	9.857257	0.565900	0.967725	0.063567	0.999970	0.005782	-0.000732	-0.005158
02655	0.051685	1.702292	9.939589	0.025660	1.496470	0.160053	0.999920	0.008422	-0.000661	-0.009452
02656	0.650902	1.469328	9.682752	0.632149	1.207663	-0.092604	0.999863	0.010682	-0.000730	-0.012661
02657	0.967503	0.538248	9.729077	0.929011	0.226071	-0.067615	0.999808	0.012258	-0.000698	-0.015254
02658	0.318371	0.990388	9.795555	0.297775	0.661895	0.011174	0.999736	0.013786	-0.000601	-0.018363
02659	0.036311	2.329413	9.869813	0.079110	1.980497	0.132763	0.999635	0.014817	-0.000351	-0.022600
02660	-0.357077	1.958527	9.983853	-0.310601	1.600917	0.236250	0.999507	0.016176	-0.000136	-0.026894
02661	-0.157845	1.434228	11.243617	-0.115126	0.987633	1.479429	0.999383	0.017796	0.001487	-0.030238
02662	0.110382	1.334409	11.255705	0.219395	0.823421	1.490249	0.999305	0.020257	0.006051	-0.030708
02663	-0.009137	1.993352	10.603644	0.258051	1.455748	0.874826	0.999258	0.023194	0.013242	-0.027745
02664	0.426791	3.370722	10.929096	0.925661	2.705456	1.269274	0.999144	0.027854	0.022172	-0.021071
02665	1.020219	3.611392	12.817349	1.776323	2.718788	3.141724	0.998928	0.031399	0.031954	-0.011650
02666	1.331367	1.764264	14.311152	2.339876	0.714977	4.459780	0.998601	0.033517	0.040727	-0.003706
02667	0.793814	0.543164	15.002608	2.058410	-0.587250	5.067434	0.998253	0.035352	0.047312	0.001516
02668	-0.288910	0.943456	13.447660	0.999113	-0.113566	3.633524	0.997957	0.036831	0.051972	0.004851
02669	-0.744227	1.712700	11.938859	0.494390	0.735018	2.238795	0.997701	0.037940	0.055707	0.007071
02670	-0.599379	1.756917	10.988540	0.612472	0.836801	1.283177	0.997462	0.038745	0.059065	0.008985
02671	-0.495682	1.377352	11.104129	0.799608	0.436705	1.350379	0.997252	0.039325	0.061946	0.010266
02672	-0.669500	0.342216	11.961688	0.802392	-0.676213	2.126576	0.997115	0.039313	0.064051	0.010692
02673	-0.714474	-0.089636	12.766852	0.907639	-1.165781	2.888810	0.997057	0.038652	0.065416	0.010163
02674	-0.795864	0.371933	13.065978	0.881361	-0.709944	3.233792	0.997079	0.037568	0.065911	0.008799
02675	-0.527611	0.874338	12.180988	1.031507	-0.101489	2.367005	0.997152	0.036205	0.065698	0.007832
02676	-0.233089	2.070871	10.552623	1.100233	1.252843	0.813718	0.997194	0.035003	0.065704	0.007907
02677	0.228675	3.271322	10.223598	1.500469	2.505231	0.519213	0.997158	0.034387	0.066187	0.010622
02678	0.431607	2.151070	10.289004	1.727492	1.406546	0.469061	0.997076	0.033861	0.067050	0.014064
02679	-0.597742	3.915846	11.552550	0.866651	3.002205	1.993544	0.996767	0.037978	0.069445	0.013805
02680	1.552421	1.295882	10.893897	2.995223	0.449193	0.845318	0.996691	0.039584	0.069629	0.013889
02681	1.393084	1.604158	12.108834	2.987254	0.602978	2.097404	0.996676	0.041914	0.068557	0.013453
02682	1.734741	1.925162	12.994913	3.399670	0.808056	2.969029	0.996763	0.043254	0.066419	0.013483
02683	2.495786	1.534675	12.384779	4.040063	0.470716	2.246463	0.996774	0.044420	0.065211	0.014704
02684	2.808857	1.685795	13.004738	4.409539	0.568145	2.839899	0.996695	0.044884	0.065360	0.017708
02685	3.155101	1.754547	14.472463	4.940242	0.536046	4.251161	0.996611	0.044595	0.065796	0.021170
02686	3.145030	0.365675	14.864232	5.051522	-0.818905	4.497486	0.996505	0.042748	0.067107	0.025427
02687	2.687887	0.653505	12.932213	4.350982	-0.286467	2.672495	0.996461	0.039781	0.067436	0.030592
02688	0.942399	2.355258	12.691660	2.482152	1.425199	2.809517	0.996447	0.035877	0.066991	0.036312
02689	-0.130597	2.153828	11.826243	1.289266	1.323437	2.065913	0.996322	0.031231	0.067192	0.043045
02690	1.257477	1.921019	11.365642	2.602854	1.373566	1.402759	0.996023	0.026423	0.068331	0.050705
02691	2.315425	1.493815	11.188375	3.657363	1.210925	1.046778	0.995629	0.021962	0.069396	0.058516
02692	0.699559	1.889458	11.152903	2.005404	1.539876	1.235062	0.995221	0.017836	0.069944	0.065760
02693	-0.566864	1.951871	10.395634	0.620646	1.557020	0.646284	0.994850	0.013556	0.069612	0.072410
02694	-0.431830	1.446033	9.808665	0.696833	1.179905	0.016284	0.994595	0.008765	0.067832	0.078115
02695	0.431529	1.960631	9.599695	1.372480	1.909488	-0.291462	0.994541	0.004867	0.065228	0.081296
02696	0.391843	2.837692	8.580926	0.995343	2.832364	-1.278939	0.994741	0.002236	0.061750	0.081680
02697	0.293495	2.366149	7.206136	0.750841	2.374666	-2.642597	0.994987	0.001708	0.058155	0.081344
02698	0.454123	1.597712	7.532369	1.020430	1.631371	-2.343242	0.995281	0.002968	0.054645	0.080126
02699	-0.157316	0.944241	8.195690	0.544107	0.846931	-1.622947	0.995592	0.005910	0.050896	0.078560
02700	-0.834400	1.290009	8.093043	-0.233122	1.011552	-1.640827	0.995813	0.011313	0.047721	0.077144
02701	-0.611714	1.338111	6.646007	-0.187414	1.026163	-3.086248	0.995909	0.019368	0.045449	0.075661
02702	0.446083	1.330548	7.353346	0.906597	1.003394	-2.449992	0.995874	0.031865	0.043441	0.073030
02703	0.415333	2.252646	8.853739	0.867741	1.611764	-0.852724	0.995714	0.043423	0.041229	0.070486
02704	0.078105	1.979464	7.427759	0.440053	1.245055	-2.239668	0.995438	0.052206	0.039808	0.069237
02705	-0.866866	1.809452	6.599169	-0.540759	0.903551	-2.996196	0.994970	0.061098	0.039463	0.068873
02706	-0.811062	1.496259	6.202706	-0.465497	0.526123	-3.419317	0.994281	0.071597	0.040114	0.068330
02707	-0.698919	1.310831	6.753333	-0.258759	0.133238	-2.904194	0.993361	0.083591	0.041269	0.067409
02708	-0.708780	1.224257	7.549856	-0.155304	-0.264335	-2.137773	0.992235	0.096330	0.042365	0.066302
02709	-1.314045	1.585119	9.362979	-0.594725	-0.539734	-0.259861	0.991208	0.106595	0.043353	0.065308
02710	-1.595642	1.302673	10.432432	-0.709122	-1.230221	0.725877	0.990640	0.111900	0.043930	0.064663
02711	-1.508351	0.774588	9.557628	-0.633197	-1.608030	-0.260907	0.990405	0.114070	0.044259	0.064247
02712	-2.105014	0.890608	8.445805	-1.337161	-1.358104	-1.273169	0.990227	0.115712	0.044837	0.063640
02713	-2.655323	1.126532	8.606492	-1.882601	-1.269035	-1.024239	0.990052	0.117567	0.045162	0.062727
02714	-2.523650	0.910705	9.240669	-1.662900	-1.626442	-0.475793	0.990032	0.118260	0.044871	0.061955
02715	-2.612317	0.929916	9.061632	-1.780477	-1.574724	-0.639235	0.990175	0.117458	0.044183	0.061689
02716	-2.601790	0.671467	8.872163	-1.770711	-1.757940	-0.884662	0.990359	0.116103	0.043883	0.061516
02717	-2.544720	0.736084	10.127116	-1.600064	-1.945525	0.347553	0.990577	0.114073	0.044131	0.061615
02718	-3.148820	0.747010	10.621011	-2.149183	-2.075061	0.880944	0.990896	0.111105	0.044224	0.061854
02719	-2.960316	0.836527	9.502670	-2.087233	-1.651237	-0.185618	0.991296	0.107592	0.044084	0.061741
02720	-2.694277	0.965623	8.950401	-1.901262	-1.307590	-0.703554	0.991703	0.104268	0.043758	0.061144
02721	-2.466903	0.724602	9.166148	-1.641605	-1.496092	-0.555503	0.992094	0.101289	0.043141	0.060234
02722	-2.789363	0.635437	9.345973	-1.950741	-1.604331	-0.370654	0.992454	0.098712	0.042419	0.059093
02723	-3.390905	0.474491	9.473522	-2.532865	-1.808338	-0.232225	0.992787	0.096440	0.041968	0.057542
02724	-2.682557	0.738715	10.196088	-1.802748	-1.551952	0.485046	0.993100	0.094230	0.041935	0.055805
02725	-2.352568	0.631190	10.467554	-1.444557	-1.612545	0.714198	0.993432	0.091701	0.042011	0.054031
02726	-2.759955	0.372291	10.285586	-1.845503	-1.815638	0.523967	0.993788	0.088937	0.041866	0.052178
02727	-2.850831	0.346981	9.257079	-2.034455	-1.603829	-0.473011	0.994135	0.086271	0.041689	0.050143
02728	-2.670442	0.593923	9.165836	-1.891322	-1.274405	-0.523168	0.994385	0.084169	0.041815	0.048632
02729	-2.736084	0.683583	9.771805	-1.912731	-1.250332	0.097891	0.994605	0.082034	0.041813	0.047778
02730	-2.766462	0.599249	8.983165	-2.001825	-1.158528	-0.682520	0.994806	0.079593	0.042446	0.047164
02731	-3.122286	0.604677	8.863031	-2.347161	-1.124956	-0.763229	0.994923	0.077482	0.044142	0.046649
02732	-2.859636	0.498651	10.239503	-1.920640	-1.377325	0.564569	0.995020	0.075658	0.045767	0.045998
02733	-3.043875	0.507127	11.221961	-1.988329	-1.493294	1.557061	0.995165	0.073813	0.046472	0.045152
02734	-3.894495	0.936834	8.347068	-3.134318	-0.688926	-1.128237	0.995257	0.073162	0.046866	0.043760
02735	-3.724340	0.272754	8.951669	-2.834296	-1.421653	-0.646283	0.995065	0.075656	0.048747	0.041785
02736	-2.517815	0.105916	11.189221	-1.376775	-1.837699	1.424599	0.995072	0.076224	0.049508	0.039630
02737	-2.511916	1.307853	9.399039	-1.625558	-0.374317	-0.139034	0.995117	0.075972	0.050012	0.038326
02738	-3.116147	1.147077	8.869150	-2.252812	-0.503071	-0.627935	0.995025	0.077231	0.051068	0.036774
02739	-2.817569	0.789691	8.043707	-1.991529	-0.722917	-1.519644	0.994802	0.079518	0.053099	0.035013
02740	-2.921996	1.068730	8.251850	-2.046250	-0.524592	-1.250528	0.994459	0.082334	0.055984	0.033724
02741	-2.777885	1.048511	7.860684	-1.893484	-0.502416	-1.641498	0.994133	0.084260	0.059241	0.033031
02742	-2.369708	1.291489	8.119970	-1.412982	-0.301409	-1.378848	0.993804	0.085618	0.062820	0.032809
02743	-1.765248	1.657883	6.977674	-0.922137	0.274420	-2.489667	0.993369	0.087863	0.066398	0.033022
02744	-2.269525	1.245143	8.401569	-1.144854	-0.486098	-1.109857	0.992577	0.093636	0.070338	0.032795
02745	-1.782391	-2.045278	8.653524	-0.396022	-3.795661	-1.585957	0.991993	0.097356	0.073761	0.032108
02746	-3.061406	1.199122	8.199552	-1.825211	-0.664980	-1.194751	0.991699	0.097628	0.077327	0.031987
02747	-2.355633	1.435953	8.630100	-1.015136	-0.471073	-0.821752	0.991386	0.098362	0.080262	0.032194
02748	-2.210120	1.468913	9.547789	-0.672027	-0.628102	0.054237	0.991034	0.099834	0.082797	0.032092
02749	-1.863548	1.477848	9.759449	-0.246528	-0.663631	0.207404	0.990673	0.101439	0.085080	0.032227
02750	-1.732182	1.700535	9.457233	-0.135283	-0.406976	-0.058337	0.990308	0.103157	0.087131	0.032499
02751	-2.000425	1.254592	9.265282	-0.373592	-0.864799	-0.297784	0.989868	0.105654	0.088988	0.032859
02752	-2.051829	1.063131	9.511141	-0.335506	-1.161877	-0.099855	0.989367	0.108848	0.090631	0.033029
02753	-1.888448	1.713519	10.143101	-0.052985	-0.718617	0.621158	0.988839	0.112334	0.092201	0.032829
02754	-1.900762	2.121082	10.094183	-0.057714	-0.378215	0.668613	0.988386	0.115191	0.093602	0.032610
02755	-1.622622	1.931789	9.635014	0.166921	-0.485697	0.133880	0.987977	0.117512	0.094995	0.032687
02756	-1.146497	2.260211	9.519177	0.628500	-0.135235	0.017079	0.987661	0.118832	0.096556	0.032880
02757	-1.763744	1.858268	9.262474	0.023187	-0.537172	-0.217472	0.987392	0.119561	0.098362	0.032957
02758	-1.772940	1.780680	11.384265	0.477090	-1.118993	1.781954	0.987227	0.119431	0.100087	0.033182
02759	-0.366266	1.555638	9.124009	1.437304	-0.656625	-0.685557	0.987304	0.117280	0.101524	0.034199
02760	-0.267979	2.017300	9.488947	1.623250	-0.247525	-0.247911	0.987114	0.115848	0.104139	0.036602
02761	-0.650153	2.471752	10.862384	1.564424	-0.110506	1.235549	0.986996	0.113429	0.106704	0.039843
02762	-0.098998	2.102684	8.771478	1.707361	0.123908	-0.956121	0.987042	0.109154	0.109172	0.043764
02763	-0.470948	0.625627	7.216328	1.137241	-0.952488	-2.707233	0.986627	0.106066	0.113503	0.049337
02764	-1.805003	0.670171	7.623251	0.010490	-1.135304	-2.032495	0.985612	0.106472	0.118926	0.055576
02765	-1.602527	1.667227	10.813153	0.999035	-0.809164	1.169942	0.984458	0.107561	0.123891	0.062641
02766	-2.350647	2.019138	14.489126	1.242810	-1.307630	4.893856	0.984082	0.105151	0.124635	0.070648
02767	-1.380205	0.907330	4.991437	-0.149134	-0.325389	-4.567260	0.983775	0.102922	0.123454	0.079699
02768	1.781545	0.673957	6.692908	3.345626	-0.289763	-3.717942	0.981927	0.107364	0.125013	0.093084
02769	1.484040	1.693122	9.580722	3.664046	0.046454	-0.678593	0.979448	0.114000	0.124974	0.109852
02770	-1.143962	2.402499	9.466904	0.999037	0.028774	-0.029891	0.976671	0.118686	0.125283	0.127794
02771	-3.000874	1.044292	11.082318	-0.012181	-2.228474	1.498597	0.974205	0.123347	0.123329	0.143175
02772	-2.036044	0.692020	12.091628	1.245471	-2.618401	2.121425	0.971702	0.128087	0.120850	0.157429
02773	-1.978067	0.761559	12.674464	1.435913	-2.798834	2.646758	0.968896	0.132859	0.118444	0.171930
02774	-3.460736	1.512313	13.164690	-0.014542	-2.912504	3.569692	0.966197	0.136120	0.116161	0.185585
02775	-4.248166	3.041783	13.864553	-1.064038	-2.104760	4.814776	0.964665	0.134901	0.114234	0.195379
02776	-3.298729	3.652230	14.610728	-0.287045	-1.297396	5.547200	0.964473	0.129473	0.112736	0.200797
02777	-2.679322	4.546461	15.367036	0.057129	-0.240190	6.433215	0.964886	0.122195	0.111329	0.204130
02778	-3.388113	5.250314	16.474977	-0.656547	0.096239	7.794783	0.965440	0.114076	0.109748	0.207046
02779	-4.485069	6.241094	17.312828	-1.925027	0.637929	9.020222	0.966193	0.104731	0.108127	0.209310
02780	-5.182421	8.291254	17.205493	-3.512128	2.527008	9.497813	0.967245	0.093772	0.106412	0.210523
02781	-5.324884	10.395100	16.655036	-4.756794	4.818148	9.369152	0.968365	0.082152	0.104830	0.211026
02782	-5.453606	12.476398	16.098963	-5.973689	7.087909	9.125084	0.969213	0.071346	0.103863	0.211538
02783	-5.939248	14.623537	16.083119	-7.374846	9.167378	9.405713	0.969749	0.061997	0.104079	0.211923
02784	-6.889901	15.914655	16.189809	-8.762596	10.224178	9.720146	0.970019	0.054730	0.105705	0.211881
02785	-6.976759	16.378966	15.861959	-9.061901	10.861857	9.382243	0.969935	0.050303	0.109267	0.211557
02786	-5.710673	16.012645	14.745538	-7.919428	11.269819	7.983880	0.969555	0.048871	0.114494	0.210868
02787	-4.638729	15.533684	13.228055	-6.947557	11.429896	6.277019	0.969035	0.049753	0.120683	0.209600
02788	-3.881201	15.248922	12.165301	-6.196208	11.573656	5.128501	0.968783	0.051661	0.126779	0.206685
02789	-3.203687	14.706413	11.320830	-5.345992	11.442122	4.158511	0.968954	0.053779	0.132359	0.201784
02790	-3.041390	14.324093	10.930175	-4.884147	11.233566	3.746182	0.969523	0.055801	0.137080	0.195243
02791	-2.878833	13.864478	10.115147	-4.520488	10.989631	2.900035	0.970379	0.057929	0.140978	0.187440
02792	-2.423432	13.759032	9.162962	-4.067739	11.182688	1.914928	0.971226	0.061109	0.144613	0.179091
02793	-2.739749	13.769539	8.187236	-4.342355	11.176183	1.158389	0.971913	0.066381	0.148349	0.170211
02794	-2.087053	13.973868	7.270570	-3.765397	11.663643	0.299380	0.972369	0.074205	0.152308	0.160605
02795	-1.199812	12.974450	6.236305	-2.638925	11.072689	-0.919847	0.972376	0.084850	0.157152	0.150292
02796	0.297467	12.381439	5.452172	-0.996005	10.979990	-1.967773	0.971966	0.098085	0.162190	0.139122
02797	1.843571	11.476577	5.108200	0.895757	10.479419	-2.701891	0.971154	0.113152	0.166536	0.127762
02798	3.190862	10.287546	5.776302	2.970816	9.391443	-2.578273	0.969654	0.129012	0.171430	0.117214
02799	3.074940	8.739833	4.760826	3.095573	7.879284	-3.744243	0.967183	0.145556	0.178046	0.108025
02800	3.294024	6.985072	3.732762	3.438509	6.321300	-5.145520	0.964174	0.164763	0.182874	0.098885
02801	3.380738	5.294724	4.211039	4.121472	4.387955	-5.236037	0.960723	0.185516	0.186486	0.088424
02802	3.450546	3.540903	4.633217	4.679880	2.378328	-5.529636	0.956912	0.206675	0.189017	0.076664
02803	3.022978	2.680778	4.933913	4.570386	1.092862	-5.502591	0.952706	0.228464	0.189980	0.063748
02804	3.991289	2.234887	5.537328	5.778509	0.315305	-5.559931	0.948092	0.250329	0.189296	0.051219
02805	3.275735	1.643458	5.269309	5.040478	-0.543464	-5.877378	0.943024	0.272511	0.186763	0.039543
02806	2.176335	2.284288	5.724283	4.203096	-0.753042	-4.865078	0.937552	0.294814	0.182584	0.027286
02807	1.975543	3.040884	5.980981	4.140770	-0.650786	-4.214297	0.932190	0.314958	0.177902	0.013227
02808	2.080040	1.990371	6.639861	4.333946	-2.200896	-4.451798	0.926995	0.332173	0.174165	-0.002836
02809	2.909026	-0.229531	7.476570	4.999662	-4.670310	-5.618193	0.921727	0.347653	0.170742	-0.020108
02810	4.236212	-1.869456	7.956275	5.938223	-6.417726	-6.935526	0.916406	0.362169	0.166431	-0.036533
02811	3.919042	-3.456294	8.227220	5.150211	-8.042965	-7.872659	0.911424	0.375463	0.160316	-0.051305
02812	2.569403	-4.356722	8.809628	3.517379	-9.320156	-7.827362	0.906857	0.387277	0.153036	-0.064864
02813	1.479350	-4.171447	9.538858	2.365688	-9.862095	-7.036052	0.902764	0.397343	0.145460	-0.077308
02814	0.750009	-2.137548	10.068659	1.992739	-8.999806	-5.172330	0.899287	0.405579	0.137681	-0.088501
02815	0.097468	-0.447103	10.404585	1.619550	-8.230875	-3.641141	0.896531	0.411578	0.130319	-0.099259
02816	-0.341546	0.291862	10.765989	1.223915	-8.093318	-2.805305	0.894049	0.416280	0.123813	-0.109809
02817	0.442091	1.168086	10.929026	2.026436	-7.832921	-2.360314	0.891588	0.420555	0.117825	-0.119676
02818	1.526810	0.752735	10.537724	2.668916	-8.004920	-3.275490	0.889178	0.424801	0.111410	-0.128432
02819	2.167439	-0.357300	10.204468	2.672401	-8.595787	-4.528515	0.886510	0.430148	0.104016	-0.135109
02820	1.672028	-0.166359	10.397166	2.061956	-8.660727	-4.186041	0.883418	0.437185	0.095290	-0.139146
02821	-0.488696	1.244323	10.410815	0.267145	-7.596088	-2.574234	0.880631	0.443554	0.086293	-0.142486
02822	-1.515944	1.305142	10.740140	-0.888298	-7.702525	-2.116555	0.878673	0.447573	0.078531	-0.146440
02823	-2.217594	2.067698	10.704459	-1.480429	-7.136893	-1.407361	0.877399	0.449759	0.072459	-0.150459
02824	-1.493613	3.273961	10.372208	-0.535123	-6.356547	-0.877413	0.876522	0.450915	0.067530	-0.154352
02825	-1.137062	3.661121	9.917548	-0.171632	-5.849934	-0.935615	0.875945	0.451389	0.063052	-0.158090
02826	-1.081611	4.046704	9.462457	-0.067078	-5.281339	-0.914025	0.875345	0.451985	0.059261	-0.161147
02827	-0.130488	3.793444	8.712304	0.700867	-5.034110	-1.782895	0.874568	0.453071	0.055816	-0.163532
02828	1.941166	3.572858	7.373665	2.575898	-4.573273	-3.228328	0.874148	0.454064	0.051351	-0.164481
02829	1.344488	3.201981	6.665187	1.854619	-4.055809	-3.763297	0.874454	0.454298	0.045009	-0.164066
02830	-1.204221	3.320316	6.645416	-0.596933	-3.322771	-3.086749	0.875453	0.453071	0.038517	-0.163786
02831	-1.963653	3.722911	6.905695	-1.285121	-3.071982	-2.442800	0.877124	0.449905	0.033714	-0.164626
02832	-1.276900	3.729153	7.395432	-0.733492	-3.556423	-2.260056	0.879652	0.444642	0.030344	-0.166090
02833	-1.284297	3.196959	7.871766	-0.991760	-4.116894	-2.335999	0.882680	0.438426	0.027424	-0.167053
02834	-2.724918	3.327830	8.669892	-2.415922	-4.163431	-1.416588	0.885593	0.432653	0.025158	-0.167044
02835	-2.703318	4.448464	9.332239	-2.118243	-3.927193	-0.103109	0.888603	0.426479	0.024260	-0.167067
02836	-2.384613	5.750723	9.118197	-1.361835	-2.964319	0.735059	0.891725	0.420061	0.024864	-0.166607
02837	-1.900681	7.125621	8.412933	-0.361572	-1.633001	1.249231	0.894028	0.415506	0.026113	-0.165490
02838	-0.498685	8.045762	7.412971	1.370787	-0.629804	1.034383	0.895609	0.412537	0.026410	-0.164320
02839	-0.964522	7.756629	7.043607	0.860831	-0.347049	0.668075	0.896400	0.411695	0.025371	-0.162266
02840	-2.828777	7.878493	7.629896	-0.963334	-0.195409	1.470996	0.896515	0.412359	0.023721	-0.160184
02841	-3.234303	7.222224	7.875754	-1.624983	-0.684350	1.211811	0.896236	0.413692	0.022045	-0.158538
02842	-3.368988	6.568127	7.999144	-2.010457	-1.167039	0.820867	0.895719	0.415491	0.020643	-0.156935
02843	-3.044763	5.812963	8.131896	-1.980625	-1.842372	0.280451	0.895273	0.417079	0.019510	-0.155403
02844	-3.201433	5.084077	8.621596	-2.418365	-2.624210	0.071337	0.895500	0.417063	0.018913	-0.154206
02845	-3.270567	4.910724	8.834616	-2.559671	-2.861441	0.092990	0.896321	0.415786	0.019329	-0.152830
02846	-2.657954	5.266617	8.759325	-1.843978	-2.724890	0.222364	0.897507	0.413800	0.021051	-0.151019
02847	-2.881211	5.700202	8.670078	-1.872177	-2.296691	0.540256	0.899237	0.410574	0.024247	-0.149042
02848	-1.112258	5.793647	7.933906	-0.022736	-2.062910	-0.143508	0.901474	0.405942	0.027944	-0.147561
02849	1.378732	6.011967	6.361213	2.596242	-1.271440	-1.437042	0.904201	0.400591	0.030496	-0.144975
02850	0.542383	7.480581	5.795725	2.276233	0.392914	-0.619929	0.907058	0.395194	0.031369	-0.141715
02851	-0.644609	9.787962	5.976170	1.768057	2.149247	1.331263	0.909541	0.390370	0.031399	-0.139145
02852	-0.386286	10.564417	6.187452	2.193235	2.556689	1.964105	0.911323	0.386873	0.030604	-0.137417
02853	-0.762976	9.528225	6.415513	1.496149	1.866320	1.448135	0.912092	0.385667	0.028869	-0.136071
02854	-1.246805	8.225570	6.440617	0.627021	1.112053	0.630781	0.911997	0.386458	0.026617	-0.134922
02855	-1.172352	7.031775	6.804656	0.309937	0.029147	0.037517	0.911625	0.387880	0.024988	-0.133660
02856	-1.802480	6.317060	7.059743	-0.532951	-0.495333	-0.196829	0.911521	0.388200	0.023801	-0.133658
02857	-1.159555	6.014231	6.887651	0.004585	-0.706163	-0.622664	0.911970	0.386968	0.023133	-0.134282
02858	-0.394002	6.538612	6.319095	0.915334	-0.094326	-0.757702	0.912795	0.384670	0.022438	-0.135389
02859	-0.502958	8.326344	6.369353	1.290588	1.139980	0.540280	0.913988	0.381022	0.021820	-0.137736
02860	0.600723	6.715201	5.166434	2.016946	0.709324	-1.592256	0.914776	0.378364	0.020602	-0.140004
02861	0.773328	5.728922	5.036816	1.913729	0.107785	-2.388805	0.914267	0.379362	0.018373	-0.140938
02862	-0.546797	6.385150	6.654147	0.660022	-0.276140	-0.602111	0.913970	0.379864	0.015143	-0.141889
02863	-1.036352	6.337593	7.083191	0.096126	-0.478536	-0.264268	0.913953	0.379169	0.011994	-0.144145
02864	-1.650178	5.943094	7.981800	-0.719666	-1.177231	0.179734	0.914380	0.377304	0.009215	-0.146516
02865	-2.793930	5.725633	8.280178	-1.933403	-1.180152	0.386294	0.914666	0.375832	0.007050	-0.148617
02866	-2.531173	5.719434	7.565428	-1.615494	-0.723474	-0.157577	0.914772	0.374779	0.007043	-0.150612
02867	-3.068825	6.310999	8.532299	-2.037086	-0.807190	1.015277	0.915373	0.372326	0.007831	-0.152986
02868	-0.775624	5.661092	6.318742	0.227721	-0.306642	-1.302108	0.915984	0.369808	0.008258	-0.155393
02869	-0.821759	6.399813	6.095956	0.440834	0.397308	-0.955981	0.916553	0.367550	0.007662	-0.157412
02870	-1.341013	7.619280	6.761674	0.251371	0.960740	0.414020	0.916942	0.365299	0.006999	-0.160390
02871	-3.013767	9.035003	10.024201	-1.232249	0.255516	3.957368	0.917222	0.363285	0.007475	-0.163315
02872	-1.318290	7.734203	9.088472	0.110743	-0.480646	2.183678	0.916790	0.363884	0.007723	-0.164391
02873	-1.428020	7.027623	8.209219	-0.104977	-0.346299	1.081671	0.916552	0.364126	0.007606	-0.165185
02874	-1.503847	6.146341	7.808546	-0.397770	-0.644180	0.209250	0.916653	0.363338	0.007509	-0.166364
02875	-1.639088	6.374135	8.124381	-0.480284	-0.639435	0.612385	0.916922	0.362072	0.007493	-0.167635
02876	-1.514908	6.414254	7.464298	-0.267964	-0.189839	0.139472	0.916937	0.361664	0.007332	-0.168437
02877	-1.470533	6.751586	7.426249	-0.111704	0.056499	0.330284	0.916874	0.361488	0.007265	-0.169160
02878	-1.225855	6.439904	7.101663	0.066762	-0.005245	-0.148103	0.916985	0.360822	0.007563	-0.169969
02879	-1.584594	6.339063	6.752867	-0.241274	0.287105	-0.423592	0.917281	0.359468	0.008593	-0.171188
02880	-2.072394	6.783056	6.720743	-0.521538	0.780783	-0.086882	0.917477	0.358401	0.009915	-0.172299
02881	-1.703415	7.397497	6.726271	0.055189	1.088095	0.270974	0.917419	0.358154	0.011104	-0.173046
02882	-1.319640	7.292461	6.909155	0.388213	0.774150	0.282251	0.917370	0.358080	0.012276	-0.173378
02883	-1.696045	6.895631	7.130594	-0.097654	0.473129	0.239091	0.917412	0.357940	0.013214	-0.173378
02884	-1.975774	6.492019	7.351115	-0.504216	0.138459	0.178082	0.917437	0.357941	0.013569	-0.173213
02885	-2.212521	6.282843	7.261073	-0.786222	0.129010	0.008603	0.917425	0.358005	0.013232	-0.173170
02886	-2.183042	6.101110	7.174387	-0.818443	0.054528	-0.180023	0.917362	0.358112	0.012460	-0.173340
02887	-2.016569	6.185131	7.138155	-0.642783	0.088482	-0.176576	0.917367	0.357877	0.011571	-0.173860
02888	-2.021492	5.706306	6.837013	-0.780871	-0.027382	-0.714194	0.917319	0.357672	0.010751	-0.174588
02889	-1.710788	6.129123	6.391240	-0.306266	0.457888	-0.810608	0.917061	0.358047	0.010486	-0.175188
02890	-1.094065	7.047454	6.381117	0.578998	0.879568	-0.300941	0.916608	0.358844	0.010837	-0.175905
02891	-0.560429	7.132036	6.593233	1.096170	0.602716	-0.164589	0.915993	0.360029	0.011638	-0.176638
02892	-0.138742	6.941704	6.962833	1.403220	0.061666	-0.080546	0.915319	0.361562	0.012732	-0.176924
02893	-0.683461	6.998055	7.701041	0.848336	-0.259047	0.577644	0.914682	0.363096	0.014006	-0.176982
02894	-1.391562	6.439566	8.327957	-0.049195	-0.864644	0.770752	0.914198	0.364216	0.015193	-0.177085
02895	-1.523563	6.029066	8.162282	-0.271675	-1.010295	0.395111	0.913887	0.364921	0.016407	-0.177126
02896	-1.315559	5.998861	7.550387	-0.002573	-0.696877	-0.104975	0.913818	0.365184	0.017624	-0.176824
02897	-1.692008	6.364349	7.294030	-0.188913	-0.170216	0.011060	0.913857	0.365334	0.018728	-0.176196
02898	-1.625198	6.997401	7.056840	0.129237	0.385892	0.249032	0.913968	0.365322	0.020394	-0.175461
02899	-1.856997	7.394089	7.063966	0.073168	0.712407	0.555901	0.914067	0.365211	0.022459	-0.174925
02900	-1.504043	7.191281	7.134847	0.368149	0.414562	0.413511	0.914039	0.365199	0.024909	-0.174763
02901	-1.581935	6.774170	7.492711	0.172384	-0.092574	0.409546	0.913934	0.365173	0.027750	-0.174936
02902	-1.194660	6.407890	7.667330	0.451965	-0.583666	0.223795	0.913791	0.365225	0.030710	-0.175084
02903	-1.282211	6.041364	7.872499	0.285713	-0.956034	0.143338	0.913639	0.365507	0.033921	-0.174694
02904	-1.682459	6.269200	8.008136	0.032978	-0.794735	0.465000	0.913525	0.365817	0.036717	-0.174075
02905	-2.074157	6.526684	7.929021	-0.190132	-0.467875	0.652197	0.913517	0.365817	0.039496	-0.173507
02906	-2.115681	7.003051	7.656493	0.007899	0.043610	0.776855	0.913702	0.365229	0.042784	-0.172992
02907	-2.203508	6.785317	7.441310	-0.075307	0.073930	0.495443	0.913999	0.364318	0.046291	-0.172438
02908	-2.085623	6.915883	7.457834	0.143746	0.124675	0.568160	0.914372	0.363282	0.049782	-0.171672
02909	-1.780654	7.103187	7.449104	0.555428	0.183280	0.616730	0.914833	0.362169	0.053090	-0.170575
02910	-2.034607	6.369576	7.360573	0.114647	-0.169025	0.129508	0.915269	0.361226	0.055853	-0.169349
02911	-1.683870	5.838010	7.339251	0.298418	-0.604421	-0.308589	0.915499	0.360822	0.058256	-0.168153
02912	-1.832453	5.900079	7.812343	0.207526	-0.850781	0.108729	0.915503	0.360967	0.060492	-0.167024
02913	-1.773515	5.926353	7.833770	0.306891	-0.875631	0.125820	0.915425	0.361293	0.062760	-0.165908
02914	-2.505644	6.044156	7.660996	-0.301104	-0.503155	0.244995	0.915283	0.361759	0.065066	-0.164782
02915	-2.247657	6.524552	7.499188	0.144443	-0.150438	0.376323	0.915126	0.362165	0.067404	-0.163819
02916	-2.365365	6.632681	7.370052	0.109116	0.024889	0.380074	0.914954	0.362501	0.069835	-0.163020
02917	-3.236656	6.508452	7.516173	-0.710026	0.040506	0.619128	0.914747	0.362784	0.072271	-0.162490
02918	-2.555384	6.187129	7.094508	-0.150128	-0.072883	-0.060015	0.914457	0.363247	0.074361	-0.162141
02919	-2.883333	6.132362	7.238052	-0.441944	-0.145968	0.091460	0.914173	0.363650	0.076193	-0.161988
02920	-2.793754	6.110387	7.111119	-0.336378	-0.107770	-0.035927	0.914022	0.363762	0.078068	-0.161699
02921	-3.254168	6.012922	6.813549	-0.777301	0.135470	-0.192570	0.913958	0.363680	0.079799	-0.161400
02922	-2.737073	6.195890	6.816312	-0.201473	0.128811	-0.206154	0.913907	0.363565	0.081400	-0.161150
02923	-2.191338	6.417186	7.050078	0.419968	-0.015057	-0.039808	0.913894	0.363317	0.082927	-0.161002
02924	-2.083051	6.596117	7.348979	0.619839	-0.124612	0.259827	0.913912	0.362916	0.084211	-0.161139
02925	-2.267975	6.715777	7.365409	0.514011	-0.004813	0.396639	0.913984	0.362370	0.085147	-0.161464
02926	-2.630554	6.418010	7.257589	0.082889	-0.039076	0.225981	0.914062	0.361909	0.085646	-0.161795
02927	-2.989704	6.138971	7.253187	-0.343949	-0.133232	0.142108	0.914144	0.361539	0.085656	-0.162155
02928	-3.203755	5.914983	7.092246	-0.629373	-0.114550	-0.058622	0.914248	0.361167	0.085214	-0.162627
02929	-3.280971	5.848060	6.857878	-0.740680	0.030462	-0.249973	0.914342	0.360905	0.084310	-0.163151
02930	-3.325566	5.821806	6.850033	-0.806517	0.038258	-0.261572	0.914418	0.360765	0.083072	-0.163672
02931	-3.179627	5.824531	6.928530	-0.686990	-0.041628	-0.243675	0.914451	0.360787	0.081640	-0.164156
02932	-2.439219	6.201852	7.153564	0.123100	-0.115442	-0.037324	0.914433	0.360882	0.080212	-0.164750
02933	-1.371673	6.421179	7.155861	1.177956	-0.228429	-0.175282	0.914366	0.360989	0.078934	-0.165506
02934	-0.928650	6.604602	7.463770	1.648185	-0.426542	0.051012	0.914264	0.361048	0.077986	-0.166385
02935	-1.068943	6.261995	7.585162	1.388612	-0.709254	-0.042395	0.914093	0.361057	0.077476	-0.167539
02936	-1.497675	5.962696	7.755961	0.884564	-0.923962	0.001361	0.913831	0.361121	0.077368	-0.168877
02937	-2.083126	5.809967	7.856698	0.293723	-0.951035	0.128744	0.913479	0.361258	0.077558	-0.170391
02938	-2.826129	5.647583	7.640077	-0.446801	-0.723452	0.063038	0.913114	0.361412	0.077851	-0.171881
02939	-3.576025	5.580058	7.507646	-1.154908	-0.482405	0.123268	0.912802	0.361371	0.078139	-0.173490
02940	-3.468270	5.435313	7.434754	-1.094097	-0.555011	-0.048366	0.912475	0.361353	0.078423	-0.175108
02941	-3.370969	5.410585	7.507805	-1.001539	-0.644780	-0.035870	0.912185	0.361370	0.078259	-0.176651
02942	-3.160330	5.458901	7.631960	-0.786316	-0.751187	0.028630	0.911863	0.361529	0.077494	-0.178320
02943	-2.779385	5.506913	7.967259	-0.425589	-1.052403	0.199285	0.911456	0.361927	0.076004	-0.180225
02944	-2.165871	5.449294	8.108345	0.090295	-1.362582	0.100241	0.910915	0.362847	0.073678	-0.182067
02945	-2.029687	5.700348	8.311818	0.264244	-1.387613	0.370845	0.910306	0.364171	0.070609	-0.183673
02946	-2.091573	5.596034	8.844564	0.097592	-1.817846	0.704067	0.909865	0.365016	0.066937	-0.185547
02947	-1.838379	7.105921	8.646009	0.845144	-0.750873	1.472199	0.909803	0.364947	0.062668	-0.187469
02948	-1.827169	8.160016	8.085184	1.203354	0.353732	1.751087	0.910166	0.364069	0.058307	-0.188819
02949	-2.003001	9.151077	7.635406	1.367795	1.419533	2.110693	0.911016	0.362150	0.054133	-0.189646
02950	-1.389041	9.539471	8.284231	1.989442	1.127079	2.690515	0.912490	0.358721	0.050612	-0.190051
02951	-1.115426	8.622490	8.698863	1.830805	0.284798	2.345703	0.915028	0.352692	0.048832	-0.189597
02952	-1.853080	5.864572	7.193383	0.177338	-0.173529	-0.351825	0.918489	0.344256	0.049213	-0.188268
02953	-2.691950	5.467484	6.803687	-0.719500	0.210373	-0.709545	0.920772	0.338623	0.048326	-0.187557
02954	-2.204597	4.670662	7.783153	-0.614032	-1.027557	-0.548826	0.922546	0.333881	0.047417	-0.187573
02955	-2.031122	3.056205	5.967763	-0.987564	-0.980782	-2.946649	0.923942	0.329812	0.045989	-0.188259
02956	-1.885827	4.059971	7.507741	-0.566221	-1.235921	-1.178018	0.924354	0.328272	0.043031	-0.189620
02957	-1.824216	5.079837	7.795201	-0.184147	-0.676227	-0.357205	0.924441	0.327260	0.039291	-0.191745
02958	-0.092536	1.751624	7.372735	0.098979	-3.358595	-3.019839	0.921821	0.332630	0.034292	-0.196029
02959	-2.080431	7.667295	8.520811	0.339785	0.613322	1.815929	0.918443	0.340027	0.027580	-0.200207
02960	-2.268946	9.181559	6.059644	0.881127	3.173694	0.925979	0.916749	0.343732	0.023703	-0.202132
02961	-2.662035	8.135575	5.619550	0.137743	2.855983	0.019796	0.916875	0.343190	0.023843	-0.202467
02962	-2.840546	6.060385	6.894969	-0.945367	0.704808	-0.276072	0.917132	0.342357	0.024592	-0.202621
02963	-2.039278	5.663764	7.184487	-0.383659	-0.026557	-0.447549	0.917177	0.342018	0.024574	-0.202992
02964	-1.428874	5.606007	7.363943	0.136748	-0.395865	-0.457409	0.917060	0.342021	0.024385	-0.203538
02965	-1.069055	5.736083	7.468582	0.506869	-0.506626	-0.362203	0.916840	0.342270	0.024322	-0.204116
02966	-1.146350	5.671776	7.587851	0.401191	-0.605881	-0.297931	0.916577	0.342619	0.024398	-0.204705
02967	-1.574841	5.714071	7.787887	0.008641	-0.558045	-0.041791	0.916319	0.342880	0.024389	-0.205419
02968	-1.493794	6.123686	7.419465	0.284330	-0.081067	-0.081707	0.916014	0.343220	0.024368	-0.206213
02969	-1.391395	6.419319	7.534483	0.486137	-0.001333	0.171087	0.915704	0.343605	0.024371	-0.206948
02970	-1.652705	6.437653	7.780989	0.230323	-0.059208	0.417759	0.915459	0.343837	0.024052	-0.207683
02971	-1.818686	6.272215	7.777817	0.008551	-0.109846	0.342636	0.915267	0.343917	0.023320	-0.208477
02972	-1.722691	6.208506	7.672349	0.071559	-0.118877	0.205241	0.915091	0.343965	0.022369	-0.209274
02973	-1.842584	5.877649	7.644605	-0.178220	-0.275821	-0.000755	0.914918	0.343935	0.021407	-0.210180
02974	-1.744464	5.878990	7.645542	-0.100281	-0.308598	-0.017040	0.914705	0.343968	0.020420	-0.211149
02975	-1.785227	5.809507	7.487103	-0.158435	-0.237874	-0.173578	0.914407	0.344205	0.019527	-0.212135
02976	-1.750485	5.857988	7.432340	-0.110901	-0.188206	-0.191244	0.914020	0.344706	0.018805	-0.213052
02977	-1.824507	5.845326	7.700969	-0.224266	-0.350270	0.017297	0.913615	0.345353	0.018172	-0.213794
02978	-1.701200	5.704666	7.837480	-0.198611	-0.589611	0.009547	0.913185	0.346089	0.017198	-0.214520
02979	-1.717439	5.583804	7.867424	-0.282058	-0.682639	-0.041339	0.913184	0.345734	0.016048	-0.215189
02980	-1.838543	4.631801	7.281234	-0.719045	-0.892224	-1.064141	0.912660	0.346631	0.014981	-0.216041
02981	-2.170080	5.180397	7.494480	-0.841172	-0.551481	-0.501336	0.912062	0.347689	0.014092	-0.216927
02982	-2.436537	5.160102	7.471505	-1.103268	-0.459558	-0.487542	0.911533	0.348521	0.013016	-0.217880
02983	-2.554161	5.219946	7.347578	-1.187138	-0.302718	-0.525195	0.911021	0.349264	0.011659	-0.218905
02984	-2.710617	5.214874	7.433230	-1.366042	-0.303729	-0.440554	0.910521	0.349901	0.009831	-0.220054
02985	-2.716886	5.103830	7.316872	-1.430446	-0.298164	-0.602258	0.909997	0.350457	0.007549	-0.221425
02986	-2.520355	5.133981	7.336353	-1.278200	-0.365764	-0.605932	0.909465	0.350942	0.005063	-0.222907
02987	-2.512748	5.209396	7.471741	-1.297785	-0.400487	-0.462079	0.908943	0.351294	0.002451	-0.224521
02988	-2.351174	5.402853	7.515990	-1.117889	-0.361635	-0.334904	0.908419	0.351621	-0.000164	-0.226137
02989	-2.388408	5.400058	7.646952	-1.212600	-0.424932	-0.237203	0.907849	0.352038	-0.002837	-0.227753
02990	-2.563913	5.403826	7.905450	-1.453272	-0.508678	-0.019821	0.907209	0.352581	-0.005549	-0.229407
02991	-2.425101	5.198540	8.234247	-1.516867	-0.904315	0.066073	0.906511	0.353215	-0.008435	-0.231096
02992	-2.259896	4.916292	8.256677	-1.537693	-1.164525	-0.131315	0.905749	0.353841	-0.011350	-0.232993
02993	-1.912760	4.795340	8.275063	-1.328669	-1.400736	-0.252195	0.904930	0.354623	-0.014023	-0.234834
02994	-1.656594	4.899778	8.476913	-1.142761	-1.577187	-0.075306	0.904101	0.355479	-0.016534	-0.236566
02995	-1.573061	4.882665	8.587286	-1.141904	-1.699577	-0.021683	0.903316	0.356328	-0.018843	-0.238108
02996	-1.426701	4.914827	8.650095	-1.054707	-1.790138	0.020827	0.902546	0.357206	-0.021103	-0.239520
02997	-1.286214	4.929427	8.648635	-0.966362	-1.850199	0.005421	0.901809	0.358110	-0.023255	-0.240742
02998	-1.269538	4.952216	8.709124	-0.996009	-1.890065	0.057495	0.901132	0.359010	-0.025236	-0.241734
02999	-1.325351	4.854472	8.716711	-1.126324	-1.938242	-0.000552	0.900513	0.359878	-0.027123	-0.242545
03000	-1.412067	4.696421	8.609170	-1.281043	-1.935398	-0.180390	0.899903	0.360757	-0.028954	-0.243291
03001	-1.417479	4.522343	8.541050	-1.378321	-2.004978	-0.352743	0.899279	0.361687	-0.030721	-0.244002
03002	-1.395324	4.320260	8.465727	-1.459610	-2.100448	-0.553224	0.898618	0.362673	-0.032418	-0.244752
03003	-1.414222	4.160066	8.312716	-1.538832	-2.102032	-0.778265	0.897913	0.363707	-0.034048	-0.245582
03004	-1.404633	4.147462	8.289218	-1.561406	-2.109885	-0.812917	0.897184	0.364785	-0.035595	-0.246426
03005	-1.298748	4.137940	8.184410	-1.476075	-2.110475	-0.915447	0.896455	0.365884	-0.036993	-0.247243
03006	-1.149492	4.157795	8.146982	-1.354862	-2.158840	-0.953479	0.895716	0.367058	-0.038227	-0.247990
03007	-1.015593	4.277911	8.034383	-1.183646	-2.094629	-0.975567	0.894995	0.368341	-0.039245	-0.248532
03008	-0.919390	4.446906	8.060196	-1.057701	-2.075405	-0.859426	0.894343	0.369695	-0.040016	-0.248748
03009	-0.823125	4.633192	8.036345	-0.909445	-2.017187	-0.766659	0.893761	0.371126	-0.040608	-0.248612
03010	-0.852107	4.786183	7.883359	-0.848616	-1.837194	-0.774686	0.893276	0.372533	-0.041066	-0.248173
03011	-0.935945	4.874693	7.757810	-0.868442	-1.687601	-0.800474	0.892862	0.373970	-0.041431	-0.247443
03012	-1.125566	4.978699	7.735628	-1.001973	-1.546732	-0.729853	0.892486	0.375483	-0.041763	-0.246449
03013	-1.142679	5.033508	7.654507	-0.991248	-1.479527	-0.753894	0.892149	0.377013	-0.042178	-0.245259
03014	-1.139207	4.973900	7.626042	-1.024681	-1.523386	-0.822514	0.891851	0.378532	-0.042660	-0.243917
03015	-1.116367	4.886966	7.662185	-1.070390	-1.633904	-0.867167	0.891609	0.380005	-0.043200	-0.242413
03016	-1.183540	4.744052	7.674085	-1.211186	-1.718206	-0.959491	0.891408	0.381440	-0.043773	-0.240790
03017	-1.322103	4.613861	7.578530	-1.381260	-1.689855	-1.111756	0.891241	0.382806	-0.044427	-0.239113
03018	-1.451288	4.554014	7.471130	-1.513484	-1.615222	-1.224126	0.891072	0.384143	-0.045223	-0.237443
03019	-1.515185	4.580102	7.395298	-1.566577	-1.540855	-1.260784	0.890830	0.385559	-0.046281	-0.235849
03020	-1.468125	4.921405	7.300997	-1.400442	-1.317751	-1.095901	0.890622	0.386810	-0.047601	-0.234317
03021	-1.410816	5.103445	7.407092	-1.345930	-1.323125	-0.905486	0.890450	0.387944	-0.049192	-0.232762
03022	-1.191595	5.222490	7.419569	-1.151270	-1.372947	-0.838628	0.890297	0.388965	-0.051042	-0.231242
03023	-1.059652	5.405383	7.389515	-1.003331	-1.314553	-0.745656	0.890138	0.389963	-0.053127	-0.229696
03024	-0.964021	5.533324	7.427513	-0.931462	-1.315247	-0.641142	0.890028	0.390872	-0.055392	-0.228037
03025	-0.844956	5.560722	7.473813	-0.881383	-1.388286	-0.604590	0.889977	0.391664	-0.057808	-0.226270
03026	-0.686355	5.584266	7.416995	-0.770284	-1.409044	-0.642740	0.889960	0.392376	-0.060338	-0.224438
03027	-0.573403	5.767332	7.330723	-0.637041	-1.294197	-0.579628	0.889959	0.393065	-0.062920	-0.222518
03028	-0.614064	6.077923	7.442758	-0.657073	-1.167786	-0.277640	0.889980	0.393699	-0.065485	-0.220562
03029	-0.549326	6.573757	7.506950	-0.511345	-0.946122	0.122774	0.889984	0.394303	-0.068152	-0.218651
03030	-0.357802	7.198869	7.453927	-0.182174	-0.624400	0.535709	0.889931	0.394942	-0.070988	-0.216804
03031	-0.092539	7.907507	7.263817	0.272146	-0.194350	0.919878	0.889793	0.395723	-0.073966	-0.214942
03032	0.144697	8.514410	7.141122	0.639529	0.140600	1.281566	0.889575	0.396663	-0.076941	-0.213062
03033	0.303339	8.802306	6.869661	0.877323	0.419042	1.314714	0.889311	0.397770	-0.079739	-0.211061
03034	0.548803	8.745372	6.634316	1.076897	0.427490	1.116811	0.888976	0.399094	-0.082283	-0.208985
03035	0.616706	8.501204	6.477272	1.040813	0.345968	0.836371	0.888584	0.400657	-0.084559	-0.206742
03036	0.570750	8.340758	6.420565	0.901554	0.292021	0.685846	0.888166	0.402354	-0.086578	-0.204394
03037	0.612001	8.322791	6.300326	0.907099	0.324626	0.599273	0.887730	0.404133	-0.088437	-0.201967
03038	0.635570	8.518395	6.263828	0.931719	0.432639	0.729935	0.887288	0.405910	-0.090261	-0.199526
03039	0.715112	8.816169	6.185570	1.047371	0.607008	0.912595	0.886917	0.407470	-0.092096	-0.197142
03040	0.813447	8.936766	5.949003	1.183314	0.782977	0.859917	0.886593	0.408867	-0.093890	-0.194844
