// General information: 
//  MT Manager version: 2021.0.0 
//  XDA version: 2021.0.0 build 5908 rev 109668 built on 2021-04-19
// Device information: 
//  DeviceId: 00B47AB0
//  ProductCode: MTW2-3A7G6
//  Firmware Version: 4.4.0
//  Hardware Version: 2.0.0
// Device settings: 
//  Filter Profile: human(46.1)
//  Option Flags: Orientation Smoother Disabled, Position/Velocity Smoother Disabled, Continuous Zero Rotation Update Disabled, AHS Disabled, ICC Disabled
// Coordinate system: ENU
PacketCounter	Acc_X	Acc_Y	Acc_Z	FreeAcc_E	FreeAcc_N	FreeAcc_U	Quat_q0	Quat_q1	Quat_q2	Quat_q3
17883	-0.061429	0.059024	9.663953	-0.007426	-0.021826	-0.148387	-1.000000	-0.000148	-0.000258	-0.000683
17884	-0.062012	0.058850	9.663950	-0.007849	-0.021943	-0.148387	-1.000000	-0.000134	-0.000260	-0.000670
17885	-0.083597	0.053784	9.644302	-0.029556	-0.026793	-0.167956	-1.000000	-0.000140	-0.000256	-0.000672
17886	-0.023531	0.071826	9.662078	0.030492	-0.008865	-0.150365	-1.000000	-0.000139	-0.000251	-0.000671
17887	-0.072337	0.086078	9.667004	-0.018328	0.005315	-0.145048	-1.000000	-0.000136	-0.000253	-0.000671
17888	-0.069660	0.082379	9.708166	-0.015373	0.001350	-0.103934	-1.000000	-0.000131	-0.000255	-0.000677
17889	-0.055064	0.094078	9.645489	-0.001271	0.013661	-0.166593	-1.000000	-0.000129	-0.000240	-0.000683
17890	-0.073500	0.085547	9.667000	-0.019598	0.004963	-0.145050	-1.000000	-0.000127	-0.000252	-0.000676
17891	-0.043626	0.062696	9.683590	0.010475	-0.018030	-0.128818	-1.000000	-0.000133	-0.000248	-0.000678
17892	-0.074331	0.085474	9.666994	-0.020441	0.004729	-0.145052	-1.000000	-0.000139	-0.000244	-0.000680
17893	-0.074731	0.085321	9.666993	-0.020864	0.004611	-0.145053	-1.000000	-0.000130	-0.000246	-0.000677
17894	-0.105206	0.044166	9.665786	-0.051255	-0.036431	-0.146432	-1.000000	-0.000125	-0.000247	-0.000684
17895	-0.087648	0.052451	9.644273	-0.033771	-0.027963	-0.167973	-1.000000	-0.000132	-0.000252	-0.000682
17896	-0.045801	0.062116	9.683584	0.008356	-0.018612	-0.128817	-1.000000	-0.000129	-0.000255	-0.000682
17897	-0.055484	0.089667	9.686641	-0.001284	0.008880	-0.125477	-1.000000	-0.000134	-0.000258	-0.000686
17898	-0.037836	0.097942	9.665134	0.016204	0.017350	-0.147012	-1.000000	-0.000130	-0.000252	-0.000693
17899	-0.026112	0.130331	9.687853	0.027832	0.049574	-0.124089	-1.000000	-0.000132	-0.000240	-0.000685
17900	-0.020655	0.169842	9.628243	0.032744	0.089506	-0.183396	-1.000000	-0.000138	-0.000235	-0.000686
17901	-0.044901	0.121748	9.709357	0.009068	0.040752	-0.102553	-1.000000	-0.000127	-0.000245	-0.000684
17902	-0.009069	0.074558	9.681739	0.044999	-0.005989	-0.130764	-1.000000	-0.000121	-0.000255	-0.000691
17903	-0.079268	0.083866	9.666969	-0.025096	0.003442	-0.145063	-1.000000	-0.000117	-0.000266	-0.000692
17904	-0.031404	0.069343	9.662074	0.022886	-0.010956	-0.150347	-1.000000	-0.000119	-0.000268	-0.000702
17905	-0.053121	0.064410	9.642406	0.001200	-0.015810	-0.169933	-1.000000	-0.000123	-0.000280	-0.000703
17906	-0.050506	0.060821	9.683569	0.004125	-0.019782	-0.128817	-1.000000	-0.000124	-0.000276	-0.000695
17907	-0.026675	0.044987	9.617848	0.027501	-0.035059	-0.194800	-1.000000	-0.000125	-0.000269	-0.000709
17908	-0.051121	0.060537	9.683567	0.003280	-0.020018	-0.128817	-1.000000	-0.000117	-0.000263	-0.000705
17909	-0.045712	0.099975	9.623964	0.008212	0.019920	-0.188119	-1.000000	-0.000125	-0.000260	-0.000700
17910	-0.043013	0.096372	9.665128	0.011130	0.015946	-0.147002	-1.000000	-0.000120	-0.000261	-0.000706
17911	-0.034571	0.132323	9.646692	0.019401	0.052028	-0.165186	-1.000000	-0.000129	-0.000258	-0.000703
17912	-0.052693	0.060265	9.683560	0.001585	-0.020486	-0.128818	-1.000000	-0.000133	-0.000261	-0.000705
17913	-0.044257	0.096285	9.665124	0.009856	0.015597	-0.147000	-1.000000	-0.000139	-0.000256	-0.000709
17914	-0.032808	0.128728	9.687854	0.021462	0.047821	-0.124064	-1.000000	-0.000138	-0.000269	-0.000702
17915	-0.042083	0.092590	9.706287	0.012339	0.011505	-0.105882	-1.000000	-0.000140	-0.000256	-0.000695
17916	-0.048306	0.035846	9.639330	0.005788	-0.044695	-0.173275	-1.000000	-0.000139	-0.000265	-0.000713
17917	-0.046181	0.095765	9.665120	0.008161	0.015131	-0.146998	-1.000000	-0.000128	-0.000276	-0.000710
17918	-0.034347	0.064295	9.703230	0.020294	-0.016450	-0.109219	-1.000000	-0.000119	-0.000270	-0.000707
17919	-0.028913	0.103785	9.643634	0.025243	0.023496	-0.168513	-1.000000	-0.000133	-0.000266	-0.000712
17920	-0.047387	0.095377	9.665118	0.006892	0.014781	-0.146996	-1.000000	-0.000130	-0.000269	-0.000711
17921	-0.068869	0.090391	9.645435	-0.014782	0.009928	-0.166599	-1.000000	-0.000133	-0.000257	-0.000704
17922	-0.005830	0.104852	9.704483	0.048545	0.024022	-0.107787	-1.000000	-0.000126	-0.000266	-0.000711
17923	-0.069809	0.089924	9.645433	-0.015625	0.009694	-0.166600	-1.000000	-0.000112	-0.000269	-0.000698
17924	-0.052136	0.097987	9.623952	0.001886	0.018178	-0.188113	-1.000000	-0.000104	-0.000263	-0.000694
17925	-0.058242	0.058304	9.683541	-0.003920	-0.022006	-0.128822	-1.000000	-0.000112	-0.000260	-0.000689
17926	-0.040582	0.066620	9.662059	0.013591	-0.013521	-0.150332	-1.000000	-0.000107	-0.000261	-0.000696
17927	-0.071346	0.089307	9.645427	-0.017312	0.009227	-0.166603	-1.000000	-0.000116	-0.000258	-0.000691
17928	-0.050635	0.094143	9.665114	0.003509	0.013847	-0.146993	-1.000000	-0.000115	-0.000262	-0.000683
17929	-0.090398	0.080693	9.666899	-0.036096	0.000389	-0.145097	-1.000000	-0.000109	-0.000272	-0.000691
17930	-0.078957	0.113040	9.689644	-0.024515	0.032611	-0.122148	-1.000000	-0.000110	-0.000268	-0.000683
17931	-0.070055	0.085304	9.686586	-0.015698	0.004889	-0.125487	-1.000000	-0.000112	-0.000261	-0.000696
17932	-0.073599	0.088669	9.645416	-0.019423	0.008640	-0.166606	-1.000000	-0.000106	-0.000273	-0.000679
17933	-0.064790	0.060902	9.642357	-0.010607	-0.019077	-0.169945	-1.000000	-0.000110	-0.000260	-0.000690
17934	-0.031979	0.098203	9.684803	0.022208	0.017883	-0.127376	-1.000000	-0.000109	-0.000254	-0.000689
17935	-0.047342	0.069161	9.620882	0.006493	-0.010703	-0.191448	-1.000000	-0.000116	-0.000256	-0.000709
17936	-0.044742	0.065598	9.662048	0.009366	-0.014688	-0.150329	-1.000000	-0.000118	-0.000258	-0.000719
17937	-0.045226	0.065502	9.662046	0.008944	-0.014806	-0.150329	-1.000000	-0.000118	-0.000262	-0.000711
17938	-0.072923	0.084584	9.686571	-0.018665	0.004069	-0.125492	-1.000000	-0.000114	-0.000256	-0.000718
17939	-0.037015	0.101268	9.643633	0.016801	0.021171	-0.168489	-1.000000	-0.000117	-0.000244	-0.000711
17940	-0.043579	0.125266	9.687857	0.010423	0.044783	-0.124032	-1.000000	-0.000115	-0.000253	-0.000728
17941	-0.055951	0.092566	9.665099	-0.001989	0.012328	-0.146991	-1.000000	-0.000109	-0.000248	-0.000718
17942	-0.074448	0.083985	9.686564	-0.020359	0.003601	-0.125495	-1.000000	-0.000109	-0.000252	-0.000711
17943	-0.029537	0.073042	9.640576	0.024357	-0.006893	-0.171823	-1.000000	-0.000109	-0.000253	-0.000728
17944	-0.057217	0.092072	9.665097	-0.003259	0.011978	-0.146991	-1.000000	-0.000100	-0.000247	-0.000725
17945	-0.030221	0.072679	9.640577	0.023510	-0.007125	-0.171821	-1.000000	-0.000104	-0.000241	-0.000735
17946	-0.015704	0.101662	9.704506	0.038346	0.021223	-0.107735	-1.000000	-0.000113	-0.000247	-0.000723
17947	-0.040211	0.100281	9.643631	0.013420	0.020240	-0.168482	-1.000000	-0.000111	-0.000233	-0.000728
17948	-0.046779	0.124363	9.687854	0.007023	0.043847	-0.124024	-1.000000	-0.000124	-0.000243	-0.000751
17949	-0.020104	0.105172	9.663335	0.033801	0.024746	-0.148850	-1.000000	-0.000127	-0.000255	-0.000754
17950	-0.062829	0.095332	9.623915	-0.009069	0.015151	-0.188112	-1.000000	-0.000126	-0.000250	-0.000753
17951	-0.038985	0.096503	9.684794	0.014999	0.015899	-0.127358	-1.000000	-0.000122	-0.000243	-0.000762
17952	-0.057461	0.087915	9.706252	-0.003380	0.007166	-0.105871	-1.000000	-0.000119	-0.000246	-0.000761
17953	-0.030714	0.068536	9.681739	0.023402	-0.011933	-0.130693	-1.000000	-0.000118	-0.000258	-0.000753
17954	-0.043473	0.099597	9.643624	0.010463	0.019425	-0.168477	-1.000000	-0.000119	-0.000254	-0.000745
17955	-0.058877	0.087597	9.706246	-0.004655	0.006813	-0.105871	-1.000000	-0.000125	-0.000250	-0.000749
17956	-0.059155	0.087702	9.706244	-0.005079	0.006696	-0.105871	-1.000000	-0.000142	-0.000239	-0.000746
17957	-0.035198	0.071973	9.640565	0.018451	-0.008522	-0.171811	-1.000000	-0.000133	-0.000241	-0.000740
17958	-0.053837	0.063312	9.662017	0.000070	-0.017258	-0.150329	-1.000000	-0.000129	-0.000252	-0.000740
17959	-0.045449	0.099243	9.643618	0.008352	0.018842	-0.168474	-1.000000	-0.000132	-0.000246	-0.000751
17960	-0.042837	0.095619	9.684787	0.011182	0.014846	-0.127351	-1.000000	-0.000132	-0.000250	-0.000743
17961	-0.055197	0.062900	9.662012	-0.001200	-0.017610	-0.150329	-1.000000	-0.000123	-0.000252	-0.000738
17962	-0.082908	0.081872	9.686514	-0.028842	0.001247	-0.125516	-1.000000	-0.000119	-0.000246	-0.000744
17963	-0.037858	0.070871	9.640563	0.015916	-0.009220	-0.171807	-1.000000	-0.000114	-0.000247	-0.000754
17964	-0.047570	0.098342	9.643617	0.006236	0.018259	-0.168471	-1.000000	-0.000114	-0.000251	-0.000746
17965	-0.087161	0.084873	9.645337	-0.033363	0.004778	-0.166642	-1.000000	-0.000108	-0.000243	-0.000762
17966	-0.057117	0.061923	9.662007	-0.003318	-0.018192	-0.150331	-1.000000	-0.000106	-0.000238	-0.000761
17967	-0.027549	0.102699	9.663344	0.026175	0.022652	-0.148821	-1.000000	-0.000104	-0.000241	-0.000761
17968	-0.088346	0.084391	9.645331	-0.034629	0.004427	-0.166646	-1.000000	-0.000104	-0.000245	-0.000754
17969	-0.058572	0.061477	9.662001	-0.004584	-0.018544	-0.150332	-1.000000	-0.000100	-0.000256	-0.000753
17970	-0.059437	0.125026	9.646668	-0.005561	0.045154	-0.165133	-1.000000	-0.000101	-0.000252	-0.000745
17971	-0.050514	0.097298	9.643613	0.003279	0.017443	-0.168468	-1.000000	-0.000102	-0.000245	-0.000762
17972	-0.056702	0.057552	9.703167	-0.002619	-0.022779	-0.109211	-1.000000	-0.000099	-0.000242	-0.000744
17973	-0.048252	0.093481	9.684782	0.005664	0.013323	-0.127344	-1.000000	-0.000101	-0.000244	-0.000753
17974	-0.048635	0.093349	9.684782	0.005240	0.013207	-0.127344	-1.000000	-0.000097	-0.000237	-0.000760
17975	-0.091238	0.083517	9.645311	-0.037580	0.003605	-0.166657	-1.000000	-0.000105	-0.000242	-0.000756
17976	-0.061317	0.060699	9.661989	-0.007537	-0.019361	-0.150336	-1.000000	-0.000103	-0.000237	-0.000755
17977	-0.058649	0.057008	9.703159	-0.004737	-0.023367	-0.109213	-1.000000	-0.000102	-0.000232	-0.000754
17978	-0.050277	0.092926	9.684777	0.003548	0.012739	-0.127343	-1.000000	-0.000101	-0.000244	-0.000747
17979	-0.062527	0.060266	9.661984	-0.008803	-0.019716	-0.150337	-1.000000	-0.000099	-0.000230	-0.000750
17980	-0.054140	0.096161	9.643604	-0.000516	0.016391	-0.168466	-1.000000	-0.000096	-0.000250	-0.000743
17981	-0.051726	0.092568	9.684773	0.002279	0.012387	-0.127342	-1.000000	-0.000106	-0.000245	-0.000758
17982	-0.034004	0.100934	9.663342	0.019834	0.020903	-0.148802	-1.000000	-0.000101	-0.000246	-0.000765
17983	-0.034470	0.100745	9.663342	0.019412	0.020785	-0.148801	-1.000000	-0.000099	-0.000249	-0.000763
17984	-0.074066	0.087333	9.665026	-0.020183	0.007291	-0.147007	-1.000000	-0.000102	-0.000243	-0.000772
17985	-0.004937	0.077798	9.680032	0.049030	-0.002292	-0.132466	-1.000000	-0.000102	-0.000248	-0.000768
17986	-0.071984	0.083483	9.706194	-0.017818	0.003168	-0.105884	-1.000000	-0.000092	-0.000250	-0.000765
17987	-0.047969	0.067639	9.640541	0.005804	-0.012012	-0.171799	-1.000000	-0.000093	-0.000243	-0.000782
17988	-0.033389	0.096594	9.704513	0.020502	0.016313	-0.107671	-1.000000	-0.000105	-0.000229	-0.000794
17989	-0.039668	0.103662	9.622168	0.013674	0.023982	-0.189919	-1.000000	-0.000101	-0.000234	-0.000777
17990	-0.076456	0.086507	9.665015	-0.022717	0.006591	-0.147012	-1.000000	-0.000087	-0.000243	-0.000782
17991	-0.055917	0.091179	9.684763	-0.001954	0.011219	-0.127340	-1.000000	-0.000092	-0.000247	-0.000786
17992	-0.041161	0.103133	9.622168	0.012412	0.023636	-0.189916	-1.000000	-0.000095	-0.000241	-0.000795
17993	-0.056624	0.091021	9.684760	-0.002802	0.010983	-0.127340	-1.000000	-0.000091	-0.000234	-0.000800
17994	-0.047696	0.063251	9.681706	0.006050	-0.016722	-0.130674	-1.000000	-0.000093	-0.000231	-0.000792
17995	-0.048061	0.063254	9.681704	0.005624	-0.016841	-0.130674	-1.000000	-0.000104	-0.000228	-0.000780
17996	-0.090791	0.053418	9.642192	-0.037160	-0.026447	-0.170028	-1.000000	-0.000096	-0.000246	-0.000788
17997	-0.040310	0.099146	9.663336	0.013489	0.019155	-0.148787	-1.000000	-0.000107	-0.000241	-0.000800
17998	-0.076798	0.082305	9.706167	-0.022917	0.001754	-0.105895	-1.000000	-0.000111	-0.000227	-0.000808
17999	-0.028669	0.067961	9.701454	0.025104	-0.012566	-0.110994	-1.000000	-0.000116	-0.000230	-0.000809
18000	-0.062354	0.094193	9.643574	-0.008959	0.014058	-0.168466	-1.000000	-0.000115	-0.000225	-0.000808
18001	-0.053578	0.066512	9.640520	-0.000102	-0.013649	-0.171799	-1.000000	-0.000123	-0.000236	-0.000819
18002	-0.054043	0.066437	9.640517	-0.000523	-0.013765	-0.171799	-1.000000	-0.000119	-0.000230	-0.000825
18003	-0.081860	0.085322	9.664981	-0.028223	0.005058	-0.147025	-1.000000	-0.000103	-0.000237	-0.000835
18004	-0.082254	0.085214	9.664979	-0.028646	0.004941	-0.147026	-1.000000	-0.000120	-0.000227	-0.000832
18005	-0.061466	0.090148	9.684739	-0.007895	0.009569	-0.127342	-1.000000	-0.000121	-0.000223	-0.000824
18006	-0.043677	0.098540	9.663327	0.009679	0.018098	-0.148781	-1.000000	-0.000127	-0.000218	-0.000826
18007	-0.073956	0.057596	9.661919	-0.020629	-0.023000	-0.150363	-1.000000	-0.000133	-0.000214	-0.000826
18008	-0.044426	0.098525	9.663324	0.008834	0.017863	-0.148779	-1.000000	-0.000138	-0.000217	-0.000828
18009	-0.044724	0.098336	9.663325	0.008411	0.017745	-0.148779	-1.000000	-0.000126	-0.000201	-0.000838
18010	-0.044963	0.098254	9.663324	0.007988	0.017629	-0.148778	-1.000000	-0.000142	-0.000198	-0.000836
18011	-0.063606	0.089880	9.684728	-0.010437	0.008863	-0.127343	-1.000000	-0.000145	-0.000210	-0.000839
18012	-0.045950	0.098156	9.663321	0.007142	0.017396	-0.148777	-1.000000	-0.000136	-0.000204	-0.000835
18013	-0.058149	0.065431	9.640500	-0.005161	-0.015053	-0.171803	-1.000000	-0.000134	-0.000207	-0.000836
18014	-0.074141	0.116967	9.687775	-0.020998	0.036097	-0.124012	-1.000000	-0.000133	-0.000201	-0.000835
18015	-0.037885	0.070003	9.660269	0.015157	-0.010542	-0.152108	-1.000000	-0.000130	-0.000204	-0.000832
18016	-0.065780	0.089115	9.684720	-0.012560	0.008275	-0.127345	-1.000000	-0.000137	-0.000209	-0.000827
18017	-0.057009	0.061348	9.681668	-0.003693	-0.019429	-0.130678	-1.000000	-0.000128	-0.000211	-0.000822
18018	-0.048610	0.097254	9.663317	0.004601	0.016691	-0.148774	-1.000000	-0.000133	-0.000215	-0.000824
18019	-0.067104	0.088900	9.684713	-0.013832	0.007918	-0.127347	-1.000000	-0.000150	-0.000204	-0.000818
18020	-0.021954	0.078057	9.638865	0.031054	-0.002476	-0.173532	-1.000000	-0.000134	-0.000212	-0.000830
18021	-0.049884	0.096942	9.663313	0.003330	0.016338	-0.148773	-1.000000	-0.000131	-0.000214	-0.000831
18022	-0.041014	0.069209	9.660262	0.012200	-0.011362	-0.152104	-1.000000	-0.000134	-0.000209	-0.000840
18023	-0.068751	0.088317	9.684707	-0.015528	0.007450	-0.127349	-1.000000	-0.000136	-0.000205	-0.000833
18024	-0.062801	0.064065	9.640480	-0.009801	-0.016342	-0.171808	-1.000000	-0.000126	-0.000207	-0.000829
18025	-0.051395	0.096322	9.663312	0.001637	0.015870	-0.148772	-1.000000	-0.000122	-0.000200	-0.000835
18026	-0.063492	0.063769	9.640478	-0.010644	-0.016576	-0.171810	-1.000000	-0.000133	-0.000195	-0.000847
18027	-0.052262	0.096094	9.663309	0.000791	0.015637	-0.148772	-1.000000	-0.000116	-0.000214	-0.000836
18028	-0.043556	0.068247	9.660258	0.009664	-0.012062	-0.152102	-1.000000	-0.000122	-0.000210	-0.000838
18029	-0.065011	0.063287	9.640471	-0.011908	-0.016926	-0.171812	-1.000000	-0.000119	-0.000212	-0.000839
18030	-0.062977	0.123247	9.666356	-0.009775	0.042870	-0.145440	-1.000000	-0.000117	-0.000215	-0.000838
18031	-0.023805	0.072749	9.680043	0.029544	-0.007662	-0.132390	-1.000000	-0.000118	-0.000211	-0.000832
18032	-0.072703	0.087008	9.684690	-0.019343	0.006395	-0.127355	-1.000000	-0.000125	-0.000216	-0.000827
18033	-0.039713	0.107431	9.600739	0.013147	0.027510	-0.211314	-1.000000	-0.000124	-0.000211	-0.000825
18034	-0.055475	0.095399	9.663298	-0.002170	0.014820	-0.148770	-1.000000	-0.000137	-0.000224	-0.000823
18035	-0.058919	0.098798	9.622121	-0.005714	0.018616	-0.189899	-1.000000	-0.000118	-0.000225	-0.000824
18036	-0.047318	0.067377	9.660246	0.006286	-0.012995	-0.152101	-1.000000	-0.000126	-0.000239	-0.000813
18037	-0.054217	0.091376	9.704470	-0.000318	0.010555	-0.107642	-1.000000	-0.000125	-0.000233	-0.000812
18038	-0.057430	0.094882	9.663292	-0.003860	0.014353	-0.148770	-1.000000	-0.000131	-0.000229	-0.000814
18039	-0.048573	0.067201	9.660241	0.005023	-0.013345	-0.152101	-1.000000	-0.000131	-0.000233	-0.000807
18040	-0.055460	0.091104	9.704465	-0.001589	0.010203	-0.107641	-1.000000	-0.000128	-0.000236	-0.000807
18041	-0.049528	0.066871	9.660239	0.004179	-0.013577	-0.152100	-1.000000	-0.000123	-0.000238	-0.000814
18042	-0.086631	0.113592	9.687712	-0.032878	0.032800	-0.124034	-1.000000	-0.000134	-0.000233	-0.000826
18043	-0.050317	0.066656	9.660236	0.003333	-0.013808	-0.152100	-1.000000	-0.000119	-0.000235	-0.000816
18044	-0.029689	0.071339	9.680037	0.024046	-0.009175	-0.132376	-1.000000	-0.000125	-0.000231	-0.000818
18045	-0.060414	0.094065	9.663282	-0.006820	0.013536	-0.148771	-1.000000	-0.000130	-0.000234	-0.000820
18046	-0.051541	0.066361	9.660232	0.002064	-0.014159	-0.152101	-1.000000	-0.000129	-0.000229	-0.000819
18047	-0.033784	0.074739	9.638857	0.019671	-0.005609	-0.173503	-1.000000	-0.000133	-0.000232	-0.000821
18048	-0.061796	0.093859	9.663275	-0.008090	0.013185	-0.148771	-1.000000	-0.000137	-0.000244	-0.000824
18049	-0.050312	0.062629	9.701402	0.003892	-0.018431	-0.110971	-1.000000	-0.000142	-0.000257	-0.000819
18050	-0.051111	0.126293	9.686123	0.002884	0.045279	-0.125712	-1.000000	-0.000145	-0.000242	-0.000835
18051	-0.066019	0.097141	9.622091	-0.012455	0.016755	-0.189902	-1.000000	-0.000130	-0.000244	-0.000823
18052	-0.042541	0.098243	9.683078	0.011345	0.017468	-0.129040	-1.000000	-0.000136	-0.000240	-0.000825
18053	-0.033587	0.070553	9.680030	0.020376	-0.010131	-0.132369	-1.000000	-0.000130	-0.000242	-0.000745
18054	-0.064296	0.093138	9.663266	-0.010481	0.012584	-0.148773	-1.000000	-0.000127	-0.000245	-0.000745
18055	-0.064793	0.093066	9.663263	-0.010901	0.012465	-0.148773	-1.000000	-0.000135	-0.000250	-0.000739
18056	-0.056004	0.065376	9.660214	-0.002015	-0.015230	-0.152102	-1.000000	-0.000132	-0.000253	-0.000738
18057	-0.017296	0.078628	9.658662	0.036727	-0.001928	-0.153759	-1.000000	-0.000137	-0.000256	-0.000741
18058	-0.063381	0.089099	9.704435	-0.009085	0.008191	-0.107644	-1.000000	-0.000122	-0.000256	-0.000752
18059	-0.039214	0.073138	9.638849	0.014762	-0.006909	-0.173495	-1.000000	-0.000108	-0.000259	-0.000739
18060	-0.048966	0.100454	9.641897	0.005030	0.020554	-0.170166	-1.000000	-0.000103	-0.000261	-0.000746
18061	-0.040154	0.072672	9.638849	0.013917	-0.007138	-0.173494	-1.000000	-0.000102	-0.000265	-0.000740
18062	-0.059234	0.127791	9.644943	-0.005127	0.047901	-0.166837	-1.000000	-0.000102	-0.000269	-0.000733
18063	-0.050441	0.100103	9.641893	0.003760	0.020206	-0.170165	-1.000000	-0.000107	-0.000272	-0.000735
18064	-0.059734	0.063931	9.660201	-0.005394	-0.016162	-0.152105	-1.000000	-0.000106	-0.000267	-0.000734
18065	-0.020878	0.077283	9.658666	0.033346	-0.002856	-0.153747	-1.000000	-0.000119	-0.000263	-0.000738
18066	-0.039547	0.068671	9.680021	0.014877	-0.011648	-0.132360	-1.000000	-0.000103	-0.000274	-0.000726
18067	-0.070335	0.091195	9.663242	-0.015978	0.011063	-0.148778	-1.000000	-0.000109	-0.000269	-0.000728
18068	-0.082458	0.058726	9.640366	-0.028199	-0.021379	-0.171854	-1.000000	-0.000118	-0.000272	-0.000740
18069	-0.052949	0.099635	9.641885	0.001227	0.019508	-0.170162	-1.000000	-0.000115	-0.000266	-0.000747
18070	-0.044030	0.071818	9.638838	0.010121	-0.008185	-0.173490	-1.000000	-0.000110	-0.000267	-0.000753
18071	-0.059856	0.059562	9.701367	-0.005291	-0.020907	-0.110977	-1.000000	-0.000107	-0.000270	-0.000755
18072	-0.033190	0.104045	9.661712	0.021070	0.023911	-0.150410	-1.000000	-0.000113	-0.000266	-0.000757
18073	-0.072799	0.090741	9.663228	-0.018514	0.010363	-0.148782	-1.000000	-0.000125	-0.000270	-0.000761
18074	-0.043068	0.067855	9.680012	0.011490	-0.012579	-0.132357	-1.000000	-0.000109	-0.000281	-0.000749
18075	-0.055581	0.098912	9.641877	-0.001305	0.018810	-0.170161	-1.000000	-0.000121	-0.000268	-0.000760
18076	-0.043781	0.067651	9.680010	0.010644	-0.012813	-0.132356	-1.000000	-0.000116	-0.000269	-0.000767
18077	-0.074545	0.090194	9.663220	-0.020205	0.009895	-0.148785	-1.000000	-0.000113	-0.000272	-0.000767
18078	-0.065714	0.062390	9.660172	-0.011307	-0.017796	-0.152113	-1.000000	-0.000108	-0.000274	-0.000773
18079	-0.047918	0.070760	9.638827	0.006328	-0.009231	-0.173488	-1.000000	-0.000114	-0.000269	-0.000775
18080	-0.054815	0.094695	9.683052	-0.000371	0.014294	-0.129028	-1.000000	-0.000112	-0.000272	-0.000774
18081	-0.037108	0.103079	9.661709	0.017264	0.022861	-0.150400	-1.000000	-0.000116	-0.000276	-0.000777
18082	-0.046384	0.066738	9.680004	0.008105	-0.013513	-0.132355	-1.000000	-0.000098	-0.000268	-0.000778
18083	-0.056084	0.094200	9.683049	-0.001643	0.013943	-0.129028	-1.000000	-0.000113	-0.000273	-0.000776
18084	-0.065398	0.058046	9.701340	-0.010803	-0.022433	-0.110985	-1.000000	-0.000104	-0.000267	-0.000773
18085	-0.059639	0.097625	9.641866	-0.005527	0.017647	-0.170160	-1.000000	-0.000113	-0.000264	-0.000768
18086	-0.068933	0.061490	9.660156	-0.014686	-0.018730	-0.152119	-1.000000	-0.000112	-0.000265	-0.000785
18087	-0.039448	0.102430	9.661706	0.014726	0.022166	-0.150394	-1.000000	-0.000120	-0.000262	-0.000780
18088	-0.048762	0.066275	9.679996	0.005566	-0.014211	-0.132354	-1.000000	-0.000118	-0.000265	-0.000780
18089	-0.049409	0.066222	9.679993	0.005142	-0.014326	-0.132354	-1.000000	-0.000127	-0.000285	-0.000787
18090	-0.040998	0.102223	9.661702	0.013456	0.021820	-0.150392	-1.000000	-0.000120	-0.000271	-0.000783
18091	-0.080587	0.088703	9.663185	-0.026126	0.008261	-0.148798	-1.000000	-0.000123	-0.000283	-0.000786
18092	-0.032573	0.074294	9.658657	0.021939	-0.005985	-0.153716	-1.000000	-0.000115	-0.000277	-0.000783
18093	-0.060474	0.093199	9.683032	-0.005886	0.012778	-0.129028	-1.000000	-0.000112	-0.000279	-0.000782
18094	-0.033438	0.073953	9.658657	0.021090	-0.006218	-0.153714	-1.000000	-0.000114	-0.000282	-0.000792
18095	-0.061433	0.092982	9.683028	-0.006735	0.012543	-0.129028	-1.000000	-0.000114	-0.000286	-0.000784
18096	-0.052539	0.065242	9.679983	0.002174	-0.015145	-0.132354	-1.000000	-0.000113	-0.000281	-0.000783
18097	-0.052766	0.065021	9.679983	0.001750	-0.015264	-0.132354	-1.000000	-0.000104	-0.000265	-0.000785
18098	-0.065232	0.096105	9.641845	-0.011020	0.016132	-0.170162	-1.000000	-0.000112	-0.000276	-0.000798
18099	-0.035474	0.073151	9.658656	0.018977	-0.006804	-0.153710	-1.000000	-0.000092	-0.000277	-0.000799
18100	-0.035797	0.073012	9.658656	0.018555	-0.006920	-0.153710	-1.000000	-0.000109	-0.000266	-0.000796
18101	-0.054352	0.064544	9.679978	0.000059	-0.015736	-0.132355	-1.000000	-0.000107	-0.000269	-0.000794
18102	-0.064141	0.091990	9.683020	-0.009699	0.011717	-0.129030	-1.000000	-0.000104	-0.000272	-0.000793
18103	-0.055728	0.127996	9.664741	-0.001384	0.047865	-0.147057	-1.000000	-0.000109	-0.000275	-0.000795
18104	-0.067865	0.095380	9.641834	-0.013551	0.015426	-0.170165	-1.000000	-0.000104	-0.000277	-0.000802
18105	-0.059044	0.067743	9.638787	-0.004636	-0.012258	-0.173490	-1.000000	-0.000118	-0.000282	-0.000801
18106	-0.014735	0.073750	9.719695	0.040098	-0.006814	-0.092786	-1.000000	-0.000100	-0.000274	-0.000802
18107	-0.038869	0.072323	9.658649	0.015599	-0.007739	-0.153705	-1.000000	-0.000114	-0.000280	-0.000800
18108	-0.057987	0.127516	9.664734	-0.003501	0.047283	-0.147055	-1.000000	-0.000109	-0.000282	-0.000806
18109	-0.039652	0.072038	9.658648	0.014755	-0.007972	-0.153704	-1.000000	-0.000100	-0.000266	-0.000809
18110	-0.049264	0.099460	9.661692	0.004992	0.019481	-0.150379	-1.000000	-0.000102	-0.000269	-0.000819
18111	-0.070628	0.094468	9.641823	-0.016505	0.014608	-0.170168	-1.000000	-0.000101	-0.000263	-0.000817
18112	-0.001547	0.084945	9.657202	0.052642	0.005132	-0.155256	-1.000000	-0.000096	-0.000265	-0.000824
18113	-0.080467	0.057939	9.660088	-0.026091	-0.021895	-0.152150	-1.000000	-0.000087	-0.000277	-0.000814
18114	-0.048359	0.095268	9.702871	0.006285	0.015063	-0.109242	-1.000000	-0.000103	-0.000274	-0.000812
18115	-0.042144	0.071364	9.658642	0.012221	-0.008673	-0.153701	-1.000000	-0.000109	-0.000270	-0.000813
18116	-0.045283	0.074870	9.617459	0.008817	-0.004840	-0.194836	-1.000000	-0.000104	-0.000271	-0.000820
18117	-0.042932	0.071036	9.658641	0.011377	-0.008907	-0.153700	-1.000000	-0.000098	-0.000267	-0.000809
18118	-0.070806	0.089916	9.682993	-0.016478	0.009839	-0.129037	-1.000000	-0.000092	-0.000262	-0.000798
18119	-0.053069	0.098206	9.661685	0.001186	0.018426	-0.150375	-1.000000	-0.000088	-0.000273	-0.000798
18120	-0.044311	0.070490	9.658639	0.010109	-0.009257	-0.153699	-1.000000	-0.000093	-0.000276	-0.000800
18121	-0.051376	0.094429	9.702864	0.003313	0.014241	-0.109239	-1.000000	-0.000095	-0.000279	-0.000810
18122	-0.045269	0.070387	9.658635	0.009264	-0.009489	-0.153698	-1.000000	-0.000099	-0.000282	-0.000813
18123	-0.055050	0.097735	9.661679	-0.000508	0.017960	-0.150374	-1.000000	-0.000080	-0.000282	-0.000814
18124	-0.055587	0.097464	9.661678	-0.000931	0.017844	-0.150374	-1.000000	-0.000083	-0.000294	-0.000817
18125	-0.055994	0.097381	9.661677	-0.001357	0.017724	-0.150374	-1.000000	-0.000084	-0.000281	-0.000815
18126	-0.035369	0.102195	9.681559	0.019279	0.022362	-0.130569	-1.000000	-0.000088	-0.000284	-0.000817
18127	-0.035771	0.102156	9.681558	0.018857	0.022244	-0.130568	-1.000000	-0.000092	-0.000278	-0.000826
18128	-0.029667	0.078098	9.637330	0.024823	-0.001482	-0.175027	-1.000000	-0.000093	-0.000292	-0.000811
18129	-0.036967	0.102130	9.681554	0.018010	0.022010	-0.130566	-1.000000	-0.000108	-0.000307	-0.000803
18130	2.134804	0.153608	9.667825	2.189847	0.076919	-0.156265	-1.000000	-0.000107	-0.000319	-0.000796
18131	4.215984	0.447702	9.431485	4.269131	0.376148	-0.402007	-1.000000	0.000004	-0.000290	-0.000526
18132	2.660445	0.950963	10.036776	2.720975	0.866362	0.215516	-0.999999	-0.000161	-0.000596	0.001229
18133	1.616934	0.480850	9.479952	1.678184	0.392662	-0.339320	-0.999991	-0.000124	-0.000559	0.004092
18134	-1.194295	-0.060417	9.723516	-1.137114	-0.126476	-0.082954	-0.999967	-0.000023	-0.000403	0.008081
18135	-2.198917	-0.319135	9.249368	-2.152350	-0.352002	-0.553565	-0.999938	0.000075	-0.000321	0.011123
18136	-2.454908	-0.406747	9.927050	-2.407728	-0.427081	0.125058	-0.999910	0.000002	-0.000476	0.013417
18137	-2.421391	-0.376873	9.406828	-2.376912	-0.385096	-0.394855	-0.999892	0.000092	-0.000421	0.014720
18138	-2.941663	-0.537189	9.908447	-2.900089	-0.529946	0.108397	-0.999893	0.000135	-0.000388	0.014624
18139	-0.331541	0.105523	9.764608	-0.273797	0.037636	-0.045792	-0.999893	0.000157	-0.000345	0.014620
18140	-0.643236	-0.251906	9.671742	-0.596764	-0.309782	-0.139647	-0.999895	0.000143	-0.000339	0.014466
18141	-1.215999	-0.205387	9.610630	-1.168791	-0.247912	-0.197205	-0.999907	0.000091	-0.000266	0.013640
18142	-1.276962	-0.084078	9.770670	-1.225302	-0.130823	-0.035918	-0.999933	0.000033	-0.000316	0.011586
18143	2.739614	0.811293	9.596353	2.809944	0.670658	-0.225816	-0.999943	-0.000105	-0.000299	0.010704
18144	0.481744	0.049047	9.620614	0.535214	-0.043176	-0.194872	-0.999947	-0.000243	-0.000255	0.010250
18145	-0.085568	0.218984	9.652402	-0.029238	0.134474	-0.158403	-0.999950	-0.000504	-0.000208	0.009963
18146	0.006912	-0.026597	9.666376	0.057516	-0.117650	-0.147159	-0.999954	-0.000725	-0.000168	0.009577
18147	-0.034663	0.275940	9.673644	0.020735	0.180052	-0.136744	-0.999956	-0.001075	-0.000104	0.009370
18148	0.037121	0.026145	9.667951	0.086456	-0.076827	-0.145322	-0.999957	-0.001333	-0.000040	0.009205
18149	0.132723	-0.098772	9.734021	0.177843	-0.209188	-0.081133	-0.999957	-0.001594	0.000122	0.009182
18150	0.610200	-0.192519	9.651665	0.650268	-0.318580	-0.166979	-0.999956	-0.002148	0.000249	0.009162
18151	0.968758	0.496609	9.786922	1.017113	0.349489	-0.024313	-0.999951	-0.002873	0.000623	0.009413
18152	-0.405743	0.157352	9.561396	-0.372302	0.029038	-0.248681	-0.999951	-0.003182	0.001071	0.009302
18153	0.366678	0.326739	9.750182	0.395680	0.173847	-0.059715	-0.999951	-0.003655	0.001436	0.009066
18154	-0.044696	0.384153	9.657787	-0.022039	0.229661	-0.149914	-0.999948	-0.004277	0.001807	0.009134
18155	-1.070415	0.250096	9.573993	-1.057389	0.106010	-0.234569	-0.999943	-0.004693	0.002185	0.009310
18156	-0.569878	0.052609	9.627329	-0.566208	-0.106647	-0.185588	-0.999941	-0.004831	0.002389	0.009474
18157	-0.036716	0.116391	9.656583	-0.035435	-0.054394	-0.155552	-0.999939	-0.004799	0.002546	0.009623
18158	0.169626	0.283356	9.654773	0.170925	0.109088	-0.154396	-0.999936	-0.004777	0.002720	0.009877
18159	0.280720	0.475090	9.703159	0.283149	0.296754	-0.102508	-0.999931	-0.004880	0.002834	0.010332
18160	-0.217377	0.145702	9.630887	-0.224319	-0.022018	-0.180883	-0.999926	-0.004885	0.003020	0.010719
18161	0.181249	0.527339	9.756155	0.178777	0.348280	-0.048454	-0.999919	-0.004922	0.003213	0.011277
18162	-0.274906	-0.035845	9.622204	-0.295759	-0.200493	-0.193124	-0.999910	-0.004744	0.003658	0.011982
18163	-0.000773	0.267727	9.730069	-0.021777	0.097033	-0.079444	-0.999903	-0.004684	0.003943	0.012512
18164	-0.204153	0.471017	9.720338	-0.226900	0.308453	-0.086338	-0.999893	-0.004461	0.004407	0.013245
18165	-0.477546	0.575130	9.771943	-0.506807	0.425070	-0.034541	-0.999879	-0.004122	0.004960	0.014184
18166	-0.203928	0.546447	9.980293	-0.247896	0.394642	0.173764	-0.999858	-0.003600	0.005800	0.015410
18167	-0.218423	0.558314	9.483515	-0.273682	0.414630	-0.323238	-0.999829	-0.004220	0.006624	0.016748
18168	0.735571	2.041463	9.302552	0.723701	1.830052	-0.465339	-0.999786	-0.007566	0.006799	0.018034
18169	0.921675	1.362267	12.848578	0.880362	0.990087	3.072774	-0.999770	-0.010666	0.004636	0.018004
18170	0.062260	-0.140291	12.288602	0.034116	-0.501749	2.466560	-0.999787	-0.010446	0.001661	0.017704
18171	-0.537210	0.876891	11.621750	-0.464601	0.557486	1.831868	-0.999785	-0.010372	-0.000765	0.017961
18172	0.314769	0.753852	11.845092	0.430120	0.400142	2.045995	-0.999768	-0.010139	-0.002240	0.018845
18173	0.298106	0.889489	11.355770	0.445161	0.557356	1.559414	-0.999755	-0.009648	-0.003321	0.019623
18174	-0.143862	1.604428	10.619492	0.046790	1.317466	0.847076	-0.999744	-0.009321	-0.004206	0.020168
18175	-0.030087	1.354831	10.428963	0.167714	1.071182	0.647912	-0.999743	-0.009386	-0.005141	0.019978
18176	0.127484	1.203749	10.803436	0.348701	0.901721	1.015273	-0.999752	-0.009497	-0.006582	0.019024
18177	0.057961	1.368549	10.920627	0.318689	1.063752	1.137343	-0.999759	-0.009560	-0.008202	0.017968
18178	-0.244755	0.981069	10.929144	0.032158	0.685427	1.141658	-0.999764	-0.009628	-0.009492	0.016976
18179	-0.789205	1.172176	10.799607	-0.483849	0.896893	1.031195	-0.999773	-0.009575	-0.010629	0.015783
18180	-0.968298	1.201273	11.243413	-0.628746	0.917991	1.481423	-0.999780	-0.009559	-0.011676	0.014546
18181	-1.063675	0.951865	11.602717	-0.703742	0.662731	1.837464	-0.999792	-0.009282	-0.012362	0.013336
18182	-0.966933	1.470315	11.052069	-0.601730	1.198541	1.297957	-0.999807	-0.008910	-0.012520	0.012204
18183	-0.851885	1.563673	10.743479	-0.496099	1.303039	0.987734	-0.999824	-0.008610	-0.012396	0.011129
18184	-0.286793	1.887663	10.391171	0.057667	1.628654	0.625996	-0.999841	-0.008359	-0.012076	0.010093
18185	0.168288	2.176346	10.705898	0.521026	1.905231	0.933460	-0.999852	-0.008171	-0.012145	0.009018
18186	0.412415	2.254769	11.492801	0.790944	1.965635	1.713337	-0.999859	-0.007955	-0.012658	0.007601
18187	0.726842	1.857903	11.870292	1.116331	1.566408	2.069404	-0.999869	-0.007419	-0.013141	0.005919
18188	0.668457	2.092495	11.229500	1.043538	1.836345	1.433017	-0.999880	-0.006499	-0.013418	0.004109
18189	0.952759	2.977804	10.210592	1.300947	2.762499	0.419974	-0.999885	-0.005795	-0.013862	0.001908
18190	1.377741	2.876808	10.026563	1.716437	2.679434	0.216301	-0.999876	-0.005700	-0.014635	-0.001328
18191	1.119026	1.850990	11.373804	1.508921	1.638493	1.548663	-0.999849	-0.005676	-0.015538	-0.005242
18192	0.675213	1.905593	12.082826	1.099043	1.692340	2.270769	-0.999804	-0.005013	-0.016581	-0.009616
18193	1.196436	2.306766	11.588786	1.603903	2.144186	1.758069	-0.999730	-0.003871	-0.017970	-0.014204
18194	1.827985	2.278662	11.252390	2.233480	2.185658	1.384827	-0.999624	-0.002416	-0.019514	-0.019086
18195	1.775684	2.451242	10.682084	2.154957	2.415351	0.807603	-0.999494	-0.000937	-0.020664	-0.024171
18196	1.469578	2.513675	10.188422	1.817558	2.514988	0.319110	-0.999327	0.000320	-0.021548	-0.029692
18197	0.601426	2.232550	9.854494	0.942600	2.221970	0.017435	-0.999138	0.001459	-0.022331	-0.034960
18198	-0.589201	2.114632	9.719266	-0.249100	2.043613	-0.063609	-0.998925	0.002352	-0.023171	-0.040076
18199	-1.385017	1.930704	10.023474	-1.010349	1.805186	0.278716	-0.998680	0.003148	-0.024389	-0.045090
18200	-1.176076	1.514530	10.438986	-0.730698	1.415964	0.680666	-0.998435	0.003861	-0.025844	-0.049451
18201	-0.623106	1.347795	10.359346	-0.152211	1.315119	0.568455	-0.998203	0.004623	-0.027145	-0.053222
18202	0.018944	1.493474	10.002852	0.457516	1.539481	0.172729	-0.997996	0.005140	-0.027762	-0.056629
18203	0.520099	1.458574	9.857875	0.944265	1.570900	-0.003699	-0.997806	0.005365	-0.027648	-0.059919
18204	0.405051	1.737442	9.428902	0.749883	1.835552	-0.423581	-0.997646	0.005259	-0.026628	-0.062967
18205	0.465210	2.289530	8.817322	0.671325	2.380568	-1.032845	-0.997483	0.004475	-0.025326	-0.066080
18206	1.305577	2.030293	9.533632	1.539069	2.221251	-0.356795	-0.997272	0.002982	-0.023939	-0.069761
18207	1.966603	1.541221	10.366660	2.257736	1.808302	0.450981	-0.997032	0.001171	-0.021830	-0.073825
18208	1.765113	1.565024	9.750622	1.961953	1.778179	-0.136537	-0.996782	-0.000705	-0.018773	-0.077933
18209	1.579117	2.066437	8.260547	1.560282	2.221079	-1.588817	-0.996542	-0.003322	-0.014722	-0.081712
18210	0.660660	1.470137	8.723209	0.689482	1.427103	-1.084613	-0.996250	-0.006901	-0.010585	-0.085589
18211	0.201326	0.758515	10.347091	0.326518	0.546178	0.544544	-0.995835	-0.010409	-0.006766	-0.090325
18212	0.634936	0.733316	11.257427	0.701770	0.502368	1.453406	-0.995354	-0.013448	-0.003511	-0.095274
18213	0.024324	0.394397	11.583712	0.103867	-0.021149	1.777251	-0.994855	-0.015774	-0.000618	-0.100070
18214	-0.190835	0.631085	10.839370	-0.220298	0.143500	1.043513	-0.994384	-0.017539	0.001902	-0.104354
18215	-0.380491	0.324641	10.599914	-0.387206	-0.225686	0.789543	-0.993938	-0.018874	0.003648	-0.108253
18216	-0.630054	0.129594	10.310211	-0.615459	-0.485406	0.487786	-0.993485	-0.019632	0.004694	-0.112159
18217	-0.324456	0.377171	9.499266	-0.384935	-0.154981	-0.309458	-0.993005	-0.020020	0.004927	-0.116255
18218	0.363067	0.494608	9.261863	0.256628	0.122254	-0.534877	-0.992473	-0.020362	0.004588	-0.120671
18219	1.198491	0.080318	9.483547	1.169974	-0.089792	-0.325665	-0.991915	-0.020742	0.004554	-0.125117
18220	0.993828	0.443645	9.059037	0.869367	0.230514	-0.732947	-0.991355	-0.021346	0.005661	-0.129331
18221	1.285943	0.689062	8.328321	1.057102	0.567085	-1.443088	-0.990853	-0.022594	0.007869	-0.132807
18222	1.678634	0.705136	8.111960	1.386254	0.672352	-1.642936	-0.990377	-0.024656	0.011095	-0.135730
18223	0.990168	-0.089212	9.265695	0.868049	-0.385166	-0.542355	-0.989834	-0.027197	0.015124	-0.138784
18224	0.119655	-0.466188	10.492907	0.043382	-1.119958	0.631245	-0.989245	-0.029504	0.019537	-0.141924
18225	-0.508162	-0.555017	10.567649	-0.612334	-1.441603	0.665271	-0.988657	-0.031260	0.023688	-0.144981
18226	-1.124171	-0.635293	10.443171	-1.242853	-1.729669	0.492180	-0.988088	-0.032298	0.027259	-0.147971
18227	-1.385590	-0.401310	10.012409	-1.595591	-1.578966	0.050883	-0.987513	-0.032595	0.029692	-0.151244
18228	-1.474801	-0.084925	9.105698	-1.762956	-1.247839	-0.844362	-0.986929	-0.032334	0.030643	-0.154879
18229	-1.210161	-0.268421	8.819324	-1.440192	-1.322140	-1.123913	-0.986361	-0.031724	0.030085	-0.158682
18230	-1.019170	-0.441616	9.327581	-1.200695	-1.458137	-0.611082	-0.985770	-0.030760	0.028542	-0.162776
18231	-0.683873	-0.507958	9.326842	-0.827194	-1.395727	-0.588630	-0.985214	-0.029577	0.026861	-0.166602
18232	-0.005807	-0.666870	9.189695	-0.099743	-1.290860	-0.690250	-0.984638	-0.028500	0.025669	-0.170346
18233	0.290219	-0.869462	9.295938	0.259653	-1.368939	-0.576173	-0.984049	-0.027702	0.025584	-0.173856
18234	0.651736	-0.855312	9.140382	0.593804	-1.207778	-0.708208	-0.983523	-0.027206	0.026758	-0.176710
18235	0.619751	-0.783591	8.710108	0.525906	-1.117514	-1.132910	-0.983017	-0.026981	0.029230	-0.179151
18236	0.318236	-0.238354	7.981988	0.038858	-0.667873	-1.848864	-0.982524	-0.027019	0.032166	-0.181336
18237	-0.217224	-0.210413	7.851046	-0.502272	-0.832730	-2.016241	-0.982017	-0.027304	0.034442	-0.183606
18238	-0.112677	-0.370969	8.479859	-0.402336	-0.998672	-1.392528	-0.981452	-0.027345	0.035711	-0.186356
18239	-0.729168	-0.316447	9.069021	-1.032569	-1.217461	-0.849956	-0.980825	-0.026957	0.035833	-0.189660
18240	-1.225248	-0.515138	8.935922	-1.399143	-1.570867	-1.026788	-0.980166	-0.026147	0.035063	-0.193291
18241	-1.499046	-0.316735	8.845042	-1.699069	-1.475042	-1.122488	-0.979558	-0.025181	0.033736	-0.196708
18242	-1.156761	-0.455099	8.731542	-1.294062	-1.450817	-1.210045	-0.978962	-0.024272	0.032021	-0.200049
18243	-0.967399	-0.880901	9.070483	-0.930412	-1.772919	-0.869734	-0.978364	-0.023235	0.030048	-0.203372
18244	-1.027228	-0.810064	9.280834	-0.984274	-1.724233	-0.652810	-0.977822	-0.022156	0.028370	-0.206319
18245	-0.950357	-0.707241	9.254986	-0.925799	-1.578489	-0.663407	-0.977363	-0.021216	0.027252	-0.208730
18246	-0.233291	-0.595588	9.454512	-0.310164	-1.179955	-0.415431	-0.976972	-0.020438	0.026908	-0.210674
18247	0.447002	-0.629303	9.190623	0.331587	-0.902335	-0.639945	-0.976605	-0.019742	0.027354	-0.212380
18248	0.811981	-0.314912	8.604974	0.541241	-0.421310	-1.190995	-0.976238	-0.019033	0.028258	-0.214007
18249	0.847515	-0.077400	8.351726	0.467215	-0.168249	-1.432414	-0.975832	-0.018567	0.029122	-0.215775
18250	0.850686	-0.403767	8.199041	0.601417	-0.445773	-1.593775	-0.975340	-0.018036	0.029673	-0.217960
18251	0.812356	-0.139507	8.121391	0.450746	-0.208380	-1.664695	-0.974810	-0.017509	0.029778	-0.220348
18252	1.302302	-0.114148	8.002868	0.886299	0.044626	-1.752453	-0.974230	-0.016927	0.029364	-0.222996
18253	1.117390	-0.321064	8.480232	0.798093	-0.228235	-1.293480	-0.973610	-0.016317	0.028498	-0.225842
18254	0.022494	-0.469878	8.652814	-0.108426	-0.831852	-1.187800	-0.973015	-0.015498	0.027295	-0.228597
18255	-0.158954	-0.492963	8.369505	-0.226516	-0.899555	-1.478644	-0.972492	-0.014557	0.025717	-0.231056
18256	-0.022890	-0.571361	8.558962	-0.047091	-0.893361	-1.281431	-0.971977	-0.013505	0.023690	-0.233488
18257	-0.139426	-0.766230	8.774134	-0.034418	-1.101417	-1.073265	-0.971464	-0.012374	0.021569	-0.235878
18258	-0.028260	-0.751306	8.557879	0.098682	-0.999725	-1.280795	-0.970947	-0.011177	0.019453	-0.238241
18259	0.012502	-0.626830	8.232380	0.117014	-0.830379	-1.599174	-0.970455	-0.009999	0.017506	-0.240437
18260	0.221831	-0.330056	8.042665	0.195009	-0.439730	-1.774583	-0.969949	-0.009153	0.015745	-0.242625
18261	0.675110	-0.358776	8.083659	0.630023	-0.235142	-1.720854	-0.969452	-0.008761	0.014456	-0.244697
18262	0.891938	0.294943	7.703617	0.530542	0.460378	-2.083856	-0.969056	-0.009146	0.013813	-0.246285
18263	0.780570	-0.426329	8.365136	0.775482	-0.250864	-1.439979	-0.968609	-0.009937	0.013701	-0.248011
18264	-4.064249	1.519754	9.298827	-4.418069	-0.946794	-0.599674	-0.967079	-0.011437	0.014712	-0.253792
18265	0.629843	-3.304622	9.012183	2.053402	-2.875578	-0.865552	-0.966460	-0.012066	0.014524	-0.256122
18266	-1.416661	0.436700	8.525171	-1.548729	-0.625175	-1.322298	-0.965632	-0.012165	0.013176	-0.259295
18267	-0.641916	-0.336683	8.566166	-0.460934	-0.912931	-1.276962	-0.964895	-0.012782	0.011513	-0.262071
18268	-1.083337	-0.144096	8.925674	-0.907506	-0.984639	-0.920620	-0.964347	-0.012965	0.009821	-0.264140
18269	-0.963113	-0.287632	9.632970	-0.704168	-1.063589	-0.211787	-0.963965	-0.012456	0.008483	-0.265601
18270	-0.833640	-0.282103	10.168955	-0.579876	-0.993407	0.329257	-0.963655	-0.011560	0.007924	-0.266783
18271	-0.028331	0.463343	10.511577	-0.275973	0.062294	0.705329	-0.963461	-0.011034	0.008468	-0.267487
18272	0.103914	0.407572	10.026636	-0.151846	0.101045	0.221107	-0.963351	-0.010708	0.009581	-0.267859
18273	-0.008588	-0.048400	9.675034	-0.031808	-0.343678	-0.143688	-0.963348	-0.011163	0.010652	-0.267812
18274	0.364448	-0.331453	9.346545	0.415595	-0.400214	-0.470973	-0.963352	-0.011863	0.012106	-0.267703
18275	0.060373	-0.451406	9.531866	0.190688	-0.685722	-0.296532	-0.963288	-0.012477	0.013751	-0.267826
18276	-0.796165	-0.666505	9.667525	-0.461376	-1.327386	-0.191656	-0.963109	-0.012139	0.015322	-0.268399
18277	-1.449445	-0.495529	9.481525	-1.131707	-1.501573	-0.394079	-0.962876	-0.010520	0.016195	-0.269252
18278	-1.294296	-0.650190	8.566255	-0.918623	-1.504998	-1.305645	-0.962516	-0.009490	0.016673	-0.270544
18279	-0.369267	0.027210	8.371798	-0.483602	-0.433543	-1.457912	-0.962051	-0.009450	0.016755	-0.272192
18280	-0.043777	0.082314	8.343794	-0.229498	-0.219930	-1.474430	-0.961467	-0.010067	0.016266	-0.274253
18281	-0.077431	0.101075	9.386080	-0.268433	-0.266591	-0.433374	-0.960657	-0.011067	0.015276	-0.277097
18282	0.060978	-0.220189	10.825949	0.021233	-0.529285	1.002705	-0.959772	-0.012140	0.014687	-0.280132
18283	0.297203	-0.309446	12.473816	0.257638	-0.555853	2.653458	-0.958910	-0.013030	0.015053	-0.283013
18284	-0.351483	-0.499179	11.040755	-0.174382	-1.025660	1.195881	-0.957959	-0.012866	0.016095	-0.286163
18285	-0.267954	-0.431292	10.338048	-0.151980	-0.902027	0.497320	-0.957114	-0.012822	0.017483	-0.288899
18286	-0.374221	-0.185027	9.909710	-0.395245	-0.746577	0.069770	-0.956306	-0.012643	0.019083	-0.291471
18287	-0.086809	0.139637	9.849705	-0.367180	-0.326590	0.026120	-0.955699	-0.012908	0.020921	-0.293316
18288	0.457075	-0.083815	10.682015	0.158920	-0.249848	0.875327	-0.955204	-0.012675	0.022160	-0.294846
18289	-0.197369	-0.381784	10.453110	-0.233430	-0.851418	0.611935	-0.954863	-0.011884	0.023287	-0.295893
18290	0.440759	-0.016844	9.609705	0.087949	-0.144338	-0.194353	-0.954676	-0.010866	0.023965	-0.296483
18291	0.817511	-0.105068	9.168870	0.451893	0.031917	-0.618000	-0.954486	-0.009742	0.023663	-0.297157
18292	0.691834	0.031196	8.272944	0.304458	0.121949	-1.517290	-0.954221	-0.009413	0.022717	-0.298090
18293	0.787951	0.009135	8.496781	0.407438	0.160632	-1.290694	-0.953920	-0.009377	0.021250	-0.299162
18294	0.507391	-0.432837	8.544441	0.455772	-0.356540	-1.261820	-0.953536	-0.009727	0.019478	-0.300491
18295	-0.181350	-0.587032	8.821831	0.009636	-0.883066	-1.013701	-0.953105	-0.010265	0.017413	-0.301965
18296	-0.983191	-0.683733	8.873920	-0.549148	-1.421039	-0.988882	-0.952776	-0.010574	0.015113	-0.303113
18297	-0.202913	-1.049539	9.667028	0.326880	-1.282079	-0.177158	-0.952515	-0.010128	0.013244	-0.304036
18298	-0.064407	-0.602682	9.228380	0.212595	-0.802017	-0.601724	-0.952105	-0.009218	0.011882	-0.305400
18299	0.221039	-1.379302	9.165176	0.910609	-1.240278	-0.670247	-0.951557	-0.008066	0.011391	-0.307155
18300	-0.659571	-1.693084	9.229326	0.381563	-1.988657	-0.626739	-0.950635	-0.007033	0.011802	-0.310008
18301	-0.759113	-2.109324	9.810119	0.535100	-2.380812	-0.050039	-0.949264	-0.006089	0.013129	-0.314148
18302	-0.747508	-0.739093	10.790225	-0.295266	-1.291296	0.947394	-0.947794	-0.005849	0.014055	-0.318521
18303	-0.127718	-0.818103	11.125264	0.247376	-0.992036	1.296396	-0.946790	-0.006393	0.013499	-0.321506
18304	-0.626150	-1.735693	11.222352	0.462468	-2.049364	1.364583	-0.946077	-0.009396	0.010957	-0.323620
18305	-0.901281	-1.888325	11.567494	0.442607	-2.407451	1.684764	-0.945464	-0.014282	0.007149	-0.325334
18306	-1.173700	-0.700067	12.689382	-0.322475	-1.811049	2.816525	-0.944434	-0.024070	0.001552	-0.327814
18307	-0.229255	-2.902082	12.156071	1.957208	-3.066943	2.145786	-0.942477	-0.030246	-0.001578	-0.332895
18308	-0.158471	-2.528933	12.266874	1.944015	-2.832952	2.232583	-0.938828	-0.037007	-0.004622	-0.342360
18309	-2.057268	-0.142911	13.333323	-0.813969	-2.430606	3.433257	-0.935687	-0.043693	-0.008422	-0.350015
18310	0.129151	-1.392946	12.823522	1.779034	-1.993905	2.807044	-0.932988	-0.047690	-0.011046	-0.356564
18311	-0.265842	-0.336939	13.067487	0.911578	-1.553029	3.137187	-0.929948	-0.051560	-0.013252	-0.363816
18312	-1.390117	-0.410696	13.344682	0.267850	-2.459205	3.380517	-0.926950	-0.055041	-0.015578	-0.370799
18313	-1.996152	0.647666	13.677142	-0.749393	-2.208798	3.826463	-0.924232	-0.057740	-0.018415	-0.376991
18314	-1.993798	2.016281	13.995659	-1.545600	-1.327196	4.321211	-0.921451	-0.060395	-0.021840	-0.383148
18315	-1.627566	3.391066	14.154833	-2.105078	-0.191696	4.679979	-0.918525	-0.063514	-0.025981	-0.389363
18316	-1.316260	4.516945	13.921038	-2.564442	0.746729	4.637009	-0.915536	-0.067375	-0.031118	-0.395331
18317	-1.399904	5.066561	13.275057	-2.920104	1.029847	4.125227	-0.912605	-0.071964	-0.037275	-0.400729
18318	-1.551559	5.353287	12.473173	-3.141303	1.100097	3.437315	-0.909987	-0.076950	-0.044385	-0.405010
18319	-0.743624	5.815027	11.303763	-2.911266	2.052908	2.412228	-0.907792	-0.082002	-0.052179	-0.408003
18320	0.192681	6.349369	9.823329	-2.738421	3.208693	1.098372	-0.906058	-0.086968	-0.060525	-0.409673
18321	0.732470	6.690008	8.335531	-2.735358	3.966745	-0.244311	-0.904905	-0.091421	-0.068784	-0.409949
18322	0.948818	6.670912	6.996496	-2.699738	4.258909	-1.510678	-0.904579	-0.094807	-0.076654	-0.408501
18323	0.254465	5.759104	5.867006	-2.617720	3.283969	-2.740510	-0.904825	-0.097100	-0.083266	-0.406116
18324	-0.374588	5.399045	5.313345	-2.812871	2.660578	-3.291166	-0.905267	-0.098090	-0.087695	-0.403954
18325	-0.298474	5.548710	4.950369	-2.900573	2.886050	-3.596539	-0.906233	-0.097697	-0.090621	-0.401230
18326	0.297622	5.909415	4.724087	-2.772700	3.638381	-3.779393	-0.907921	-0.096065	-0.092629	-0.397329
18327	0.782171	6.025427	4.583234	-2.517905	4.152489	-3.952668	-0.910463	-0.093384	-0.094092	-0.391770
18328	0.544829	5.831702	4.721457	-2.455277	3.914910	-3.876203	-0.913646	-0.089895	-0.094966	-0.384905
18329	-0.043551	5.310798	4.940336	-2.401928	3.201867	-3.763614	-0.917055	-0.086140	-0.095033	-0.377570
18330	-0.143569	4.645478	5.110653	-1.954611	2.733312	-3.777143	-0.920290	-0.082558	-0.094028	-0.370688
18331	0.054812	4.466303	5.257547	-1.647885	2.801228	-3.727471	-0.923389	-0.079195	-0.092272	-0.364097
18332	-0.237839	3.930627	5.325357	-1.486550	2.269222	-3.770644	-0.926581	-0.076041	-0.090160	-0.357123
18333	-0.577987	3.069183	5.534719	-1.134919	1.449221	-3.730049	-0.929969	-0.072871	-0.087970	-0.349439
18334	-0.761003	2.835978	5.761970	-1.085223	1.194450	-3.550304	-0.933496	-0.069636	-0.085640	-0.341176
18335	-0.326617	2.532391	6.199131	-0.488012	1.268653	-3.247549	-0.937110	-0.066672	-0.083662	-0.332236
18336	-0.218286	2.144092	6.548203	-0.101127	1.059236	-3.001565	-0.940784	-0.064182	-0.082291	-0.322543
18337	-0.021849	1.305558	6.446485	0.524566	0.559939	-3.280199	-0.944322	-0.062655	-0.080925	-0.312702
18338	0.220125	0.859650	6.817280	1.029491	0.327385	-3.023311	-0.947154	-0.061925	-0.078078	-0.304909
18339	0.377354	0.849094	6.914583	1.142520	0.387098	-2.941051	-0.949285	-0.062046	-0.074010	-0.299218
18340	0.339550	0.636213	7.204202	1.236585	0.137556	-2.680214	-0.951106	-0.063073	-0.069629	-0.294230
18341	0.072120	-0.048778	7.597823	1.409786	-0.651734	-2.374828	-0.952790	-0.064541	-0.065301	-0.289415
18342	-0.379488	-1.355407	7.636462	1.689020	-2.036106	-2.512171	-0.954300	-0.066424	-0.061164	-0.284882
18343	-0.952153	-2.239009	7.799840	1.639390	-3.152097	-2.455159	-0.955789	-0.067938	-0.057159	-0.280330
18344	-0.956960	-2.880021	7.938215	1.912669	-3.747765	-2.428870	-0.957347	-0.068719	-0.053506	-0.275501
18345	-0.620162	-3.365341	8.086711	2.384113	-4.028134	-2.383392	-0.958931	-0.068827	-0.050144	-0.270555
18346	0.157703	-3.658114	8.072924	3.102417	-3.894272	-2.478681	-0.960148	-0.067972	-0.045881	-0.267189
18347	0.231599	-3.211020	8.218531	2.864903	-3.507006	-2.236349	-0.961057	-0.065987	-0.040820	-0.265235
18348	-0.075292	-2.359758	9.161916	2.184927	-3.036544	-1.122510	-0.962150	-0.062865	-0.035976	-0.262718
18349	-0.359447	-1.789908	9.858834	1.622094	-2.738753	-0.304986	-0.963397	-0.059050	-0.031839	-0.259548
18350	-0.264077	-1.106414	10.434247	1.316226	-2.118215	0.382752	-0.964503	-0.055335	-0.028116	-0.256674
18351	0.388416	-0.023193	10.805211	1.284767	-0.850597	0.889134	-0.965397	-0.052154	-0.024559	-0.254335
18352	0.809091	0.999938	11.141214	1.092861	0.243120	1.346485	-0.966084	-0.050092	-0.021305	-0.252426
18353	1.213678	1.513037	11.314474	1.138982	0.885452	1.575815	-0.966735	-0.048909	-0.018518	-0.250378
18354	0.779141	1.745444	11.497985	0.604646	0.861381	1.795479	-0.967319	-0.048404	-0.016225	-0.248370
18355	0.273970	1.741541	11.618530	0.131986	0.589128	1.923311	-0.967786	-0.049107	-0.014491	-0.246514
18356	0.007973	1.090241	11.631124	0.184070	-0.134898	1.867192	-0.968157	-0.050095	-0.013368	-0.244915
18357	0.343977	0.170139	10.959284	0.855912	-0.744113	1.094503	-0.968314	-0.051117	-0.012218	-0.244141
18358	0.621920	-0.480610	10.434762	1.354011	-1.154294	0.499257	-0.968170	-0.051738	-0.010671	-0.244655
18359	0.730721	-0.761694	10.057325	1.532582	-1.323721	0.095026	-0.967872	-0.051805	-0.008910	-0.245887
18360	0.899333	-0.445618	9.971809	1.491616	-0.958265	0.051441	-0.967679	-0.051057	-0.007073	-0.246861
18361	1.047194	-0.138006	9.907428	1.432397	-0.601702	0.029001	-0.967515	-0.049939	-0.005213	-0.247778
18362	0.741093	0.331829	9.875351	0.896199	-0.321121	0.050144	-0.967342	-0.048703	-0.003334	-0.248728
18363	0.207426	0.897373	10.144880	0.124702	-0.096507	0.372688	-0.967175	-0.047450	-0.001505	-0.249638
18364	0.013695	1.261819	10.284241	-0.255257	0.125517	0.544772	-0.966993	-0.046608	0.000011	-0.250503
18365	0.788761	3.491396	11.130486	-0.638438	2.323585	1.628137	-0.966567	-0.050223	-0.000203	-0.251447
18366	0.787989	5.900852	12.012229	-1.701014	4.149345	2.821216	-0.965411	-0.061808	-0.003689	-0.253273
18367	-0.398565	3.091497	11.640803	-1.267312	0.952069	2.133352	-0.964220	-0.070718	-0.005551	-0.255436
18368	-0.537447	1.941088	10.915202	-0.789480	-0.178845	1.257135	-0.963132	-0.077612	-0.006526	-0.257508
18369	-0.020587	1.322975	10.436323	-0.014666	-0.497752	0.695342	-0.962291	-0.082377	-0.007403	-0.259142
18370	-0.139117	0.604741	10.057445	0.253727	-1.185271	0.190692	-0.961476	-0.085743	-0.008198	-0.261045
18371	-0.549782	-1.089777	9.424192	0.735646	-2.774207	-0.753568	-0.960206	-0.088187	-0.008364	-0.264873
18372	0.387223	-0.102965	9.070968	1.033485	-1.436090	-0.906930	-0.958534	-0.089982	-0.007697	-0.270288
18373	0.928773	1.485293	9.157595	0.672175	0.137645	-0.514332	-0.956987	-0.090857	-0.006629	-0.275458
18374	0.862146	1.702140	9.414125	0.495068	0.227412	-0.222616	-0.956070	-0.090821	-0.005631	-0.278658
18375	0.969863	1.880610	9.440805	0.470154	0.429064	-0.158623	-0.955692	-0.090319	-0.004877	-0.280129
18376	0.484628	2.757076	9.652602	-0.416417	0.859894	0.192120	-0.955253	-0.089701	-0.003909	-0.281833
18377	0.045714	3.423839	9.920520	-1.155846	1.121115	0.557872	-0.954474	-0.089661	-0.002843	-0.284487
18378	0.183036	3.579065	9.885241	-1.155671	1.308330	0.556198	-0.953501	-0.090425	-0.002056	-0.287499
18379	0.664640	3.588700	9.715291	-0.792289	1.575655	0.414571	-0.952341	-0.091949	-0.001459	-0.290842
18380	0.602312	2.942181	9.294924	-0.534527	1.043691	-0.115289	-0.950790	-0.094111	-0.000543	-0.295196
18381	0.288877	1.963708	8.766785	-0.299535	0.121272	-0.829846	-0.949001	-0.096493	0.000749	-0.300142
18382	-0.014915	1.292900	8.618584	-0.183759	-0.614024	-1.121267	-0.947404	-0.099270	0.001285	-0.304251
18383	0.166950	1.429420	8.762521	-0.094187	-0.480359	-0.946288	-0.946093	-0.102204	0.001087	-0.307344
18384	0.489772	1.844950	8.727374	-0.059296	-0.008903	-0.879215	-0.944860	-0.105198	0.000736	-0.310117
18385	1.129802	1.947413	8.719384	0.414850	0.397176	-0.825673	-0.943660	-0.108402	0.000271	-0.312658
18386	1.503072	2.289205	8.741449	0.531247	0.827682	-0.705268	-0.942473	-0.111558	-0.000009	-0.315117
18387	1.248074	2.158280	8.592790	0.400835	0.556137	-0.891827	-0.941204	-0.114329	0.000243	-0.317905
18388	1.111312	2.280686	8.601020	0.216350	0.519950	-0.863008	-0.939974	-0.116678	0.001011	-0.320677
18389	1.322795	2.111108	8.746675	0.487691	0.442136	-0.741997	-0.938843	-0.118760	0.002033	-0.323211
18390	1.521090	1.286473	8.676093	1.126081	-0.088148	-0.982775	-0.937656	-0.120826	0.003210	-0.325870
18391	1.329392	0.907805	8.645457	1.184608	-0.519847	-1.114318	-0.936272	-0.122485	0.005171	-0.329189
18392	1.513552	0.921963	8.668257	1.285335	-0.428545	-1.069486	-0.934740	-0.123269	0.007986	-0.333170
18393	1.417228	1.503103	8.750107	0.800450	-0.091906	-0.858206	-0.933328	-0.123131	0.011037	-0.337070
18394	1.243798	1.848164	8.828839	0.388847	0.029069	-0.715508	-0.932180	-0.122045	0.014343	-0.340499
18395	1.242207	2.342903	8.902837	0.010037	0.374483	-0.530871	-0.931380	-0.120905	0.017133	-0.342958
18396	1.451635	2.931157	8.954369	-0.269145	0.939405	-0.329843	-0.930897	-0.118574	0.019543	-0.344949
18397	1.956844	2.596779	9.032544	0.272879	1.024830	-0.271501	-0.930540	-0.116232	0.021698	-0.346576
18398	0.809853	3.598065	10.926393	-1.173795	0.536721	1.646853	-0.928983	-0.120883	0.021904	-0.349138
18399	-2.839238	5.767719	12.483430	-5.210293	-0.796919	3.201766	-0.926307	-0.128819	0.020989	-0.353441
18400	0.668146	2.691585	10.577469	-0.605640	-0.385390	1.098682	-0.924872	-0.132507	0.020051	-0.355881
18401	1.559317	2.210536	9.213029	0.330858	0.163313	-0.217820	-0.924390	-0.134683	0.018249	-0.356414
18402	1.511133	1.500247	8.888181	0.786944	-0.304680	-0.712042	-0.924244	-0.136201	0.016292	-0.356310
18403	0.914484	1.815765	8.884563	0.169417	-0.486041	-0.713032	-0.924025	-0.137580	0.015059	-0.356402
18404	0.871369	2.021456	8.879349	0.025336	-0.384914	-0.672690	-0.923499	-0.138915	0.014330	-0.357277
18405	1.178729	2.582017	8.998237	-0.091269	0.161959	-0.379242	-0.923087	-0.140007	0.013827	-0.357934
18406	0.999832	2.956495	9.107016	-0.451670	0.264957	-0.199985	-0.922844	-0.140614	0.013411	-0.358338
18407	0.748530	2.824336	8.981128	-0.552516	0.034791	-0.384467	-0.922644	-0.140887	0.013038	-0.358761
18408	0.895733	3.105906	9.072010	-0.618760	0.301434	-0.206615	-0.922336	-0.141011	0.012894	-0.359508
18409	0.944473	2.895952	9.097880	-0.444879	0.176743	-0.230369	-0.921932	-0.140962	0.013225	-0.360550
18410	0.801998	2.788061	9.234007	-0.479874	-0.033324	-0.145633	-0.921555	-0.140771	0.013974	-0.361558
18411	0.440977	2.491793	9.419772	-0.547300	-0.531674	-0.088831	-0.921403	-0.140510	0.014551	-0.362025
18412	0.406734	2.296657	9.368354	-0.456865	-0.675059	-0.192828	-0.921463	-0.140224	0.014930	-0.361968
18413	0.674183	2.085778	9.603648	-0.111746	-0.707293	0.011888	-0.921575	-0.139958	0.015788	-0.361749
18414	0.751867	2.282957	9.821804	-0.192480	-0.581789	0.280351	-0.921622	-0.139773	0.017313	-0.361631
18415	0.742563	2.511207	9.982780	-0.374970	-0.483748	0.489676	-0.921641	-0.139736	0.019427	-0.361489
18416	0.474700	2.453580	10.044935	-0.571705	-0.739530	0.496150	-0.921612	-0.140219	0.021957	-0.361230
18417	0.289395	2.588131	10.221656	-0.835850	-0.851845	0.667759	-0.921431	-0.141173	0.025111	-0.361116
18418	-2.457578	0.286495	13.876547	-1.200548	-5.375786	3.161723	-0.921826	-0.143536	0.032821	-0.358549
18419	1.826662	3.830811	11.293520	-0.733066	0.485346	2.219574	-0.922006	-0.148635	0.044815	-0.354690
18420	1.079392	3.975579	10.981790	-1.593084	0.023489	1.807410	-0.921857	-0.151872	0.055362	-0.352207
18421	1.285942	2.765499	10.213505	-0.817883	-0.582410	0.798908	-0.921866	-0.154527	0.064644	-0.349436
18422	1.684773	2.784842	10.162645	-0.678495	-0.413937	0.828695	-0.921793	-0.156887	0.072671	-0.346993
18423	2.146870	2.397915	10.118035	-0.211968	-0.499041	0.790940	-0.921523	-0.159713	0.081040	-0.344557
18424	2.390137	2.499858	9.811451	-0.224116	-0.290394	0.583916	-0.921110	-0.162665	0.089435	-0.342196
18425	2.809007	2.268715	9.212231	0.136527	-0.103890	0.080278	-0.920569	-0.165634	0.098041	-0.339862
18426	3.475570	2.324670	7.983900	0.562235	0.687872	-0.844090	-0.920077	-0.168126	0.104814	-0.337945
18427	3.563500	2.383775	7.520531	0.549571	0.886209	-1.219005	-0.919928	-0.169566	0.109452	-0.336156
18428	3.915856	2.523613	6.990159	0.726593	1.363100	-1.555638	-0.920119	-0.169597	0.111111	-0.335071
18429	4.238608	2.871004	7.107681	0.727333	1.762819	-1.263363	-0.920688	-0.167862	0.110208	-0.334679
18430	4.234420	2.701968	7.258205	0.839212	1.634420	-1.179244	-0.921404	-0.164535	0.107291	-0.335308
18431	4.255102	2.540002	7.345562	0.987413	1.587663	-1.151396	-0.922178	-0.160028	0.102570	-0.336836
18432	4.869168	3.049595	7.565490	1.147728	2.363021	-0.683498	-0.922889	-0.154369	0.096215	-0.339394
18433	4.234489	2.731355	7.683445	0.937890	1.877370	-0.867358	-0.923771	-0.147231	0.087804	-0.342434
18434	3.316623	1.070786	8.390206	1.389140	0.062956	-0.834636	-0.924099	-0.141163	0.079626	-0.346085
18435	3.239353	1.206696	8.420811	1.323026	0.255126	-0.810353	-0.923606	-0.136806	0.072454	-0.350695
18436	2.288001	1.318644	8.816838	0.606703	-0.261736	-0.632693	-0.922662	-0.133422	0.065946	-0.355730
18437	1.727191	1.310305	8.930995	0.271264	-0.562368	-0.643617	-0.921604	-0.130883	0.060279	-0.360392
18438	1.150646	1.375268	9.090705	-0.128487	-0.862116	-0.587947	-0.920760	-0.128975	0.055623	-0.363968
18439	-0.235069	0.413333	9.318760	-0.417219	-2.459239	-0.821414	-0.920668	-0.128217	0.051874	-0.365021
18440	1.566940	2.875097	8.585919	-0.751592	0.682084	-0.679821	-0.920677	-0.127669	0.049741	-0.365487
18441	1.188145	2.846176	8.291760	-0.990093	0.520734	-1.036918	-0.920735	-0.126047	0.048297	-0.366096
18442	1.433976	2.422654	8.612348	-0.505441	0.340845	-0.772429	-0.920832	-0.124067	0.046709	-0.366734
18443	1.457598	1.993560	8.902517	-0.172591	0.024140	-0.575637	-0.920994	-0.122305	0.044655	-0.367174
18444	1.470939	1.549478	9.046057	0.170987	-0.270760	-0.523290	-0.921066	-0.120816	0.042223	-0.367774
18445	1.576648	1.631423	9.278795	0.226536	-0.160020	-0.264586	-0.920874	-0.119462	0.039819	-0.368964
18446	1.072286	1.736232	9.526104	-0.175242	-0.445061	-0.082223	-0.920534	-0.117972	0.037453	-0.370535
18447	0.864917	1.598410	9.521307	-0.200064	-0.633246	-0.142270	-0.920286	-0.116203	0.034949	-0.371952
18448	0.400933	1.628340	9.404567	-0.525286	-0.847733	-0.311993	-0.920132	-0.114298	0.032070	-0.373182
18449	0.405659	1.669792	9.041974	-0.525738	-0.680838	-0.649184	-0.920177	-0.112759	0.029116	-0.373782
18450	0.672813	1.438894	8.695088	-0.144945	-0.539309	-0.991377	-0.920257	-0.112030	0.026026	-0.374030
18451	0.447515	1.027270	8.538394	0.022144	-0.917506	-1.250145	-0.920292	-0.112234	0.022626	-0.374104
18452	0.364873	1.443555	8.882874	-0.245221	-0.748899	-0.840451	-0.920214	-0.113156	0.018797	-0.374231
18453	-0.042048	1.694198	9.180184	-0.619760	-0.914248	-0.542985	-0.920087	-0.114512	0.014828	-0.374309
18454	-0.307042	1.913573	9.441527	-0.867737	-1.002835	-0.265995	-0.919889	-0.116066	0.011238	-0.374441
18455	-0.722070	1.602903	9.074398	-0.909158	-1.426524	-0.725693	-0.919745	-0.117822	0.008122	-0.374328
18456	-0.429449	1.728900	8.843823	-0.740996	-1.099553	-0.889219	-0.919723	-0.120016	0.005297	-0.373736
18457	0.252136	1.930459	8.810980	-0.330998	-0.502732	-0.809300	-0.919706	-0.122259	0.002673	-0.373076
18458	0.832804	2.054205	8.983780	0.078464	-0.083477	-0.560221	-0.919603	-0.124983	0.000427	-0.372436
18459	1.404807	2.768721	9.480419	0.107099	0.647559	0.141530	-0.919436	-0.128034	-0.000942	-0.371813
18460	0.974766	2.747992	10.315385	-0.055777	0.089925	0.906324	-0.919118	-0.131136	-0.001726	-0.371514
18461	0.444512	3.261318	10.666202	-0.716287	-0.063526	1.326620	-0.918714	-0.134132	-0.001866	-0.371443
18462	0.270162	2.764756	11.097118	-0.430607	-0.686738	1.598079	-0.918323	-0.136572	-0.001952	-0.371519
18463	0.173153	2.861340	11.253028	-0.529216	-0.772422	1.761898	-0.918072	-0.138453	-0.001957	-0.371445
18464	-0.117197	2.446739	11.080543	-0.463642	-1.241790	1.457701	-0.918005	-0.139522	-0.002003	-0.371208
18465	0.185356	2.210814	10.465646	-0.148725	-1.055814	0.832261	-0.918088	-0.140181	-0.001927	-0.370757
18466	1.210876	1.947834	9.806245	0.699729	-0.379519	0.226687	-0.917973	-0.140929	-0.001799	-0.370757
18467	1.025947	1.988922	9.454127	0.501996	-0.403307	-0.118658	-0.917636	-0.141985	-0.001837	-0.371188
18468	0.259265	2.127107	9.189287	-0.164818	-0.780064	-0.410609	-0.917384	-0.143034	-0.002518	-0.371405
18469	0.256971	2.304664	9.137799	-0.271935	-0.660633	-0.412345	-0.917261	-0.144127	-0.003433	-0.371279
18470	0.207185	2.722890	9.196510	-0.563534	-0.438259	-0.245913	-0.917136	-0.145091	-0.004089	-0.371205
18471	0.325765	2.801518	8.962604	-0.544577	-0.252118	-0.435974	-0.917142	-0.145754	-0.004512	-0.370926
18472	0.561660	2.832386	8.814012	-0.403043	-0.034559	-0.546565	-0.917244	-0.145922	-0.004866	-0.370603
18473	0.542165	2.850187	8.538514	-0.457647	0.041918	-0.806438	-0.917487	-0.145606	-0.005201	-0.370121
18474	0.600364	2.853413	8.429971	-0.423980	0.127718	-0.903664	-0.918000	-0.144740	-0.006002	-0.369175
18475	0.237848	2.866481	8.599272	-0.662732	-0.126220	-0.770259	-0.918802	-0.143348	-0.007201	-0.367700
18476	0.007732	2.724349	8.511172	-0.731886	-0.318947	-0.911865	-0.919745	-0.141691	-0.008550	-0.365949
18477	0.031453	2.643772	8.523863	-0.644424	-0.319919	-0.917242	-0.920865	-0.139996	-0.009877	-0.363745
18478	0.135039	2.638635	8.604714	-0.540825	-0.233737	-0.830791	-0.921970	-0.138452	-0.010985	-0.361498
18479	0.314295	2.646601	8.743692	-0.384084	-0.106414	-0.680520	-0.923063	-0.137087	-0.011866	-0.359194
18480	0.191796	2.725818	8.697057	-0.523049	-0.087498	-0.711900	-0.924194	-0.135752	-0.012611	-0.356760
18481	0.184375	2.599688	8.698036	-0.437726	-0.148125	-0.744360	-0.925409	-0.134334	-0.013256	-0.354115
18482	0.255470	2.439858	8.700799	-0.274015	-0.182046	-0.778655	-0.926589	-0.132872	-0.013831	-0.351550
18483	0.315874	2.241162	8.625721	-0.105911	-0.234689	-0.898694	-0.927777	-0.131411	-0.014251	-0.348938
18484	0.343156	2.330799	8.446469	-0.162646	-0.079702	-1.045685	-0.928868	-0.129997	-0.014713	-0.346539
18485	0.039662	2.261845	8.217799	-0.375526	-0.244127	-1.300986	-0.929898	-0.128643	-0.015043	-0.344258
18486	-0.284328	2.147452	8.455893	-0.524058	-0.567183	-1.117968	-0.930828	-0.127556	-0.014751	-0.342156
18487	-0.531288	2.374828	9.041984	-0.801407	-0.676516	-0.507874	-0.931714	-0.126656	-0.013554	-0.340124
18488	-1.585246	2.306788	10.203803	-1.471384	-1.659065	0.533040	-0.932655	-0.126222	-0.010674	-0.337800
18489	-1.781012	2.706881	10.188186	-1.996313	-1.530833	0.577982	-0.934006	-0.128878	-0.000731	-0.333202
18490	-1.307701	3.239716	9.505636	-2.187964	-0.749564	0.046916	-0.935226	-0.130455	0.007840	-0.329049
18491	-0.649036	2.736972	9.676022	-1.469852	-0.796897	0.124180	-0.936749	-0.130076	0.013129	-0.324669
18492	-1.022184	1.961194	10.761439	-1.284030	-1.865953	0.937610	-0.938336	-0.128140	0.014200	-0.320785
18493	-0.935616	2.134691	10.713307	-1.350007	-1.609260	0.948098	-0.940225	-0.125372	0.013774	-0.316338
18494	-0.558943	2.092039	10.580982	-1.039848	-1.306333	0.857731	-0.942248	-0.122213	0.012890	-0.311556
18495	-0.444223	1.092605	10.013259	-0.406101	-1.805382	0.098510	-0.944314	-0.119617	0.012916	-0.306261
18496	0.754431	1.045522	9.713508	0.558214	-1.051355	-0.086560	-0.945975	-0.119164	0.013600	-0.301242
18497	3.456198	2.318674	11.214914	2.166450	1.170131	1.893364	-0.946359	-0.117368	0.008322	-0.300934
18498	-1.709588	5.321011	9.342681	-3.809235	1.127522	0.323317	-0.947748	-0.114268	0.004566	-0.297819
18499	0.512393	2.432641	10.195764	-0.277088	-0.030021	0.678069	-0.949202	-0.112038	0.006212	-0.293981
18500	2.333181	2.696049	10.592340	1.099285	1.171474	1.247540	-0.950613	-0.108281	0.004636	-0.290840
18501	0.038149	2.500051	9.670392	-0.729626	0.040071	0.148892	-0.952021	-0.103408	0.001956	-0.288027
18502	-0.745857	1.685847	8.928655	-0.970439	-0.794641	-0.782447	-0.953403	-0.098597	0.000557	-0.285133
18503	-0.675179	1.298100	8.539846	-0.724684	-0.904289	-1.226283	-0.954720	-0.094013	-0.000958	-0.282260
18504	-1.445321	1.033691	7.940472	-1.268232	-1.345853	-1.888778	-0.955915	-0.090008	-0.002169	-0.279502
18505	-1.726829	0.837655	7.709179	-1.423555	-1.551370	-2.152303	-0.957102	-0.086915	-0.002628	-0.276395
18506	-1.483475	0.719346	7.644314	-1.172518	-1.458321	-2.219795	-0.958284	-0.084555	-0.002692	-0.273009
18507	-1.298255	0.711048	7.452032	-1.035227	-1.295767	-2.398309	-0.959526	-0.082722	-0.002826	-0.269183
18508	-1.127822	0.726212	7.446116	-0.906449	-1.160024	-2.391325	-0.960824	-0.081296	-0.003120	-0.264951
18509	-0.799628	0.806647	7.495194	-0.664733	-0.901462	-2.315125	-0.962204	-0.079960	-0.003844	-0.260299
18510	-0.816308	1.018266	7.444100	-0.780903	-0.690105	-2.327255	-0.963538	-0.078619	-0.005089	-0.255712
18511	-0.888792	0.803563	6.954812	-0.754562	-0.802313	-2.841898	-0.964811	-0.077330	-0.006589	-0.251230
18512	-0.975087	0.796530	6.975064	-0.812417	-0.824747	-2.820086	-0.965961	-0.076371	-0.007960	-0.247031
18513	-0.948695	0.948984	6.945722	-0.849999	-0.650561	-2.819987	-0.967079	-0.075586	-0.009324	-0.242813
18514	-0.817835	0.852750	7.028232	-0.669947	-0.661550	-2.748301	-0.968190	-0.074859	-0.010646	-0.238517
18515	-0.685382	0.883120	7.252034	-0.538225	-0.584381	-2.518141	-0.969316	-0.074147	-0.011823	-0.234071
18516	-0.714051	0.965527	7.393262	-0.577473	-0.524138	-2.363246	-0.970432	-0.073448	-0.013009	-0.229561
18517	-0.796384	0.812021	7.398137	-0.570632	-0.675388	-2.380042	-0.971601	-0.072680	-0.013958	-0.224754
18518	-0.867337	0.685607	7.402139	-0.573029	-0.799193	-2.393328	-0.972771	-0.072094	-0.014489	-0.219795
18519	-1.172136	0.797261	7.545169	-0.886951	-0.832030	-2.232442	-0.973995	-0.071641	-0.014503	-0.214456
18520	-1.246256	0.871929	7.503131	-0.995890	-0.771712	-2.261329	-0.975276	-0.071256	-0.014055	-0.208716
18521	-0.603812	0.762035	7.483886	-0.380050	-0.591154	-2.298706	-0.976628	-0.070974	-0.013121	-0.202454
18522	-0.262833	0.699979	7.691625	-0.045186	-0.534874	-2.103472	-0.977959	-0.070843	-0.012187	-0.196033
18523	-0.273084	0.910948	8.018053	-0.130336	-0.391134	-1.748967	-0.979260	-0.070972	-0.011114	-0.189445
18524	-0.285729	1.116443	8.054547	-0.232298	-0.216123	-1.682305	-0.980440	-0.071427	-0.009605	-0.183147
18525	-0.256880	1.205504	8.052435	-0.260331	-0.133683	-1.671728	-0.981531	-0.072256	-0.007385	-0.176980
18526	-0.469079	1.274007	7.974175	-0.519366	-0.149536	-1.741854	-0.982518	-0.073443	-0.004471	-0.171007
18527	-0.235775	1.276468	7.949024	-0.344244	-0.087783	-1.766230	-0.983498	-0.074916	-0.000814	-0.164675
18528	0.390618	1.353036	8.192115	0.182204	0.117353	-1.503251	-0.984472	-0.076495	0.003185	-0.157964
18529	0.952557	1.708240	8.396525	0.565468	0.552772	-1.227730	-0.985456	-0.077965	0.006799	-0.150835
18530	1.582951	2.139334	8.626154	1.010966	1.065525	-0.905645	-0.986419	-0.079173	0.009816	-0.143574
18531	2.360392	2.246381	8.997707	1.713416	1.277836	-0.484904	-0.987356	-0.080139	0.012106	-0.136234
18532	2.862445	2.563920	9.332612	2.113006	1.608301	-0.075476	-0.988209	-0.080928	0.013405	-0.129283
18533	3.090956	2.934899	9.684974	2.259001	1.913862	0.346062	-0.988991	-0.081485	0.013823	-0.122740
18534	2.693428	3.201064	10.131577	1.836813	1.961325	0.814138	-0.989666	-0.081695	0.014058	-0.116998
18535	1.902343	3.133065	10.272853	1.105037	1.672400	0.908715	-0.990284	-0.081433	0.014605	-0.111776
18536	1.658386	2.934188	10.175129	0.917395	1.440620	0.769182	-0.990849	-0.080835	0.015817	-0.106927
18537	1.551977	2.767421	10.108476	0.840926	1.271471	0.671812	-0.991407	-0.079977	0.017419	-0.102045
18538	1.634660	2.821997	10.017109	0.895745	1.361872	0.595058	-0.991957	-0.078991	0.019280	-0.097008
18539	1.900687	2.728544	10.103432	1.154289	1.312780	0.679266	-0.992507	-0.077909	0.021309	-0.091683
18540	2.076840	2.802102	10.126414	1.294731	1.416239	0.724258	-0.993017	-0.076820	0.023107	-0.086494
18541	2.105944	2.883809	9.995543	1.298993	1.525195	0.610777	-0.993479	-0.075815	0.024732	-0.081481
18542	2.137264	2.826960	10.119431	1.324087	1.456407	0.727149	-0.993876	-0.074986	0.026233	-0.076805
18543	2.425258	2.994246	10.250831	1.571186	1.641007	0.900174	-0.994239	-0.074202	0.027305	-0.072375
18544	2.365290	3.072586	10.254932	1.503771	1.710336	0.911698	-0.994583	-0.073280	0.027775	-0.068288
18545	1.776623	2.661972	10.123699	0.995183	1.258031	0.682965	-0.994912	-0.072345	0.027892	-0.064326
18546	1.393417	2.702140	10.101685	0.620616	1.262442	0.642373	-0.995195	-0.071570	0.028282	-0.060539
18547	1.213056	2.600136	10.062902	0.458607	1.154156	0.577299	-0.995435	-0.071017	0.029041	-0.056758
18548	1.184277	2.439988	10.050988	0.444187	0.998485	0.540290	-0.995632	-0.070669	0.030062	-0.053093
18549	1.273584	2.698146	10.116225	0.492612	1.249534	0.648479	-0.995793	-0.070554	0.031211	-0.049430
18550	1.598013	2.863316	10.198838	0.785584	1.424449	0.776095	-0.995935	-0.070473	0.032286	-0.045870
18551	1.879276	2.874046	10.373516	1.051024	1.425838	0.969890	-0.996073	-0.070338	0.033053	-0.042402
18552	1.913629	2.828483	10.390543	1.089768	1.374887	0.983041	-0.996203	-0.070141	0.033489	-0.039211
18553	1.651071	2.529758	10.325591	0.862874	1.065978	0.857958	-0.996320	-0.069989	0.033644	-0.036272
18554	1.418249	2.267774	10.214225	0.663514	0.802556	0.694466	-0.996397	-0.070107	0.033818	-0.033678
18555	1.194427	2.221874	10.219199	0.446063	0.731819	0.678303	-0.996431	-0.070551	0.034159	-0.031315
18556	1.206548	2.240170	10.297805	0.450266	0.722686	0.760575	-0.996424	-0.071280	0.034662	-0.029286
18557	1.139510	2.362943	10.443790	0.362352	0.797181	0.919875	-0.996392	-0.072192	0.035204	-0.027433
18558	1.034857	2.415242	10.471325	0.246452	0.816929	0.949506	-0.996345	-0.073113	0.035857	-0.025786
18559	0.947147	2.348648	10.523008	0.149056	0.717367	0.985926	-0.996290	-0.073984	0.036711	-0.024183
18560	0.938042	2.299907	10.523415	0.127721	0.648846	0.979643	-0.996229	-0.074768	0.037699	-0.022704
18561	0.947108	2.283150	10.541814	0.118073	0.612163	0.997071	-0.996169	-0.075412	0.038843	-0.021253
18562	0.943642	2.229038	10.543283	0.096732	0.543646	0.990781	-0.996110	-0.075952	0.039974	-0.019960
18563	0.923529	2.382346	10.684078	0.038801	0.658991	1.152812	-0.996055	-0.076392	0.041125	-0.018659
18564	1.005028	2.409413	10.838798	0.086860	0.654049	1.316532	-0.996015	-0.076623	0.042211	-0.017339
18565	0.980071	2.157143	10.791772	0.058453	0.406851	1.228471	-0.995998	-0.076687	0.043078	-0.015883
18566	0.736266	2.081666	10.662161	-0.186925	0.345525	1.068615	-0.995985	-0.076633	0.043957	-0.014440
18567	0.684979	2.058861	10.462377	-0.238208	0.354638	0.863777	-0.995968	-0.076540	0.045001	-0.012840
18568	0.681674	1.927863	10.345300	-0.248099	0.244475	0.727010	-0.995933	-0.076512	0.046247	-0.011174
18569	0.713069	1.808219	10.285676	-0.234811	0.134077	0.651540	-0.995863	-0.076654	0.047880	-0.009385
18570	1.025695	1.959632	10.254295	0.041970	0.285837	0.673456	-0.995762	-0.076960	0.049771	-0.007664
18571	1.260483	2.120291	10.273819	0.233396	0.434190	0.741586	-0.995649	-0.077244	0.051765	-0.005996
18572	1.486015	2.154657	10.257731	0.419971	0.463598	0.755208	-0.995533	-0.077434	0.053825	-0.004540
18573	1.733401	2.162912	10.070072	0.645867	0.496508	0.600066	-0.995423	-0.077482	0.055850	-0.003232
18574	1.876305	2.199043	10.106925	0.747017	0.522612	0.659896	-0.995328	-0.077428	0.057631	-0.002185
18575	1.837860	2.360792	10.125422	0.672945	0.679049	0.702122	-0.995257	-0.077217	0.059148	-0.001249
18576	1.952649	2.354279	10.253995	0.748614	0.655348	0.841418	-0.995231	-0.076772	0.060182	-0.000306
18577	1.965097	2.128674	10.349165	0.738640	0.426553	0.900413	-0.995252	-0.076072	0.060713	0.000693
18578	1.750689	1.736418	10.303018	0.529829	0.062943	0.767839	-0.995310	-0.075204	0.060820	0.001660
18579	1.367738	1.720597	10.161807	0.166956	0.090170	0.582381	-0.995374	-0.074329	0.060811	0.002832
18580	1.148338	1.571106	10.061794	-0.039154	-0.021822	0.435469	-0.995423	-0.073395	0.061072	0.004129
18581	1.202032	1.326672	9.792084	0.038692	-0.206805	0.139476	-0.995434	-0.072574	0.061745	0.005666
18582	1.164382	1.143470	9.682520	-0.001209	-0.357673	-0.000117	-0.995407	-0.071901	0.062770	0.007370
18583	1.484121	1.173096	9.667859	0.293932	-0.325309	0.028754	-0.995324	-0.071455	0.064340	0.009205
18584	1.894224	1.146915	9.510576	0.688334	-0.335721	-0.077804	-0.995206	-0.071204	0.066159	0.010868
18585	2.112295	1.213229	9.424074	0.881982	-0.265539	-0.122570	-0.995068	-0.071153	0.068008	0.012332
18586	2.485919	1.303363	9.473721	1.211770	-0.201354	-0.008561	-0.994915	-0.071279	0.069882	0.013445
18587	2.734665	1.473907	9.710582	1.396097	-0.084595	0.286316	-0.994779	-0.071540	0.071377	0.014236
18588	2.617845	1.737422	9.887972	1.234301	0.146830	0.487732	-0.994678	-0.071756	0.072495	0.014569
18589	2.502790	1.971466	9.962130	1.095668	0.368374	0.582430	-0.994625	-0.071766	0.073187	0.014626
18590	2.388858	1.802278	9.950284	0.972561	0.209760	0.530094	-0.994630	-0.071549	0.073368	0.014484
18591	2.088050	1.472849	10.004996	0.662156	-0.106478	0.491651	-0.994674	-0.071237	0.073103	0.014339
18592	1.761129	1.541777	10.004354	0.347858	-0.019822	0.455922	-0.994730	-0.071003	0.072587	0.014231
18593	1.443635	1.309244	9.866385	0.058582	-0.213109	0.241908	-0.994772	-0.070828	0.072183	0.014227
18594	1.376919	1.410732	9.853877	0.000607	-0.107146	0.235868	-0.994771	-0.070869	0.072139	0.014314
18595	1.449794	1.407507	9.860520	0.069386	-0.117419	0.251816	-0.994728	-0.071139	0.072427	0.014472
18596	1.623513	1.409908	9.888991	0.228161	-0.133399	0.303928	-0.994648	-0.071600	0.073049	0.014576
18597	1.778469	1.532119	9.894064	0.368712	-0.030273	0.349298	-0.994548	-0.072208	0.073813	0.014584
18598	1.818405	1.646864	9.858417	0.398484	0.074432	0.338312	-0.994439	-0.072865	0.074668	0.014395
18599	1.851150	1.664937	9.828565	0.416550	0.083066	0.317416	-0.994324	-0.073501	0.075621	0.014097
18600	1.920383	2.029653	10.007137	0.444189	0.403377	0.559877	-0.994228	-0.073969	0.076532	0.013531
18601	1.925724	2.368434	10.073606	0.425826	0.723989	0.679687	-0.994180	-0.073999	0.077240	0.012822
18602	1.978007	2.127225	10.075975	0.459503	0.489983	0.652093	-0.994185	-0.073545	0.077734	0.012007
18603	1.874394	1.830891	9.944601	0.366384	0.234487	0.462105	-0.994240	-0.072870	0.077791	0.011222
18604	1.582010	1.837306	9.986417	0.072738	0.261530	0.460250	-0.994338	-0.072014	0.077447	0.010383
18605	1.336933	1.399842	9.889357	-0.149983	-0.129329	0.262384	-0.994457	-0.071067	0.076864	0.009870
18606	0.976374	1.360714	9.712132	-0.466407	-0.111536	0.031109	-0.994593	-0.070098	0.076027	0.009539
18607	0.612235	1.105072	9.585298	-0.794897	-0.317778	-0.182471	-0.994702	-0.069277	0.075357	0.009531
18608	0.675922	1.025583	9.511665	-0.712236	-0.374140	-0.255847	-0.994762	-0.068696	0.075067	0.009729
18609	0.833969	1.071182	9.520350	-0.553314	-0.326196	-0.217510	-0.994783	-0.068362	0.075027	0.010183
18610	0.958050	1.108948	9.536429	-0.433665	-0.291372	-0.178470	-0.994766	-0.068314	0.075223	0.010770
18611	1.251135	1.145661	9.581513	-0.154831	-0.272577	-0.087206	-0.994717	-0.068506	0.075576	0.011516
18612	1.478407	1.380551	9.631810	0.059778	-0.060552	0.028864	-0.994668	-0.068809	0.075843	0.012180
18613	1.622058	1.706664	9.864264	0.168042	0.217345	0.324965	-0.994630	-0.069043	0.076027	0.012810
18614	1.684306	1.730378	9.871407	0.227615	0.234710	0.344521	-0.994625	-0.068993	0.076061	0.013276
18615	1.721733	1.711103	9.822585	0.273413	0.224601	0.299197	-0.994655	-0.068624	0.075931	0.013645
18616	1.667084	1.594302	9.733560	0.235980	0.133346	0.186796	-0.994721	-0.067980	0.075607	0.013862
18617	1.537984	1.603264	9.634145	0.131970	0.175675	0.071861	-0.994816	-0.067095	0.075108	0.014105
18618	1.422686	1.461427	9.473974	0.050829	0.080357	-0.122130	-0.994928	-0.066049	0.074479	0.014425
18619	1.198191	1.133807	9.129662	-0.113375	-0.169762	-0.537441	-0.995037	-0.065087	0.073753	0.014989
18620	1.129535	1.031826	9.252765	-0.188142	-0.269234	-0.440054	-0.995120	-0.064302	0.073187	0.015668
18621	1.355673	1.011316	9.187697	0.053910	-0.277659	-0.474895	-0.995175	-0.063667	0.072825	0.016449
18622	1.248468	0.970815	9.083730	-0.031722	-0.290395	-0.596942	-0.995211	-0.063195	0.072552	0.017225
18623	1.394713	0.862611	9.079324	0.113015	-0.397968	-0.595731	-0.995204	-0.062964	0.072662	0.018038
18624	1.679169	0.870676	9.044041	0.396584	-0.397731	-0.590058	-0.995168	-0.063023	0.072922	0.018735
18625	1.921923	1.051798	9.095985	0.629543	-0.241096	-0.480884	-0.995119	-0.063318	0.073192	0.019308
18626	2.148799	1.225970	9.277414	0.829824	-0.111108	-0.247658	-0.995079	-0.063738	0.073269	0.019675
18627	2.194113	1.341718	9.369677	0.866327	-0.020172	-0.135175	-0.995062	-0.064182	0.073041	0.019919
18628	2.243036	1.453925	9.609391	0.890866	0.048437	0.121572	-0.995075	-0.064526	0.072542	0.020018
18629	2.110359	1.598423	9.715236	0.761244	0.178473	0.226387	-0.995118	-0.064670	0.071795	0.020082
18630	1.910287	1.437870	9.738584	0.571074	0.025658	0.198800	-0.995186	-0.064564	0.070959	0.020023
18631	1.744841	1.224564	9.735553	0.417781	-0.173639	0.143230	-0.995261	-0.064318	0.070157	0.019927
18632	1.683331	1.107477	9.751356	0.366232	-0.282773	0.133918	-0.995336	-0.063993	0.069456	0.019662
18633	1.717267	1.086455	9.745910	0.414214	-0.297438	0.129751	-0.995416	-0.063654	0.068720	0.019303
18634	1.573123	0.909665	9.694330	0.288867	-0.451331	0.035920	-0.995506	-0.063296	0.067884	0.018806
18635	1.384833	0.785202	9.522222	0.138613	-0.536470	-0.174225	-0.995594	-0.063011	0.066989	0.018294
18636	1.156831	0.769408	9.458950	-0.062423	-0.529034	-0.267103	-0.995672	-0.062867	0.066114	0.017703
18637	0.995078	0.841286	9.422477	-0.201040	-0.444759	-0.313068	-0.995727	-0.062903	0.065391	0.017161
18638	0.899385	0.905650	9.458036	-0.286804	-0.383992	-0.280960	-0.995758	-0.063137	0.064829	0.016635
18639	0.905793	1.100056	9.555418	-0.277832	-0.210209	-0.157885	-0.995777	-0.063509	0.064281	0.016199
18640	1.012575	1.298157	9.718575	-0.176750	-0.046838	0.042655	-0.995802	-0.063870	0.063644	0.015772
18641	0.928642	1.401055	9.770992	-0.250956	0.045760	0.098545	-0.995843	-0.064087	0.062878	0.015388
18642	0.962597	1.484618	9.718949	-0.193305	0.131660	0.063240	-0.995901	-0.064137	0.061988	0.015029
18643	0.893568	1.439164	9.604669	-0.230392	0.104446	-0.063057	-0.995971	-0.064092	0.060937	0.014830
18644	0.934533	1.247410	9.454479	-0.154676	-0.066380	-0.232072	-0.996044	-0.064080	0.059768	0.014741
18645	0.997642	1.123010	9.445783	-0.070042	-0.191432	-0.250384	-0.996116	-0.064137	0.058475	0.014818
18646	0.929317	1.113832	9.308592	-0.097694	-0.182142	-0.394016	-0.996180	-0.064309	0.057159	0.014938
18647	0.989215	0.963879	9.217373	-0.008230	-0.325698	-0.498109	-0.996220	-0.064637	0.056020	0.015177
18648	1.206921	0.899001	9.287585	0.219358	-0.416186	-0.415734	-0.996238	-0.065194	0.054990	0.015364
18649	1.338154	0.994669	9.304334	0.369103	-0.340865	-0.373504	-0.996244	-0.065883	0.054001	0.015510
18650	1.469346	1.092357	9.321216	0.518870	-0.265460	-0.331256	-0.996248	-0.066657	0.052979	0.015491
18651	1.650724	1.114899	9.354293	0.716801	-0.268707	-0.279345	-0.996263	-0.067385	0.051817	0.015283
18652	1.593635	1.205964	9.464102	0.674634	-0.203915	-0.165591	-0.996299	-0.067983	0.050469	0.014787
18653	1.499613	1.192133	9.415389	0.612005	-0.216935	-0.226349	-0.996347	-0.068500	0.048993	0.014117
18654	1.447365	1.159731	9.465810	0.583565	-0.262285	-0.188136	-0.996406	-0.068960	0.047371	0.013253
18655	1.440995	1.021082	9.450826	0.608132	-0.404775	-0.226061	-0.996466	-0.069475	0.045569	0.012364
18656	1.391418	0.870801	9.442508	0.593428	-0.560264	-0.263389	-0.996522	-0.070148	0.043507	0.011453
18657	1.239462	0.844882	9.505455	0.477184	-0.604320	-0.220468	-0.996563	-0.071031	0.041279	0.010643
18658	1.152712	0.877913	9.556179	0.430437	-0.594465	-0.175199	-0.996587	-0.072104	0.038989	0.009800
18659	1.118814	0.809263	9.583117	0.438811	-0.686299	-0.164942	-0.996598	-0.073301	0.036581	0.008990
18660	1.053003	0.642064	9.785645	0.404616	-0.905302	0.000383	-0.996588	-0.074712	0.034123	0.008147
18661	0.831139	0.647066	10.101847	0.213362	-0.975297	0.294723	-0.996551	-0.076396	0.031552	0.007356
18662	0.780781	0.748148	10.308589	0.205264	-0.942997	0.507420	-0.996493	-0.078231	0.028924	0.006648
18663	0.631991	0.853969	10.628406	0.094982	-0.927315	0.827913	-0.996417	-0.080133	0.026352	0.006152
18664	0.547638	1.294532	10.961283	0.052628	-0.587680	1.222571	-0.996333	-0.081948	0.023868	0.005882
18665	0.799740	1.630575	11.266413	0.349345	-0.349725	1.588440	-0.996267	-0.083433	0.021365	0.005907
18666	0.719501	1.627528	11.395137	0.325031	-0.404240	1.708866	-0.996226	-0.084572	0.018548	0.006028
18667	0.708036	1.985361	11.555941	0.380134	-0.103093	1.927293	-0.996210	-0.085354	0.015468	0.006454
18668	0.838073	1.698301	11.542821	0.586525	-0.399502	1.862889	-0.996223	-0.085724	0.011854	0.007139
18669	0.448437	1.561930	11.348983	0.288654	-0.500388	1.637452	-0.996242	-0.085883	0.007793	0.008060
18670	0.246035	1.578177	11.149317	0.180664	-0.448639	1.440039	-0.996253	-0.085917	0.003862	0.009161
18671	0.196137	1.550091	10.942978	0.217990	-0.440507	1.230313	-0.996244	-0.085959	0.000113	0.010468
18672	0.079418	1.623085	10.774078	0.181621	-0.339529	1.076424	-0.996208	-0.086117	-0.003228	0.011952
18673	0.089273	1.737482	10.554966	0.261043	-0.194780	0.879725	-0.996142	-0.086473	-0.006079	0.013660
18674	0.220450	1.682019	10.385998	0.445921	-0.234714	0.698856	-0.996039	-0.087144	-0.008464	0.015509
18675	0.552785	1.685023	10.395281	0.826269	-0.264014	0.697028	-0.995893	-0.088210	-0.010433	0.017519
18676	0.917731	1.995030	10.465335	1.246524	-0.014649	0.807639	-0.995709	-0.089640	-0.012256	0.019438
18677	1.214699	2.193785	10.525493	1.594849	0.121299	0.888512	-0.995507	-0.091220	-0.014105	0.021109
18678	1.493764	2.540362	10.928435	1.944118	0.335517	1.332850	-0.995318	-0.092709	-0.016010	0.022171
18679	1.495898	3.183131	11.290864	2.035936	0.864955	1.804550	-0.995187	-0.093635	-0.018174	0.022491
18680	1.556596	3.371568	11.403458	2.162361	1.013887	1.939984	-0.995146	-0.093673	-0.020613	0.022027
18681	1.382936	3.113202	11.249551	2.030341	0.809626	1.736284	-0.995184	-0.092813	-0.023665	0.020823
18682	0.719351	2.989373	10.980866	1.419150	0.796518	1.473774	-0.995281	-0.091187	-0.027244	0.018923
18683	-0.033703	2.726498	10.674502	0.715370	0.665794	1.161106	-0.995407	-0.088974	-0.031136	0.016714
18684	-0.578153	2.372665	10.243039	0.208280	0.463209	0.705155	-0.995531	-0.086493	-0.035087	0.014366
18685	-1.021923	2.003264	9.887834	-0.197743	0.222354	0.323263	-0.995628	-0.084023	-0.038942	0.012172
18686	-1.104898	1.814313	9.711246	-0.230009	0.112775	0.124852	-0.995692	-0.081765	-0.042523	0.010216
18687	-0.884541	1.713927	9.643768	0.046869	0.062132	0.021726	-0.995717	-0.079753	-0.045966	0.008560
18688	-0.762474	1.817654	9.832667	0.253716	0.168522	0.210951	-0.995715	-0.077889	-0.049346	0.007009
18689	-0.521797	2.145602	9.999112	0.581603	0.501579	0.398473	-0.995706	-0.075920	-0.052683	0.005418
18690	-0.345696	2.467733	10.065533	0.836226	0.854173	0.487538	-0.995696	-0.073506	-0.056329	0.003576
18691	-0.369810	2.543681	9.949780	0.871662	1.004231	0.377312	-0.995683	-0.070456	-0.060408	0.001517
18692	-0.511183	2.379466	9.733230	0.779791	0.941409	0.145406	-0.995651	-0.066855	-0.064879	-0.000812
18693	-0.647996	2.082661	9.394049	0.678947	0.768703	-0.223498	-0.995575	-0.062884	-0.069753	-0.003298
18694	-1.065911	1.750772	8.896863	0.278480	0.573652	-0.705117	-0.995437	-0.058830	-0.074898	-0.005863
18695	-1.373993	1.532940	8.542877	0.004603	0.463447	-1.037565	-0.995246	-0.054962	-0.079974	-0.008280
18696	-1.548295	1.461073	8.236580	-0.137287	0.483836	-1.320368	-0.995012	-0.051410	-0.084830	-0.010567
18697	-1.631449	1.313511	8.187970	-0.151680	0.392327	-1.371584	-0.994746	-0.048353	-0.089340	-0.012658
18698	-1.460076	1.282803	8.151778	0.079352	0.415673	-1.443141	-0.994454	-0.045806	-0.093522	-0.014694
18699	-1.364958	1.301704	8.274522	0.261012	0.462764	-1.342590	-0.994126	-0.043804	-0.097555	-0.016636
18700	-1.236177	1.613612	8.450690	0.480565	0.793034	-1.170595	-0.993752	-0.042126	-0.101684	-0.018529
18701	-1.417149	1.866063	8.599553	0.397145	1.050571	-0.970692	-0.993319	-0.040580	-0.106100	-0.020312
18702	-1.573827	2.094042	8.625026	0.316676	1.294372	-0.897711	-0.992844	-0.039043	-0.110693	-0.021973
18703	-1.848149	2.070624	8.495076	0.097387	1.293263	-0.970353	-0.992335	-0.037520	-0.115400	-0.023385
18704	-2.018732	2.020198	8.443023	-0.002334	1.262779	-0.989651	-0.991823	-0.036080	-0.119933	-0.024514
18705	-1.915812	1.712163	8.309672	0.149472	0.994417	-1.173195	-0.991323	-0.034873	-0.124185	-0.025304
18706	-1.684436	1.327250	8.328424	0.461824	0.641063	-1.248990	-0.990829	-0.034094	-0.128163	-0.025899
18707	-1.267807	1.309381	8.444781	0.960243	0.650460	-1.251693	-0.990329	-0.033831	-0.131949	-0.026331
18708	-1.063654	1.330436	8.582786	1.257416	0.677234	-1.179871	-0.989797	-0.033994	-0.135736	-0.026867
18709	-0.929671	1.494967	8.839095	1.515080	0.828082	-0.966939	-0.989241	-0.034505	-0.139479	-0.027531
18710	-0.834931	1.681992	9.045769	1.722260	0.998288	-0.791102	-0.988653	-0.035168	-0.143234	-0.028502
18711	-0.905264	1.702011	9.207456	1.769300	0.992542	-0.626960	-0.988012	-0.035883	-0.147170	-0.029758
18712	-1.175266	1.728629	9.338254	1.622143	0.981275	-0.433047	-0.987315	-0.036560	-0.151306	-0.031292
18713	-1.518242	1.491737	9.418361	1.409251	0.705466	-0.286322	-0.986573	-0.037140	-0.155596	-0.032931
18714	-1.852857	1.473191	9.545309	1.213206	0.644707	-0.074709	-0.985815	-0.037560	-0.159858	-0.034697
18715	-2.028733	1.270690	9.451965	1.108115	0.431022	-0.135094	-0.985054	-0.037748	-0.164067	-0.036406
18716	-2.458552	0.996330	9.299751	0.748459	0.130549	-0.171902	-0.984282	-0.037841	-0.168241	-0.038096
18717	-2.537226	1.194711	9.477045	0.800672	0.307718	0.033276	-0.983546	-0.037792	-0.172130	-0.039765
18718	-2.526321	1.455559	9.401977	0.841296	0.576792	-0.022017	-0.982833	-0.037436	-0.175834	-0.041467
18719	-2.889473	1.499909	9.418660	0.574460	0.594834	0.118360	-0.982147	-0.036732	-0.179396	-0.043068
18720	-2.879456	1.569857	9.449326	0.655127	0.680152	0.144888	-0.981512	-0.035637	-0.182691	-0.044595
18721	-2.763186	1.429230	9.207328	0.746149	0.591145	-0.140759	-0.980865	-0.034184	-0.186058	-0.046023
18722	-3.034265	1.277139	8.917203	0.459967	0.458755	-0.329442	-0.980206	-0.032417	-0.189445	-0.047487
18723	-3.150751	1.066699	8.566001	0.294383	0.287410	-0.632719	-0.979566	-0.030625	-0.192661	-0.048923
18724	-3.094783	1.034851	8.501135	0.377751	0.294879	-0.719396	-0.978941	-0.028908	-0.195666	-0.050528
18725	-3.014880	1.216344	8.364581	0.432677	0.517735	-0.863963	-0.978308	-0.027261	-0.198593	-0.052268
18726	-3.210613	1.308404	8.297848	0.268781	0.616587	-0.844881	-0.977632	-0.025566	-0.201618	-0.054152
18727	-3.412200	1.191555	8.262856	0.131236	0.504275	-0.809025	-0.976959	-0.023908	-0.204520	-0.056130
18728	-3.491334	1.314164	8.239479	0.085341	0.642186	-0.791294	-0.976285	-0.022239	-0.207319	-0.058236
18729	-3.302207	1.283054	8.161508	0.273172	0.661289	-0.944268	-0.975589	-0.020581	-0.210133	-0.060386
18730	-3.323736	1.055216	8.033600	0.272523	0.459778	-1.071206	-0.974801	-0.018960	-0.213242	-0.062694
18731	-3.726807	0.754290	7.963497	-0.032920	0.130866	-0.989035	-0.973957	-0.017574	-0.216480	-0.065084
18732	-4.126979	0.679266	8.079624	-0.276074	0.016041	-0.718902	-0.973090	-0.016463	-0.219659	-0.067633
18733	-4.310857	0.743244	8.157137	-0.355898	0.062837	-0.563695	-0.972205	-0.015572	-0.222860	-0.070056
18734	-4.627974	0.603897	8.207496	-0.536441	-0.112606	-0.386924	-0.971280	-0.014687	-0.226206	-0.072316
18735	-4.989710	0.673608	8.495814	-0.671556	-0.087776	0.039760	-0.970366	-0.013705	-0.229550	-0.074218
18736	-5.188223	0.635471	8.234120	-0.895225	-0.143317	-0.101874	-0.969480	-0.012679	-0.232749	-0.075993
18737	-5.195862	0.823884	8.417371	-0.785068	0.055621	0.082170	-0.968698	-0.011602	-0.235528	-0.077566
18738	-5.583514	0.873589	8.435207	-1.068669	0.060507	0.284120	-0.967940	-0.010373	-0.238210	-0.078995
18739	-5.811973	0.797038	8.382728	-1.234177	-0.032879	0.344083	-0.967341	-0.008992	-0.240263	-0.080271
18740	-5.788519	0.730585	8.316641	-1.199688	-0.074926	0.275040	-0.966874	-0.007554	-0.241803	-0.081418
18741	-5.832526	0.767034	8.271810	-1.239026	-0.024194	0.261719	-0.966520	-0.006008	-0.242938	-0.082363
18742	-5.729215	0.703890	8.133574	-1.189766	-0.048145	0.089660	-0.966300	-0.004408	-0.243577	-0.083163
18743	-5.535213	0.477373	8.077123	-1.005403	-0.216562	-0.063400	-0.966151	-0.002870	-0.243983	-0.083765
18744	-5.460994	0.409209	8.111124	-0.908942	-0.246068	-0.071360	-0.966027	-0.001370	-0.244295	-0.084326
18745	-5.197719	0.610788	8.098780	-0.715117	0.020103	-0.196673	-0.965898	0.000168	-0.244616	-0.084874
18746	-5.245214	0.430054	7.992705	-0.771338	-0.143787	-0.275138	-0.965696	0.001795	-0.245180	-0.085523
18747	-5.494099	0.305292	7.973341	-0.965122	-0.282415	-0.177273	-0.965467	0.003399	-0.245824	-0.086205
18748	-5.702689	0.278401	7.934773	-1.148697	-0.320495	-0.110290	-0.965259	0.004890	-0.246369	-0.086913
18749	-5.735651	0.283553	7.871912	-1.199557	-0.301519	-0.147533	-0.965076	0.006273	-0.246833	-0.087532
18750	-5.898204	0.207158	8.038838	-1.239151	-0.374454	0.075633	-0.964932	0.007543	-0.247209	-0.087965
18751	-5.790127	0.265929	8.147826	-1.098517	-0.272171	0.122226	-0.964832	0.008711	-0.247493	-0.088149
18752	-5.647666	0.061743	8.320154	-0.853389	-0.418927	0.198361	-0.964736	0.009831	-0.247841	-0.088102
18753	-5.650572	-0.019452	8.498855	-0.749244	-0.467084	0.354923	-0.964627	0.010881	-0.248309	-0.087856
18754	-5.616095	0.026778	8.475199	-0.730435	-0.394454	0.320479	-0.964510	0.011899	-0.248848	-0.087479
18755	-5.729675	-0.162608	8.537840	-0.758317	-0.572828	0.426800	-0.964449	0.012903	-0.249186	-0.087049
18756	-5.699640	-0.117702	8.488822	-0.760145	-0.504369	0.371987	-0.964422	0.013846	-0.249415	-0.086550
18757	-5.697537	0.187154	8.595393	-0.759408	-0.175314	0.471780	-0.964471	0.014828	-0.249308	-0.086144
18758	-5.514679	0.461957	8.655046	-0.628204	0.151498	0.439983	-0.964591	0.016064	-0.248856	-0.085886
18759	-5.253154	0.243089	8.560706	-0.426942	-0.003318	0.225143	-0.964764	0.017538	-0.248102	-0.085844
18760	-4.897376	0.039364	8.468955	-0.148840	-0.127423	-0.031555	-0.964926	0.019127	-0.247283	-0.086046
18761	-4.871706	0.191961	8.434835	-0.187091	0.051510	-0.072099	-0.965036	0.020755	-0.246558	-0.086512
18762	-4.697341	0.194030	8.389483	-0.075245	0.104246	-0.196583	-0.965101	0.022477	-0.245876	-0.087291
18763	-4.806566	0.233695	8.366268	-0.200366	0.151992	-0.164434	-0.965066	0.024320	-0.245488	-0.088271
18764	-5.120978	0.235035	8.373070	-0.477004	0.133771	-0.007462	-0.964979	0.026297	-0.245249	-0.089310
18765	-5.233793	0.031377	8.409494	-0.525519	-0.048793	0.078445	-0.964843	0.028432	-0.245187	-0.090295
18766	-5.549651	-0.020184	8.195675	-0.890961	-0.133790	0.044102	-0.964662	0.030704	-0.245325	-0.091104
18767	-5.692104	-0.165807	8.081177	-1.042096	-0.273131	0.014432	-0.964537	0.033000	-0.245282	-0.091738
18768	-5.679451	-0.249980	7.891100	-1.110620	-0.335972	-0.156516	-0.964482	0.035204	-0.245015	-0.092213
18769	-5.498895	-0.304945	7.745860	-1.023751	-0.342157	-0.370021	-0.964513	0.037237	-0.244444	-0.092596
18770	-5.188781	-0.341137	7.718013	-0.777547	-0.300950	-0.543798	-0.964600	0.039030	-0.243693	-0.092933
18771	-4.973673	-0.360398	7.689722	-0.617241	-0.262821	-0.672173	-0.964680	0.040590	-0.242990	-0.093275
18772	-4.883091	-0.225958	7.762988	-0.545082	-0.085957	-0.655446	-0.964739	0.041939	-0.242381	-0.093651
18773	-4.688706	0.039803	7.959537	-0.350120	0.248701	-0.584724	-0.964755	0.043216	-0.241908	-0.094126
18774	-4.587826	0.026532	8.084098	-0.209946	0.286960	-0.524252	-0.964672	0.044530	-0.241790	-0.094668
18775	-4.661501	0.015545	8.165684	-0.234363	0.296105	-0.417711	-0.964497	0.045906	-0.242012	-0.095227
18776	-4.845202	0.017353	8.215839	-0.365234	0.298040	-0.286197	-0.964256	0.047337	-0.242470	-0.095801
18777	-5.056405	0.021059	8.180785	-0.558015	0.287437	-0.215872	-0.964026	0.048820	-0.242866	-0.096365
18778	-5.148450	-0.084527	8.258778	-0.573823	0.204892	-0.099306	-0.963805	0.050314	-0.243232	-0.096881
18779	-5.081211	-0.146887	8.167208	-0.541112	0.167559	-0.209426	-0.963613	0.051776	-0.243530	-0.097271
18780	-5.016281	-0.300962	8.104091	-0.479144	0.042732	-0.289112	-0.963456	0.053088	-0.243760	-0.097542
18781	-4.958858	-0.441806	8.228557	-0.340061	-0.047222	-0.201407	-0.963342	0.054115	-0.243914	-0.097721
18782	-4.784258	-0.313316	8.300166	-0.182059	0.132713	-0.229928	-0.963252	0.054870	-0.244056	-0.097834
18783	-4.717914	-0.055631	8.411476	-0.125785	0.424160	-0.178426	-0.963162	0.055535	-0.244228	-0.097920
18784	-4.732679	-0.076031	8.473152	-0.103656	0.423373	-0.116898	-0.963077	0.056222	-0.244349	-0.098058
18785	-4.747805	-0.180201	8.470408	-0.095478	0.331371	-0.106865	-0.963009	0.056939	-0.244375	-0.098250
18786	-4.691827	-0.154996	8.483747	-0.046898	0.380584	-0.124335	-0.962925	0.057764	-0.244436	-0.098442
18787	-4.780382	-0.270876	8.439685	-0.117386	0.262557	-0.113668	-0.962791	0.058719	-0.244642	-0.098670
18788	-4.945949	-0.285779	8.422794	-0.261711	0.237331	-0.047306	-0.962641	0.059836	-0.244832	-0.098988
18789	-4.999668	-0.474038	8.238675	-0.349854	0.037512	-0.170421	-0.962451	0.061134	-0.245102	-0.099373
18790	-5.185813	-0.704253	8.212588	-0.467882	-0.198739	-0.087628	-0.962273	0.062374	-0.245338	-0.099745
18791	-5.331779	-0.850818	8.056948	-0.630400	-0.369886	-0.141497	-0.962126	0.063478	-0.245513	-0.100042
18792	-5.496173	-0.930889	8.096208	-0.734026	-0.450901	-0.020806	-0.962034	0.064344	-0.245549	-0.100280
18793	-5.494915	-0.983808	8.182313	-0.682228	-0.475214	0.057517	-0.962000	0.064967	-0.245466	-0.100408
18794	-5.510830	-0.838575	8.350431	-0.652964	-0.297869	0.201655	-0.962003	0.065530	-0.245301	-0.100419
18795	-5.559732	-0.835034	8.398507	-0.679334	-0.284133	0.267024	-0.962058	0.066063	-0.244971	-0.100346
18796	-5.481384	-0.757719	8.507778	-0.587171	-0.167229	0.317922	-0.962135	0.066654	-0.244580	-0.100169
18797	-5.464419	-0.611441	8.671983	-0.539233	0.018918	0.441378	-0.962226	0.067392	-0.244135	-0.099887
18798	-5.350112	-0.415529	8.781044	-0.446066	0.263994	0.465172	-0.962321	0.068390	-0.243631	-0.099521
18799	-5.086204	-0.389456	8.741633	-0.257275	0.347568	0.299198	-0.962419	0.069711	-0.243050	-0.099076
18800	-4.884063	-0.717900	8.539807	-0.118303	0.052469	0.050422	-0.962491	0.071208	-0.242515	-0.098630
18801	-4.779640	-0.897147	8.438265	-0.049009	-0.095247	-0.073971	-0.962552	0.072629	-0.242012	-0.098233
18802	-4.727074	-1.059120	8.383467	-0.005670	-0.228872	-0.132966	-0.962614	0.073869	-0.241527	-0.097894
18803	-4.673122	-1.135478	8.396542	0.051510	-0.271382	-0.140409	-0.962698	0.074839	-0.241026	-0.097563
18804	-4.767661	-1.262270	8.389687	-0.017052	-0.394097	-0.088741	-0.962807	0.075509	-0.240540	-0.097164
18805	-4.931342	-1.231188	8.480283	-0.136606	-0.360600	0.066606	-0.962973	0.075908	-0.239959	-0.096643
18806	-4.967922	-1.202354	8.565674	-0.151492	-0.315072	0.155985	-0.963215	0.076115	-0.239183	-0.095991
18807	-4.730917	-0.999003	8.861559	0.123265	-0.023202	0.281422	-0.963518	0.076249	-0.238210	-0.095267
18808	-4.549230	-0.821811	9.049518	0.306032	0.215610	0.342335	-0.963782	0.076553	-0.237317	-0.094573
18809	-4.861212	-0.819875	9.128942	0.051541	0.196426	0.560349	-0.963984	0.077107	-0.236550	-0.093987
18810	-5.094647	-0.896545	8.992152	-0.215054	0.077379	0.558702	-0.964176	0.077910	-0.235713	-0.093460
18811	-5.091251	-0.944058	8.938513	-0.247527	0.041143	0.514270	-0.964380	0.078986	-0.234748	-0.092876
18812	-5.008264	-1.162574	8.691497	-0.262864	-0.182476	0.280573	-0.964611	0.080198	-0.233688	-0.092104
18813	-5.043106	-1.286286	8.646648	-0.314565	-0.291667	0.270359	-0.964908	0.081334	-0.232419	-0.091211
18814	-4.942904	-1.172495	8.613170	-0.297027	-0.150158	0.181453	-0.965242	0.082463	-0.231002	-0.090257
18815	-4.998173	-1.383352	8.511273	-0.381277	-0.359352	0.140327	-0.965632	0.083582	-0.229315	-0.089345
18816	-4.872825	-1.636505	8.535235	-0.248770	-0.563326	0.131829	-0.966084	0.084543	-0.227411	-0.088418
18817	-4.806965	-1.550825	8.643204	-0.205133	-0.431859	0.186722	-0.966553	0.085444	-0.225458	-0.087428
18818	-4.865044	-1.528370	8.602249	-0.322989	-0.407110	0.173953	-0.967036	0.086397	-0.223416	-0.086390
18819	-4.744562	-1.494866	8.533323	-0.298668	-0.352588	0.053891	-0.967521	0.087481	-0.221303	-0.085292
18820	-4.638313	-1.606333	8.393360	-0.288629	-0.453252	-0.104250	-0.968012	0.088701	-0.219052	-0.084264
18821	-4.164904	-1.571971	8.230399	0.008645	-0.370837	-0.462867	-0.968498	0.090049	-0.216722	-0.083274
18822	-3.796477	-1.594846	8.093002	0.240079	-0.351497	-0.742292	-0.968881	0.091538	-0.214706	-0.082414
18823	-3.821647	-1.878579	7.907686	0.160873	-0.642881	-0.855778	-0.969160	0.092991	-0.213082	-0.081722
18824	-3.888580	-2.005957	7.841699	0.069933	-0.765025	-0.865793	-0.969364	0.094227	-0.211816	-0.081177
18825	-4.171242	-2.208261	7.937508	-0.128040	-0.954685	-0.628362	-0.969510	0.095208	-0.210891	-0.080695
18826	-4.596536	-2.376657	8.025847	-0.460427	-1.132959	-0.341931	-0.969668	0.095885	-0.210050	-0.080178
18827	-4.955418	-2.251966	8.280371	-0.724963	-0.987804	0.020455	-0.969879	0.096285	-0.209119	-0.079576
18828	-5.111053	-2.083729	8.405907	-0.871520	-0.807485	0.172923	-0.970179	0.096537	-0.207918	-0.078759
18829	-5.022515	-1.993096	8.595170	-0.766197	-0.663561	0.289172	-0.970588	0.096651	-0.206346	-0.077713
18830	-4.747894	-1.966701	8.870416	-0.455615	-0.546167	0.414172	-0.971093	0.096612	-0.204452	-0.076441
18831	-4.038046	-1.942054	9.073632	0.215755	-0.402332	0.296695	-0.971625	0.096502	-0.202494	-0.075017
18832	-3.462079	-1.726632	9.247053	0.723998	-0.095437	0.184404	-0.972070	0.096541	-0.200846	-0.073629
18833	-3.394082	-1.849689	9.261399	0.780709	-0.201954	0.190527	-0.972386	0.096759	-0.199618	-0.072491
18834	-3.297357	-2.209853	9.425628	0.968486	-0.503495	0.356234	-0.972640	0.096961	-0.198588	-0.071644
18835	-3.452389	-2.202193	9.595616	0.871112	-0.470708	0.573075	-0.972779	0.097246	-0.197987	-0.071037
18836	-3.901022	-2.216633	9.496852	0.414362	-0.541042	0.668591	-0.972860	0.097775	-0.197449	-0.070692
18837	-4.221794	-2.381410	9.523232	0.145416	-0.715646	0.848142	-0.972967	0.098387	-0.196661	-0.070560
18838	-4.512561	-2.352731	9.529462	-0.142607	-0.702109	0.966730	-0.973105	0.099116	-0.195624	-0.070528
18839	-4.581589	-2.087927	9.539486	-0.275481	-0.434613	0.961694	-0.973303	0.100013	-0.194161	-0.070574
18840	-4.608216	-2.242117	9.368033	-0.372361	-0.606673	0.841698	-0.973542	0.101101	-0.192357	-0.070664
18841	-4.746252	-2.232842	9.296894	-0.568899	-0.608030	0.829267	-0.973839	0.102207	-0.190241	-0.070713
18842	-4.294757	-1.952722	9.364043	-0.228424	-0.256752	0.667055	-0.974164	0.103514	-0.187887	-0.070622
18843	-3.903746	-2.076788	9.345347	0.095867	-0.317064	0.520648	-0.974420	0.105134	-0.185700	-0.070487
18844	-3.868739	-2.336554	9.232679	0.088127	-0.559474	0.451228	-0.974607	0.106943	-0.183696	-0.070432
18845	-3.724924	-2.314425	9.229808	0.174223	-0.492360	0.392605	-0.974761	0.108696	-0.181799	-0.070543
18846	-3.638873	-2.053674	9.214090	0.164876	-0.203825	0.301141	-0.974861	0.110448	-0.180085	-0.070828
18847	-3.897330	-1.995297	9.163465	-0.135909	-0.153207	0.341000	-0.974922	0.112233	-0.178469	-0.071275
18848	-4.350738	-2.207672	9.134943	-0.562165	-0.380097	0.521200	-0.975006	0.113921	-0.176699	-0.071852
18849	-4.380649	-2.255376	9.137325	-0.620640	-0.402284	0.542035	-0.975164	0.115486	-0.174564	-0.072431
18850	-4.282470	-2.297052	9.120069	-0.574341	-0.412343	0.497090	-0.975368	0.117047	-0.172176	-0.072894
18851	-4.348706	-2.398888	9.045028	-0.694961	-0.511071	0.470014	-0.975636	0.118628	-0.169420	-0.073209
18852	-4.381459	-2.316190	9.118851	-0.778573	-0.391136	0.529255	-0.975970	0.120269	-0.166253	-0.073339
18853	-3.995254	-2.223380	9.067464	-0.521753	-0.248616	0.325844	-0.976351	0.122028	-0.162680	-0.073367
18854	-3.396417	-2.382295	9.202316	0.032519	-0.276560	0.277679	-0.976727	0.123912	-0.158975	-0.073336
18855	-3.236960	-2.521787	9.419058	0.196093	-0.307725	0.454848	-0.977065	0.125724	-0.155408	-0.073396
18856	-3.421260	-2.498437	9.534391	-0.020711	-0.245373	0.617591	-0.977365	0.127393	-0.152033	-0.073592
18857	-3.438580	-2.410934	9.475970	-0.139864	-0.151766	0.550101	-0.977641	0.129031	-0.148725	-0.073822
18858	-3.762485	-2.553833	9.304813	-0.535709	-0.341898	0.524313	-0.977890	0.130688	-0.145493	-0.074050
18859	-4.289082	-2.506637	9.379574	-1.092760	-0.305956	0.740398	-0.978163	0.132366	-0.141993	-0.074255
18860	-4.264763	-2.288351	9.233673	-1.225908	-0.106397	0.539639	-0.978439	0.134328	-0.138117	-0.074407
18861	-4.193150	-2.356195	9.016758	-1.286333	-0.191701	0.323582	-0.978737	0.136467	-0.133856	-0.074383
18862	-4.030695	-2.464517	9.086658	-1.187982	-0.225817	0.357098	-0.979106	0.138479	-0.129166	-0.074104
18863	-3.574315	-2.302686	9.043037	-0.891289	-0.006019	0.140165	-0.979538	0.140213	-0.124241	-0.073555
18864	-3.119366	-1.904869	8.973203	-0.643424	0.425410	-0.154453	-0.980021	0.141664	-0.119191	-0.072692
18865	-2.483854	-1.787518	8.942186	-0.161987	0.614702	-0.382816	-0.980546	0.142848	-0.113987	-0.071638
18866	-1.741298	-1.930896	8.746989	0.437106	0.514110	-0.712460	-0.981066	0.143802	-0.108794	-0.070675
18867	-1.259561	-1.964534	8.614021	0.788274	0.504319	-0.937392	-0.981519	0.144642	-0.103915	-0.070007
18868	-1.008252	-2.029282	8.501821	0.937220	0.447264	-1.075608	-0.981845	0.145650	-0.099501	-0.069757
18869	-1.180116	-2.186974	8.352459	0.696540	0.250061	-1.129888	-0.982039	0.146887	-0.095683	-0.069776
18870	-1.500326	-2.366484	8.076540	0.304216	-0.017477	-1.269354	-0.982138	0.148339	-0.092297	-0.069870
18871	-1.724160	-2.805936	7.963621	0.083994	-0.471783	-1.208307	-0.982211	0.149752	-0.089294	-0.069727
18872	-1.958201	-2.964809	7.877999	-0.182829	-0.655140	-1.197314	-0.982326	0.150872	-0.086554	-0.069148
18873	-2.036517	-2.934460	7.835618	-0.321125	-0.634536	-1.230765	-0.982530	0.151578	-0.083760	-0.068139
18874	-2.124327	-2.803304	7.791247	-0.488662	-0.526397	-1.294551	-0.982832	0.151896	-0.080631	-0.066844
18875	-1.707297	-2.365298	7.714547	-0.220181	-0.090604	-1.568495	-0.983224	0.151857	-0.076988	-0.065437
18876	-1.282407	-2.081888	7.634779	0.077052	0.193508	-1.798642	-0.983632	0.151740	-0.072962	-0.064179
18877	-0.686137	-2.429543	7.549493	0.635281	-0.108493	-1.878421	-0.984046	0.151381	-0.068872	-0.063193
18878	-0.600079	-2.723200	7.589518	0.703927	-0.380253	-1.766802	-0.984469	0.150531	-0.065174	-0.062562
18879	-0.712947	-2.749665	7.832152	0.568738	-0.365498	-1.508819	-0.984882	0.149316	-0.061978	-0.062217
18880	-1.134949	-2.995042	7.966939	0.155193	-0.629874	-1.250593	-0.985293	0.147666	-0.059357	-0.062203
18881	-1.613540	-3.270421	8.178376	-0.294166	-0.916887	-0.910018	-0.985736	0.145455	-0.057207	-0.062403
18882	-2.051882	-3.011548	8.577555	-0.752993	-0.650208	-0.546403	-0.986224	0.142717	-0.055490	-0.062575
18883	-1.977776	-2.222423	9.045786	-0.768798	0.186337	-0.323171	-0.986721	0.139797	-0.054125	-0.062526
18884	-1.697188	-1.781532	9.383259	-0.538414	0.675777	-0.150749	-0.987167	0.137133	-0.053343	-0.062052
18885	-1.502583	-1.742137	9.701940	-0.329543	0.771630	0.122918	-0.987562	0.134793	-0.053124	-0.061075
18886	-1.116493	-1.760201	10.039216	0.084563	0.841139	0.405723	-0.987918	0.132755	-0.053112	-0.059774
18887	-0.630260	-2.018071	10.136947	0.613085	0.630487	0.504969	-0.988208	0.131001	-0.053620	-0.058379
18888	-0.587591	-2.141805	10.265796	0.695637	0.513872	0.654933	-0.988461	0.129376	-0.054304	-0.057075
18889	-0.591764	-2.155914	10.410530	0.720995	0.503506	0.798808	-0.988686	0.127848	-0.054929	-0.056021
18890	-0.755666	-1.978041	10.522605	0.560723	0.656562	0.886066	-0.988875	0.126470	-0.055454	-0.055289
18891	-1.034747	-1.601081	10.230439	0.217131	0.896904	0.552853	-0.989007	0.125540	-0.055614	-0.054883
18892	-0.841436	-1.812472	10.012751	0.409834	0.642709	0.369022	-0.989089	0.125069	-0.055237	-0.054858
18893	-0.185859	-1.816269	9.877712	1.035874	0.660752	0.156913	-0.989116	0.124955	-0.054774	-0.055090
18894	0.113351	-2.150994	9.672249	1.345670	0.317628	-0.000434	-0.989062	0.125274	-0.054610	-0.055511
18895	-0.062279	-2.358568	9.289111	1.161121	0.015266	-0.299231	-0.988944	0.125783	-0.054881	-0.056180
18896	-0.431484	-2.363222	9.006554	0.777827	-0.082877	-0.524141	-0.988789	0.126395	-0.055435	-0.056982
18897	-0.743318	-2.538518	8.798209	0.484919	-0.320248	-0.643863	-0.988602	0.127157	-0.056229	-0.057751
18898	-0.953727	-2.764919	8.535176	0.296463	-0.609432	-0.815785	-0.988402	0.127996	-0.057176	-0.058391
18899	-1.200623	-2.780294	8.368885	0.055117	-0.673749	-0.938414	-0.988200	0.128960	-0.058089	-0.058786
18900	-1.368056	-2.797036	8.254577	-0.105869	-0.716700	-1.020184	-0.988000	0.130065	-0.058739	-0.059065
18901	-1.446726	-2.912396	8.022648	-0.185089	-0.874882	-1.202331	-0.987814	0.131237	-0.059000	-0.059326
18902	-1.376229	-2.994402	7.797907	-0.127562	-0.984849	-1.405454	-0.987643	0.132435	-0.058849	-0.059658
18903	-1.365315	-3.052353	7.552930	-0.139022	-1.084438	-1.625359	-0.987484	0.133603	-0.058423	-0.060110
18904	-1.283746	-3.206808	7.277645	-0.074418	-1.281296	-1.859797	-0.987371	0.134498	-0.057701	-0.060662
18905	-1.033024	-3.116151	7.252339	0.148546	-1.165638	-1.939113	-0.987312	0.134969	-0.056911	-0.061315
18906	-0.826409	-3.018828	7.112538	0.317458	-1.085235	-2.124648	-0.987294	0.134969	-0.056340	-0.062131
18907	-0.820626	-2.889291	7.209370	0.312295	-0.939109	-2.065624	-0.987312	0.134479	-0.055986	-0.063218
18908	-1.206694	-2.585442	7.644212	-0.066260	-0.587325	-1.674799	-0.987368	0.133494	-0.055771	-0.064600
18909	-1.328477	-1.911282	8.050075	-0.240447	0.132618	-1.437359	-0.987446	0.132342	-0.055538	-0.065966
18910	-1.310673	-1.871161	8.534212	-0.179677	0.280285	-0.984267	-0.987503	0.131422	-0.055535	-0.066941
18911	-1.662344	-2.175702	8.753753	-0.453655	-0.009986	-0.651938	-0.987532	0.130798	-0.055966	-0.067385
18912	-2.048933	-2.187457	8.747899	-0.824399	-0.077765	-0.602739	-0.987577	0.130328	-0.056363	-0.067299
18913	-2.079730	-2.381518	8.846820	-0.811275	-0.248161	-0.456225	-0.987641	0.130001	-0.056560	-0.066823
18914	-1.933633	-2.499074	8.750916	-0.660761	-0.373890	-0.539801	-0.987746	0.129617	-0.056435	-0.066125
18915	-1.641939	-2.598461	8.701386	-0.371820	-0.456078	-0.603137	-0.987895	0.129082	-0.055937	-0.065369
18916	-1.171694	-2.607697	8.794913	0.089468	-0.399619	-0.573872	-0.988069	0.128340	-0.055242	-0.064780
18917	-0.854500	-2.569496	8.754183	0.379253	-0.353519	-0.663952	-0.988246	0.127426	-0.054540	-0.064486
18918	-0.700925	-2.612214	8.752978	0.524416	-0.397101	-0.675027	-0.988420	0.126322	-0.053829	-0.064582
18919	-0.551392	-2.609985	8.723302	0.658692	-0.408227	-0.723602	-0.988578	0.125017	-0.053169	-0.065254
18920	-0.727778	-2.583150	8.690352	0.471468	-0.437411	-0.740154	-0.988709	0.123462	-0.052567	-0.066698
18921	-0.728462	-2.407205	8.730450	0.443969	-0.290646	-0.742717	-0.988828	0.121552	-0.051749	-0.069045
18922	-0.624598	-2.178831	8.887034	0.519360	-0.059057	-0.656082	-0.988921	0.119324	-0.050688	-0.072308
18923	-0.492894	-1.780696	9.126285	0.599340	0.355349	-0.527363	-0.988954	0.116975	-0.049637	-0.076305
18924	-0.466439	-1.436958	9.176518	0.563429	0.657879	-0.553072	-0.988926	0.114609	-0.048634	-0.080773
18925	-0.644624	-1.455207	9.253401	0.390430	0.586701	-0.449901	-0.988852	0.112211	-0.047969	-0.085318
18926	-0.914743	-1.491563	9.358429	0.140524	0.484398	-0.305474	-0.988772	0.109670	-0.047669	-0.089616
18927	-1.114494	-1.546690	9.397814	-0.034576	0.353872	-0.230069	-0.988712	0.106946	-0.047669	-0.093480
18928	-1.455179	-1.476414	9.682322	-0.344255	0.366019	0.076292	-0.988663	0.104173	-0.048069	-0.096866
18929	-1.748906	-1.367708	9.587526	-0.641497	0.338794	0.001758	-0.988639	0.101381	-0.048628	-0.099751
18930	-1.791670	-1.418995	9.642874	-0.650193	0.233073	0.073225	-0.988660	0.098545	-0.048932	-0.102200
18931	-1.740608	-1.381890	9.758878	-0.587420	0.240538	0.175896	-0.988713	0.095668	-0.048821	-0.104457
18932	-1.661567	-1.188714	9.772847	-0.547687	0.381684	0.149060	-0.988776	0.092721	-0.048347	-0.106713
18933	-1.708824	-1.087864	9.613906	-0.633362	0.374525	-0.015293	-0.988823	0.089688	-0.047446	-0.109243
18934	-1.629172	-0.821978	9.581377	-0.634201	0.571495	-0.096549	-0.988854	0.086456	-0.045763	-0.112248
18935	-1.326513	-0.547254	9.722838	-0.422254	0.851420	-0.030616	-0.988832	0.083168	-0.043541	-0.115756
18936	-0.934716	-0.232989	9.727777	-0.157230	1.167865	-0.108647	-0.988720	0.080009	-0.040919	-0.119823
18937	-0.682746	-0.139548	9.892063	0.025476	1.274008	0.021650	-0.988501	0.077180	-0.038070	-0.124339
18938	-0.300630	-0.402746	10.036788	0.419412	1.074775	0.170208	-0.988196	0.074579	-0.035475	-0.129028
18939	-0.481200	-0.832261	9.919473	0.311781	0.545596	0.133415	-0.987839	0.072051	-0.033556	-0.133628
18940	-0.970137	-1.047174	9.858135	-0.124098	0.149230	0.146359	-0.987481	0.069469	-0.032403	-0.137858
18941	-1.586449	-1.080066	9.813444	-0.714295	-0.112086	0.160475	-0.987168	0.066826	-0.031710	-0.141521
18942	-1.980546	-1.025590	9.745154	-1.109274	-0.238841	0.119814	-0.986908	0.064196	-0.031192	-0.144633
18943	-2.127376	-1.090497	9.476893	-1.240320	-0.437082	-0.127818	-0.986719	0.061520	-0.030781	-0.147154
18944	-2.282700	-1.336076	9.339026	-1.318642	-0.792538	-0.229056	-0.986627	0.058646	-0.030310	-0.149025
18945	-2.316423	-1.274484	9.475779	-1.362484	-0.792815	-0.102116	-0.986639	0.055405	-0.029393	-0.150364
18946	-2.073136	-0.962289	9.624961	-1.227136	-0.479912	-0.008244	-0.986726	0.051947	-0.027960	-0.151298
18947	-1.763884	-0.358828	9.814744	-1.125810	0.130898	0.101150	-0.986835	0.048601	-0.026139	-0.152022
18948	-1.432012	-0.126598	9.879983	-0.906403	0.388030	0.122512	-0.986930	0.045761	-0.023990	-0.152640
18949	-1.024603	-0.134771	10.195656	-0.541511	0.472211	0.409973	-0.986977	0.043553	-0.021513	-0.153349
18950	-0.492237	-0.065986	10.214614	-0.100056	0.653024	0.392617	-0.986945	0.042061	-0.018976	-0.154304
18951	-0.343226	-0.173539	9.944287	0.023579	0.542642	0.124193	-0.986857	0.041205	-0.016918	-0.155336
18952	-0.644360	-0.421843	9.689696	-0.226034	0.176730	-0.096672	-0.986763	0.040814	-0.015429	-0.156191
18953	-0.882506	-0.402825	9.577238	-0.485880	0.103189	-0.199270	-0.986700	0.040689	-0.014202	-0.156736
18954	-0.954619	-0.362970	9.350973	-0.593525	0.096689	-0.425350	-0.986681	0.040783	-0.013097	-0.156925
18955	-1.012830	-0.489505	9.199111	-0.631253	-0.053162	-0.566729	-0.986703	0.041010	-0.012228	-0.156797
18956	-1.159502	-0.691215	9.113541	-0.725861	-0.294144	-0.633067	-0.986792	0.041234	-0.011437	-0.156239
18957	-1.042658	-0.774957	9.209464	-0.605365	-0.328745	-0.537595	-0.986926	0.041352	-0.010395	-0.155429
18958	-0.583479	-0.661631	9.102392	-0.226544	-0.091317	-0.670913	-0.987073	0.041298	-0.009181	-0.154584
18959	-0.393016	-0.731485	9.011238	-0.045278	-0.111971	-0.764078	-0.987218	0.041101	-0.008187	-0.153767
18960	-0.562062	-0.772205	9.061322	-0.210736	-0.206187	-0.705942	-0.987339	0.040661	-0.007232	-0.153156
18961	-0.803681	-0.870946	8.971724	-0.431973	-0.394854	-0.781979	-0.987435	0.039750	-0.005797	-0.152833
18962	-0.572708	-0.899776	8.613470	-0.232505	-0.405027	-1.146016	-0.987481	0.038238	-0.003764	-0.152989
18963	-0.480393	-1.072017	8.413331	-0.126222	-0.593247	-1.339436	-0.987493	0.035961	-0.001203	-0.153501
18964	-0.510746	-0.977647	8.430378	-0.223554	-0.564613	-1.332198	-0.987491	0.032829	0.001964	-0.154205
18965	-0.426363	-0.638966	8.175736	-0.290218	-0.301300	-1.611650	-0.987509	0.028603	0.005621	-0.154842
18966	-0.212606	-0.381475	8.447860	-0.217840	-0.061589	-1.356628	-0.987562	0.023857	0.009384	-0.155126
18967	0.156530	-0.485968	9.007797	0.107432	-0.120303	-0.791928	-0.987676	0.018860	0.012693	-0.154852
18968	0.851789	-0.356094	9.508904	0.679075	0.128826	-0.284157	-0.987835	0.013810	0.015188	-0.154147
18969	1.186959	0.123892	9.682674	0.829479	0.592127	-0.110162	-0.988026	0.009146	0.016164	-0.153168
18970	0.896240	0.068430	9.814687	0.577043	0.366006	0.019327	-0.988263	0.005116	0.015454	-0.151891
18971	0.328243	0.025481	9.792186	0.082421	0.080399	-0.015672	-0.988489	0.001296	0.013966	-0.150639
18972	0.064207	0.175640	9.890239	-0.178128	0.074239	0.077411	-0.988650	-0.002480	0.012700	-0.149682
18973	0.281866	0.390677	10.003120	-0.004471	0.272092	0.198305	-0.988737	-0.006153	0.011929	-0.149059
18974	0.404909	0.422281	10.118229	0.127098	0.269184	0.318050	-0.988776	-0.009394	0.011260	-0.148685
18975	0.048960	0.469815	10.184589	-0.204764	0.149870	0.379677	-0.988813	-0.012154	0.010558	-0.148290
18976	-0.076476	0.670842	10.448355	-0.368711	0.246415	0.648056	-0.988854	-0.014447	0.010309	-0.147824
18977	0.057876	0.471718	10.545979	-0.172490	0.050555	0.742459	-0.988935	-0.016188	0.010200	-0.147108
18978	0.140364	0.485000	10.457674	-0.088323	0.058765	0.656627	-0.989038	-0.017585	0.010000	-0.146270
18979	0.241746	0.464309	10.346227	0.023975	0.048461	0.546631	-0.989171	-0.018640	0.009790	-0.145251
18980	0.463663	0.423038	10.106448	0.258484	0.064621	0.309724	-0.989324	-0.019494	0.009495	-0.144107
18981	0.759482	0.689881	10.056448	0.476493	0.390937	0.277159	-0.989476	-0.020229	0.009081	-0.142990
18982	0.848776	0.748398	9.911965	0.559439	0.468189	0.136955	-0.989621	-0.020636	0.008466	-0.141959
18983	0.650491	0.609178	9.842646	0.426070	0.278234	0.057112	-0.989753	-0.020785	0.007496	-0.141071
18984	0.565667	0.626948	9.658655	0.359520	0.280155	-0.127911	-0.989859	-0.020891	0.006564	-0.140358
18985	0.451969	0.412744	9.415541	0.326032	0.053288	-0.383059	-0.989938	-0.021157	0.005901	-0.139785
18986	0.324734	0.271757	9.406173	0.253992	-0.124242	-0.401235	-0.989997	-0.021806	0.005514	-0.139284
18987	0.413483	0.585843	9.405299	0.258692	0.186558	-0.385488	-0.990040	-0.022814	0.005507	-0.138816
18988	0.433507	0.684119	9.554636	0.255846	0.258579	-0.230691	-0.990087	-0.023909	0.005369	-0.138301
18989	0.476040	0.649422	9.548474	0.313266	0.216418	-0.237892	-0.990148	-0.025027	0.005134	-0.137676
18990	0.390774	0.641492	9.504915	0.241956	0.167174	-0.282678	-0.990218	-0.026150	0.004817	-0.136973
18991	0.317174	0.788336	9.367159	0.140137	0.274534	-0.412119	-0.990279	-0.027424	0.004519	-0.136293
18992	0.345184	0.637892	9.374550	0.215645	0.113080	-0.413278	-0.990315	-0.028761	0.004391	-0.135755
18993	0.406166	0.725409	9.395887	0.256544	0.185326	-0.385405	-0.990312	-0.030307	0.004354	-0.135441
18994	0.727064	1.136832	9.658174	0.459846	0.619531	-0.091269	-0.990274	-0.031840	0.004523	-0.135365
18995	0.627652	1.226775	9.971644	0.345472	0.632549	0.227885	-0.990235	-0.032827	0.004356	-0.135415
18996	0.184913	0.895968	10.001221	0.016201	0.179406	0.228673	-0.990211	-0.033380	0.003898	-0.135475
18997	-0.093118	0.953543	9.945224	-0.260383	0.156035	0.173966	-0.990215	-0.033735	0.003763	-0.135358
18998	0.077428	0.799940	9.767970	-0.054529	0.062603	-0.012063	-0.990250	-0.033885	0.003789	-0.135067
18999	0.043451	0.576099	9.549708	-0.028138	-0.146893	-0.246688	-0.990299	-0.033918	0.003692	-0.134698
19000	0.060142	0.587185	9.404438	-0.014416	-0.123456	-0.390565	-0.990346	-0.034174	0.003643	-0.134286
19001	0.117069	0.660551	9.302608	0.021720	-0.036582	-0.486019	-0.990380	-0.034620	0.003625	-0.133927
19002	0.017530	0.603726	9.362586	-0.055998	-0.132169	-0.431739	-0.990386	-0.035268	0.003523	-0.133714
19003	-0.031902	0.761298	9.369166	-0.141856	-0.007733	-0.413663	-0.990375	-0.036088	0.003457	-0.133580
19004	-0.114428	0.745494	9.326317	-0.213127	-0.056976	-0.458525	-0.990352	-0.036981	0.003270	-0.133507
19005	-0.239959	0.732902	9.201184	-0.326794	-0.109608	-0.585680	-0.990340	-0.038029	0.003146	-0.133304
19006	-0.134509	0.782670	9.344108	-0.232698	-0.066427	-0.438018	-0.990334	-0.039253	0.003156	-0.132997
19007	-0.009958	0.893947	9.509301	-0.136649	0.036034	-0.262502	-0.990336	-0.040520	0.003149	-0.132601
19008	0.175213	1.010316	9.652288	0.017485	0.160676	-0.107434	-0.990333	-0.041715	0.003058	-0.132254
19009	0.357250	1.127428	9.753546	0.170070	0.290218	0.006538	-0.990324	-0.042791	0.002831	-0.131986
19010	0.205646	1.189515	9.983369	0.022308	0.272122	0.239691	-0.990318	-0.043558	0.002133	-0.131790
19011	-0.113656	1.123978	10.087961	-0.250259	0.105750	0.334695	-0.990328	-0.044020	0.001319	-0.131573
19012	-0.124985	1.044728	10.084221	-0.222917	0.022833	0.323798	-0.990356	-0.044203	0.000480	-0.131301
19013	-0.143920	1.049579	10.042182	-0.224851	0.027501	0.282678	-0.990396	-0.044173	-0.000464	-0.131009
19014	-0.263389	0.960356	9.895219	-0.301171	-0.071237	0.127696	-0.990436	-0.044037	-0.001412	-0.130750
19015	-0.359401	0.841223	9.767688	-0.347764	-0.193372	-0.010331	-0.990474	-0.043886	-0.002327	-0.130498
19016	-0.501857	0.837015	9.643405	-0.470674	-0.218457	-0.133925	-0.990511	-0.043837	-0.003132	-0.130213
19017	-0.563203	0.952279	9.646145	-0.547313	-0.121613	-0.119504	-0.990550	-0.043864	-0.003586	-0.129903
19018	-0.298992	0.939007	9.706137	-0.280795	-0.071084	-0.060953	-0.990585	-0.043883	-0.003765	-0.129620
19019	-0.242763	0.975099	9.603145	-0.235361	-0.011730	-0.159987	-0.990616	-0.043854	-0.003877	-0.129392
19020	-0.128441	0.751955	9.451228	-0.068948	-0.182338	-0.332727	-0.990654	-0.043866	-0.004049	-0.129089
19021	-0.049245	0.759484	9.450826	0.009276	-0.156181	-0.332557	-0.990681	-0.044060	-0.004217	-0.128807
19022	0.049025	0.794668	9.637445	0.104810	-0.117932	-0.143698	-0.990699	-0.044285	-0.004458	-0.128587
19023	0.067023	1.063863	9.685581	0.061990	0.138168	-0.069801	-0.990715	-0.044463	-0.004860	-0.128387
19024	-0.000471	0.969652	9.828112	0.035857	0.018350	0.063059	-0.990746	-0.044294	-0.005591	-0.128177
19025	-0.298535	0.803592	9.741105	-0.196255	-0.202118	-0.037995	-0.990790	-0.043954	-0.006614	-0.127905
19026	-0.581763	0.699661	9.509595	-0.432678	-0.343742	-0.275656	-0.990854	-0.043621	-0.007599	-0.127467
19027	-0.617501	0.634054	9.569114	-0.431823	-0.413006	-0.221327	-0.990934	-0.043365	-0.008469	-0.126880
19028	-0.382703	0.623404	9.444987	-0.191898	-0.346980	-0.347719	-0.991026	-0.043269	-0.009165	-0.126144
19029	-0.191854	0.670419	9.364121	-0.008172	-0.243894	-0.425810	-0.991115	-0.043314	-0.009914	-0.125370
19030	-0.100885	0.653453	9.343070	0.098137	-0.236253	-0.449746	-0.991186	-0.043544	-0.010702	-0.124657
19031	-0.099707	0.749659	9.365596	0.090436	-0.149633	-0.418235	-0.991229	-0.043971	-0.011300	-0.124110
19032	-0.120288	0.898893	9.616864	0.052961	-0.041508	-0.153391	-0.991254	-0.044484	-0.011501	-0.123709
19033	-0.156353	1.076302	9.806398	-0.015686	0.094956	0.053368	-0.991272	-0.044854	-0.011352	-0.123445
19034	0.029555	1.150403	9.913046	0.145967	0.196907	0.163920	-0.991299	-0.044968	-0.010929	-0.123228
19035	0.141886	1.125289	9.975800	0.255359	0.194752	0.222244	-0.991331	-0.044721	-0.010529	-0.123094
19036	0.192849	1.062491	9.934252	0.311222	0.157513	0.173991	-0.991367	-0.044180	-0.010294	-0.123016
19037	0.180834	0.965298	9.746762	0.312139	0.090154	-0.021962	-0.991403	-0.043445	-0.010287	-0.122991
19038	0.000398	0.823966	9.556802	0.165182	-0.057524	-0.222027	-0.991438	-0.042567	-0.010590	-0.122991
19039	-0.263309	0.650224	9.281501	-0.054051	-0.249281	-0.508210	-0.991474	-0.041799	-0.011002	-0.122925
19040	-0.383676	0.749273	9.222162	-0.191957	-0.164875	-0.555644	-0.991521	-0.041240	-0.011305	-0.122712
19041	-0.352069	0.771413	9.265471	-0.160755	-0.129235	-0.510783	-0.991578	-0.040779	-0.011570	-0.122377
19042	-0.315682	0.770207	9.183612	-0.124893	-0.106428	-0.592889	-0.991633	-0.040431	-0.011775	-0.122028
19043	-0.275583	0.738981	9.183590	-0.076681	-0.120978	-0.596406	-0.991681	-0.040189	-0.011820	-0.121716
19044	-0.251707	0.678075	9.202927	-0.038126	-0.172160	-0.583066	-0.991717	-0.040065	-0.011809	-0.121459
19045	-0.336607	0.697689	9.244214	-0.124758	-0.176090	-0.538584	-0.991754	-0.040068	-0.011689	-0.121172
19046	-0.293241	0.698001	9.327739	-0.082831	-0.172949	-0.456238	-0.991791	-0.040108	-0.011429	-0.120881
19047	-0.204275	0.675725	9.328026	0.004655	-0.174304	-0.459613	-0.991826	-0.040157	-0.011215	-0.120591
19048	-0.321952	0.638419	9.284030	-0.105793	-0.236724	-0.504776	-0.991863	-0.040258	-0.011034	-0.120268
19049	-0.277164	0.676343	9.202696	-0.079133	-0.186318	-0.583230	-0.991905	-0.040526	-0.010646	-0.119868
19050	-0.004509	0.729581	9.310177	0.170281	-0.085523	-0.475911	-0.991945	-0.040902	-0.010206	-0.119446
19051	0.119408	0.804807	9.312893	0.269233	0.008985	-0.468203	-0.991988	-0.041270	-0.010117	-0.118968
19052	0.006956	0.885392	9.458836	0.148121	0.041216	-0.313745	-0.992030	-0.041595	-0.010262	-0.118496
