// General information: 
//  MT Manager version: 2021.0.0 
//  XDA version: 2021.0.0 build 5908 rev 109668 built on 2021-04-19
// Device information: 
//  DeviceId: 00B43DF3
//  ProductCode: MTW2-3A7G6
//  Firmware Version: 4.3.5
//  Hardware Version: 1.1.0
// Device settings: 
//  Filter Profile: human(46.1)
//  Option Flags: Orientation Smoother Disabled, Position/Velocity Smoother Disabled, Continuous Zero Rotation Update Disabled, AHS Disabled, ICC Disabled
// Coordinate system: ENU
PacketCounter	Acc_X	Acc_Y	Acc_Z	FreeAcc_E	FreeAcc_N	FreeAcc_U	Quat_q0	Quat_q1	Quat_q2	Quat_q3
64468	9.739840	0.589520	-0.286231	0.022735	-0.034938	-0.050914	-0.431465	0.537082	0.479317	0.543723
64469	9.720678	0.607641	-0.250583	0.047096	-0.000311	-0.069927	-0.431278	0.537222	0.479327	0.543725
64470	9.713528	0.572440	-0.273947	0.008816	-0.014607	-0.078466	-0.431077	0.537392	0.479315	0.543727
64471	9.721613	0.582304	-0.255151	0.021122	0.006248	-0.070334	-0.430841	0.537587	0.479302	0.543734
64472	9.722320	0.538505	-0.288192	-0.027473	-0.015132	-0.071252	-0.430576	0.537816	0.479266	0.543748
64473	9.715121	0.503171	-0.312360	-0.065775	-0.029410	-0.079798	-0.430334	0.538027	0.479234	0.543759
64474	9.727242	0.468043	-0.343992	-0.105849	-0.050367	-0.068823	-0.430104	0.538254	0.479203	0.543745
64475	9.741488	0.457196	-0.397583	-0.125531	-0.096696	-0.053661	-0.429905	0.538453	0.479210	0.543698
64476	9.756731	0.501357	-0.358619	-0.075522	-0.060870	-0.036985	-0.429762	0.538622	0.479226	0.543630
64477	9.750596	0.514812	-0.405250	-0.068573	-0.105834	-0.040918	-0.429664	0.538762	0.479248	0.543549
64478	9.774178	0.487604	-0.434472	-0.100125	-0.126475	-0.018043	-0.429612	0.538875	0.479256	0.543472
64479	9.758473	0.502706	-0.418324	-0.080050	-0.111729	-0.033290	-0.429617	0.538960	0.479257	0.543382
64480	9.758941	0.518679	-0.388380	-0.057443	-0.083766	-0.032785	-0.429648	0.539030	0.479228	0.543313
64481	9.715797	0.522977	-0.385004	-0.048529	-0.082640	-0.075682	-0.429702	0.539072	0.479190	0.543263
64482	9.708090	0.529039	-0.375692	-0.038792	-0.074993	-0.083304	-0.429779	0.539095	0.479165	0.543201
64483	9.689315	0.544628	-0.336919	-0.014390	-0.040268	-0.102326	-0.429822	0.539131	0.479129	0.543163
64484	9.720216	0.552046	-0.342559	-0.008194	-0.045933	-0.070894	-0.429804	0.539211	0.479052	0.543166
64485	9.736417	0.551691	-0.329427	-0.006207	-0.032180	-0.055146	-0.429795	0.539254	0.479027	0.543153
64486	9.761486	0.517822	-0.323794	-0.039298	-0.020065	-0.032215	-0.429777	0.539292	0.478967	0.543182
64487	9.771241	0.514159	-0.383735	-0.053002	-0.079189	-0.020870	-0.429826	0.539271	0.478908	0.543215
64488	9.770784	0.556606	-0.351267	-0.005526	-0.056605	-0.019926	-0.429934	0.539186	0.478837	0.543278
64489	9.778239	0.589889	-0.326889	0.031606	-0.041056	-0.011356	-0.430040	0.539166	0.478694	0.543340
64490	9.780906	0.555018	-0.290372	0.004581	-0.002392	-0.011745	-0.430147	0.539151	0.478571	0.543378
64491	9.728057	0.481395	-0.313321	-0.067743	-0.018338	-0.067941	-0.430275	0.539101	0.478429	0.543451
64492	9.705727	0.479659	-0.280892	-0.062169	0.008869	-0.091260	-0.430407	0.539019	0.478287	0.543554
64493	9.670878	0.494792	-0.251095	-0.040359	0.030293	-0.126036	-0.430509	0.538935	0.478182	0.543648
64494	9.658570	0.510047	-0.249943	-0.024618	0.025171	-0.137494	-0.430570	0.538876	0.478095	0.543734
64495	9.691773	0.543381	-0.274562	0.001947	-0.005743	-0.101814	-0.430602	0.538818	0.478056	0.543802
64496	9.753184	0.543200	-0.314555	-0.008382	-0.045036	-0.039432	-0.430661	0.538766	0.477985	0.543868
64497	9.737568	0.559804	-0.293793	0.011654	-0.030308	-0.054672	-0.430708	0.538682	0.477944	0.543950
64498	9.782226	0.546004	-0.261565	-0.000083	0.002496	-0.011744	-0.430784	0.538544	0.477912	0.544055
64499	9.775148	0.511234	-0.277669	-0.038325	-0.011784	-0.020325	-0.430892	0.538371	0.477851	0.544194
64500	9.768206	0.533332	-0.347564	-0.029782	-0.089435	-0.024214	-0.430988	0.538197	0.477757	0.544372
64501	9.760254	0.523948	-0.363558	-0.043237	-0.109125	-0.032326	-0.431119	0.537999	0.477686	0.544527
64502	9.788167	0.552872	-0.312420	-0.009436	-0.067524	-0.004179	-0.431335	0.537734	0.477721	0.544588
64503	9.709461	0.539866	-0.340326	-0.024401	-0.100356	-0.082824	-0.431559	0.537480	0.477735	0.544648
64504	9.664373	0.559033	-0.248815	0.010641	-0.019261	-0.128987	-0.431698	0.537298	0.477708	0.544741
64505	9.648657	0.576121	-0.227239	0.030748	-0.004532	-0.144225	-0.431769	0.537199	0.477688	0.544799
64506	9.729800	0.595174	-0.242738	0.041760	-0.023102	-0.061796	-0.431858	0.537072	0.477647	0.544890
64507	9.800671	0.598380	-0.226098	0.042643	-0.009288	0.008739	-0.431979	0.536901	0.477538	0.545059
64508	9.788053	0.557991	-0.167504	0.011547	0.048855	-0.007440	-0.432063	0.536750	0.477368	0.545289
64509	9.764025	0.528540	-0.227086	-0.027689	-0.011433	-0.031777	-0.432126	0.536635	0.477214	0.545488
64510	9.748083	0.508735	-0.265987	-0.054021	-0.051455	-0.048000	-0.432189	0.536536	0.477120	0.545618
64511	9.741180	0.473320	-0.282065	-0.092304	-0.065791	-0.056596	-0.432299	0.536392	0.477033	0.545748
64512	9.722912	0.447490	-0.268368	-0.115837	-0.053212	-0.076618	-0.432444	0.536196	0.476990	0.545863
64513	9.692289	0.474960	-0.196209	-0.076647	0.008359	-0.107091	-0.432619	0.535986	0.477019	0.545905
64514	9.691387	0.500248	-0.193773	-0.052392	0.003634	-0.106606	-0.432768	0.535816	0.477083	0.545898
64515	9.729332	0.544467	-0.176002	-0.008571	0.012916	-0.066556	-0.432921	0.535666	0.477148	0.545867
64516	9.772758	0.555214	-0.144582	0.004446	0.040327	-0.023187	-0.433148	0.535457	0.477160	0.545882
64517	9.753435	0.517048	-0.194651	-0.040711	-0.007124	-0.043706	-0.433360	0.535257	0.477201	0.545874
64518	9.769464	0.536191	-0.146641	-0.015554	0.034047	-0.027493	-0.433560	0.535042	0.477246	0.545886
64519	9.793449	0.509739	-0.169210	-0.047169	0.013490	-0.004645	-0.433759	0.534863	0.477292	0.545863
64520	9.780217	0.513327	-0.231788	-0.052965	-0.051748	-0.016546	-0.433941	0.534722	0.477338	0.545817
64521	9.764477	0.492419	-0.272489	-0.079261	-0.091763	-0.032757	-0.434150	0.534537	0.477367	0.545806
64522	9.737249	0.499502	-0.252416	-0.067723	-0.077487	-0.059912	-0.434387	0.534331	0.477389	0.545801
64523	9.698441	0.534596	-0.172647	-0.018240	-0.008863	-0.098011	-0.434573	0.534174	0.477403	0.545794
64524	9.666761	0.530924	-0.196617	-0.023862	-0.034793	-0.129453	-0.434665	0.534108	0.477424	0.545767
64525	9.711991	0.490570	-0.164765	-0.060420	0.003459	-0.087107	-0.434755	0.534067	0.477449	0.545713
64526	9.697805	0.555795	-0.169340	0.004959	-0.012455	-0.097502	-0.434893	0.534015	0.477481	0.545626
64527	9.710348	0.537217	-0.165596	-0.011916	-0.006094	-0.086090	-0.435011	0.533998	0.477489	0.545542
64528	9.749372	0.535442	-0.179184	-0.016153	-0.018729	-0.047011	-0.435099	0.534008	0.477468	0.545480
64529	9.753935	0.525458	-0.166544	-0.022739	-0.005289	-0.043218	-0.435168	0.534011	0.477425	0.545460
64530	9.777968	0.497639	-0.191712	-0.054338	-0.025809	-0.020372	-0.435233	0.534001	0.477422	0.545420
64531	9.781586	0.513343	-0.180264	-0.036072	-0.017698	-0.016064	-0.435325	0.533987	0.477390	0.545388
64532	9.784381	0.535611	-0.200189	-0.016250	-0.042306	-0.011718	-0.435408	0.533971	0.477321	0.545398
64533	9.763283	0.583926	-0.193597	0.034566	-0.045823	-0.030211	-0.435456	0.533981	0.477223	0.545436
64534	9.744078	0.562915	-0.214752	0.012717	-0.065984	-0.050232	-0.435495	0.534019	0.477061	0.545510
64535	9.761115	0.517960	-0.227727	-0.033343	-0.074143	-0.035525	-0.435592	0.533997	0.476922	0.545576
64536	9.715329	0.498500	-0.199646	-0.044780	-0.047881	-0.082750	-0.435712	0.533931	0.476808	0.545643
64537	9.699549	0.513998	-0.178424	-0.024687	-0.033148	-0.097978	-0.435809	0.533874	0.476709	0.545708
64538	9.738583	0.513312	-0.189644	-0.028933	-0.045831	-0.058892	-0.435902	0.533796	0.476690	0.545727
64539	9.758142	0.512683	-0.194065	-0.031331	-0.051862	-0.039348	-0.436008	0.533701	0.476666	0.545757
64540	9.768859	0.546095	-0.190604	0.001351	-0.056170	-0.026881	-0.436115	0.533595	0.476628	0.545808
64541	9.791823	0.581599	-0.153207	0.040952	-0.027331	-0.002535	-0.436227	0.533500	0.476575	0.545858
64542	9.744411	0.576873	-0.189600	0.032854	-0.066486	-0.049656	-0.436260	0.533465	0.476458	0.545967
64543	9.719664	0.508464	-0.165959	-0.029943	-0.036203	-0.078432	-0.436296	0.533413	0.476312	0.546116
64544	9.724972	0.474600	-0.149705	-0.061288	-0.017386	-0.075199	-0.436339	0.533377	0.476260	0.546163
64545	9.748863	0.466482	-0.142667	-0.069703	-0.010559	-0.051882	-0.436374	0.533322	0.476208	0.546233
64546	9.723568	0.505230	-0.178144	-0.036073	-0.054260	-0.074591	-0.436429	0.533282	0.476150	0.546279
64547	9.704186	0.503947	-0.168762	-0.034819	-0.047053	-0.094136	-0.436496	0.533223	0.476121	0.546308
64548	9.746692	0.521419	-0.170935	-0.020265	-0.052150	-0.050722	-0.436576	0.533143	0.476191	0.546262
64549	9.769212	0.526981	-0.228726	-0.025427	-0.110725	-0.027259	-0.436726	0.532995	0.476255	0.546231
64550	9.708715	0.494355	-0.151252	-0.042398	-0.032324	-0.090364	-0.436839	0.532891	0.476253	0.546243
64551	9.689954	0.486629	-0.110616	-0.042715	0.007633	-0.109988	-0.436929	0.532812	0.476353	0.546162
64552	9.730736	0.554997	-0.117272	0.021424	-0.008171	-0.065459	-0.436974	0.532761	0.476475	0.546069
64553	9.758394	0.527993	-0.163993	-0.014584	-0.048602	-0.038776	-0.437017	0.532678	0.476589	0.546016
64554	9.782202	0.520750	-0.158857	-0.023020	-0.041725	-0.015462	-0.437079	0.532583	0.476677	0.545982
64555	9.754094	0.535632	-0.174205	-0.009792	-0.060142	-0.042534	-0.437141	0.532520	0.476717	0.545959
64556	9.746783	0.537300	-0.132298	-0.001680	-0.019807	-0.050230	-0.437190	0.532439	0.476765	0.545956
64557	9.762621	0.538277	-0.117747	0.000234	-0.005951	-0.034531	-0.437235	0.532388	0.476784	0.545954
64558	9.774138	0.546820	-0.115201	0.008111	-0.004879	-0.022592	-0.437276	0.532332	0.476840	0.545927
64559	9.781327	0.563225	-0.124142	0.021981	-0.016695	-0.014411	-0.437356	0.532231	0.476892	0.545916
64560	9.785686	0.555328	-0.110057	0.015445	-0.003225	-0.010651	-0.437420	0.532140	0.476853	0.545988
64561	9.747594	0.529186	-0.091698	-0.006204	0.015964	-0.050324	-0.437453	0.532080	0.476806	0.546060
64562	9.716886	0.500951	-0.114687	-0.036614	-0.004676	-0.082291	-0.437492	0.532024	0.476791	0.546096
64563	9.715712	0.513859	-0.177347	-0.034025	-0.069497	-0.082087	-0.437524	0.531980	0.476814	0.546094
64564	9.703428	0.530101	-0.178961	-0.018322	-0.074648	-0.093447	-0.437558	0.531898	0.476833	0.546130
64565	9.719004	0.549998	-0.133668	0.006762	-0.033419	-0.077276	-0.437590	0.531845	0.476879	0.546116
64566	9.727634	0.534382	-0.109661	-0.005805	-0.007162	-0.069774	-0.437576	0.531838	0.476887	0.546127
64567	9.708153	0.533842	-0.102850	-0.004498	0.000035	-0.089325	-0.437532	0.531866	0.476929	0.546098
64568	9.750391	0.570227	-0.077161	0.033156	0.022353	-0.045413	-0.437437	0.531955	0.476946	0.546072
64569	9.782427	0.535344	-0.112779	-0.008853	-0.005241	-0.014979	-0.437329	0.532007	0.476933	0.546120
64570	9.752046	0.519599	-0.075411	-0.017631	0.034171	-0.046594	-0.437249	0.532047	0.476898	0.546175
64571	9.762334	0.541631	-0.138102	-0.006624	-0.030164	-0.034413	-0.437138	0.532139	0.476861	0.546206
64572	9.769753	0.539205	-0.179254	-0.015995	-0.069264	-0.026682	-0.437034	0.532218	0.476811	0.546257
64573	9.743096	0.522043	-0.162286	-0.029213	-0.049724	-0.054436	-0.436905	0.532308	0.476736	0.546338
64574	9.750894	0.531846	-0.139877	-0.016964	-0.028817	-0.046355	-0.436762	0.532400	0.476615	0.546468
64575	9.688105	0.538864	-0.130511	-0.005924	-0.021331	-0.108756	-0.436544	0.532553	0.476510	0.546584
64576	9.684390	0.539860	-0.111349	-0.002170	-0.000867	-0.112623	-0.436299	0.532755	0.476400	0.546680
64577	9.692370	0.531190	-0.122009	-0.013119	-0.007325	-0.105017	-0.436007	0.532985	0.476291	0.546782
64578	9.727617	0.532818	-0.118443	-0.013077	0.000132	-0.069778	-0.435670	0.533265	0.476184	0.546871
64579	9.751568	0.506884	-0.147758	-0.044811	-0.020326	-0.046960	-0.435382	0.533507	0.476113	0.546927
64580	9.771842	0.481616	-0.156750	-0.072061	-0.020959	-0.028016	-0.435152	0.533719	0.476075	0.546937
64581	9.791298	0.481346	-0.166977	-0.074540	-0.026895	-0.008464	-0.434989	0.533888	0.476080	0.546897
64582	9.799793	0.483654	-0.115293	-0.063922	0.026767	-0.000534	-0.434864	0.534003	0.476065	0.546897
64583	9.819138	0.501732	-0.092861	-0.043176	0.048206	0.019486	-0.434801	0.534073	0.476063	0.546880
64584	9.789528	0.548493	-0.142890	-0.003538	-0.008382	-0.006769	-0.434754	0.534111	0.476053	0.546889
64585	9.760599	0.588549	-0.160201	0.034536	-0.032246	-0.033162	-0.434696	0.534151	0.476010	0.546934
64586	9.764960	0.580441	-0.147904	0.027929	-0.018841	-0.029431	-0.434612	0.534200	0.475934	0.547019
64587	9.773807	0.546110	-0.154073	-0.007854	-0.019997	-0.022447	-0.434556	0.534229	0.475828	0.547128
64588	9.769708	0.534711	-0.194557	-0.025613	-0.059574	-0.026639	-0.434531	0.534259	0.475711	0.547219
64589	9.761994	0.523934	-0.213620	-0.039107	-0.079239	-0.034709	-0.434515	0.534263	0.475525	0.547390
64590	9.719507	0.522904	-0.175235	-0.031491	-0.045635	-0.077705	-0.434491	0.534310	0.475286	0.547571
64591	9.735628	0.504099	-0.189593	-0.052783	-0.059081	-0.062496	-0.434431	0.534391	0.475100	0.547701
64592	9.822602	0.517659	-0.097614	-0.028244	0.028456	0.023948	-0.434481	0.534392	0.474908	0.547827
64593	9.822964	0.497050	-0.123202	-0.052026	0.001666	0.023478	-0.434579	0.534349	0.474638	0.548024
64594	9.756284	0.431531	0.031409	-0.086549	0.157674	-0.048471	-0.434681	0.534317	0.474381	0.548198
64595	9.708250	0.451132	-0.004948	-0.069795	0.113030	-0.094868	-0.434754	0.534304	0.474214	0.548297
64596	9.735068	0.466234	-0.018011	-0.057885	0.094741	-0.067077	-0.434802	0.534279	0.474068	0.548409
64597	9.764312	0.513234	-0.084746	-0.023903	0.018505	-0.034576	-0.434864	0.534247	0.473941	0.548500
64598	9.724884	0.518217	-0.098933	-0.019097	-0.000494	-0.073522	-0.434938	0.534193	0.473802	0.548616
64599	9.682482	0.498634	-0.092014	-0.034628	0.005727	-0.117001	-0.434969	0.534197	0.473676	0.548695
64600	9.671313	0.499710	-0.028664	-0.022147	0.065917	-0.128680	-0.434970	0.534202	0.473597	0.548758
64601	9.694383	0.516427	-0.023766	-0.005760	0.067506	-0.104766	-0.434938	0.534250	0.473524	0.548800
64602	9.694930	0.508429	0.008638	-0.007997	0.100823	-0.104957	-0.434889	0.534302	0.473495	0.548813
64603	9.750017	0.490801	-0.023067	-0.033151	0.074267	-0.050637	-0.434834	0.534373	0.473474	0.548806
64604	9.727045	0.472109	-0.027390	-0.050629	0.073970	-0.074566	-0.434721	0.534486	0.473425	0.548827
64605	9.743086	0.454070	-0.046107	-0.071965	0.060468	-0.059371	-0.434633	0.534580	0.473428	0.548802
64606	9.762116	0.460564	-0.087140	-0.072852	0.021836	-0.039621	-0.434541	0.534690	0.473471	0.548730
64607	9.801894	0.434903	-0.102225	-0.102100	0.014696	-0.001160	-0.434494	0.534755	0.473529	0.548655
64608	9.836697	0.442284	-0.127925	-0.100576	-0.010605	0.034259	-0.434600	0.534676	0.473558	0.548622
64609	9.817540	0.452220	-0.055844	-0.077693	0.056672	0.014950	-0.434723	0.534566	0.473558	0.548633
64610	9.839162	0.519696	-0.051055	-0.011809	0.047613	0.040200	-0.434828	0.534466	0.473482	0.548714
64611	9.835028	0.496895	-0.151701	-0.051152	-0.052068	0.035783	-0.434939	0.534363	0.473341	0.548847
64612	9.779947	0.501255	-0.176422	-0.048634	-0.084464	-0.018799	-0.435143	0.534156	0.473155	0.549047
64613	9.741834	0.474147	-0.152765	-0.070154	-0.065443	-0.058598	-0.435372	0.533937	0.472937	0.549265
64614	9.715201	0.455728	-0.127285	-0.083205	-0.045918	-0.086435	-0.435602	0.533723	0.472753	0.549450
64615	9.715004	0.461140	-0.151677	-0.082186	-0.078006	-0.086222	-0.435814	0.533551	0.472607	0.549574
64616	9.746587	0.461567	-0.118050	-0.077844	-0.050774	-0.054906	-0.436036	0.533358	0.472493	0.549683
64617	9.730993	0.470199	-0.061951	-0.059297	-0.003406	-0.070325	-0.436245	0.533184	0.472345	0.549814
64618	9.723767	0.451873	-0.045991	-0.074243	0.009561	-0.078606	-0.436428	0.533037	0.472246	0.549896
64619	9.735659	0.452139	-0.007110	-0.068000	0.043422	-0.066866	-0.436590	0.532915	0.472160	0.549960
64620	9.723795	0.460114	0.026337	-0.053824	0.070899	-0.078384	-0.436737	0.532794	0.472095	0.550016
64621	9.779063	0.442033	-0.000272	-0.079037	0.044417	-0.024059	-0.436937	0.532618	0.472078	0.550043
64622	9.759112	0.458756	0.042361	-0.054440	0.078898	-0.043177	-0.437234	0.532379	0.472081	0.550035
64623	9.758257	0.489795	0.014310	-0.028695	0.041452	-0.042266	-0.437478	0.532150	0.472108	0.550040
64624	9.769804	0.497856	0.020844	-0.020883	0.042596	-0.030300	-0.437684	0.531942	0.472124	0.550063
64625	9.702653	0.519446	-0.009783	-0.002052	0.004351	-0.096136	-0.437841	0.531753	0.472133	0.550113
64626	9.701970	0.545038	-0.007539	0.022100	-0.000404	-0.095442	-0.437900	0.531620	0.472164	0.550167
64627	9.733545	0.536218	-0.040796	0.004776	-0.033200	-0.064356	-0.437907	0.531551	0.472144	0.550247
64628	9.780777	0.528254	-0.060126	-0.010108	-0.052644	-0.017618	-0.437945	0.531452	0.472101	0.550348
64629	9.780112	0.553837	-0.057525	0.014109	-0.057431	-0.016916	-0.438011	0.531325	0.472037	0.550474
64630	9.757223	0.529575	-0.025463	-0.004981	-0.025107	-0.041104	-0.438030	0.531225	0.471995	0.550591
64631	9.782115	0.479049	-0.046047	-0.061540	-0.040103	-0.019017	-0.438041	0.531102	0.471905	0.550778
64632	9.762512	0.479491	-0.034126	-0.060200	-0.032968	-0.038589	-0.438151	0.530922	0.471832	0.550926
64633	9.772744	0.532464	0.002434	-0.004429	-0.009811	-0.025454	-0.438289	0.530716	0.471846	0.551003
64634	9.803900	0.534886	0.034373	-0.000185	0.017493	0.005838	-0.438438	0.530518	0.471826	0.551092
64635	9.784793	0.530154	-0.049200	-0.018747	-0.068201	-0.013674	-0.438566	0.530357	0.471811	0.551158
64636	9.738183	0.512837	-0.021980	-0.029840	-0.042235	-0.061123	-0.438711	0.530193	0.471810	0.551202
64637	9.721994	0.529801	-0.001822	-0.009679	-0.027570	-0.076312	-0.438848	0.530048	0.471891	0.551163
64638	9.733501	0.538564	0.002466	-0.001913	-0.026503	-0.064334	-0.438947	0.529903	0.471930	0.551190
64639	9.702352	0.536779	-0.022367	-0.007364	-0.052652	-0.095618	-0.439009	0.529775	0.471983	0.551218
64640	9.678658	0.538026	0.006476	-0.001646	-0.025688	-0.119119	-0.439040	0.529680	0.472027	0.551248
64641	9.694869	0.514201	0.022601	-0.024575	-0.006400	-0.104199	-0.439058	0.529615	0.472080	0.551250
64642	9.702971	0.505794	0.013843	-0.035499	-0.012787	-0.096605	-0.439007	0.529629	0.472159	0.551209
64643	9.722580	0.512843	-0.026490	-0.036394	-0.051398	-0.076759	-0.438995	0.529641	0.472286	0.551099
64644	9.719209	0.494835	-0.039501	-0.055725	-0.058321	-0.081144	-0.438999	0.529662	0.472454	0.550931
64645	9.730739	0.502892	-0.040623	-0.047843	-0.057210	-0.069163	-0.438998	0.529706	0.472597	0.550767
64646	9.703050	0.510635	-0.028906	-0.036017	-0.043121	-0.096330	-0.438958	0.529767	0.472776	0.550587
64647	9.710523	0.520249	-0.010745	-0.023747	-0.022150	-0.088286	-0.438885	0.529823	0.472958	0.550435
64648	9.750394	0.495344	-0.026920	-0.053023	-0.029191	-0.049870	-0.438797	0.529903	0.473120	0.550289
64649	9.784894	0.522012	-0.025182	-0.028325	-0.027038	-0.013924	-0.438747	0.529937	0.473303	0.550138
64650	9.756687	0.542204	0.049973	0.005081	0.047143	-0.040933	-0.438725	0.529950	0.473434	0.550030
64651	9.740528	0.559415	0.064774	0.025232	0.061771	-0.056121	-0.438681	0.529987	0.473556	0.549925
64652	9.772039	0.563381	-0.037017	0.011078	-0.036360	-0.024426	-0.438626	0.530026	0.473635	0.549863
64653	9.792009	0.558452	-0.140000	-0.011448	-0.135039	-0.004703	-0.438632	0.530012	0.473740	0.549781
64654	9.765803	0.508864	-0.090998	-0.050914	-0.077555	-0.033652	-0.438651	0.530017	0.473803	0.549708
64655	9.722669	0.508528	-0.058160	-0.043090	-0.044144	-0.076751	-0.438664	0.530029	0.473876	0.549622
64656	9.695135	0.509504	-0.012530	-0.032855	0.002642	-0.104221	-0.438671	0.530043	0.474015	0.549483
64657	9.717638	0.545124	0.019680	0.006610	0.031665	-0.079805	-0.438629	0.530100	0.474089	0.549398
64658	9.765729	0.503846	0.029220	-0.034687	0.050362	-0.034117	-0.438600	0.530151	0.474141	0.549327
64659	9.824006	0.522002	0.038198	-0.017998	0.058923	0.025059	-0.438590	0.530185	0.474213	0.549240
64660	9.847503	0.526805	-0.022059	-0.023307	0.000483	0.048893	-0.438580	0.530245	0.474216	0.549187
64661	9.816489	0.516116	-0.017017	-0.030258	0.007029	0.017326	-0.438610	0.530274	0.474155	0.549189
64662	9.773838	0.503226	-0.045144	-0.043999	-0.019672	-0.025918	-0.438622	0.530318	0.474099	0.549184
64663	9.770350	0.490912	-0.087018	-0.061716	-0.059314	-0.030000	-0.438600	0.530370	0.474039	0.549203
64664	9.665051	0.472287	-0.042496	-0.066790	-0.014038	-0.136252	-0.438677	0.530323	0.474047	0.549180
64665	9.589904	0.493149	0.090085	-0.020647	0.112740	-0.210374	-0.438724	0.530303	0.474124	0.549097
64666	9.652821	0.485026	0.079635	-0.033205	0.106797	-0.148007	-0.438694	0.530359	0.474278	0.548934
64667	9.726127	0.529704	0.098159	0.010584	0.123441	-0.072441	-0.438642	0.530446	0.474473	0.548722
64668	9.828074	0.528715	0.039764	-0.004413	0.071869	0.029415	-0.438619	0.530490	0.474649	0.548545
64669	9.851500	0.533873	-0.022378	-0.009834	0.013418	0.053280	-0.438648	0.530492	0.474796	0.548393
64670	9.768806	0.552047	0.054207	0.025102	0.087098	-0.028565	-0.438793	0.530383	0.474979	0.548224
64671	9.760818	0.559831	0.061048	0.034904	0.094665	-0.036158	-0.438907	0.530327	0.475218	0.547980
64672	9.793086	0.523804	0.024666	-0.007214	0.067285	-0.005806	-0.439039	0.530249	0.475409	0.547783
64673	9.745753	0.538343	0.013919	0.008263	0.055071	-0.052226	-0.439137	0.530154	0.475550	0.547675
64674	9.769150	0.542702	0.081668	0.021290	0.122165	-0.028920	-0.439211	0.530049	0.475681	0.547604
64675	9.823318	0.569244	0.081001	0.043925	0.117919	0.026639	-0.439319	0.529949	0.475750	0.547553
64676	9.890617	0.542289	-0.102707	-0.014553	-0.060746	0.093121	-0.439488	0.529832	0.475695	0.547579
64677	9.782081	0.499059	-0.032000	-0.039859	0.009611	-0.017918	-0.439766	0.529625	0.475613	0.547627
64678	9.703225	0.522280	-0.001345	-0.007571	0.030675	-0.095468	-0.439958	0.529474	0.475600	0.547631
64679	9.643725	0.545031	0.147594	0.041055	0.170806	-0.154043	-0.440021	0.529416	0.475541	0.547687
64680	9.641080	0.488148	0.204101	-0.006286	0.234609	-0.159953	-0.439988	0.529443	0.475554	0.547676
64681	9.686087	0.411175	0.173278	-0.089612	0.218425	-0.119204	-0.439901	0.529495	0.475659	0.547606
64682	9.740084	0.451353	0.104550	-0.063766	0.148767	-0.062934	-0.439810	0.529561	0.475823	0.547471
64683	9.765673	0.531956	0.017487	0.000897	0.054510	-0.032673	-0.439759	0.529601	0.475945	0.547367
64684	9.761104	0.558356	0.035996	0.029547	0.069620	-0.035853	-0.439748	0.529565	0.475908	0.547443
64685	9.763415	0.620637	0.081007	0.095768	0.099803	-0.030209	-0.439786	0.529386	0.475644	0.547814
64686	9.808393	0.532041	0.126950	0.009194	0.149059	0.009809	-0.439746	0.529205	0.475157	0.548444
64687	9.809384	0.476914	0.173746	-0.042550	0.193010	0.007830	-0.439801	0.528939	0.474918	0.548864
64688	9.808456	0.524502	0.084602	-0.013446	0.090132	0.009724	-0.439906	0.528684	0.474880	0.549058
64689	9.849130	0.639602	-0.012852	0.079994	-0.028733	0.056831	-0.440085	0.528438	0.474888	0.549144
64690	9.824862	0.679540	-0.044615	0.113894	-0.072607	0.034822	-0.440263	0.528198	0.474741	0.549360
64691	9.793085	0.689189	-0.000576	0.130170	-0.038745	0.003679	-0.440433	0.527971	0.474538	0.549617
64692	9.742337	0.679721	0.018777	0.125293	-0.025842	-0.047488	-0.440512	0.527858	0.474316	0.549853
64693	9.685621	0.622795	-0.047011	0.061298	-0.088125	-0.107544	-0.440543	0.527804	0.474095	0.550071
64694	9.709464	0.620899	-0.068892	0.054348	-0.113826	-0.083965	-0.440541	0.527811	0.473884	0.550249
64695	9.772072	0.643318	-0.106487	0.068140	-0.157707	-0.020391	-0.440566	0.527899	0.473631	0.550361
64696	9.875477	0.620047	-0.186250	0.029906	-0.236506	0.081117	-0.440706	0.527970	0.473323	0.550446
64697	9.918474	0.625388	-0.150388	0.042472	-0.208514	0.124342	-0.440954	0.527975	0.472908	0.550599
64698	9.824747	0.610346	-0.095859	0.046054	-0.162915	0.030010	-0.441229	0.527995	0.472295	0.550886
64699	9.700550	0.567286	-0.066203	0.020021	-0.138806	-0.096352	-0.441452	0.528062	0.471656	0.551191
64700	9.702362	0.516091	-0.085463	-0.028555	-0.160287	-0.097598	-0.441653	0.528148	0.471081	0.551439
64701	9.674508	0.542947	-0.063475	0.008205	-0.151555	-0.123937	-0.441771	0.528323	0.470517	0.551658
64702	9.775951	0.571584	-0.047813	0.039394	-0.148169	-0.021125	-0.441881	0.528552	0.469945	0.551839
64703	9.809461	0.502353	-0.073968	-0.027637	-0.170077	0.008395	-0.442018	0.528828	0.469308	0.552006
64704	9.700875	0.433121	-0.034246	-0.075977	-0.127306	-0.103220	-0.442180	0.529081	0.468653	0.552191
64705	9.634491	0.375213	0.034091	-0.111212	-0.057008	-0.171642	-0.442224	0.529389	0.468067	0.552357
64706	9.653720	0.417778	0.027828	-0.064239	-0.073430	-0.150384	-0.442210	0.529755	0.467668	0.552355
64707	9.729409	0.425009	-0.041813	-0.065338	-0.143986	-0.075194	-0.442216	0.530082	0.467362	0.552296
64708	9.747755	0.421713	0.045949	-0.047976	-0.056992	-0.055991	-0.442260	0.530402	0.467065	0.552204
64709	9.760778	0.378938	0.017525	-0.088234	-0.077793	-0.045249	-0.442351	0.530673	0.466842	0.552060
64710	9.823485	0.356789	0.041915	-0.102656	-0.050809	0.016696	-0.442463	0.530845	0.466626	0.551988
64711	9.811343	0.360322	0.072387	-0.088407	-0.023427	0.005111	-0.442656	0.530909	0.466445	0.551925
64712	9.803461	0.363085	0.083686	-0.078582	-0.015872	-0.002476	-0.443018	0.530847	0.466377	0.551750
64713	9.718796	0.336064	0.027470	-0.105310	-0.070108	-0.088867	-0.443433	0.530765	0.466320	0.551544
64714	9.659923	0.329922	0.049650	-0.099686	-0.050345	-0.147650	-0.443934	0.530592	0.466414	0.551229
64715	9.733863	0.342969	0.077161	-0.080855	-0.028133	-0.072855	-0.444494	0.530330	0.466649	0.550830
64716	9.880072	0.386148	-0.008832	-0.055060	-0.122725	0.074017	-0.445109	0.529935	0.467024	0.550395
64717	9.902872	0.476044	-0.004885	0.035398	-0.136968	0.100612	-0.445678	0.529516	0.467228	0.550165
64718	9.858515	0.575761	0.030670	0.142517	-0.124971	0.060855	-0.446240	0.529071	0.467207	0.550155
64719	9.806640	0.607971	0.081444	0.185675	-0.090063	0.010950	-0.446811	0.528655	0.467083	0.550198
64720	9.782036	0.598507	0.151698	0.189853	-0.030496	-0.013072	-0.447325	0.528291	0.466864	0.550316
64721	9.742934	0.544396	0.179082	0.143743	-0.006410	-0.053974	-0.447688	0.528036	0.466522	0.550555
64722	9.692692	0.513988	0.170269	0.115781	-0.020923	-0.105597	-0.447910	0.527912	0.466108	0.550844
64723	9.723290	0.512433	0.208137	0.119890	0.006612	-0.074420	-0.448058	0.527825	0.465724	0.551132
64724	9.751229	0.475095	0.204074	0.082004	-0.000812	-0.048104	-0.448144	0.527790	0.465296	0.551456
64725	9.740602	0.419705	0.182017	0.025169	-0.022820	-0.061408	-0.448207	0.527773	0.464808	0.551834
64726	9.795770	0.315870	0.198416	-0.076340	-0.000170	-0.010115	-0.448212	0.527800	0.464289	0.552241
64727	9.756231	0.288488	0.221356	-0.097653	0.018577	-0.050188	-0.448198	0.527812	0.463798	0.552651
64728	9.725804	0.234644	0.204124	-0.152588	0.003050	-0.083109	-0.448190	0.527777	0.463456	0.552979
64729	9.775466	0.186942	0.128972	-0.214058	-0.070750	-0.037183	-0.448320	0.527680	0.463227	0.553159
64730	9.847628	0.123207	0.091923	-0.285171	-0.105435	0.031446	-0.448625	0.527481	0.463035	0.553261
64731	9.800172	0.027801	0.126784	-0.370330	-0.063751	-0.018863	-0.449098	0.527145	0.462899	0.553311
64732	9.739622	0.018047	0.187477	-0.366271	-0.011256	-0.078140	-0.449727	0.526681	0.462901	0.553241
64733	9.758092	0.032580	0.222174	-0.345741	0.010404	-0.058143	-0.450434	0.526162	0.463016	0.553063
64734	9.796433	-0.003398	0.252391	-0.376917	0.036316	-0.020322	-0.451226	0.525538	0.463337	0.552742
64735	9.814853	0.012008	0.285100	-0.356366	0.058018	-0.000328	-0.452166	0.524809	0.463815	0.552266
64736	9.754032	-0.047412	0.346864	-0.401891	0.121180	-0.061406	-0.453265	0.523955	0.464363	0.551714
64737	9.574182	-0.205368	0.451445	-0.534111	0.243911	-0.243666	-0.454455	0.522999	0.465093	0.551028
64738	9.512139	-0.342501	0.442448	-0.669545	0.250064	-0.310949	-0.455739	0.521843	0.466268	0.550069
64739	9.632235	-0.336000	0.378303	-0.681007	0.179692	-0.192921	-0.457130	0.520463	0.467940	0.548802
64740	9.766369	-0.230668	0.350603	-0.592597	0.134232	-0.056207	-0.458565	0.518896	0.469842	0.547461
64741	9.833956	-0.081518	0.314592	-0.461182	0.076734	0.015523	-0.459909	0.517291	0.471605	0.546335
64742	9.801313	0.014379	0.238585	-0.384508	-0.011099	-0.016010	-0.461109	0.515712	0.473307	0.545345
64743	9.807037	0.078562	0.184979	-0.338424	-0.073723	-0.009709	-0.462229	0.514188	0.474874	0.544472
64744	9.761876	0.008351	0.153256	-0.420501	-0.097456	-0.059152	-0.463251	0.512743	0.476422	0.543613
64745	9.799491	-0.021224	0.104167	-0.467382	-0.144424	-0.024837	-0.464184	0.511394	0.477915	0.542776
64746	9.938748	-0.091476	0.073130	-0.557079	-0.172311	0.109630	-0.465124	0.510035	0.479349	0.541985
64747	9.983241	-0.157503	0.161420	-0.626730	-0.082392	0.153073	-0.466030	0.508671	0.480593	0.541388
64748	9.850938	-0.288143	0.283054	-0.750289	0.047974	0.017820	-0.466953	0.507247	0.481768	0.540883
64749	9.717242	-0.326076	0.319288	-0.790310	0.084014	-0.117255	-0.467834	0.505859	0.483000	0.540323
64750	9.748563	-0.281900	0.318566	-0.759971	0.073541	-0.084766	-0.468653	0.504561	0.484266	0.539693
64751	9.759672	-0.273026	0.249841	-0.767964	0.001771	-0.076241	-0.469363	0.503450	0.485486	0.539017
64752	9.759094	-0.189109	0.240355	-0.694367	-0.013635	-0.073534	-0.469985	0.502443	0.486744	0.538280
64753	9.935077	-0.169172	0.247509	-0.692430	-0.010178	0.102758	-0.470526	0.501515	0.487937	0.537592
64754	9.942960	-0.241381	0.099404	-0.784440	-0.151808	0.101555	-0.471108	0.500519	0.488986	0.537058
64755	10.076415	-0.219986	0.004976	-0.786400	-0.254153	0.232189	-0.471813	0.499367	0.490002	0.536585
64756	10.282954	-0.070998	-0.099015	-0.668412	-0.388835	0.441870	-0.472569	0.497936	0.490206	0.537062
64757	10.115172	-0.084433	0.112508	-0.677155	-0.214142	0.278484	-0.473583	0.495815	0.489324	0.538933
64758	9.730429	-0.231310	0.240985	-0.816261	-0.121491	-0.111582	-0.474950	0.493214	0.488858	0.540537
64759	9.572597	0.033223	0.450303	-0.556027	0.020646	-0.245629	-0.476642	0.490222	0.489022	0.541620
64760	9.374615	0.212632	0.479151	-0.389572	0.000002	-0.431524	-0.478646	0.486922	0.490065	0.541886
64761	9.315568	0.518850	0.524870	-0.104361	-0.006000	-0.468522	-0.481102	0.483273	0.491805	0.541402
64762	9.185054	0.810891	0.459236	0.170825	-0.112124	-0.582749	-0.484013	0.479461	0.493467	0.540684
64763	8.966984	1.220676	0.155255	0.572764	-0.449819	-0.791020	-0.487396	0.475716	0.495082	0.539475
64764	8.848654	1.454450	-0.060952	0.810321	-0.689000	-0.908394	-0.491034	0.472291	0.496743	0.537656
64765	9.187446	1.686193	-0.359264	1.026926	-1.026912	-0.578387	-0.494480	0.469506	0.498486	0.535318
64766	9.740992	1.558643	-0.580485	0.880459	-1.287271	-0.054565	-0.497349	0.467249	0.500388	0.532855
64767	10.446452	1.359675	-0.825846	0.653002	-1.575310	0.615690	-0.499697	0.465026	0.502782	0.530344
64768	10.735907	1.221063	-0.987480	0.509489	-1.747779	0.883643	-0.502015	0.462422	0.505408	0.527930
64769	10.435841	1.337238	-0.893201	0.651044	-1.620388	0.600922	-0.504721	0.459259	0.508318	0.525310
64770	9.979931	1.528063	-0.573201	0.866383	-1.255549	0.184088	-0.507815	0.455733	0.511173	0.522622
64771	9.668867	1.619263	-0.293198	0.969314	-0.946425	-0.098797	-0.511140	0.452032	0.513929	0.519884
64772	9.220339	1.657918	-0.086878	1.029572	-0.700853	-0.527232	-0.514457	0.448443	0.516677	0.516988
64773	8.893235	1.528584	-0.194618	0.937976	-0.782635	-0.869996	-0.517601	0.445278	0.519435	0.513814
64774	8.695528	1.181223	-0.245657	0.623340	-0.833894	-1.095815	-0.520641	0.442607	0.521977	0.510463
64775	8.533338	0.912584	-0.168616	0.379245	-0.749728	-1.270259	-0.523945	0.440074	0.525274	0.505869
64776	8.807705	0.745437	-0.547260	0.269725	-1.130997	-1.033241	-0.527520	0.437718	0.529011	0.500273
64777	9.461549	0.821061	-0.758433	0.381056	-1.337244	-0.387381	-0.531959	0.435045	0.532904	0.493730
64778	9.967869	0.626776	-0.553004	0.199534	-1.159759	0.120672	-0.537365	0.432262	0.536074	0.486840
64779	10.693234	0.484596	1.136276	-0.177351	0.456761	0.940484	-0.543135	0.429719	0.538629	0.479818
64780	11.352871	0.231039	0.294528	-0.227885	-0.427052	1.536005	-0.547375	0.428482	0.540986	0.473411
64781	12.102304	1.721274	1.665482	0.996804	1.202446	2.425064	-0.551224	0.426196	0.543965	0.467559
64782	11.786541	1.421105	1.971800	0.656009	1.496049	2.110464	-0.553908	0.423349	0.546508	0.463994
64783	10.066695	0.960503	1.654111	0.298397	1.206448	0.358465	-0.556903	0.419009	0.550271	0.459883
64784	9.291762	-0.623593	0.965451	-1.075338	0.220296	-0.514681	-0.560903	0.414496	0.554373	0.454150
64785	8.931356	-1.455962	0.594389	-1.760313	-0.337649	-0.922839	-0.565892	0.410183	0.557893	0.447517
64786	9.112393	-0.880077	0.508807	-1.153007	-0.291351	-0.721224	-0.571317	0.405018	0.561964	0.440174
64787	9.899819	0.274219	0.694621	-0.099552	0.174534	0.113225	-0.576591	0.398546	0.566910	0.432802
64788	10.397775	0.612648	0.639427	0.223854	0.205905	0.618295	-0.581633	0.391160	0.572140	0.425855
64789	10.579804	-0.044246	0.747354	-0.446032	0.065319	0.783986	-0.586719	0.383830	0.576700	0.419348
64790	10.637515	-0.952207	0.626454	-1.243356	-0.411953	0.805223	-0.592194	0.376803	0.580550	0.412658
64791	10.547177	-1.293278	0.508330	-1.482575	-0.693979	0.698922	-0.598044	0.369693	0.584194	0.405447
64792	10.035436	-0.953736	0.411333	-1.091529	-0.657376	0.195558	-0.603936	0.362330	0.588082	0.397667
64793	9.389193	-0.615727	0.061605	-0.597746	-0.815278	-0.457596	-0.609786	0.354439	0.592494	0.389210
64794	9.009876	-0.292700	-0.093620	-0.206746	-0.796224	-0.835188	-0.615413	0.346285	0.597080	0.380591
64795	9.092105	-0.294389	-0.116621	-0.166481	-0.831983	-0.754728	-0.621087	0.337826	0.601433	0.372027
64796	9.312826	-0.401066	0.078793	-0.323316	-0.750040	-0.526755	-0.627011	0.328912	0.605444	0.363472
64797	9.531543	-0.459120	0.376781	-0.495394	-0.576906	-0.292992	-0.633146	0.319487	0.609078	0.355075
64798	9.646382	-0.514534	0.600142	-0.635465	-0.476297	-0.166618	-0.639080	0.309775	0.612698	0.346724
64799	9.733640	-0.486272	0.389199	-0.467316	-0.683182	-0.094334	-0.644364	0.300299	0.616493	0.338456
64800	9.707871	-0.496720	0.252193	-0.377009	-0.830199	-0.131693	-0.648971	0.290972	0.620612	0.330171
64801	9.566832	-0.589193	0.096406	-0.343285	-1.021446	-0.288010	-0.653090	0.281673	0.625067	0.321596
64802	9.513301	-0.698338	-0.026945	-0.336281	-1.199306	-0.355423	-0.657052	0.272166	0.629547	0.312856
64803	9.409284	-0.822866	0.150553	-0.533261	-1.164572	-0.453536	-0.661042	0.262622	0.633569	0.304373
64804	9.125315	-1.049119	0.206467	-0.722205	-1.290342	-0.744726	-0.665018	0.252872	0.637325	0.296015
64805	9.097129	-1.124758	0.462570	-0.937019	-1.202599	-0.762143	-0.668851	0.242640	0.641262	0.287310
64806	9.214030	-0.906872	0.352080	-0.692744	-1.169015	-0.647637	-0.672016	0.232902	0.645330	0.278749
64807	9.258530	-1.097540	0.037405	-0.576850	-1.550215	-0.637155	-0.674722	0.223591	0.649337	0.270404
64808	9.541237	-1.164201	-0.118936	-0.483168	-1.744290	-0.371889	-0.677293	0.213802	0.653645	0.261366
64809	9.861906	-0.914963	-0.128820	-0.301619	-1.598426	-0.042069	-0.679882	0.203433	0.657954	0.251937
64810	10.075503	-0.462344	-0.126913	-0.024034	-1.265916	0.194435	-0.682268	0.192560	0.662406	0.242177
64811	10.455100	0.300183	-0.455964	0.677074	-0.863995	0.598949	-0.684500	0.181131	0.666950	0.232009
64812	11.171706	1.227649	-0.318865	1.058438	-0.064157	1.380673	-0.686988	0.170706	0.670206	0.223006
64813	11.140643	1.014600	-0.159728	0.805645	-0.155836	1.345067	-0.690342	0.161794	0.671505	0.215250
64814	10.064209	0.517317	0.380192	0.098377	-0.229047	0.268891	-0.694130	0.152698	0.672456	0.206566
64815	9.651517	0.578936	0.614050	-0.068884	-0.034360	-0.124649	-0.697029	0.142548	0.674829	0.196052
64816	9.986070	1.380461	0.973090	-0.026414	0.807891	0.282892	-0.699668	0.132806	0.676837	0.186329
64817	9.947138	1.991007	1.065184	0.124535	1.392446	0.291260	-0.702113	0.123702	0.678340	0.177736
64818	10.163914	1.897137	1.295649	-0.150233	1.369801	0.516106	-0.704221	0.115613	0.679514	0.170199
64819	10.092530	1.635058	1.376026	-0.350897	1.148474	0.433476	-0.706213	0.108384	0.680289	0.163472
64820	9.633792	1.222635	1.307494	-0.466430	0.760087	-0.054665	-0.708011	0.101595	0.680906	0.157375
64821	9.439923	1.033081	1.393447	-0.630662	0.604026	-0.254527	-0.709450	0.094647	0.681730	0.151546
64822	9.326701	0.892717	1.210959	-0.524404	0.390092	-0.388068	-0.710643	0.087415	0.682688	0.145880
64823	9.210938	0.774360	1.007504	-0.388892	0.190639	-0.524610	-0.711705	0.079777	0.683709	0.140190
64824	9.142839	0.908721	0.907577	-0.276425	0.260299	-0.587903	-0.712510	0.071187	0.685120	0.133693
64825	9.164811	1.196313	0.823297	-0.145369	0.476995	-0.546949	-0.713173	0.062032	0.686662	0.126614
64826	9.317884	1.413001	0.613984	0.079237	0.588782	-0.387011	-0.713754	0.052468	0.688212	0.119024
64827	9.508295	1.501744	0.488135	0.186320	0.603567	-0.194892	-0.714276	0.042543	0.689716	0.110867
64828	9.625514	1.676648	0.569684	0.100816	0.758923	-0.055646	-0.714662	0.032563	0.691176	0.102339
64829	9.831050	1.875115	0.561981	0.098002	0.913192	0.169176	-0.714747	0.022808	0.692690	0.093796
64830	10.046403	2.044448	0.289488	0.340747	1.000540	0.389090	-0.714673	0.013026	0.694097	0.085449
64831	9.950931	2.280405	0.334442	0.262967	1.231341	0.323753	-0.714684	0.003106	0.695144	0.077413
64832	9.628194	2.120425	0.184196	0.329170	1.070796	-0.015900	-0.714738	-0.006505	0.695879	0.069716
64833	9.600795	2.166768	0.193401	0.275305	1.100203	-0.034082	-0.714822	-0.015850	0.696362	0.062109
64834	9.640310	2.309963	0.258511	0.177045	1.220631	0.026869	-0.715006	-0.024762	0.696522	0.054867
64835	9.528642	2.307654	0.265599	0.126946	1.209293	-0.080670	-0.715130	-0.033297	0.696551	0.047939
64836	9.326329	2.251801	0.309676	0.037085	1.155036	-0.283193	-0.715084	-0.041735	0.696582	0.041076
64837	9.238348	2.080295	0.364876	-0.059026	0.970984	-0.386057	-0.714749	-0.050177	0.696744	0.034110
64838	9.155303	1.856936	0.471129	-0.201496	0.732179	-0.489979	-0.714173	-0.058731	0.696987	0.026750
64839	9.046645	1.647980	0.433479	-0.198457	0.519615	-0.623782	-0.713226	-0.067321	0.697438	0.018909
64840	8.940989	1.673977	0.336057	-0.152488	0.552342	-0.728201	-0.712045	-0.075858	0.697945	0.010495
64841	8.737497	1.854052	0.240327	-0.134819	0.759492	-0.910786	-0.710586	-0.084010	0.698575	0.001832
64842	8.602388	2.224846	0.203282	-0.212072	1.147237	-1.001854	-0.708798	-0.091437	0.699428	-0.006674
64843	8.652912	2.450040	0.062335	-0.179936	1.392145	-0.929644	-0.706691	-0.097926	0.700554	-0.014915
64844	8.859994	2.493249	0.651419	-0.844738	1.323365	-0.720127	-0.704391	-0.103604	0.701834	-0.022977
64845	9.154334	1.783176	0.587838	-0.727343	0.623376	-0.517050	-0.701605	-0.108118	0.703662	-0.030355
64846	9.621095	1.739029	0.519499	-0.733771	0.564258	-0.065795	-0.698273	-0.112113	0.706012	-0.037312
64847	10.440424	1.402016	0.179095	-0.419512	0.250507	0.711594	-0.694908	-0.115165	0.708500	-0.043217
64848	11.352609	1.140832	-0.222704	-0.064893	0.025681	1.599022	-0.691803	-0.118121	0.710705	-0.048524
64849	11.861814	1.517307	-0.312653	-0.158732	0.383372	2.142642	-0.689385	-0.121698	0.712082	-0.053631
64850	11.667430	1.552008	0.160630	-0.681353	0.327489	1.934306	-0.688107	-0.125609	0.712259	-0.058459
64851	10.576428	1.558559	0.473172	-0.999301	0.359068	0.835612	-0.687386	-0.129362	0.711891	-0.063065
64852	9.875656	1.076442	0.572039	-0.970437	-0.058949	0.090306	-0.686465	-0.132426	0.711821	-0.067378
64853	9.776862	0.249070	0.239982	-0.433031	-0.731328	-0.066702	-0.685150	-0.135537	0.712013	-0.072360
64854	9.780345	-0.243018	-0.267306	0.179999	-1.023825	-0.081042	-0.683739	-0.139473	0.711959	-0.078504
64855	9.575183	-0.291369	0.058042	-0.117222	-1.121169	-0.299457	-0.682698	-0.143997	0.711262	-0.085406
64856	9.258005	-0.361546	0.319777	-0.331207	-1.216169	-0.628201	-0.681684	-0.148913	0.710297	-0.092790
64857	9.258036	-0.444272	0.325653	-0.298899	-1.267760	-0.630203	-0.680517	-0.154303	0.709196	-0.100633
64858	9.526624	-0.380023	0.304523	-0.294504	-1.191717	-0.352947	-0.679391	-0.160128	0.707737	-0.109059
64859	9.651528	-0.323019	0.366967	-0.358424	-1.141012	-0.223084	-0.678489	-0.165870	0.705961	-0.117296
64860	9.559477	-0.026205	0.394050	-0.482457	-0.847113	-0.294855	-0.677471	-0.171941	0.704078	-0.125474
64861	9.620019	0.247033	0.318190	-0.517816	-0.553092	-0.214095	-0.676250	-0.177958	0.702350	-0.133122
64862	9.815424	0.287401	0.258052	-0.478116	-0.489729	-0.013540	-0.675051	-0.183658	0.700669	-0.140138
64863	9.877612	0.168621	0.076638	-0.258903	-0.504990	0.050348	-0.673815	-0.189000	0.699128	-0.146533
64864	9.954860	0.019738	0.007984	-0.125746	-0.596471	0.123514	-0.672592	-0.193917	0.697713	-0.152358
64865	10.180645	-0.211465	0.034432	-0.034134	-0.812486	0.337688	-0.671430	-0.198614	0.696293	-0.157831
64866	10.414488	-0.511892	-0.027215	0.175369	-1.042311	0.560699	-0.670261	-0.203232	0.694842	-0.163225
64867	10.437179	-0.718803	0.024456	0.247283	-1.229547	0.573794	-0.669051	-0.207606	0.693420	-0.168638
64868	10.410538	-0.861646	0.062453	0.301712	-1.346143	0.542139	-0.667835	-0.211799	0.691941	-0.174229
64869	10.159558	-0.796450	0.111508	0.241369	-1.274737	0.295729	-0.666735	-0.215758	0.690319	-0.179922
64870	9.938879	-0.822712	0.197023	0.202355	-1.300263	0.074943	-0.665759	-0.219703	0.688484	-0.185699
64871	9.837529	-0.882932	0.211385	0.245970	-1.319933	-0.025024	-0.664854	-0.223791	0.686404	-0.191669
64872	9.718303	-0.915341	0.189067	0.308955	-1.292943	-0.140475	-0.663954	-0.228104	0.684090	-0.197874
64873	9.584151	-0.898714	0.089027	0.408446	-1.179032	-0.267298	-0.662880	-0.232867	0.681598	-0.204421
64874	9.498465	-0.825505	0.093147	0.389460	-1.083342	-0.347727	-0.661751	-0.237911	0.678914	-0.211092
64875	9.480209	-0.749374	0.087617	0.376532	-0.986372	-0.361299	-0.660551	-0.243322	0.676066	-0.217718
64876	9.442341	-0.599298	0.272160	0.167937	-0.958342	-0.397577	-0.659158	-0.249033	0.673265	-0.224072
64877	9.336120	-0.718428	0.263383	0.279297	-1.027171	-0.505943	-0.657590	-0.254983	0.670577	-0.229970
64878	9.263721	-0.835497	-0.062484	0.631716	-0.893382	-0.575739	-0.655703	-0.261719	0.667746	-0.235949
64879	9.384776	-0.959613	-0.099889	0.777787	-0.957269	-0.459432	-0.653952	-0.269035	0.664367	-0.242040
64880	9.435310	-1.071859	0.132126	0.735221	-1.188914	-0.419230	-0.652474	-0.276788	0.660267	-0.248420
64881	9.580924	-1.102574	0.673887	0.437360	-1.582632	-0.285495	-0.651134	-0.284619	0.655774	-0.254906
64882	9.630796	-0.938035	0.898872	0.235899	-1.625134	-0.234430	-0.649606	-0.292036	0.651680	-0.260843
64883	9.731690	-0.466612	0.962321	-0.083546	-1.357646	-0.117374	-0.647728	-0.299517	0.647798	-0.266639
64884	9.892204	0.012631	1.047517	-0.438830	-1.123865	0.061383	-0.645683	-0.306589	0.644380	-0.271793
64885	9.992833	0.091770	0.839631	-0.318186	-0.946467	0.165936	-0.643667	-0.312893	0.641521	-0.276120
64886	9.644943	-0.294076	0.351507	0.310288	-0.835864	-0.198119	-0.641634	-0.318609	0.639215	-0.279639
64887	9.426247	-0.777263	-0.454693	1.208423	-0.533104	-0.436096	-0.639211	-0.324623	0.637172	-0.282916
64888	9.647749	-0.787278	-0.399009	1.209196	-0.609261	-0.219740	-0.637018	-0.330759	0.634647	-0.286406
64889	9.938938	-0.538052	-0.166649	0.907577	-0.666384	0.078315	-0.634586	-0.337399	0.631567	-0.290835
64890	10.434921	0.092821	0.496435	0.056587	-0.859031	0.598911	-0.631941	-0.344349	0.628018	-0.296085
64891	10.751725	0.793845	0.730184	-0.604384	-0.683855	0.954385	-0.628967	-0.351494	0.624461	-0.301497
64892	10.640571	1.223141	0.609935	-0.870794	-0.370575	0.873478	-0.626202	-0.357990	0.621004	-0.306704
64893	10.304761	1.207362	0.721119	-0.914710	-0.482720	0.536035	-0.623587	-0.364059	0.617439	-0.312041
64894	9.873203	0.941458	0.724359	-0.691508	-0.622518	0.088091	-0.621200	-0.369664	0.613785	-0.317375
64895	9.397556	0.719461	0.745135	-0.513479	-0.738800	-0.401132	-0.618796	-0.375173	0.609976	-0.322902
64896	9.066241	0.820384	0.557796	-0.502990	-0.513357	-0.720694	-0.616223	-0.380521	0.606261	-0.328513
64897	9.047554	1.067802	0.810753	-0.827182	-0.615019	-0.724604	-0.613696	-0.385625	0.602445	-0.334262
64898	9.100593	1.146147	0.643877	-0.799485	-0.436083	-0.662842	-0.611180	-0.390503	0.598718	-0.339858
64899	9.247495	1.277840	0.750100	-0.944975	-0.480900	-0.507451	-0.608607	-0.395268	0.595164	-0.345167
64900	9.412964	1.308076	0.604293	-0.889122	-0.351624	-0.338198	-0.605899	-0.399898	0.591843	-0.350270
64901	9.531104	1.558788	0.578595	-1.094404	-0.235670	-0.202627	-0.603174	-0.404203	0.588759	-0.355196
64902	9.554636	1.857026	0.694300	-1.414996	-0.231587	-0.160444	-0.600364	-0.408185	0.585975	-0.359974
64903	9.614429	2.118456	0.697239	-1.659964	-0.151181	-0.084746	-0.597493	-0.411952	0.583599	-0.364294
64904	9.792867	2.078267	0.471941	-1.537261	0.007709	0.090789	-0.594572	-0.415661	0.581609	-0.368023
64905	10.043924	1.927420	0.564428	-1.429728	-0.174436	0.328284	-0.591760	-0.419388	0.579661	-0.371385
64906	10.247191	1.516119	0.577754	-1.046765	-0.376608	0.502336	-0.588947	-0.423254	0.577719	-0.374485
64907	10.107678	1.318905	0.507986	-0.847359	-0.408409	0.349882	-0.586146	-0.427150	0.575839	-0.377340
64908	9.868159	1.482570	0.548037	-1.028694	-0.414088	0.119540	-0.583345	-0.430962	0.574045	-0.380070
64909	9.492356	1.567292	0.617662	-1.154631	-0.471325	-0.253017	-0.580450	-0.434694	0.572340	-0.382813
64910	9.171596	1.755721	0.801212	-1.412281	-0.606446	-0.567135	-0.577625	-0.438251	0.570705	-0.385463
64911	9.133380	1.803153	0.605426	-1.400945	-0.442561	-0.599768	-0.574668	-0.441907	0.569167	-0.387975
64912	9.410501	1.751943	0.497756	-1.308859	-0.408481	-0.326145	-0.571676	-0.445598	0.567519	-0.390578
64913	9.531917	1.465741	0.425524	-1.012678	-0.464895	-0.223883	-0.568573	-0.449341	0.565627	-0.393554
64914	9.628091	1.169628	0.410910	-0.725365	-0.567999	-0.148932	-0.565168	-0.453280	0.563375	-0.397153
64915	9.515756	1.121949	0.378634	-0.685046	-0.567682	-0.264905	-0.561357	-0.457421	0.560770	-0.401474
64916	9.431776	1.340058	0.464448	-0.933381	-0.613920	-0.340533	-0.557290	-0.461626	0.557998	-0.406162
64917	9.583749	1.401279	0.315404	-0.964033	-0.488952	-0.182382	-0.553009	-0.465935	0.555275	-0.410798
64918	9.772395	1.554885	0.224807	-1.100927	-0.408091	0.015294	-0.548625	-0.470361	0.552514	-0.415331
64919	9.961623	1.604280	0.012237	-1.114266	-0.235829	0.212802	-0.544159	-0.474862	0.549692	-0.419804
64920	10.273900	1.543542	0.266230	-1.105218	-0.546630	0.506519	-0.539922	-0.479154	0.546649	-0.424347
64921	10.234165	1.319793	0.421878	-0.922703	-0.761496	0.445318	-0.535880	-0.483383	0.543294	-0.428957
64922	9.969409	1.113197	0.837410	-0.797137	-1.205170	0.149326	-0.531867	-0.487522	0.539608	-0.433893
64923	9.677887	0.613776	1.098743	-0.348726	-1.521684	-0.178980	-0.527883	-0.491298	0.535828	-0.439151
64924	9.372738	0.056444	0.916303	0.213560	-1.386357	-0.500147	-0.523428	-0.494958	0.532244	-0.444698
64925	9.509668	-0.072386	0.378005	0.389581	-0.863948	-0.342541	-0.518247	-0.498727	0.528995	-0.450396
64926	10.105422	0.560973	0.405735	-0.249436	-0.868112	0.276066	-0.512918	-0.502589	0.525905	-0.455789
64927	10.520132	0.638825	0.381702	-0.335227	-0.873583	0.692140	-0.507875	-0.506648	0.522538	-0.460787
64928	10.755318	0.419466	0.361136	-0.120686	-0.886172	0.919664	-0.503216	-0.510773	0.518591	-0.465776
64929	10.424552	0.109666	0.409946	0.171989	-0.921758	0.578276	-0.498705	-0.514742	0.513965	-0.471354
64930	9.999720	-0.058722	0.397578	0.322810	-0.867058	0.152243	-0.494225	-0.518380	0.509090	-0.477337
64931	9.549944	-0.106033	0.383011	0.347320	-0.799208	-0.294290	-0.489792	-0.521607	0.504319	-0.483418
64932	9.169947	0.196435	0.291638	0.018374	-0.669203	-0.660457	-0.485195	-0.524770	0.499805	-0.489282
64933	9.205350	0.335468	0.028916	-0.148717	-0.394622	-0.610843	-0.480684	-0.527866	0.495500	-0.494752
64934	9.506229	-0.004192	0.148749	0.185073	-0.485543	-0.319509	-0.476488	-0.530938	0.490836	-0.500144
64935	9.571372	-0.333371	0.075848	0.496741	-0.357405	-0.254790	-0.472225	-0.534214	0.485503	-0.505872
64936	9.508796	-0.458848	0.013724	0.602979	-0.241086	-0.315000	-0.467920	-0.537482	0.480132	-0.511505
64937	9.712315	-0.482720	-0.237704	0.587583	0.043251	-0.103344	-0.463440	-0.540873	0.475015	-0.516759
64938	10.019787	-0.257515	-0.390694	0.330167	0.185677	0.210862	-0.458756	-0.544347	0.470160	-0.521707
64939	10.259938	-0.084139	-0.445190	0.131400	0.225177	0.453937	-0.453892	-0.547784	0.465513	-0.526509
64940	10.363516	-0.175291	-0.564013	0.176206	0.366911	0.559657	-0.448984	-0.551029	0.460992	-0.531288
64941	10.527017	-0.562840	-0.520086	0.534705	0.406985	0.720768	-0.444018	-0.554131	0.456344	-0.536225
64942	10.680963	-0.964054	-0.688636	0.857011	0.681384	0.877846	-0.439147	-0.556904	0.451180	-0.541705
64943	10.626752	-0.980217	-0.833952	0.790439	0.881154	0.826030	-0.433864	-0.559591	0.445018	-0.548252
64944	10.572096	-0.900234	-1.372048	0.517470	1.451072	0.774467	-0.428767	-0.561539	0.438950	-0.555117
64945	10.577620	-0.740190	-1.042019	0.361579	1.161597	0.772139	-0.422990	-0.563370	0.432263	-0.562887
64946	10.554874	-0.878744	-0.728478	0.488815	0.977823	0.747226	-0.417813	-0.564109	0.426114	-0.570649
64947	10.138951	-0.883588	-0.173991	0.574176	0.530994	0.336033	-0.412045	-0.565186	0.419493	-0.578627
64948	9.607695	-1.057461	0.038770	0.742772	0.454180	-0.186228	-0.405776	-0.566971	0.412683	-0.586159
64949	8.970282	-1.078303	0.387073	0.840051	0.188730	-0.810650	-0.399162	-0.569344	0.405622	-0.593285
64950	8.354865	-1.071314	0.635127	0.900977	0.000427	-1.413716	-0.392280	-0.571985	0.398494	-0.600127
64951	8.051698	-1.091248	0.623666	0.891486	0.061929	-1.712640	-0.384934	-0.575034	0.391344	-0.606640
64952	8.061714	-1.046185	0.693741	0.848481	0.021020	-1.698103	-0.377102	-0.578719	0.384012	-0.612709
64953	8.329276	-1.061233	0.490959	0.741538	0.249205	-1.438200	-0.368762	-0.583353	0.376152	-0.618243
64954	8.695997	-1.077732	0.703855	0.826927	0.101642	-1.061511	-0.360434	-0.588715	0.367877	-0.623032
64955	8.959678	-0.902291	0.798001	0.719399	-0.037449	-0.801153	-0.352329	-0.594619	0.359392	-0.627001
64956	9.112034	-0.671461	0.648589	0.470715	-0.008166	-0.665068	-0.344510	-0.600832	0.350877	-0.630238
64957	9.406712	-0.383369	0.636892	0.251616	-0.139320	-0.381044	-0.337256	-0.606950	0.342623	-0.632835
64958	9.595999	-0.411560	0.858433	0.444078	-0.303445	-0.184609	-0.330735	-0.612695	0.334809	-0.634919
64959	9.979247	-0.388271	1.113465	0.620253	-0.511577	0.203754	-0.324575	-0.618328	0.327036	-0.636686
64960	10.373947	-0.478864	1.143300	0.772951	-0.464911	0.596018	-0.318719	-0.623849	0.319613	-0.638027
64961	10.738761	-0.261013	0.939365	0.546410	-0.418101	0.948242	-0.312763	-0.629490	0.312071	-0.639166
64962	10.632710	0.029078	0.651049	0.224567	-0.369524	0.831170	-0.306662	-0.635189	0.304276	-0.640241
64963	10.409954	-0.136927	0.407009	0.278236	-0.080615	0.602073	-0.300847	-0.640519	0.296970	-0.641121
64964	10.402031	-0.126672	0.014111	0.073948	0.211496	0.587704	-0.295569	-0.644768	0.290277	-0.642380
64965	9.908242	-0.448812	-0.074602	0.283602	0.497807	0.089432	-0.290818	-0.647531	0.283731	-0.644690
64966	9.884766	-0.411541	0.289241	0.513148	0.227809	0.068929	-0.283596	-0.651442	0.275187	-0.647665
64967	10.151177	0.083963	0.514702	0.333377	-0.248731	0.343358	-0.275921	-0.655376	0.265765	-0.650937
64968	10.324106	0.555265	0.271823	-0.142840	-0.387301	0.521667	-0.267758	-0.659247	0.255632	-0.654485
64969	10.439961	0.792102	0.200277	-0.332982	-0.492576	0.642301	-0.259374	-0.662610	0.245601	-0.658296
64970	10.372259	1.010383	0.342557	-0.356007	-0.736375	0.582165	-0.251139	-0.665285	0.235821	-0.662355
64971	10.142151	1.018096	0.504326	-0.228857	-0.830725	0.356460	-0.243149	-0.667446	0.226133	-0.666528
64972	9.764809	1.347247	0.536079	-0.401021	-1.093160	-0.009725	-0.235472	-0.669216	0.216355	-0.670741
64973	9.437735	1.666418	0.615347	-0.519376	-1.378356	-0.322864	-0.228800	-0.670362	0.207320	-0.674747
64974	9.220791	1.615574	0.846793	-0.292505	-1.447741	-0.529987	-0.222390	-0.671209	0.198645	-0.678647
64975	9.224271	1.711709	1.287569	0.026106	-1.738515	-0.503997	-0.216415	-0.671828	0.190579	-0.682269
64976	9.105110	1.363043	1.266480	0.206888	-1.402176	-0.628142	-0.210936	-0.672350	0.183219	-0.685480
64977	9.340628	1.236452	1.141219	0.168752	-1.182854	-0.397230	-0.205550	-0.673107	0.176256	-0.688193
64978	9.845133	1.056761	1.168492	0.281312	-0.984353	0.105003	-0.199733	-0.674032	0.168861	-0.690850
64979	10.076034	0.869357	1.201599	0.402483	-0.789590	0.333273	-0.193792	-0.674901	0.161285	-0.693498
64980	10.017328	0.650948	1.056867	0.382087	-0.495150	0.261850	-0.187478	-0.675858	0.153478	-0.696069
64981	9.700288	0.794209	0.777391	0.076626	-0.481576	-0.061131	-0.180526	-0.676988	0.145251	-0.698570
64982	9.422829	1.307082	0.745940	-0.163876	-0.922903	-0.316585	-0.173108	-0.678071	0.136753	-0.701108
64983	9.225982	1.502319	0.890289	-0.094589	-1.157096	-0.494937	-0.165594	-0.679127	0.128462	-0.703465
64984	9.276187	1.417838	0.865821	-0.064986	-1.055003	-0.448380	-0.158138	-0.680336	0.120472	-0.705423
64985	9.438770	1.362215	0.690678	-0.187510	-0.919436	-0.297307	-0.150619	-0.681761	0.112452	-0.707015
64986	9.527514	1.321543	0.652276	-0.185053	-0.857296	-0.211843	-0.142616	-0.683238	0.104025	-0.708538
64987	9.476183	1.476142	0.543617	-0.310114	-0.967844	-0.260745	-0.134435	-0.684548	0.095625	-0.710054
64988	9.338118	1.562307	0.429525	-0.412409	-1.026293	-0.399807	-0.125868	-0.685765	0.087056	-0.711551
64989	9.534045	1.736752	0.485373	-0.387223	-1.203468	-0.192316	-0.117214	-0.686847	0.078520	-0.712977
64990	9.600303	1.716534	0.413247	-0.424646	-1.169777	-0.131039	-0.108658	-0.687691	0.070357	-0.714370
64991	9.703644	1.602209	0.274114	-0.510237	-1.032990	-0.041534	-0.100031	-0.688491	0.062399	-0.715598
64992	9.761379	1.485739	0.081532	-0.654175	-0.893401	-0.000837	-0.091419	-0.689040	0.054642	-0.716855
64993	9.754384	1.518736	0.085612	-0.639395	-0.949944	-0.007046	-0.082369	-0.689499	0.046566	-0.718080
64994	9.659685	1.487487	0.267652	-0.434309	-0.978612	-0.094282	-0.072953	-0.689704	0.038338	-0.719386
64995	9.628047	1.470468	0.418029	-0.266035	-1.007993	-0.119936	-0.063299	-0.689874	0.030295	-0.720520
64996	9.713418	1.623416	0.866493	0.176490	-1.230734	-0.004995	-0.053558	-0.690124	0.022514	-0.721355
64997	9.716174	1.333766	1.218573	0.582587	-0.991451	0.002884	-0.043865	-0.690532	0.014981	-0.721815
64998	9.557185	0.765914	1.045810	0.483396	-0.433877	-0.189894	-0.033840	-0.690853	0.007516	-0.722164
64999	9.327641	0.451162	1.145250	0.620544	-0.153871	-0.425929	-0.023079	-0.690980	0.000071	-0.722505
65000	9.654581	0.212449	1.095191	0.562829	0.067942	-0.110420	-0.012167	-0.691161	-0.006842	-0.722566
65001	10.418312	0.271654	0.973330	0.409965	-0.007959	0.646476	-0.001619	-0.691678	-0.013652	-0.722076
65002	11.288027	0.480593	0.706641	0.125615	-0.239057	1.504415	0.008496	-0.692176	-0.021396	-0.721362
65003	11.508972	0.694361	0.549938	-0.009101	-0.475173	1.720530	0.018116	-0.691963	-0.030108	-0.721078
65004	10.856838	0.770742	0.809679	0.291850	-0.542494	1.084150	0.027591	-0.690658	-0.039172	-0.721592
65005	9.844950	0.820101	1.090876	0.612658	-0.570525	0.091084	0.037361	-0.688546	-0.047913	-0.722643
65006	9.098972	0.774677	1.067748	0.600705	-0.538521	-0.654053	0.047476	-0.686152	-0.055860	-0.723754
65007	8.934189	0.827755	0.963945	0.493072	-0.624159	-0.823732	0.057857	-0.683879	-0.063196	-0.724547
65008	9.092605	0.870847	1.040813	0.546448	-0.674846	-0.660473	0.067273	-0.681662	-0.069774	-0.725219
65009	9.252417	0.739350	1.019844	0.469155	-0.568193	-0.504038	0.075790	-0.679545	-0.076290	-0.725710
65010	9.464645	0.318951	1.003228	0.321392	-0.175223	-0.296720	0.083510	-0.677551	-0.082581	-0.726038
65011	9.674877	-0.302243	0.731557	-0.135748	0.345954	-0.112608	0.090977	-0.675729	-0.088638	-0.726124
65012	10.022459	-0.733584	0.273823	-0.746159	0.612840	0.193826	0.098632	-0.674119	-0.094593	-0.725870
65013	10.373602	-1.094563	-0.078161	-1.241218	0.813840	0.512648	0.106482	-0.672569	-0.100342	-0.725426
65014	10.410605	-1.493734	-0.147174	-1.462170	1.120736	0.542948	0.114746	-0.670817	-0.106429	-0.724921
65015	10.436430	-1.613409	-0.183602	-1.574624	1.163973	0.566193	0.123516	-0.669050	-0.113063	-0.724108
65016	10.208222	-1.518013	-0.150315	-1.525981	1.032483	0.343084	0.132543	-0.667320	-0.119802	-0.723024
65017	9.931383	-1.316162	-0.044832	-1.360525	0.833642	0.077729	0.141519	-0.665491	-0.126516	-0.721864
65018	9.592721	-1.152806	0.140489	-1.124178	0.715705	-0.242277	0.150487	-0.663577	-0.133564	-0.720541
65019	9.365215	-0.965460	0.176617	-1.018294	0.527658	-0.466295	0.159023	-0.661653	-0.140562	-0.719145
65020	9.234569	-1.052566	0.104379	-1.130601	0.547027	-0.602998	0.167576	-0.659473	-0.148003	-0.717711
65021	8.955220	-1.426813	0.036695	-1.363330	0.832164	-0.886226	0.175967	-0.656977	-0.155794	-0.716341
65022	8.690113	-1.862065	0.063535	-1.559447	1.211430	-1.147257	0.184501	-0.654471	-0.164549	-0.714528
65023	8.684412	-1.700927	0.103088	-1.486024	1.066061	-1.153710	0.193075	-0.652194	-0.174221	-0.712048
65024	8.638606	-1.294187	0.026924	-1.368610	0.672267	-1.211752	0.201560	-0.650038	-0.185169	-0.708899
65025	8.817242	-0.897371	-0.041966	-1.244273	0.304249	-1.042855	0.209764	-0.647988	-0.197220	-0.705134
65026	9.149214	-0.637585	0.029441	-1.071898	0.146497	-0.705276	0.217661	-0.645921	-0.209758	-0.701007
65027	9.686215	0.243255	1.050744	0.223625	0.067083	-0.069439	0.225587	-0.643616	-0.222444	-0.696698
65028	10.724313	1.646661	1.269395	1.188330	-0.850579	1.013066	0.232648	-0.642129	-0.233464	-0.692127
65029	11.144380	2.339234	0.184394	0.806001	-1.986811	1.372363	0.238078	-0.641265	-0.241418	-0.688343
65030	10.946002	0.756906	0.164188	-0.164071	-0.727714	1.135289	0.243372	-0.639957	-0.248249	-0.685272
65031	10.347300	-0.718206	0.256885	-1.002551	0.481478	0.502907	0.249016	-0.638529	-0.254972	-0.682101
65032	9.853236	-1.142734	0.323820	-1.191193	0.860960	0.002441	0.255404	-0.637521	-0.262194	-0.677931
65033	9.814633	-0.807391	0.189191	-1.035421	0.529007	-0.031956	0.262164	-0.636267	-0.268981	-0.673858
65034	9.898935	0.517341	0.461279	0.107500	-0.220196	0.107455	0.269451	-0.634254	-0.275924	-0.670063
65035	9.847389	0.697197	0.582048	0.345788	-0.246231	0.067379	0.276508	-0.631756	-0.282533	-0.666785
65036	10.045543	1.213506	0.848846	0.904716	-0.392793	0.293412	0.283963	-0.628442	-0.289542	-0.663770
65037	10.464383	1.491608	0.961230	1.166343	-0.482997	0.725742	0.291393	-0.624745	-0.296580	-0.660926
65038	10.455848	1.587646	0.889685	1.188490	-0.584644	0.717393	0.298596	-0.620611	-0.302988	-0.658696
65039	9.913507	1.445964	0.973252	1.147652	-0.409405	0.178854	0.305341	-0.616305	-0.309118	-0.656796
65040	9.485983	1.314955	0.789486	0.935200	-0.456864	-0.260049	0.311619	-0.611927	-0.315015	-0.655137
65041	9.032339	1.430989	0.729202	0.997435	-0.556405	-0.710045	0.317711	-0.607510	-0.320928	-0.653450
65042	8.992451	1.473043	0.642117	0.963153	-0.642520	-0.751461	0.323450	-0.603300	-0.326709	-0.651668
65043	9.253351	1.437186	0.777908	0.974742	-0.507041	-0.480598	0.329041	-0.599256	-0.332734	-0.649548
65044	9.443204	1.465447	0.865076	1.017763	-0.437576	-0.281548	0.334626	-0.595491	-0.338805	-0.647014
65045	9.646126	1.559378	0.985911	1.137602	-0.370098	-0.064853	0.340147	-0.592014	-0.344645	-0.644236
65046	9.945996	1.688960	0.981603	1.219647	-0.426433	0.240646	0.345468	-0.588777	-0.350213	-0.641361
65047	9.961652	1.812992	0.900337	1.283004	-0.531782	0.257223	0.350487	-0.585631	-0.355540	-0.638582
65048	9.697527	1.875728	0.689884	1.254906	-0.703250	-0.016418	0.355217	-0.582638	-0.360985	-0.635644
65049	9.589977	1.905956	0.620056	1.259501	-0.736768	-0.124782	0.359517	-0.579838	-0.366482	-0.632634
65050	9.606065	1.606720	0.518145	0.949895	-0.645294	-0.127252	0.363464	-0.577233	-0.372111	-0.629468
65051	9.655563	1.372407	0.579535	0.766542	-0.440850	-0.082983	0.367439	-0.574586	-0.378074	-0.626019
65052	9.692492	1.338114	0.623663	0.751708	-0.339441	-0.043172	0.371582	-0.571788	-0.384255	-0.622361
65053	9.546951	1.451973	0.762528	0.921618	-0.207690	-0.172084	0.375942	-0.568791	-0.390502	-0.618589
65054	9.437562	1.559006	0.742445	1.017531	-0.216779	-0.275038	0.380442	-0.565750	-0.396653	-0.614701
65055	9.403908	1.730049	0.742212	1.178523	-0.233088	-0.297752	0.385230	-0.562592	-0.402792	-0.610612
65056	9.493937	1.924154	0.763526	1.363939	-0.237460	-0.194826	0.390079	-0.559441	-0.408729	-0.606469
65057	9.640013	1.930725	0.896661	1.411147	-0.070014	-0.042060	0.394958	-0.556261	-0.414366	-0.602397
65058	9.648961	1.885647	0.945618	1.389464	0.036633	-0.034129	0.399711	-0.553261	-0.419643	-0.598359
65059	9.706385	1.641930	1.008712	1.182561	0.213740	0.009894	0.404359	-0.550555	-0.424421	-0.594348
65060	9.797181	1.357791	0.835901	0.867422	0.169385	0.073964	0.408880	-0.548263	-0.428894	-0.590148
65061	9.969776	1.043940	0.923745	0.602002	0.373550	0.229100	0.413222	-0.546369	-0.433024	-0.585849
65062	9.953683	0.671086	1.032875	0.297343	0.608599	0.194016	0.417853	-0.544306	-0.437050	-0.581479
65063	10.065968	0.221822	1.035208	-0.119006	0.743624	0.280745	0.422637	-0.542301	-0.440856	-0.577004
65064	10.258830	-0.040845	1.176246	-0.324048	0.951956	0.464351	0.427517	-0.540371	-0.444473	-0.572426
65065	10.736773	-0.034613	0.984052	-0.362780	0.765466	0.935813	0.432203	-0.538215	-0.448486	-0.567790
65066	11.026785	0.657883	0.919670	0.300896	0.563873	1.253480	0.436976	-0.535226	-0.452991	-0.563369
65067	10.692054	1.274743	0.764839	0.896398	0.310218	0.940461	0.442171	-0.531412	-0.457359	-0.559383
65068	10.099535	1.601946	0.724217	1.242233	0.224372	0.360701	0.447820	-0.527172	-0.460921	-0.555966
65069	9.572344	1.614312	0.773976	1.294054	0.269500	-0.164498	0.453629	-0.522999	-0.463494	-0.553051
65070	9.547388	1.383330	0.797188	1.084082	0.299023	-0.198275	0.459441	-0.519105	-0.465159	-0.550518
65071	9.444412	1.075791	0.919361	0.818412	0.421359	-0.307329	0.465046	-0.515459	-0.465928	-0.548585
65072	9.443985	0.708977	0.850719	0.464331	0.345626	-0.321647	0.469811	-0.512352	-0.466121	-0.547270
65073	9.525901	0.474084	0.547046	0.209446	0.015141	-0.261642	0.473739	-0.509639	-0.466329	-0.546239
65074	9.796991	0.466833	0.748405	0.228013	0.153322	0.020083	0.477133	-0.507232	-0.466418	-0.545449
65075	9.929635	-0.017181	0.913700	-0.229417	0.307460	0.151515	0.480046	-0.505215	-0.465673	-0.545402
65076	9.757042	-0.509870	0.801700	-0.714359	0.198748	-0.037594	0.483071	-0.503047	-0.465199	-0.545138
65077	9.453897	-0.887014	0.554526	-1.092553	-0.041045	-0.364147	0.485939	-0.501079	-0.465236	-0.544370
65078	9.251964	-1.251658	0.217281	-1.466582	-0.369127	-0.597187	0.488750	-0.499148	-0.465901	-0.543057
65079	9.007539	-1.277339	0.119497	-1.481631	-0.476027	-0.848329	0.491566	-0.497048	-0.467398	-0.541152
65080	8.804880	-1.234715	-0.064436	-1.437122	-0.663920	-1.063490	0.494210	-0.494930	-0.469926	-0.538489
65081	8.987411	-1.057606	-0.098506	-1.258263	-0.724565	-0.879963	0.496507	-0.492933	-0.473217	-0.535316
65082	9.173137	-0.869339	0.005967	-1.064928	-0.632832	-0.682098	0.498443	-0.491014	-0.476761	-0.532127
65083	9.048057	-0.821324	-0.014322	-1.016922	-0.626692	-0.806289	0.499808	-0.489303	-0.480339	-0.529197
65084	8.894520	-0.690295	-0.096852	-0.893234	-0.676999	-0.961579	0.500657	-0.487691	-0.484073	-0.526472
65085	8.832993	-0.783876	0.097412	-0.999077	-0.446207	-1.012214	0.500854	-0.486069	-0.488048	-0.524110
65086	9.102871	-0.323426	0.719978	-0.574001	0.187549	-0.695655	0.500678	-0.483821	-0.492647	-0.522052
65087	10.140855	1.152898	1.188251	0.814224	0.639941	0.410074	0.499997	-0.481596	-0.497743	-0.519922
65088	11.950055	2.372186	0.596303	1.908712	0.029831	2.234799	0.498495	-0.480853	-0.501212	-0.518719
65089	12.822563	2.517551	0.750337	1.979258	0.190041	3.124296	0.497741	-0.480801	-0.501923	-0.518805
65090	11.779789	1.362740	0.782174	0.863929	0.261936	2.037092	0.497935	-0.481019	-0.501160	-0.519153
65091	10.014241	-0.051193	0.679499	-0.465308	0.220039	0.211504	0.498661	-0.480775	-0.500943	-0.518891
65092	9.004190	-0.723645	0.698631	-1.093153	0.272156	-0.822797	0.499899	-0.479506	-0.501908	-0.517942
65093	8.455839	-0.628204	0.983757	-0.985512	0.572865	-1.353125	0.501302	-0.477715	-0.503210	-0.516976
65094	8.565958	-0.250346	1.277595	-0.628923	0.854773	-1.213598	0.502733	-0.475861	-0.504451	-0.516086
65095	8.969695	0.607498	1.434409	0.197254	0.996473	-0.765582	0.503824	-0.474471	-0.504939	-0.515825
65096	9.486573	1.262838	1.450384	0.823608	0.987682	-0.218961	0.504279	-0.473829	-0.504767	-0.516139
65097	9.950489	1.472486	1.357420	1.012576	0.861320	0.249908	0.503845	-0.473976	-0.504046	-0.517131
65098	10.067987	1.251727	0.893312	0.793449	0.376137	0.334141	0.502567	-0.474756	-0.503160	-0.518520
65099	10.257546	0.973191	0.555733	0.504095	0.021822	0.493553	0.501153	-0.475536	-0.502664	-0.519654
65100	10.325966	0.842775	0.433734	0.361505	-0.106022	0.549843	0.500284	-0.475877	-0.502207	-0.520620
65101	9.973633	0.631110	0.585463	0.156339	0.054050	0.196661	0.499870	-0.475979	-0.501555	-0.521552
65102	9.618123	0.629026	0.767638	0.165072	0.245089	-0.148014	0.499680	-0.476026	-0.501067	-0.522160
65103	9.481993	0.649912	0.829415	0.190871	0.308171	-0.279214	0.499481	-0.476207	-0.500710	-0.522528
65104	9.424367	0.628680	0.820567	0.172977	0.299833	-0.338119	0.499191	-0.476499	-0.500374	-0.522860
65105	9.559849	0.607181	0.767657	0.145864	0.240128	-0.206974	0.498824	-0.476841	-0.500208	-0.523058
65106	9.645923	0.583599	0.817567	0.117586	0.290105	-0.119656	0.498463	-0.477170	-0.500265	-0.523047
65107	9.720645	0.617794	0.891707	0.147588	0.369042	-0.039777	0.498148	-0.477506	-0.500485	-0.522831
65108	9.710158	0.656947	0.870030	0.188108	0.359223	-0.049938	0.497807	-0.477913	-0.500696	-0.522580
65109	9.650655	0.749621	0.898348	0.284818	0.402881	-0.103894	0.497461	-0.478355	-0.500902	-0.522308
65110	9.634821	0.774259	0.853787	0.312577	0.372325	-0.121358	0.497036	-0.478908	-0.501102	-0.522014
65111	9.647746	0.755356	0.846888	0.295464	0.380084	-0.110368	0.496535	-0.479526	-0.501379	-0.521657
65112	9.683881	0.754639	0.839971	0.295144	0.389757	-0.075463	0.495943	-0.480219	-0.501743	-0.521234
65113	9.682912	0.775680	0.847527	0.317524	0.418706	-0.076025	0.495222	-0.480979	-0.502188	-0.520789
65114	9.699041	0.742649	0.759236	0.284969	0.353331	-0.066238	0.494314	-0.481918	-0.502554	-0.520430
65115	9.654361	0.670249	0.650657	0.216428	0.270112	-0.119420	0.493368	-0.482941	-0.502749	-0.520192
65116	9.589547	0.540983	0.604208	0.092531	0.248760	-0.192570	0.492367	-0.484040	-0.502862	-0.520009
65117	9.576549	0.510938	0.572727	0.064596	0.241479	-0.208686	0.491315	-0.485098	-0.503134	-0.519756
65118	9.669037	0.547839	0.478545	0.096850	0.169899	-0.118301	0.490219	-0.486136	-0.503506	-0.519460
65119	9.682514	0.573039	0.494649	0.121561	0.212684	-0.103720	0.489099	-0.487279	-0.503833	-0.519128
65120	9.709678	0.466215	0.462477	0.015236	0.209563	-0.083100	0.487937	-0.488551	-0.504150	-0.518718
65121	9.777436	0.472871	0.437278	0.021254	0.214354	-0.016433	0.486824	-0.489778	-0.504634	-0.518136
65122	9.893640	0.443315	0.397793	-0.011891	0.206134	0.096711	0.485745	-0.490910	-0.505220	-0.517505
65123	9.914903	0.440317	0.360870	-0.014661	0.201755	0.116482	0.484694	-0.492016	-0.505740	-0.516932
65124	9.875068	0.372904	0.311848	-0.078168	0.184697	0.072301	0.483703	-0.493152	-0.506094	-0.516432
65125	9.917306	0.383318	0.315371	-0.065839	0.214949	0.114485	0.482879	-0.494161	-0.506374	-0.515963
65126	9.937660	0.431722	0.429372	-0.013017	0.351463	0.137393	0.482166	-0.495020	-0.506596	-0.515590
65127	9.886857	0.510700	0.479588	0.071607	0.420645	0.089770	0.481578	-0.495675	-0.506872	-0.515237
65128	9.741848	0.503009	0.482301	0.072048	0.441425	-0.056193	0.480913	-0.496364	-0.507030	-0.515040
65129	9.721303	0.435484	0.441878	0.006588	0.418475	-0.080604	0.480124	-0.497214	-0.507025	-0.514961
65130	9.849798	0.391916	0.389270	-0.041337	0.383778	0.045032	0.479342	-0.498066	-0.507097	-0.514795
65131	10.004688	0.360271	0.352269	-0.078541	0.364059	0.197755	0.478771	-0.498688	-0.507215	-0.514608
65132	9.890509	0.411226	0.347127	-0.022057	0.369483	0.085533	0.478395	-0.499020	-0.507332	-0.514521
65133	9.645585	0.435292	0.384691	0.013259	0.413473	-0.158484	0.477766	-0.499582	-0.507119	-0.514770
65134	9.672538	0.446351	0.392701	0.023242	0.429578	-0.131450	0.476903	-0.500386	-0.506826	-0.515077
65135	9.925979	0.461757	0.322368	0.025611	0.370728	0.122306	0.476018	-0.501194	-0.506582	-0.515351
65136	9.989012	0.339417	0.254552	-0.101806	0.315501	0.179832	0.475413	-0.501707	-0.506393	-0.515595
65137	9.766765	0.254123	0.353932	-0.175378	0.420163	-0.046815	0.475051	-0.501967	-0.506249	-0.515817
65138	9.584063	0.230959	0.324438	-0.192187	0.391856	-0.230288	0.474689	-0.502258	-0.506016	-0.516095
65139	9.646938	0.246919	0.314149	-0.180167	0.383466	-0.166778	0.474243	-0.502625	-0.505761	-0.516399
65140	9.882932	0.358648	0.251766	-0.082647	0.322409	0.074354	0.473857	-0.502883	-0.505665	-0.516596
65141	9.954047	0.504513	0.284919	0.058386	0.354218	0.151743	0.473542	-0.503028	-0.505627	-0.516780
65142	9.875471	0.563122	0.267336	0.117014	0.334927	0.076076	0.473176	-0.503221	-0.505414	-0.517136
65143	9.678915	0.476900	0.313540	0.038915	0.381225	-0.124535	0.472715	-0.503508	-0.505036	-0.517647
65144	9.614205	0.396708	0.292914	-0.041191	0.361590	-0.192725	0.472261	-0.503812	-0.504675	-0.518117
65145	9.736108	0.420944	0.372718	-0.021548	0.441764	-0.070393	0.471747	-0.504189	-0.504369	-0.518518
65146	9.899948	0.514937	0.255141	0.058180	0.323761	0.098469	0.471156	-0.504636	-0.504014	-0.518965
65147	9.868443	0.508469	0.260253	0.051102	0.329341	0.066653	0.470455	-0.505135	-0.503469	-0.519644
65148	9.668408	0.316177	0.236009	-0.135481	0.310298	-0.142158	0.469757	-0.505589	-0.502895	-0.520388
65149	9.462221	0.303330	0.202054	-0.144037	0.274320	-0.348520	0.469073	-0.505974	-0.502487	-0.521025
65150	9.674799	0.488876	0.202692	0.026369	0.268645	-0.127185	0.468424	-0.506352	-0.502151	-0.521566
65151	9.887129	0.457863	0.193914	-0.018738	0.264430	0.083387	0.467718	-0.506875	-0.501658	-0.522166
65152	9.983604	0.343529	0.277619	-0.133868	0.355712	0.173452	0.467061	-0.507509	-0.501036	-0.522734
65153	9.912430	0.248347	0.232174	-0.226599	0.315143	0.097972	0.466588	-0.508002	-0.500514	-0.523179
65154	9.804041	0.360342	0.256185	-0.107537	0.330173	-0.004828	0.466349	-0.508216	-0.500135	-0.523546
65155	9.762106	0.457388	0.291073	-0.006646	0.354098	-0.041955	0.466198	-0.508346	-0.499654	-0.524014
65156	9.840553	0.398323	0.314470	-0.066693	0.375234	0.033570	0.466061	-0.508585	-0.499110	-0.524421
65157	9.890232	0.336477	0.275057	-0.129693	0.335688	0.080545	0.465980	-0.508872	-0.498687	-0.524617
65158	9.894865	0.354042	0.255339	-0.109885	0.311498	0.086292	0.465979	-0.509020	-0.498331	-0.524813
65159	9.818816	0.458747	0.356729	0.006167	0.400075	0.015169	0.466052	-0.508964	-0.498040	-0.525079
65160	9.639515	0.514505	0.410053	0.073450	0.441464	-0.161117	0.466076	-0.508891	-0.497732	-0.525420
65161	9.539380	0.506982	0.372162	0.067655	0.397417	-0.261102	0.465991	-0.508926	-0.497446	-0.525732
65162	9.586960	0.459403	0.285077	0.012358	0.312105	-0.215576	0.465836	-0.509100	-0.497339	-0.525802
65163	9.707599	0.457802	0.214695	0.001188	0.245925	-0.095040	0.465697	-0.509271	-0.497436	-0.525668
65164	9.845019	0.498650	0.194201	0.034140	0.229063	0.044144	0.465541	-0.509391	-0.497583	-0.525552
65165	9.867253	0.462398	0.233710	-0.001073	0.274840	0.064336	0.465414	-0.509470	-0.497624	-0.525548
65166	9.761872	0.465231	0.314651	0.011086	0.356144	-0.041166	0.465337	-0.509479	-0.497637	-0.525595
65167	9.682278	0.493500	0.334233	0.043412	0.374191	-0.119398	0.465230	-0.509534	-0.497645	-0.525629
65168	9.685107	0.587118	0.330438	0.135941	0.366837	-0.112062	0.465083	-0.509667	-0.497699	-0.525579
65169	9.777527	0.596609	0.272388	0.137135	0.313106	-0.019153	0.464782	-0.509939	-0.497654	-0.525624
65170	9.746930	0.446132	0.111602	-0.022782	0.165439	-0.056344	0.464513	-0.510094	-0.497588	-0.525774
65171	9.891311	0.450123	0.123845	-0.026837	0.179705	0.087968	0.464398	-0.510117	-0.497560	-0.525879
65172	9.874693	0.470186	0.140679	-0.006708	0.193665	0.072295	0.464405	-0.510012	-0.497521	-0.526012
65173	9.879548	0.623153	0.070034	0.138841	0.110529	0.085151	0.464475	-0.509853	-0.497559	-0.526068
65174	9.794791	0.594111	0.046158	0.110496	0.085460	-0.000781	0.464435	-0.509793	-0.497483	-0.526234
65175	9.713724	0.533316	0.037838	0.051453	0.078637	-0.084715	0.464326	-0.509792	-0.497409	-0.526401
65176	9.697443	0.503878	0.061652	0.022029	0.102913	-0.102537	0.464162	-0.509794	-0.497331	-0.526617
65177	9.705800	0.471678	0.059476	-0.013750	0.101908	-0.095795	0.463948	-0.509822	-0.497240	-0.526865
65178	9.711075	0.481807	0.115474	-0.003494	0.155832	-0.090232	0.463685	-0.509898	-0.497063	-0.527190
65179	9.706321	0.461876	0.141235	-0.024435	0.181217	-0.096077	0.463411	-0.509985	-0.496876	-0.527523
65180	9.696177	0.434614	0.112623	-0.056545	0.153092	-0.107494	0.463134	-0.510058	-0.496726	-0.527836
65181	9.759658	0.438756	0.182596	-0.053978	0.222646	-0.044152	0.462882	-0.510132	-0.496645	-0.528061
65182	9.819594	0.388834	0.172688	-0.110429	0.216647	0.013111	0.462714	-0.510152	-0.496587	-0.528245
65183	9.829703	0.395246	0.208125	-0.104406	0.250841	0.023408	0.462632	-0.510118	-0.496562	-0.528373
65184	9.720363	0.369846	0.207889	-0.126238	0.251075	-0.087129	0.462540	-0.510090	-0.496574	-0.528469
65185	9.644066	0.331696	0.173039	-0.164920	0.219143	-0.165266	0.462504	-0.510016	-0.496721	-0.528433
65186	9.656942	0.346212	0.140086	-0.155373	0.187969	-0.151603	0.462492	-0.509933	-0.496994	-0.528268
65187	9.746068	0.400247	0.140772	-0.107839	0.188978	-0.059816	0.462588	-0.509774	-0.497330	-0.528020
65188	9.839750	0.476390	0.118370	-0.040052	0.165149	0.037833	0.462730	-0.509576	-0.497673	-0.527765
65189	9.852939	0.525384	0.155804	0.009472	0.201816	0.053411	0.462942	-0.509336	-0.498038	-0.527466
65190	9.791198	0.538308	0.127126	0.022659	0.173517	-0.007440	0.463154	-0.509097	-0.498330	-0.527235
65191	9.727114	0.517432	0.167200	0.007879	0.215871	-0.072781	0.463371	-0.508923	-0.498608	-0.526949
65192	9.709159	0.471171	0.145544	-0.038479	0.199662	-0.093139	0.463536	-0.508772	-0.498928	-0.526647
65193	9.704419	0.473656	0.162221	-0.034600	0.219744	-0.097908	0.463703	-0.508626	-0.499290	-0.526297
65194	9.734333	0.503007	0.183016	-0.005994	0.242859	-0.066676	0.463826	-0.508485	-0.499637	-0.525996
65195	9.737905	0.496484	0.191764	-0.012512	0.256167	-0.063622	0.463939	-0.508362	-0.499976	-0.525693
65196	9.803225	0.606997	0.176694	0.092457	0.239473	0.007546	0.464064	-0.508211	-0.500375	-0.525349
65197	9.803023	0.632305	0.168787	0.116647	0.234631	0.008662	0.464161	-0.508102	-0.500695	-0.525064
65198	9.768456	0.605276	0.160813	0.090907	0.231674	-0.027341	0.464252	-0.508031	-0.500938	-0.524819
65199	9.759289	0.585297	0.201167	0.074139	0.276477	-0.037984	0.464283	-0.508010	-0.501135	-0.524624
65200	9.711411	0.509408	0.153790	-0.001638	0.237374	-0.089607	0.464266	-0.508033	-0.501359	-0.524403
65201	9.704429	0.522517	0.123349	0.009809	0.211523	-0.095726	0.464224	-0.508050	-0.501659	-0.524137
65202	9.782094	0.566476	0.118839	0.048648	0.211510	-0.015889	0.464195	-0.508043	-0.501954	-0.523887
65203	9.805250	0.584445	0.116892	0.064530	0.214137	0.008114	0.464179	-0.508025	-0.502207	-0.523677
65204	9.799140	0.608771	0.162212	0.091265	0.261563	0.002775	0.464166	-0.508018	-0.502357	-0.523551
65205	9.798048	0.604687	0.192340	0.088991	0.294373	0.001069	0.464181	-0.508016	-0.502475	-0.523426
65206	9.781849	0.598352	0.208724	0.084317	0.313300	-0.015703	0.464130	-0.508041	-0.502569	-0.523356
65207	9.767049	0.570753	0.196935	0.056658	0.304775	-0.031905	0.464059	-0.508096	-0.502583	-0.523353
65208	9.767097	0.570331	0.195796	0.055679	0.305056	-0.031908	0.463975	-0.508153	-0.502598	-0.523358
65209	9.759402	0.529395	0.210097	0.015866	0.322696	-0.042020	0.463909	-0.508188	-0.502590	-0.523389
65210	9.780637	0.507075	0.175681	-0.010200	0.289830	-0.021634	0.463871	-0.508191	-0.502560	-0.523450
65211	9.792453	0.490524	0.182317	-0.027360	0.296314	-0.010777	0.463905	-0.508141	-0.502508	-0.523518
65212	9.837498	0.521968	0.223463	0.003649	0.333332	0.035543	0.464040	-0.508001	-0.502463	-0.523577
65213	9.847522	0.569310	0.147463	0.045447	0.250937	0.049083	0.464222	-0.507820	-0.502433	-0.523620
65214	9.756626	0.562203	0.174716	0.044639	0.272603	-0.042219	0.464374	-0.507681	-0.502302	-0.523745
65215	9.708637	0.572445	0.198956	0.058827	0.290785	-0.089679	0.464501	-0.507542	-0.502222	-0.523845
65216	9.691783	0.616047	0.214144	0.103750	0.299124	-0.104145	0.464599	-0.507457	-0.502109	-0.523949
65217	9.679231	0.577207	0.252807	0.068249	0.335993	-0.119027	0.464670	-0.507416	-0.501968	-0.524061
65218	9.731940	0.562007	0.216980	0.048737	0.298497	-0.066811	0.464738	-0.507377	-0.501858	-0.524143
65219	9.760295	0.525615	0.210294	0.010868	0.291433	-0.040339	0.464810	-0.507320	-0.501786	-0.524203
65220	9.755529	0.527536	0.232597	0.014412	0.311248	-0.045106	0.464879	-0.507270	-0.501732	-0.524243
65221	9.755557	0.526232	0.234346	0.013756	0.311193	-0.045103	0.464955	-0.507235	-0.501694	-0.524245
65222	9.761652	0.525515	0.182998	0.010302	0.259030	-0.038624	0.465043	-0.507183	-0.501709	-0.524202
65223	9.759764	0.595765	0.205451	0.082217	0.276239	-0.036846	0.465117	-0.507135	-0.501679	-0.524213
65224	9.725114	0.567886	0.202645	0.056733	0.273164	-0.072895	0.465152	-0.507134	-0.501611	-0.524247
65225	9.733447	0.557037	0.196298	0.045673	0.266471	-0.065086	0.465157	-0.507158	-0.501557	-0.524270
65226	9.725450	0.540098	0.207874	0.030562	0.278294	-0.074057	0.465184	-0.507178	-0.501514	-0.524269
65227	9.703685	0.524363	0.172845	0.014782	0.243686	-0.096375	0.465243	-0.507164	-0.501511	-0.524233
65228	9.702487	0.519094	0.205149	0.012553	0.276876	-0.098111	0.465267	-0.507196	-0.501552	-0.524141
65229	9.750369	0.531673	0.180440	0.022075	0.253897	-0.049492	0.465239	-0.507269	-0.501622	-0.524029
65230	9.777141	0.541469	0.192899	0.032117	0.268945	-0.022411	0.465186	-0.507364	-0.501695	-0.523915
65231	9.737377	0.567093	0.197791	0.060336	0.275000	-0.060869	0.465118	-0.507426	-0.501775	-0.523838
65232	9.765777	0.530962	0.185207	0.022243	0.267749	-0.034424	0.465060	-0.507490	-0.501873	-0.523734
65233	9.749745	0.499249	0.204152	-0.007001	0.291685	-0.052394	0.464998	-0.507569	-0.501968	-0.523621
65234	9.746346	0.505066	0.188073	-0.001851	0.278858	-0.055436	0.464918	-0.507651	-0.502076	-0.523509
65235	9.764882	0.524935	0.207144	0.018421	0.300772	-0.036155	0.464875	-0.507706	-0.502217	-0.523358
65236	9.736716	0.559804	0.213074	0.055367	0.308338	-0.062596	0.464802	-0.507781	-0.502333	-0.523240
65237	9.746810	0.478545	0.181337	-0.028488	0.284848	-0.056651	0.464731	-0.507803	-0.502482	-0.523138
65238	9.809485	0.383455	0.110701	-0.131316	0.223384	0.001493	0.464774	-0.507730	-0.502691	-0.522969
65239	9.898039	0.381788	0.151488	-0.135752	0.267251	0.089334	0.465027	-0.507502	-0.502977	-0.522690
65240	9.895172	0.466110	0.093965	-0.054285	0.205858	0.091615	0.465421	-0.507176	-0.503340	-0.522307
65241	9.885089	0.570671	0.118506	0.052866	0.224332	0.086887	0.465877	-0.506824	-0.503631	-0.521962
65242	9.866393	0.597617	0.089978	0.080508	0.191928	0.070006	0.466356	-0.506451	-0.503847	-0.521688
65243	9.851828	0.679520	0.141725	0.167435	0.235436	0.059338	0.466867	-0.506071	-0.503984	-0.521467
65244	9.870171	0.723304	0.166014	0.212363	0.252092	0.079853	0.467229	-0.505760	-0.503962	-0.521465
65245	9.726493	0.731086	0.235050	0.231140	0.311056	-0.063626	0.467528	-0.505462	-0.503798	-0.521645
65246	9.681598	0.785093	0.267097	0.288678	0.331692	-0.105592	0.467594	-0.505403	-0.503469	-0.521960
65247	9.602362	0.760884	0.301211	0.271776	0.359494	-0.186061	0.467450	-0.505664	-0.502948	-0.522338
65248	9.658619	0.760870	0.275657	0.270884	0.329464	-0.129614	0.467090	-0.506177	-0.502244	-0.522841
65249	9.774707	0.708102	0.240143	0.213685	0.293032	-0.016134	0.466544	-0.506820	-0.501362	-0.523552
65250	9.786680	0.662556	0.255072	0.171586	0.304490	-0.006516	0.465845	-0.507602	-0.500261	-0.524469
65251	9.712843	0.669308	0.338242	0.190346	0.380372	-0.080227	0.464974	-0.508539	-0.499080	-0.525458
65252	9.695103	0.704516	0.385998	0.233578	0.421350	-0.096296	0.463893	-0.509717	-0.497763	-0.526521
65253	9.646499	0.824061	0.317522	0.356458	0.340352	-0.138395	0.462576	-0.511209	-0.496095	-0.527805
65254	9.481374	0.835105	0.344195	0.385324	0.359578	-0.302980	0.460973	-0.513023	-0.494105	-0.529312
65255	9.489756	0.756316	0.271830	0.309203	0.290578	-0.298418	0.459029	-0.515171	-0.491951	-0.530919
65256	9.580197	0.772946	0.279135	0.331476	0.296615	-0.207602	0.456855	-0.517547	-0.489671	-0.532589
65257	9.744588	0.704992	0.214352	0.259603	0.242367	-0.046736	0.454419	-0.520159	-0.487251	-0.534344
65258	9.843660	0.633890	0.111304	0.183343	0.151762	0.049117	0.451894	-0.522858	-0.484650	-0.536215
65259	9.845535	0.604520	0.079117	0.160026	0.124113	0.049627	0.449327	-0.525554	-0.481831	-0.538273
65260	9.820241	0.566479	0.139708	0.139591	0.187505	0.022092	0.446672	-0.528222	-0.478916	-0.540467
65261	9.773798	0.447691	0.137613	0.031500	0.198768	-0.029743	0.443959	-0.530876	-0.475931	-0.542735
65262	9.800681	0.373568	0.158880	-0.032842	0.229705	-0.006348	0.441225	-0.533456	-0.473007	-0.544985
65263	9.817267	0.374980	0.141467	-0.029210	0.211307	0.010441	0.438550	-0.535898	-0.470165	-0.547203
65264	9.835009	0.385151	0.092998	-0.023689	0.160319	0.028965	0.435942	-0.538231	-0.467392	-0.549369
65265	9.839827	0.380349	0.074202	-0.028344	0.140702	0.033722	0.433460	-0.540449	-0.464739	-0.551403
65266	9.838527	0.317324	0.108495	-0.080254	0.183639	0.029513	0.431113	-0.542519	-0.462152	-0.553381
65267	9.765262	0.321697	0.083275	-0.074618	0.153724	-0.043268	0.428913	-0.544411	-0.459693	-0.555277
65268	9.735039	0.318749	0.058055	-0.079633	0.125666	-0.073395	0.426835	-0.546138	-0.457421	-0.557056
65269	9.738686	0.333360	0.072209	-0.061552	0.133509	-0.069139	0.424927	-0.547695	-0.455390	-0.558647
65270	9.794434	0.288988	0.044550	-0.112114	0.114158	-0.015196	0.423163	-0.549150	-0.453432	-0.560149
65271	9.803461	0.225588	0.111382	-0.157453	0.191040	-0.009124	0.421584	-0.550489	-0.451658	-0.561456
65272	9.741220	0.138997	0.085564	-0.242959	0.183054	-0.074850	0.420233	-0.551615	-0.450133	-0.562589
65273	9.737813	0.145119	0.075137	-0.237482	0.170132	-0.077886	0.419091	-0.552585	-0.448844	-0.563518
65274	9.760566	0.225162	0.115956	-0.148815	0.189400	-0.051808	0.418164	-0.553403	-0.447715	-0.564301
65275	9.801937	0.295032	0.183298	-0.064059	0.235706	-0.007640	0.417391	-0.554093	-0.446694	-0.565004
65276	9.765801	0.282023	0.209138	-0.066372	0.260015	-0.044262	0.416722	-0.554713	-0.445733	-0.565648
65277	9.762240	0.261625	0.199590	-0.085611	0.252291	-0.048537	0.416132	-0.555281	-0.444864	-0.566210
65278	9.740807	0.196767	0.236783	-0.135301	0.301063	-0.072608	0.415655	-0.555764	-0.444096	-0.566688
65279	9.716548	0.217386	0.266173	-0.104540	0.321238	-0.095934	0.415259	-0.556143	-0.443510	-0.567065
65280	9.701008	0.164805	0.250361	-0.156912	0.317591	-0.113517	0.414953	-0.556445	-0.443088	-0.567323
65281	9.740913	0.188053	0.239455	-0.137047	0.301184	-0.072636	0.414784	-0.556652	-0.442854	-0.567427
65282	9.768025	0.207053	0.150277	-0.140698	0.210580	-0.044595	0.414757	-0.556771	-0.442743	-0.567417
65283	9.807722	0.204828	0.137408	-0.145618	0.199367	-0.004971	0.414853	-0.556791	-0.442760	-0.567314
65284	9.818481	0.225938	0.172425	-0.114827	0.227959	0.006590	0.415073	-0.556701	-0.442898	-0.567132
65285	9.791903	0.242143	0.156544	-0.101018	0.207668	-0.019262	0.415384	-0.556505	-0.443118	-0.566925
65286	9.818795	0.247973	0.174670	-0.091130	0.222840	0.007841	0.415809	-0.556211	-0.443421	-0.566665
65287	9.774232	0.336800	0.244295	0.014564	0.265728	-0.033224	0.416319	-0.555850	-0.443819	-0.566333
65288	9.809454	0.360289	0.254647	0.038800	0.268993	0.002922	0.416820	-0.555486	-0.444210	-0.566016
65289	9.746346	0.342621	0.261848	0.026117	0.278129	-0.060806	0.417276	-0.555159	-0.444524	-0.565755
65290	9.715828	0.317943	0.233684	-0.003568	0.255236	-0.092201	0.417756	-0.554796	-0.444922	-0.565443
65291	9.819604	0.330821	0.291369	0.018887	0.308031	0.011961	0.418305	-0.554359	-0.445407	-0.565084
65292	9.830826	0.392833	0.224004	0.060939	0.225636	0.025758	0.418910	-0.553848	-0.445866	-0.564774
65293	9.759812	0.409731	0.243415	0.083521	0.236281	-0.044460	0.419441	-0.553390	-0.446207	-0.564561
65294	9.726814	0.391371	0.281527	0.075184	0.273522	-0.078065	0.419980	-0.552946	-0.446523	-0.564345
65295	9.718912	0.424661	0.294755	0.109890	0.275063	-0.084546	0.420430	-0.552550	-0.446859	-0.564131
65296	9.691991	0.417458	0.280050	0.098910	0.259936	-0.111655	0.420825	-0.552174	-0.447169	-0.563959
65297	9.689393	0.385814	0.237350	0.056569	0.224693	-0.115479	0.421171	-0.551849	-0.447530	-0.563732
65298	9.685462	0.344568	0.224535	0.012498	0.222107	-0.121051	0.421491	-0.551564	-0.447903	-0.563477
65299	9.715649	0.343717	0.252125	0.016258	0.250236	-0.090925	0.421821	-0.551286	-0.448304	-0.563182
65300	9.717333	0.378825	0.219989	0.042229	0.212407	-0.087896	0.422140	-0.551027	-0.448737	-0.562852
65301	9.724927	0.320158	0.206931	-0.018397	0.216095	-0.082708	0.422475	-0.550762	-0.449233	-0.562463
65302	9.752643	0.286845	0.187595	-0.056426	0.208961	-0.056425	0.422867	-0.550465	-0.449847	-0.561970
65303	9.759451	0.269654	0.205877	-0.069174	0.234924	-0.050413	0.423339	-0.550104	-0.450523	-0.561426
65304	9.776259	0.303949	0.185011	-0.041051	0.211137	-0.032319	0.423806	-0.549765	-0.451195	-0.560866
65305	9.778667	0.311595	0.223665	-0.024634	0.251610	-0.029767	0.424295	-0.549400	-0.451907	-0.560280
65306	9.791808	0.329391	0.190722	-0.015212	0.220040	-0.015967	0.424820	-0.548989	-0.452640	-0.559694
65307	9.759271	0.338344	0.221767	0.001266	0.252086	-0.048289	0.425326	-0.548570	-0.453373	-0.559126
65308	9.813061	0.355235	0.252115	0.021507	0.282372	0.005955	0.425849	-0.548125	-0.454092	-0.558581
65309	9.770073	0.365323	0.249741	0.031469	0.280671	-0.036677	0.426369	-0.547677	-0.454797	-0.558049
65310	9.778458	0.383308	0.238008	0.045244	0.268774	-0.027621	0.426889	-0.547242	-0.455504	-0.557501
65311	9.790247	0.392613	0.237224	0.052918	0.269845	-0.015559	0.427379	-0.546827	-0.456205	-0.556960
65312	9.763117	0.360303	0.217167	0.017151	0.259893	-0.043982	0.427852	-0.546402	-0.456836	-0.556496
65313	9.750114	0.344832	0.243873	0.006601	0.291460	-0.057786	0.428312	-0.545961	-0.457475	-0.556050
65314	9.754754	0.346842	0.221599	0.001671	0.271776	-0.053037	0.428773	-0.545494	-0.458150	-0.555597
65315	9.759371	0.349252	0.199322	-0.003267	0.252085	-0.048289	0.429216	-0.545020	-0.458826	-0.555163
65316	9.782541	0.343197	0.202745	-0.012157	0.259418	-0.025473	0.429707	-0.544506	-0.459540	-0.554696
65317	9.759766	0.404981	0.195095	0.045192	0.241690	-0.045669	0.430185	-0.544027	-0.460228	-0.554225
65318	9.751873	0.441482	0.201444	0.079885	0.243208	-0.052105	0.430620	-0.543539	-0.460912	-0.553798
65319	9.762538	0.469998	0.233034	0.110618	0.271762	-0.040469	0.430951	-0.543141	-0.461529	-0.553417
65320	9.718948	0.431624	0.231093	0.070984	0.280393	-0.085715	0.431199	-0.542762	-0.462139	-0.553086
65321	9.748247	0.341611	0.150890	-0.038020	0.223472	-0.059924	0.431460	-0.542361	-0.462781	-0.552740
65322	9.805096	0.335752	0.086907	-0.062261	0.166112	-0.003063	0.431837	-0.541889	-0.463472	-0.552329
65323	9.840176	0.364103	0.092674	-0.038141	0.169323	0.033129	0.432345	-0.541328	-0.464196	-0.551873
65324	9.816048	0.418054	0.116834	0.017474	0.184259	0.011210	0.432861	-0.540784	-0.464894	-0.551414
65325	9.819401	0.412319	0.127675	0.010790	0.197219	0.014211	0.433354	-0.540233	-0.465542	-0.551021
65326	9.724528	0.365560	0.139450	-0.032604	0.216001	-0.082743	0.433916	-0.539578	-0.466232	-0.550636
65327	9.727487	0.310458	0.152925	-0.088899	0.239301	-0.082394	0.434520	-0.538863	-0.467061	-0.550157
65328	9.720447	0.330457	0.130454	-0.077281	0.213321	-0.088396	0.435251	-0.538086	-0.467882	-0.549642
65329	9.735646	0.358963	0.145492	-0.050931	0.222178	-0.072007	0.436051	-0.537267	-0.468731	-0.549085
65330	9.699826	0.430052	0.168057	0.021265	0.230840	-0.104645	0.436925	-0.536412	-0.469678	-0.548417
65331	9.804895	0.483383	0.190993	0.069965	0.245760	0.002648	0.437830	-0.535528	-0.470644	-0.547730
65332	9.727775	0.476508	0.153582	0.057004	0.208099	-0.074428	0.438725	-0.534613	-0.471564	-0.547117
65333	9.691171	0.421077	0.181427	0.005193	0.242685	-0.113714	0.439605	-0.533742	-0.472452	-0.546494
65334	9.712256	0.476823	0.249216	0.067190	0.299779	-0.090393	0.440509	-0.532877	-0.473350	-0.545832
65335	9.760001	0.516454	0.334462	0.114732	0.377195	-0.041262	0.441429	-0.532003	-0.474222	-0.545185
65336	9.819032	0.466220	0.321294	0.057788	0.370627	0.015500	0.442321	-0.531169	-0.474998	-0.544600
65337	9.859411	0.396783	0.284532	-0.019967	0.342241	0.052851	0.443261	-0.530345	-0.475741	-0.543990
65338	9.853296	0.391385	0.340973	-0.017953	0.394527	0.046365	0.444329	-0.529415	-0.476513	-0.543348
65339	9.846279	0.407017	0.322221	-0.006351	0.368526	0.040376	0.445418	-0.528449	-0.477310	-0.542696
65340	9.839563	0.473928	0.299247	0.054838	0.332156	0.037075	0.446471	-0.527463	-0.478217	-0.541992
65341	9.835979	0.483475	0.290165	0.060322	0.319136	0.034086	0.447464	-0.526483	-0.479148	-0.541303
65342	9.790655	0.508429	0.248435	0.078134	0.271714	-0.009769	0.448440	-0.525493	-0.480078	-0.540632
65343	9.742101	0.566058	0.192071	0.126872	0.206152	-0.055267	0.449372	-0.524552	-0.481003	-0.539950
65344	9.709324	0.604742	0.225063	0.168145	0.232950	-0.086187	0.450235	-0.523694	-0.481880	-0.539281
65345	9.710577	0.612501	0.193041	0.169235	0.200224	-0.084430	0.450992	-0.522916	-0.482699	-0.538671
65346	9.693130	0.576085	0.138249	0.124679	0.150797	-0.103441	0.451677	-0.522187	-0.483517	-0.538070
65347	9.681214	0.544691	0.136587	0.090988	0.154813	-0.116863	0.452280	-0.521505	-0.484377	-0.537452
65348	9.684510	0.539946	0.145392	0.084194	0.167720	-0.113863	0.452857	-0.520868	-0.485258	-0.536789
65349	9.661110	0.524888	0.136529	0.067105	0.165517	-0.138014	0.453401	-0.520297	-0.486168	-0.536059
65350	9.708941	0.516170	0.110082	0.051471	0.147487	-0.090667	0.453905	-0.519769	-0.487123	-0.535277
65351	9.728794	0.516811	0.095965	0.048533	0.141762	-0.070856	0.454417	-0.519288	-0.488081	-0.534436
65352	9.767200	0.511052	0.107666	0.041589	0.163076	-0.032982	0.454938	-0.518795	-0.489048	-0.533587
65353	9.739177	0.496912	0.115319	0.028860	0.180539	-0.061875	0.455452	-0.518287	-0.490038	-0.532733
65354	9.749480	0.451526	0.145582	-0.014946	0.224585	-0.054267	0.455963	-0.517775	-0.491092	-0.531823
65355	9.776530	0.513661	0.145599	0.044284	0.229300	-0.024376	0.456467	-0.517271	-0.492158	-0.530894
65356	9.784728	0.505822	0.127462	0.033116	0.222546	-0.016649	0.456923	-0.516796	-0.493182	-0.530014
65357	9.789415	0.505009	0.097208	0.028023	0.202772	-0.011911	0.457379	-0.516325	-0.494188	-0.529142
65358	9.849977	0.508305	0.037133	0.022255	0.153130	0.049252	0.457889	-0.515833	-0.495154	-0.528277
65359	9.848979	0.554814	0.055852	0.069368	0.175366	0.050262	0.458404	-0.515312	-0.495989	-0.527555
65360	9.850062	0.559936	0.018384	0.070370	0.142657	0.052011	0.458947	-0.514766	-0.496749	-0.526900
65361	9.822116	0.571092	0.028640	0.082444	0.154941	0.024493	0.459451	-0.514226	-0.497436	-0.526340
65362	9.812801	0.552391	0.070399	0.065689	0.199455	0.013658	0.459964	-0.513659	-0.498029	-0.525884
65363	9.780209	0.566745	0.104779	0.082120	0.231456	-0.018589	0.460450	-0.513117	-0.498484	-0.525557
65364	9.761372	0.547856	0.083928	0.060644	0.209536	-0.038027	0.460888	-0.512613	-0.498860	-0.525309
65365	9.751766	0.523786	0.023607	0.030372	0.148218	-0.048009	0.461299	-0.512094	-0.499236	-0.525096
65366	9.755117	0.493689	0.043076	-0.001237	0.166348	-0.046408	0.461723	-0.511563	-0.499562	-0.524932
65367	9.757360	0.484607	0.092747	-0.009753	0.211938	-0.045164	0.462175	-0.511019	-0.499850	-0.524790
65368	9.800382	0.502667	0.094665	0.003586	0.208397	-0.001180	0.462616	-0.510497	-0.500135	-0.524638
65369	9.824709	0.474916	0.077804	-0.028606	0.188195	0.021959	0.463057	-0.509993	-0.500323	-0.524560
65370	9.773337	0.494114	0.092131	-0.008178	0.193187	-0.028345	0.463484	-0.509477	-0.500410	-0.524601
65371	9.787103	0.518846	0.143454	0.016201	0.234667	-0.013615	0.463949	-0.508901	-0.500565	-0.524600
65372	9.854565	0.533525	0.123140	0.022855	0.205773	0.054905	0.464389	-0.508333	-0.500687	-0.524646
65373	9.848747	0.552717	0.075783	0.036109	0.147154	0.050683	0.464782	-0.507804	-0.500626	-0.524867
65374	9.776008	0.544922	0.136788	0.032347	0.195640	-0.022557	0.465169	-0.507268	-0.500510	-0.525154
65375	9.767551	0.606980	0.150335	0.091737	0.191957	-0.027454	0.465505	-0.506766	-0.500282	-0.525558
65376	9.752184	0.657730	0.143609	0.138530	0.167523	-0.039712	0.465665	-0.506388	-0.499883	-0.526160
65377	9.744892	0.598986	0.144831	0.075579	0.157032	-0.049886	0.465734	-0.506067	-0.499417	-0.526850
65378	9.673134	0.546089	0.182187	0.023925	0.183166	-0.124200	0.465719	-0.505818	-0.498985	-0.527512
65379	9.680983	0.539837	0.186084	0.012714	0.176456	-0.116493	0.465645	-0.505655	-0.498663	-0.528037
65380	9.642436	0.523375	0.177112	-0.006409	0.160251	-0.155765	0.465523	-0.505552	-0.498376	-0.528513
65381	9.658702	0.507105	0.169050	-0.028096	0.146805	-0.140360	0.465370	-0.505492	-0.498130	-0.528937
65382	9.691598	0.547008	0.133964	0.003553	0.104371	-0.105302	0.465231	-0.505413	-0.497980	-0.529277
65383	9.739460	0.588938	0.112121	0.037220	0.075966	-0.055160	0.465085	-0.505354	-0.497838	-0.529595
65384	9.706092	0.579781	0.152426	0.028840	0.113159	-0.088801	0.464889	-0.505344	-0.497649	-0.529953
65385	9.722489	0.563325	0.140018	0.007142	0.099775	-0.073400	0.464654	-0.505386	-0.497563	-0.530201
65386	9.748845	0.576984	0.156515	0.016630	0.114880	-0.046219	0.464388	-0.505436	-0.497487	-0.530458
