// General information: 
//  MT Manager version: 2021.0.0 
//  XDA version: 2021.0.0 build 5908 rev 109668 built on 2021-04-19
// Device information: 
//  DeviceId: 00B43DFC
//  ProductCode: MTW2-3A7G6
//  Firmware Version: 4.3.5
//  Hardware Version: 1.1.0
// Device settings: 
//  Filter Profile: human(46.1)
//  Option Flags: Orientation Smoother Disabled, Position/Velocity Smoother Disabled, Continuous Zero Rotation Update Disabled, AHS Disabled, ICC Disabled
// Coordinate system: ENU
PacketCounter	Acc_X	Acc_Y	Acc_Z	FreeAcc_E	FreeAcc_N	FreeAcc_U	Quat_q0	Quat_q1	Quat_q2	Quat_q3
64468	-9.656019	-1.286734	-1.344958	0.031225	0.091593	0.020620	0.290916	0.625159	0.413262	-0.594776
64469	-9.620744	-1.366844	-1.257072	-0.084214	0.069884	-0.014972	0.291051	0.625139	0.413001	-0.594912
64470	-9.678482	-1.227874	-1.132565	-0.025961	-0.110665	0.008233	0.290777	0.625346	0.412536	-0.595151
64471	-9.633525	-1.298807	-1.211288	-0.048776	0.002342	-0.016946	0.290591	0.625506	0.412139	-0.595349
64472	-9.650740	-1.296815	-1.328713	0.014036	0.101576	0.014493	0.290331	0.625689	0.411645	-0.595625
64473	-9.687667	-1.180051	-1.097900	-0.002340	-0.155732	0.006913	0.290031	0.625918	0.411147	-0.595875
64474	-9.699402	-1.196910	-1.165682	0.018852	-0.087666	0.029150	0.290158	0.625836	0.410963	-0.596026
64475	-9.699623	-1.159631	-1.151558	0.044007	-0.112386	0.022908	0.290288	0.625783	0.410696	-0.596202
64476	-9.672399	-1.285534	-1.319587	0.022093	0.105328	0.033003	0.290599	0.625568	0.410521	-0.596397
64477	-9.674116	-1.217514	-1.055060	-0.054474	-0.144687	-0.006561	0.290853	0.625429	0.410249	-0.596606
64478	-9.603717	-1.252438	-1.146086	-0.040809	-0.030509	-0.060206	0.291195	0.625259	0.410197	-0.596654
64479	-9.633525	-1.219100	-1.232651	0.032174	0.026465	-0.024495	0.291427	0.625227	0.410092	-0.596646
64480	-9.627677	-1.274272	-1.411269	0.074066	0.210727	-0.001585	0.291769	0.625126	0.410115	-0.596568
64481	-9.618748	-1.228498	-1.261783	0.034942	0.066597	-0.034346	0.291754	0.625171	0.409810	-0.596738
64482	-9.651283	-1.102874	-1.206766	0.116031	-0.043895	-0.024711	0.292006	0.625013	0.409792	-0.596793
64483	-9.622280	-1.245680	-1.170210	-0.026404	0.005536	-0.039834	0.292238	0.624897	0.409776	-0.596812
64484	-9.658570	-1.181829	-1.215146	0.052268	0.007945	-0.006645	0.292297	0.624914	0.409759	-0.596777
64485	-9.639210	-1.225918	-1.134076	-0.029424	-0.034622	-0.029983	0.292471	0.624876	0.409779	-0.596717
64486	-9.685404	-1.148117	-1.352530	0.150340	0.106530	0.032139	0.292738	0.624744	0.409885	-0.596652
64487	-9.629073	-1.172957	-1.224446	0.058800	0.021648	-0.035662	0.293092	0.624650	0.410007	-0.596492
64488	-9.686726	-1.262497	-1.169859	-0.045766	0.012177	0.025650	0.293441	0.624511	0.410187	-0.596343
64489	-9.664036	-1.204374	-1.173283	0.002647	-0.009224	-0.003477	0.293612	0.624497	0.410286	-0.596205
64490	-9.706973	-1.268126	-1.224324	-0.026030	0.060002	0.052816	0.293892	0.624384	0.410363	-0.596133
64491	-9.638702	-1.155432	-1.204264	0.057392	0.001294	-0.030737	0.293754	0.624450	0.410044	-0.596352
64492	-9.699834	-1.009187	-1.112074	0.139123	-0.157480	0.000456	0.293766	0.624467	0.409926	-0.596409
64493	-9.683560	-1.034687	-1.127134	0.123601	-0.126971	-0.010598	0.293912	0.624419	0.409886	-0.596415
64494	-9.686432	-1.099898	-1.032243	0.018835	-0.173058	-0.011057	0.294274	0.624212	0.410052	-0.596338
64495	-9.695526	-1.183013	-1.105643	-0.015447	-0.067428	0.016880	0.294845	0.623888	0.410398	-0.596157
64496	-9.687985	-1.189312	-1.120060	-0.014129	-0.047313	0.011956	0.295031	0.623765	0.410380	-0.596206
64497	-9.678172	-1.185189	-1.200354	0.030077	0.024184	0.011316	0.295342	0.623562	0.410507	-0.596177
64498	-9.674535	-1.160591	-1.219151	0.061655	0.031510	0.006942	0.295348	0.623500	0.410419	-0.596300
64499	-9.672067	-1.065317	-1.059620	0.064644	-0.147982	-0.025936	0.295435	0.623352	0.410322	-0.596478
64500	-9.629676	-1.104768	-1.190571	0.096451	-0.006044	-0.047479	0.295844	0.623101	0.410555	-0.596378
64501	-9.645157	-1.223405	-1.176171	-0.012438	0.040663	-0.019458	0.296222	0.622863	0.410771	-0.596290
64502	-9.651231	-1.205162	-1.333508	0.083196	0.167305	0.002709	0.296531	0.622644	0.411006	-0.596203
64503	-9.666765	-1.038390	-1.120238	0.120677	-0.099378	-0.027234	0.296485	0.622619	0.411072	-0.596207
64504	-9.687890	-1.137458	-1.046664	-0.000916	-0.116740	-0.002953	0.297053	0.622292	0.411526	-0.595952
64505	-9.618391	-1.258160	-1.366306	0.052204	0.228307	-0.019406	0.297256	0.622138	0.411736	-0.595866
64506	-9.697557	-1.151738	-0.945333	-0.063872	-0.197854	-0.003531	0.297221	0.622152	0.411789	-0.595832
64507	-9.696669	-1.222558	-1.123010	-0.035533	-0.011040	0.024985	0.297413	0.622017	0.411943	-0.595772
64508	-9.713498	-1.137297	-1.020956	-0.012564	-0.142492	0.019270	0.297394	0.622057	0.411883	-0.595781
64509	-9.779543	-1.201461	-1.095264	-0.028064	-0.057231	0.100865	0.297414	0.622067	0.411807	-0.595812
64510	-9.599994	-1.168247	-1.260053	0.075970	0.098580	-0.060922	0.297241	0.622106	0.411541	-0.596042
64511	-9.650921	-1.064838	-1.131593	0.104422	-0.068880	-0.038281	0.297051	0.622210	0.411348	-0.596161
64512	-9.699166	-1.074490	-1.110744	0.088123	-0.088501	0.008031	0.297229	0.622106	0.411376	-0.596162
64513	-9.641169	-1.171669	-1.051313	-0.029199	-0.082325	-0.044239	0.297292	0.622123	0.411539	-0.596000
64514	-9.697535	-1.106084	-1.060376	0.033212	-0.117675	0.004393	0.297504	0.622022	0.411790	-0.595826
64515	-9.692992	-1.197521	-1.253619	0.049534	0.091399	0.033576	0.297687	0.621969	0.412087	-0.595585
64516	-9.711117	-1.191526	-1.043616	-0.050695	-0.095720	0.026160	0.297654	0.621968	0.412058	-0.595623
64517	-9.655355	-1.294431	-1.265995	-0.030133	0.155329	0.009692	0.297725	0.621925	0.412015	-0.595662
64518	-9.661303	-1.169502	-1.127010	0.008153	-0.024876	-0.015852	0.297786	0.621902	0.412051	-0.595630
64519	-9.712357	-1.226833	-1.160699	-0.021954	0.024294	0.045363	0.297738	0.621920	0.411972	-0.595690
64520	-9.695659	-1.092927	-1.126647	0.075479	-0.066533	0.008692	0.297977	0.621810	0.412083	-0.595608
64521	-9.655753	-1.189337	-1.296690	0.075042	0.134653	0.000861	0.298063	0.621777	0.412034	-0.595633
64522	-9.611545	-1.212080	-1.165444	-0.012807	0.041521	-0.055264	0.298059	0.621797	0.411999	-0.595639
64523	-9.668578	-1.192169	-1.164114	0.006161	0.021244	-0.001605	0.297965	0.621864	0.411945	-0.595654
64524	-9.672484	-1.160206	-1.169017	0.036258	0.008493	-0.001049	0.297978	0.621852	0.411993	-0.595626
64525	-9.729221	-1.149335	-1.039084	-0.017276	-0.117084	0.038425	0.298202	0.621745	0.412121	-0.595538
64526	-9.646704	-1.282358	-1.124729	-0.094351	0.035051	-0.016860	0.298431	0.621655	0.412317	-0.595380
64527	-9.687230	-1.173259	-0.972931	-0.075606	-0.156557	-0.007824	0.298383	0.621727	0.412409	-0.595267
64528	-9.699540	-1.180726	-1.173371	0.017879	0.016587	0.028623	0.298626	0.621599	0.412500	-0.595214
64529	-9.642766	-1.200710	-1.283745	0.052975	0.132345	-0.012058	0.298710	0.621540	0.412478	-0.595250
64530	-9.703277	-1.111332	-1.053436	0.018989	-0.116446	0.009963	0.298573	0.621570	0.412249	-0.595445
64531	-9.669412	-1.131708	-1.187079	0.067358	0.015286	-0.005411	0.298672	0.621519	0.412283	-0.595426
64532	-9.717258	-1.037079	-1.089982	0.102252	-0.120276	0.019087	0.299012	0.621347	0.412455	-0.595315
64533	-9.673120	-1.232246	-1.212663	-0.008654	0.089116	0.013310	0.299323	0.621214	0.412623	-0.595181
64534	-9.683450	-1.119915	-1.068914	0.016424	-0.088549	-0.006675	0.299375	0.621198	0.412517	-0.595246
64535	-9.611885	-1.246533	-1.197570	-0.032600	0.097330	-0.047145	0.299576	0.621103	0.412558	-0.595215
64536	-9.630021	-1.302204	-1.402597	0.022068	0.297629	0.001142	0.299176	0.621361	0.412287	-0.595335
64537	-9.655205	-1.016718	-1.174890	0.157358	-0.041291	-0.034620	0.298972	0.621449	0.412024	-0.595527
64538	-9.641318	-1.101971	-1.227676	0.109564	0.048240	-0.031981	0.299141	0.621377	0.412200	-0.595396
64539	-9.667146	-1.089436	-1.110863	0.062322	-0.063628	-0.021535	0.299213	0.621343	0.412377	-0.595272
64540	-9.706288	-1.061031	-1.009316	0.036947	-0.173802	0.001841	0.299281	0.621344	0.412633	-0.595060
64541	-9.742440	-1.215485	-1.082324	-0.059347	-0.044811	0.064480	0.299151	0.621414	0.412648	-0.595043
64542	-9.702609	-1.187505	-1.103510	-0.026377	-0.035579	0.024312	0.299073	0.621462	0.412642	-0.595035
64543	-9.661896	-1.124277	-1.114954	0.031835	-0.051113	-0.022093	0.298997	0.621532	0.412604	-0.595027
64544	-9.686278	-1.147496	-1.165827	0.038043	-0.000880	0.010674	0.298923	0.621576	0.412568	-0.595042
64545	-9.724613	-1.028650	-1.078975	0.099726	-0.141022	0.024008	0.298638	0.621714	0.412456	-0.595120
64546	-9.675521	-1.098274	-1.036921	0.017499	-0.135652	-0.020935	0.298598	0.621677	0.412378	-0.595232
64547	-9.681688	-1.192453	-1.031666	-0.064898	-0.093756	-0.004102	0.298486	0.621706	0.412224	-0.595365
64548	-9.732316	-1.091392	-1.124801	0.071913	-0.070035	0.044503	0.298686	0.621595	0.412344	-0.595298
64549	-9.638227	-1.140341	-1.182520	0.053633	0.018459	-0.035626	0.298693	0.621606	0.412410	-0.595237
64550	-9.690712	-1.049840	-1.100649	0.093564	-0.105109	-0.004339	0.298771	0.621510	0.412533	-0.595211
64551	-9.645501	-1.145915	-1.258457	0.087722	0.084149	-0.018926	0.298715	0.621540	0.412520	-0.595219
64552	-9.649835	-1.158291	-1.145394	0.020112	-0.009064	-0.026350	0.298754	0.621554	0.412668	-0.595081
64553	-9.719002	-1.200884	-1.099546	-0.037586	-0.042009	0.041599	0.298678	0.621635	0.412775	-0.594960
64554	-9.636676	-1.211315	-1.255262	0.026904	0.109401	-0.020047	0.299077	0.621354	0.413070	-0.594849
64555	-9.614960	-1.124253	-1.310540	0.129994	0.117430	-0.045486	0.298602	0.621571	0.412865	-0.595003
64556	-9.744996	-1.010721	-0.969069	0.064557	-0.255378	0.028868	0.298624	0.621553	0.413067	-0.594871
64557	-9.661288	-1.263523	-1.336674	0.025630	0.194081	0.020184	0.298688	0.621462	0.413313	-0.594763
64558	-9.652725	-1.168226	-1.168882	0.024199	0.002665	-0.019550	0.298581	0.621527	0.413345	-0.594726
64559	-9.698734	-1.156685	-1.235787	0.068829	0.044354	0.032302	0.298680	0.621504	0.413590	-0.594531
64560	-9.735859	-1.126396	-1.071330	0.014014	-0.119580	0.045759	0.298661	0.621523	0.413607	-0.594508
64561	-9.664955	-1.277561	-1.117813	-0.096260	0.005083	-0.000260	0.298674	0.621446	0.413662	-0.594544
64562	-9.691724	-1.142500	-1.067892	-0.001450	-0.107491	0.003811	0.298522	0.621482	0.413542	-0.594666
64563	-9.612671	-1.245673	-1.157808	-0.048761	0.031944	-0.050911	0.298439	0.621513	0.413590	-0.594643
64564	-9.696718	-1.127475	-1.229969	0.093601	0.019523	0.026074	0.298104	0.621720	0.413522	-0.594641
64565	-9.705525	-1.041629	-1.165699	0.136523	-0.081991	0.016641	0.297985	0.621763	0.413525	-0.594653
64566	-9.691473	-1.173334	-1.211268	0.045026	0.022387	0.024283	0.297991	0.621749	0.413573	-0.594632
64567	-9.701160	-1.187976	-1.110567	-0.017481	-0.058998	0.023641	0.298020	0.621734	0.413623	-0.594598
64568	-9.661862	-1.206172	-1.231427	0.026019	0.060675	0.001511	0.298127	0.621601	0.413678	-0.594645
64569	-9.677496	-1.202106	-1.178413	0.004931	0.010836	0.010118	0.297920	0.621700	0.413592	-0.594705
64570	-9.669454	-1.209674	-1.086421	-0.047722	-0.064787	-0.007817	0.297814	0.621776	0.413576	-0.594691
64571	-9.671759	-1.259805	-1.250614	-0.008060	0.099528	0.020120	0.297615	0.621823	0.413413	-0.594854
64572	-9.619741	-1.226551	-1.290134	0.039638	0.126519	-0.030524	0.297645	0.621764	0.413420	-0.594896
64573	-9.649801	-1.184484	-1.286326	0.076636	0.097739	-0.006523	0.297356	0.621898	0.413238	-0.595026
64574	-9.696076	-1.078081	-1.035804	0.046694	-0.177566	-0.003746	0.297105	0.622009	0.413067	-0.595155
64575	-9.671269	-1.217347	-1.146723	-0.018989	-0.011284	0.002091	0.296989	0.622112	0.412998	-0.595153
64576	-9.669532	-1.202988	-0.993482	-0.084268	-0.151040	-0.019622	0.296768	0.622280	0.412885	-0.595166
64577	-9.648748	-1.244314	-1.264575	0.014221	0.102694	-0.002740	0.296754	0.622328	0.412949	-0.595078
64578	-9.680075	-1.169238	-1.315278	0.106039	0.103154	0.024946	0.296509	0.622445	0.412756	-0.595213
64579	-9.684763	-1.190992	-1.072122	-0.033608	-0.095657	0.003232	0.296213	0.622594	0.412525	-0.595363
64580	-9.680281	-1.170694	-1.203022	0.051777	0.007498	0.011919	0.295874	0.622691	0.412214	-0.595646
64581	-9.703233	-1.076252	-1.020705	0.044171	-0.197727	0.001172	0.295795	0.622728	0.412106	-0.595721
64582	-9.649984	-1.161197	-1.340094	0.129985	0.126693	-0.002822	0.296003	0.622575	0.412286	-0.595653
64583	-9.716852	-1.107953	-1.135428	0.076052	-0.085513	0.032152	0.295900	0.622635	0.412232	-0.595680
64584	-9.661403	-1.245195	-1.257425	0.016708	0.094511	0.008979	0.296003	0.622555	0.412401	-0.595595
64585	-9.608144	-1.337278	-1.339678	-0.023644	0.217837	-0.022311	0.295771	0.622698	0.412240	-0.595672
64586	-9.666912	-1.236365	-1.178849	-0.014445	0.020537	0.003974	0.295618	0.622768	0.412099	-0.595772
64587	-9.660510	-1.258650	-1.240366	-0.002177	0.084710	0.007749	0.295477	0.622831	0.412042	-0.595815
64588	-9.624295	-1.209925	-1.247897	0.042777	0.071604	-0.033052	0.295258	0.622929	0.411973	-0.595870
64589	-9.610748	-1.217300	-1.253728	0.039243	0.079684	-0.044769	0.295055	0.623043	0.411990	-0.595839
64590	-9.631641	-1.194957	-1.253945	0.059345	0.061193	-0.026905	0.294796	0.623203	0.412008	-0.595788
64591	-9.655201	-1.220573	-1.306980	0.065381	0.111504	0.005877	0.294565	0.623327	0.411952	-0.595811
64592	-9.713206	-1.178856	-1.233215	0.066710	0.015027	0.048967	0.294223	0.623550	0.411819	-0.595838
64593	-9.678858	-1.103806	-1.057132	0.040379	-0.170049	-0.015460	0.294043	0.623644	0.411836	-0.595817
64594	-9.669514	-1.227794	-1.135082	-0.028125	-0.044059	0.000194	0.294148	0.623638	0.412098	-0.595590
64595	-9.680542	-1.246582	-1.210183	-0.007369	0.024145	0.022493	0.294187	0.623644	0.412294	-0.595429
64596	-9.618258	-1.245181	-1.346247	0.058893	0.147495	-0.022462	0.294243	0.623615	0.412454	-0.595321
64597	-9.629513	-1.273361	-1.291800	0.007485	0.110208	-0.014447	0.293966	0.623769	0.412414	-0.595324
64598	-9.666196	-1.237413	-1.366385	0.078895	0.147284	0.026297	0.293791	0.623814	0.412376	-0.595389
64599	-9.647724	-1.205033	-1.238904	0.041781	0.022887	-0.011499	0.293443	0.624045	0.412252	-0.595405
64600	-9.680296	-1.181458	-1.045121	-0.035810	-0.163007	-0.006139	0.293409	0.624131	0.412332	-0.595276
64601	-9.703867	-1.242827	-1.217643	-0.001342	0.007674	0.045926	0.293391	0.624161	0.412458	-0.595167
64602	-9.710648	-1.174007	-1.056341	-0.024345	-0.167092	0.024097	0.293277	0.624249	0.412412	-0.595163
64603	-9.718934	-1.248905	-1.150741	-0.040941	-0.052000	0.053278	0.293248	0.624292	0.412393	-0.595144
64604	-9.689906	-1.260422	-1.206093	-0.023615	0.005896	0.032972	0.293052	0.624363	0.412199	-0.595300
64605	-9.665928	-1.181757	-1.181399	0.031938	-0.049597	-0.003562	0.292779	0.624480	0.411971	-0.595470
64606	-9.633891	-1.194401	-1.285226	0.073687	0.050206	-0.020736	0.292455	0.624657	0.411708	-0.595625
64607	-9.730975	-1.249671	-1.254898	0.015751	0.035545	0.078056	0.292407	0.624693	0.411587	-0.595695
64608	-9.577261	-1.241485	-1.421096	0.101104	0.200454	-0.053880	0.292364	0.624691	0.411470	-0.595799
64609	-9.685926	-1.099882	-1.139052	0.084201	-0.127126	0.000625	0.292509	0.624609	0.411559	-0.595753
64610	-9.656149	-1.281294	-1.224487	-0.030210	0.041826	0.004625	0.292812	0.624466	0.411743	-0.595627
64611	-9.635937	-1.328421	-1.253665	-0.057921	0.094397	-0.005782	0.292967	0.624404	0.411828	-0.595556
64612	-9.561718	-1.459931	-1.491758	-0.053890	0.375878	-0.033168	0.293080	0.624349	0.411866	-0.595533
64613	-9.597350	-1.184251	-1.216213	0.044660	-0.002207	-0.066470	0.292681	0.624577	0.411640	-0.595646
64614	-9.641720	-1.206316	-1.230246	0.034495	0.010207	-0.018293	0.292643	0.624646	0.411749	-0.595517
64615	-9.656289	-1.204137	-1.291772	0.067173	0.056043	0.003365	0.292497	0.624773	0.411741	-0.595461
64616	-9.643150	-1.218117	-1.171378	-0.008576	-0.041480	-0.022668	0.292447	0.624881	0.411940	-0.595235
64617	-9.677920	-1.167984	-1.205027	0.051699	-0.048406	0.009400	0.292319	0.624971	0.412050	-0.595126
64618	-9.710203	-1.136037	-1.140074	0.046183	-0.128733	0.029044	0.292403	0.624981	0.412261	-0.594928
64619	-9.677335	-1.270102	-1.176598	-0.054025	-0.028552	0.018112	0.292481	0.625002	0.412441	-0.594743
64620	-9.737971	-1.229055	-1.164830	-0.023220	-0.071143	0.071132	0.292499	0.625003	0.412501	-0.594692
64621	-9.637477	-1.241045	-1.198718	-0.021321	-0.019314	-0.022016	0.292617	0.624946	0.412577	-0.594641
64622	-9.645025	-1.224172	-1.309959	0.049230	0.066161	-0.002780	0.292730	0.624927	0.412641	-0.594561
64623	-9.674570	-1.201618	-1.272384	0.049932	0.017892	0.018760	0.292786	0.624910	0.412688	-0.594518
64624	-9.658415	-1.179875	-1.188673	0.024108	-0.062376	-0.010363	0.293029	0.624822	0.412982	-0.594288
64625	-9.672321	-1.280596	-1.324947	0.004981	0.098995	0.033092	0.293210	0.624774	0.413248	-0.594063
64626	-9.634550	-1.216871	-1.290504	0.038736	0.041846	-0.016388	0.293058	0.624934	0.413239	-0.593977
64627	-9.621913	-1.201008	-1.331566	0.071504	0.069338	-0.025615	0.293121	0.624915	0.413304	-0.593921
64628	-9.623556	-1.316417	-1.341734	-0.023046	0.133284	-0.008212	0.293013	0.624981	0.413334	-0.593883
64629	-9.693150	-1.164205	-1.237197	0.058208	-0.044999	0.027932	0.292871	0.625059	0.413309	-0.593889
64630	-9.602725	-1.216829	-1.308552	0.044520	0.055431	-0.045382	0.292947	0.625042	0.413479	-0.593751
64631	-9.669069	-1.130789	-1.208539	0.070156	-0.085761	-0.003616	0.292872	0.625097	0.413514	-0.593705
64632	-9.658698	-1.137268	-1.165675	0.042120	-0.119682	-0.018479	0.292907	0.625063	0.413715	-0.593584
64633	-9.676372	-1.207171	-1.306025	0.053300	0.029153	0.025577	0.293042	0.624986	0.413947	-0.593436
64634	-9.671227	-1.205061	-1.294357	0.048337	0.017035	0.018769	0.293143	0.624926	0.414177	-0.593290
64635	-9.674193	-1.195349	-1.266221	0.041941	-0.015129	0.016870	0.293159	0.624920	0.414392	-0.593138
64636	-9.657145	-1.212925	-1.303183	0.044432	0.024968	0.007054	0.293119	0.624922	0.414521	-0.593065
64637	-9.625734	-1.222204	-1.299100	0.032382	0.028976	-0.023188	0.293285	0.624847	0.414807	-0.592863
64638	-9.639098	-1.194973	-1.333970	0.072213	0.040441	-0.008974	0.293486	0.624789	0.415117	-0.592606
64639	-9.635725	-1.179235	-1.230301	0.031818	-0.057634	-0.027643	0.293456	0.624840	0.415175	-0.592528
64640	-9.630624	-1.176531	-1.219148	0.026873	-0.069745	-0.034452	0.293430	0.624928	0.415221	-0.592415
64641	-9.708229	-1.221385	-1.138561	-0.050439	-0.132678	0.037067	0.293339	0.625016	0.415255	-0.592343
64642	-9.651334	-1.275958	-1.151219	-0.094851	-0.087985	-0.010398	0.293400	0.625019	0.415451	-0.592172
64643	-9.692824	-1.229757	-1.258106	-0.000574	-0.028952	0.038461	0.293551	0.624936	0.415697	-0.592012
64644	-9.680038	-1.158086	-1.324812	0.094048	-0.006394	0.025531	0.293489	0.624954	0.415745	-0.591991
64645	-9.706002	-1.087122	-1.172173	0.079978	-0.177219	0.022174	0.293401	0.625008	0.415703	-0.592007
64646	-9.627357	-1.176193	-1.168363	-0.003201	-0.123913	-0.044416	0.293525	0.624992	0.415820	-0.591880
64647	-9.642570	-1.206691	-1.237926	0.003990	-0.053529	-0.016523	0.293793	0.624907	0.416117	-0.591628
64648	-9.628800	-1.226892	-1.399014	0.064962	0.094442	-0.006406	0.293776	0.624944	0.416218	-0.591527
64649	-9.679318	-1.203374	-1.324211	0.049692	0.008240	0.030498	0.293778	0.624919	0.416314	-0.591484
64650	-9.708000	-1.215190	-1.233462	-0.004179	-0.069391	0.048273	0.293909	0.624793	0.416487	-0.591431
64651	-9.656871	-1.306583	-1.266097	-0.069191	0.011952	0.013827	0.294078	0.624716	0.416634	-0.591324
64652	-9.627354	-1.316811	-1.322845	-0.051971	0.069872	-0.006451	0.294015	0.624797	0.416623	-0.591278
64653	-9.564081	-1.257809	-1.483129	0.075983	0.188402	-0.055017	0.293782	0.624957	0.416424	-0.591365
64654	-9.622161	-1.135790	-1.408473	0.146695	0.052565	-0.023126	0.293495	0.625130	0.416358	-0.591371
64655	-9.702239	-1.148106	-1.270903	0.070532	-0.076933	0.039007	0.293328	0.625228	0.416401	-0.591320
64656	-9.666669	-1.246005	-1.236542	-0.033566	-0.055469	0.011866	0.293406	0.625210	0.416614	-0.591150
64657	-9.653538	-1.230308	-1.279562	-0.000778	-0.027911	0.002655	0.293434	0.625255	0.416879	-0.590902
64658	-9.716999	-1.251020	-1.367254	0.026687	0.042342	0.079329	0.293404	0.625277	0.416960	-0.590836
64659	-9.705846	-1.244138	-1.278990	-0.012303	-0.035756	0.055733	0.293359	0.625313	0.416938	-0.590836
64660	-9.665134	-1.297864	-1.409471	0.005139	0.108722	0.039928	0.293410	0.625234	0.417059	-0.590808
64661	-9.682742	-1.200764	-1.263361	0.017916	-0.066689	0.025435	0.293303	0.625242	0.416979	-0.590909
64662	-9.640415	-1.206422	-1.339552	0.049788	0.009103	-0.005298	0.293443	0.625173	0.417090	-0.590835
64663	-9.602462	-1.281066	-1.387176	0.006442	0.092059	-0.026771	0.293478	0.625192	0.417202	-0.590717
64664	-9.577514	-1.178085	-1.339265	0.069423	0.002342	-0.070744	0.293229	0.625368	0.417191	-0.590663
64665	-9.600151	-1.146780	-1.420065	0.137132	0.047688	-0.041633	0.293108	0.625457	0.417325	-0.590534
64666	-9.620947	-1.191306	-1.376868	0.077404	0.024390	-0.021313	0.293020	0.625497	0.417478	-0.590428
64667	-9.652138	-1.208528	-1.412928	0.081957	0.054575	0.016401	0.293136	0.625380	0.417798	-0.590268
64668	-9.699510	-1.185525	-1.386519	0.091133	0.010248	0.056455	0.293302	0.625227	0.418074	-0.590152
64669	-9.662051	-1.143857	-1.313424	0.088768	-0.066483	0.004462	0.293768	0.624950	0.418549	-0.589877
64670	-9.573934	-1.311286	-1.456039	0.009504	0.151740	-0.041474	0.294113	0.624756	0.418947	-0.589628
64671	-9.667090	-1.321077	-1.486640	0.019496	0.164007	0.055478	0.294245	0.624641	0.419244	-0.589473
64672	-9.656403	-1.237489	-1.459770	0.078747	0.100580	0.030692	0.294156	0.624641	0.419296	-0.589480
64673	-9.600102	-1.186642	-1.331146	0.056992	-0.024234	-0.048560	0.294334	0.624530	0.419409	-0.589429
64674	-9.644394	-1.368901	-1.455426	-0.037978	0.162444	0.035087	0.294677	0.624310	0.419764	-0.589237
64675	-9.680433	-1.258040	-1.337612	0.001412	0.000903	0.040366	0.294783	0.624205	0.419967	-0.589151
64676	-9.671960	-1.153902	-1.406640	0.126218	0.011151	0.028089	0.294863	0.624109	0.420087	-0.589127
64677	-9.571067	-1.260249	-1.594500	0.123410	0.242289	-0.031990	0.294950	0.623982	0.420167	-0.589161
64678	-9.616119	-1.383862	-1.570656	0.007668	0.274261	0.024817	0.294863	0.624006	0.420022	-0.589283
64679	-9.605980	-1.298906	-1.541589	0.066996	0.210880	0.000037	0.294856	0.624031	0.420023	-0.589259
64680	-9.665103	-1.138565	-1.282540	0.080750	-0.099286	0.002560	0.294793	0.624060	0.419960	-0.589304
64681	-9.676894	-1.131210	-1.216595	0.055046	-0.161408	0.004285	0.295016	0.623925	0.420168	-0.589188
64682	-9.664087	-1.275969	-1.366965	0.003022	0.040531	0.030565	0.295421	0.623631	0.420485	-0.589070
64683	-9.651635	-1.224454	-1.392483	0.061224	0.043623	0.015166	0.295727	0.623338	0.420585	-0.589154
64684	-9.647436	-1.232583	-1.355594	0.038096	0.021670	0.007089	0.296069	0.623036	0.420697	-0.589223
64685	-9.688099	-1.250926	-1.348655	0.023129	0.021934	0.048445	0.296052	0.622950	0.420515	-0.589452
64686	-9.685248	-1.213139	-1.209355	-0.009755	-0.110642	0.022247	0.296221	0.622738	0.420467	-0.589625
64687	-9.692185	-1.220428	-1.452104	0.106601	0.105217	0.062233	0.296499	0.622429	0.420621	-0.589703
64688	-9.639480	-1.071163	-1.475586	0.248781	0.068795	-0.005665	0.296873	0.622043	0.420779	-0.589808
64689	-9.594937	-1.142082	-1.549935	0.224794	0.181616	-0.030768	0.297478	0.621511	0.421050	-0.589872
64690	-9.584744	-1.251522	-1.574063	0.144735	0.263087	-0.023861	0.297563	0.621281	0.420955	-0.590138
64691	-9.633315	-1.307124	-1.368478	0.002320	0.107982	0.004156	0.297587	0.621114	0.420933	-0.590318
64692	-9.590235	-1.347132	-1.389685	-0.020553	0.154326	-0.030338	0.297330	0.621135	0.420799	-0.590521
64693	-9.603104	-1.298598	-1.392491	0.026511	0.131580	-0.023562	0.297172	0.621164	0.420686	-0.590650
64694	-9.566487	-1.387654	-1.483754	-0.006132	0.258650	-0.036295	0.297011	0.621186	0.420650	-0.590733
64695	-9.641702	-1.287996	-1.381274	0.036775	0.107308	0.011589	0.296366	0.621465	0.420336	-0.590987
64696	-9.733540	-1.219718	-1.235776	0.033535	-0.069589	0.074207	0.295745	0.621651	0.420000	-0.591342
64697	-9.699951	-1.287182	-1.140493	-0.069513	-0.114750	0.037623	0.295289	0.621812	0.419715	-0.591602
64698	-9.644635	-1.391397	-1.204271	-0.128765	-0.001456	0.005085	0.294922	0.621989	0.419497	-0.591755
64699	-9.678177	-1.355397	-1.326160	-0.033453	0.077970	0.049144	0.294308	0.622297	0.419103	-0.592015
64700	-9.675332	-1.231058	-1.271926	0.050169	-0.029930	0.023060	0.293780	0.622511	0.418753	-0.592301
64701	-9.647213	-1.348816	-1.353595	-0.009194	0.101501	0.021430	0.293376	0.622651	0.418424	-0.592585
64702	-9.686023	-1.331497	-1.168240	-0.081101	-0.072736	0.033370	0.292802	0.622870	0.418022	-0.592923
64703	-9.628983	-1.197435	-1.228704	0.067208	-0.076931	-0.032583	0.292160	0.623026	0.417665	-0.593328
64704	-9.685299	-0.982288	-0.934436	0.114148	-0.445896	-0.043797	0.291200	0.623369	0.417130	-0.593815
64705	-9.659322	-1.022382	-0.968630	0.099681	-0.395565	-0.059759	0.290884	0.623438	0.417063	-0.593945
64706	-9.769776	-1.150922	-1.127211	0.076770	-0.219768	0.086280	0.290588	0.623539	0.417012	-0.594020
64707	-9.723563	-1.209798	-1.053662	-0.011483	-0.247139	0.039231	0.290493	0.623503	0.417013	-0.594102
64708	-9.739327	-1.171785	-0.990916	-0.006912	-0.321655	0.041549	0.290436	0.623401	0.417005	-0.594243
64709	-9.707548	-1.129039	-1.116988	0.096179	-0.226498	0.020843	0.290533	0.623139	0.417003	-0.594472
64710	-9.708370	-1.149956	-0.964906	0.006345	-0.342200	0.005089	0.290576	0.622919	0.417013	-0.594674
64711	-9.701542	-1.191347	-1.175894	0.082535	-0.137853	0.030896	0.290470	0.622719	0.416996	-0.594948
64712	-9.695667	-1.044014	-1.139838	0.197799	-0.238021	0.000537	0.290194	0.622585	0.416904	-0.595287
64713	-9.518204	-1.130764	-1.262595	0.181963	-0.059361	-0.146647	0.289989	0.622470	0.416981	-0.595453
64714	-9.525060	-1.211509	-1.354360	0.164694	0.055568	-0.117400	0.289824	0.622319	0.417148	-0.595574
64715	-9.598070	-1.228137	-1.310500	0.137353	0.009773	-0.048994	0.289663	0.622175	0.417479	-0.595571
64716	-9.803994	-1.177949	-1.139073	0.110354	-0.202667	0.124621	0.289648	0.621924	0.417947	-0.595513
64717	-9.689738	-1.234305	-1.185802	0.083165	-0.118280	0.025999	0.290130	0.621437	0.418715	-0.595247
64718	-9.620997	-1.510917	-1.425761	-0.035714	0.231131	0.027259	0.290472	0.621047	0.419372	-0.595024
64719	-9.554832	-1.532060	-1.462322	-0.035380	0.281132	-0.030044	0.290179	0.620970	0.419507	-0.595153
64720	-9.564325	-1.426921	-1.370594	0.015542	0.145572	-0.046956	0.289731	0.620989	0.419568	-0.595308
64721	-9.681977	-1.341003	-1.347431	0.091000	0.058453	0.053560	0.289381	0.620917	0.419671	-0.595480
64722	-9.580964	-1.497972	-1.415791	-0.009209	0.208159	-0.014737	0.289116	0.620766	0.419839	-0.595648
64723	-9.615318	-1.449963	-1.273213	-0.031206	0.051385	-0.005844	0.288562	0.620841	0.419962	-0.595752
64724	-9.664808	-1.335858	-1.345771	0.112617	0.041772	0.035648	0.287963	0.620935	0.419963	-0.595944
64725	-9.663949	-1.334216	-1.364758	0.130672	0.051545	0.036925	0.287329	0.620984	0.419914	-0.596233
64726	-9.676829	-1.345155	-1.231747	0.062718	-0.062501	0.034130	0.286684	0.621063	0.419649	-0.596647
64727	-9.610190	-1.466917	-1.119306	-0.095705	-0.089235	-0.027836	0.286167	0.621082	0.419595	-0.596914
64728	-9.642021	-1.470354	-1.186314	-0.054940	-0.039338	0.012448	0.285537	0.621115	0.419423	-0.597301
64729	-9.661674	-1.459147	-1.292529	0.018614	0.038343	0.043573	0.284824	0.621187	0.419293	-0.597659
64730	-9.666142	-1.374030	-1.150353	0.028493	-0.128972	0.017273	0.284208	0.621162	0.419169	-0.598065
64731	-9.584188	-1.341658	-1.091596	0.029165	-0.183729	-0.075456	0.283844	0.621053	0.419393	-0.598194
64732	-9.609395	-1.373427	-1.093487	0.010630	-0.175473	-0.045826	0.284030	0.620672	0.419980	-0.598089
64733	-9.494875	-1.513002	-1.202503	-0.056859	0.001964	-0.123281	0.284034	0.620474	0.420548	-0.597893
64734	-9.628894	-1.543502	-1.012779	-0.168076	-0.177665	-0.011468	0.283852	0.620424	0.421029	-0.597693
64735	-9.713393	-1.514537	-1.092186	-0.095210	-0.149986	0.076960	0.283787	0.620317	0.421676	-0.597378
64736	-9.627105	-1.371595	-1.002127	-0.022848	-0.290059	-0.041197	0.283915	0.620150	0.422366	-0.597004
64737	-9.484690	-1.375869	-1.028529	-0.024295	-0.248349	-0.176923	0.284264	0.620020	0.423255	-0.596342
64738	-9.444846	-1.279101	-1.041510	0.059726	-0.287733	-0.229390	0.284280	0.620041	0.423898	-0.595856
64739	-9.509187	-1.202622	-1.171913	0.192375	-0.236648	-0.161195	0.284982	0.619682	0.425154	-0.594999
64740	-9.634347	-1.287253	-1.169791	0.120836	-0.231502	-0.026071	0.286090	0.619201	0.426607	-0.593926
64741	-9.642238	-1.307176	-1.000013	0.011882	-0.377399	-0.038287	0.287581	0.618516	0.428286	-0.592711
64742	-9.692320	-1.582419	-1.096895	-0.185705	-0.179925	0.065644	0.289671	0.617582	0.430230	-0.591258
64743	-9.544199	-1.905026	-1.222942	-0.429186	0.103900	-0.013635	0.291880	0.616676	0.432005	-0.589822
64744	-9.597986	-1.999091	-1.103323	-0.581166	0.029031	0.035988	0.293499	0.616167	0.433294	-0.588602
64745	-9.579305	-1.955788	-1.205257	-0.510957	0.096582	0.024508	0.294935	0.615766	0.434354	-0.587522
64746	-9.512932	-2.036869	-1.427216	-0.497875	0.335714	0.001641	0.296491	0.615382	0.435416	-0.586354
64747	-9.503324	-1.948198	-1.501022	-0.403363	0.358761	-0.011143	0.297640	0.615255	0.436118	-0.585382
64748	-9.485390	-1.903762	-1.428714	-0.415197	0.276150	-0.045933	0.298300	0.615429	0.436399	-0.584654
64749	-9.426861	-1.895970	-1.568366	-0.363050	0.402164	-0.085066	0.299182	0.615503	0.436921	-0.583735
64750	-9.462392	-1.887759	-1.586534	-0.364680	0.400176	-0.049266	0.300049	0.615747	0.437621	-0.582507
64751	-9.581757	-1.816022	-1.588921	-0.314670	0.337552	0.057453	0.301032	0.615892	0.438390	-0.581267
64752	-9.464016	-2.010234	-1.535874	-0.538358	0.391609	-0.039033	0.301790	0.616129	0.438823	-0.580295
64753	-9.349738	-2.202214	-1.670453	-0.675295	0.607896	-0.105363	0.302925	0.616243	0.439661	-0.578946
64754	-9.343660	-2.158030	-1.882510	-0.561905	0.765707	-0.086288	0.303624	0.616477	0.440293	-0.577850
64755	-9.296831	-1.797212	-1.640660	-0.372316	0.391083	-0.217835	0.304124	0.616871	0.441169	-0.576497
64756	-9.445371	-1.652523	-1.696726	-0.230381	0.329694	-0.083201	0.304922	0.616971	0.442462	-0.574976
64757	-9.265622	-1.333708	-1.575066	-0.029207	0.099537	-0.320558	0.305826	0.617034	0.444204	-0.573082
64758	-9.410071	-0.856198	-1.678106	0.432146	-0.065551	-0.225851	0.307054	0.616684	0.446479	-0.571031
64759	-9.322334	-0.728592	-1.388159	0.400026	-0.377700	-0.375473	0.309486	0.615458	0.449695	-0.568510
64760	-9.392008	-1.079909	-1.365365	0.059370	-0.287736	-0.265235	0.312875	0.613692	0.453876	-0.565232
64761	-9.333214	-1.335131	-1.712323	-0.054623	0.111754	-0.231043	0.316631	0.611683	0.458492	-0.561581
64762	-9.705648	-0.675955	-1.574904	0.486126	-0.371378	0.024106	0.319210	0.610445	0.462375	-0.558275
64763	-9.733781	-0.108172	-0.830436	0.699378	-1.281454	-0.152638	0.322972	0.608541	0.466464	-0.554778
64764	-9.681524	-0.623449	-1.035756	0.282218	-0.913360	-0.102927	0.328164	0.605752	0.472236	-0.549879
64765	-9.853261	-0.879613	-1.506979	0.201051	-0.455021	0.181506	0.332092	0.603512	0.476972	-0.545881
64766	-9.929824	-0.090363	-1.413909	0.890894	-0.847720	0.142023	0.333808	0.602773	0.480364	-0.542667
64767	-10.111772	0.459184	-0.916100	1.230647	-1.559018	0.154902	0.334593	0.602753	0.482936	-0.539915
64768	-10.083369	0.527577	-0.677474	1.197885	-1.834549	0.067139	0.335443	0.602883	0.485731	-0.536726
64769	-10.030408	0.071333	-0.697508	0.752356	-1.711924	0.066770	0.336235	0.603127	0.488866	-0.533098
64770	-10.182617	-0.215616	-0.310117	0.345036	-2.082336	0.155899	0.335661	0.604025	0.491629	-0.529893
64771	-10.504347	0.392085	0.421835	0.690140	-3.091107	0.219322	0.333708	0.605487	0.493554	-0.527663
64772	-10.824111	0.762220	0.835408	0.922214	-3.730496	0.369298	0.332411	0.606038	0.495791	-0.525749
64773	-10.698106	0.504877	0.720283	0.721129	-3.568052	0.285429	0.331104	0.606089	0.497486	-0.524914
64774	-10.411198	0.263095	0.476008	0.577236	-3.235192	0.081201	0.329303	0.606034	0.498653	-0.525002
64775	-10.279028	0.363027	0.134007	0.802384	-2.945584	0.010128	0.326516	0.606201	0.498943	-0.526274
64776	-10.143065	0.393921	-0.228698	0.976156	-2.606931	-0.048461	0.323709	0.606117	0.498722	-0.528310
64777	-10.356986	-0.076776	-0.984964	0.832429	-1.839459	0.393510	0.320955	0.605896	0.498047	-0.530875
64778	-10.940372	-0.241500	-0.926288	0.740123	-1.983511	0.963475	0.319430	0.605080	0.496562	-0.534105
64779	-11.367457	-0.252338	-0.363469	0.611618	-2.544811	1.258169	0.321828	0.602316	0.495700	-0.536586
64780	-12.141917	-0.594813	0.679911	0.036332	-3.475559	1.856044	0.329417	0.596752	0.496663	-0.537306
64781	-12.270744	-1.078117	1.535581	-0.625463	-3.984659	1.926939	0.341285	0.588504	0.498448	-0.537343
64782	-11.893146	-0.711090	2.242452	-0.431272	-4.452175	1.455300	0.354706	0.578864	0.499981	-0.537697
64783	-12.380938	-1.699918	3.328028	-1.532279	-5.081466	1.980352	0.369159	0.568135	0.500293	-0.539121
64784	-11.245430	-1.935320	2.899682	-1.635108	-4.127794	1.090988	0.381431	0.557447	0.496675	-0.545047
64785	-10.276772	-0.206702	-1.116813	0.963295	-0.212248	0.479230	0.387340	0.552481	0.489708	-0.552195
64786	-10.868411	2.252141	-4.114358	4.128828	2.340877	1.031064	0.394297	0.547265	0.480393	-0.560583
64787	-9.210570	1.241946	-7.650987	3.863825	6.475390	-0.429690	0.404678	0.537457	0.474226	-0.567878
64788	-8.857479	1.192380	-3.611568	2.837730	2.899664	-1.069051	0.415057	0.525939	0.471490	-0.573422
64789	-10.092407	3.061935	-2.560953	4.538764	1.741326	-0.109614	0.428177	0.514039	0.475384	-0.571348
64790	-10.571762	3.399567	-3.448966	5.008206	2.886391	0.276358	0.444083	0.500404	0.482330	-0.565458
64791	-10.353654	2.347435	-3.861204	3.862752	3.768004	0.111507	0.459351	0.487415	0.489858	-0.558088
64792	-9.849749	1.276915	-3.584262	2.545851	3.828892	-0.307576	0.474085	0.474793	0.497720	-0.549627
64793	-9.053910	0.953961	-2.988829	1.939734	3.392256	-1.063832	0.487924	0.462767	0.505368	-0.540722
64794	-8.423416	0.871086	-2.474965	1.638917	2.984001	-1.673595	0.501937	0.449257	0.514303	-0.530773
64795	-8.117936	0.299832	-2.317077	0.910382	2.899944	-1.931125	0.516262	0.433569	0.525316	-0.519168
64796	-8.296056	-0.719555	-2.454210	-0.231178	3.027769	-1.679851	0.530479	0.416542	0.536884	-0.506795
64797	-8.581704	-1.243654	-2.361113	-0.835335	2.898373	-1.347011	0.543077	0.400630	0.547531	-0.494745
64798	-9.144689	-1.737420	-2.032904	-1.309027	2.513454	-0.716269	0.554397	0.385963	0.557230	-0.482879
64799	-9.152805	-2.438590	-2.217261	-2.119571	2.470987	-0.645503	0.564857	0.371836	0.566383	-0.471046
64800	-8.978620	-2.682650	-1.561036	-2.252331	1.666575	-0.735380	0.575335	0.357154	0.575844	-0.458077
64801	-8.740832	-3.078950	-1.251748	-2.583047	1.102731	-0.893093	0.586681	0.340086	0.586515	-0.442885
64802	-8.275283	-3.633268	-1.526257	-3.256280	0.936763	-1.296423	0.597877	0.321941	0.597230	-0.426865
64803	-7.823621	-3.837648	-0.926215	-3.202958	0.087827	-1.656363	0.605168	0.308150	0.606169	-0.413974
64804	-8.017099	-3.098816	1.129743	-1.487416	-1.476493	-1.400877	0.609676	0.296474	0.614965	-0.402761
64805	-8.782408	-2.626865	2.085326	-0.386045	-2.050861	-0.646359	0.613130	0.284118	0.625037	-0.390740
64806	-10.294410	-2.764175	2.331934	-0.026036	-2.215157	0.870985	0.617707	0.268412	0.636536	-0.375785
64807	-10.628122	-2.649121	2.564855	0.464086	-2.350169	1.178687	0.623645	0.251654	0.647218	-0.358951
64808	-10.152932	-2.151271	2.201554	0.754568	-1.854979	0.605808	0.628529	0.239443	0.654959	-0.344451
64809	-10.405956	-0.169390	2.374751	2.448190	-0.727201	0.552127	0.629640	0.238100	0.657571	-0.338323
64810	-9.996391	3.563580	2.514838	5.263613	1.469127	-0.374160	0.628766	0.244788	0.655977	-0.338270
64811	-11.324342	1.455476	1.502609	3.094034	0.961505	1.238060	0.635866	0.232196	0.663197	-0.319262
64812	-9.517166	-7.138978	-6.233890	-8.613192	0.278452	0.488559	0.645172	0.211374	0.670151	-0.299955
64813	-7.429248	-6.556429	-8.326426	-9.899844	1.649091	-1.640606	0.643159	0.210272	0.672310	-0.300219
64814	-9.453404	-0.085753	-3.247120	-1.552105	3.085853	-0.432641	0.638894	0.208304	0.676798	-0.300614
64815	-10.044212	2.064587	-0.558580	2.002231	2.873671	-0.159000	0.638069	0.200826	0.683198	-0.292879
64816	-10.528114	-1.372420	-0.776770	-0.298957	0.446286	0.819236	0.641642	0.183852	0.692899	-0.272735
64817	-9.189167	-5.513308	-3.825548	-5.274192	-1.236202	0.193171	0.644559	0.170725	0.699877	-0.256063
64818	-8.954092	-5.043980	-1.645643	-3.145021	-2.389424	-0.183466	0.643239	0.166096	0.705346	-0.247272
64819	-9.850895	-3.955650	-0.991902	-1.770694	-1.922524	0.523549	0.639810	0.165106	0.710169	-0.242987
64820	-9.885421	-1.685368	-0.233897	0.201152	-0.554967	0.200686	0.636338	0.167917	0.712570	-0.243151
64821	-9.940209	0.223979	-0.193051	1.359950	0.940668	-0.006544	0.633495	0.170926	0.714034	-0.244182
64822	-10.120843	1.756633	-0.464257	2.071176	2.318954	-0.011404	0.631450	0.172363	0.715466	-0.244275
64823	-9.993385	2.355812	-1.474450	1.593462	3.353596	-0.127346	0.630832	0.170591	0.717370	-0.241517
64824	-9.546906	2.124479	-2.391839	0.641734	3.639627	-0.446849	0.631093	0.166079	0.720001	-0.236091
64825	-9.455462	1.789326	-1.847301	0.877509	3.028285	-0.534793	0.631172	0.158955	0.724281	-0.227535
64826	-9.407600	1.322231	-1.533862	0.876110	2.428598	-0.542405	0.631461	0.148574	0.730038	-0.215004
64827	-9.581536	0.126648	-2.226194	-0.268065	1.697740	-0.126464	0.631113	0.137829	0.736098	-0.202137
64828	-9.868455	-0.421755	-2.146034	-0.358848	1.105688	0.228102	0.630081	0.128149	0.741848	-0.190360
64829	-10.014590	-0.830910	-1.782907	-0.119028	0.499089	0.380290	0.628657	0.119263	0.747283	-0.179262
64830	-10.280657	-0.805928	-1.289387	0.463870	0.254991	0.566278	0.627161	0.111691	0.751887	-0.169883
64831	-10.045659	-1.142069	-1.169273	0.470842	-0.160370	0.352885	0.626429	0.104311	0.755467	-0.161170
64832	-9.782781	-1.623192	-1.737220	-0.210186	-0.436982	0.243155	0.625366	0.099365	0.758129	-0.155836
64833	-9.844087	-0.950218	-0.521735	1.209488	-0.274185	0.012934	0.623909	0.095664	0.760506	-0.152370
64834	-9.925373	-1.018661	-1.188080	0.647610	-0.097694	0.213930	0.622508	0.092472	0.762508	-0.150046
64835	-10.048115	-0.255061	-1.016823	1.134457	0.567753	0.209991	0.621019	0.090846	0.763983	-0.149707
64836	-9.952125	-0.025083	-1.092799	1.159341	0.816687	0.098340	0.619982	0.087946	0.765482	-0.148072
64837	-9.862895	0.012094	-2.090491	0.266033	1.199606	0.194165	0.619093	0.084624	0.766934	-0.146197
64838	-9.859387	0.551844	-2.032881	0.518093	1.698982	0.111505	0.618122	0.081323	0.768379	-0.144590
64839	-9.826369	0.829703	-2.262844	0.402001	2.041389	0.088703	0.617688	0.075691	0.770155	-0.139980
64840	-9.312135	0.427228	-2.780016	-0.308511	1.783985	-0.255018	0.617346	0.068580	0.772225	-0.133600
64841	-9.216863	0.143333	-2.638397	-0.267976	1.441263	-0.337291	0.616843	0.060708	0.774514	-0.126286
64842	-9.394787	-0.870791	-3.008509	-0.811197	0.549362	0.041823	0.616539	0.051871	0.776653	-0.118318
64843	-9.416685	-1.790258	-2.709934	-0.696077	-0.443193	0.114119	0.615837	0.044083	0.778633	-0.111945
64844	-9.346658	-2.068797	-1.883595	0.069392	-0.922470	-0.100234	0.614662	0.037905	0.780507	-0.107533
64845	-9.803922	-2.284499	-1.539030	0.529365	-1.163019	0.290343	0.613031	0.033995	0.782190	-0.105906
64846	-10.198053	-2.189283	-1.629920	0.605795	-0.987311	0.680543	0.611916	0.032995	0.782813	-0.108044
64847	-10.647600	-1.860249	-1.314621	1.095148	-0.648648	1.001182	0.611439	0.034242	0.782449	-0.112890
64848	-10.759043	-1.455919	-0.272024	2.174400	-0.432735	0.819113	0.612099	0.035754	0.781196	-0.117425
64849	-10.618076	-1.048725	0.341130	2.757417	-0.158620	0.498997	0.614005	0.037161	0.779079	-0.121053
64850	-10.897408	-0.574635	1.211634	3.681254	0.139288	0.530431	0.616860	0.037934	0.776455	-0.123138
64851	-11.552067	-0.744562	1.203936	3.698320	0.060730	1.222329	0.620990	0.037195	0.773232	-0.122882
64852	-11.771304	-1.146265	0.140873	2.522813	-0.025446	1.742840	0.625937	0.037578	0.769141	-0.123337
64853	-11.308409	-0.406699	-0.471943	1.842761	0.809119	1.332507	0.631607	0.039872	0.764036	-0.125425
64854	-10.340482	-0.245150	-0.671434	1.327659	0.937291	0.424162	0.637541	0.041332	0.758765	-0.126924
64855	-10.034313	-0.354259	-0.803574	0.958154	0.865518	0.176767	0.643559	0.042675	0.753108	-0.129766
64856	-10.025916	0.374538	1.067883	2.745156	1.130988	-0.170009	0.650929	0.042846	0.746226	-0.132677
64857	-10.271641	0.844228	0.922096	2.549251	1.711886	0.068371	0.659681	0.039785	0.738782	-0.132060
64858	-10.281070	1.324843	1.087357	2.568505	2.216742	0.042218	0.670031	0.033447	0.730495	-0.127740
64859	-10.596869	1.607915	0.062315	1.369179	2.856144	0.426523	0.680501	0.023714	0.722582	-0.119295
64860	-10.598694	1.015691	-0.355194	0.504115	2.431017	0.546646	0.691793	0.012987	0.713644	-0.109390
64861	-10.191263	0.636029	-1.691616	-1.229082	2.263313	0.211596	0.702102	0.002407	0.705162	-0.098968
64862	-10.868015	0.446748	-1.249439	-1.127543	2.077371	0.877436	0.712005	-0.008266	0.696647	-0.087543
64863	-10.414036	-0.371830	-1.710336	-1.982990	1.207901	0.488621	0.721518	-0.020618	0.688170	-0.073545
64864	-9.747700	-1.282644	-2.420375	-2.977826	0.171222	-0.136953	0.729215	-0.033057	0.680901	-0.059384
64865	-9.812817	-2.278338	-3.339900	-4.108564	-0.903445	-0.069128	0.735923	-0.044069	0.673989	-0.047053
64866	-9.434049	-2.002806	-3.197662	-4.063625	-0.816642	-0.536136	0.742087	-0.052635	0.667237	-0.036479
64867	-9.438981	-1.101085	-2.478540	-3.484673	-0.028405	-0.630991	0.747139	-0.059038	0.661498	-0.026806
64868	-9.206517	0.063022	-1.844656	-2.981907	1.015058	-0.967207	0.750842	-0.063971	0.657144	-0.017473
64869	-9.071807	0.676167	-1.657378	-2.907699	1.507025	-1.165480	0.753075	-0.069422	0.654225	-0.006990
64870	-8.949686	0.631203	-1.716977	-3.021462	1.321677	-1.294147	0.754377	-0.076443	0.651957	0.005011
64871	-8.527653	-0.013641	-2.103050	-3.317493	0.472224	-1.693961	0.754488	-0.085398	0.650493	0.017724
64872	-8.754526	-0.752861	-2.145309	-3.291642	-0.364405	-1.395916	0.753538	-0.095644	0.649703	0.030316
64873	-8.344387	-1.003299	-2.487965	-3.485109	-0.817866	-1.812115	0.751992	-0.107005	0.648989	0.043266
64874	-8.463956	-1.692644	-2.360220	-3.172945	-1.561060	-1.592696	0.749616	-0.119399	0.648567	0.056392
64875	-8.436250	-1.769921	-2.234865	-2.931768	-1.698822	-1.577719	0.746559	-0.132086	0.648352	0.069586
64876	-8.049599	-1.956750	-2.629988	-3.071247	-2.104031	-1.959061	0.741838	-0.146277	0.649036	0.083855
64877	-8.314448	-1.344718	-2.310336	-2.833918	-1.496496	-1.688513	0.735396	-0.161399	0.650560	0.099574
64878	-9.033146	-1.371044	-1.455296	-1.935896	-1.235589	-0.850709	0.726560	-0.182899	0.651292	0.120323
64879	-9.695777	-2.290811	-1.960379	-1.848919	-2.284444	-0.093918	0.716632	-0.211281	0.648351	0.146422
64880	-8.788762	-4.048239	-1.421458	-0.115867	-3.596936	-0.719355	0.706795	-0.239996	0.642738	0.172424
64881	-8.533238	-7.900835	-0.118894	3.483484	-5.893826	-0.412711	0.697957	-0.262117	0.638507	0.190945
64882	-9.199782	-10.316884	4.533239	8.849477	-4.638865	0.759941	0.692466	-0.273073	0.637748	0.197989
64883	-10.244250	-9.006050	7.752377	10.580722	-1.225799	1.706479	0.687319	-0.280755	0.639245	0.200340
64884	-11.346020	-5.453281	4.646752	5.949385	-0.127627	2.214176	0.681021	-0.288859	0.641276	0.203804
64885	-12.142322	-2.134461	2.318163	2.098047	1.110420	2.505122	0.674959	-0.293741	0.644227	0.207648
64886	-10.870563	-0.178680	0.520637	-0.323911	1.289463	0.990267	0.673804	-0.290239	0.646787	0.208364
64887	-9.331657	3.029859	-0.939583	-3.283450	2.593560	-0.888979	0.674368	-0.278207	0.653619	0.201518
64888	-8.532786	-0.205025	0.872614	0.291721	1.187702	-1.320568	0.671706	-0.282569	0.651818	0.209999
64889	-7.012612	-5.245717	-6.799871	-2.134462	-7.746929	-2.173333	0.669001	-0.290842	0.649436	0.214665
64890	-9.272308	-2.109187	-5.017516	-2.970822	-3.941070	-0.260768	0.669474	-0.287855	0.653564	0.204446
64891	-11.781807	1.849291	-0.520617	-2.265329	2.368549	1.665930	0.667044	-0.291378	0.655521	0.201106
64892	-12.229913	1.642107	1.890501	-0.322958	3.932610	2.030906	0.660907	-0.302660	0.654285	0.208591
64893	-10.753592	-0.806806	0.471856	0.319088	1.078906	0.922636	0.652666	-0.320288	0.648576	0.225372
64894	-8.857365	-4.090634	-3.329159	0.155498	-4.087351	-0.350390	0.646096	-0.334644	0.642842	0.239431
64895	-7.947970	-4.399839	-3.148409	0.723677	-4.229317	-1.208687	0.641214	-0.341759	0.642042	0.244596
64896	-8.538748	-2.954590	-1.508087	0.793236	-1.914348	-0.889724	0.637069	-0.345220	0.644388	0.244396
64897	-9.334834	-0.880536	-0.367886	0.015879	0.476753	-0.441390	0.633193	-0.346893	0.648096	0.242289
64898	-9.920441	0.878916	0.575140	-0.637723	2.496984	-0.175487	0.628501	-0.349841	0.651417	0.241358
64899	-10.365773	1.276352	-0.397101	-1.533982	2.167595	0.295927	0.622484	-0.357190	0.651625	0.245588
64900	-10.964406	0.543439	-2.505756	-2.305652	0.209547	1.206939	0.617621	-0.366097	0.648110	0.253912
64901	-10.320281	0.787940	-1.230672	-1.668872	1.198119	0.406060	0.613374	-0.373577	0.644462	0.262453
64902	-10.833978	0.688303	1.740545	0.158757	3.547949	0.592359	0.607082	-0.382866	0.640098	0.274116
64903	-10.517521	-0.553632	1.209926	0.846614	2.365424	0.486664	0.599307	-0.394191	0.633820	0.289338
64904	-9.760013	-2.428993	-2.240967	0.641555	-1.628739	0.341828	0.593026	-0.402601	0.628792	0.301419
64905	-9.208367	-2.109411	-2.844426	0.169707	-2.080198	-0.170182	0.589978	-0.405170	0.627525	0.306556
64906	-9.710215	-0.886437	-1.897373	-0.375033	-0.599681	0.095577	0.588177	-0.406203	0.627537	0.308618
64907	-9.907989	-0.174188	-2.154144	-1.100612	-0.447500	0.258425	0.587623	-0.406399	0.627563	0.309361
64908	-9.970938	-0.075527	-1.737769	-0.972531	-0.037318	0.261931	0.587608	-0.405950	0.627715	0.309668
64909	-9.874009	-0.429197	-1.138363	-0.356244	0.281858	0.125609	0.587003	-0.406016	0.627496	0.311171
64910	-9.614690	-1.045706	-1.318845	0.116289	-0.224526	-0.055068	0.586443	-0.405462	0.627841	0.312252
64911	-9.539540	-0.629570	-1.269274	-0.201257	-0.001265	-0.170607	0.586422	-0.404197	0.628769	0.312063
64912	-9.667108	-0.334195	-1.320804	-0.474655	0.114271	-0.062260	0.586911	-0.402907	0.629663	0.311008
64913	-9.810512	0.885910	-0.657854	-1.205792	1.306022	-0.101656	0.587952	-0.401257	0.630650	0.309171
64914	-9.827547	1.196161	-0.723193	-1.511486	1.406943	-0.103392	0.587925	-0.401906	0.630010	0.309682
64915	-9.838116	0.406325	-1.573555	-1.256614	0.284394	0.075171	0.586890	-0.404052	0.628687	0.311535
64916	-9.529346	0.605347	-1.190697	-1.238501	0.663894	-0.293338	0.585532	-0.406342	0.627661	0.313177
64917	-9.695337	0.596826	-1.183196	-1.230352	0.692079	-0.129559	0.582854	-0.410805	0.625524	0.316608
64918	-9.919733	0.431491	-1.475931	-1.227047	0.394541	0.142429	0.579656	-0.416221	0.622832	0.320685
64919	-9.934480	0.442987	-1.775823	-1.372628	0.137755	0.194340	0.576576	-0.421402	0.620063	0.324810
64920	-9.945747	-0.056426	-1.600335	-0.841286	0.074902	0.225677	0.573684	-0.426022	0.617672	0.328443
64921	-9.878919	-0.242056	-1.413822	-0.586680	0.160787	0.151271	0.571179	-0.430192	0.615582	0.331283
64922	-9.836976	-0.435695	-1.379045	-0.396701	0.122101	0.121363	0.569010	-0.434085	0.613744	0.333341
64923	-9.887506	-0.303231	-0.947778	-0.349688	0.594209	0.100817	0.567206	-0.437956	0.611787	0.334946
64924	-10.107684	-0.573549	-1.339090	-0.290192	0.192538	0.393488	0.565865	-0.441871	0.609546	0.336157
64925	-10.197733	-0.647154	-1.178868	-0.189668	0.343716	0.465838	0.565034	-0.445086	0.607403	0.337190
64926	-10.169844	-1.203026	-1.517630	0.161817	-0.169247	0.537255	0.564637	-0.447429	0.605600	0.337996
64927	-10.061286	-1.827882	-1.112875	0.874719	-0.049003	0.436290	0.565505	-0.447486	0.605293	0.337018
64928	-10.028084	-1.671431	-0.464730	0.964376	0.596112	0.301003	0.566758	-0.446518	0.605913	0.335078
64929	-10.214449	-1.505057	-0.152421	0.912782	0.970393	0.426871	0.567973	-0.445543	0.606147	0.333893
64930	-10.036865	-1.249376	-0.175623	0.661356	1.000125	0.231849	0.569829	-0.444004	0.605963	0.333113
64931	-10.210745	-0.817200	0.148905	0.366495	1.452982	0.321590	0.572218	-0.442377	0.604920	0.333079
64932	-10.449375	-0.377354	0.472406	0.051174	1.891822	0.481616	0.575119	-0.440849	0.602389	0.334691
64933	-10.491136	0.088324	0.721459	-0.324191	2.204740	0.464701	0.578340	-0.439520	0.598135	0.338497
64934	-10.423510	0.411264	0.815354	-0.636520	2.264783	0.382728	0.581638	-0.438084	0.592556	0.344467
64935	-10.662240	0.850846	1.548309	-0.831392	2.955064	0.549607	0.584340	-0.437219	0.585694	0.352630
64936	-10.918529	0.807387	1.812481	-0.783726	3.001216	0.842120	0.586345	-0.437014	0.577674	0.362645
64937	-11.422979	1.615606	2.904078	-1.252021	4.102003	1.283558	0.589604	-0.434782	0.569477	0.372863
64938	-11.064402	1.790233	3.019451	-1.454110	3.967767	0.998262	0.591603	-0.434499	0.559291	0.385240
64939	-11.181149	0.959670	0.048789	-1.755526	0.619336	1.253932	0.592829	-0.434447	0.550151	0.396414
64940	-10.953015	0.843919	-1.015379	-1.984710	-0.686122	1.017677	0.594026	-0.433593	0.542026	0.406617
64941	-10.598081	0.311867	-2.110100	-1.767109	-2.134064	0.636568	0.594753	-0.433383	0.532956	0.417620
64942	-9.466341	-0.389509	-3.049153	-1.218727	-3.430201	-0.549625	0.593521	-0.436324	0.521180	0.430959
64943	-9.227358	-0.798786	-2.338423	-0.560428	-3.026027	-0.769637	0.590820	-0.441277	0.508933	0.444065
64944	-8.685114	0.411212	-1.510007	-1.462341	-2.078432	-1.361681	0.586247	-0.448546	0.495539	0.457779
64945	-8.388673	0.817946	-0.972958	-1.705287	-1.604700	-1.657887	0.579033	-0.457993	0.482552	0.471281
64946	-8.642892	0.478843	-1.309629	-1.385328	-2.121358	-1.432732	0.569067	-0.469246	0.470192	0.484655
64947	-8.645155	0.186287	-2.027679	-1.065358	-2.920222	-1.492767	0.558063	-0.480997	0.459051	0.496467
64948	-8.641712	0.472203	-2.147179	-1.241326	-3.047433	-1.525127	0.546219	-0.493117	0.448778	0.507029
64949	-8.296420	0.521428	-2.137591	-1.146341	-3.003798	-1.854438	0.533179	-0.506124	0.438429	0.517048
64950	-8.174321	0.392789	-1.889580	-0.906436	-2.721954	-1.918860	0.518241	-0.520391	0.427005	0.527529
64951	-7.951387	-0.280539	-1.772979	-0.121103	-2.471805	-2.046047	0.501626	-0.535394	0.414633	0.538335
64952	-7.985449	-0.732660	-1.497042	0.378238	-2.040356	-1.923623	0.483753	-0.550772	0.401920	0.548720
64953	-8.531036	-1.196321	-1.717419	0.924302	-2.072690	-1.327037	0.465352	-0.565712	0.388445	0.559041
64954	-8.415555	-2.243935	-1.823199	2.049080	-1.722959	-1.326817	0.447318	-0.579539	0.373923	0.569406
64955	-8.560178	-4.470932	-1.475838	4.061673	-0.459464	-0.939800	0.429700	-0.592830	0.359048	0.578788
64956	-9.177861	-6.082293	0.386433	4.732755	2.122840	-0.093566	0.413863	-0.604710	0.345356	0.586322
64957	-9.502933	-7.759297	2.460159	5.143264	4.975822	0.450808	0.400087	-0.615158	0.332019	0.592685
64958	-9.107779	-7.541627	3.063174	4.456458	5.660294	0.051688	0.391489	-0.622117	0.323332	0.595956
64959	-9.856710	-4.527175	1.939805	2.152703	3.325256	0.469321	0.385991	-0.627168	0.320859	0.595584
64960	-11.269218	0.283562	0.136316	-1.296995	-0.532242	1.373294	0.382833	-0.629385	0.326944	0.591964
64961	-13.290228	2.849571	1.456262	-4.332828	-0.478512	3.143469	0.379424	-0.630368	0.335908	0.588081
64962	-12.878407	-0.293828	3.205678	-2.364021	2.699786	2.967709	0.369278	-0.633237	0.329760	0.594898
64963	-8.126849	-6.329578	-4.707911	7.209568	-0.935656	-1.128354	0.361559	-0.637089	0.317193	0.602314
64964	-6.790451	-4.686185	-5.277460	6.197832	-2.235639	-2.566415	0.369324	-0.635624	0.321389	0.596901
64965	-9.686121	0.919492	-0.825662	-1.227867	-1.426376	-0.231230	0.374512	-0.636919	0.325773	0.589870
64966	-11.320267	2.698943	0.371000	-3.613482	-1.278244	1.181794	0.370502	-0.642448	0.322178	0.588379
64967	-10.352385	0.814618	-2.124264	-0.644609	-2.412119	0.488468	0.358244	-0.650465	0.311079	0.593115
64968	-9.007061	-2.002794	-3.235658	2.488550	-1.696719	-0.510322	0.346450	-0.657725	0.302277	0.596656
64969	-9.512697	-2.062409	-0.749203	1.042364	0.516181	-0.119840	0.335379	-0.665742	0.294953	0.597755
64970	-9.746521	-2.360653	-1.433780	1.582593	0.276266	0.189321	0.323432	-0.673970	0.284851	0.600013
64971	-9.635604	-1.658852	-1.435563	0.983449	-0.055265	0.020238	0.313771	-0.680833	0.275438	0.601787
64972	-9.393399	-0.884039	-1.520464	0.431424	-0.559997	-0.282248	0.305766	-0.686454	0.266890	0.603372
64973	-9.498565	-0.217429	-1.718870	0.022177	-1.112213	-0.221710	0.298974	-0.691259	0.260216	0.604205
64974	-9.660881	0.130899	-1.843816	-0.184843	-1.398335	-0.078228	0.291113	-0.695932	0.253836	0.605391
64975	-9.948458	0.205365	-1.309617	-0.656654	-1.011088	0.151010	0.282158	-0.700931	0.247836	0.606350
64976	-10.031906	0.494580	-0.273211	-1.618360	-0.434298	0.094403	0.272625	-0.705926	0.242037	0.607258
64977	-10.219097	-0.063864	-0.247006	-1.308309	0.043777	0.325419	0.261564	-0.710885	0.234754	0.609194
64978	-10.370446	-0.668384	-1.153518	-0.280770	-0.047479	0.639207	0.252429	-0.714731	0.228279	0.611006
64979	-10.492812	-0.000124	-0.466514	-1.253622	-0.070342	0.615168	0.245763	-0.717437	0.223445	0.612337
64980	-10.266329	0.272646	-0.472093	-1.384683	-0.272402	0.370787	0.238429	-0.719899	0.217699	0.614414
64981	-10.023730	-0.140693	-1.201427	-0.517496	-0.382558	0.263233	0.230983	-0.722304	0.211826	0.616485
64982	-9.622393	-0.899879	-1.600242	0.318436	0.009727	-0.021908	0.224342	-0.724437	0.206832	0.618128
64983	-9.517410	-1.037260	-1.373529	0.228252	0.293128	-0.148040	0.218740	-0.726587	0.202952	0.618898
64984	-9.675995	-0.779330	-1.543346	0.176066	0.025653	0.014946	0.214323	-0.728694	0.199567	0.619068
64985	-9.720437	0.128765	-1.056743	-0.757514	-0.420034	-0.072572	0.211113	-0.730573	0.197259	0.618694
64986	-9.767565	0.444012	-0.940852	-1.052036	-0.596051	-0.064581	0.206203	-0.732801	0.193348	0.618950
64987	-9.638272	0.094329	-1.454319	-0.435071	-0.567849	-0.091144	0.201526	-0.735193	0.189434	0.618864
64988	-9.925236	0.338751	-1.624813	-0.496645	-0.835237	0.203335	0.198044	-0.737457	0.186243	0.618263
64989	-9.982609	0.183363	-1.534267	-0.526492	-0.639926	0.254752	0.194159	-0.739650	0.182083	0.618115
64990	-9.623113	-0.343987	-1.790080	-0.003382	-0.326476	-0.023900	0.190948	-0.741644	0.177933	0.617934
64991	-9.592767	0.037782	-1.331764	-0.616870	-0.425224	-0.156878	0.190036	-0.743703	0.175222	0.616514
64992	-9.492696	0.254639	-1.036487	-1.014477	-0.479147	-0.326313	0.190194	-0.746026	0.172979	0.614289
64993	-9.736799	0.288388	-1.512114	-0.749583	-0.757335	-0.012746	0.192004	-0.748324	0.172078	0.611175
64994	-10.070831	0.106693	-1.654460	-0.685846	-0.684219	0.347586	0.194187	-0.750211	0.171366	0.608365
64995	-10.184771	-0.306540	-2.290908	-0.031905	-0.672977	0.609288	0.195284	-0.751586	0.169608	0.606808
64996	-10.142602	-0.269528	-2.318900	-0.059308	-0.745207	0.568225	0.194120	-0.753055	0.165845	0.606400
64997	-10.214064	0.007190	-2.040580	-0.465755	-0.867400	0.556582	0.190455	-0.754752	0.159654	0.607113
64998	-10.160577	0.652047	-1.583678	-1.148410	-1.236522	0.352084	0.185304	-0.756278	0.152209	0.608719
64999	-9.873236	0.364666	-1.710574	-0.819146	-1.072415	0.123038	0.178612	-0.757588	0.143827	0.611124
65000	-9.863174	-0.491787	-2.423823	0.210551	-0.643009	0.333305	0.173493	-0.758422	0.137311	0.613059
65001	-10.280704	-0.773473	-2.463972	0.299678	-0.412610	0.775145	0.170787	-0.758406	0.133582	0.614661
65002	-10.427448	-0.651660	-1.839744	-0.296404	-0.263391	0.788423	0.168578	-0.757397	0.131004	0.617065
65003	-10.439387	-1.221505	-1.041320	-0.717207	0.580490	0.708985	0.163745	-0.756360	0.126130	0.620643
65004	-10.459321	-1.686876	-0.379836	-1.070738	1.257237	0.659170	0.157513	-0.755196	0.119200	0.625028
65005	-10.630778	-1.173690	0.245364	-1.801364	0.988705	0.686267	0.150637	-0.753513	0.111266	0.630195
65006	-10.886648	-1.004419	1.486071	-2.958836	1.217850	0.746520	0.142079	-0.750963	0.101733	0.636803
65007	-10.987285	-1.057914	1.347784	-2.711389	1.117854	0.913554	0.134033	-0.746977	0.092023	0.644664
65008	-11.326919	0.306563	2.425428	-4.025224	0.049705	1.053074	0.127262	-0.741076	0.083649	0.653921
65009	-11.497058	1.472492	3.048635	-4.713704	-1.023474	1.158476	0.119069	-0.733059	0.074687	0.665484
65010	-11.322372	2.393384	1.960684	-3.561301	-2.344665	1.122335	0.110125	-0.724224	0.065873	0.677520
65011	-11.639508	2.620590	2.268478	-3.558763	-2.627193	1.497049	0.103037	-0.714791	0.057759	0.689291
65012	-10.784263	1.571912	1.287391	-1.956200	-1.894192	0.817619	0.097665	-0.704915	0.051492	0.700647
65013	-10.521514	0.167540	-3.824585	3.643078	-1.638346	0.646540	0.091190	-0.697691	0.044678	0.709165
65014	-9.790823	-0.977685	-6.816041	7.086609	-0.937199	-0.212669	0.079746	-0.687525	0.033668	0.720983
65015	-7.885416	-0.597234	-6.574140	6.968657	-0.947593	-2.310168	0.069960	-0.679747	0.023839	0.729713
65016	-7.824362	2.066352	-1.608405	1.853825	-2.782972	-2.269895	0.061281	-0.675828	0.015968	0.734333
65017	-8.255737	3.282846	0.019447	0.316428	-3.813040	-1.794511	0.043961	-0.674308	-0.001100	0.737140
65018	-7.704694	2.902591	-2.789211	3.304322	-3.497725	-2.573307	0.024384	-0.673353	-0.020285	0.738640
65019	-7.204412	3.218265	-3.614956	4.261322	-3.598330	-3.163191	0.005284	-0.674169	-0.038889	0.737534
65020	-8.405264	3.792841	-4.299176	5.216982	-3.976003	-2.035531	-0.013831	-0.676461	-0.057569	0.734095
65021	-8.417835	2.832997	-4.412823	5.351068	-2.726361	-1.920717	-0.035717	-0.678451	-0.078575	0.729558
65022	-8.527216	0.715228	-4.387817	5.022528	-0.343967	-1.619640	-0.058556	-0.679199	-0.101681	0.724514
65023	-8.547647	-1.424310	-3.841320	3.881990	1.900944	-1.377491	-0.085988	-0.678495	-0.130014	0.717876
65024	-8.843037	-4.952916	-2.569788	1.289329	5.042558	-0.744907	-0.114495	-0.675690	-0.158662	0.710747
65025	-7.994665	-8.567170	-0.584183	-2.542103	7.583878	-1.232200	-0.144718	-0.668959	-0.191875	0.703373
65026	-7.268395	-13.462073	0.674155	-6.730464	10.936493	-1.475638	-0.170668	-0.660596	-0.222267	0.696478
65027	-7.341973	-15.813525	2.708498	-10.457275	11.194446	-1.062634	-0.186154	-0.657035	-0.244002	0.688560
65028	-11.756080	-13.935019	5.238457	-11.615004	7.383234	3.240851	-0.185802	-0.660850	-0.253200	0.681649
65029	-14.491211	-3.404088	1.246173	-2.277381	0.790151	4.929214	-0.169730	-0.670690	-0.240532	0.680816
65030	-13.196504	3.812514	-1.774835	3.930514	-3.500073	2.998393	-0.156962	-0.679666	-0.222932	0.680969
65031	-8.475162	0.442812	-2.668344	2.679083	0.210245	-1.331982	-0.156839	-0.682937	-0.219380	0.678875
65032	-7.804893	-1.116895	-7.483329	5.988044	3.972752	-1.656574	-0.150506	-0.687427	-0.218317	0.676114
65033	-10.043958	2.811691	-3.495281	4.457667	-1.744505	0.091266	-0.145369	-0.690431	-0.216998	0.674599
65034	-9.265629	3.540459	0.043602	1.686093	-4.112538	-0.945216	-0.143750	-0.692283	-0.221361	0.671624
65035	-10.803309	3.853015	2.551810	-0.337193	-5.885393	0.351756	-0.148657	-0.693256	-0.231888	0.665977
65036	-10.756007	-0.859153	-0.392039	-0.217727	-0.439437	0.973549	-0.166293	-0.688420	-0.250663	0.659995
65037	-8.162129	-4.465286	-3.406572	0.165147	4.507818	-0.991568	-0.178826	-0.685348	-0.264122	0.654644
65038	-9.267749	-2.354353	-1.102776	-0.620232	1.275805	-0.292378	-0.184369	-0.685971	-0.273196	0.648703
65039	-9.037275	-0.959318	-1.769071	0.652080	0.537868	-0.592789	-0.191837	-0.686049	-0.284505	0.641554
65040	-8.985582	-0.528097	-2.437220	1.325356	0.569489	-0.599817	-0.197885	-0.687586	-0.294758	0.633392
65041	-9.403210	0.147618	-2.114686	1.385505	-0.272684	-0.277563	-0.203149	-0.689410	-0.303821	0.625410
65042	-9.391796	0.170226	-2.394035	1.498527	-0.160986	-0.237011	-0.208019	-0.690780	-0.311866	0.618296
65043	-9.676013	0.595444	-3.089365	2.186882	-0.093442	0.123710	-0.212949	-0.691336	-0.319532	0.612051
65044	-10.333772	0.339242	-4.003087	2.536833	0.574119	0.965101	-0.218390	-0.691104	-0.326702	0.606586
65045	-11.223095	0.368922	-1.188367	0.470805	-1.576115	1.358714	-0.222611	-0.690766	-0.331703	0.602711
65046	-11.147616	0.320386	1.581142	-1.479517	-3.494646	0.792519	-0.228357	-0.688968	-0.337117	0.599606
65047	-10.781471	-0.156535	2.223691	-2.218395	-3.589346	0.356116	-0.235083	-0.686753	-0.343050	0.596173
65048	-10.500227	-1.071769	0.271936	-1.587762	-1.542311	0.510956	-0.242569	-0.684526	-0.349364	0.592055
65049	-9.945028	-1.446085	-1.816415	-0.521103	0.341751	0.380722	-0.247575	-0.683080	-0.353325	0.589296
65050	-9.811349	-0.526736	-1.998432	0.276509	-0.075603	0.209864	-0.249893	-0.682677	-0.355180	0.587667
65051	-9.745731	0.568534	-2.192544	1.226175	-0.602594	0.099077	-0.251836	-0.682549	-0.356839	0.585979
65052	-9.682385	1.484394	-2.133476	1.883123	-1.197540	-0.039080	-0.254988	-0.681931	-0.359567	0.583664
65053	-9.659348	1.360712	-2.245234	1.836204	-1.009477	-0.024693	-0.260004	-0.680268	-0.364145	0.580544
65054	-9.662742	0.413287	-2.698627	1.336723	-0.061661	0.138757	-0.265278	-0.678023	-0.369376	0.577472
65055	-9.559302	-0.394369	-2.583135	0.599672	0.358639	0.072661	-0.269576	-0.676004	-0.374083	0.574812
65056	-9.502904	-0.795630	-2.196453	0.035235	0.294802	-0.031356	-0.272525	-0.674373	-0.377990	0.572778
65057	-9.507467	-0.897089	-1.918601	-0.216972	0.113845	-0.075253	-0.273755	-0.673646	-0.380664	0.571274
65058	-9.813540	-0.792741	-1.627954	-0.319519	-0.261827	0.157947	-0.274340	-0.673188	-0.382701	0.570170
65059	-9.900418	-0.657556	-1.984029	-0.010169	-0.089525	0.305558	-0.275466	-0.672079	-0.385227	0.569235
65060	-9.999230	-0.469112	-2.155140	0.245944	-0.093263	0.423527	-0.275834	-0.671107	-0.387296	0.568799
65061	-10.029330	0.040266	-1.876780	0.527293	-0.622698	0.358131	-0.275699	-0.670481	-0.388867	0.568532
65062	-10.067565	0.175140	-1.693001	0.548879	-0.871311	0.345673	-0.274656	-0.670452	-0.389419	0.568693
65063	-10.101901	-0.071364	-1.836697	0.438948	-0.644241	0.425437	-0.273039	-0.670606	-0.389160	0.569466
65064	-10.029859	-0.665059	-2.395234	0.282726	0.141527	0.515792	-0.271290	-0.670764	-0.387944	0.570944
65065	-10.193705	-1.336673	-2.437975	-0.225170	0.526484	0.737859	-0.271036	-0.669863	-0.387304	0.572554
65066	-10.277576	-1.494915	-2.284397	-0.408691	0.508473	0.801262	-0.271755	-0.668102	-0.386709	0.574669
65067	-9.959851	-1.371010	-1.297014	-0.808973	-0.238467	0.289235	-0.273585	-0.665705	-0.386518	0.576708
65068	-9.888722	-1.357995	-1.096012	-0.864455	-0.335424	0.185910	-0.275183	-0.663312	-0.385767	0.579202
65069	-9.951816	-0.862687	-0.859401	-0.547349	-0.745659	0.170560	-0.276472	-0.661207	-0.383836	0.582270
65070	-10.417352	-0.344183	-0.500558	-0.290440	-1.327515	0.533455	-0.278498	-0.658691	-0.381633	0.585595
65071	-11.027982	-0.050360	-0.010279	-0.286264	-1.883080	1.049597	-0.282508	-0.654843	-0.379598	0.589300
65072	-10.984215	0.301620	0.286598	-0.089536	-2.155576	0.965451	-0.289297	-0.649118	-0.378208	0.593221
65073	-10.934750	0.556335	0.544366	0.067696	-2.301648	0.904946	-0.299367	-0.641467	-0.378213	0.596535
65074	-11.534697	0.785293	0.909143	0.175186	-2.565894	1.495282	-0.312572	-0.631506	-0.379597	0.599504
65075	-11.387726	0.457279	1.156479	-0.079735	-2.293825	1.409960	-0.328687	-0.618373	-0.382002	0.603037
65076	-9.839924	-0.359388	-0.170222	-0.002897	-0.324125	0.029573	-0.342966	-0.605390	-0.383618	0.607219
65077	-9.154020	-0.370375	-1.696459	0.793677	1.302342	-0.621345	-0.352503	-0.595464	-0.382984	0.611953
65078	-8.685942	-0.983766	-3.868609	1.294452	3.717514	-1.101710	-0.359812	-0.587159	-0.382910	0.615759
65079	-7.462990	-1.978988	-4.687664	0.744008	5.057123	-2.365739	-0.365577	-0.580207	-0.382242	0.619358
65080	-6.125895	-2.351141	-4.950631	0.450584	5.540920	-3.758112	-0.369977	-0.575070	-0.383168	0.620962
65081	-5.693403	-1.683162	-4.711134	0.900669	5.062465	-4.244666	-0.371758	-0.572907	-0.384851	0.620857
65082	-6.475183	0.050615	-4.071492	2.204837	3.744687	-3.517979	-0.373176	-0.572619	-0.389219	0.617540
65083	-7.288832	1.094838	-4.664624	3.396029	3.819022	-2.744037	-0.374387	-0.573196	-0.395458	0.612286
65084	-7.304183	1.114123	-5.032392	3.480523	4.101779	-2.672867	-0.375884	-0.574211	-0.404238	0.604637
65085	-6.831818	0.393879	-4.450541	2.447393	3.796367	-3.013301	-0.378857	-0.574094	-0.416650	0.594379
65086	-8.482101	-2.459146	-4.123041	-0.382415	4.353908	-1.101611	-0.381792	-0.573379	-0.431881	0.582195
65087	-13.722479	-4.450851	0.934251	-3.836158	-0.307438	4.121646	-0.383433	-0.572858	-0.444700	0.571887
65088	-16.701638	-5.294156	5.399878	-5.841548	-4.844140	6.876526	-0.390901	-0.565750	-0.457005	0.564154
65089	-12.282670	-6.714472	2.787513	-6.533251	-1.918431	2.731006	-0.396936	-0.559598	-0.469426	0.555816
65090	-11.298951	-5.768010	2.207193	-5.484109	-1.821579	1.694176	-0.392952	-0.562861	-0.476665	0.549151
65091	-9.253856	-2.223903	1.462740	-1.995100	-1.933840	-0.593251	-0.389169	-0.565579	-0.479520	0.546561
65092	-7.701717	-2.069262	-2.070837	-1.033133	1.530029	-1.782873	-0.386334	-0.566341	-0.482229	0.545397
65093	-7.106672	-0.778120	-4.990502	0.993980	4.031789	-2.146510	-0.377649	-0.569789	-0.480866	0.549081
65094	-8.840276	1.987505	-3.858562	3.579398	1.853183	-0.827266	-0.364251	-0.577349	-0.476249	0.554235
65095	-11.113968	3.922792	-0.428658	4.597800	-2.502359	0.755523	-0.355605	-0.582645	-0.475841	0.554657
65096	-11.881933	3.878544	1.263933	4.071234	-4.330773	1.254842	-0.358080	-0.582161	-0.481927	0.548283
65097	-11.372182	1.325805	1.470195	1.565194	-3.729821	0.998617	-0.367369	-0.577629	-0.490458	0.539291
65098	-10.092831	-2.418554	-0.457774	-1.604958	-0.739609	0.424539	-0.377705	-0.571577	-0.498700	0.530977
65099	-9.162809	-5.330403	-2.043385	-4.145518	1.539020	0.035740	-0.380392	-0.569740	-0.501447	0.528441
65100	-9.253816	-4.020181	-0.886508	-3.130588	0.115566	-0.181134	-0.375949	-0.572324	-0.499114	0.531030
65101	-9.685450	-2.010015	-1.027634	-1.084581	-0.275113	0.069215	-0.369157	-0.575936	-0.495814	0.534966
65102	-9.942303	-0.664692	-0.926035	0.240479	-0.768929	0.162254	-0.361890	-0.579916	-0.492075	0.539069
65103	-10.042164	-0.386027	-1.078839	0.578893	-0.750238	0.250108	-0.356788	-0.583061	-0.489192	0.541695
65104	-10.010321	-0.505000	-1.637704	0.640524	-0.212872	0.320822	-0.354119	-0.584788	-0.487748	0.542885
65105	-9.821521	-0.590227	-2.267137	0.739212	0.425967	0.248260	-0.353821	-0.585041	-0.487678	0.542870
65106	-9.596781	-0.868095	-2.623678	0.561082	0.885234	0.118930	-0.354311	-0.584984	-0.487499	0.542772
65107	-9.528341	-0.798254	-2.335022	0.534207	0.609998	-0.003440	-0.353760	-0.585561	-0.486677	0.543247
65108	-9.578439	-0.631908	-1.635286	0.490552	-0.104907	-0.088064	-0.352223	-0.586516	-0.485342	0.544409
65109	-9.707983	-0.579079	-1.062799	0.384843	-0.680911	-0.060864	-0.350224	-0.587507	-0.483649	0.546134
65110	-9.754278	-0.679461	-1.011199	0.287443	-0.707945	-0.012365	-0.348468	-0.588368	-0.482314	0.547509
65111	-9.891171	-0.852997	-1.208806	0.203255	-0.497856	0.174049	-0.347204	-0.589097	-0.481320	0.548402
65112	-9.915743	-1.043389	-1.583382	0.143042	-0.094849	0.281284	-0.346795	-0.589690	-0.480569	0.548682
65113	-9.834213	-1.080079	-1.731988	0.145740	0.072385	0.229803	-0.346901	-0.590019	-0.480118	0.548656
65114	-9.712299	-1.059338	-1.706556	0.140913	0.074711	0.103855	-0.347572	-0.589967	-0.479736	0.548622
65115	-9.603060	-1.024648	-1.579558	0.120301	-0.021731	-0.027560	-0.348153	-0.589757	-0.479359	0.548809
65116	-9.463686	-1.025642	-1.520796	0.089756	-0.034198	-0.173348	-0.348546	-0.589603	-0.478736	0.549268
65117	-9.457051	-1.138007	-1.554434	-0.002976	0.048496	-0.161535	-0.348224	-0.589824	-0.477626	0.550201
65118	-9.573951	-1.178829	-1.548433	-0.035852	0.046609	-0.043125	-0.347449	-0.590557	-0.476135	0.551196
65119	-9.678871	-1.150704	-1.579875	0.007410	0.059892	0.061370	-0.346576	-0.591436	-0.474459	0.552247
65120	-9.647128	-1.073448	-1.396371	0.016036	-0.118553	-0.006827	-0.345998	-0.592121	-0.473074	0.553063
65121	-9.702703	-1.067699	-1.398350	0.022289	-0.116720	0.047520	-0.346236	-0.592250	-0.472376	0.553373
65122	-9.712045	-1.182815	-1.520419	-0.049072	0.046529	0.088320	-0.346730	-0.592186	-0.471768	0.553651
65123	-9.673276	-1.176505	-1.429408	-0.080077	-0.019096	0.035807	-0.347103	-0.592140	-0.471193	0.553956
65124	-9.553927	-1.114522	-1.647741	0.044173	0.198678	-0.055982	-0.347239	-0.592162	-0.470552	0.554392
65125	-9.589669	-0.998926	-1.706900	0.172531	0.221012	-0.025222	-0.347195	-0.592397	-0.469738	0.554858
65126	-9.635928	-1.117734	-1.692591	0.057479	0.250934	0.031043	-0.347307	-0.592479	-0.468971	0.555349
65127	-9.632689	-1.305003	-1.939727	-0.036551	0.555936	0.083971	-0.347446	-0.592557	-0.468164	0.555860
65128	-9.670771	-1.154964	-1.747769	0.038738	0.336241	0.076593	-0.347499	-0.592740	-0.467256	0.556395
65129	-9.533378	-1.056421	-1.755241	0.125903	0.350201	-0.068783	-0.348027	-0.592498	-0.466758	0.556741
65130	-9.487731	-1.082412	-1.761962	0.096198	0.383401	-0.110269	-0.348250	-0.592666	-0.466366	0.556752
65131	-9.629203	-0.856753	-1.733438	0.300160	0.263694	0.000608	-0.348319	-0.592971	-0.465928	0.556749
65132	-9.694667	-0.775938	-1.803547	0.394056	0.296483	0.066494	-0.348607	-0.593283	-0.465255	0.556800
65133	-9.681552	-1.122183	-1.554423	-0.024940	0.192859	0.054944	-0.349040	-0.593397	-0.464541	0.557004
65134	-9.486566	-1.630705	-1.358645	-0.582504	0.229921	-0.111768	-0.349568	-0.593112	-0.463912	0.557501
65135	-9.422615	-1.516861	-1.607792	-0.393156	0.445159	-0.152522	-0.349288	-0.593331	-0.463395	0.557872
65136	-9.553319	-0.947448	-1.501065	0.111660	0.137472	-0.097473	-0.348756	-0.593742	-0.462866	0.558208
65137	-9.418804	-0.909126	-1.583159	0.168007	0.220924	-0.222602	-0.348742	-0.593891	-0.462918	0.558013
65138	-9.385124	-1.141518	-1.622686	-0.041397	0.334037	-0.226060	-0.348347	-0.594339	-0.462911	0.557790
65139	-9.521517	-1.154127	-1.782815	0.009383	0.456059	-0.067861	-0.347643	-0.594768	-0.462752	0.557903
65140	-9.792839	-1.030942	-1.527297	0.050983	0.123241	0.151116	-0.346950	-0.595166	-0.462691	0.557961
65141	-9.848965	-0.906086	-1.020918	-0.003965	-0.405600	0.122142	-0.346492	-0.595375	-0.462694	0.558019
65142	-9.741182	-0.966468	-0.983365	-0.079372	-0.406332	0.016875	-0.346685	-0.595311	-0.463045	0.557677
65143	-9.674244	-0.995905	-1.241327	-0.019945	-0.149493	-0.009577	-0.346687	-0.595273	-0.463109	0.557663
65144	-9.725264	-0.882682	-1.318903	0.115258	-0.121986	0.039786	-0.346744	-0.595231	-0.462915	0.557834
65145	-9.839396	-0.948928	-1.377572	0.080023	-0.056723	0.167406	-0.346817	-0.595209	-0.462401	0.558237
65146	-9.789051	-1.097790	-1.239188	-0.110762	-0.116396	0.114066	-0.346901	-0.595294	-0.461796	0.558596
65147	-9.641009	-1.232044	-1.213961	-0.252506	-0.058501	-0.021186	-0.346942	-0.595356	-0.461194	0.559001
65148	-9.507137	-1.223263	-1.485769	-0.156015	0.224175	-0.116557	-0.347030	-0.595384	-0.460528	0.559465
65149	-9.439927	-1.284207	-1.728654	-0.129294	0.492128	-0.143627	-0.347159	-0.595283	-0.459965	0.559956
65150	-9.523316	-1.331529	-1.514812	-0.244429	0.308114	-0.086101	-0.347215	-0.595341	-0.459496	0.560245
65151	-9.755782	-1.259724	-1.444157	-0.190229	0.186135	0.125971	-0.347107	-0.595408	-0.459178	0.560501
65152	-9.717934	-1.062964	-1.400303	-0.023334	0.086827	0.062580	-0.346795	-0.595602	-0.458780	0.560814
65153	-9.717389	-0.971110	-1.493087	0.098782	0.145567	0.065018	-0.346646	-0.595619	-0.458398	0.561199
65154	-9.664877	-1.100592	-1.327078	-0.081659	0.051646	0.004285	-0.346907	-0.595409	-0.458284	0.561355
65155	-9.719939	-1.097661	-1.330289	-0.074875	0.053013	0.058651	-0.347179	-0.595229	-0.458039	0.561577
65156	-9.842419	-0.937400	-1.082894	-0.008864	-0.241597	0.130458	-0.347140	-0.595348	-0.457493	0.561920
65157	-9.812450	-0.719822	-1.220891	0.243403	-0.175942	0.097039	-0.347570	-0.595013	-0.457348	0.562127
65158	-9.682659	-0.908915	-1.185639	0.046531	-0.111527	-0.016201	-0.348476	-0.594516	-0.457482	0.561984
65159	-9.711302	-1.033252	-1.439136	0.020975	0.172364	0.057365	-0.349108	-0.594035	-0.457523	0.562067
65160	-9.728305	-0.820540	-1.040897	0.082108	-0.260710	0.001687	-0.348900	-0.594062	-0.456832	0.562729
65161	-9.718173	-0.901493	-0.857013	-0.056394	-0.387915	-0.023082	-0.349112	-0.593883	-0.456295	0.563222
65162	-9.640126	-1.027231	-1.183156	-0.063401	-0.020266	-0.046283	-0.349557	-0.593752	-0.456113	0.563232
65163	-9.617358	-0.948228	-1.423572	0.094040	0.185187	-0.046617	-0.349671	-0.593736	-0.455808	0.563425
65164	-9.753975	-0.716222	-1.344691	0.289425	0.020136	0.055291	-0.350014	-0.593483	-0.455560	0.563679
65165	-9.736498	-0.787977	-1.196363	0.166239	-0.077424	0.026923	-0.350612	-0.593204	-0.455322	0.563792
65166	-9.655552	-0.918014	-1.180152	0.033049	-0.025604	-0.042148	-0.351056	-0.593046	-0.455169	0.563806
65167	-9.646799	-1.030854	-1.203159	-0.066983	0.041522	-0.036964	-0.351204	-0.593067	-0.454958	0.563862
65168	-9.618653	-1.083166	-1.378427	-0.056277	0.233900	-0.038543	-0.351412	-0.593018	-0.454648	0.564034
65169	-9.353829	-1.173564	-1.500692	-0.109445	0.422545	-0.276812	-0.351295	-0.593119	-0.454275	0.564301
65170	-9.767512	0.084776	-0.290634	0.644634	-1.207422	-0.136818	-0.348667	-0.595325	-0.452697	0.564876
65171	-10.403641	0.431905	-1.285926	1.355598	-0.497046	0.579185	-0.351252	-0.593266	-0.453422	0.564859
65172	-9.315983	-2.383976	-2.238033	-0.985681	1.552246	-0.112244	-0.353898	-0.591687	-0.454871	0.563698
65173	-9.817329	-2.017439	-0.381717	-1.282968	-0.361469	0.128090	-0.354423	-0.591357	-0.454939	0.563659
65174	-9.505204	-1.191735	-1.175977	-0.246533	0.142476	-0.165358	-0.353862	-0.591770	-0.454266	0.564121
65175	-9.627951	-1.188128	-1.376709	-0.163249	0.312536	-0.020850	-0.352447	-0.592742	-0.452894	0.565089
65176	-9.565407	-0.846696	-1.162778	0.080507	0.005859	-0.140074	-0.351206	-0.593529	-0.451644	0.566035
65177	-9.680685	-0.582018	-1.178878	0.343823	-0.089387	-0.049596	-0.349731	-0.594359	-0.450546	0.566952
65178	-9.801601	-0.267277	-0.854018	0.527130	-0.522477	0.001655	-0.348861	-0.594879	-0.449853	0.567492
65179	-9.731764	-0.687076	-1.122717	0.234383	-0.116328	0.004202	-0.348878	-0.594873	-0.449958	0.567405
65180	-9.649986	-0.898231	-0.936118	-0.033499	-0.201369	-0.078023	-0.348825	-0.594855	-0.449893	0.567508
65181	-9.678268	-1.023258	-1.152098	-0.068724	0.039566	-0.012842	-0.349161	-0.594621	-0.450210	0.567295
65182	-9.773152	-0.959550	-0.979063	-0.067683	-0.157296	0.054657	-0.348749	-0.594838	-0.449993	0.567493
65183	-9.867463	-0.808080	-0.670398	-0.034674	-0.510920	0.097258	-0.348867	-0.594707	-0.450145	0.567437
65184	-9.690692	-0.945027	-1.090492	-0.016607	-0.048361	-0.015283	-0.349183	-0.594534	-0.450347	0.567264
65185	-9.659204	-0.924713	-0.930313	-0.058484	-0.198574	-0.067025	-0.349235	-0.594491	-0.450393	0.567240
65186	-9.725643	-0.887847	-1.015164	0.009997	-0.140804	0.005003	-0.349318	-0.594405	-0.450321	0.567336
65187	-9.694805	-0.865042	-1.086563	0.057996	-0.074821	-0.019363	-0.349786	-0.593996	-0.450538	0.567304
65188	-9.712381	-1.076671	-1.079655	-0.140181	-0.006452	0.017650	-0.350145	-0.593742	-0.450925	0.567041
65189	-9.712665	-0.957876	-1.116462	-0.016562	-0.012765	0.010725	-0.350337	-0.593566	-0.451003	0.567044
65190	-9.729876	-0.952254	-1.029836	-0.040556	-0.095707	0.017218	-0.350678	-0.593257	-0.451342	0.566888
65191	-9.734120	-0.960867	-1.167276	0.002242	0.034355	0.038084	-0.350825	-0.593096	-0.451460	0.566871
65192	-9.629946	-0.968191	-1.187974	-0.002099	0.074799	-0.061845	-0.351024	-0.592970	-0.451386	0.566938
65193	-9.658216	-0.850964	-1.024204	0.051128	-0.120528	-0.063989	-0.350883	-0.592975	-0.451345	0.567053
65194	-9.694842	-0.942128	-1.161717	0.017960	0.033732	-0.003218	-0.351373	-0.592642	-0.451805	0.566732
65195	-9.687836	-0.993295	-1.178342	-0.024508	0.066931	-0.003293	-0.351447	-0.592574	-0.452020	0.566585
65196	-9.792598	-0.890783	-0.892481	-0.026760	-0.249088	0.057583	-0.351473	-0.592515	-0.452028	0.566624
65197	-9.750942	-0.961123	-1.201262	0.017818	0.069311	0.058611	-0.351823	-0.592207	-0.452263	0.566542
65198	-9.781822	-0.778656	-1.021563	0.127521	-0.160629	0.050977	-0.351800	-0.592079	-0.452022	0.566883
65199	-9.690058	-0.885282	-0.918985	-0.010825	-0.200235	-0.041031	-0.352046	-0.591840	-0.452024	0.566977
65200	-9.674083	-0.951431	-1.342650	0.079466	0.221696	-0.002471	-0.352386	-0.591616	-0.452252	0.566818
65201	-9.643972	-0.979198	-1.273674	0.026718	0.172851	-0.037377	-0.352267	-0.591725	-0.452087	0.566910
65202	-9.614383	-0.994403	-1.222419	-0.008936	0.134502	-0.070955	-0.352451	-0.591671	-0.452272	0.566705
65203	-9.718646	-1.013559	-1.261112	-0.008216	0.160845	0.038396	-0.352470	-0.591622	-0.452388	0.566651
65204	-9.639759	-0.952715	-1.295562	0.057419	0.181988	-0.041572	-0.352509	-0.591548	-0.452499	0.566616
65205	-9.678945	-0.990804	-1.138095	-0.030718	0.041643	-0.016961	-0.352370	-0.591553	-0.452615	0.566604
65206	-9.741840	-0.874323	-1.120900	0.076649	-0.025555	0.031995	-0.352327	-0.591495	-0.452689	0.566632
65207	-9.772712	-0.957133	-1.026527	-0.033454	-0.090383	0.059824	-0.352284	-0.591581	-0.452728	0.566538
65208	-9.643719	-0.916354	-1.173900	0.050798	0.049111	-0.054918	-0.352200	-0.591654	-0.452667	0.566562
65209	-9.751744	-0.929361	-1.274077	0.078672	0.130413	0.064574	-0.352234	-0.591700	-0.452710	0.566460
65210	-9.702858	-0.888822	-1.138222	0.064742	-0.002871	-0.003161	-0.352235	-0.591709	-0.452639	0.566507
65211	-9.646883	-0.894847	-1.159009	0.062928	0.025980	-0.055548	-0.352547	-0.591500	-0.452980	0.566258
65212	-9.744272	-0.998466	-1.132860	-0.038384	0.022379	0.047798	-0.352427	-0.591585	-0.453037	0.566198
65213	-9.740577	-0.886069	-1.110158	0.058486	-0.037546	0.030665	-0.352434	-0.591552	-0.453022	0.566240
65214	-9.610269	-1.031058	-1.325709	-0.005991	0.230807	-0.059505	-0.352314	-0.591617	-0.452924	0.566325
65215	-9.781844	-0.906775	-1.203149	0.075280	0.048657	0.084092	-0.352037	-0.591798	-0.452764	0.566437
65216	-9.680380	-0.868254	-1.151149	0.087625	0.000133	-0.025906	-0.352046	-0.591840	-0.452797	0.566360
65217	-9.662645	-1.009706	-1.042966	-0.085557	-0.050563	-0.042114	-0.351960	-0.591974	-0.452844	0.566236
65218	-9.668240	-0.905666	-1.175347	0.058343	0.031394	-0.031473	-0.352019	-0.591925	-0.453078	0.566063
65219	-9.689572	-1.022988	-1.430463	0.041155	0.302708	0.030442	-0.351999	-0.591897	-0.453260	0.565959
65220	-9.732063	-0.882926	-1.155478	0.076744	-0.008042	0.027119	-0.351709	-0.592015	-0.453070	0.566169
65221	-9.714814	-0.823097	-1.040874	0.091926	-0.134806	-0.009020	-0.351591	-0.592057	-0.453177	0.566112
65222	-9.769207	-0.843561	-0.988982	0.057138	-0.185606	0.040706	-0.351504	-0.592142	-0.453116	0.566126
65223	-9.739955	-0.899767	-1.076146	0.033742	-0.081884	0.027361	-0.351675	-0.592066	-0.453262	0.565983
65224	-9.720967	-0.884122	-1.131090	0.066081	-0.033177	0.013440	-0.351698	-0.592073	-0.453213	0.566000
65225	-9.750602	-0.959361	-1.083356	-0.019215	-0.055678	0.044534	-0.351691	-0.592065	-0.453230	0.565999
65226	-9.646706	-0.979872	-1.183654	-0.006790	0.060320	-0.044554	-0.351819	-0.591935	-0.453287	0.566009
65227	-9.689245	-0.891085	-1.029375	0.023657	-0.118323	-0.028999	-0.351556	-0.592077	-0.453067	0.566201
65228	-9.703933	-0.842011	-1.214856	0.136959	0.034070	0.002161	-0.351595	-0.592056	-0.453113	0.566163
65229	-9.681688	-0.906148	-1.266494	0.094662	0.107447	-0.007602	-0.351449	-0.592141	-0.452962	0.566284
65230	-9.694837	-0.933949	-1.180220	0.039654	0.035831	-0.001868	-0.351366	-0.592162	-0.452892	0.566369
65231	-9.720356	-0.942329	-1.012035	-0.026370	-0.120174	0.004766	-0.351172	-0.592278	-0.452714	0.566511
65232	-9.684949	-0.979158	-1.149825	-0.013470	0.024613	-0.010733	-0.351220	-0.592289	-0.452802	0.566400
65233	-9.733010	-0.813208	-1.187820	0.156226	-0.004083	0.024959	-0.351301	-0.592273	-0.452710	0.566439
65234	-9.697927	-0.999598	-1.205153	-0.013187	0.084217	0.010454	-0.351430	-0.592201	-0.452694	0.566449
65235	-9.718494	-0.946913	-1.041015	-0.020623	-0.086835	0.006759	-0.351252	-0.592259	-0.452449	0.566693
65236	-9.672875	-1.041567	-1.129348	-0.078091	0.036490	-0.018946	-0.351186	-0.592249	-0.452326	0.566843
65237	-9.717941	-0.928898	-1.101368	0.020433	-0.034595	0.011397	-0.350871	-0.592429	-0.452109	0.567023
65238	-9.644131	-0.896562	-1.210457	0.086873	0.064515	-0.052227	-0.350652	-0.592575	-0.451948	0.567135
65239	-9.743199	-0.916389	-1.233594	0.083414	0.078317	0.050292	-0.350667	-0.592487	-0.452034	0.567147
65240	-9.726472	-0.928341	-1.176798	0.050950	0.032368	0.028414	-0.350634	-0.592499	-0.452081	0.567119
65241	-9.739715	-0.912520	-1.189974	0.072744	0.034032	0.041465	-0.350497	-0.592505	-0.452212	0.567093
65242	-9.722619	-1.043201	-1.095575	-0.082338	-0.007582	0.026573	-0.350474	-0.592443	-0.452357	0.567055
65243	-9.722032	-1.291041	-1.238104	-0.259072	0.211808	0.066868	-0.350428	-0.592340	-0.452395	0.567161
65244	-9.663684	-1.162633	-1.267796	-0.129131	0.200592	0.000003	-0.349873	-0.592610	-0.452131	0.567432
65245	-9.726787	-1.181284	-1.288934	-0.132073	0.215994	0.066739	-0.349526	-0.592737	-0.451949	0.567659
65246	-9.679133	-1.145495	-1.245053	-0.112599	0.170214	0.011074	-0.348878	-0.593050	-0.451418	0.568153
65247	-9.653851	-1.172866	-1.329174	-0.104872	0.263126	-0.001524	-0.348461	-0.593278	-0.450920	0.568566
65248	-9.614837	-1.245534	-1.461827	-0.121942	0.420247	-0.017694	-0.347675	-0.593761	-0.450069	0.569217
65249	-9.712288	-1.218733	-1.391223	-0.114761	0.333108	0.067860	-0.346737	-0.594421	-0.449111	0.569857
65250	-9.740721	-1.262025	-1.325741	-0.174668	0.288063	0.092788	-0.345685	-0.595172	-0.447851	0.570704
65251	-9.661011	-1.255582	-1.382457	-0.147629	0.354364	0.019680	-0.344609	-0.595936	-0.446509	0.571607
65252	-9.685890	-1.328421	-1.453851	-0.182648	0.450326	0.059430	-0.343326	-0.596876	-0.444836	0.572702
65253	-9.644375	-1.243313	-1.420630	-0.115677	0.402962	0.005776	-0.342290	-0.597718	-0.443193	0.573717
65254	-9.712187	-1.249078	-1.398471	-0.123141	0.386253	0.070537	-0.341010	-0.598710	-0.441203	0.574977
65255	-9.634715	-1.315253	-1.363691	-0.199626	0.402727	-0.003752	-0.339746	-0.599821	-0.439211	0.576091
65256	-9.614856	-1.319406	-1.280307	-0.235605	0.343888	-0.032519	-0.338150	-0.601046	-0.436844	0.577551
65257	-9.665469	-1.100307	-1.287737	-0.026324	0.268734	-0.003645	-0.336420	-0.602323	-0.434509	0.578991
65258	-9.771036	-0.916251	-1.319625	0.162796	0.219245	0.085771	-0.334505	-0.603712	-0.431876	0.580622
65259	-9.633429	-0.772605	-1.125751	0.209223	0.015787	-0.085244	-0.332578	-0.605115	-0.429107	0.582318
65260	-9.742099	-0.705700	-1.017247	0.229048	-0.112942	0.004444	-0.330932	-0.606400	-0.426635	0.583735
65261	-9.759563	-0.427851	-0.911286	0.432827	-0.317903	-0.016048	-0.329272	-0.607667	-0.424131	0.585179
65262	-9.805824	-0.306276	-0.836625	0.507897	-0.432144	0.010917	-0.328031	-0.608706	-0.421866	0.586432
65263	-9.802855	-0.341478	-0.804736	0.459311	-0.430961	0.008894	-0.327121	-0.609458	-0.419845	0.587608
65264	-9.868058	-0.654720	-0.700587	0.134005	-0.378146	0.093728	-0.326501	-0.609963	-0.418116	0.588660
65265	-9.740968	-0.984715	-0.747396	-0.144059	-0.155775	0.004118	-0.326125	-0.610283	-0.416652	0.589575
65266	-9.695026	-1.045059	-0.899862	-0.128792	0.029064	-0.020957	-0.325173	-0.610957	-0.414786	0.590718
65267	-9.644858	-0.983773	-0.802976	-0.119709	-0.061903	-0.085525	-0.324033	-0.611762	-0.412706	0.591966
65268	-9.664486	-0.996751	-0.969653	-0.050872	0.104714	-0.049365	-0.322528	-0.612770	-0.410286	0.593425
65269	-9.668756	-0.702741	-0.861230	0.161043	-0.113565	-0.082243	-0.320559	-0.613984	-0.407627	0.595068
65270	-9.750319	-0.597922	-0.676137	0.171717	-0.324984	-0.027582	-0.318792	-0.615045	-0.405402	0.596440
65271	-9.694040	-0.530228	-0.849518	0.314286	-0.191866	-0.074020	-0.317527	-0.615811	-0.403723	0.597462
65272	-9.642661	-0.619790	-0.864671	0.242454	-0.125598	-0.115361	-0.316398	-0.616559	-0.402351	0.598215
65273	-9.649654	-0.657564	-0.932770	0.243906	-0.047368	-0.098958	-0.315337	-0.617221	-0.401232	0.598843
65274	-9.753594	-0.617498	-0.737532	0.185952	-0.249637	-0.016721	-0.314152	-0.618001	-0.400137	0.599394
65275	-9.806957	-0.704540	-0.618920	0.054018	-0.318647	0.033702	-0.313053	-0.618642	-0.399199	0.599933
65276	-9.795328	-0.748254	-0.680092	0.047074	-0.244276	0.031549	-0.312259	-0.619098	-0.398483	0.600353
65277	-9.758973	-0.699121	-0.642023	0.069492	-0.298298	-0.012447	-0.311732	-0.619423	-0.398071	0.600565
65278	-9.778834	-0.684745	-0.621876	0.072145	-0.327125	0.004083	-0.311278	-0.619717	-0.397673	0.600761
65279	-9.779655	-0.739886	-0.594543	0.010534	-0.324346	0.007560	-0.310767	-0.620065	-0.397213	0.600970
65280	-9.760312	-0.839661	-0.758946	0.006261	-0.131594	0.012147	-0.310384	-0.620306	-0.396791	0.601197
65281	-9.776158	-0.763115	-0.654993	0.020946	-0.260048	0.011597	-0.309837	-0.620592	-0.396249	0.601542
65282	-9.807995	-0.687622	-0.657069	0.089460	-0.300156	0.036335	-0.309630	-0.620648	-0.396093	0.601694
65283	-9.770382	-0.658317	-0.581291	0.076604	-0.375265	-0.010394	-0.309484	-0.620676	-0.396062	0.601761
65284	-9.735364	-0.780400	-0.827667	0.096234	-0.099768	-0.012068	-0.309679	-0.620517	-0.396341	0.601640
65285	-9.691697	-0.836405	-0.930601	0.100359	0.020810	-0.041092	-0.309657	-0.620422	-0.396506	0.601641
65286	-9.703156	-0.778106	-0.956964	0.165771	0.009910	-0.032867	-0.309625	-0.620380	-0.396796	0.601510
65287	-9.718614	-0.808233	-0.915963	0.119795	-0.017365	-0.018350	-0.309648	-0.620349	-0.397174	0.601280
65288	-9.738419	-0.908317	-0.891693	0.021605	0.003075	0.008539	-0.309822	-0.620229	-0.397777	0.600916
65289	-9.662829	-0.936758	-0.891582	-0.005124	0.018491	-0.063723	-0.310025	-0.620011	-0.398588	0.600498
65290	-9.664871	-0.994595	-1.048980	0.024496	0.171337	-0.041846	-0.310107	-0.619885	-0.399451	0.600013
65291	-9.716343	-1.011373	-1.051027	0.013865	0.162902	0.011167	-0.309855	-0.619909	-0.400028	0.599734
65292	-9.745903	-0.924326	-0.922067	0.026639	-0.006058	0.020240	-0.309603	-0.619938	-0.400494	0.599523
65293	-9.739229	-0.927976	-0.915709	0.022059	-0.018368	0.013370	-0.309585	-0.619830	-0.401084	0.599250
65294	-9.713375	-1.047275	-0.939825	-0.069001	0.056330	0.001679	-0.309703	-0.619682	-0.401716	0.598918
65295	-9.696185	-1.042855	-0.906240	-0.082125	0.019571	-0.018930	-0.309794	-0.619583	-0.402300	0.598581
65296	-9.707297	-0.984886	-0.936742	-0.017129	0.008540	-0.010712	-0.309931	-0.619482	-0.402861	0.598237
65297	-9.748895	-0.947613	-0.869361	-0.016022	-0.080171	0.020320	-0.309656	-0.619565	-0.403053	0.598164
65298	-9.742934	-0.902116	-0.821346	0.000691	-0.148079	0.005217	-0.309678	-0.619467	-0.403369	0.598041
65299	-9.732368	-0.889425	-0.815177	0.009162	-0.162206	-0.007170	-0.309819	-0.619316	-0.403785	0.597844
65300	-9.773146	-0.852068	-0.792802	0.032857	-0.208097	0.027260	-0.310014	-0.619158	-0.404135	0.597670
65301	-9.705416	-0.961962	-0.845748	-0.037290	-0.101160	-0.023707	-0.310210	-0.618946	-0.404420	0.597595
65302	-9.690362	-0.914643	-0.926685	0.043364	-0.053637	-0.035485	-0.310386	-0.618847	-0.404735	0.597394
65303	-9.754332	-0.839081	-0.870412	0.083118	-0.149658	0.014792	-0.310545	-0.618763	-0.404988	0.597226
65304	-9.733261	-0.797520	-0.921846	0.141721	-0.124496	-0.005209	-0.311059	-0.618560	-0.405540	0.596794
65305	-9.686002	-1.038067	-1.006121	-0.030606	0.069374	-0.019692	-0.311451	-0.618379	-0.405948	0.596500
65306	-9.693336	-0.962655	-1.036456	0.048071	0.056589	-0.016964	-0.311944	-0.618118	-0.406514	0.596127
65307	-9.697295	-0.919467	-1.061013	0.096455	0.055359	-0.014915	-0.312396	-0.617854	-0.406983	0.595844
65308	-9.712953	-0.977102	-0.916385	-0.025945	-0.045646	-0.007934	-0.313007	-0.617554	-0.407625	0.595396
65309	-9.730621	-0.997791	-1.051858	0.019612	0.077780	0.025023	-0.313866	-0.617111	-0.408471	0.594822
65310	-9.689013	-1.126052	-1.157720	-0.047383	0.235142	0.007076	-0.314659	-0.616751	-0.409196	0.594278
65311	-9.674663	-1.069279	-1.032599	-0.062792	0.100232	-0.025209	-0.315246	-0.616491	-0.409767	0.593843
65312	-9.656575	-1.025412	-0.986779	-0.049678	0.039812	-0.052022	-0.315656	-0.616290	-0.410260	0.593494
65313	-9.725577	-0.916577	-0.886698	-0.002077	-0.110072	-0.004473	-0.316253	-0.616000	-0.410902	0.593033
65314	-9.726812	-0.952624	-1.105270	0.067315	0.096309	0.022259	-0.317115	-0.615552	-0.411668	0.592507
65315	-9.739856	-0.943814	-1.101718	0.070892	0.088286	0.033964	-0.317843	-0.615159	-0.412252	0.592118
65316	-9.725553	-0.808083	-0.876137	0.080550	-0.169333	-0.016166	-0.318541	-0.614809	-0.412839	0.591697
65317	-9.723591	-0.882948	-0.863652	0.005223	-0.144710	-0.012037	-0.319395	-0.614399	-0.413528	0.591181
65318	-9.710387	-1.021435	-0.988850	-0.062470	0.031274	0.000971	-0.320214	-0.614001	-0.414210	0.590674
65319	-9.677392	-1.015766	-1.099417	-0.011001	0.130602	-0.021098	-0.320986	-0.613618	-0.414819	0.590225
65320	-9.711802	-1.060456	-1.189437	-0.010859	0.226880	0.026359	-0.321766	-0.613218	-0.415402	0.589807
65321	-9.659299	-1.023061	-1.072854	-0.037071	0.115275	-0.041041	-0.322291	-0.612975	-0.415816	0.589481
65322	-9.650778	-0.938288	-1.059849	0.028589	0.066671	-0.058923	-0.322791	-0.612754	-0.416279	0.589110
65323	-9.651787	-0.914717	-1.098892	0.064132	0.087568	-0.056178	-0.323200	-0.612605	-0.416838	0.588645
65324	-9.681308	-0.960336	-1.133071	0.036538	0.129252	-0.019027	-0.323658	-0.612406	-0.417541	0.588102
65325	-9.689116	-0.974742	-1.197364	0.050169	0.185563	-0.003212	-0.324030	-0.612224	-0.418198	0.587619
65326	-9.643427	-0.967637	-1.127943	0.020171	0.120582	-0.056186	-0.324492	-0.611989	-0.419048	0.587003
65327	-9.689989	-0.821735	-0.919430	0.053726	-0.144541	-0.045769	-0.324889	-0.611830	-0.419980	0.586283
65328	-9.709822	-0.798178	-0.925675	0.074425	-0.162217	-0.027865	-0.325642	-0.611430	-0.421211	0.585399
65329	-9.621924	-0.851398	-1.010229	0.057312	-0.061672	-0.100851	-0.326458	-0.610990	-0.422569	0.584424
65330	-9.715773	-1.058684	-1.239877	-0.026835	0.208323	0.036689	-0.327410	-0.610400	-0.424157	0.583357
65331	-9.698670	-0.942347	-1.211904	0.060878	0.123340	0.005764	-0.328117	-0.609897	-0.425593	0.582439
65332	-9.727318	-0.850800	-1.034986	0.065094	-0.089997	0.005837	-0.328838	-0.609359	-0.427071	0.581513
65333	-9.672386	-0.975996	-1.129609	-0.010381	0.042917	-0.025877	-0.329643	-0.608796	-0.428620	0.580506
65334	-9.694665	-1.002798	-1.081864	-0.056226	-0.004606	-0.006599	-0.330299	-0.608310	-0.430036	0.579595
65335	-9.677417	-1.053061	-1.187990	-0.058851	0.101871	-0.006628	-0.331073	-0.607718	-0.431506	0.578681
65336	-9.744325	-0.916025	-1.237661	0.088232	0.068683	0.051910	-0.331658	-0.607206	-0.432819	0.577902
65337	-9.732487	-0.846989	-1.260145	0.159295	0.052029	0.036098	-0.332432	-0.606594	-0.434220	0.577049
65338	-9.768954	-0.914841	-1.200295	0.072646	0.010081	0.071882	-0.333115	-0.606095	-0.435579	0.576155
65339	-9.739057	-0.956718	-1.327032	0.084356	0.134908	0.061533	-0.333777	-0.605563	-0.436881	0.575344
65340	-9.681107	-0.967845	-1.357723	0.082601	0.165135	0.009220	-0.334400	-0.605101	-0.438182	0.574478
65341	-9.769743	-0.983309	-1.222560	0.014324	0.024764	0.082191	-0.335066	-0.604646	-0.439411	0.573631
65342	-9.783717	-0.913171	-1.217682	0.074751	-0.018494	0.088414	-0.335675	-0.604212	-0.440452	0.572933
65343	-9.795683	-0.884453	-1.048956	0.032000	-0.190752	0.076729	-0.336362	-0.603745	-0.441389	0.572301
65344	-9.804820	-0.969124	-1.024536	-0.056919	-0.184608	0.091152	-0.337253	-0.603184	-0.442333	0.571639
65345	-9.742341	-0.945543	-1.114712	-0.004691	-0.103176	0.038159	-0.338096	-0.602656	-0.443080	0.571119
65346	-9.711030	-0.964827	-1.092929	-0.035178	-0.110028	0.006485	-0.338918	-0.602173	-0.443749	0.570622
65347	-9.720911	-0.994780	-1.179665	-0.030478	-0.019535	0.029873	-0.339634	-0.601722	-0.444299	0.570244
65348	-9.782796	-0.986355	-1.170794	-0.024537	-0.037496	0.089067	-0.340055	-0.601448	-0.444513	0.570115
65349	-9.681547	-0.821443	-1.063698	0.079486	-0.178215	-0.040252	-0.340627	-0.601133	-0.444697	0.569963
65350	-9.687960	-0.935729	-1.031351	-0.040305	-0.160883	-0.026557	-0.341287	-0.600798	-0.445024	0.569666
65351	-9.690507	-0.969566	-1.135769	-0.034601	-0.050146	-0.007982	-0.342070	-0.600411	-0.445535	0.569204
65352	-9.750167	-0.895815	-1.197110	0.055917	-0.027935	0.051258	-0.342725	-0.600055	-0.445912	0.568891
65353	-9.717170	-0.850626	-1.240890	0.110866	0.005462	0.019629	-0.343384	-0.599651	-0.446104	0.568768
65354	-9.671270	-0.907004	-1.075099	-0.008343	-0.111704	-0.040307	-0.344002	-0.599315	-0.446280	0.568612
65355	-9.729398	-1.044971	-1.161672	-0.102149	0.017097	0.040834	-0.344867	-0.598766	-0.446648	0.568376
65356	-9.723109	-0.917173	-1.230278	0.040486	0.042013	0.030595	-0.345700	-0.598209	-0.446925	0.568239
65357	-9.725807	-0.826934	-1.274898	0.138164	0.060262	0.029963	-0.347176	-0.597316	-0.447599	0.567747
65358	-9.649474	-1.021219	-1.280619	-0.047863	0.159076	-0.026595	-0.348528	-0.596532	-0.448153	0.567306
65359	-9.708257	-0.994797	-1.265634	-0.028854	0.139300	0.027102	-0.349239	-0.596041	-0.448099	0.567429
65360	-9.621249	-0.886214	-1.218005	0.049542	0.080615	-0.074701	-0.350257	-0.595403	-0.448431	0.567208
65361	-9.551733	-1.010781	-1.513189	0.034860	0.416248	-0.098135	-0.351683	-0.594560	-0.449289	0.566530
65362	-9.599850	-0.944070	-1.291070	0.011754	0.186249	-0.082301	-0.352758	-0.593982	-0.449932	0.565958
65363	-9.771770	-0.901133	-1.066083	-0.025660	-0.056128	0.058091	-0.353410	-0.593568	-0.450219	0.565758
65364	-9.743391	-0.809330	-1.126162	0.077389	-0.023643	0.028572	-0.353997	-0.593312	-0.450387	0.565525
65365	-9.686546	-0.809171	-1.051326	0.043282	-0.080850	-0.036144	-0.354778	-0.593006	-0.450710	0.565099
65366	-9.700335	-0.955638	-1.051076	-0.098303	-0.027621	-0.009419	-0.355703	-0.592549	-0.451166	0.564633
65367	-9.723666	-0.967605	-1.178841	-0.066911	0.098154	0.029136	-0.356219	-0.592272	-0.451158	0.564604
65368	-9.687336	-0.927029	-1.157972	-0.039374	0.076581	-0.012823	-0.356513	-0.592110	-0.451050	0.564675
65369	-9.647335	-0.947297	-1.200841	-0.046204	0.132773	-0.045871	-0.356653	-0.592093	-0.451028	0.564622
65370	-9.604378	-0.848427	-1.191737	0.039324	0.096486	-0.098096	-0.356703	-0.592154	-0.451023	0.564531
65371	-9.710608	-0.906076	-1.368845	0.049886	0.265950	0.031976	-0.357091	-0.591969	-0.451347	0.564220
65372	-9.679308	-0.853939	-1.385131	0.099936	0.267280	-0.001705	-0.357441	-0.591836	-0.451576	0.563954
65373	-9.670828	-0.875387	-1.246506	0.027845	0.146791	-0.023782	-0.358005	-0.591491	-0.452085	0.563551
65374	-9.637552	-1.022123	-1.222579	-0.120945	0.177496	-0.046639	-0.358366	-0.591207	-0.452621	0.563189
65375	-9.708170	-0.997078	-1.042793	-0.157511	-0.012939	0.000832	-0.358406	-0.591141	-0.453054	0.562885
65376	-9.693845	-0.952069	-1.196951	-0.062487	0.111943	0.000229	-0.358589	-0.590954	-0.453513	0.562595
65377	-9.702008	-0.823546	-1.188916	0.055760	0.054121	-0.003780	-0.358322	-0.591112	-0.453677	0.562467
65378	-9.774196	-0.806487	-0.962448	-0.003842	-0.178747	0.040214	-0.357979	-0.591377	-0.453630	0.562445
65379	-9.736024	-0.802805	-1.139029	0.057342	-0.014538	0.022380	-0.358299	-0.591264	-0.453983	0.562074
65380	-9.688413	-0.882641	-1.062301	-0.047775	-0.055469	-0.026599	-0.357837	-0.591604	-0.453714	0.562228
65381	-9.768842	-0.726693	-0.868551	0.033844	-0.303420	0.016836	-0.357650	-0.591790	-0.453706	0.562158
65382	-9.817311	-0.752133	-0.928780	0.032161	-0.247005	0.073965	-0.357656	-0.591806	-0.453657	0.562178
65383	-9.707439	-0.825336	-1.044718	-0.001370	-0.096875	-0.014851	-0.357918	-0.591657	-0.453668	0.562158
65384	-9.739855	-0.860364	-1.043888	-0.033816	-0.087722	0.020210	-0.358327	-0.591384	-0.453967	0.561944
65385	-9.713585	-0.817093	-1.195292	0.057371	0.044768	0.007944	-0.358518	-0.591270	-0.453921	0.561979
65386	-9.706580	-0.859583	-0.989097	-0.055125	-0.128898	-0.019055	-0.358397	-0.591466	-0.453612	0.562099
