// General information: 
//  MT Manager version: 2021.0.0 
//  XDA version: 2021.0.0 build 5908 rev 109668 built on 2021-04-19
// Device information: 
//  DeviceId: 00B43DF5
//  ProductCode: MTW2-3A7G6
//  Firmware Version: 4.3.5
//  Hardware Version: 1.1.0
// Device settings: 
//  Filter Profile: human(46.1)
//  Option Flags: Orientation Smoother Disabled, Position/Velocity Smoother Disabled, Continuous Zero Rotation Update Disabled, AHS Disabled, ICC Disabled
// Coordinate system: ENU
PacketCounter	Acc_X	Acc_Y	Acc_Z	FreeAcc_E	FreeAcc_N	FreeAcc_U	Quat_q0	Quat_q1	Quat_q2	Quat_q3
64468	-0.331317	-8.861266	4.183078	-0.048857	-0.114643	-0.008892	-0.841093	0.531233	-0.066488	0.077032
64469	-0.297545	-8.815375	4.212227	-0.013301	-0.075067	-0.038415	-0.841112	0.531196	-0.066261	0.077276
64470	-0.236120	-8.790276	4.187167	0.037671	-0.098989	-0.073804	-0.841140	0.531146	-0.066073	0.077473
64471	-0.246117	-8.795287	4.177595	0.019958	-0.109106	-0.073198	-0.841230	0.531005	-0.065827	0.077669
64472	-0.200518	-8.750566	4.163285	0.058810	-0.114425	-0.120990	-0.841340	0.530837	-0.065621	0.077803
64473	-0.203197	-8.704255	4.185624	0.058526	-0.076657	-0.152694	-0.841402	0.530749	-0.065407	0.077903
64474	-0.230224	-8.751555	4.216641	0.030233	-0.067445	-0.095831	-0.841533	0.530554	-0.065194	0.077997
64475	-0.194502	-8.715247	4.233533	0.066524	-0.048395	-0.122002	-0.841672	0.530339	-0.065050	0.078082
64476	-0.220437	-8.630386	4.262117	0.049000	0.015001	-0.184855	-0.841769	0.530186	-0.064953	0.078162
64477	-0.223440	-8.641965	4.260220	0.042492	0.006812	-0.175202	-0.841808	0.530137	-0.064838	0.078168
64478	-0.254603	-8.657559	4.291170	0.015354	0.032390	-0.146716	-0.841843	0.530088	-0.064768	0.078174
64479	-0.236704	-8.646905	4.250679	0.024500	-0.002422	-0.174603	-0.841842	0.530100	-0.064698	0.078168
64480	-0.241072	-8.701821	4.184879	0.003018	-0.082944	-0.154213	-0.841846	0.530109	-0.064620	0.078125
64481	-0.228092	-8.723513	4.231632	0.022776	-0.053555	-0.114490	-0.841830	0.530148	-0.064573	0.078074
64482	-0.258776	-8.712086	4.226151	-0.007272	-0.045261	-0.126323	-0.841745	0.530289	-0.064573	0.078031
64483	-0.274503	-8.695064	4.231599	-0.019771	-0.025822	-0.138760	-0.841613	0.530512	-0.064541	0.077966
64484	-0.240203	-8.695442	4.237874	0.015686	-0.023152	-0.136573	-0.841522	0.530680	-0.064490	0.077854
64485	-0.253374	-8.719078	4.259878	0.006689	-0.006849	-0.105319	-0.841373	0.530939	-0.064470	0.077713
64486	-0.222092	-8.662743	4.287713	0.048256	0.041752	-0.144552	-0.841203	0.531231	-0.064469	0.077550
64487	-0.240406	-8.725024	4.282097	0.027653	0.019435	-0.090597	-0.841054	0.531491	-0.064481	0.077379
64488	-0.312658	-8.715754	4.354106	-0.026480	0.106503	-0.065466	-0.840922	0.531732	-0.064440	0.077196
64489	-0.268338	-8.723509	4.366772	0.020213	0.111200	-0.054228	-0.840765	0.532033	-0.064308	0.076939
64490	-0.278055	-8.734183	4.256006	-0.009189	0.020492	-0.092793	-0.840440	0.532591	-0.064242	0.076681
64491	-0.210366	-8.795683	4.162843	0.037230	-0.090182	-0.079855	-0.840183	0.533066	-0.064029	0.076378
64492	-0.143652	-8.873171	4.030843	0.073861	-0.243611	-0.069142	-0.839971	0.533449	-0.063920	0.076127
64493	-0.175235	-8.929716	3.938969	0.023348	-0.337160	-0.057084	-0.839909	0.533567	-0.063892	0.076010
64494	-0.213880	-8.818155	4.110593	0.026143	-0.130103	-0.082067	-0.839965	0.533498	-0.063891	0.075879
64495	-0.214417	-8.763532	4.101045	0.028478	-0.116939	-0.135418	-0.840021	0.533405	-0.063964	0.075847
64496	-0.252998	-8.791803	4.127798	-0.004988	-0.100342	-0.097317	-0.840092	0.533291	-0.064009	0.075824
64497	-0.282351	-8.787892	4.280337	-0.004140	0.037332	-0.033800	-0.840236	0.533056	-0.064057	0.075835
64498	-0.317800	-8.860241	4.213478	-0.056275	-0.052175	0.003237	-0.840438	0.532725	-0.064097	0.075888
64499	-0.355193	-8.781827	4.140110	-0.102972	-0.080582	-0.098262	-0.840511	0.532602	-0.064086	0.075961
64500	-0.199207	-8.878114	4.125377	0.040200	-0.166306	-0.022384	-0.840457	0.532688	-0.064052	0.075982
64501	-0.067435	-8.950998	4.245819	0.186423	-0.119293	0.092004	-0.840589	0.532469	-0.064019	0.076077
64502	-0.151697	-8.642653	4.347743	0.140502	0.114546	-0.138574	-0.840747	0.532145	-0.064198	0.076458
64503	-0.336936	-8.487195	4.292624	-0.044634	0.165598	-0.297268	-0.840797	0.531993	-0.064240	0.076923
64504	-0.371423	-8.618818	4.288828	-0.091569	0.110878	-0.179654	-0.840800	0.531957	-0.064167	0.077194
64505	-0.294950	-8.781284	4.219297	-0.043659	-0.035330	-0.066034	-0.840774	0.532003	-0.064047	0.077268
64506	-0.179430	-8.843194	4.154785	0.049772	-0.142094	-0.041616	-0.840835	0.531918	-0.063853	0.077343
64507	-0.182365	-8.882650	4.187802	0.045799	-0.132867	0.008344	-0.840980	0.531682	-0.063674	0.077540
64508	-0.243650	-8.885850	4.140637	-0.029781	-0.169148	-0.007941	-0.841166	0.531359	-0.063504	0.077875
64509	-0.231360	-8.823331	4.160848	-0.016911	-0.133637	-0.055679	-0.841372	0.531006	-0.063318	0.078208
64510	-0.232719	-8.749653	4.209274	-0.011912	-0.066433	-0.100632	-0.841604	0.530615	-0.063089	0.078554
64511	-0.177139	-8.695313	4.301951	0.055880	0.019910	-0.109951	-0.841812	0.530273	-0.062836	0.078831
64512	-0.123470	-8.658585	4.353232	0.113934	0.063359	-0.121456	-0.841996	0.529966	-0.062671	0.079067
64513	-0.112342	-8.560608	4.318606	0.119761	0.068138	-0.224778	-0.842125	0.529748	-0.062529	0.079265
64514	-0.095269	-8.594891	4.273191	0.121837	0.007895	-0.214433	-0.842125	0.529754	-0.062410	0.079317
64515	-0.116981	-8.737771	4.242179	0.082617	-0.078423	-0.099530	-0.842204	0.529647	-0.062300	0.079273
64516	-0.114653	-8.818418	4.202568	0.070710	-0.152842	-0.044839	-0.842373	0.529422	-0.062174	0.079085
64517	-0.156211	-8.779542	4.236914	0.039034	-0.103726	-0.063640	-0.842590	0.529119	-0.062094	0.078864
64518	-0.180933	-8.773499	4.302784	0.028149	-0.046461	-0.039355	-0.842837	0.528754	-0.062074	0.078684
64519	-0.161911	-8.703668	4.335651	0.058398	0.000147	-0.087745	-0.843105	0.528361	-0.062030	0.078489
64520	-0.149678	-8.692895	4.356564	0.075425	0.012298	-0.088356	-0.843321	0.528040	-0.062007	0.078346
64521	-0.170220	-8.605873	4.374501	0.064687	0.064139	-0.157741	-0.843472	0.527831	-0.061927	0.078197
64522	-0.112423	-8.619461	4.369333	0.119127	0.037271	-0.149188	-0.843616	0.527630	-0.061850	0.078055
64523	-0.139739	-8.592218	4.374072	0.095162	0.054676	-0.170790	-0.843723	0.527477	-0.061834	0.077954
64524	-0.137028	-8.541430	4.329915	0.093843	0.034005	-0.235997	-0.843847	0.527301	-0.061839	0.077790
64525	-0.135634	-8.552014	4.316629	0.094140	0.014577	-0.232523	-0.843890	0.527258	-0.061893	0.077568
64526	-0.112204	-8.659208	4.274470	0.105568	-0.076104	-0.156155	-0.843947	0.527200	-0.061982	0.077279
64527	-0.134231	-8.742725	4.256777	0.079537	-0.127877	-0.088968	-0.844089	0.527001	-0.062112	0.076981
64528	-0.183356	-8.724781	4.303652	0.046015	-0.074593	-0.082880	-0.844234	0.526784	-0.062270	0.076751
64529	-0.180036	-8.771655	4.255530	0.041871	-0.143930	-0.062743	-0.844388	0.526547	-0.062463	0.076522
64530	-0.173376	-8.840390	4.266417	0.050801	-0.173327	0.003230	-0.844597	0.526225	-0.062642	0.076283
64531	-0.175203	-8.805617	4.318919	0.066056	-0.120420	-0.004335	-0.844839	0.525839	-0.062877	0.076073
64532	-0.177295	-8.727612	4.299734	0.070108	-0.111593	-0.082683	-0.845089	0.525427	-0.063104	0.075953
64533	-0.249096	-8.686753	4.315707	0.009584	-0.075710	-0.110048	-0.845367	0.524960	-0.063375	0.075858
64534	-0.252140	-8.643364	4.350695	0.020577	-0.036103	-0.132908	-0.845637	0.524492	-0.063704	0.075808
64535	-0.305000	-8.608200	4.362416	-0.021769	-0.009384	-0.157418	-0.845842	0.524131	-0.064034	0.075743
64536	-0.332716	-8.658892	4.406082	-0.038932	0.002216	-0.091621	-0.846077	0.523724	-0.064331	0.075691
64537	-0.320940	-8.652812	4.391506	-0.025483	-0.019352	-0.104008	-0.846299	0.523340	-0.064598	0.075638
64538	-0.307731	-8.628675	4.416978	-0.002268	0.001877	-0.114316	-0.846537	0.522940	-0.064820	0.075550
64539	-0.330330	-8.684010	4.425962	-0.023030	-0.020294	-0.060286	-0.846780	0.522547	-0.064962	0.075424
64540	-0.269991	-8.630047	4.416110	0.040211	-0.026010	-0.114732	-0.847044	0.522113	-0.065117	0.075326
64541	-0.303776	-8.646121	4.418624	0.009151	-0.033901	-0.098230	-0.847267	0.521738	-0.065281	0.075267
64542	-0.365829	-8.657613	4.435119	-0.047311	-0.021261	-0.078435	-0.847488	0.521363	-0.065423	0.075271
64543	-0.300330	-8.626197	4.481823	0.029013	0.012943	-0.087092	-0.847664	0.521071	-0.065502	0.075231
64544	-0.287401	-8.648311	4.500652	0.045021	0.008918	-0.059246	-0.847889	0.520696	-0.065603	0.075202
64545	-0.400543	-8.509614	4.464214	-0.063243	0.055665	-0.195200	-0.848048	0.520424	-0.065701	0.075211
64546	-0.341711	-8.564690	4.476261	-0.005536	0.026003	-0.142791	-0.848063	0.520419	-0.065704	0.075072
64547	-0.217771	-8.750244	4.512598	0.112706	-0.053337	0.034251	-0.848129	0.520330	-0.065709	0.074944
64548	-0.283961	-8.650886	4.490258	0.050575	-0.018774	-0.061894	-0.848313	0.520020	-0.065784	0.074949
64549	-0.394554	-8.545682	4.451056	-0.058639	0.011748	-0.169416	-0.848423	0.519845	-0.065783	0.074919
64550	-0.350840	-8.600087	4.431820	-0.022708	-0.042354	-0.131608	-0.848527	0.519687	-0.065775	0.074842
64551	-0.323183	-8.559230	4.480960	0.016958	0.010375	-0.146071	-0.848593	0.519582	-0.065824	0.074781
64552	-0.328835	-8.552427	4.518902	0.019863	0.045103	-0.134352	-0.848656	0.519492	-0.065811	0.074697
64553	-0.351054	-8.538505	4.504598	-0.003305	0.042069	-0.152515	-0.848678	0.519467	-0.065804	0.074629
64554	-0.342690	-8.563231	4.473153	-0.002240	0.002289	-0.145452	-0.848643	0.519550	-0.065736	0.074504
64555	-0.326312	-8.622010	4.483634	0.012670	-0.017848	-0.089106	-0.848639	0.519578	-0.065696	0.074393
64556	-0.370758	-8.649629	4.464318	-0.035942	-0.036903	-0.071998	-0.848572	0.519715	-0.065609	0.074278
64557	-0.337299	-8.683995	4.525880	0.006116	-0.003078	-0.014265	-0.848511	0.519840	-0.065498	0.074197
64558	-0.303989	-8.669376	4.495431	0.032683	-0.026909	-0.042447	-0.848477	0.519931	-0.065332	0.074101
64559	-0.270371	-8.603294	4.506380	0.069868	0.008279	-0.097118	-0.848446	0.520011	-0.065163	0.074039
64560	-0.294483	-8.578870	4.504435	0.045818	0.025604	-0.118828	-0.848339	0.520206	-0.065049	0.073991
64561	-0.297449	-8.644808	4.455967	0.028436	-0.041423	-0.082615	-0.848218	0.520418	-0.064920	0.073999
64562	-0.208541	-8.635766	4.430127	0.108957	-0.072617	-0.105535	-0.848125	0.520577	-0.064778	0.074078
64563	-0.241886	-8.604643	4.420662	0.073633	-0.057365	-0.136328	-0.848086	0.520632	-0.064687	0.074216
64564	-0.238038	-8.567423	4.501166	0.092311	0.029310	-0.132372	-0.848103	0.520600	-0.064611	0.074310
64565	-0.341073	-8.467787	4.555329	0.005708	0.142586	-0.192376	-0.848054	0.520659	-0.064603	0.074468
64566	-0.343737	-8.507071	4.529389	-0.006345	0.104958	-0.169414	-0.847977	0.520778	-0.064498	0.074603
64567	-0.337103	-8.657190	4.483962	-0.020567	-0.001225	-0.057378	-0.847902	0.520902	-0.064365	0.074710
64568	-0.311875	-8.712420	4.384849	-0.021266	-0.115498	-0.054786	-0.847898	0.520922	-0.064179	0.074771
64569	-0.268987	-8.749116	4.358712	0.009482	-0.162468	-0.035609	-0.847889	0.520952	-0.063950	0.074854
64570	-0.199470	-8.766305	4.394641	0.078664	-0.153455	-0.006005	-0.847966	0.520827	-0.063777	0.075006
64571	-0.207934	-8.673799	4.433010	0.078476	-0.079452	-0.070145	-0.848080	0.520622	-0.063648	0.075250
64572	-0.239482	-8.570134	4.510053	0.063515	0.037588	-0.125599	-0.848154	0.520469	-0.063542	0.075561
64573	-0.268244	-8.532746	4.583345	0.046499	0.122402	-0.124054	-0.848161	0.520430	-0.063429	0.075850
64574	-0.247036	-8.549358	4.521918	0.050295	0.057922	-0.138267	-0.848118	0.520461	-0.063375	0.076162
64575	-0.229883	-8.561083	4.494889	0.057578	0.027215	-0.140823	-0.848072	0.520504	-0.063318	0.076426
64576	-0.233488	-8.585865	4.430842	0.036899	-0.037107	-0.148257	-0.848010	0.520573	-0.063263	0.076691
64577	-0.208229	-8.545791	4.432960	0.061837	-0.020156	-0.183523	-0.847968	0.520613	-0.063238	0.076899
64578	-0.210313	-8.540662	4.467924	0.064726	0.014559	-0.171884	-0.847905	0.520687	-0.063242	0.077083
64579	-0.211074	-8.619722	4.460542	0.055910	-0.025641	-0.105123	-0.847838	0.520772	-0.063258	0.077239
64580	-0.233969	-8.608855	4.498886	0.040598	0.018370	-0.096458	-0.847824	0.520775	-0.063281	0.077352
64581	-0.229153	-8.621195	4.483203	0.040941	-0.000951	-0.092865	-0.847778	0.520825	-0.063328	0.077479
64582	-0.232699	-8.686195	4.436645	0.023477	-0.067885	-0.056521	-0.847680	0.520965	-0.063330	0.077612
64583	-0.190634	-8.756721	4.406946	0.053167	-0.130925	-0.008724	-0.847594	0.521091	-0.063302	0.077721
64584	-0.199203	-8.732418	4.437641	0.050877	-0.089158	-0.015906	-0.847539	0.521138	-0.063362	0.077963
64585	-0.271555	-8.704433	4.473433	-0.012423	-0.028730	-0.022309	-0.847447	0.521239	-0.063446	0.078220
64586	-0.300132	-8.633441	4.433176	-0.043964	-0.022233	-0.103053	-0.847323	0.521390	-0.063542	0.078471
64587	-0.195717	-8.631020	4.459335	0.062772	-0.015564	-0.095985	-0.847208	0.521541	-0.063595	0.078668
64588	-0.212891	-8.642909	4.366295	0.026591	-0.095329	-0.127651	-0.847136	0.521611	-0.063685	0.078904
64589	-0.205932	-8.576947	4.356653	0.035066	-0.073566	-0.190826	-0.847097	0.521646	-0.063707	0.079080
64590	-0.198789	-8.534789	4.458845	0.064218	0.035523	-0.181589	-0.846966	0.521832	-0.063781	0.079195
64591	-0.117978	-8.639925	4.535195	0.151075	0.041497	-0.055348	-0.846868	0.521962	-0.063861	0.079317
64592	-0.237181	-8.669311	4.453151	0.016094	-0.017183	-0.063677	-0.846853	0.521959	-0.063884	0.079480
64593	-0.264480	-8.629796	4.414236	-0.016477	-0.026759	-0.115893	-0.846823	0.522003	-0.063852	0.079544
64594	-0.165505	-8.752914	4.297002	0.048878	-0.203131	-0.062740	-0.846786	0.522071	-0.063839	0.079494
64595	-0.111025	-8.745293	4.363961	0.116229	-0.153202	-0.040295	-0.846847	0.521956	-0.063926	0.079530
64596	-0.144474	-8.636462	4.463503	0.111635	-0.013920	-0.090571	-0.846924	0.521785	-0.064142	0.079663
64597	-0.269312	-8.509928	4.508545	0.008690	0.104036	-0.179023	-0.847003	0.521584	-0.064408	0.079923
64598	-0.308725	-8.537108	4.535816	-0.025221	0.120864	-0.141291	-0.847006	0.521539	-0.064563	0.080058
64599	-0.305707	-8.574612	4.500359	-0.030226	0.072083	-0.124315	-0.846986	0.521534	-0.064744	0.080162
64600	-0.302726	-8.593963	4.504080	-0.025748	0.066163	-0.105497	-0.846955	0.521559	-0.064913	0.080191
64601	-0.247728	-8.603470	4.475481	0.024326	0.026067	-0.111671	-0.846937	0.521570	-0.065053	0.080189
64602	-0.221211	-8.632958	4.442402	0.043748	-0.022880	-0.101385	-0.847010	0.521444	-0.065154	0.080160
64603	-0.279800	-8.593972	4.440328	-0.009833	0.001449	-0.135340	-0.847117	0.521263	-0.065234	0.080135
64604	-0.325755	-8.711978	4.458267	-0.058250	-0.031695	-0.021037	-0.847238	0.521055	-0.065343	0.080120
64605	-0.239912	-8.737851	4.459694	0.025611	-0.065531	0.000136	-0.847395	0.520781	-0.065472	0.080132
64606	-0.162054	-8.728828	4.421211	0.095801	-0.119222	-0.027882	-0.847659	0.520315	-0.065637	0.080241
64607	-0.250102	-8.681690	4.439608	0.016885	-0.074310	-0.058786	-0.847930	0.519835	-0.065786	0.080366
64608	-0.362598	-8.660494	4.417072	-0.096069	-0.072011	-0.084803	-0.848229	0.519320	-0.065903	0.080446
64609	-0.332004	-8.646488	4.418401	-0.065154	-0.082508	-0.097587	-0.848551	0.518803	-0.065910	0.080379
64610	-0.323327	-8.679802	4.436828	-0.055499	-0.095363	-0.059905	-0.848861	0.518311	-0.065922	0.080265
64611	-0.297040	-8.659928	4.473865	-0.021210	-0.072067	-0.061154	-0.849226	0.517738	-0.065897	0.080124
64612	-0.302173	-8.595384	4.506076	-0.015349	-0.025607	-0.103117	-0.849530	0.517260	-0.065898	0.079983
64613	-0.324659	-8.565657	4.558175	-0.024712	0.027490	-0.104368	-0.849784	0.516865	-0.065901	0.079845
64614	-0.333533	-8.515377	4.583483	-0.025079	0.064864	-0.136616	-0.850064	0.516436	-0.065825	0.079704
64615	-0.305056	-8.503314	4.637551	0.013464	0.101568	-0.122704	-0.850322	0.516034	-0.065781	0.079589
64616	-0.278436	-8.477741	4.652108	0.043505	0.111393	-0.139145	-0.850569	0.515638	-0.065762	0.079537
64617	-0.298980	-8.500682	4.661842	0.023545	0.105625	-0.113614	-0.850735	0.515365	-0.065799	0.079496
64618	-0.310332	-8.523787	4.659047	0.010631	0.088591	-0.094148	-0.850893	0.515094	-0.065861	0.079510
64619	-0.287652	-8.584257	4.586449	0.014246	-0.012258	-0.075780	-0.851018	0.514877	-0.065884	0.079557
64620	-0.283968	-8.567845	4.596700	0.019860	-0.002161	-0.085517	-0.851189	0.514580	-0.065880	0.079654
64621	-0.330681	-8.527001	4.584831	-0.026702	0.010768	-0.125637	-0.851309	0.514366	-0.065896	0.079738
64622	-0.358591	-8.578053	4.583139	-0.059030	-0.013018	-0.080623	-0.851407	0.514202	-0.065869	0.079772
64623	-0.348460	-8.581651	4.596386	-0.048339	-0.009868	-0.071513	-0.851557	0.513962	-0.065792	0.079783
64624	-0.340333	-8.590700	4.531738	-0.055689	-0.076523	-0.094476	-0.851702	0.513735	-0.065689	0.079777
64625	-0.343832	-8.581469	4.572924	-0.052906	-0.041658	-0.082994	-0.851869	0.513456	-0.065611	0.079852
64626	-0.340220	-8.598075	4.638245	-0.040758	-0.000244	-0.037500	-0.852035	0.513174	-0.065525	0.079965
64627	-0.352127	-8.496980	4.656659	-0.045016	0.059940	-0.117249	-0.852183	0.512921	-0.065418	0.080102
64628	-0.402454	-8.456542	4.600542	-0.106183	0.036900	-0.177989	-0.852284	0.512755	-0.065264	0.080218
64629	-0.285489	-8.483203	4.621442	0.006385	0.016339	-0.148131	-0.852314	0.512730	-0.065046	0.080241
64630	-0.275538	-8.534285	4.627471	0.009826	-0.005458	-0.100669	-0.852365	0.512658	-0.064867	0.080296
64631	-0.350366	-8.451018	4.606530	-0.065135	0.030478	-0.181622	-0.852386	0.512634	-0.064687	0.080372
64632	-0.258744	-8.520464	4.676647	0.029491	0.041570	-0.089844	-0.852273	0.512872	-0.064408	0.080285
64633	-0.132901	-8.634752	4.695797	0.144965	-0.017634	0.016137	-0.852225	0.512986	-0.064196	0.080233
64634	-0.260598	-8.581444	4.665032	0.014903	0.009662	-0.041745	-0.852181	0.513068	-0.064023	0.080303
64635	-0.261056	-8.484175	4.664293	0.017644	0.058413	-0.127581	-0.852078	0.513265	-0.063768	0.080346
64636	-0.245383	-8.524453	4.670094	0.027160	0.045617	-0.089855	-0.851990	0.513436	-0.063537	0.080365
64637	-0.250053	-8.466403	4.645466	0.018420	0.055944	-0.152492	-0.851952	0.513525	-0.063303	0.080392
64638	-0.267431	-8.429183	4.646706	0.000710	0.082072	-0.184199	-0.851823	0.513777	-0.063038	0.080354
64639	-0.190422	-8.434510	4.627356	0.068275	0.053078	-0.190725	-0.851694	0.514029	-0.062755	0.080338
64640	-0.169068	-8.514262	4.596355	0.073388	-0.009413	-0.135795	-0.851559	0.514285	-0.062481	0.080333
64641	-0.223102	-8.532072	4.601240	0.016866	0.003365	-0.116444	-0.851422	0.514543	-0.062274	0.080303
64642	-0.223676	-8.554443	4.612196	0.014379	0.008852	-0.091546	-0.851260	0.514849	-0.062056	0.080219
64643	-0.128869	-8.540000	4.608225	0.105584	0.000019	-0.108420	-0.851091	0.515162	-0.061865	0.080152
64644	-0.066022	-8.480840	4.599528	0.168355	0.014147	-0.166127	-0.850932	0.515434	-0.061762	0.080176
64645	-0.142581	-8.486857	4.586793	0.089305	0.022655	-0.165032	-0.850733	0.515751	-0.061714	0.080284
64646	-0.169006	-8.510622	4.575860	0.058099	0.014866	-0.148623	-0.850537	0.516063	-0.061639	0.080415
64647	-0.105327	-8.543754	4.600975	0.120900	0.015212	-0.109031	-0.850360	0.516344	-0.061565	0.080535
64648	-0.158076	-8.561180	4.550355	0.056749	-0.019345	-0.116249	-0.850190	0.516612	-0.061513	0.080657
64649	-0.155108	-8.615270	4.506250	0.045508	-0.077056	-0.089251	-0.850044	0.516853	-0.061408	0.080731
64650	-0.191784	-8.657996	4.468314	-0.002317	-0.116333	-0.068460	-0.849892	0.517109	-0.061321	0.080753
64651	-0.132466	-8.670084	4.435767	0.047797	-0.156457	-0.074249	-0.849761	0.517336	-0.061240	0.080742
64652	-0.127239	-8.613361	4.496740	0.068306	-0.074274	-0.095864	-0.849667	0.517494	-0.061212	0.080741
64653	-0.076709	-8.567421	4.596704	0.140119	0.025536	-0.090754	-0.849632	0.517554	-0.061200	0.080741
64654	-0.122431	-8.492626	4.656860	0.112867	0.124041	-0.127755	-0.849510	0.517735	-0.061271	0.080806
64655	-0.219538	-8.529124	4.515348	-0.011234	0.008669	-0.159589	-0.849399	0.517901	-0.061297	0.080885
64656	-0.175947	-8.658956	4.465472	0.011836	-0.099137	-0.069026	-0.849299	0.518083	-0.061206	0.080834
64657	-0.136071	-8.697089	4.437334	0.042527	-0.145890	-0.049250	-0.849250	0.518194	-0.061129	0.080704
64658	-0.107610	-8.683303	4.462048	0.076891	-0.122579	-0.050502	-0.849247	0.518224	-0.061110	0.080558
64659	-0.143428	-8.665279	4.492727	0.050184	-0.080635	-0.051375	-0.849269	0.518207	-0.061106	0.080432
64660	-0.160657	-8.601007	4.560616	0.052479	0.010794	-0.076185	-0.849264	0.518213	-0.061190	0.080387
64661	-0.145994	-8.522451	4.597562	0.082088	0.077125	-0.128764	-0.849189	0.518327	-0.061319	0.080340
64662	-0.240225	-8.547769	4.613571	-0.005995	0.101510	-0.096888	-0.849071	0.518514	-0.061454	0.080278
64663	-0.268503	-8.569651	4.549062	-0.044807	0.046361	-0.106977	-0.848911	0.518789	-0.061485	0.080179
64664	-0.152417	-8.624839	4.486663	0.054833	-0.050724	-0.089744	-0.848774	0.519039	-0.061454	0.080025
64665	-0.068413	-8.538076	4.521042	0.151723	0.005944	-0.152450	-0.848704	0.519166	-0.061486	0.079929
64666	-0.111904	-8.450547	4.584957	0.130682	0.113378	-0.199355	-0.848586	0.519348	-0.061673	0.079851
64667	-0.246185	-8.542142	4.546332	-0.010068	0.068164	-0.133164	-0.848500	0.519483	-0.061894	0.079712
64668	-0.256394	-8.642082	4.553276	-0.021204	0.033142	-0.041194	-0.848421	0.519633	-0.062011	0.079491
64669	-0.203426	-8.556679	4.622698	0.054528	0.123876	-0.085963	-0.848378	0.519727	-0.062121	0.079243
64670	-0.118771	-8.609225	4.728720	0.158488	0.178242	0.007535	-0.848216	0.519998	-0.062289	0.079068
64671	-0.210804	-8.728062	4.535359	0.029493	-0.023048	0.025584	-0.848223	0.519954	-0.062674	0.078977
64672	-0.299680	-8.756924	4.563722	-0.047406	0.003551	0.066524	-0.848297	0.519813	-0.062997	0.078862
64673	-0.276397	-8.812545	4.328404	-0.066444	-0.239421	0.006206	-0.848637	0.519211	-0.063473	0.078776
64674	-0.187320	-8.882107	4.419535	0.039267	-0.225700	0.107327	-0.849065	0.518554	-0.063601	0.078398
64675	-0.009277	-8.732480	4.595364	0.261685	-0.057152	0.051484	-0.849515	0.517839	-0.063753	0.078121
64676	0.024453	-8.703761	4.648368	0.313484	-0.022678	0.049591	-0.849948	0.517069	-0.064364	0.078009
64677	-0.178149	-8.582867	4.669311	0.140252	0.070193	-0.041550	-0.850499	0.515982	-0.065578	0.078192
64678	-0.446551	-8.365025	4.658943	-0.093900	0.195107	-0.229793	-0.850877	0.515145	-0.066823	0.078536
64679	-0.555755	-8.438130	4.726210	-0.180999	0.221855	-0.129406	-0.851343	0.514259	-0.067493	0.078729
64680	-0.298418	-8.441147	4.790895	0.087763	0.206973	-0.104746	-0.851667	0.513716	-0.067625	0.078660
64681	-0.086377	-8.636203	4.539023	0.236084	-0.157175	-0.060060	-0.851951	0.513161	-0.068119	0.078769
64682	-0.145036	-8.570959	4.629777	0.206843	-0.054208	-0.072491	-0.852434	0.512148	-0.068978	0.079387
64683	-0.323949	-8.585427	4.602682	0.032646	-0.069749	-0.066242	-0.852871	0.511077	-0.070272	0.080454
64684	-0.509089	-8.817333	4.697782	-0.135538	-0.080375	0.189753	-0.853187	0.510192	-0.071613	0.081532
64685	-0.439396	-8.691464	4.677178	-0.055360	-0.078006	0.066653	-0.853872	0.508735	-0.072732	0.082475
64686	-0.305572	-8.489407	4.715145	0.101947	-0.006319	-0.097467	-0.854415	0.507571	-0.073588	0.083254
64687	-0.266960	-8.469733	4.758045	0.154480	0.007822	-0.095555	-0.854834	0.506572	-0.074566	0.084163
64688	-0.282732	-8.412513	4.984598	0.198439	0.212064	-0.034541	-0.855071	0.505804	-0.075786	0.085276
64689	-0.335321	-8.264444	4.845848	0.136351	0.163458	-0.228826	-0.855233	0.505137	-0.077064	0.086456
64690	-0.326110	-8.534653	4.914901	0.145934	0.067864	0.040075	-0.855810	0.503832	-0.077962	0.087551
64691	-0.359122	-8.255793	4.687535	0.084750	-0.010567	-0.312546	-0.856549	0.502252	-0.078849	0.088599
64692	-0.495067	-8.438825	4.911200	-0.007153	0.091435	-0.036682	-0.856973	0.501171	-0.079966	0.089616
64693	-0.239086	-8.587726	4.601023	0.162100	-0.329504	-0.074070	-0.857705	0.499687	-0.080599	0.090324
64694	-0.107726	-8.373633	4.557241	0.296645	-0.321211	-0.288690	-0.858277	0.498395	-0.081484	0.091233
64695	-0.218073	-8.437302	4.743275	0.224472	-0.199268	-0.135699	-0.858936	0.497020	-0.081796	0.092251
64696	-0.232083	-8.445044	4.913054	0.241126	-0.085088	-0.043077	-0.859463	0.495822	-0.082149	0.093461
64697	-0.431367	-8.535093	5.094353	0.070904	0.037850	0.136167	-0.860354	0.494037	-0.082197	0.094667
64698	-0.378680	-8.583613	5.061532	0.092791	-0.071920	0.158615	-0.861627	0.491589	-0.082177	0.095843
64699	-0.377663	-8.045364	4.979955	0.107631	0.087851	-0.344265	-0.862554	0.489604	-0.082709	0.097205
64700	-0.635359	-8.009627	5.105393	-0.115133	0.247034	-0.296987	-0.862795	0.488849	-0.083192	0.098446
64701	-0.579026	-8.086623	5.124355	-0.070265	0.200496	-0.224016	-0.862857	0.488582	-0.083113	0.099284
64702	-0.413759	-8.309908	5.078205	0.048587	0.004432	-0.065301	-0.862842	0.488513	-0.082969	0.099877
64703	-0.349626	-8.288884	5.081660	0.104021	-0.006397	-0.084367	-0.863227	0.487688	-0.082906	0.100626
64704	-0.433835	-8.435193	5.115920	0.010961	-0.044572	0.062089	-0.863342	0.487203	-0.083413	0.101572
64705	-0.545071	-8.181789	4.857048	-0.135418	-0.104532	-0.283762	-0.863384	0.486804	-0.084083	0.102572
64706	-0.557409	-8.403843	4.990898	-0.136411	-0.106868	-0.024209	-0.863163	0.486954	-0.084460	0.103403
64707	-0.373153	-8.481271	5.119704	0.063020	-0.084473	0.100509	-0.862955	0.487110	-0.084684	0.104217
64708	-0.455520	-8.434852	4.911996	-0.064863	-0.200360	-0.043472	-0.862546	0.487454	-0.085347	0.105441
64709	-0.781329	-8.448182	5.176238	-0.316062	0.106745	0.120307	-0.862145	0.487791	-0.085730	0.106844
64710	-0.583952	-8.329855	5.137398	-0.132704	0.101027	-0.010011	-0.861518	0.488782	-0.085292	0.107720
64711	-0.243480	-8.301592	4.762073	0.089500	-0.260439	-0.243091	-0.861061	0.489637	-0.084511	0.108106
64712	-0.114533	-8.185784	4.700765	0.201472	-0.270120	-0.378505	-0.860716	0.490175	-0.084404	0.108500
64713	-0.228657	-8.433914	4.945802	0.127716	-0.153600	-0.034945	-0.860413	0.490530	-0.084896	0.108915
64714	-0.269570	-8.509079	5.004329	0.100664	-0.124612	0.061255	-0.860151	0.490850	-0.085330	0.109203
64715	-0.258329	-8.646394	4.789559	0.046762	-0.366999	0.068095	-0.859947	0.491000	-0.085849	0.109726
64716	-0.498733	-8.248508	4.905921	-0.109859	-0.001910	-0.203181	-0.859819	0.491033	-0.086154	0.110345
64717	-0.571302	-8.259558	4.952024	-0.170084	0.056489	-0.167113	-0.859506	0.491403	-0.086325	0.110997
64718	-0.501431	-8.063774	4.878626	-0.103338	0.094193	-0.375672	-0.858794	0.492628	-0.086047	0.111289
64719	-0.483398	-8.179625	4.923871	-0.088810	0.098086	-0.254086	-0.857955	0.494045	-0.085935	0.111569
64720	-0.513935	-8.297494	4.898599	-0.135818	0.061723	-0.164556	-0.856960	0.495691	-0.086003	0.111862
64721	-0.357568	-8.478130	4.844532	-0.017579	-0.077733	-0.041835	-0.855988	0.497393	-0.085755	0.111940
64722	-0.230694	-8.584168	4.518464	0.010642	-0.396031	-0.117297	-0.854937	0.499058	-0.085989	0.112383
64723	-0.588055	-8.498360	4.861916	-0.226638	0.060249	-0.007019	-0.854198	0.499967	-0.086862	0.113288
64724	-0.545273	-8.438480	4.816993	-0.185931	0.069545	-0.082879	-0.853248	0.501565	-0.086707	0.113500
64725	-0.431207	-8.423073	4.651849	-0.117996	-0.061771	-0.181695	-0.852588	0.502633	-0.086662	0.113771
64726	-0.598654	-8.314167	4.791355	-0.226216	0.184364	-0.202507	-0.851544	0.504256	-0.086993	0.114154
64727	-0.666471	-8.716623	4.875671	-0.306125	0.121031	0.191681	-0.850466	0.505993	-0.087178	0.114363
64728	-0.582532	-9.054064	4.677438	-0.310323	-0.188435	0.388387	-0.849535	0.507600	-0.086987	0.114307
64729	-0.581228	-8.643810	4.696016	-0.261496	0.042692	0.037979	-0.849348	0.507988	-0.086512	0.114330
64730	-0.312116	-8.343825	4.646632	0.009821	0.082032	-0.257524	-0.848850	0.509099	-0.085620	0.113758
64731	-0.635584	-8.635781	4.594453	-0.347248	0.020571	-0.016331	-0.848068	0.510463	-0.085454	0.113604
64732	-0.755601	-8.905627	4.639189	-0.479536	-0.006768	0.245800	-0.847550	0.511441	-0.085014	0.113396
64733	-0.797217	-9.146320	4.420573	-0.611713	-0.274768	0.355030	-0.847474	0.511815	-0.083852	0.113145
64734	-0.869118	-8.833352	4.727334	-0.589180	0.145705	0.225376	-0.847997	0.511227	-0.082285	0.113035
64735	-0.683744	-8.034412	4.622608	-0.377612	0.367309	-0.533128	-0.848345	0.511115	-0.080232	0.112403
64736	-0.433191	-8.273837	4.246196	-0.281116	-0.129779	-0.507940	-0.848494	0.511280	-0.078648	0.111653
64737	-0.388802	-7.973997	4.476931	-0.161311	0.194361	-0.663103	-0.848571	0.511460	-0.077584	0.110977
64738	-0.185131	-8.402603	4.150267	-0.101532	-0.330183	-0.445543	-0.848553	0.511807	-0.076653	0.110161
64739	-0.369930	-8.322080	4.461771	-0.198781	0.020596	-0.364867	-0.848751	0.511648	-0.076231	0.109672
64740	-0.552930	-8.324144	4.696235	-0.322819	0.261183	-0.248206	-0.849012	0.511424	-0.075615	0.109118
64741	-0.580899	-8.304860	4.533629	-0.393613	0.135577	-0.342279	-0.849208	0.511381	-0.074734	0.108395
64742	-0.645072	-8.280360	4.537086	-0.460082	0.161970	-0.361354	-0.849515	0.511156	-0.073848	0.107657
64743	-0.605991	-8.625991	4.490780	-0.475957	-0.046958	-0.080611	-0.849363	0.511654	-0.073260	0.106893
64744	-0.800812	-8.758900	4.773504	-0.615867	0.188261	0.173865	-0.849313	0.511939	-0.072570	0.106396
64745	-0.617274	-8.704275	4.633601	-0.474362	0.055761	0.055825	-0.849202	0.512512	-0.071199	0.105444
64746	-0.236075	-8.722406	4.485320	-0.152295	-0.163963	-0.004318	-0.849070	0.513107	-0.069946	0.104444
64747	-0.218084	-8.595724	4.062862	-0.221894	-0.458809	-0.316313	-0.848946	0.513596	-0.069203	0.103543
64748	-0.571627	-8.871882	4.334419	-0.531141	-0.259113	0.060255	-0.848811	0.514026	-0.068890	0.102718
64749	-0.388336	-8.960685	4.077784	-0.416087	-0.558039	0.015256	-0.848794	0.514406	-0.068184	0.101417
64750	-0.533746	-8.767728	3.902894	-0.570890	-0.580317	-0.235223	-0.848871	0.514586	-0.067673	0.100203
64751	-0.538746	-8.846965	4.190512	-0.513858	-0.367757	-0.029021	-0.848838	0.514993	-0.067173	0.098713
64752	-0.509945	-9.293468	4.133859	-0.533838	-0.623049	0.338382	-0.848758	0.515519	-0.066568	0.097049
64753	-0.447263	-8.960482	4.078220	-0.443250	-0.533284	0.017942	-0.849136	0.515361	-0.065742	0.095131
64754	-0.622008	-8.934163	4.118095	-0.591920	-0.453910	0.016272	-0.849369	0.515424	-0.065198	0.093055
64755	-0.713754	-8.651809	4.285462	-0.607172	-0.169583	-0.151891	-0.849903	0.515117	-0.064368	0.090422
64756	-0.556514	-8.532666	4.466439	-0.392642	-0.005966	-0.173655	-0.850302	0.515133	-0.063378	0.087225
64757	-0.303595	-8.668829	4.269756	-0.180861	-0.298491	-0.150920	-0.850637	0.515363	-0.061978	0.083530
64758	-0.208556	-8.622817	4.063549	-0.107050	-0.480530	-0.290792	-0.851150	0.515282	-0.060582	0.079738
64759	-0.337109	-8.537108	4.289190	-0.165431	-0.232277	-0.256976	-0.851759	0.515028	-0.059333	0.075710
64760	-0.174802	-8.618525	4.051075	-0.032819	-0.520205	-0.302220	-0.852388	0.514851	-0.057685	0.070966
64761	0.058902	-8.337378	4.127728	0.251807	-0.381884	-0.520533	-0.853382	0.514051	-0.056036	0.065960
64762	-0.033194	-8.363911	4.222394	0.200477	-0.316486	-0.450835	-0.854159	0.513576	-0.054451	0.060725
64763	0.070307	-8.558970	4.356004	0.339549	-0.328111	-0.220366	-0.855054	0.512942	-0.052383	0.055041
64764	0.400276	-8.439711	4.294237	0.683998	-0.395321	-0.367837	-0.856230	0.511822	-0.049956	0.049131
64765	0.475539	-8.539485	4.609643	0.817692	-0.205590	-0.133494	-0.857423	0.510588	-0.047493	0.043241
64766	0.744467	-8.605850	4.644543	1.103959	-0.265463	-0.071158	-0.858653	0.509246	-0.044761	0.037150
64767	0.482008	-8.710846	4.979230	0.896079	-0.020036	0.192336	-0.859649	0.508180	-0.042211	0.031219
64768	0.419610	-8.387800	4.745970	0.825634	-0.067862	-0.201797	-0.860187	0.507865	-0.039086	0.024964
64769	0.453108	-8.583527	4.760403	0.870304	-0.146755	-0.026744	-0.860157	0.508411	-0.035990	0.018766
64770	0.357778	-8.609519	4.759181	0.789016	-0.133424	-0.001408	-0.859939	0.509173	-0.033060	0.012471
64771	0.368423	-8.533975	4.608541	0.802775	-0.201969	-0.142227	-0.859540	0.510167	-0.029765	0.005837
64772	0.699370	-8.476914	4.170949	1.117945	-0.539407	-0.421033	-0.859229	0.510945	-0.025700	-0.001130
64773	0.737665	-8.138590	4.189178	1.157576	-0.329643	-0.708771	-0.858866	0.511666	-0.022098	-0.007686
64774	0.696610	-7.902076	4.520255	1.124434	0.105076	-0.752593	-0.858388	0.512474	-0.018337	-0.014280
64775	0.746025	-8.212151	4.470373	1.186199	-0.054551	-0.508384	-0.857745	0.513444	-0.014056	-0.021250
64776	0.535044	-7.887028	4.727332	0.958403	0.351333	-0.658609	-0.857453	0.513684	-0.010000	-0.028360
64777	0.351297	-7.938546	4.875584	0.773338	0.475182	-0.534147	-0.856649	0.514624	-0.005823	-0.035790
64778	0.153179	-8.011894	4.849403	0.577856	0.437740	-0.474325	-0.855748	0.515576	-0.001653	-0.043290
64779	-0.000716	-8.546283	5.180930	0.447306	0.506096	0.158497	-0.854113	0.517580	0.002790	-0.050943
64780	-0.207335	-9.862724	5.106310	0.360108	-0.138715	1.288731	-0.852366	0.519585	0.006859	-0.058791
64781	-0.938639	-9.653589	4.934708	-0.357738	-0.222102	1.061444	-0.850851	0.521068	0.010635	-0.066545
64782	-0.954227	-9.874791	4.691023	-0.313754	-0.498612	1.145437	-0.848901	0.523025	0.015262	-0.074690
64783	-1.138468	-9.341394	4.387059	-0.508040	-0.519128	0.544744	-0.847641	0.523807	0.019110	-0.082254
64784	-1.587285	-9.244050	4.440369	-0.946319	-0.489851	0.509778	-0.846455	0.524364	0.022767	-0.089659
64785	-1.870688	-9.254519	4.478324	-1.207053	-0.522273	0.554141	-0.845731	0.523879	0.027200	-0.097730
64786	-1.881684	-8.482816	4.303834	-1.284197	-0.369830	-0.208741	-0.845060	0.522907	0.032640	-0.106662
64787	-1.263516	-8.441526	4.221099	-0.666410	-0.324127	-0.319305	-0.843960	0.522221	0.038817	-0.116234
64788	-0.953663	-8.690664	4.265395	-0.329069	-0.339468	-0.096352	-0.842752	0.521528	0.044714	-0.125614
64789	-1.302674	-9.403050	4.402682	-0.566270	-0.639472	0.616515	-0.841612	0.520521	0.050772	-0.134793
64790	-1.466601	-9.504892	4.576359	-0.738686	-0.610009	0.794813	-0.840436	0.519278	0.057291	-0.143997
64791	-1.386531	-9.477455	4.356891	-0.610833	-0.799783	0.661766	-0.839320	0.517526	0.064180	-0.153590
64792	-1.041828	-8.915831	4.170469	-0.339695	-0.644313	0.058464	-0.838054	0.515679	0.071061	-0.163373
64793	-1.006320	-8.583341	4.017883	-0.323734	-0.653122	-0.310145	-0.836792	0.513642	0.077652	-0.172979
64794	-1.165768	-8.082261	3.878140	-0.526121	-0.655004	-0.811803	-0.835594	0.511280	0.084111	-0.182487
64795	-1.199166	-8.093162	4.063285	-0.605554	-0.564314	-0.715312	-0.834139	0.508995	0.090837	-0.192054
64796	-1.096114	-8.096273	3.966019	-0.472045	-0.642500	-0.765884	-0.832469	0.506758	0.097652	-0.201633
64797	-1.117962	-8.510400	4.096119	-0.433395	-0.756500	-0.341959	-0.830583	0.504561	0.104616	-0.211200
64798	-1.150227	-8.696954	4.114458	-0.417320	-0.869138	-0.171156	-0.828447	0.502320	0.111894	-0.220975
64799	-0.929768	-8.992599	4.028239	-0.103547	-0.983950	0.035106	-0.826164	0.499870	0.119113	-0.231074
64800	-0.698012	-9.043850	4.002138	0.137549	-0.937832	0.056305	-0.823835	0.496987	0.126301	-0.241552
64801	-0.651346	-8.904413	4.115432	0.110694	-0.804699	-0.015257	-0.821679	0.493626	0.132923	-0.252007
64802	-0.804015	-8.151324	4.094684	-0.201881	-0.643172	-0.680197	-0.819282	0.490284	0.139614	-0.262501
64803	-0.700514	-7.931660	3.897444	-0.070044	-0.675055	-0.973494	-0.816412	0.487300	0.146589	-0.272986
64804	-0.826652	-7.797404	3.961865	-0.232610	-0.676645	-1.056706	-0.813203	0.484615	0.153500	-0.283351
64805	-0.831240	-8.073314	3.928645	-0.116375	-0.828022	-0.834693	-0.809742	0.481908	0.160371	-0.293876
64806	-0.883981	-8.440873	3.996857	-0.053284	-0.965831	-0.481616	-0.805923	0.479337	0.167154	-0.304605
64807	-0.864423	-8.576936	4.016390	0.021826	-1.000618	-0.355380	-0.802055	0.476532	0.173750	-0.315334
64808	-0.971925	-8.712350	4.327268	-0.160724	-0.931652	-0.082270	-0.798080	0.473608	0.180137	-0.326058
64809	-0.795864	-8.976362	4.318969	0.096563	-0.919314	0.137559	-0.793851	0.470529	0.186541	-0.337054
64810	-0.667445	-9.154971	4.497839	0.177089	-0.783066	0.377743	-0.789453	0.467469	0.192553	-0.348081
64811	-0.805424	-9.401836	4.775732	0.040790	-0.801587	0.732761	-0.785037	0.464197	0.198199	-0.359104
64812	-0.985537	-9.253823	4.712616	-0.054993	-0.931548	0.576843	-0.780321	0.461088	0.203975	-0.369987
64813	-0.917453	-8.830922	4.629890	-0.090966	-0.803347	0.167746	-0.775349	0.457825	0.210222	-0.380838
64814	-0.624229	-8.708302	4.600135	0.078647	-0.557806	0.039627	-0.769811	0.455004	0.217076	-0.391460
64815	-0.070802	-8.517415	4.323801	0.515431	-0.201959	-0.276433	-0.763903	0.451979	0.224747	-0.402064
64816	0.546601	-8.904020	4.314371	1.012831	0.209636	0.042473	-0.757743	0.449402	0.232449	-0.412106
64817	0.786227	-9.254285	4.228214	1.316128	0.305599	0.302249	-0.751720	0.446686	0.239869	-0.421725
64818	0.813952	-9.215817	4.263518	1.251463	0.385138	0.289626	-0.745903	0.443719	0.246790	-0.431089
64819	0.836036	-8.951835	4.295524	1.092216	0.505660	0.078576	-0.740156	0.440520	0.253417	-0.440330
64820	1.039803	-8.534864	4.418550	0.885861	0.849082	-0.224001	-0.734528	0.436987	0.259559	-0.449599
64821	1.115926	-8.574852	4.601106	0.770378	0.996435	-0.098929	-0.728919	0.433628	0.265214	-0.458591
64822	1.027894	-8.431180	4.719550	0.551588	1.006372	-0.163934	-0.723492	0.430225	0.270230	-0.467378
64823	0.882434	-8.517485	4.840461	0.418567	0.912074	-0.027535	-0.718005	0.426739	0.275057	-0.476137
64824	0.704095	-8.396172	5.162007	0.029765	0.886672	0.028588	-0.712731	0.422828	0.279389	-0.484946
64825	0.649036	-7.963722	5.263668	-0.272601	0.936610	-0.294455	-0.707290	0.418449	0.283815	-0.494055
64826	0.758452	-7.746774	5.198311	-0.285686	1.039688	-0.514967	-0.701501	0.414020	0.288506	-0.503238
64827	0.941862	-7.685559	5.398243	-0.429250	1.265110	-0.468644	-0.695449	0.409782	0.293274	-0.512270
64828	1.177726	-7.770987	5.331122	-0.287297	1.447209	-0.430839	-0.689072	0.406027	0.298370	-0.520862
64829	1.101354	-8.232165	5.300555	-0.094935	1.299025	-0.046377	-0.682638	0.402344	0.303533	-0.529144
64830	0.996369	-8.271721	5.105651	0.025865	1.143035	-0.108332	-0.676029	0.398401	0.308837	-0.537477
64831	1.170410	-8.245345	4.824523	0.254288	1.255948	-0.273850	-0.669184	0.394590	0.314118	-0.545731
64832	1.307536	-8.525108	4.541976	0.620121	1.321519	-0.174973	-0.662287	0.391060	0.319125	-0.553722
64833	1.113079	-8.444287	4.562152	0.488744	1.156392	-0.232399	-0.655516	0.387609	0.323939	-0.561357
64834	1.180149	-8.297718	4.528378	0.416677	1.240481	-0.376665	-0.648698	0.384257	0.328856	-0.568675
64835	1.249854	-8.239842	4.316030	0.533395	1.297901	-0.532818	-0.641695	0.381047	0.333988	-0.575746
64836	1.424611	-8.326715	4.350640	0.514534	1.484128	-0.441234	-0.634712	0.377932	0.338936	-0.582606
64837	1.321926	-8.415315	4.377344	0.474954	1.394706	-0.349327	-0.627923	0.374818	0.343506	-0.589261
64838	1.140477	-8.378941	4.427689	0.357326	1.230040	-0.353779	-0.621174	0.371492	0.347916	-0.595895
64839	1.310387	-8.300757	4.311998	0.387009	1.406071	-0.480698	-0.614286	0.368099	0.352276	-0.602542
64840	1.114095	-8.256283	4.442837	0.207635	1.224232	-0.452973	-0.607497	0.364651	0.356340	-0.609097
64841	1.214363	-7.917578	4.318620	0.116156	1.328178	-0.810713	-0.600650	0.361053	0.360325	-0.615651
64842	1.190449	-7.806831	4.359364	-0.009447	1.307247	-0.887514	-0.593756	0.357710	0.364351	-0.621889
64843	1.439282	-7.690116	4.135874	0.077289	1.563009	-1.102593	-0.586827	0.354407	0.368388	-0.627949
64844	1.570519	-7.909857	4.234746	0.042966	1.703552	-0.864990	-0.580048	0.351316	0.372327	-0.633636
64845	1.377248	-8.577375	4.468123	0.131741	1.539140	-0.166661	-0.573583	0.348556	0.375696	-0.639033
64846	0.812161	-8.648374	4.465694	0.185659	0.993940	-0.098063	-0.567189	0.345737	0.379026	-0.644284
64847	0.842279	-9.266099	4.885294	0.078492	1.041758	0.644108	-0.560651	0.343161	0.382314	-0.649421
64848	0.610829	-9.919944	5.082501	0.212179	0.862733	1.314789	-0.554288	0.340964	0.385259	-0.654282
64849	-0.090077	-9.725445	4.977988	0.290068	0.189331	1.107601	-0.548125	0.338535	0.387911	-0.659150
64850	-0.384822	-9.490162	5.137933	0.070794	-0.130099	0.984888	-0.541726	0.336043	0.391301	-0.663696
64851	-0.218094	-9.151025	4.802412	0.146026	0.054787	0.523056	-0.535438	0.333639	0.394791	-0.667931
64852	-0.183637	-9.180101	4.503123	0.378122	0.145342	0.406015	-0.529387	0.331421	0.398550	-0.671616
64853	-0.276854	-8.894221	4.336901	0.380003	0.047733	0.079016	-0.523907	0.328921	0.402056	-0.675043
64854	-0.514222	-8.415054	4.435445	0.115333	-0.269535	-0.290883	-0.518797	0.326291	0.405114	-0.678430
64855	-0.684592	-8.190282	4.388745	0.083271	-0.462589	-0.507338	-0.513387	0.323787	0.408509	-0.681701
64856	-0.731696	-8.435077	4.380068	0.198009	-0.480213	-0.294228	-0.507705	0.320948	0.412080	-0.685141
64857	-0.675155	-8.302423	4.488320	0.022803	-0.480461	-0.362835	-0.501929	0.317664	0.415419	-0.688900
64858	-0.599379	-8.310542	4.324963	0.136381	-0.374774	-0.433423	-0.496061	0.314561	0.418791	-0.692523
64859	-0.889873	-8.682001	4.357847	0.353444	-0.603922	-0.082826	-0.490223	0.311387	0.421875	-0.696233
64860	-1.032412	-8.560508	4.313597	0.388756	-0.744350	-0.207996	-0.484147	0.307763	0.424667	-0.700387
64861	-0.991680	-8.673294	4.287772	0.454946	-0.672440	-0.120666	-0.477707	0.303979	0.427546	-0.704697
64862	-0.842306	-8.515657	4.189676	0.425784	-0.521689	-0.308698	-0.471210	0.300204	0.430134	-0.709100
64863	-0.870238	-8.838011	4.178830	0.584681	-0.470944	-0.026640	-0.464729	0.296758	0.432943	-0.713107
64864	-1.144951	-8.986778	4.281275	0.671971	-0.716930	0.159115	-0.458596	0.293398	0.435494	-0.716904
64865	-1.152134	-9.117988	4.345677	0.682619	-0.709571	0.305641	-0.452534	0.289822	0.438232	-0.720533
64866	-1.098962	-9.292004	4.286611	0.785158	-0.597130	0.431874	-0.446627	0.286204	0.440940	-0.724005
64867	-1.075217	-9.179991	4.173241	0.825149	-0.552528	0.279790	-0.440780	0.282636	0.443718	-0.727285
64868	-0.925408	-9.303316	4.114174	0.855922	-0.367346	0.359183	-0.435003	0.278913	0.446666	-0.730389
64869	-0.925858	-9.158899	3.961519	0.918543	-0.341599	0.161072	-0.429368	0.275315	0.449646	-0.733255
64870	-0.939470	-9.154384	3.843188	1.016827	-0.307749	0.103300	-0.423874	0.271472	0.452456	-0.736151
64871	-0.924455	-9.012334	3.894130	0.919227	-0.354054	-0.000925	-0.418417	0.267508	0.455299	-0.738965
64872	-0.907238	-8.958777	3.725802	1.027464	-0.280291	-0.126093	-0.413105	0.263518	0.457826	-0.741821
64873	-0.989577	-9.029192	3.701456	1.127340	-0.319900	-0.074459	-0.407851	0.259419	0.460073	-0.744777
64874	-1.019910	-8.953392	3.777414	1.074095	-0.392528	-0.108848	-0.402552	0.255236	0.462015	-0.747896
64875	-1.082208	-8.829542	3.687873	1.148324	-0.420391	-0.260883	-0.397116	0.251111	0.463727	-0.751132
64876	-1.174683	-8.694190	3.774804	1.106959	-0.555054	-0.342502	-0.391581	0.246956	0.465053	-0.754588
64877	-1.159653	-8.548229	3.833639	1.027076	-0.590005	-0.447287	-0.385897	0.242645	0.466594	-0.757956
64878	-0.991503	-8.528172	3.816669	0.960013	-0.429821	-0.476024	-0.380294	0.238268	0.467818	-0.761414
64879	-1.136783	-8.467279	3.874010	1.011856	-0.571662	-0.504398	-0.374733	0.233834	0.468972	-0.764828
64880	-1.143893	-8.366964	3.868228	1.013826	-0.580355	-0.597863	-0.369041	0.229370	0.470155	-0.768214
64881	-1.268786	-8.458485	3.875718	1.147385	-0.633687	-0.514364	-0.363029	0.224804	0.471624	-0.771520
64882	-0.922242	-8.662952	3.780273	1.089104	-0.230572	-0.381444	-0.356594	0.220077	0.473267	-0.774871
64883	-0.681905	-9.265315	4.105943	0.940960	-0.029570	0.300843	-0.350097	0.215624	0.474803	-0.778139
64884	-0.733546	-9.232847	4.132870	0.961905	-0.064941	0.283576	-0.343799	0.211283	0.475399	-0.781766
64885	-0.593495	-9.348544	4.404127	0.748918	-0.050990	0.511084	-0.337392	0.206941	0.476228	-0.785206
64886	-0.506035	-8.927578	4.402062	0.566069	-0.090057	0.137548	-0.331236	0.202765	0.476467	-0.788764
64887	-0.552976	-8.618040	4.427207	0.498349	-0.208161	-0.123273	-0.325192	0.198858	0.476776	-0.792080
64888	-0.799593	-7.998655	4.602023	0.376717	-0.673336	-0.582245	-0.319173	0.195150	0.477254	-0.795156
64889	-0.640014	-8.023972	4.589181	0.294690	-0.526572	-0.566598	-0.312852	0.191266	0.478400	-0.797919
64890	-0.458384	-8.380910	4.986911	0.046576	-0.523522	-0.063697	-0.306323	0.187585	0.480026	-0.800346
64891	-0.353448	-9.239236	4.899528	0.291742	-0.091211	0.646775	-0.299416	0.183640	0.482181	-0.802576
64892	-0.158285	-9.300084	4.777375	0.231132	0.136404	0.640441	-0.292661	0.179421	0.483860	-0.805008
64893	0.130722	-9.119741	4.518554	0.100833	0.423360	0.356613	-0.285803	0.174830	0.485916	-0.807240
64894	0.356633	-8.787671	4.465882	-0.145235	0.466951	0.038978	-0.279227	0.170218	0.487577	-0.809523
64895	0.493278	-8.528606	4.223212	-0.196059	0.608214	-0.304397	-0.272505	0.165402	0.489402	-0.811707
64896	0.845289	-8.176574	4.334873	-0.636391	0.593009	-0.560373	-0.265880	0.160536	0.490916	-0.813964
64897	1.047100	-7.920281	4.582820	-0.996687	0.420081	-0.666124	-0.259301	0.155786	0.492160	-0.816255
64898	0.932325	-7.902213	4.666248	-0.948512	0.267387	-0.641163	-0.252805	0.151594	0.493586	-0.818219
64899	0.858866	-7.994636	4.890421	-0.972627	0.080337	-0.452368	-0.246457	0.147370	0.494832	-0.820172
64900	0.900234	-7.988674	4.894039	-1.008484	0.077285	-0.455449	-0.240195	0.143412	0.496280	-0.821855
64901	1.134983	-8.005361	4.954841	-1.232359	0.139431	-0.411292	-0.233885	0.139476	0.497809	-0.823426
64902	1.235415	-8.106088	4.876365	-1.261872	0.263299	-0.360061	-0.227705	0.135856	0.499291	-0.824865
64903	1.370356	-8.340936	5.046542	-1.407362	0.269965	-0.072922	-0.221743	0.132592	0.500822	-0.826091
64904	1.284618	-8.551338	5.131026	-1.333819	0.220071	0.151020	-0.215983	0.129638	0.502176	-0.827263
64905	1.059234	-8.631448	5.260738	-1.189561	0.017462	0.281063	-0.210345	0.126931	0.503561	-0.828293
64906	0.918779	-8.643456	5.050838	-0.993566	0.090958	0.190757	-0.204747	0.124447	0.505239	-0.829051
64907	0.936282	-8.830187	4.808892	-0.891295	0.335702	0.240524	-0.199157	0.121903	0.507026	-0.829699
64908	0.681749	-8.556218	4.622673	-0.670444	0.226644	-0.089426	-0.193873	0.119597	0.508443	-0.830419
64909	0.465180	-8.292330	4.606069	-0.541646	0.015001	-0.331055	-0.188500	0.116985	0.509721	-0.831244
64910	0.622611	-8.157798	4.509552	-0.687402	0.081912	-0.496355	-0.183023	0.114231	0.511445	-0.831792
64911	0.924936	-8.379359	4.322635	-0.865943	0.422059	-0.387920	-0.177441	0.111384	0.513315	-0.832236
64912	0.820007	-8.409410	4.426885	-0.822233	0.278687	-0.313525	-0.172084	0.108817	0.514694	-0.832848
64913	0.562771	-8.351048	4.569194	-0.664193	0.011947	-0.299912	-0.166754	0.106172	0.516150	-0.833373
64914	0.691576	-8.332535	4.470169	-0.766343	0.110809	-0.363232	-0.161158	0.103380	0.517636	-0.833903
64915	0.531290	-8.515023	4.210837	-0.517167	0.318209	-0.317938	-0.155644	0.100734	0.519001	-0.834425
64916	0.467685	-8.409766	4.449638	-0.568475	0.032840	-0.303855	-0.149864	0.097624	0.520248	-0.835076
64917	0.780990	-8.685733	4.461449	-0.835019	0.227444	-0.055261	-0.143687	0.094191	0.521687	-0.835658
64918	0.685146	-8.786380	4.373660	-0.716637	0.293494	-0.004575	-0.137623	0.091001	0.522303	-0.836647
64919	0.527101	-8.852449	4.548239	-0.622014	0.111543	0.133709	-0.131330	0.087537	0.523257	-0.837431
64920	0.719617	-8.838397	4.482490	-0.797826	0.211099	0.089168	-0.124968	0.083973	0.523689	-0.838499
64921	0.630653	-8.782802	4.366620	-0.700685	0.247150	-0.012146	-0.118735	0.080718	0.524689	-0.839100
64922	0.472911	-8.687133	4.292980	-0.555904	0.208171	-0.129340	-0.112506	0.077392	0.525542	-0.839737
64923	0.435628	-8.807717	4.188376	-0.495335	0.326732	-0.068150	-0.106089	0.074010	0.526433	-0.840319
64924	0.261389	-9.062600	4.020106	-0.279337	0.532633	0.086733	-0.099414	0.070649	0.526710	-0.841250
64925	0.068784	-8.998470	4.205053	-0.160682	0.309225	0.113951	-0.092431	0.067342	0.526373	-0.842528
64926	0.065422	-9.267331	4.383599	-0.192910	0.294032	0.433281	-0.085230	0.064038	0.525808	-0.843896
64927	-0.067325	-9.420844	4.658937	-0.127440	0.124038	0.695916	-0.078009	0.060809	0.524895	-0.845400
64928	-0.220978	-9.273393	4.642787	-0.004737	0.080676	0.560036	-0.070605	0.057521	0.523676	-0.847036
64929	-0.509580	-8.748358	4.422386	0.263248	0.025382	-0.000409	-0.063062	0.054396	0.522596	-0.848503
64930	-0.683417	-8.671017	4.294382	0.425540	0.112994	-0.122421	-0.055250	0.051326	0.521744	-0.849762
64931	-0.703670	-8.633120	4.214987	0.426788	0.204389	-0.191469	-0.047155	0.048113	0.520508	-0.851195
64932	-0.616454	-8.487852	4.215891	0.306721	0.194807	-0.322425	-0.038814	0.044717	0.519073	-0.852677
64933	-0.763350	-8.250073	4.367736	0.402513	-0.017630	-0.455288	-0.030349	0.041335	0.517557	-0.854110
64934	-0.894452	-8.225123	4.513941	0.494289	-0.120812	-0.401567	-0.021832	0.037704	0.516151	-0.855389
64935	-1.162954	-8.146973	4.603659	0.735205	-0.209577	-0.414036	-0.013333	0.033918	0.514954	-0.856443
64936	-1.232803	-8.454433	4.435332	0.796668	0.124241	-0.220027	-0.004750	0.029745	0.514214	-0.857133
64937	-1.253424	-8.598200	4.378723	0.797936	0.279620	-0.119479	0.003916	0.025509	0.513559	-0.857666
64938	-1.356276	-8.796788	4.386243	0.872234	0.400780	0.063574	0.012662	0.021133	0.513138	-0.857952
64939	-1.293435	-8.960045	4.344508	0.782319	0.545600	0.183328	0.021538	0.016354	0.512853	-0.858050
64940	-1.287766	-9.108831	4.277820	0.747936	0.698943	0.280918	0.030282	0.011622	0.512780	-0.857907
64941	-1.390863	-9.468945	4.287134	0.806452	0.888390	0.605338	0.038923	0.006590	0.512718	-0.857649
64942	-1.269351	-9.096719	4.198178	0.693494	0.801320	0.230376	0.047390	0.001389	0.512340	-0.857473
64943	-1.502806	-9.048090	4.299681	0.924973	0.728568	0.248486	0.055612	-0.004077	0.512340	-0.856971
64944	-1.691988	-8.645486	4.667504	1.176423	0.252831	0.084024	0.063786	-0.010024	0.512448	-0.856287
64945	-1.854106	-8.401964	4.862957	1.399209	-0.003245	-0.028967	0.071930	-0.016663	0.513614	-0.854838
64946	-1.713016	-8.612005	4.196147	1.201754	0.645769	-0.176954	0.080185	-0.024069	0.515800	-0.852609
64947	-1.391779	-8.963701	3.612972	0.801354	1.233490	-0.159983	0.088537	-0.031908	0.518303	-0.850003
64948	-0.956006	-9.274475	3.066753	0.274863	1.729461	-0.155148	0.097123	-0.039889	0.520354	-0.847472
64949	-0.798994	-9.240954	2.751824	0.075239	1.919602	-0.330306	0.105739	-0.047247	0.521410	-0.845410
64950	-0.905468	-8.815538	2.762351	0.225510	1.729176	-0.695493	0.114632	-0.054111	0.521388	-0.843852
64951	-1.189810	-8.531092	2.932420	0.557612	1.531056	-0.860640	0.123744	-0.060679	0.520924	-0.842403
64952	-1.197960	-8.339626	3.159095	0.626494	1.267369	-0.926429	0.133119	-0.067231	0.520296	-0.840863
64953	-1.323401	-8.423122	3.256374	0.736645	1.272721	-0.804813	0.142731	-0.073553	0.519531	-0.839229
64954	-1.360760	-8.359780	3.428615	0.803175	1.131286	-0.781188	0.152707	-0.079743	0.518446	-0.837577
64955	-1.346762	-8.631089	3.469880	0.722283	1.228713	-0.521941	0.162990	-0.085746	0.517301	-0.835752
64956	-1.524838	-8.468023	3.639020	0.933082	1.108622	-0.583651	0.173349	-0.091428	0.515703	-0.834051
64957	-1.462140	-8.545089	3.554460	0.793207	1.212865	-0.555787	0.184016	-0.097575	0.514398	-0.831873
64958	-1.008017	-9.052485	3.381392	0.170655	1.391303	-0.198511	0.194802	-0.103722	0.513147	-0.829442
64959	-0.807905	-9.470516	3.765279	-0.006235	1.168713	0.343818	0.205617	-0.109544	0.511519	-0.827085
64960	-0.763534	-9.861577	3.954349	-0.113575	1.160096	0.775589	0.216405	-0.114976	0.509504	-0.824836
64961	-0.996851	-9.979659	4.470734	0.219468	0.921952	1.126982	0.226893	-0.120053	0.507412	-0.822582
64962	-1.308622	-9.918328	4.451857	0.443663	1.088755	1.074102	0.237274	-0.125062	0.504917	-0.820439
64963	-1.331629	-9.156437	4.301909	0.550270	0.952898	0.331715	0.247715	-0.130562	0.502183	-0.818171
64964	-1.035114	-8.846469	4.446936	0.414401	0.600217	0.115785	0.258289	-0.136499	0.499420	-0.815619
64965	-0.627448	-8.509566	4.594732	0.219039	0.166637	-0.125473	0.268879	-0.142513	0.496521	-0.812934
64966	-0.462956	-8.256820	4.654712	0.175850	-0.041955	-0.324641	0.279160	-0.148408	0.493867	-0.810025
64967	-0.294844	-8.491745	4.840044	0.057419	-0.172764	-0.035697	0.289243	-0.154545	0.491482	-0.806784
64968	-0.267818	-8.553287	4.784424	-0.013297	-0.118744	-0.009276	0.299033	-0.160431	0.489206	-0.803442
64969	-0.503414	-8.348533	4.774869	0.231237	-0.026462	-0.184779	0.308741	-0.166483	0.487124	-0.799795
64970	-0.514795	-8.180405	4.709984	0.264817	-0.027490	-0.362973	0.318464	-0.172680	0.485296	-0.795770
64971	-0.353022	-8.484414	4.504904	-0.067439	0.094165	-0.200684	0.327968	-0.179188	0.483988	-0.791255
64972	-0.225760	-8.806583	4.238311	-0.419577	0.265686	-0.049313	0.337176	-0.185464	0.482412	-0.786888
64973	-0.194662	-8.581049	3.982659	-0.509371	0.317623	-0.369515	0.346363	-0.191840	0.480440	-0.782565
64974	0.157581	-8.596128	3.833811	-0.841877	0.143150	-0.437877	0.355627	-0.198482	0.478134	-0.778153
64975	0.306130	-8.610957	3.932088	-0.871810	-0.038044	-0.381776	0.364756	-0.204887	0.475658	-0.773772
64976	0.479910	-9.033895	3.992358	-1.092889	-0.100265	0.014622	0.373835	-0.211186	0.473007	-0.769359
64977	0.573468	-9.241044	4.223502	-1.071349	-0.256965	0.304126	0.382846	-0.216828	0.469483	-0.765507
64978	0.512104	-9.089962	4.555081	-0.750615	-0.429401	0.330813	0.391713	-0.222221	0.465669	-0.761794
64979	0.590145	-8.887280	4.754273	-0.580864	-0.639100	0.246599	0.400653	-0.227568	0.461539	-0.758071
64980	0.695282	-8.792627	4.715071	-0.633422	-0.713755	0.142960	0.409535	-0.232764	0.457395	-0.754249
64981	0.649044	-8.635499	4.722843	-0.544166	-0.703498	0.011125	0.418518	-0.237556	0.452962	-0.750490
64982	0.676429	-8.234966	4.754057	-0.376895	-0.822547	-0.322977	0.427550	-0.242342	0.448523	-0.746525
64983	0.732864	-8.092290	4.731221	-0.367748	-0.879403	-0.458646	0.436667	-0.247080	0.444234	-0.742246
64984	0.674924	-8.182995	4.849836	-0.295922	-0.850863	-0.319201	0.445748	-0.251520	0.440098	-0.737807
64985	0.622543	-8.183269	4.771912	-0.338965	-0.764879	-0.356227	0.454917	-0.255916	0.435897	-0.733178
64986	0.464564	-8.230595	4.868208	-0.226115	-0.648391	-0.263530	0.464029	-0.260193	0.431802	-0.728370
64987	0.417106	-8.207411	4.878163	-0.202396	-0.608029	-0.277419	0.473293	-0.264416	0.427380	-0.723481
64988	0.407627	-7.937622	5.038322	0.038315	-0.700250	-0.428400	0.482517	-0.268750	0.423020	-0.718335
64989	0.328639	-8.003216	5.039026	0.028904	-0.605348	-0.368962	0.491637	-0.273259	0.418782	-0.712913
64990	0.377187	-7.883775	5.141681	0.146992	-0.694376	-0.419643	0.500649	-0.278005	0.414710	-0.707163
64991	0.409339	-8.143795	5.126703	0.002611	-0.670817	-0.204252	0.509377	-0.282951	0.410886	-0.701175
64992	0.474071	-8.075616	5.094185	0.000762	-0.727242	-0.280524	0.517935	-0.287990	0.407079	-0.695048
64993	0.398779	-7.871387	5.104585	0.150707	-0.678450	-0.448313	0.526162	-0.293241	0.403473	-0.688747
64994	0.416181	-7.908606	5.048539	0.108601	-0.668988	-0.445320	0.534081	-0.298867	0.400223	-0.682098
64995	0.382234	-8.271078	4.934514	-0.121362	-0.567816	-0.191409	0.541640	-0.304602	0.397358	-0.675241
64996	0.458062	-8.316386	4.696952	-0.316902	-0.591050	-0.274159	0.549177	-0.310645	0.394329	-0.668138
64997	0.465573	-8.623734	4.559709	-0.544628	-0.553085	-0.077502	0.556644	-0.316392	0.391222	-0.661052
64998	0.277667	-8.609948	4.754805	-0.300925	-0.409932	0.013694	0.564045	-0.321948	0.388010	-0.653951
64999	0.183879	-8.594402	4.646225	-0.342659	-0.307595	-0.051904	0.571684	-0.327285	0.384332	-0.646801
65000	0.135109	-8.598443	4.814377	-0.170220	-0.283655	0.037197	0.579330	-0.332721	0.380689	-0.639335
65001	0.303901	-9.130245	5.016716	-0.253162	-0.456854	0.596361	0.587253	-0.337975	0.376910	-0.631543
65002	0.180333	-9.438224	5.103619	-0.301845	-0.347634	0.908670	0.595562	-0.342540	0.372946	-0.623605
65003	-0.176201	-9.332383	5.077328	-0.245651	-0.015280	0.810073	0.603881	-0.346741	0.369076	-0.615533
65004	-0.308209	-9.015528	4.826001	-0.303320	0.098669	0.412928	0.611989	-0.350678	0.365285	-0.607503
65005	-0.449003	-8.656005	4.434596	-0.467093	0.220139	-0.090192	0.619822	-0.354463	0.361647	-0.599489
65006	-0.415493	-8.427263	4.217287	-0.546442	0.160149	-0.397138	0.627537	-0.358247	0.357768	-0.591489
65007	-0.464032	-8.352113	4.100492	-0.621027	0.176976	-0.519138	0.635168	-0.361738	0.353704	-0.583610
65008	-0.597031	-8.336019	4.058919	-0.671470	0.275020	-0.550191	0.642709	-0.365084	0.349572	-0.575706
65009	-0.659765	-8.530012	3.996227	-0.844677	0.283558	-0.412039	0.650098	-0.368262	0.345310	-0.567905
65010	-0.833097	-8.715583	4.230218	-0.778500	0.423825	-0.129489	0.657249	-0.371154	0.340860	-0.560431
65011	-1.139504	-8.866334	4.382694	-0.798484	0.695821	0.086625	0.664174	-0.373857	0.336221	-0.553227
65012	-1.187472	-9.228744	4.495421	-0.929100	0.686133	0.456412	0.671071	-0.376728	0.331350	-0.545845
65013	-1.164857	-9.120921	4.609497	-0.815955	0.663294	0.419106	0.677904	-0.379464	0.326399	-0.538439
65014	-1.256571	-9.058749	4.446271	-0.981085	0.705654	0.284270	0.684450	-0.382330	0.321624	-0.530952
65015	-1.365889	-9.016593	4.368398	-1.086421	0.772471	0.210799	0.690789	-0.385107	0.316954	-0.523492
65016	-1.481730	-8.739622	4.282981	-1.087471	0.879105	-0.067698	0.697087	-0.387939	0.312154	-0.515881
65017	-1.475682	-8.599983	4.186890	-1.131374	0.845928	-0.238156	0.703171	-0.391061	0.307392	-0.508067
65018	-1.442832	-8.486587	4.199283	-1.085197	0.809889	-0.330905	0.709084	-0.394212	0.302680	-0.500181
65019	-1.631050	-8.208330	4.251924	-0.996399	1.028870	-0.535601	0.714853	-0.397264	0.298013	-0.492295
65020	-1.694032	-8.232903	4.131265	-1.154637	1.025901	-0.575154	0.720380	-0.400725	0.293376	-0.484151
65021	-1.721993	-8.088147	4.060839	-1.177966	1.037689	-0.734732	0.725865	-0.404006	0.288672	-0.475991
65022	-1.797237	-7.841007	3.953242	-1.202023	1.103606	-0.999252	0.731216	-0.407355	0.284039	-0.467661
65023	-1.695274	-7.936219	4.051165	-1.151253	0.993024	-0.870770	0.736662	-0.410701	0.279248	-0.458993
65024	-1.720900	-8.007413	4.112861	-1.169834	0.989130	-0.776718	0.742215	-0.413657	0.274498	-0.450173
65025	-1.835752	-7.979560	4.179149	-1.181893	1.086813	-0.761144	0.747796	-0.416548	0.269753	-0.441047
65026	-1.792401	-7.914594	4.327868	-1.044627	1.086258	-0.740059	0.753352	-0.419525	0.264846	-0.431644
65027	-1.473424	-8.312187	4.435301	-0.998867	0.706989	-0.355537	0.758661	-0.422871	0.260087	-0.421863
65028	-0.964268	-9.693921	4.885634	-0.997546	0.019548	1.039766	0.764171	-0.425919	0.255118	-0.411764
65029	-0.715728	-10.375000	5.243324	-0.888917	-0.287255	1.796465	0.769913	-0.427800	0.249935	-0.402187
65030	-0.857994	-8.887932	5.055927	-0.505938	0.169978	0.434692	0.775425	-0.428950	0.244543	-0.393595
65031	-1.013226	-8.180838	5.019164	-0.348764	0.494035	-0.180499	0.779390	-0.432320	0.239784	-0.384907
65032	-0.263731	-8.222520	4.624624	-0.196729	-0.307048	-0.382230	0.783131	-0.435932	0.234885	-0.376162
65033	-0.455596	-8.094553	4.572594	-0.280491	-0.123177	-0.509780	0.786371	-0.439521	0.230683	-0.367732
65034	-0.571653	-8.064153	4.423732	-0.418592	-0.083532	-0.607011	0.789308	-0.443587	0.226541	-0.359031
65035	-0.423910	-8.533048	4.346796	-0.518900	-0.389316	-0.248886	0.792124	-0.447513	0.222631	-0.350296
65036	-0.590038	-8.923023	4.566442	-0.590502	-0.274647	0.207127	0.795084	-0.450949	0.218508	-0.341673
65037	-0.625870	-9.098229	4.680084	-0.577949	-0.244634	0.418577	0.798191	-0.454039	0.214066	-0.333040
65038	-0.578333	-8.987940	4.771051	-0.432519	-0.184202	0.368641	0.801432	-0.456882	0.209299	-0.324283
65039	-0.237317	-8.662495	4.773803	-0.072185	-0.297350	0.076230	0.804732	-0.459583	0.204126	-0.315471
65040	0.095332	-8.235704	4.853654	0.363840	-0.300415	-0.264327	0.807724	-0.462470	0.198971	-0.306780
65041	0.316179	-8.145148	4.807112	0.536060	-0.418785	-0.373995	0.810491	-0.465251	0.193903	-0.298407
65042	0.383686	-7.897095	4.848289	0.695905	-0.311229	-0.569527	0.813077	-0.467817	0.188988	-0.290407
65043	0.476010	-7.869456	4.898835	0.809854	-0.295793	-0.570931	0.815398	-0.470503	0.184105	-0.282591
65044	0.512663	-8.115052	5.048862	0.859264	-0.281519	-0.284301	0.817310	-0.473415	0.179561	-0.275030
65045	0.511955	-8.374631	5.178384	0.865880	-0.257785	0.005452	0.819145	-0.476253	0.174915	-0.267560
65046	0.549498	-8.756824	5.206954	0.815861	-0.373682	0.350523	0.820780	-0.479194	0.170397	-0.260113
65047	0.540230	-8.908219	5.229663	0.792776	-0.368242	0.494267	0.822277	-0.482124	0.165859	-0.252800
65048	0.660819	-8.748477	5.154271	0.903643	-0.375514	0.315554	0.823725	-0.484946	0.161077	-0.245679
65049	0.751769	-8.480396	4.994368	0.970484	-0.378276	0.002650	0.825059	-0.487709	0.156146	-0.238822
65050	0.886080	-8.377342	4.852909	1.041742	-0.457625	-0.157594	0.826174	-0.490603	0.151286	-0.232072
65051	0.857814	-8.138349	4.743987	1.026973	-0.369356	-0.416801	0.827269	-0.493244	0.146619	-0.225474
65052	0.925573	-8.287929	4.654458	1.014467	-0.479282	-0.328423	0.828005	-0.496345	0.142016	-0.218816
65053	0.971814	-8.501477	4.390972	0.897993	-0.735332	-0.265288	0.828815	-0.499090	0.137553	-0.212261
65054	0.897691	-8.409427	4.406460	0.871803	-0.601326	-0.335377	0.829744	-0.501440	0.133202	-0.205770
65055	0.862234	-8.348042	4.423123	0.869678	-0.503577	-0.379385	0.830657	-0.503698	0.128831	-0.199249
65056	0.838168	-8.505139	4.313208	0.778422	-0.606062	-0.290591	0.831675	-0.505715	0.124373	-0.192615
65057	0.913657	-8.433040	4.411242	0.905631	-0.497734	-0.307847	0.832810	-0.507480	0.119753	-0.185877
65058	1.062059	-8.439606	4.387649	1.034759	-0.545370	-0.313315	0.833653	-0.509583	0.115189	-0.179106
65059	1.248593	-8.702644	4.381183	1.163468	-0.696271	-0.083807	0.834281	-0.511667	0.111086	-0.172719
65060	1.202677	-8.928048	4.451056	1.119692	-0.674169	0.150244	0.834910	-0.513518	0.107187	-0.166542
65061	1.200726	-8.740477	4.333949	1.123136	-0.651454	-0.069236	0.835559	-0.515077	0.103644	-0.160606
65062	1.135111	-8.798151	4.360631	1.078651	-0.598176	-0.005056	0.836137	-0.516462	0.100655	-0.154955
65063	1.035250	-8.846032	4.469326	1.033415	-0.465666	0.087516	0.836726	-0.517693	0.097894	-0.149336
65064	0.897910	-9.205675	4.636068	0.927072	-0.415358	0.483514	0.837537	-0.518426	0.095617	-0.143610
65065	0.386744	-9.644686	4.699845	0.434540	-0.375915	0.907752	0.838602	-0.518670	0.093752	-0.137619
65066	-0.044798	-9.335008	4.630819	0.085390	-0.172584	0.606123	0.839888	-0.518508	0.092043	-0.131400
65067	-0.296641	-9.200499	4.776960	-0.057288	0.066405	0.557880	0.841057	-0.518383	0.090537	-0.125324
65068	-0.321645	-8.977153	4.491491	-0.101327	-0.091835	0.229592	0.842278	-0.518131	0.088775	-0.119278
65069	-0.366573	-8.558373	4.265774	-0.129978	-0.108369	-0.244605	0.843523	-0.517737	0.086924	-0.113413
65070	-0.262442	-8.368726	4.159201	-0.013910	-0.165656	-0.465191	0.844625	-0.517523	0.084824	-0.107624
65071	-0.259824	-8.359822	4.139071	0.006802	-0.198954	-0.482825	0.845675	-0.517201	0.082952	-0.102256
65072	-0.348870	-8.579788	4.158500	-0.071590	-0.278209	-0.276179	0.846583	-0.516968	0.081208	-0.097192
65073	-0.514900	-8.603377	4.061622	-0.234870	-0.351012	-0.294204	0.847543	-0.516490	0.079668	-0.092528
65074	-0.702952	-8.654750	4.265170	-0.353056	-0.179286	-0.146580	0.848436	-0.516016	0.078226	-0.088117
65075	-0.709538	-8.906671	4.266926	-0.357529	-0.315363	0.077284	0.849209	-0.515650	0.076803	-0.083972
65076	-1.020627	-8.969257	4.262016	-0.646546	-0.303320	0.144416	0.850031	-0.515016	0.075765	-0.080414
65077	-1.377711	-8.807089	4.382441	-0.943239	-0.074822	0.075351	0.850820	-0.514387	0.074621	-0.077087
65078	-1.429344	-8.438330	4.109921	-1.018085	-0.152343	-0.374461	0.851607	-0.513773	0.073241	-0.073751
65079	-1.590328	-8.177849	4.086580	-1.156871	-0.043202	-0.605831	0.852301	-0.513233	0.072053	-0.070592
65080	-1.692924	-7.917189	4.148017	-1.224040	0.128914	-0.799420	0.852929	-0.512825	0.070669	-0.067293
65081	-1.635811	-7.905752	4.184515	-1.153111	0.133780	-0.793854	0.853435	-0.512602	0.069284	-0.063940
65082	-1.645650	-7.982409	4.254929	-1.144235	0.144043	-0.691207	0.853726	-0.512711	0.067923	-0.060544
65083	-1.636197	-7.955785	4.071922	-1.156927	-0.013865	-0.800834	0.853967	-0.512904	0.066481	-0.057001
65084	-1.521554	-8.037154	3.877835	-1.069757	-0.246611	-0.826956	0.854022	-0.513390	0.064920	-0.053501
65085	-1.329984	-7.671032	3.717277	-0.887817	-0.242297	-1.234529	0.853954	-0.514017	0.063459	-0.050222
65086	-1.111401	-8.045514	3.744033	-0.663612	-0.422071	-0.903999	0.853442	-0.515312	0.062259	-0.047046
65087	-0.960121	-9.096105	4.277571	-0.429795	-0.461786	0.265037	0.852923	-0.516520	0.061574	-0.044030
65088	-0.937524	-10.513018	5.098950	-0.275136	-0.394315	1.899291	0.852185	-0.518010	0.061113	-0.041355
65089	-0.974888	-11.127470	5.328068	-0.263506	-0.457570	2.551797	0.852051	-0.518503	0.060234	-0.039187
65090	-0.857319	-10.311262	5.109150	-0.172524	-0.273994	1.722289	0.852056	-0.518808	0.058629	-0.037435
65091	-0.543590	-8.916222	4.359428	0.022238	-0.308003	0.122286	0.852062	-0.519184	0.056131	-0.035884
65092	0.024239	-7.674856	3.882302	0.501443	-0.197976	-1.228659	0.851693	-0.520192	0.053325	-0.034288
65093	0.492407	-7.735962	3.299900	0.871412	-0.765916	-1.468178	0.851032	-0.521575	0.051190	-0.032917
65094	0.453115	-8.098988	3.409654	0.837706	-0.810106	-1.091069	0.850588	-0.522415	0.050515	-0.032105
65095	0.177697	-8.762551	3.633743	0.592495	-0.873526	-0.383804	0.850193	-0.523113	0.050371	-0.031433
65096	0.039520	-9.172936	3.876972	0.490842	-0.826006	0.099527	0.850191	-0.523149	0.050404	-0.030815
65097	-0.103681	-9.531320	4.093855	0.382470	-0.789971	0.523952	0.850425	-0.522744	0.050784	-0.030600
65098	-0.443776	-9.268301	4.717477	0.126147	-0.099651	0.595340	0.850972	-0.521780	0.051303	-0.030994
65099	-0.538055	-8.691466	4.715355	0.030925	0.158746	0.088802	0.851316	-0.521209	0.051158	-0.031390
65100	-0.488502	-8.263409	4.750494	0.077066	0.376436	-0.276330	0.851368	-0.521106	0.050963	-0.031987
65101	-0.294610	-8.043229	4.846660	0.271951	0.544756	-0.437203	0.851207	-0.521389	0.050503	-0.032393
65102	-0.149720	-8.258871	4.686696	0.385280	0.297189	-0.327978	0.850906	-0.521892	0.050127	-0.032803
65103	-0.102143	-8.581972	4.781013	0.434300	0.236833	-0.000753	0.850577	-0.522409	0.049990	-0.033313
65104	0.006621	-8.884029	4.470537	0.496451	-0.179833	0.118723	0.850457	-0.522577	0.049947	-0.033786
65105	0.061498	-8.845097	4.493906	0.550357	-0.149868	0.092329	0.850670	-0.522178	0.050165	-0.034250
65106	0.037796	-8.555199	4.375903	0.513168	-0.125971	-0.217784	0.850897	-0.521754	0.050430	-0.034696
65107	-0.104518	-8.468356	4.425964	0.378783	-0.034059	-0.264468	0.851052	-0.521401	0.050956	-0.035440
65108	-0.272650	-8.455769	4.582043	0.231362	0.122074	-0.194941	0.851141	-0.521164	0.051344	-0.036214
65109	-0.152197	-8.450107	4.566764	0.348164	0.092743	-0.213053	0.851216	-0.520970	0.051678	-0.036768
65110	-0.238990	-8.425405	4.563695	0.264116	0.107746	-0.231951	0.851275	-0.520762	0.052337	-0.037387
65111	-0.392739	-8.490990	4.622463	0.121812	0.141982	-0.138840	0.851393	-0.520459	0.052906	-0.038123
65112	-0.525392	-8.556568	4.658148	-0.006214	0.153431	-0.057399	0.851492	-0.520197	0.053257	-0.038980
65113	-0.476013	-8.639092	5.026610	0.084000	0.427046	0.184206	0.851595	-0.519965	0.053186	-0.039927
65114	-0.194334	-8.454138	4.613055	0.299752	0.111966	-0.185222	0.851729	-0.519745	0.052839	-0.040377
65115	-0.059779	-8.197250	4.477378	0.414422	0.091750	-0.481812	0.851816	-0.519516	0.053276	-0.040922
65116	-0.289538	-8.018688	4.438612	0.188300	0.167235	-0.646388	0.851809	-0.519418	0.053958	-0.041397
65117	-0.438049	-8.128732	4.663887	0.077052	0.331104	-0.436950	0.851745	-0.519411	0.054674	-0.041883
65118	-0.593280	-8.501402	4.884176	-0.045512	0.370456	0.002692	0.851675	-0.519470	0.055090	-0.042016
65119	-0.295646	-8.524948	4.544744	0.208480	0.025077	-0.149730	0.851641	-0.519549	0.055273	-0.041501
65120	-0.092547	-8.756087	4.362542	0.390550	-0.272524	-0.041169	0.851828	-0.519194	0.055863	-0.041297
65121	-0.378648	-8.514586	4.362749	0.121753	-0.131546	-0.239653	0.852049	-0.518704	0.056766	-0.041669
65122	-0.790262	-8.538388	5.003272	-0.187792	0.461764	0.102595	0.852188	-0.518319	0.057552	-0.042543
65123	-0.617003	-8.396478	4.899615	-0.026646	0.412839	-0.080441	0.852101	-0.518440	0.057636	-0.042688
65124	-0.296502	-8.490065	4.130067	0.178755	-0.342807	-0.374620	0.852032	-0.518585	0.057546	-0.042426
65125	-0.276999	-8.454425	3.889790	0.165111	-0.539793	-0.519364	0.852167	-0.518308	0.057826	-0.042711
65126	-0.661935	-8.535303	4.267123	-0.165164	-0.204373	-0.250845	0.852410	-0.517791	0.058089	-0.043756
65127	-0.716205	-8.605652	5.582857	-0.033601	0.907761	0.430033	0.852603	-0.517375	0.058292	-0.044660
65128	-0.595000	-8.778069	4.604044	-0.061630	-0.041498	0.117076	0.852298	-0.517889	0.058364	-0.044419
65129	-0.624445	-8.781345	4.006521	-0.171934	-0.553487	-0.157727	0.852257	-0.517958	0.058650	-0.044014
65130	-0.468729	-8.425602	3.630456	-0.066875	-0.740789	-0.656410	0.852655	-0.517433	0.057869	-0.043510
65131	-0.623474	-8.429577	4.492314	-0.102675	0.005946	-0.241027	0.853601	-0.515839	0.057743	-0.044058
65132	-0.613836	-8.002494	5.729440	0.082869	1.260136	-0.032690	0.853952	-0.515362	0.056935	-0.043901
65133	-0.439792	-9.417400	4.021561	-0.017518	-0.919830	0.395513	0.853625	-0.515971	0.057021	-0.042970
65134	-1.190777	-8.816423	4.080410	-0.726771	-0.490088	-0.064429	0.854307	-0.514832	0.057682	-0.042197
65135	-1.164246	-8.335921	3.906120	-0.718084	-0.451544	-0.572498	0.855588	-0.513071	0.055623	-0.040413
65136	-0.465988	-7.461748	5.096010	0.131056	0.860230	-0.806765	0.857427	-0.510334	0.053654	-0.038713
65137	-0.241361	-7.972358	5.019428	0.317674	0.493726	-0.407014	0.857328	-0.510863	0.051603	-0.036664
65138	-0.572019	-9.066581	4.052799	-0.157621	-0.830994	0.098916	0.857415	-0.511017	0.049904	-0.034797
65139	-0.769775	-9.141860	4.727860	-0.277907	-0.280582	0.500543	0.858480	-0.509483	0.048489	-0.032978
65140	-0.509408	-8.785609	4.890162	-0.007489	-0.041779	0.254985	0.860011	-0.507222	0.046473	-0.030761
65141	-0.210294	-8.605073	4.593424	0.248536	-0.282846	-0.063370	0.860924	-0.505861	0.045427	-0.029167
65142	-0.179645	-8.611836	4.777979	0.299288	-0.165918	0.031491	0.861981	-0.504148	0.045068	-0.028150
65143	-0.390644	-8.433035	4.169901	0.031387	-0.613374	-0.416973	0.862753	-0.502857	0.045264	-0.027246
65144	-0.472099	-7.731217	4.716599	0.023006	0.188834	-0.746010	0.863499	-0.501590	0.045619	-0.026363
65145	-0.402113	-7.880933	4.786077	0.107269	0.162151	-0.585580	0.863019	-0.502553	0.044920	-0.024928
65146	0.015055	-8.259601	4.466685	0.489101	-0.309643	-0.440534	0.861969	-0.504532	0.043703	-0.023370
65147	-0.156381	-8.601594	3.601962	0.231159	-1.178891	-0.563755	0.861474	-0.505544	0.042529	-0.021887
65148	-0.762338	-9.049992	4.133998	-0.316676	-0.906974	0.119602	0.862702	-0.503525	0.042083	-0.020895
65149	-1.416297	-8.812056	5.555138	-0.831615	0.436895	0.657989	0.863997	-0.501359	0.041753	-0.020106
65150	-0.761137	-8.744197	5.697195	-0.173417	0.504005	0.637872	0.864540	-0.500618	0.040174	-0.018394
65151	-0.397363	-8.561283	4.900359	0.108610	-0.115906	0.058571	0.864198	-0.501335	0.039233	-0.016902
65152	-0.385996	-8.470376	5.080711	0.130540	0.099695	0.070778	0.863853	-0.502067	0.037981	-0.015628
65153	-0.463918	-9.058947	4.493015	-0.004836	-0.675514	0.287336	0.863196	-0.503375	0.035986	-0.014525
65154	-0.742527	-9.339051	5.332890	-0.229088	-0.084025	0.964567	0.864296	-0.501488	0.035727	-0.015008
65155	-1.028553	-8.431272	5.170789	-0.549703	0.220389	0.113566	0.864916	-0.500502	0.034628	-0.014793
65156	-0.345911	-8.303038	5.021697	0.100002	0.100089	-0.104058	0.865160	-0.500238	0.032818	-0.013550
65157	-0.464433	-8.060470	5.085696	-0.029760	0.294142	-0.275197	0.864566	-0.501370	0.031611	-0.012452
65158	0.001062	-8.557642	4.635997	0.395182	-0.337882	-0.093881	0.863598	-0.503201	0.029515	-0.010782
65159	-0.112165	-8.818855	4.493153	0.267649	-0.553331	0.066348	0.862969	-0.504321	0.029046	-0.010064
65160	-0.650652	-8.780529	4.896936	-0.247853	-0.144702	0.257995	0.862885	-0.504539	0.028056	-0.009094
65161	-0.358801	-8.742939	4.989306	0.040723	-0.056926	0.259849	0.862877	-0.504628	0.026980	-0.008120
65162	-0.312741	-8.648805	4.873517	0.073447	-0.114226	0.118695	0.863048	-0.504357	0.026666	-0.007823
65163	-0.433337	-8.570568	4.952351	-0.045877	-0.006864	0.095191	0.863138	-0.504211	0.026527	-0.007785
65164	-0.709775	-8.432072	4.963141	-0.325424	0.078255	-0.008385	0.863346	-0.503863	0.026371	-0.007787
65165	-0.685164	-8.432725	5.127163	-0.304376	0.202449	0.073383	0.863970	-0.502888	0.024692	-0.007043
65166	-0.177374	-8.055299	4.816043	0.159242	0.069948	-0.427427	0.865249	-0.500771	0.023037	-0.006515
65167	-0.633036	-7.957691	5.291039	-0.290542	0.509580	-0.253581	0.865886	-0.499695	0.022432	-0.006573
65168	-0.773392	-7.889680	5.443414	-0.440868	0.667784	-0.229597	0.865922	-0.499699	0.020995	-0.006226
65169	-0.716199	-8.013402	5.209349	-0.412670	0.413346	-0.245888	0.865292	-0.500839	0.019846	-0.006065
65170	-0.509935	-8.310020	5.058779	-0.232030	0.160200	-0.074721	0.864169	-0.502853	0.017952	-0.005427
65171	-0.077135	-8.636234	4.626005	0.160305	-0.351001	-0.022828	0.863316	-0.504385	0.016005	-0.004922
65172	0.131411	-8.411739	4.338107	0.333373	-0.464300	-0.364565	0.862755	-0.505381	0.014761	-0.005027
65173	-0.016496	-8.530666	4.501164	0.172222	-0.357890	-0.175509	0.862256	-0.506251	0.013917	-0.005481
65174	-0.005308	-8.580549	4.491027	0.164071	-0.381313	-0.136799	0.862224	-0.506324	0.013011	-0.006048
65175	-0.013774	-8.466336	4.709868	0.142140	-0.135881	-0.126450	0.862355	-0.506110	0.012289	-0.006741
65176	-0.040406	-8.517648	4.605867	0.095449	-0.254460	-0.133220	0.862424	-0.505989	0.011914	-0.007619
65177	-0.195817	-8.452176	4.629816	-0.073039	-0.205719	-0.176031	0.862825	-0.505292	0.011787	-0.008590
65178	-0.325297	-8.361209	4.730283	-0.210750	-0.088902	-0.203377	0.863456	-0.504209	0.011502	-0.009236
65179	-0.283133	-8.180061	4.858082	-0.172579	0.095811	-0.296620	0.863643	-0.503881	0.011408	-0.009728
65180	-0.134265	-8.371799	4.910633	-0.029457	0.035715	-0.106132	0.863708	-0.503770	0.011183	-0.009987
65181	-0.132444	-8.423977	4.865000	-0.033833	-0.033128	-0.084023	0.863802	-0.503604	0.011156	-0.010200
65182	-0.052357	-8.464726	4.884493	0.046456	-0.040865	-0.039828	0.863788	-0.503616	0.011467	-0.010484
65183	-0.181934	-8.366258	4.718066	-0.084816	-0.131953	-0.207329	0.863850	-0.503495	0.011858	-0.010778
65184	-0.208246	-8.463841	4.786033	-0.107809	-0.128799	-0.088601	0.864158	-0.502964	0.011899	-0.010820
65185	-0.295503	-8.466774	4.952644	-0.189911	0.003437	-0.001155	0.864522	-0.502342	0.011783	-0.010705
65186	-0.227333	-8.280566	5.063281	-0.119324	0.176843	-0.106465	0.864875	-0.501750	0.011367	-0.010416
65187	-0.145774	-8.299686	4.928075	-0.047284	0.043213	-0.159302	0.864777	-0.501934	0.010923	-0.010180
65188	-0.025866	-8.412587	4.883453	0.065831	-0.052428	-0.085750	0.864698	-0.502080	0.010601	-0.010038
65189	0.012094	-8.379164	4.798211	0.098889	-0.106698	-0.158040	0.864619	-0.502221	0.010446	-0.009908
65190	-0.020890	-8.327688	4.773250	0.066699	-0.097175	-0.214727	0.864488	-0.502445	0.010604	-0.009815
65191	-0.068971	-8.360195	4.779220	0.021683	-0.102347	-0.183170	0.864362	-0.502665	0.010650	-0.009622
65192	-0.088138	-8.427944	4.737698	0.003820	-0.168240	-0.145451	0.864310	-0.502757	0.010719	-0.009416
65193	-0.151925	-8.534972	4.761186	-0.057460	-0.201444	-0.040593	0.864420	-0.502578	0.010548	-0.009013
65194	-0.113819	-8.457469	4.869727	-0.016374	-0.074000	-0.053065	0.864546	-0.502376	0.010187	-0.008611
65195	-0.045850	-8.510720	4.744511	0.046876	-0.211467	-0.071131	0.864461	-0.502530	0.010061	-0.008358
65196	-0.045357	-8.503215	4.778698	0.049151	-0.176315	-0.060294	0.864453	-0.502547	0.010045	-0.008215
65197	-0.043845	-8.451499	4.760859	0.052325	-0.164831	-0.113943	0.864421	-0.502598	0.010193	-0.008193
65198	-0.086482	-8.407464	4.804600	0.013511	-0.105142	-0.129409	0.864520	-0.502427	0.010285	-0.008156
65199	-0.107104	-8.351248	4.827655	-0.004666	-0.059604	-0.166056	0.864589	-0.502309	0.010310	-0.008060
65200	-0.082871	-8.440993	4.885232	0.021646	-0.057046	-0.059791	0.864575	-0.502338	0.010247	-0.007927
65201	-0.084167	-8.369476	4.863304	0.020319	-0.039421	-0.132554	0.864573	-0.502341	0.010223	-0.007852
65202	-0.086726	-8.356806	4.876647	0.018795	-0.017953	-0.136700	0.864403	-0.502632	0.010294	-0.007877
65203	-0.060621	-8.359624	4.889684	0.046557	-0.003223	-0.127967	0.864280	-0.502842	0.010417	-0.007922
65204	-0.122172	-8.353954	4.833834	-0.015223	-0.042926	-0.160364	0.864194	-0.502985	0.010522	-0.007996
65205	-0.097946	-8.410484	4.799091	0.008908	-0.098014	-0.129329	0.864059	-0.503214	0.010605	-0.008053
65206	-0.027663	-8.496780	4.725707	0.077803	-0.202824	-0.092546	0.863991	-0.503327	0.010720	-0.008142
65207	-0.100046	-8.519579	4.751516	0.007374	-0.187094	-0.058966	0.863902	-0.503477	0.010852	-0.008206
65208	-0.048017	-8.625136	4.808279	0.062811	-0.190970	0.060225	0.863893	-0.503485	0.011088	-0.008310
65209	-0.144280	-8.489387	4.779678	-0.031352	-0.146566	-0.070339	0.863996	-0.503301	0.011274	-0.008435
65210	-0.131610	-8.407107	4.837783	-0.015827	-0.058092	-0.112312	0.864036	-0.503230	0.011325	-0.008505
65211	0.010908	-8.544630	4.848388	0.127217	-0.121077	0.010084	0.863929	-0.503410	0.011433	-0.008584
65212	-0.065853	-8.593292	4.857448	0.051098	-0.134524	0.057626	0.863978	-0.503321	0.011548	-0.008762
65213	-0.049567	-8.349571	4.854240	0.067948	-0.017572	-0.154711	0.864064	-0.503169	0.011607	-0.008943
65214	-0.087493	-8.354777	4.816977	0.028598	-0.052573	-0.168537	0.864043	-0.503196	0.011790	-0.009216
65215	-0.103208	-8.341503	4.791337	0.012994	-0.067569	-0.192734	0.864057	-0.503163	0.012001	-0.009433
65216	-0.129273	-8.326473	4.933419	-0.006869	0.061469	-0.133759	0.864136	-0.503017	0.012239	-0.009625
65217	-0.145226	-8.325385	4.895147	-0.021310	0.026167	-0.153782	0.864222	-0.502864	0.012449	-0.009706
65218	-0.080500	-8.345795	4.923195	0.046978	0.036457	-0.122843	0.864207	-0.502883	0.012649	-0.009729
65219	-0.065364	-8.341639	4.867671	0.063685	-0.010583	-0.154672	0.864257	-0.502790	0.012909	-0.009751
65220	-0.138769	-8.342436	4.881630	-0.004907	-0.000005	-0.145952	0.864371	-0.502586	0.013214	-0.009793
65221	-0.119759	-8.381408	4.868987	0.018024	-0.034714	-0.118986	0.864430	-0.502477	0.013482	-0.009814
65222	-0.151514	-8.406597	4.977644	-0.005894	0.044893	-0.041878	0.864486	-0.502374	0.013694	-0.009827
65223	-0.161677	-8.368700	4.904532	-0.015553	-0.000563	-0.111375	0.864524	-0.502305	0.013849	-0.009829
65224	-0.162824	-8.406680	4.926447	-0.014054	-0.001199	-0.067511	0.864491	-0.502358	0.013957	-0.009842
65225	-0.089562	-8.404249	4.904524	0.059867	-0.021145	-0.081822	0.864520	-0.502304	0.014066	-0.009900
65226	-0.076514	-8.334139	4.858306	0.072553	-0.026216	-0.165879	0.864504	-0.502325	0.014214	-0.010027
65227	-0.153107	-8.349913	4.865645	-0.002144	-0.024113	-0.147368	0.864454	-0.502399	0.014458	-0.010258
65228	-0.205833	-8.370699	4.923013	-0.051710	0.016531	-0.099599	0.864492	-0.502327	0.014565	-0.010412
65229	-0.215981	-8.330146	4.916216	-0.061673	0.030152	-0.137851	0.864519	-0.502279	0.014592	-0.010467
65230	-0.192045	-8.371058	4.900593	-0.038442	-0.004468	-0.110842	0.864480	-0.502343	0.014666	-0.010564
65231	-0.156838	-8.372927	4.904693	-0.003488	-0.001457	-0.107714	0.864426	-0.502435	0.014645	-0.010630
65232	-0.117073	-8.369867	4.876757	0.034630	-0.023165	-0.125097	0.864378	-0.502511	0.014726	-0.010770
65233	-0.121290	-8.386586	4.805790	0.027719	-0.090463	-0.146447	0.864296	-0.502650	0.014779	-0.010847
65234	-0.133101	-8.383272	4.883940	0.019512	-0.018468	-0.109641	0.864248	-0.502726	0.014901	-0.010983
65235	-0.168374	-8.443176	4.848309	-0.016532	-0.075517	-0.075352	0.864146	-0.502894	0.015024	-0.011124
65236	-0.241401	-8.497028	4.877412	-0.088943	-0.074980	-0.013026	0.864254	-0.502707	0.015024	-0.011221
65237	-0.193184	-8.448034	4.942716	-0.039244	0.000259	-0.023126	0.864357	-0.502537	0.014864	-0.011091
65238	0.029483	-8.388490	4.871791	0.180916	-0.039940	-0.113839	0.864323	-0.502604	0.014787	-0.010776
65239	-0.009423	-8.353935	4.866168	0.146066	-0.025550	-0.145945	0.864343	-0.502572	0.014965	-0.010431
65240	-0.059849	-8.340403	4.822639	0.101939	-0.054339	-0.178872	0.864304	-0.502637	0.015278	-0.010006
65241	0.023826	-8.385584	4.814808	0.196844	-0.084782	-0.145474	0.864221	-0.502774	0.015790	-0.009498
65242	0.271634	-8.418882	4.685940	0.454913	-0.218965	-0.186968	0.864178	-0.502833	0.016545	-0.008984
65243	0.311335	-8.368835	4.703575	0.515528	-0.180572	-0.223134	0.864205	-0.502750	0.017787	-0.008714
65244	0.180344	-8.431663	4.626949	0.404668	-0.275960	-0.205703	0.864204	-0.502694	0.019284	-0.008802
65245	0.164866	-8.645235	4.532610	0.409943	-0.468480	-0.069780	0.864296	-0.502456	0.021081	-0.009276
65246	0.122417	-8.624946	4.581622	0.393754	-0.424448	-0.062781	0.864571	-0.501879	0.023095	-0.010112
65247	0.099633	-8.642933	4.772300	0.405234	-0.283106	0.048379	0.864869	-0.501229	0.025307	-0.011390
65248	0.079700	-8.642095	4.804387	0.408434	-0.267996	0.063324	0.865061	-0.500732	0.027613	-0.013238
65249	-0.017987	-8.655536	4.621925	0.316538	-0.435439	-0.015188	0.865075	-0.500492	0.030099	-0.015697
65250	0.269385	-8.853819	4.508280	0.608694	-0.655040	0.086185	0.864937	-0.500487	0.032551	-0.018351
65251	0.440014	-8.874865	4.467646	0.787507	-0.722315	0.075424	0.865129	-0.499818	0.035567	-0.021647
65252	0.279432	-8.566882	4.364535	0.630585	-0.666548	-0.237893	0.865591	-0.498566	0.039013	-0.025744
65253	-0.207897	-8.466441	4.464341	0.164817	-0.518893	-0.254567	0.866146	-0.497039	0.042645	-0.030401
65254	-0.407767	-8.477738	4.685294	-0.002274	-0.348936	-0.124116	0.866764	-0.495333	0.046165	-0.035142
65255	-0.483229	-8.284626	4.904334	-0.039307	-0.084218	-0.173584	0.867179	-0.493864	0.049849	-0.040185
65256	-0.389512	-8.441875	4.814990	0.047602	-0.273205	-0.090333	0.867248	-0.492908	0.053488	-0.045403
65257	-0.486013	-8.518354	4.994136	-0.017269	-0.165755	0.072258	0.867346	-0.491753	0.057375	-0.050979
65258	-0.660291	-8.341255	4.996323	-0.174357	-0.062779	-0.068900	0.867397	-0.490561	0.061254	-0.056758
65259	-0.794160	-8.246763	4.914730	-0.308940	-0.069960	-0.184915	0.867167	-0.489762	0.065029	-0.062650
65260	-0.869925	-8.282267	4.920631	-0.379666	-0.074028	-0.147508	0.866912	-0.488961	0.068574	-0.068397
65261	-0.936356	-8.302841	5.047922	-0.418945	0.029471	-0.059787	0.866712	-0.488034	0.071881	-0.073934
65262	-0.887484	-8.147974	5.068571	-0.354107	0.113660	-0.183087	0.866398	-0.487248	0.075174	-0.079335
65263	-0.933982	-8.153154	5.010725	-0.404833	0.076657	-0.206240	0.865729	-0.487012	0.078574	-0.084604
65264	-0.862441	-8.259522	5.041357	-0.328724	0.039682	-0.103457	0.865059	-0.486803	0.081678	-0.089576
65265	-0.951538	-8.399847	5.128898	-0.400931	0.063825	0.066768	0.864644	-0.486115	0.084641	-0.094445
65266	-1.044756	-8.253932	5.238584	-0.450079	0.251834	0.005442	0.864283	-0.485415	0.087134	-0.098970
65267	-1.017357	-8.164175	5.283488	-0.402570	0.328601	-0.048776	0.863835	-0.484905	0.089480	-0.103198
65268	-0.945624	-8.101870	5.245363	-0.335838	0.316627	-0.125825	0.863228	-0.484788	0.091467	-0.107017
65269	-0.814263	-8.102020	5.246243	-0.208458	0.289916	-0.132743	0.862623	-0.484730	0.093308	-0.110507
65270	-0.783822	-8.180747	5.191450	-0.200923	0.203937	-0.096300	0.862093	-0.484590	0.095026	-0.113744
65271	-0.764284	-8.189028	5.187382	-0.183125	0.196196	-0.092543	0.861614	-0.484417	0.096675	-0.116683
65272	-0.696030	-8.137353	5.150336	-0.121932	0.175073	-0.159635	0.861278	-0.484090	0.098085	-0.119319
65273	-0.657971	-8.038720	5.210164	-0.056454	0.262766	-0.214379	0.860927	-0.483848	0.099446	-0.121678
65274	-0.761834	-8.090463	5.274984	-0.140176	0.320907	-0.130807	0.860622	-0.483598	0.100680	-0.123798
65275	-0.853609	-8.062409	5.263988	-0.224626	0.355826	-0.155380	0.860350	-0.483383	0.101772	-0.125623
65276	-0.918156	-8.096549	5.216305	-0.301901	0.323719	-0.147750	0.860025	-0.483396	0.102603	-0.127112
65277	-0.759141	-8.106814	5.190673	-0.158334	0.253799	-0.161246	0.859635	-0.483589	0.103356	-0.128401
65278	-0.685032	-8.154132	5.093483	-0.120076	0.136856	-0.175802	0.859205	-0.483862	0.104177	-0.129582
65279	-0.796078	-8.282355	5.078605	-0.242459	0.103128	-0.068256	0.858933	-0.483953	0.104767	-0.130563
65280	-0.722820	-8.328147	5.049957	-0.186382	0.036790	-0.048135	0.858754	-0.483950	0.105271	-0.131346
65281	-0.670209	-8.288308	5.021442	-0.138678	0.018273	-0.099781	0.858642	-0.483892	0.105724	-0.131930
65282	-0.658640	-8.191970	5.058287	-0.101544	0.092172	-0.163354	0.858579	-0.483785	0.106152	-0.132388
65283	-0.712259	-8.209085	5.114232	-0.133359	0.144556	-0.116653	0.858522	-0.483694	0.106595	-0.132732
65284	-0.768788	-8.234503	5.146563	-0.175360	0.174243	-0.074922	0.858515	-0.483562	0.106996	-0.132934
65285	-0.805029	-8.234352	5.069749	-0.229143	0.122622	-0.112820	0.858546	-0.483447	0.107261	-0.132938
65286	-0.742480	-8.181078	5.101366	-0.149997	0.151919	-0.145234	0.858570	-0.483431	0.107356	-0.132768
65287	-0.694141	-8.343830	5.076970	-0.130141	0.032103	-0.021927	0.858640	-0.483369	0.107388	-0.132512
65288	-0.815874	-8.265711	5.034385	-0.245815	0.074482	-0.103585	0.858795	-0.483163	0.107403	-0.132246
65289	-0.773398	-8.252450	5.065899	-0.193040	0.089049	-0.100880	0.858875	-0.483215	0.107161	-0.131733
65290	-0.512041	-8.392691	5.034754	0.026453	-0.093715	-0.012753	0.858949	-0.483310	0.106874	-0.131133
65291	-0.599533	-8.387459	5.051623	-0.049445	-0.051213	-0.003369	0.859145	-0.483132	0.106673	-0.130670
65292	-0.745799	-8.206057	5.066594	-0.160322	0.095749	-0.141540	0.859357	-0.482949	0.106396	-0.130176
65293	-0.749009	-8.174234	5.024469	-0.172849	0.075203	-0.190376	0.859524	-0.482903	0.106064	-0.129514
65294	-0.693370	-8.227975	5.115338	-0.098565	0.098967	-0.100452	0.859686	-0.482878	0.105742	-0.128790
65295	-0.676552	-8.231385	5.118899	-0.080608	0.091104	-0.096631	0.859880	-0.482797	0.105472	-0.128021
65296	-0.705709	-8.245757	5.094203	-0.115726	0.069834	-0.095529	0.860052	-0.482761	0.105162	-0.127254
65297	-0.646671	-8.259471	5.034423	-0.079037	-0.006749	-0.118557	0.860225	-0.482743	0.104757	-0.126484
65298	-0.648172	-8.179341	5.100516	-0.051660	0.083731	-0.152080	0.860466	-0.482621	0.104271	-0.125709
65299	-0.692046	-8.178496	5.101051	-0.094846	0.094171	-0.149894	0.860682	-0.482525	0.103793	-0.124994
65300	-0.711424	-8.170636	5.104248	-0.113392	0.104315	-0.153752	0.860829	-0.482568	0.103271	-0.124244
65301	-0.615821	-8.253157	5.082809	-0.040756	0.013982	-0.100482	0.860962	-0.482648	0.102742	-0.123450
65302	-0.605119	-8.140955	5.070136	-0.022158	0.057178	-0.203117	0.861107	-0.482663	0.102332	-0.122719
65303	-0.621637	-8.119162	5.180992	-0.002581	0.163440	-0.162652	0.861098	-0.482940	0.101934	-0.122022
65304	-0.640891	-8.229160	5.074919	-0.064534	0.032591	-0.123550	0.861069	-0.483238	0.101534	-0.121373
65305	-0.621501	-8.278007	5.051276	-0.058525	-0.012963	-0.095513	0.861066	-0.483509	0.101109	-0.120672
65306	-0.590539	-8.212648	5.056072	-0.019644	0.020227	-0.150421	0.860995	-0.483893	0.100721	-0.119963
65307	-0.648908	-8.230317	5.054329	-0.076464	0.033430	-0.132890	0.860952	-0.484210	0.100362	-0.119288
65308	-0.691555	-8.267294	5.049160	-0.121703	0.029134	-0.101624	0.860877	-0.484586	0.099988	-0.118617
65309	-0.691602	-8.269961	5.044784	-0.122341	0.030297	-0.101635	0.860819	-0.484946	0.099588	-0.117899
65310	-0.672012	-8.242195	5.081764	-0.088792	0.074171	-0.107209	0.860762	-0.485294	0.099222	-0.117190
65311	-0.698502	-8.225325	5.090569	-0.108447	0.104512	-0.115518	0.860651	-0.485738	0.098836	-0.116488
65312	-0.750483	-8.261035	5.030556	-0.178419	0.060880	-0.113260	0.860580	-0.486161	0.098300	-0.115698
65313	-0.684710	-8.231062	5.005920	-0.119567	0.044554	-0.155454	0.860475	-0.486655	0.097767	-0.114853
65314	-0.681675	-8.230777	5.044779	-0.106024	0.082444	-0.135801	0.860451	-0.487031	0.097167	-0.113944
65315	-0.672125	-8.169034	5.024752	-0.095620	0.101881	-0.199494	0.860356	-0.487517	0.096666	-0.113010
65316	-0.697664	-8.184078	4.970706	-0.134572	0.066525	-0.213143	0.860223	-0.488068	0.096189	-0.112044
65317	-0.760349	-8.216649	4.962900	-0.197845	0.071003	-0.185765	0.860091	-0.488623	0.095672	-0.111077
65318	-0.820475	-8.245915	4.999060	-0.247119	0.112204	-0.138742	0.859957	-0.489196	0.095081	-0.110090
65319	-0.928101	-8.401442	5.032509	-0.357400	0.100675	0.017565	0.859856	-0.489766	0.094271	-0.109044
65320	-0.891730	-8.510211	4.917172	-0.369198	-0.050990	0.049287	0.859895	-0.490197	0.093084	-0.107807
65321	-0.659372	-8.449976	4.888629	-0.154391	-0.100898	-0.029971	0.859871	-0.490762	0.091895	-0.106442
65322	-0.511191	-8.411676	4.859639	-0.020753	-0.138407	-0.085709	0.859935	-0.491174	0.090756	-0.104994
65323	-0.539569	-8.283798	4.942360	-0.017881	0.007523	-0.151476	0.859977	-0.491563	0.089773	-0.103663
65324	-0.772520	-8.358574	5.015966	-0.232926	0.099197	-0.037291	0.859934	-0.492041	0.088894	-0.102506
65325	-0.857831	-8.371593	4.984420	-0.329172	0.096156	-0.037910	0.859960	-0.492478	0.087708	-0.101198
65326	-0.573385	-8.405747	4.822748	-0.105002	-0.120858	-0.106060	0.859941	-0.493070	0.086373	-0.099614
65327	-0.407339	-8.405419	4.727836	0.027365	-0.233051	-0.163109	0.859963	-0.493572	0.085136	-0.097987
65328	-0.417726	-8.286419	4.767248	0.034476	-0.132942	-0.244666	0.860119	-0.493810	0.084012	-0.096380
65329	-0.357537	-8.303123	4.923225	0.127310	-0.023011	-0.153956	0.860138	-0.494256	0.083013	-0.094775
65330	-0.459846	-8.400406	4.988805	0.035336	0.011916	-0.031835	0.860248	-0.494460	0.082201	-0.093417
65331	-0.674857	-8.290637	4.982618	-0.167683	0.112751	-0.118579	0.860537	-0.494360	0.081246	-0.092107
65332	-0.707525	-8.207119	5.029251	-0.186973	0.198229	-0.165071	0.860740	-0.494475	0.080072	-0.090605
65333	-0.576171	-8.153392	5.025373	-0.061391	0.192374	-0.219806	0.860837	-0.494797	0.078876	-0.088958
65334	-0.493829	-8.186334	5.037444	0.015061	0.171460	-0.189478	0.860872	-0.495217	0.077739	-0.087271
65335	-0.416382	-8.293947	5.027775	0.077762	0.098117	-0.105691	0.860880	-0.495692	0.076592	-0.085496
65336	-0.379715	-8.317608	4.997066	0.103767	0.058419	-0.102730	0.860965	-0.496050	0.075429	-0.083576
65337	-0.369291	-8.336435	4.925687	0.097574	-0.009083	-0.123244	0.861096	-0.496354	0.074254	-0.081435
65338	-0.386173	-8.437444	4.897190	0.070691	-0.077859	-0.049952	0.861261	-0.496619	0.073094	-0.079093
65339	-0.366543	-8.496174	5.019661	0.115819	-0.007669	0.061666	0.861428	-0.496855	0.072045	-0.076730
65340	-0.406521	-8.506794	5.049506	0.087329	0.019231	0.087833	0.861692	-0.496899	0.071018	-0.074401
65341	-0.411818	-8.407323	5.045417	0.092321	0.064692	0.000375	0.861914	-0.497000	0.070003	-0.072075
65342	-0.467146	-8.370458	4.981491	0.033139	0.038968	-0.060999	0.862110	-0.497131	0.069008	-0.069749
65343	-0.434128	-8.351142	4.975563	0.071074	0.036804	-0.082330	0.862271	-0.497309	0.068021	-0.067427
65344	-0.426247	-8.376516	4.989744	0.086307	0.034178	-0.053762	0.862434	-0.497458	0.067096	-0.065126
65345	-0.417798	-8.287255	4.938807	0.095602	0.033821	-0.156877	0.862630	-0.497533	0.066152	-0.062888
65346	-0.453820	-8.267994	4.912641	0.062204	0.027163	-0.184857	0.862749	-0.497717	0.065258	-0.060692
65347	-0.413294	-8.277632	4.876377	0.101734	-0.015421	-0.197155	0.862895	-0.497831	0.064419	-0.058536
65348	-0.421572	-8.277257	4.876304	0.101314	-0.014482	-0.197149	0.863009	-0.497958	0.063749	-0.056475
65349	-0.453247	-8.298057	4.936769	0.087490	0.028995	-0.146956	0.863213	-0.497907	0.063086	-0.054523
65350	-0.499534	-8.281485	4.944389	0.050573	0.047907	-0.154807	0.863363	-0.497926	0.062435	-0.052687
65351	-0.505595	-8.323874	4.987475	0.055868	0.062211	-0.096185	0.863462	-0.498017	0.061749	-0.050984
65352	-0.509374	-8.359712	4.934635	0.046933	0.000032	-0.091954	0.863512	-0.498174	0.061061	-0.049410
65353	-0.508942	-8.379160	4.939696	0.051065	-0.005121	-0.072702	0.863587	-0.498270	0.060391	-0.047934
65354	-0.504347	-8.374971	4.907660	0.054135	-0.029746	-0.092820	0.863593	-0.498459	0.059804	-0.046571
65355	-0.519072	-8.437115	4.848049	0.032444	-0.109279	-0.068718	0.863675	-0.498504	0.059229	-0.045291
65356	-0.538221	-8.406886	4.889995	0.023037	-0.056374	-0.072372	0.863749	-0.498557	0.058637	-0.044042
65357	-0.545680	-8.466446	4.874145	0.015224	-0.099043	-0.028735	0.863771	-0.498680	0.058150	-0.042845
65358	-0.552239	-8.414284	4.866370	0.011983	-0.077251	-0.077156	0.863791	-0.498803	0.057646	-0.041680
65359	-0.608386	-8.490752	4.868749	-0.041417	-0.105222	-0.006826	0.863775	-0.498975	0.057172	-0.040591
65360	-0.623723	-8.511909	4.841069	-0.058451	-0.135657	-0.001686	0.863770	-0.499121	0.056671	-0.039592
65361	-0.656798	-8.445342	4.828401	-0.091004	-0.107400	-0.063388	0.863801	-0.499201	0.056144	-0.038660
65362	-0.646189	-8.455367	4.781822	-0.087117	-0.152282	-0.078941	0.863784	-0.499366	0.055551	-0.037754
65363	-0.649901	-8.516069	4.764346	-0.094912	-0.194972	-0.035277	0.863745	-0.499566	0.054932	-0.036894
65364	-0.576373	-8.490290	4.723100	-0.028908	-0.223115	-0.082617	0.863722	-0.499721	0.054368	-0.036151
65365	-0.540439	-8.491605	4.731700	0.006312	-0.219881	-0.079239	0.863775	-0.499730	0.053885	-0.035489
65366	-0.641109	-8.458927	4.727210	-0.095565	-0.196751	-0.103767	0.863861	-0.499673	0.053406	-0.034900
65367	-0.552748	-8.459643	4.777535	-0.003515	-0.166021	-0.082921	0.863918	-0.499671	0.052915	-0.034284
65368	-0.554811	-8.526362	4.730182	-0.014279	-0.242961	-0.049386	0.864067	-0.499488	0.052509	-0.033801
65369	-0.685796	-8.472656	4.702824	-0.149076	-0.227577	-0.101933	0.864139	-0.499428	0.052164	-0.033380
65370	-0.583897	-8.617238	4.777601	-0.042381	-0.250515	0.054361	0.864202	-0.499395	0.051687	-0.032972
65371	-0.549944	-8.634953	4.806888	-0.009873	-0.241766	0.082385	0.864369	-0.499161	0.051274	-0.032797
65372	-0.615211	-8.584811	4.756188	-0.087330	-0.258721	0.017075	0.864583	-0.498840	0.050800	-0.032767
65373	-0.637742	-8.480873	4.751130	-0.117909	-0.215779	-0.073864	0.864848	-0.498426	0.050328	-0.032808
65374	-0.606553	-8.508645	4.782818	-0.091817	-0.215680	-0.035912	0.865114	-0.498007	0.049891	-0.032838
65375	-0.599029	-8.419343	4.859800	-0.082814	-0.116607	-0.074036	0.865486	-0.497402	0.049432	-0.032898
65376	-0.590903	-8.326421	4.990905	-0.067264	0.030829	-0.087355	0.865731	-0.497016	0.048963	-0.032984
65377	-0.613191	-8.302203	4.974555	-0.100783	0.024046	-0.115367	0.865937	-0.496696	0.048463	-0.033118
65378	-0.582357	-8.279070	4.995956	-0.077439	0.044872	-0.125908	0.866095	-0.496462	0.047948	-0.033238
65379	-0.526709	-8.213974	4.992562	-0.031271	0.065957	-0.186310	0.866177	-0.496352	0.047517	-0.033390
65380	-0.455443	-8.269801	4.976064	0.028423	0.013812	-0.150531	0.866232	-0.496284	0.047120	-0.033526
65381	-0.430871	-8.232294	4.934603	0.040521	-0.007651	-0.205143	0.866370	-0.496061	0.046786	-0.033730
65382	-0.451814	-8.220919	4.954198	0.014518	0.013874	-0.203769	0.866433	-0.495961	0.046487	-0.033985
65383	-0.495941	-8.300886	4.982269	-0.035180	0.000183	-0.118750	0.866449	-0.495937	0.046186	-0.034345
65384	-0.408407	-8.312746	4.953668	0.040006	-0.040141	-0.127433	0.866482	-0.495864	0.045995	-0.034822
65385	-0.412282	-8.254973	5.013728	0.036219	0.041570	-0.145786	0.866438	-0.495917	0.045830	-0.035372
65386	-0.342301	-8.310507	4.920348	0.085673	-0.073182	-0.149416	0.866445	-0.495880	0.045657	-0.035943
