// General information: 
//  MT Manager version: 2021.0.0 
//  XDA version: 2021.0.0 build 5908 rev 109668 built on 2021-04-19
// Device information: 
//  DeviceId: 00B43E23
//  ProductCode: MTW2-3A7G6
//  Firmware Version: 4.3.5
//  Hardware Version: 1.1.0
// Device settings: 
//  Filter Profile: human(46.1)
//  Option Flags: Orientation Smoother Disabled, Position/Velocity Smoother Disabled, Continuous Zero Rotation Update Disabled, AHS Disabled, ICC Disabled
// Coordinate system: ENU
PacketCounter	Acc_X	Acc_Y	Acc_Z	FreeAcc_E	FreeAcc_N	FreeAcc_U	Quat_q0	Quat_q1	Quat_q2	Quat_q3
64468	-0.041236	0.099531	9.792082	0.010691	0.010677	-0.020024	0.999954	-0.000986	0.000485	0.009494
64469	-0.041879	0.099955	9.792075	0.010094	0.011030	-0.020024	0.999954	-0.000982	0.000494	0.009503
64470	-0.028083	0.085627	9.789959	0.024135	-0.003121	-0.022344	0.999954	-0.000976	0.000483	0.009495
64471	-0.038377	0.118084	9.802357	0.013173	0.029121	-0.009596	0.999954	-0.000991	0.000479	0.009490
64472	-0.053646	0.094710	9.765343	-0.001920	0.005913	-0.046740	0.999954	-0.000989	0.000477	0.009497
64473	-0.030412	0.100812	9.786881	0.021541	0.012251	-0.025271	0.999954	-0.000990	0.000502	0.009500
64474	-0.031233	0.101175	9.786875	0.020965	0.012606	-0.025270	0.999954	-0.000989	0.000505	0.009500
64475	-0.031862	0.101571	9.786869	0.020395	0.012956	-0.025270	0.999954	-0.000987	0.000508	0.009500
64476	-0.046143	0.102514	9.792030	0.006159	0.013470	-0.020024	0.999954	-0.000977	0.000507	0.009513
64477	-0.050513	0.071191	9.784800	0.002352	-0.017914	-0.027515	0.999954	-0.000983	0.000510	0.009509
64478	-0.019798	0.102331	9.781684	0.032386	0.013826	-0.030511	0.999954	-0.000977	0.000500	0.009500
64479	-0.044195	0.096846	9.760127	0.007820	0.008150	-0.051986	0.999954	-0.000990	0.000494	0.009498
64480	-0.038888	0.086048	9.776550	0.013397	-0.002709	-0.035691	0.999954	-0.000973	0.000496	0.009513
64481	-0.040877	0.115189	9.770402	0.010874	0.026281	-0.041562	0.999954	-0.000975	0.000502	0.009492
64482	-0.039522	0.072579	9.779609	0.013179	-0.016318	-0.032752	0.999954	-0.000979	0.000505	0.009502
64483	-0.045838	0.084043	9.763173	0.006494	-0.004738	-0.049048	0.999954	-0.000985	0.000495	0.009511
64484	-0.022359	0.090128	9.784727	0.029883	0.001627	-0.027566	0.999954	-0.000982	0.000497	0.009514
64485	-0.034131	0.098570	9.754928	0.018055	0.010117	-0.057224	0.999954	-0.000984	0.000521	0.009517
64486	-0.029671	0.101943	9.768284	0.022653	0.013557	-0.043862	0.999954	-0.000993	0.000510	0.009511
64487	-0.030205	0.102101	9.768280	0.022075	0.013907	-0.043862	0.999954	-0.001005	0.000518	0.009508
64488	-0.054647	0.096539	9.746712	-0.002476	0.008218	-0.065347	0.999954	-0.001008	0.000500	0.009501
64489	-0.003635	0.101808	9.757956	0.048279	0.014333	-0.054330	0.999954	-0.001002	0.000497	0.009497
64490	-0.026475	0.106336	9.781625	0.025514	0.018059	-0.030498	0.999954	-0.000994	0.000501	0.009489
64491	-0.032162	0.103588	9.768258	0.019836	0.015301	-0.043859	0.999954	-0.000999	0.000499	0.009491
64492	-0.032082	0.089465	9.771330	0.020210	0.001355	-0.040916	0.999954	-0.001013	0.000505	0.009487
64493	-0.046497	0.090012	9.776481	0.005960	0.001842	-0.035683	0.999954	-0.001027	0.000512	0.009471
64494	-0.042044	0.093442	9.789838	0.010524	0.005296	-0.022321	0.999954	-0.001018	0.000516	0.009476
64495	-0.043422	0.108086	9.786754	0.008939	0.019980	-0.025264	0.999954	-0.001031	0.000523	0.009473
64496	-0.026192	0.086903	9.752797	0.026440	-0.000482	-0.059504	0.999954	-0.001028	0.000520	0.009482
64497	-0.049688	0.105757	9.773377	0.002651	0.017538	-0.038628	0.999954	-0.001011	0.000518	0.009489
64498	-0.044514	0.095102	9.789811	0.008214	0.006677	-0.022319	0.999954	-0.001010	0.000528	0.009481
64499	-0.042301	0.103028	9.754850	0.010065	0.015017	-0.057219	0.999954	-0.001017	0.000518	0.009490
64500	-0.037118	0.092190	9.771287	0.015591	0.004155	-0.040908	0.999954	-0.001013	0.000534	0.009491
64501	-0.050852	0.078557	9.779510	0.002327	-0.009671	-0.032735	0.999955	-0.001031	0.000533	0.009465
64502	-0.033321	0.095830	9.784641	0.019595	0.007966	-0.027543	0.999954	-0.001021	0.000538	0.009471
64503	-0.021572	0.124444	9.773326	0.030752	0.036828	-0.038663	0.999955	-0.001023	0.000534	0.009462
64504	-0.044596	0.090234	9.757902	0.008189	0.002490	-0.054270	0.999955	-0.001038	0.000529	0.009457
64505	-0.063916	0.087916	9.749676	-0.011197	-0.000130	-0.062412	0.999955	-0.001023	0.000527	0.009461
64506	-0.023057	0.125483	9.773309	0.029015	0.037916	-0.038662	0.999955	-0.001030	0.000523	0.009462
64507	-0.035927	0.097686	9.784614	0.016755	0.009778	-0.027539	0.999955	-0.001023	0.000527	0.009452
64508	-0.040835	0.080675	9.774327	0.012034	-0.007296	-0.037952	0.999955	-0.001023	0.000517	0.009452
64509	-0.042166	0.095319	9.771237	0.010498	0.007364	-0.040903	0.999955	-0.001025	0.000535	0.009462
64510	-0.052099	0.113481	9.786651	0.000382	0.025250	-0.025272	0.999954	-0.001030	0.000525	0.009474
64511	-0.043371	0.095951	9.771225	0.009314	0.008056	-0.040903	0.999954	-0.001026	0.000533	0.009482
64512	-0.044594	0.110784	9.768131	0.007715	0.022743	-0.043856	0.999954	-0.001014	0.000516	0.009485
64513	-0.024042	0.071061	9.785614	0.028933	-0.016856	-0.026843	0.999954	-0.001015	0.000513	0.009477
64514	-0.044824	0.097331	9.771205	0.007613	0.009127	-0.040902	0.999954	-0.001013	0.000518	0.009477
64515	-0.026003	0.086152	9.782516	0.026855	-0.001848	-0.029794	0.999954	-0.001009	0.000529	0.009484
64516	-0.032430	0.097628	9.766056	0.020144	0.009705	-0.046115	0.999954	-0.001018	0.000522	0.009472
64517	-0.055089	0.101874	9.789689	-0.002668	0.013425	-0.022323	0.999955	-0.001021	0.000506	0.009464
64518	-0.032488	0.083864	9.769138	0.020005	-0.003910	-0.043156	0.999954	-0.001025	0.000509	0.009475
64519	-0.042500	0.101970	9.784544	0.009879	0.013983	-0.027535	0.999954	-0.001034	0.000519	0.009488
64520	-0.042303	0.088069	9.787629	0.010292	0.000048	-0.024577	0.999954	-0.001022	0.000504	0.009489
64521	-0.021893	0.113093	9.757807	0.029974	0.025660	-0.054280	0.999954	-0.001029	0.000511	0.009477
64522	-0.039013	0.106222	9.797892	0.013239	0.018186	-0.014168	0.999954	-0.001030	0.000506	0.009470
64523	-0.049768	0.100300	9.771151	0.002454	0.012302	-0.040903	0.999955	-0.001029	0.000510	0.009469
64524	-0.030885	0.089192	9.782475	0.021635	0.001361	-0.029781	0.999954	-0.001020	0.000512	0.009476
64525	-0.050203	0.086974	9.774230	0.002251	-0.001294	-0.037942	0.999955	-0.001015	0.000501	0.009467
64526	-0.050832	0.087366	9.774223	0.001673	-0.000954	-0.037942	0.999954	-0.001016	0.000518	0.009479
64527	-0.047152	0.105283	9.784487	0.005190	0.016845	-0.027536	0.999955	-0.001004	0.000514	0.009467
64528	-0.027979	0.094032	9.795820	0.024419	0.005886	-0.016408	0.999955	-0.001020	0.000495	0.009464
64529	-0.053194	0.102554	9.771110	-0.001054	0.014430	-0.040906	0.999955	-0.001031	0.000517	0.009460
64530	-0.029386	0.094413	9.795813	0.023282	0.006610	-0.016406	0.999955	-0.001030	0.000520	0.009460
64531	-0.043852	0.095168	9.800930	0.009017	0.007092	-0.011204	0.999955	-0.001035	0.000536	0.009454
64532	-0.041768	0.103048	9.765965	0.010903	0.015412	-0.046108	0.999955	-0.001038	0.000536	0.009438
64533	-0.035781	0.077944	9.785526	0.017453	-0.009722	-0.026806	0.999955	-0.001039	0.000533	0.009430
64534	-0.050657	0.093087	9.787542	0.002141	0.005060	-0.024573	0.999955	-0.001032	0.000522	0.009437
64535	-0.037401	0.093256	9.782414	0.015243	0.005327	-0.029770	0.999955	-0.001018	0.000519	0.009439
64536	-0.038896	0.108100	9.779305	0.013653	0.019980	-0.032738	0.999955	-0.001015	0.000542	0.009434
64537	-0.044802	0.105300	9.765927	0.007981	0.017207	-0.046108	0.999955	-0.001019	0.000545	0.009443
64538	-0.039492	0.094531	9.782394	0.013478	0.006399	-0.029768	0.999955	-0.001015	0.000533	0.009433
64539	-0.040047	0.094951	9.782387	0.012887	0.006755	-0.029768	0.999955	-0.001014	0.000541	0.009427
64540	-0.040723	0.095260	9.782382	0.012292	0.007122	-0.029767	0.999955	-0.001022	0.000542	0.009422
64541	-0.052141	0.103493	9.752531	0.000497	0.015515	-0.059480	0.999955	-0.001026	0.000535	0.009400
64542	-0.028807	0.109693	9.774153	0.023797	0.022041	-0.037930	0.999955	-0.001030	0.000538	0.009410
64543	-0.033966	0.092459	9.763882	0.019114	0.004973	-0.048329	0.999955	-0.001042	0.000558	0.009406
64544	-0.043241	0.096424	9.782359	0.009908	0.008564	-0.029766	0.999955	-0.001028	0.000541	0.009411
64545	-0.043620	0.096853	9.782354	0.009325	0.008920	-0.029766	0.999955	-0.001035	0.000537	0.009414
64546	-0.044167	0.097087	9.782349	0.008694	0.009289	-0.029765	0.999955	-0.001042	0.000536	0.009409
64547	-0.049066	0.079939	9.772078	0.004033	-0.007805	-0.040163	0.999955	-0.001041	0.000532	0.009417
64548	-0.017914	0.096929	9.772119	0.034909	0.009794	-0.040139	0.999955	-0.001045	0.000541	0.009420
64549	-0.051169	0.094774	9.768959	0.001862	0.007199	-0.043138	0.999955	-0.001057	0.000549	0.009418
64550	-0.046039	0.083954	9.785433	0.007357	-0.003614	-0.026789	0.999955	-0.001050	0.000551	0.009411
64551	-0.033728	0.098154	9.777213	0.019444	0.010956	-0.034949	0.999955	-0.001063	0.000558	0.009407
64552	-0.029412	0.101605	9.790581	0.023953	0.014450	-0.021575	0.999955	-0.001059	0.000568	0.009416
64553	-0.034445	0.084556	9.780310	0.019261	-0.002643	-0.031970	0.999955	-0.001058	0.000569	0.009419
64554	-0.035750	0.099350	9.777193	0.017622	0.012020	-0.034947	0.999955	-0.001046	0.000563	0.009409
64555	-0.036389	0.099926	9.777185	0.016169	0.008878	-0.034941	0.999955	-0.000858	0.000527	0.009474
64556	-0.042022	0.097199	9.763804	0.010506	0.006087	-0.048316	0.999955	-0.000859	0.000516	0.009475
64557	-0.037326	0.100722	9.777173	0.014990	0.009585	-0.034940	0.999955	-0.000860	0.000505	0.009475
64558	-0.037959	0.101061	9.777167	0.014377	0.009942	-0.034940	0.999954	-0.000862	0.000520	0.009486
64559	-0.046456	0.090683	9.798749	0.006153	-0.000765	-0.013410	0.999954	-0.000862	0.000501	0.009495
64560	-0.024454	0.087221	9.775171	0.027891	-0.003742	-0.037137	0.999954	-0.000847	0.000499	0.009500
64561	-0.034305	0.105516	9.790523	0.017587	0.014186	-0.021561	0.999954	-0.000857	0.000484	0.009494
64562	-0.034792	0.105806	9.790518	0.017011	0.014523	-0.021561	0.999954	-0.000855	0.000487	0.009496
64563	-0.038978	0.074298	9.783371	0.013396	-0.016884	-0.028980	0.999954	-0.000867	0.000487	0.009501
64564	-0.035290	0.091979	9.793626	0.016817	0.000954	-0.018581	0.999954	-0.000873	0.000488	0.009510
64565	-0.046007	0.085848	9.766870	0.006069	-0.004987	-0.045335	0.999954	-0.000883	0.000487	0.009490
64566	-0.027960	0.088890	9.775146	0.024244	-0.001534	-0.037127	0.999954	-0.000887	0.000503	0.009499
64567	-0.038091	0.107121	9.790492	0.013955	0.016375	-0.021559	0.999954	-0.000885	0.000498	0.009507
64568	-0.029772	0.103764	9.772020	0.021982	0.013486	-0.040105	0.999954	-0.000902	0.000477	0.009505
64569	-0.044049	0.104388	9.777107	0.007702	0.013924	-0.034937	0.999954	-0.000899	0.000494	0.009505
64570	-0.030269	0.090173	9.775128	0.021842	-0.000096	-0.037121	0.999954	-0.000892	0.000489	0.009503
64571	-0.039508	0.094114	9.793589	0.012593	0.003493	-0.018575	0.999954	-0.000899	0.000490	0.009500
64572	-0.037989	0.116117	9.755501	0.013465	0.026073	-0.056465	0.999954	-0.000912	0.000489	0.009505
64573	-0.055270	0.109146	9.795548	-0.003423	0.018610	-0.016394	0.999954	-0.000920	0.000494	0.009494
64574	-0.042230	0.109148	9.790452	0.009668	0.018894	-0.021558	0.999954	-0.000911	0.000496	0.009501
64575	-0.027557	0.080626	9.791603	0.024849	-0.009424	-0.020750	0.999954	-0.000913	0.000490	0.009494
64576	-0.052511	0.089402	9.766805	-0.000637	-0.001024	-0.045332	0.999954	-0.000899	0.000472	0.009500
64577	-0.035005	0.106950	9.771968	0.016459	0.016733	-0.040100	0.999954	-0.000904	0.000479	0.009503
64578	-0.048670	0.093376	9.780170	0.003190	0.002866	-0.031952	0.999954	-0.000903	0.000481	0.009504
64579	-0.029056	0.067859	9.794708	0.023434	-0.022299	-0.017754	0.999954	-0.000916	0.000487	0.009503
64580	-0.031185	0.096621	9.788456	0.020734	0.006659	-0.023729	0.999954	-0.000922	0.000481	0.009507
64581	-0.050471	0.094204	9.780153	0.001381	0.003908	-0.031952	0.999954	-0.000912	0.000479	0.009521
64582	-0.031642	0.083143	9.791570	0.020568	-0.006950	-0.020738	0.999954	-0.000916	0.000492	0.009520
64583	-0.033082	0.097742	9.788438	0.018895	0.007707	-0.023727	0.999954	-0.000917	0.000485	0.009514
64584	-0.043506	0.091669	9.761675	0.008186	0.001737	-0.050488	0.999954	-0.000921	0.000466	0.009507
64585	-0.038899	0.095158	9.775050	0.012593	0.005276	-0.037106	0.999954	-0.000926	0.000466	0.009518
64586	-0.030699	0.091901	9.756588	0.020637	0.002414	-0.055640	0.999954	-0.000928	0.000453	0.009517
64587	-0.045628	0.106858	9.758532	0.005268	0.017134	-0.053480	0.999954	-0.000935	0.000447	0.009521
64588	-0.043247	0.088648	9.809999	0.008189	-0.001537	-0.002196	0.999954	-0.000924	0.000444	0.009537
64589	-0.059680	0.093781	9.766723	-0.008615	0.003613	-0.045336	0.999954	-0.000927	0.000444	0.009523
64590	-0.035469	0.085789	9.791534	0.015604	-0.004039	-0.020727	0.999954	-0.000936	0.000417	0.009533
64591	-0.031770	0.103595	9.801778	0.018955	0.013814	-0.010338	0.999954	-0.000934	0.000437	0.009527
64592	-0.044250	0.126171	9.768747	0.006165	0.036419	-0.043095	0.999954	-0.000933	0.000445	0.009520
64593	-0.029588	0.097585	9.769932	0.021380	0.008144	-0.042250	0.999954	-0.000936	0.000439	0.009512
64594	-0.020038	0.104312	9.796689	0.030848	0.014869	-0.015483	0.999954	-0.000941	0.000435	0.009529
64595	-0.044333	0.098483	9.774994	0.006445	0.008953	-0.037103	0.999954	-0.000954	0.000429	0.009541
64596	-0.031144	0.098296	9.769920	0.019536	0.009272	-0.042247	0.999954	-0.000962	0.000428	0.009536
64597	-0.040393	0.102075	9.788367	0.010260	0.012862	-0.023719	0.999954	-0.000971	0.000422	0.009524
64598	-0.040049	0.088027	9.791496	0.010708	-0.001094	-0.020720	0.999954	-0.000974	0.000411	0.009552
64599	-0.027793	0.102312	9.783288	0.022757	0.013511	-0.028861	0.999954	-0.000972	0.000432	0.009546
64600	-0.042414	0.103081	9.788347	0.008453	0.013928	-0.023719	0.999954	-0.000971	0.000441	0.009539
64601	-0.029187	0.103166	9.783275	0.021565	0.014224	-0.028859	0.999954	-0.000963	0.000425	0.009554
64602	-0.029569	0.103594	9.783269	0.020914	0.014595	-0.028858	0.999954	-0.000965	0.000417	0.009548
64603	-0.043162	0.090059	9.791464	0.007634	0.000722	-0.020717	0.999954	-0.000962	0.000425	0.009557
64604	-0.040807	0.097951	9.756492	0.009620	0.008953	-0.055627	0.999954	-0.000964	0.000413	0.009558
64605	-0.049973	0.101897	9.774932	0.000304	0.012561	-0.037105	0.999954	-0.000963	0.000407	0.009567
64606	-0.040506	0.108638	9.801691	0.009747	0.019291	-0.010334	0.999954	-0.000970	0.000408	0.009564
64607	-0.039489	0.080350	9.807965	0.011266	-0.008945	-0.004325	0.999954	-0.000971	0.000401	0.009558
64608	-0.031926	0.091438	9.786376	0.018272	0.002451	-0.025849	0.999954	-0.000968	0.000384	0.009584
64609	-0.043189	0.099691	9.756464	0.006549	0.010733	-0.055626	0.999954	-0.000967	0.000386	0.009584
64610	-0.051830	0.089260	9.778042	-0.001707	0.000029	-0.034101	0.999953	-0.000977	0.000392	0.009599
64611	-0.039505	0.103525	9.769836	0.010329	0.014642	-0.042240	0.999953	-0.000971	0.000388	0.009597
64612	-0.035010	0.107192	9.783213	0.014703	0.018185	-0.028853	0.999953	-0.000969	0.000382	0.009608
64613	-0.034592	0.093254	9.786350	0.015175	0.004259	-0.025844	0.999953	-0.000973	0.000362	0.009600
64614	-0.040791	0.104451	9.769820	0.008456	0.015716	-0.042240	0.999953	-0.000994	0.000361	0.009601
64615	-0.035582	0.093859	9.786341	0.013911	0.004976	-0.025843	0.999953	-0.000962	0.000359	0.009618
64616	-0.049984	0.094762	9.791388	-0.000419	0.005379	-0.020715	0.999953	-0.000975	0.000365	0.009616
64617	-0.031902	0.097858	9.799713	0.017698	0.008892	-0.012454	0.999953	-0.000977	0.000365	0.009602
64618	-0.034502	0.102456	9.751355	0.014691	0.013909	-0.060754	0.999953	-0.000979	0.000358	0.009596
64619	-0.037951	0.095340	9.786318	0.011471	0.006411	-0.025841	0.999953	-0.000977	0.000354	0.009604
64620	-0.048600	0.089304	9.759541	0.000828	0.000386	-0.052617	0.999953	-0.000975	0.000363	0.009612
64621	-0.034365	0.099341	9.799690	0.015234	0.010364	-0.012451	0.999953	-0.000981	0.000370	0.009614
64622	-0.044805	0.093258	9.772914	0.004613	0.004311	-0.039228	0.999953	-0.000975	0.000346	0.009620
64623	-0.053968	0.097097	9.791344	-0.004720	0.007912	-0.020718	0.999953	-0.000991	0.000350	0.009603
64624	-0.054576	0.097325	9.791338	-0.005346	0.008282	-0.020719	0.999953	-0.000990	0.000345	0.009611
64625	-0.036302	0.100687	9.799669	0.012771	0.011819	-0.012449	0.999953	-0.000981	0.000336	0.009632
64626	-0.038188	0.091065	9.754458	0.010865	0.002522	-0.057736	0.999953	-0.000986	0.000349	0.009629
64627	-0.037691	0.101354	9.799657	0.011537	0.012530	-0.012449	0.999953	-0.000993	0.000349	0.009625
64628	-0.034500	0.095042	9.767832	0.014664	0.006432	-0.044345	0.999953	-0.000973	0.000346	0.009621
64629	-0.035128	0.095534	9.767825	0.014066	0.006783	-0.044344	0.999953	-0.000980	0.000353	0.009610
64630	-0.035686	0.095898	9.767819	0.013436	0.007153	-0.044344	0.999953	-0.000973	0.000342	0.009616
64631	-0.036496	0.096223	9.767813	0.012813	0.007508	-0.044343	0.999953	-0.000985	0.000373	0.009600
64632	-0.031468	0.085586	9.784348	0.018261	-0.003199	-0.027932	0.999953	-0.000970	0.000356	0.009619
64633	-0.023949	0.096715	9.762760	0.025296	0.008216	-0.049455	0.999953	-0.000981	0.000355	0.009599
64634	-0.046275	0.086709	9.789376	0.003297	-0.002452	-0.022818	0.999953	-0.000971	0.000356	0.009607
64635	-0.020212	0.100703	9.776138	0.029035	0.012141	-0.036061	0.999953	-0.000978	0.000356	0.009604
64636	-0.067069	0.098783	9.777857	-0.017763	0.009380	-0.034122	0.999953	-0.000978	0.000357	0.009605
64637	-0.040082	0.098504	9.767776	0.009061	0.009698	-0.044341	0.999953	-0.000977	0.000345	0.009620
64638	-0.040833	0.098832	9.767770	0.008439	0.010062	-0.044341	0.999953	-0.000984	0.000370	0.009602
64639	-0.049367	0.088571	9.789345	0.000171	-0.000613	-0.022818	0.999953	-0.000971	0.000341	0.009621
64640	-0.054862	0.085722	9.775950	-0.005428	-0.003465	-0.036210	0.999953	-0.000982	0.000360	0.009618
64641	-0.010139	0.102710	9.771072	0.039035	0.014333	-0.041159	0.999953	-0.000962	0.000351	0.009621
64642	-0.038098	0.103879	9.781131	0.010942	0.014757	-0.030948	0.999953	-0.000970	0.000344	0.009624
64643	-0.037775	0.089886	9.784287	0.011420	0.000838	-0.027922	0.999953	-0.000972	0.000337	0.009617
64644	-0.031124	0.115235	9.759538	0.017334	0.026529	-0.052470	0.999953	-0.000970	0.000332	0.009627
64645	-0.043764	0.087452	9.770886	0.005196	-0.001672	-0.041314	0.999953	-0.000964	0.000327	0.009627
64646	-0.050258	0.098893	9.754327	-0.001498	0.009746	-0.057735	0.999953	-0.000966	0.000342	0.009638
64647	-0.050818	0.099203	9.754321	-0.002118	0.010108	-0.057735	0.999953	-0.000970	0.000322	0.009631
64648	-0.046452	0.102680	9.767705	0.002269	0.013689	-0.044342	0.999953	-0.000981	0.000343	0.009628
64649	-0.042296	0.106151	9.781089	0.006627	0.017287	-0.030948	0.999953	-0.000986	0.000344	0.009638
64650	-0.042871	0.106541	9.781083	0.006021	0.017660	-0.030948	0.999953	-0.000980	0.000340	0.009635
64651	-0.030567	0.120882	9.772885	0.018033	0.032281	-0.039077	0.999953	-0.000984	0.000347	0.009640
64652	-0.043380	0.092981	9.784235	0.005883	0.004090	-0.027917	0.999953	-0.000984	0.000348	0.009641
64653	-0.031066	0.107191	9.776040	0.017903	0.018718	-0.036045	0.999953	-0.000996	0.000348	0.009646
64654	-0.050423	0.104594	9.767665	-0.001422	0.015859	-0.044345	0.999953	-0.000987	0.000351	0.009654
64655	-0.032274	0.107969	9.776028	0.016663	0.019445	-0.036044	0.999953	-0.000989	0.000344	0.009647
64656	-0.056592	0.102164	9.754258	-0.007637	0.013357	-0.057742	0.999953	-0.000986	0.000352	0.009656
64657	-0.037622	0.091211	9.765792	0.011537	0.002665	-0.046404	0.999953	-0.000989	0.000339	0.009657
64658	-0.038183	0.091522	9.765787	0.010927	0.003022	-0.046404	0.999953	-0.000993	0.000346	0.009661
64659	-0.043480	0.112972	9.794414	0.005401	0.024144	-0.017557	0.999953	-0.000992	0.000342	0.009669
64660	-0.048058	0.095805	9.784185	0.000953	0.006976	-0.027917	0.999953	-0.000993	0.000331	0.009670
64661	-0.043495	0.099572	9.797571	0.005290	0.010589	-0.014521	0.999953	-0.000979	0.000321	0.009681
64662	-0.030372	0.099589	9.792549	0.018406	0.010947	-0.019609	0.999953	-0.000998	0.000333	0.009681
64663	-0.050621	0.111384	9.780992	-0.002023	0.022359	-0.030956	0.999953	-0.000970	0.000331	0.009682
64664	-0.042711	0.108334	9.762574	0.006128	0.019483	-0.049440	0.999953	-0.000982	0.000362	0.009665
64665	-0.051441	0.097964	9.784147	-0.002132	0.008800	-0.027919	0.999953	-0.000975	0.000346	0.009679
64666	-0.029242	0.094415	9.760724	0.019775	0.005908	-0.051485	0.999953	-0.000984	0.000338	0.009667
64667	-0.037695	0.083926	9.782300	0.011488	-0.004765	-0.029962	0.999953	-0.000992	0.000331	0.009670
64668	-0.039015	0.098488	9.779121	0.009732	0.009898	-0.033003	0.999953	-0.000994	0.000324	0.009662
64669	-0.033900	0.087704	9.795685	0.015182	-0.000776	-0.016563	0.999953	-0.001008	0.000336	0.009652
64670	-0.040461	0.099198	9.779108	0.008494	0.010622	-0.033002	0.999953	-0.000983	0.000341	0.009670
64671	-0.054800	0.099846	9.784110	-0.005862	0.010994	-0.027923	0.999953	-0.001012	0.000333	0.009671
64672	-0.027634	0.099440	9.774091	0.020994	0.011353	-0.038081	0.999953	-0.000999	0.000315	0.009676
64673	-0.046795	0.097031	9.765696	0.001689	0.008459	-0.046401	0.999953	-0.000993	0.000317	0.009668
64674	-0.041586	0.086470	9.782262	0.007189	-0.002213	-0.029957	0.999953	-0.000992	0.000314	0.009674
64675	-0.060855	0.083813	9.773867	-0.011489	-0.006789	-0.038280	0.999954	-0.000913	0.000345	0.009513
64676	-0.044445	0.115635	9.775892	0.004336	0.025388	-0.036044	0.999954	-0.000912	0.000346	0.009515
64677	-0.062193	0.084606	9.773852	-0.012715	-0.006070	-0.038281	0.999954	-0.000901	0.000357	0.009529
64678	-0.039360	0.091122	9.795634	0.010310	0.000783	-0.016556	0.999954	-0.000922	0.000368	0.009513
64679	-0.058612	0.088432	9.787234	-0.008974	-0.002102	-0.024882	0.999954	-0.000910	0.000352	0.009516
64680	-0.032411	0.102437	9.774045	0.016756	0.012544	-0.038074	0.999954	-0.000926	0.000356	0.009500
64681	-0.045986	0.088660	9.782223	0.003490	-0.001388	-0.029955	0.999954	-0.000928	0.000354	0.009488
64682	-0.038667	0.099577	9.760640	0.010549	0.010002	-0.051474	0.999955	-0.000940	0.000360	0.009485
64683	-0.033509	0.088837	9.777215	0.016012	-0.000683	-0.035025	0.999954	-0.000939	0.000355	0.009495
64684	-0.062510	0.103962	9.784021	-0.013206	0.013949	-0.027934	0.999954	-0.000952	0.000362	0.009491
64685	-0.034766	0.089425	9.777205	0.014798	0.000032	-0.035023	0.999954	-0.000942	0.000359	0.009506
64686	-0.030409	0.093096	9.790596	0.019118	0.003643	-0.021620	0.999954	-0.000950	0.000359	0.009502
64687	-0.041799	0.101107	9.760611	0.007489	0.011773	-0.051473	0.999954	-0.000949	0.000366	0.009496
64688	-0.045467	0.093922	9.795581	0.004136	0.004344	-0.016553	0.999954	-0.000964	0.000358	0.009493
64689	-0.042179	0.087313	9.763787	0.007421	-0.001797	-0.048422	0.999954	-0.000961	0.000368	0.009502
64690	-0.032970	0.094348	9.790576	0.016675	0.005071	-0.021617	0.999954	-0.000954	0.000364	0.009501
64691	-0.038590	0.091444	9.777172	0.011116	0.002176	-0.035018	0.999954	-0.000960	0.000377	0.009497
64692	-0.036076	0.123684	9.784187	0.013154	0.034358	-0.027721	0.999954	-0.000950	0.000373	0.009511
64693	-0.039932	0.092186	9.777160	0.009889	0.002895	-0.035017	0.999954	-0.000964	0.000379	0.009508
64694	-0.045418	0.089207	9.763756	0.004340	0.000002	-0.048420	0.999954	-0.000957	0.000369	0.009514
64695	-0.046724	0.104030	9.760558	0.002596	0.014650	-0.051474	0.999954	-0.000946	0.000364	0.009502
64696	-0.037358	0.110815	9.787352	0.011838	0.021520	-0.024668	0.999954	-0.000974	0.000355	0.009504
64697	-0.046169	0.075941	9.766929	0.003658	-0.013203	-0.045363	0.999954	-0.000958	0.000372	0.009501
64698	-0.042943	0.093984	9.777130	0.006820	0.004699	-0.035015	0.999954	-0.000963	0.000379	0.009504
64699	-0.043566	0.094237	9.777124	0.006192	0.005055	-0.035015	0.999954	-0.000970	0.000372	0.009507
64700	-0.016570	0.093947	9.767154	0.033071	0.005458	-0.045125	0.999954	-0.000972	0.000372	0.009493
64701	-0.044746	0.094955	9.777112	0.004991	0.005770	-0.035015	0.999954	-0.000963	0.000376	0.009499
64702	-0.037357	0.105871	9.755532	0.012099	0.017158	-0.056532	0.999954	-0.000986	0.000376	0.009482
64703	-0.018383	0.095054	9.767140	0.031315	0.006529	-0.045120	0.999954	-0.000955	0.000376	0.009497
64704	-0.037728	0.092584	9.758712	0.012011	0.003607	-0.053471	0.999954	-0.000969	0.000381	0.009494
64705	-0.047329	0.096408	9.777086	0.002565	0.007203	-0.035015	0.999954	-0.000968	0.000388	0.009489
64706	-0.029278	0.099863	9.785502	0.020612	0.010862	-0.026660	0.999954	-0.000962	0.000383	0.009487
64707	-0.040583	0.107838	9.755498	0.009031	0.018954	-0.056532	0.999954	-0.000975	0.000390	0.009484
64708	-0.035444	0.097254	9.772090	0.014485	0.008294	-0.040064	0.999954	-0.000960	0.000387	0.009489
64709	-0.051393	0.126542	9.770662	-0.002172	0.037181	-0.041142	0.999955	-0.000964	0.000374	0.009474
64710	-0.050028	0.098400	9.777053	-0.000486	0.008983	-0.035016	0.999955	-0.000957	0.000363	0.009480
64711	-0.031896	0.101708	9.785475	0.017538	0.012650	-0.026656	0.999955	-0.000973	0.000366	0.009463
64712	-0.036566	0.084520	9.775267	0.013183	-0.004549	-0.036997	0.999955	-0.000956	0.000365	0.009482
64713	-0.038041	0.099232	9.772060	0.011426	0.010081	-0.040061	0.999954	-0.000965	0.000367	0.009501
64714	-0.032980	0.088573	9.788657	0.016897	-0.000559	-0.023588	0.999954	-0.000962	0.000377	0.009509
64715	-0.038528	0.085731	9.775249	0.011376	-0.003474	-0.036994	0.999954	-0.000956	0.000373	0.009507
64716	-0.053679	0.100636	9.777010	-0.004162	0.011130	-0.035019	0.999954	-0.000963	0.000366	0.009510
64717	-0.031527	0.097146	9.753664	0.017831	0.008269	-0.058509	0.999954	-0.000956	0.000362	0.009509
64718	-0.041113	0.101135	9.772028	0.008383	0.011859	-0.040060	0.999954	-0.000958	0.000377	0.009521
64719	-0.018212	0.107653	9.793863	0.031342	0.018819	-0.018284	0.999954	-0.000976	0.000369	0.009502
64720	-0.023626	0.104736	9.780454	0.025825	0.015888	-0.031691	0.999954	-0.000955	0.000369	0.009537
64721	-0.041957	0.087847	9.775216	0.007721	-0.001341	-0.036990	0.999954	-0.000971	0.000362	0.009533
64722	-0.019890	0.108722	9.793848	0.029508	0.019896	-0.018280	0.999954	-0.000968	0.000371	0.009542
64723	-0.053937	0.096067	9.745191	-0.004453	0.007078	-0.066877	0.999954	-0.000975	0.000371	0.009537
64724	-0.030058	0.088468	9.770237	0.019652	-0.000229	-0.042024	0.999954	-0.000974	0.000367	0.009545
64725	-0.040342	0.106707	9.785390	0.009017	0.017642	-0.026652	0.999954	-0.000972	0.000363	0.009553
64726	-0.030899	0.089287	9.770227	0.018443	0.000473	-0.042021	0.999954	-0.000967	0.000339	0.009559
64727	-0.026547	0.092753	9.783628	0.022740	0.004111	-0.028611	0.999954	-0.000994	0.000357	0.009545
64728	-0.040911	0.093083	9.788586	0.008384	0.004424	-0.023578	0.999954	-0.000998	0.000338	0.009538
64729	-0.042311	0.107741	9.785371	0.006620	0.019048	-0.026653	0.999954	-0.000991	0.000349	0.009561
64730	-0.037268	0.097177	9.801978	0.012081	0.008416	-0.010168	0.999954	-0.000996	0.000352	0.009572
64731	-0.041777	0.079905	9.791778	0.007765	-0.008791	-0.020502	0.999954	-0.000997	0.000340	0.009572
64732	-0.035091	0.105222	9.766990	0.013688	0.016867	-0.045092	0.999954	-0.000995	0.000337	0.009579
64733	-0.039666	0.088024	9.756789	0.009369	-0.000345	-0.055425	0.999954	-0.000995	0.000339	0.009580
64734	-0.049198	0.092040	9.775143	-0.000126	0.003275	-0.036988	0.999954	-0.000989	0.000339	0.009570
64735	-0.030988	0.095654	9.783587	0.017895	0.006976	-0.028603	0.999954	-0.000977	0.000322	0.009574
64736	-0.031597	0.095879	9.783583	0.017284	0.007333	-0.028602	0.999954	-0.001004	0.000339	0.009561
64737	-0.032135	0.096028	9.783580	0.016667	0.007686	-0.028601	0.999954	-0.000999	0.000315	0.009567
64738	-0.039177	0.121655	9.763740	0.008805	0.033300	-0.048172	0.999954	-0.000999	0.000316	0.009567
64739	-0.037916	0.093518	9.770162	0.010554	0.005113	-0.042011	0.999954	-0.000997	0.000306	0.009582
64740	-0.019818	0.096897	9.778613	0.028584	0.008828	-0.033620	0.999954	-0.001005	0.000312	0.009570
64741	-0.039991	0.108445	9.766936	0.008133	0.020105	-0.045092	0.999954	-0.000999	0.000306	0.009569
64742	-0.034786	0.097869	9.783552	0.013576	0.009486	-0.028598	0.999954	-0.001006	0.000306	0.009564
64743	-0.020683	0.083793	9.781815	0.027910	-0.004383	-0.030533	0.999954	-0.000991	0.000303	0.009569
64744	-0.027217	0.095130	9.765185	0.021242	0.006948	-0.047027	0.999954	-0.001002	0.000323	0.009566
64745	-0.044833	0.088279	9.805106	0.004039	-0.000476	-0.007083	0.999954	-0.001003	0.000311	0.009566
64746	-0.036301	0.085173	9.786747	0.012309	-0.003376	-0.025511	0.999954	-0.000990	0.000300	0.009564
64747	-0.046571	0.103517	9.801873	0.001612	0.014506	-0.010168	0.999954	-0.000989	0.000295	0.009571
64748	-0.047970	0.093602	9.756700	0.000141	0.005001	-0.055422	0.999954	-0.000994	0.000297	0.009582
64749	-0.020290	0.103711	9.791973	0.027898	0.015338	-0.020196	0.999953	-0.000991	0.000305	0.009590
64750	-0.052409	0.087049	9.791666	-0.003929	-0.001996	-0.020495	0.999954	-0.000987	0.000293	0.009580
64751	-0.045847	0.112400	9.766865	0.001974	0.023659	-0.045097	0.999954	-0.000987	0.000300	0.009573
64752	-0.031806	0.098406	9.765138	0.016317	0.009808	-0.047020	0.999954	-0.000973	0.000297	0.009577
64753	-0.036324	0.105827	9.796888	0.011666	0.016729	-0.015181	0.999954	-0.000974	0.000285	0.009577
64754	-0.027842	0.102663	9.778534	0.019948	0.013840	-0.033604	0.999954	-0.000968	0.000280	0.009575
64755	-0.040472	0.074901	9.789916	0.007957	-0.014411	-0.022415	0.999954	-0.000959	0.000289	0.009574
64756	-0.034058	0.100296	9.765112	0.013861	0.011233	-0.047018	0.999954	-0.000958	0.000291	0.009575
64757	-0.047580	0.086608	9.773269	0.000667	-0.002738	-0.038919	0.999954	-0.000963	0.000292	0.009585
64758	-0.043225	0.090313	9.786672	0.004913	0.000943	-0.025504	0.999954	-0.000959	0.000280	0.009575
64759	-0.044810	0.104976	9.783438	0.003109	0.015564	-0.028597	0.999954	-0.000960	0.000300	0.009554
64760	-0.030907	0.091038	9.781723	0.017474	0.001715	-0.030508	0.999954	-0.000939	0.000300	0.009588
64761	-0.037321	0.102362	9.765078	0.010816	0.013032	-0.047016	0.999954	-0.000956	0.000306	0.009569
64762	-0.027359	0.094988	9.795123	0.021138	0.005743	-0.017090	0.999954	-0.000957	0.000307	0.009555
64763	-0.019831	0.106131	9.773545	0.028241	0.017114	-0.038601	0.999954	-0.000945	0.000296	0.009552
64764	-0.046959	0.092895	9.786631	0.001272	0.003053	-0.025503	0.999954	-0.000938	0.000291	0.009551
64765	-0.025685	0.103717	9.760123	0.022135	0.014505	-0.052015	0.999954	-0.000943	0.000289	0.009522
64766	-0.047212	0.079426	9.789850	0.001229	-0.010490	-0.022407	0.999954	-0.000934	0.000291	0.009527
64767	-0.040793	0.104683	9.765040	0.007142	0.015152	-0.047016	0.999954	-0.000948	0.000298	0.009524
64768	-0.036703	0.108305	9.778444	0.011363	0.018837	-0.033599	0.999954	-0.000945	0.000306	0.009532
64769	-0.049314	0.080483	9.789831	-0.000616	-0.009428	-0.022406	0.999954	-0.000938	0.000302	0.009532
64770	-0.033205	0.112499	9.791841	0.014997	0.022862	-0.020182	0.999954	-0.000943	0.000316	0.009527
64771	-0.028803	0.091657	9.763324	0.019683	0.002376	-0.048911	0.999954	-0.000939	0.000305	0.009518
64772	-0.048129	0.113446	9.796752	0.000019	0.023497	-0.015188	0.999954	-0.000944	0.000307	0.009528
64773	-0.024137	0.081533	9.779961	0.024514	-0.007856	-0.032390	0.999954	-0.000934	0.000304	0.009542
64774	-0.040240	0.110904	9.778401	0.007727	0.020956	-0.033600	0.999954	-0.000917	0.000294	0.009528
64775	-0.030820	0.093612	9.763299	0.017272	0.003788	-0.048907	0.999954	-0.000915	0.000290	0.009536
64776	-0.045118	0.094199	9.768214	0.002888	0.004059	-0.043916	0.999954	-0.000916	0.000284	0.009529
64777	-0.051500	0.105447	9.751557	-0.003759	0.015353	-0.060438	0.999954	-0.000916	0.000293	0.009521
64778	-0.027875	0.098091	9.776694	0.020305	0.008180	-0.035486	0.999954	-0.000913	0.000302	0.009530
64779	-0.042383	0.098667	9.781606	0.005929	0.008454	-0.030497	0.999954	-0.000917	0.000305	0.009539
64780	-0.028239	0.084575	9.779924	0.020295	-0.005377	-0.032379	0.999954	-0.000911	0.000300	0.009538
64781	-0.057396	0.099656	9.786509	-0.009077	0.009073	-0.025511	0.999954	-0.000916	0.000307	0.009541
64782	-0.043250	0.085564	9.784829	0.005305	-0.004737	-0.027391	0.999954	-0.000909	0.000297	0.009546
64783	-0.026007	0.103410	9.790078	0.022087	0.013301	-0.022062	0.999954	-0.000908	0.000293	0.009554
64784	-0.063067	0.082973	9.776319	-0.014530	-0.007441	-0.035826	0.999954	-0.000936	0.000310	0.009539
64785	-0.037126	0.097002	9.763244	0.011214	0.007351	-0.048900	0.999954	-0.000924	0.000306	0.009528
64786	-0.046541	0.101006	9.781563	0.001658	0.010960	-0.030498	0.999954	-0.000931	0.000295	0.009537
64787	-0.038015	0.097785	9.763233	0.010005	0.008065	-0.048900	0.999954	-0.000924	0.000291	0.009535
64788	-0.035977	0.079965	9.814870	0.012549	-0.010183	0.002561	0.999954	-0.000931	0.000285	0.009538
64789	-0.047999	0.102042	9.781545	-0.000158	0.012022	-0.030499	0.999954	-0.000930	0.000281	0.009546
64790	-0.034645	0.102244	9.776630	0.013005	0.012467	-0.035478	0.999954	-0.000926	0.000269	0.009537
64791	-0.048087	0.088642	9.784779	-0.000145	-0.001540	-0.027389	0.999954	-0.000922	0.000279	0.009545
64792	-0.021123	0.088597	9.774958	0.026803	-0.000997	-0.037342	0.999954	-0.000924	0.000273	0.009537
64793	-0.026925	0.110321	9.803438	0.020857	0.020215	-0.008635	0.999954	-0.000908	0.000291	0.009533
64794	-0.028308	0.100520	9.758280	0.019572	0.010632	-0.053874	0.999954	-0.000907	0.000287	0.009541
64795	-0.041749	0.086863	9.766430	0.004958	-0.003198	-0.045784	0.999954	-0.000916	0.000215	0.009565
64796	-0.046551	0.094208	9.798157	0.000207	0.003741	-0.013967	0.999954	-0.000914	0.000217	0.009566
64797	-0.044853	0.116211	9.759913	0.001279	0.026025	-0.052014	0.999954	-0.000905	0.000213	0.009579
64798	-0.054551	0.120201	9.778222	-0.008274	0.029615	-0.033623	0.999954	-0.000910	0.000228	0.009575
64799	-0.039672	0.091674	9.779821	0.007342	0.001544	-0.032359	0.999954	-0.000923	0.000234	0.009572
64800	-0.036305	0.109667	9.789977	0.010329	0.019510	-0.022053	0.999954	-0.000911	0.000218	0.009576
64801	-0.040515	0.092592	9.779808	0.006129	0.002257	-0.032359	0.999954	-0.000904	0.000208	0.009582
64802	-0.050970	0.110820	9.794862	-0.004676	0.020120	-0.017087	0.999954	-0.000908	0.000210	0.009592
64803	-0.046424	0.089982	9.766381	0.000123	-0.000389	-0.045782	0.999954	-0.000902	0.000206	0.009590
64804	-0.042251	0.093746	9.779790	0.004328	0.003313	-0.032358	0.999954	-0.000906	0.000215	0.009593
64805	-0.028893	0.093907	9.774888	0.017501	0.003778	-0.037322	0.999954	-0.000901	0.000191	0.009598
64806	-0.043081	0.094584	9.779778	0.003116	0.004033	-0.032358	0.999954	-0.000896	0.000193	0.009589
64807	-0.042474	0.080891	9.783030	0.003757	-0.009880	-0.029236	0.999953	-0.000882	0.000165	0.009607
64808	-0.038066	0.084780	9.796440	0.007961	-0.006167	-0.015811	0.999954	-0.000881	0.000173	0.009600
64809	-0.035721	0.117026	9.803332	0.009708	0.026054	-0.008631	0.999954	-0.000882	0.000163	0.009600
64810	-0.027228	0.113798	9.785016	0.018082	0.023167	-0.027016	0.999954	-0.000882	0.000165	0.009599
64811	-0.051220	0.107653	9.763068	-0.005927	0.016699	-0.048907	0.999954	-0.000875	0.000160	0.009598
64812	-0.037932	0.107893	9.758169	0.007256	0.017164	-0.053866	0.999953	-0.000874	0.000156	0.009605
64813	-0.046458	0.097758	9.779732	-0.001088	0.006505	-0.032359	0.999953	-0.000859	0.000148	0.009617
64814	-0.048035	0.112307	9.776463	-0.002947	0.021120	-0.035485	0.999954	-0.000881	0.000158	0.009601
64815	-0.033853	0.098297	9.774829	0.011486	0.007323	-0.037315	0.999953	-0.000852	0.000146	0.009616
64816	-0.039991	0.109623	9.758142	0.004845	0.018577	-0.053867	0.999954	-0.000870	0.000138	0.009597
64817	-0.030038	0.102309	9.788237	0.015063	0.011402	-0.023888	0.999954	-0.000875	0.000145	0.009600
64818	-0.034577	0.084989	9.778079	0.010913	-0.005863	-0.034186	0.999954	-0.000874	0.000147	0.009600
64819	-0.036171	0.099616	9.774808	0.009067	0.008755	-0.037313	0.999954	-0.000874	0.000150	0.009600
64820	-0.027663	0.096386	9.756499	0.017467	0.005862	-0.055691	0.999954	-0.000875	0.000139	0.009599
64821	-0.032330	0.103741	9.788215	0.012671	0.012819	-0.023886	0.999953	-0.000873	0.000135	0.009608
64822	-0.037569	0.100758	9.774791	0.007278	0.009808	-0.037313	0.999954	-0.000869	0.000124	0.009598
64823	-0.056627	0.098095	9.766249	-0.011911	0.006671	-0.045791	0.999954	-0.000854	0.000121	0.009602
64824	-0.038796	0.101705	9.774776	0.006047	0.010524	-0.037313	0.999954	-0.000866	0.000140	0.009599
64825	-0.024649	0.087570	9.773159	0.020478	-0.003254	-0.039127	0.999954	-0.000862	0.000123	0.009597
64826	-0.043751	0.084767	9.764616	0.001299	-0.006396	-0.047608	0.999954	-0.000861	0.000131	0.009590
64827	-0.026738	0.102583	9.769878	0.018019	0.011716	-0.042258	0.999954	-0.000863	0.000125	0.009582
64828	-0.054924	0.103310	9.779631	-0.010157	0.011816	-0.032369	0.999954	-0.000863	0.000128	0.009582
64829	-0.040754	0.089421	9.778016	0.004277	-0.001953	-0.034179	0.999954	-0.000846	0.000127	0.009601
64830	-0.016852	0.082223	9.803244	0.028283	-0.008976	-0.009129	0.999954	-0.000858	0.000112	0.009580
64831	-0.041737	0.089982	9.778006	0.003073	-0.001239	-0.034178	0.999954	-0.000868	0.000121	0.009592
64832	-0.037475	0.093779	9.791420	0.007248	0.002488	-0.020749	0.999954	-0.000855	0.000104	0.009596
64833	-0.025148	0.108386	9.783263	0.019159	0.017229	-0.028826	0.999954	-0.000850	0.000111	0.009579
64834	-0.043348	0.091451	9.777986	0.001236	-0.000180	-0.034178	0.999954	-0.000838	0.000101	0.009575
64835	-0.029992	0.091819	9.773105	0.014431	0.000313	-0.039116	0.999954	-0.000832	0.000097	0.009572
64836	-0.037207	0.117175	9.753127	0.006526	0.025810	-0.058822	0.999954	-0.000848	0.000090	0.009567
64837	-0.036727	0.103211	9.756399	0.007180	0.011908	-0.055683	0.999954	-0.000841	0.000086	0.009566
64838	-0.031687	0.092784	9.773090	0.012609	0.001388	-0.039114	0.999954	-0.000844	0.000102	0.009576
64839	-0.023467	0.089402	9.754795	0.021038	-0.001503	-0.057478	0.999954	-0.000857	0.000109	0.009572
64840	-0.029211	0.111014	9.783222	0.014933	0.019744	-0.028823	0.999954	-0.000845	0.000094	0.009575
64841	-0.033528	0.093846	9.773074	0.010812	0.002455	-0.039112	0.999954	-0.000844	0.000101	0.009569
64842	-0.048928	0.108586	9.774657	-0.004840	0.016931	-0.037321	0.999954	-0.000849	0.000095	0.009546
64843	-0.048367	0.094703	9.777931	-0.004171	0.003029	-0.034179	0.999954	-0.000845	0.000084	0.009536
64844	-0.025383	0.101765	9.799900	0.018541	0.010293	-0.012249	0.999954	-0.000846	0.000072	0.009536
64845	-0.025905	0.102153	9.799895	0.017946	0.010641	-0.012248	0.999954	-0.000842	0.000076	0.009551
64846	-0.041474	0.117016	9.801471	0.002290	0.025108	-0.010463	0.999954	-0.000837	0.000090	0.009527
64847	-0.035912	0.081917	9.776323	0.008499	-0.009679	-0.035964	0.999954	-0.000838	0.000086	0.009519
64848	-0.051204	0.096555	9.777899	-0.007157	0.004789	-0.034182	0.999954	-0.000851	0.000081	0.009530
64849	-0.028365	0.103544	9.799874	0.015546	0.012070	-0.012246	0.999954	-0.000845	0.000076	0.009527
64850	-0.038414	0.097133	9.773024	0.005406	0.005628	-0.039108	0.999954	-0.000843	0.000072	0.009536
64851	-0.038009	0.083275	9.776303	0.006094	-0.008266	-0.035961	0.999954	-0.000842	0.000075	0.009536
64852	-0.022052	0.115476	9.778286	0.021517	0.024111	-0.033748	0.999954	-0.000833	0.000079	0.009542
64853	-0.040296	0.098482	9.773003	0.003618	0.006689	-0.039108	0.999954	-0.000828	0.000081	0.009532
64854	-0.027129	0.098828	9.768136	0.016805	0.007186	-0.044031	0.999954	-0.000819	0.000084	0.009538
64855	-0.045841	0.106476	9.804690	-0.001893	0.014044	-0.007322	0.999954	-0.000818	0.000080	0.009545
64856	-0.041310	0.085477	9.776271	0.003058	-0.006491	-0.035958	0.999954	-0.000830	0.000100	0.009542
64857	-0.037178	0.089208	9.789689	0.007225	-0.002746	-0.022525	0.999954	-0.000825	0.000083	0.009539
64858	-0.052388	0.104159	9.791247	-0.008447	0.011711	-0.020757	0.999954	-0.000810	0.000081	0.009542
64859	-0.030957	0.115088	9.764816	0.012529	0.023200	-0.047180	0.999954	-0.000816	0.000070	0.009551
64860	-0.025645	0.104567	9.781526	0.017941	0.012710	-0.030593	0.999954	-0.000818	0.000064	0.009544
64861	-0.039974	0.105034	9.786375	0.003548	0.012913	-0.025676	0.999954	-0.000822	0.000061	0.009561
64862	-0.044458	0.087891	9.776236	-0.000528	-0.004374	-0.035956	0.999954	-0.000801	0.000078	0.009547
64863	-0.032339	0.102529	9.768082	0.011408	0.010370	-0.044026	0.999954	-0.000803	0.000073	0.009540
64864	-0.041054	0.092262	9.789645	0.003047	-0.000275	-0.022522	0.999954	-0.000800	0.000084	0.009547
64865	-0.033438	0.103401	9.768069	0.010220	0.011071	-0.044025	0.999954	-0.000789	0.000061	0.009543
64866	-0.028006	0.093000	9.784784	0.015653	0.000568	-0.027434	0.999954	-0.000795	0.000056	0.009546
64867	-0.033381	0.089806	9.771356	0.010322	-0.002493	-0.040868	0.999954	-0.000800	0.000065	0.009548
64868	-0.053599	0.101211	9.759475	-0.010097	0.008543	-0.052549	0.999954	-0.000785	0.000063	0.009551
64869	-0.047477	0.076579	9.779488	-0.003372	-0.016198	-0.032798	0.999954	-0.000796	0.000069	0.009524
64870	-0.045417	0.108842	9.786309	-0.001787	0.016056	-0.025681	0.999954	-0.000787	0.000073	0.009528
64871	-0.040657	0.087999	9.757907	0.003234	-0.004506	-0.054300	0.999954	-0.000788	0.000069	0.009521
64872	-0.031679	0.095248	9.784751	0.012107	0.002660	-0.027429	0.999954	-0.000787	0.000065	0.009529
64873	-0.033251	0.109736	9.781447	0.010201	0.017267	-0.030589	0.999954	-0.000800	0.000065	0.009532
64874	-0.038532	0.106433	9.768018	0.004877	0.014209	-0.044025	0.999954	-0.000809	0.000059	0.009519
64875	-0.048110	0.110358	9.786280	-0.004781	0.017817	-0.025685	0.999954	-0.000803	0.000056	0.009516
64876	-0.057145	0.089578	9.762724	-0.013564	-0.002906	-0.049395	0.999954	-0.000810	0.000057	0.009511
64877	-0.040204	0.107284	9.768002	0.003092	0.015269	-0.044026	0.999954	-0.000823	0.000058	0.009515
64878	-0.035962	0.111013	9.781423	0.007231	0.019037	-0.030590	0.999954	-0.000819	0.000047	0.009504
64879	-0.035639	0.097071	9.784720	0.007924	0.005147	-0.027426	0.999955	-0.000831	0.000068	0.009501
64880	-0.022573	0.097194	9.779877	0.021128	0.005661	-0.032326	0.999954	-0.000829	0.000064	0.009508
64881	-0.054454	0.080147	9.779423	-0.010507	-0.011981	-0.032797	0.999955	-0.000831	0.000059	0.009501
64882	-0.023633	0.097829	9.779868	0.019922	0.006365	-0.032324	0.999955	-0.000838	0.000060	0.009496
64883	-0.057462	0.109276	9.772802	-0.014298	0.017215	-0.039131	0.999955	-0.000829	0.000043	0.009483
64884	-0.024511	0.098685	9.779857	0.018734	0.007075	-0.032322	0.999955	-0.000828	0.000045	0.009483
64885	-0.043691	0.095717	9.771259	-0.000389	0.003853	-0.040863	0.999955	-0.000831	0.000046	0.009467
64886	-0.039629	0.099760	9.784677	0.003728	0.007625	-0.027425	0.999955	-0.000806	0.000053	0.009484
64887	-0.031135	0.096758	9.766409	0.012229	0.004716	-0.045758	0.999955	-0.000807	0.000049	0.009476
64888	-0.025884	0.086315	9.783140	0.017646	-0.005741	-0.029150	0.999955	-0.000809	0.000043	0.009468
64889	-0.045946	0.097553	9.771230	-0.002784	0.005262	-0.040864	0.999955	-0.000811	0.000038	0.009459
64890	-0.009677	0.093973	9.743308	0.033307	0.002713	-0.068979	0.999955	-0.000818	0.000032	0.009461
64891	-0.033178	0.098000	9.766390	0.009816	0.006135	-0.045756	0.999955	-0.000817	0.000035	0.009461
64892	-0.048550	0.112749	9.767902	-0.005901	0.020557	-0.044037	0.999955	-0.000816	0.000025	0.009476
64893	-0.047933	0.098910	9.771207	-0.005189	0.006661	-0.040866	0.999955	-0.000814	0.000016	0.009491
64894	-0.038882	0.106255	9.798057	0.003647	0.013862	-0.013988	0.999955	-0.000809	0.000005	0.009482
64895	-0.024817	0.081916	9.751425	0.017857	-0.009964	-0.060908	0.999955	-0.000794	0.000004	0.009485
64896	-0.049433	0.100378	9.771185	-0.006949	0.007698	-0.040867	0.999955	-0.000794	0.000013	0.009477
64897	-0.047524	0.132674	9.777977	-0.005453	0.039965	-0.033778	0.999955	-0.000794	0.000021	0.009469
64898	-0.045060	0.090248	9.787914	-0.002099	-0.002404	-0.024254	0.999955	-0.000804	0.000016	0.009455
64899	-0.032763	0.104763	9.779770	0.009807	0.012371	-0.032315	0.999955	-0.000789	0.000014	0.009458
64900	-0.046220	0.091113	9.787901	-0.003289	-0.001706	-0.024254	0.999955	-0.000794	0.000023	0.009460
64901	-0.043540	0.098650	9.752899	-0.000804	0.006199	-0.059195	0.999955	-0.000788	0.000025	0.009450
64902	-0.052150	0.088501	9.774458	-0.009193	-0.004434	-0.037695	0.999955	-0.000781	0.000015	0.009455
64903	-0.021506	0.106278	9.774923	0.021226	0.013959	-0.037196	0.999955	-0.000793	0.000036	0.009452
64904	-0.026828	0.103023	9.761490	0.015934	0.010875	-0.050636	0.999955	-0.000796	0.000018	0.009443
64905	-0.035354	0.092722	9.783052	0.007545	0.000235	-0.029135	0.999955	-0.000795	0.000021	0.009443
64906	-0.037087	0.107323	9.779726	0.005631	0.014820	-0.032315	0.999955	-0.000795	0.000029	0.009435
64907	-0.041458	0.089989	9.769610	0.001653	-0.002509	-0.042575	0.999955	-0.000794	0.000032	0.009436
64908	-0.019904	0.111508	9.788327	0.022943	0.019152	-0.023751	0.999955	-0.000786	0.000036	0.009441
64909	-0.056524	0.090992	9.774411	-0.013355	-0.001987	-0.037699	0.999955	-0.000787	0.000031	0.009433
64910	-0.044319	0.105666	9.766266	-0.001433	0.012786	-0.045757	0.999955	-0.000765	0.000038	0.009434
64911	-0.030144	0.091744	9.764769	0.013094	-0.000902	-0.047450	0.999955	-0.000782	0.000043	0.009415
64912	-0.040021	0.095678	9.783006	0.003380	0.002699	-0.029133	0.999955	-0.000768	0.000053	0.009403
64913	-0.041714	0.110412	9.779673	0.001467	0.017283	-0.032317	0.999955	-0.000767	0.000050	0.009410
64914	-0.041124	0.096546	9.782993	0.002183	0.003406	-0.029133	0.999955	-0.000768	0.000038	0.009409
64915	-0.018598	0.093201	9.759938	0.024536	0.000692	-0.052318	0.999955	-0.000767	0.000036	0.009416
64916	-0.042142	0.097156	9.782982	0.001009	0.004093	-0.029133	0.999955	-0.000779	0.000037	0.009420
64917	-0.042782	0.097583	9.782975	0.000416	0.004439	-0.029133	0.999955	-0.000759	0.000041	0.009407
64918	-0.029731	0.097998	9.778160	0.013631	0.004983	-0.034002	0.999955	-0.000762	0.000057	0.009417
64919	-0.054698	0.105679	9.752769	-0.011472	0.012475	-0.059207	0.999955	-0.000764	0.000053	0.009409
64920	-0.036529	0.109369	9.761390	0.006433	0.016475	-0.050632	0.999956	-0.000767	0.000034	0.009400
64921	-0.037023	0.109698	9.761384	0.005839	0.016822	-0.050633	0.999956	-0.000767	0.000043	0.009393
64922	-0.059736	0.099564	9.787745	-0.016366	0.005988	-0.024269	0.999956	-0.000764	0.000054	0.009400
64923	-0.037461	0.096313	9.764700	0.006010	0.003280	-0.047443	0.999956	-0.000758	0.000057	0.009390
64924	-0.046189	0.086028	9.786259	-0.002363	-0.007348	-0.025944	0.999956	-0.000765	0.000060	0.009383
64925	-0.034028	0.100395	9.778122	0.009535	0.007428	-0.033999	0.999956	-0.000770	0.000063	0.009393
64926	-0.032450	0.072328	9.784780	0.011591	-0.020679	-0.027615	0.999956	-0.000763	0.000053	0.009398
64927	-0.049092	0.101199	9.782909	-0.005483	0.007933	-0.029137	0.999956	-0.000774	0.000074	0.009395
64928	-0.026708	0.097719	9.759874	0.016873	0.005234	-0.052303	0.999956	-0.000778	0.000055	0.009387
64929	-0.041115	0.098171	9.764667	0.002464	0.005364	-0.047443	0.999956	-0.000774	0.000072	0.009388
64930	-0.041755	0.098545	9.764660	0.001883	0.005704	-0.047443	0.999956	-0.000775	0.000061	0.009388
64931	-0.032772	0.105875	9.791522	0.010642	0.012971	-0.020553	0.999956	-0.000776	0.000051	0.009387
64932	-0.042565	0.099164	9.764650	0.000692	0.006419	-0.047443	0.999956	-0.000784	0.000046	0.009388
64933	-0.052251	0.103192	9.782872	-0.009046	0.010019	-0.029141	0.999956	-0.000769	0.000044	0.009391
64934	-0.025149	0.103432	9.773277	0.018004	0.010791	-0.038853	0.999956	-0.000777	0.000046	0.009385
64935	-0.043415	0.085981	9.767968	0.000277	-0.006768	-0.044246	0.999956	-0.000788	0.000067	0.009381
64936	-0.040439	0.104079	9.778059	0.003026	0.011278	-0.033998	0.999956	-0.000776	0.000053	0.009384
64937	-0.034035	0.079602	9.798163	0.009801	-0.013374	-0.014156	0.999956	-0.000777	0.000049	0.009375
64938	-0.040322	0.090596	9.781386	0.003182	-0.002248	-0.030800	0.999956	-0.000785	0.000049	0.009369
64939	-0.046669	0.101481	9.764608	-0.003437	0.008868	-0.047445	0.999956	-0.000797	0.000050	0.009373
64940	-0.041491	0.090981	9.781377	0.001998	-0.001555	-0.030799	0.999956	-0.000799	0.000046	0.009365
64941	-0.055769	0.091403	9.786160	-0.012409	-0.001413	-0.025949	0.999956	-0.000800	0.000035	0.009363
64942	-0.033257	0.088128	9.763144	0.009960	-0.004103	-0.049095	0.999956	-0.000794	0.000037	0.009354
64943	-0.025448	0.109906	9.786666	0.017354	0.017412	-0.025402	0.999956	-0.000781	0.000022	0.009357
64944	-0.047921	0.089068	9.767920	-0.005020	-0.003629	-0.044246	0.999956	-0.000799	0.000016	0.009337
64945	-0.031032	0.106932	9.773222	0.011524	0.014640	-0.038849	0.999956	-0.000795	0.000020	0.009352
64946	-0.049116	0.089608	9.767909	-0.006197	-0.002928	-0.044247	0.999956	-0.000803	0.000022	0.009346
64947	-0.046222	0.107655	9.777994	-0.003474	0.015111	-0.034004	0.999956	-0.000799	0.000032	0.009354
64948	-0.026350	0.083031	9.793328	0.017128	-0.009322	-0.018991	0.999956	-0.000799	0.000042	0.009346
64949	-0.046613	0.094166	9.781324	-0.003296	0.001560	-0.030800	0.999956	-0.000800	0.000043	0.009331
64950	-0.039021	0.105228	9.759755	0.003921	0.012886	-0.052296	0.999956	-0.000791	0.000035	0.009352
64951	-0.052378	0.091413	9.767875	-0.009137	-0.001217	-0.044248	0.999956	-0.000804	0.000043	0.009348
64952	-0.040232	0.105796	9.759744	0.002730	0.013582	-0.052297	0.999956	-0.000803	0.000039	0.009356
64953	-0.043201	0.084840	9.798083	0.000318	-0.007802	-0.014145	0.999956	-0.000802	0.000041	0.009356
64954	-0.041516	0.106489	9.759731	0.001553	0.014280	-0.052298	0.999956	-0.000807	0.000051	0.009358
64955	-0.031699	0.099651	9.789947	0.011605	0.007349	-0.022192	0.999956	-0.000803	0.000040	0.009348
64956	-0.047318	0.103751	9.746280	-0.004296	0.011488	-0.065748	0.999956	-0.000799	0.000050	0.009356
64957	-0.037664	0.097040	9.776496	0.005766	0.004559	-0.035640	0.999956	-0.000791	0.000054	0.009361
64958	-0.047519	0.101034	9.794701	-0.003999	0.008156	-0.017355	0.999956	-0.000795	0.000058	0.009370
64959	-0.042357	0.080141	9.766397	0.001321	-0.012459	-0.045878	0.999956	-0.000782	0.000043	0.009373
64960	-0.039029	0.098199	9.776479	0.004011	0.005600	-0.035640	0.999956	-0.000799	0.000023	0.009368
64961	-0.039585	0.098367	9.776475	0.003441	0.005947	-0.035640	0.999956	-0.000802	0.000041	0.009377
64962	-0.035820	0.102035	9.789908	0.007466	0.009793	-0.022190	0.999956	-0.000821	0.000053	0.009375
64963	-0.054872	0.098804	9.781235	-0.011591	0.006434	-0.030808	0.999956	-0.000817	0.000037	0.009371
64964	-0.042494	0.113419	9.773106	0.000286	0.021254	-0.038854	0.999956	-0.000811	0.000034	0.009367
64965	-0.023498	0.103136	9.785122	0.019554	0.011084	-0.027020	0.999956	-0.000805	0.000038	0.009358
64966	-0.043584	0.114358	9.773090	-0.000859	0.021936	-0.038856	0.999956	-0.000800	0.000028	0.009348
64967	-0.042949	0.100551	9.776439	-0.000069	0.008055	-0.035640	0.999956	-0.000799	0.000026	0.009355
64968	-0.029755	0.100884	9.771666	0.013179	0.008646	-0.040468	0.999956	-0.000796	0.000037	0.009361
64969	-0.024538	0.090498	9.788456	0.018587	-0.001753	-0.023800	0.999956	-0.000804	0.000019	0.009363
64970	-0.050208	0.112149	9.759627	-0.007810	0.019835	-0.052310	0.999956	-0.000811	0.000015	0.009364
64971	-0.029932	0.087594	9.775010	0.012813	-0.004532	-0.037249	0.999956	-0.000799	0.000001	0.009366
64972	-0.044306	0.088092	9.779768	-0.001615	-0.004418	-0.032424	0.999956	-0.000804	0.000010	0.009368
64973	-0.026534	0.091902	9.788438	0.016278	-0.000351	-0.023796	0.999956	-0.000800	0.000015	0.009383
64974	-0.045518	0.088710	9.779757	-0.002774	-0.003740	-0.032424	0.999956	-0.000812	0.000002	0.009362
64975	-0.019443	0.103047	9.766870	0.022897	0.011322	-0.045288	0.999956	-0.000812	0.000009	0.009354
64976	-0.033805	0.103463	9.771625	0.008492	0.011446	-0.040466	0.999956	-0.000813	-0.000007	0.009359
64977	-0.051768	0.086071	9.766301	-0.009166	-0.006160	-0.045876	0.999956	-0.000819	0.000009	0.009353
64978	-0.030460	0.107691	9.785054	0.011950	0.015641	-0.027014	0.999956	-0.000810	0.000008	0.009366
64979	-0.033486	0.076051	9.778332	0.009496	-0.015966	-0.034020	0.999956	-0.000822	0.000010	0.009370
64980	-0.031616	0.108315	9.785043	0.010787	0.016326	-0.027013	0.999956	-0.000816	0.000007	0.009367
64981	-0.040490	0.087577	9.761517	0.002331	-0.004538	-0.050695	0.999956	-0.000803	0.000024	0.009347
64982	-0.021668	0.077259	9.773560	0.021576	-0.014666	-0.038833	0.999956	-0.000810	0.000026	0.009341
64983	-0.065761	0.106274	9.781090	-0.023267	0.013382	-0.030836	0.999956	-0.000796	-0.000002	0.009359
64984	-0.037356	0.092445	9.774939	0.005196	-0.000014	-0.037241	0.999956	-0.000795	0.000008	0.009352
64985	-0.034400	0.110549	9.785009	0.007842	0.018063	-0.027014	0.999956	-0.000797	-0.000003	0.009351
64986	-0.052289	0.093252	9.779681	-0.009815	0.000437	-0.032427	0.999956	-0.000791	0.000000	0.009341
64987	-0.034332	0.097228	9.788362	0.008069	0.004521	-0.023786	0.999956	-0.000783	-0.000008	0.009347
64988	-0.026665	0.108337	9.766795	0.015314	0.015846	-0.045280	0.999956	-0.000777	-0.000011	0.009343
64989	-0.053546	0.094754	9.779659	-0.011550	0.001465	-0.032429	0.999956	-0.000765	-0.000039	0.009346
64990	-0.049242	0.098692	9.793095	-0.007519	0.005314	-0.018976	0.999956	-0.000773	-0.000037	0.009339
64991	-0.034968	0.084718	9.791709	0.007128	-0.008294	-0.020555	0.999956	-0.000773	-0.000027	0.009330
64992	-0.041351	0.095783	9.774891	0.000557	0.002761	-0.037240	0.999956	-0.000769	-0.000027	0.009352
64993	-0.040576	0.081991	9.778257	0.001350	-0.011108	-0.034009	0.999956	-0.000766	-0.000052	0.009342
64994	-0.029369	0.110700	9.766761	0.011827	0.017935	-0.045278	0.999956	-0.000771	-0.000042	0.009344
64995	-0.041786	0.082660	9.778246	0.000200	-0.010434	-0.034008	0.999956	-0.000768	-0.000031	0.009352
64996	-0.038951	0.100951	9.788307	0.002837	0.007644	-0.023785	0.999956	-0.000753	-0.000032	0.009355
64997	-0.056971	0.083683	9.782977	-0.014802	-0.010002	-0.029203	0.999956	-0.000758	-0.000023	0.009357
64998	-0.045902	0.112410	9.771477	-0.004346	0.019042	-0.040475	0.999956	-0.000754	-0.000034	0.009347
64999	-0.040750	0.102049	9.788289	0.001050	0.008688	-0.023786	0.999956	-0.000765	-0.000025	0.009358
65000	-0.046019	0.098894	9.774839	-0.004139	0.005507	-0.037242	0.999956	-0.000749	-0.000026	0.009362
65001	-0.031437	0.085057	9.773469	0.010523	-0.008100	-0.038807	0.999956	-0.000758	-0.000043	0.009363
65002	-0.028438	0.103098	9.783530	0.013141	0.009986	-0.028587	0.999956	-0.000758	-0.000034	0.009355
65003	-0.042882	0.103566	9.788264	-0.001307	0.010082	-0.023787	0.999956	-0.000752	-0.000044	0.009359
65004	-0.052473	0.096787	9.761373	-0.011112	0.003410	-0.050700	0.999956	-0.000761	-0.000057	0.009352
65005	-0.057646	0.104373	9.792990	-0.016341	0.010524	-0.018991	0.999956	-0.000745	-0.000051	0.009363
65006	-0.044296	0.104741	9.788245	-0.003071	0.011132	-0.023789	0.999956	-0.000756	-0.000063	0.009341
65007	-0.026255	0.108517	9.796946	0.014795	0.015262	-0.015128	0.999956	-0.000755	-0.000065	0.009348
65008	-0.036119	0.101795	9.770054	0.005030	0.008566	-0.042042	0.999956	-0.000752	-0.000054	0.009355
65009	-0.050432	0.102187	9.774784	-0.009382	0.008640	-0.037248	0.999956	-0.000754	-0.000077	0.009354
65010	-0.032288	0.106108	9.783486	0.008462	0.012774	-0.028585	0.999956	-0.000748	-0.000080	0.009352
65011	-0.031676	0.092306	9.786862	0.009288	-0.001103	-0.025343	0.999956	-0.000749	-0.000083	0.009344
65012	-0.022923	0.089064	9.768680	0.017950	-0.004008	-0.043592	0.999956	-0.000747	-0.000086	0.009352
65013	-0.060409	0.092945	9.796320	-0.019561	-0.000954	-0.015760	0.999956	-0.000762	-0.000092	0.009347
65014	-0.048242	0.107418	9.788197	-0.007684	0.013888	-0.023795	0.999956	-0.000754	-0.000086	0.009352
65015	-0.040657	0.118299	9.766632	-0.000411	0.025204	-0.045287	0.999956	-0.000772	-0.000092	0.009332
65016	-0.039020	0.090096	9.773396	0.001812	-0.002876	-0.038799	0.999956	-0.000769	-0.000081	0.009338
65017	-0.049860	0.097548	9.743117	-0.009349	0.004635	-0.068960	0.999956	-0.000770	-0.000098	0.009345
65018	-0.036651	0.108497	9.783444	0.003834	0.015561	-0.028586	0.999956	-0.000781	-0.000082	0.009349
65019	-0.050032	0.094635	9.791553	-0.009174	0.001411	-0.020554	0.999956	-0.000774	-0.000090	0.009353
65020	-0.056262	0.105676	9.774715	-0.015750	0.012432	-0.037260	0.999956	-0.000775	-0.000088	0.009338
65021	-0.023383	0.095339	9.782087	0.017342	0.002652	-0.030124	0.999956	-0.000774	-0.000091	0.009345
65022	-0.056286	0.092242	9.778088	-0.015529	-0.001083	-0.034015	0.999956	-0.000769	-0.000088	0.009335
65023	-0.028872	0.092588	9.768632	0.011577	-0.000172	-0.043581	0.999956	-0.000771	-0.000118	0.009341
65024	-0.038515	0.096388	9.786798	0.001725	0.003426	-0.025339	0.999956	-0.000784	-0.000110	0.009337
65025	-0.035526	0.103721	9.751789	0.004417	0.011203	-0.060289	0.999956	-0.000777	-0.000119	0.009342
65026	-0.039493	0.097127	9.786787	0.000545	0.004117	-0.025339	0.999956	-0.000775	-0.000128	0.009357
65027	-0.041021	0.111695	9.783391	-0.001463	0.018682	-0.028591	0.999956	-0.000777	-0.000139	0.009356
65028	-0.021888	0.101457	9.795499	0.017779	0.008641	-0.016658	0.999956	-0.000770	-0.000142	0.009354
65029	-0.040967	0.098242	9.786770	-0.001219	0.005183	-0.025340	0.999956	-0.000779	-0.000134	0.009339
65030	-0.046252	0.095029	9.773318	-0.006384	0.001994	-0.038800	0.999956	-0.000771	-0.000129	0.009344
65031	-0.036501	0.077384	9.758541	0.003729	-0.015133	-0.053784	0.999956	-0.000800	-0.000124	0.009329
65032	-0.034681	0.109567	9.765197	0.004884	0.017166	-0.046831	0.999956	-0.000786	-0.000139	0.009333
65033	-0.048910	0.110158	9.769907	-0.009539	0.017222	-0.042057	0.999956	-0.000776	-0.000145	0.009353
65034	-0.042532	0.085847	9.790135	-0.002720	-0.007309	-0.022086	0.999956	-0.000770	-0.000148	0.009350
65035	-0.036093	0.111006	9.765175	0.007135	0.017287	-0.046832	0.999955	-0.000728	0.000058	0.009440
65036	-0.043732	0.086433	9.790125	0.000121	-0.007531	-0.022086	0.999955	-0.000734	0.000062	0.009448
65037	-0.034994	0.083055	9.771959	0.008818	-0.010425	-0.040323	0.999955	-0.000744	0.000056	0.009434
65038	-0.031883	0.101183	9.782004	0.011387	0.007681	-0.030118	0.999955	-0.000736	0.000036	0.009453
65039	-0.032245	0.101760	9.781997	0.010804	0.008024	-0.030117	0.999955	-0.000721	0.000035	0.009457
65040	-0.046611	0.102095	9.786705	-0.003626	0.008076	-0.025342	0.999955	-0.000739	0.000028	0.009437
65041	-0.048314	0.116565	9.783301	-0.005629	0.022647	-0.028601	0.999955	-0.000731	0.000033	0.009441
65042	-0.043170	0.095701	9.755085	-0.000070	0.001996	-0.057037	0.999955	-0.000723	0.000044	0.009438
65043	-0.019728	0.089166	9.780661	0.023762	-0.004476	-0.031630	0.999955	-0.000717	0.000048	0.009428
65044	-0.027104	0.114436	9.760406	0.015754	0.020753	-0.051607	0.999955	-0.000713	0.000038	0.009417
65045	-0.039109	0.086471	9.771914	0.004184	-0.007625	-0.040317	0.999956	-0.000710	0.000033	0.009400
65046	-0.036397	0.104628	9.781952	0.006727	0.010486	-0.030116	0.999955	-0.000713	0.000050	0.009408
65047	-0.037144	0.105230	9.781943	0.006132	0.010843	-0.030116	0.999956	-0.000686	0.000050	0.009407
65048	-0.056370	0.102154	9.773193	-0.012850	0.007334	-0.038809	0.999956	-0.000697	0.000072	0.009403
65049	-0.023554	0.091915	9.780627	0.020254	-0.002373	-0.031621	0.999956	-0.000684	0.000058	0.009406
65050	-0.042380	0.088734	9.771880	0.001274	-0.005889	-0.040315	0.999956	-0.000691	0.000054	0.009407
65051	-0.039532	0.106747	9.781917	0.003797	0.012220	-0.030116	0.999956	-0.000699	0.000055	0.009401
65052	-0.044707	0.103360	9.768464	-0.001335	0.009018	-0.043578	0.999956	-0.000706	0.000057	0.009395
65053	-0.032502	0.117965	9.760348	0.010504	0.023876	-0.051608	0.999956	-0.000694	0.000049	0.009390
65054	-0.036763	0.111409	9.795346	0.006601	0.016824	-0.016655	0.999956	-0.000697	0.000066	0.009399
65055	-0.045421	0.090322	9.771851	-0.001612	-0.004154	-0.040314	0.999956	-0.000699	0.000063	0.009390
65056	-0.041258	0.094387	9.785294	0.002367	-0.000259	-0.026852	0.999956	-0.000685	0.000049	0.009393
65057	-0.029189	0.108961	9.777179	0.014191	0.014605	-0.034879	0.999956	-0.000697	0.000071	0.009389
65058	-0.028718	0.094996	9.780584	0.015034	0.000746	-0.031611	0.999956	-0.000698	0.000060	0.009388
65059	-0.047656	0.091737	9.771828	-0.003944	-0.002772	-0.040314	0.999956	-0.000698	0.000064	0.009387
65060	-0.040363	0.113512	9.795308	0.003131	0.018896	-0.016657	0.999956	-0.000697	0.000068	0.009386
65061	-0.062851	0.092248	9.776512	-0.018917	-0.002398	-0.035557	0.999956	-0.000719	0.000076	0.009376
65062	-0.046149	0.110276	9.781849	-0.002552	0.016023	-0.030122	0.999956	-0.000711	0.000067	0.009381
65063	-0.030289	0.082441	9.783973	0.013639	-0.011728	-0.028337	0.999956	-0.000698	0.000054	0.009384
65064	-0.036512	0.093486	9.767104	0.007081	-0.000737	-0.045071	0.999956	-0.000701	0.000063	0.009360
65065	-0.038396	0.108125	9.763682	0.005080	0.013817	-0.048342	0.999956	-0.000690	0.000071	0.009379
65066	-0.033283	0.098041	9.780540	0.010490	0.003531	-0.031606	0.999956	-0.000687	0.000067	0.009360
65067	-0.043100	0.101883	9.798677	0.000610	0.007115	-0.013389	0.999956	-0.000701	0.000062	0.009356
65068	-0.033107	0.084442	9.783946	0.010806	-0.009989	-0.028332	0.999956	-0.000687	0.000062	0.009359
65069	-0.034935	0.099190	9.780522	0.008788	0.004570	-0.031605	0.999956	-0.000682	0.000072	0.009340
65070	-0.036693	0.113863	9.777097	0.006754	0.019125	-0.034879	0.999956	-0.000675	0.000064	0.009344
65071	-0.039486	0.082310	9.770477	0.004578	-0.012506	-0.041793	0.999956	-0.000673	0.000077	0.009351
65072	-0.038073	0.114700	9.777082	0.005634	0.019816	-0.034880	0.999956	-0.000673	0.000087	0.009342
65073	-0.040950	0.082978	9.770465	0.003446	-0.011818	-0.041792	0.999956	-0.000680	0.000090	0.009336
65074	-0.038207	0.100947	9.780492	0.005963	0.006283	-0.031604	0.999956	-0.000692	0.000093	0.009340
65075	-0.038794	0.101269	9.780486	0.005399	0.006618	-0.031603	0.999956	-0.000682	0.000093	0.009353
65076	-0.035699	0.108758	9.745472	0.008178	0.014354	-0.066557	0.999956	-0.000676	0.000091	0.009350
65077	-0.035404	0.105848	9.793923	0.008790	0.010895	-0.018138	0.999956	-0.000673	0.000097	0.009364
65078	-0.039284	0.088465	9.783888	0.005150	-0.006532	-0.028324	0.999956	-0.000669	0.000087	0.009353
65079	-0.048025	0.078265	9.805438	-0.003272	-0.017154	-0.006835	0.999956	-0.000668	0.000099	0.009345
65080	-0.041546	0.103407	9.780453	0.002577	0.008350	-0.031604	0.999956	-0.000669	0.000084	0.009351
65081	-0.037426	0.107521	9.793897	0.006522	0.012272	-0.018138	0.999956	-0.000654	0.000083	0.009354
65082	-0.032185	0.097439	9.810768	0.011955	0.001986	-0.001391	0.999956	-0.000655	0.000075	0.009354
65083	-0.041678	0.090469	9.783860	0.002345	-0.004817	-0.028322	0.999956	-0.000662	0.000071	0.009354
65084	-0.047900	0.101387	9.766976	-0.004206	0.006155	-0.045071	0.999956	-0.000656	0.000070	0.009351
65085	-0.033374	0.087731	9.765718	0.010550	-0.007375	-0.046526	0.999956	-0.000646	0.000069	0.009364
65086	-0.036329	0.116488	9.758857	0.007035	0.021372	-0.053094	0.999956	-0.000654	0.000071	0.009358
65087	-0.048426	0.088497	9.770382	-0.004480	-0.007016	-0.041788	0.999956	-0.000640	0.000070	0.009361
65088	-0.027465	0.110361	9.789176	0.016364	0.015029	-0.022876	0.999956	-0.000651	0.000092	0.009357
65089	-0.046455	0.107124	9.780391	-0.002582	0.011450	-0.031607	0.999956	-0.000632	0.000072	0.009358
65090	-0.036192	0.089940	9.765688	0.007644	-0.005656	-0.046523	0.999956	-0.000625	0.000063	0.009364
65091	-0.037938	0.104345	9.762253	0.005605	0.008875	-0.049809	0.999956	-0.000646	0.000070	0.009355
65092	-0.052512	0.104541	9.766919	-0.008812	0.008861	-0.045076	0.999956	-0.000636	0.000077	0.009361
65093	-0.047391	0.094355	9.783797	-0.003417	-0.001394	-0.028321	0.999956	-0.000644	0.000072	0.009361
65094	-0.034079	0.094736	9.779121	0.009858	-0.000703	-0.033053	0.999956	-0.000638	0.000076	0.009351
65095	-0.054360	0.105537	9.766898	-0.010579	0.009914	-0.045079	0.999956	-0.000652	0.000083	0.009347
65096	-0.049166	0.095331	9.783779	-0.005176	-0.000353	-0.028322	0.999956	-0.000639	0.000069	0.009349
65097	-0.025313	0.078137	9.764418	0.018928	-0.017113	-0.047958	0.999956	-0.000631	0.000086	0.009340
65098	-0.042305	0.106969	9.762206	0.001559	0.011276	-0.049810	0.999956	-0.000625	0.000085	0.009337
65099	-0.031479	0.086290	9.795980	0.012953	-0.009599	-0.016290	0.999956	-0.000624	0.000089	0.009337
65100	-0.038968	0.111402	9.775646	0.004909	0.015564	-0.036342	0.999956	-0.000623	0.000086	0.009343
65101	-0.033852	0.101173	9.792532	0.010308	0.005303	-0.019581	0.999956	-0.000628	0.000090	0.009353
65102	-0.048252	0.101481	9.797189	-0.004116	0.005315	-0.014856	0.999956	-0.000624	0.000081	0.009341
65103	-0.040629	0.112337	9.775629	0.003192	0.016605	-0.036343	0.999956	-0.000638	0.000090	0.009337
65104	-0.041129	0.112556	9.775624	0.002630	0.016956	-0.036344	0.999956	-0.000638	0.000075	0.009343
65105	-0.049692	0.102298	9.797174	-0.005822	0.006352	-0.014857	0.999956	-0.000640	0.000071	0.009335
65106	-0.046525	0.109647	9.762158	-0.003028	0.014053	-0.049814	0.999956	-0.000634	0.000068	0.009332
65107	-0.040218	0.085417	9.782486	0.003846	-0.010397	-0.029752	0.999956	-0.000625	0.000073	0.009338
65108	-0.038725	0.117940	9.789050	0.004796	0.021933	-0.022876	0.999956	-0.000619	0.000071	0.009335
65109	-0.041196	0.086304	9.782474	0.002713	-0.009714	-0.029751	0.999956	-0.000622	0.000055	0.009327
65110	-0.042945	0.100626	9.779028	0.000647	0.004836	-0.033049	0.999956	-0.000642	0.000069	0.009324
65111	-0.029614	0.100942	9.774366	0.013923	0.005548	-0.037767	0.999956	-0.000632	0.000053	0.009311
65112	-0.028681	0.087334	9.777803	0.014832	-0.008297	-0.034467	0.999956	-0.000619	0.000038	0.009314
65113	-0.048815	0.098325	9.765552	-0.005582	0.002286	-0.046520	0.999956	-0.000617	0.000050	0.009321
65114	-0.026583	0.105993	9.787802	0.016678	0.010202	-0.024295	0.999956	-0.000624	0.000046	0.009322
65115	-0.040578	0.095389	9.747431	0.002633	-0.000257	-0.064706	0.999956	-0.000618	0.000044	0.009319
65116	-0.032191	0.103246	9.774334	0.011027	0.007308	-0.037764	0.999956	-0.000605	0.000049	0.009314
65117	-0.045471	0.089455	9.782427	-0.001928	-0.006902	-0.029749	0.999956	-0.000609	0.000046	0.009331
65118	-0.042766	0.107535	9.792429	0.000472	0.011242	-0.019581	0.999956	-0.000617	0.000048	0.009325
65119	-0.033953	0.104360	9.774316	0.009260	0.008351	-0.037763	0.999956	-0.000603	0.000047	0.009327
65120	-0.039250	0.101244	9.760851	0.004204	0.005090	-0.051234	0.999956	-0.000599	0.000072	0.009335
65121	-0.029900	0.094699	9.791207	0.014074	-0.001541	-0.020987	0.999956	-0.000606	0.000074	0.009329
65122	-0.041949	0.116118	9.757387	0.001525	0.019974	-0.054539	0.999956	-0.000598	0.000078	0.009334
65123	-0.040105	0.088120	9.764283	0.003958	-0.008066	-0.047928	0.999956	-0.000605	0.000075	0.009335
65124	-0.037424	0.106282	9.774283	0.006360	0.010089	-0.037763	0.999956	-0.000602	0.000081	0.009350
65125	-0.022800	0.092568	9.773084	0.021117	-0.003376	-0.039162	0.999956	-0.000601	0.000065	0.009371
65126	-0.042978	0.103452	9.760813	0.000679	0.007184	-0.051235	0.999956	-0.000596	0.000080	0.009347
65127	-0.054195	0.121656	9.775452	-0.010800	0.024969	-0.036366	0.999956	-0.000594	0.000065	0.009369
65128	-0.033884	0.097233	9.791169	0.009959	0.000917	-0.020982	0.999956	-0.000610	0.000072	0.009349
65129	-0.025146	0.093890	9.773066	0.018760	-0.001976	-0.039157	0.999956	-0.000605	0.000075	0.009339
65130	-0.048567	0.086840	9.750787	-0.004637	-0.009219	-0.061398	0.999956	-0.000613	0.000070	0.009340
65131	-0.034381	0.084136	9.794608	0.009703	-0.012213	-0.017670	0.999956	-0.000593	0.000064	0.009340
65132	-0.045082	0.091466	9.764231	-0.001338	-0.004903	-0.047926	0.999956	-0.000601	0.000065	0.009334
65133	-0.041030	0.095432	9.777683	0.002563	-0.000925	-0.034452	0.999956	-0.000599	0.000048	0.009315
65134	-0.042708	0.110071	9.774219	0.000485	0.013610	-0.037765	0.999956	-0.000591	0.000054	0.009320
65135	-0.037597	0.099980	9.791128	0.005906	0.003388	-0.020979	0.999956	-0.000593	0.000052	0.009311
65136	-0.029825	0.111183	9.769566	0.013235	0.014670	-0.042463	0.999956	-0.000564	0.000041	0.009326
65137	-0.038594	0.101266	9.791111	0.004742	0.004090	-0.020979	0.999956	-0.000562	0.000052	0.009332
65138	-0.029803	0.097850	9.773014	0.013561	0.001200	-0.039148	0.999956	-0.000583	0.000046	0.009337
65139	-0.039774	0.101532	9.791104	0.003578	0.004789	-0.020978	0.999956	-0.000590	0.000048	0.009331
65140	-0.059942	0.112308	9.778811	-0.016838	0.015322	-0.033074	0.999956	-0.000584	0.000046	0.009328
65141	-0.031299	0.098660	9.773001	0.011815	0.002231	-0.039146	0.999956	-0.000587	0.000028	0.009320
65142	-0.041168	0.102638	9.791086	0.001815	0.005831	-0.020978	0.999956	-0.000582	0.000031	0.009310
65143	-0.033691	0.113657	9.769525	0.009141	0.017137	-0.042462	0.999956	-0.000580	0.000043	0.009316
65144	-0.051348	0.096099	9.764155	-0.008252	-0.000705	-0.047928	0.999956	-0.000581	0.000027	0.009322
65145	-0.033368	0.100134	9.772979	0.009496	0.003651	-0.039144	0.999956	-0.000588	0.000023	0.009323
65146	-0.043243	0.104008	9.791063	-0.000503	0.007237	-0.020979	0.999956	-0.000589	0.000013	0.009323
65147	-0.034248	0.100684	9.772970	0.008348	0.004341	-0.039143	0.999956	-0.000596	0.000010	0.009324
65148	-0.030242	0.104717	9.786424	0.012221	0.008317	-0.025668	0.999956	-0.000589	0.000002	0.009329
65149	-0.029654	0.090852	9.789886	0.013174	-0.005527	-0.022346	0.999956	-0.000601	0.000019	0.009333
65150	-0.040441	0.097956	9.759495	0.002170	0.001745	-0.052617	0.999956	-0.000597	0.000008	0.009322
65151	-0.053598	0.084386	9.767580	-0.010764	-0.012488	-0.044610	0.999956	-0.000566	0.000011	0.009337
65152	-0.032714	0.106665	9.786395	0.009902	0.009700	-0.025666	0.999956	-0.000566	0.000020	0.009329
65153	-0.027607	0.096594	9.803318	0.015298	-0.000499	-0.008867	0.999956	-0.000560	0.000013	0.009333
65154	-0.052053	0.103728	9.777547	-0.009572	0.006384	-0.034459	0.999956	-0.000562	0.000003	0.009332
65155	-0.032987	0.093749	9.789848	0.011305	-0.000875	-0.022342	0.999956	-0.000683	0.000092	0.009400
65156	-0.020978	0.108325	9.781749	0.023075	0.014052	-0.030354	0.999956	-0.000696	0.000094	0.009404
65157	-0.043290	0.086859	9.762918	0.001257	-0.007464	-0.049290	0.999956	-0.000702	0.000110	0.009398
65158	-0.059214	0.101327	9.764058	-0.014716	0.006681	-0.047938	0.999956	-0.000694	0.000116	0.009403
65159	-0.035757	0.095037	9.789825	0.009022	0.000517	-0.022340	0.999956	-0.000696	0.000113	0.009396
65160	-0.041950	0.105844	9.772886	0.002468	0.011412	-0.039145	0.999956	-0.000698	0.000109	0.009387
65161	-0.041159	0.092021	9.776355	0.003412	-0.002421	-0.035814	0.999956	-0.000697	0.000101	0.009402
65162	-0.037183	0.096093	9.789810	0.007271	0.001572	-0.022338	0.999955	-0.000696	0.000099	0.009409
65163	-0.038946	0.110616	9.786328	0.005180	0.016097	-0.025671	0.999956	-0.000697	0.000096	0.009401
65164	-0.033139	0.089502	9.758263	0.011133	-0.004637	-0.053966	0.999955	-0.000696	0.000088	0.009417
65165	-0.049511	0.114882	9.804392	-0.005442	0.020041	-0.007520	0.999955	-0.000702	0.000102	0.009410
65166	-0.030123	0.093888	9.771712	0.014396	-0.000282	-0.040488	0.999955	-0.000694	0.000108	0.009415
65167	-0.015454	0.080267	9.770572	0.029216	-0.013706	-0.041827	0.999955	-0.000693	0.000093	0.009437
65168	-0.054474	0.098068	9.794388	-0.010099	0.003263	-0.017663	0.999955	-0.000709	0.000100	0.009418
65169	-0.036163	0.091126	9.758237	0.008229	-0.002891	-0.053962	0.999955	-0.000702	0.000098	0.009416
65170	-0.023437	0.102587	9.798616	0.020958	0.008402	-0.013533	0.999955	-0.000707	0.000103	0.009426
65171	-0.045476	0.081267	9.779778	-0.000818	-0.013136	-0.032475	0.999955	-0.000703	0.000093	0.009416
65172	-0.047170	0.095766	9.776292	-0.002939	0.001386	-0.035813	0.999955	-0.000710	0.000089	0.009418
65173	-0.029286	0.099919	9.785140	0.014776	0.005798	-0.027007	0.999955	-0.000704	0.000080	0.009423
65174	-0.035521	0.110896	9.768188	0.008229	0.016686	-0.043823	0.999955	-0.000696	0.000086	0.009428
65175	-0.035104	0.097046	9.771665	0.009199	0.002867	-0.040482	0.999955	-0.000709	0.000108	0.009423
65176	-0.037010	0.111581	9.768175	0.007080	0.017396	-0.043823	0.999955	-0.000696	0.000094	0.009426
65177	-0.031879	0.101696	9.785113	0.012470	0.007230	-0.027004	0.999955	-0.000687	0.000107	0.009438
65178	-0.052211	0.112575	9.772761	-0.007953	0.017691	-0.039158	0.999955	-0.000681	0.000111	0.009428
65179	-0.038761	0.113083	9.768151	0.005328	0.018461	-0.043824	0.999955	-0.000682	0.000094	0.009434
65180	-0.036501	0.085133	9.775119	0.007819	-0.009545	-0.037137	0.999955	-0.000678	0.000078	0.009432
65181	-0.035008	0.117723	9.781600	0.008577	0.022821	-0.030347	0.999955	-0.000664	0.000077	0.009435
65182	-0.034335	0.103973	9.785081	0.009556	0.008989	-0.027003	0.999955	-0.000672	0.000080	0.009429
65183	-0.053108	0.100430	9.776215	-0.009298	0.005265	-0.035819	0.999955	-0.000673	0.000066	0.009435
65184	-0.021132	0.104801	9.780470	0.022306	0.010110	-0.031663	0.999955	-0.000663	0.000050	0.009423
65185	-0.039992	0.101511	9.771601	0.003424	0.006389	-0.040480	0.999955	-0.000656	0.000062	0.009420
65186	-0.045091	0.098370	9.758129	-0.001551	0.003077	-0.053959	0.999955	-0.000642	0.000062	0.009423
65187	-0.049491	0.092013	9.793136	-0.005631	-0.003831	-0.018996	0.999955	-0.000642	0.000066	0.009422
65188	-0.041846	0.102870	9.771579	0.001727	0.007450	-0.040481	0.999955	-0.000650	0.000063	0.009423
65189	-0.042480	0.103102	9.771573	0.001147	0.007801	-0.040481	0.999955	-0.000656	0.000073	0.009424
65190	-0.038608	0.106897	9.785033	0.004997	0.011808	-0.027002	0.999955	-0.000678	0.000061	0.009422
65191	-0.037765	0.092872	9.788523	0.005963	-0.002013	-0.023652	0.999955	-0.000678	0.000058	0.009429
65192	-0.032740	0.082913	9.805474	0.011364	-0.012179	-0.006823	0.999955	-0.000664	0.000071	0.009418
65193	-0.054316	0.107826	9.789608	-0.010626	0.012437	-0.022349	0.999955	-0.000673	0.000073	0.009411
65194	-0.043975	0.090251	9.775042	-0.000154	-0.004650	-0.037131	0.999955	-0.000681	0.000056	0.009413
65195	-0.041188	0.108311	9.785007	0.002129	0.013529	-0.027003	0.999956	-0.000690	0.000052	0.009401
65196	-0.044840	0.090770	9.775033	-0.001300	-0.003957	-0.037131	0.999955	-0.000682	0.000051	0.009413
65197	-0.051057	0.101590	9.758067	-0.007820	0.006887	-0.053964	0.999955	-0.000689	0.000048	0.009415
65198	-0.037258	0.098838	9.801950	0.006371	0.004077	-0.010171	0.999955	-0.000692	0.000066	0.009424
65199	-0.043773	0.109578	9.784982	-0.000156	0.014925	-0.027005	0.999956	-0.000695	0.000075	0.009401
65200	-0.033609	0.092119	9.770422	0.010335	-0.002157	-0.041779	0.999956	-0.000697	0.000073	0.009393
65201	-0.038017	0.085643	9.805431	0.006250	-0.009058	-0.006815	0.999956	-0.000694	0.000079	0.009408
65202	-0.029116	0.082491	9.787375	0.015152	-0.011945	-0.024941	0.999956	-0.000689	0.000077	0.009404
65203	-0.036612	0.107525	9.766904	0.007045	0.013075	-0.045134	0.999955	-0.000688	0.000074	0.009411
65204	-0.034564	0.079487	9.773900	0.009594	-0.014918	-0.038419	0.999955	-0.000696	0.000071	0.009412
65205	-0.026834	0.090372	9.752346	0.016949	-0.003646	-0.059901	0.999956	-0.000692	0.000067	0.009395
65206	-0.036681	0.094438	9.770389	0.006885	-0.000027	-0.041776	0.999955	-0.000686	0.000047	0.009413
65207	-0.033931	0.112903	9.780344	0.009146	0.018168	-0.031654	0.999955	-0.000671	0.000047	0.009417
65208	-0.056023	0.091642	9.761491	-0.012536	-0.003444	-0.050614	0.999956	-0.000672	0.000057	0.009408
65209	-0.042128	0.089138	9.805383	0.001638	-0.006223	-0.006811	0.999956	-0.000660	0.000050	0.009403
65210	-0.038694	0.096380	9.770362	0.004598	0.001369	-0.041774	0.999955	-0.000667	0.000040	0.009412
65211	-0.037848	0.082488	9.773863	0.005591	-0.012448	-0.038412	0.999956	-0.000669	0.000036	0.009404
65212	-0.044846	0.104456	9.801860	-0.001684	0.009003	-0.010172	0.999956	-0.000656	0.000041	0.009400
65213	-0.021989	0.101330	9.779233	0.021131	0.006544	-0.032930	0.999956	-0.000671	0.000036	0.009395
65214	-0.050393	0.101351	9.788382	-0.007220	0.006024	-0.023655	0.999956	-0.000664	0.000042	0.009400
65215	-0.036965	0.102046	9.783798	0.006082	0.006828	-0.028292	0.999956	-0.000652	0.000027	0.009402
65216	-0.051439	0.102544	9.788365	-0.008381	0.006737	-0.023656	0.999956	-0.000636	0.000041	0.009405
65217	-0.028709	0.099434	9.765742	0.014436	0.004275	-0.046409	0.999956	-0.000652	0.000042	0.009393
65218	-0.041934	0.085260	9.773823	0.001536	-0.009980	-0.038408	0.999956	-0.000661	0.000044	0.009387
65219	-0.034952	0.107168	9.797240	0.008140	0.011931	-0.014809	0.999956	-0.000663	0.000034	0.009385
65220	-0.048105	0.093239	9.805318	-0.004743	-0.002328	-0.006810	0.999956	-0.000660	0.000040	0.009399
65221	-0.040551	0.104320	9.783760	0.002614	0.008941	-0.028292	0.999956	-0.000647	0.000045	0.009395
65222	-0.054968	0.104549	9.788324	-0.011833	0.008848	-0.023662	0.999956	-0.000659	0.000034	0.009373
65223	-0.041494	0.105066	9.783748	0.001482	0.009651	-0.028293	0.999956	-0.000645	0.000033	0.009375
65224	0.000892	0.091825	9.773546	0.044146	-0.002818	-0.038810	0.999956	-0.000646	0.000043	0.009367
65225	-0.051675	0.098288	9.756800	-0.008417	0.002955	-0.055260	0.999956	-0.000660	0.000052	0.009363
65226	-0.043607	0.106001	9.783728	-0.000244	0.010690	-0.028294	0.999956	-0.000660	0.000056	0.009363
65227	-0.033402	0.088523	9.769204	0.010290	-0.006376	-0.043033	0.999956	-0.000667	0.000059	0.009357
65228	-0.043516	0.092411	9.787232	0.000192	-0.002782	-0.024922	0.999956	-0.000667	0.000057	0.009364
65229	-0.030054	0.092909	9.782662	0.013496	-0.001972	-0.029547	0.999956	-0.000669	0.000047	0.009363
65230	-0.044623	0.093071	9.787221	-0.000957	-0.002076	-0.024922	0.999956	-0.000672	0.000066	0.009372
65231	-0.028358	0.111562	9.792601	0.015131	0.016590	-0.019436	0.999956	-0.000661	0.000063	0.009360
65232	-0.036420	0.090212	9.769178	0.007403	-0.004617	-0.043029	0.999956	-0.000678	0.000070	0.009340
65233	-0.043906	0.115097	9.748668	-0.000700	0.020355	-0.063263	0.999956	-0.000665	0.000056	0.009343
65234	-0.033003	0.094683	9.782636	0.010644	-0.000214	-0.029544	0.999956	-0.000674	0.000060	0.009336
65235	-0.023970	0.091429	9.764602	0.019582	-0.003103	-0.047648	0.999956	-0.000668	0.000051	0.009340
65236	-0.052280	0.091603	9.773715	-0.008756	-0.003674	-0.038407	0.999956	-0.000662	0.000050	0.009338
65237	-0.054061	0.106292	9.770186	-0.010926	0.010841	-0.041785	0.999956	-0.000650	0.000042	0.009333
65238	-0.043218	0.085881	9.804160	0.000413	-0.009715	-0.008061	0.999956	-0.000659	0.000045	0.009326
65239	-0.031200	0.100614	9.796074	0.012156	0.005250	-0.016056	0.999956	-0.000644	0.000046	0.009329
65240	-0.069856	0.107292	9.774719	-0.026508	0.011440	-0.037172	0.999956	-0.000660	0.000067	0.009309
65241	-0.038285	0.111698	9.779069	0.005078	0.016414	-0.032920	0.999956	-0.000647	0.000054	0.009312
65242	-0.051304	0.097868	9.787142	-0.007797	0.002136	-0.024925	0.999956	-0.000647	0.000052	0.009319
65243	-0.047458	0.101972	9.800604	-0.004022	0.006189	-0.011440	0.999956	-0.000649	0.000048	0.009311
65244	-0.031478	0.074210	9.803096	0.012489	-0.021329	-0.009291	0.999957	-0.000643	0.000053	0.009301
65245	-0.039183	0.099169	9.782568	0.004350	0.003651	-0.029539	0.999957	-0.000644	0.000062	0.009292
65246	-0.039907	0.099602	9.782561	0.003763	0.004002	-0.029539	0.999957	-0.000637	0.000067	0.009297
65247	-0.035040	0.092653	9.751066	0.008398	-0.002609	-0.061122	0.999957	-0.000639	0.000039	0.009304
65248	-0.025386	0.086353	9.781529	0.018109	-0.008986	-0.030765	0.999957	-0.000640	0.000048	0.009295
65249	-0.037361	0.107339	9.747529	0.005643	0.012266	-0.064505	0.999957	-0.000656	0.000043	0.009290
65250	-0.046285	0.096927	9.769072	-0.002872	0.001687	-0.043026	0.999957	-0.000662	0.000060	0.009285
65251	-0.037022	0.090600	9.799535	0.006836	-0.004694	-0.012667	0.999957	-0.000662	0.000063	0.009284
65252	-0.033778	0.097750	9.764512	0.009858	0.002864	-0.047633	0.999957	-0.000662	0.000067	0.009283
65253	-0.042616	0.087559	9.786053	0.001315	-0.007705	-0.026153	0.999957	-0.000662	0.000064	0.009290
65254	-0.035077	0.098418	9.764501	0.008690	0.003555	-0.047632	0.999957	-0.000668	0.000081	0.009284
65255	-0.049591	0.098663	9.769038	-0.005776	0.003437	-0.043027	0.999957	-0.000656	0.000067	0.009286
65256	-0.031834	0.103052	9.777959	0.011882	0.007981	-0.034144	0.999957	-0.000659	0.000075	0.009263
65257	-0.035605	0.085448	9.768016	0.008596	-0.009546	-0.044242	0.999957	-0.000660	0.000087	0.009254
65258	-0.047089	0.103537	9.782488	-0.003158	0.008219	-0.029542	0.999957	-0.000662	0.000077	0.009253
65259	-0.019695	0.104237	9.773401	0.024051	0.009524	-0.038744	0.999957	-0.000662	0.000074	0.009260
65260	-0.038541	0.100576	9.764466	0.005261	0.005692	-0.047631	0.999957	-0.000671	0.000078	0.009252
65261	-0.034849	0.104657	9.777931	0.009022	0.009767	-0.034143	0.999957	-0.000668	0.000083	0.009266
65262	-0.038390	0.087152	9.767990	0.005691	-0.007753	-0.044238	0.999957	-0.000665	0.000072	0.009255
65263	-0.062374	0.091102	9.790529	-0.018355	-0.004628	-0.021554	0.999957	-0.000652	0.000072	0.009257
65264	-0.032046	0.109862	9.791382	0.011603	0.014566	-0.020655	0.999957	-0.000654	0.000069	0.009249
65265	-0.040113	0.088690	9.767969	0.003965	-0.006694	-0.044236	0.999957	-0.000634	0.000088	0.009235
65266	-0.023981	0.107358	9.773358	0.019996	0.012019	-0.038738	0.999957	-0.000634	0.000092	0.009234
65267	-0.038486	0.107514	9.777887	0.005514	0.011897	-0.034143	0.999957	-0.000637	0.000088	0.009225
65268	-0.051667	0.093597	9.785954	-0.007347	-0.002405	-0.026153	0.999957	-0.000629	0.000094	0.009231
65269	-0.043988	0.104486	9.764402	0.000018	0.008860	-0.047632	0.999957	-0.000639	0.000088	0.009217
65270	-0.051479	0.080120	9.789483	-0.006886	-0.015857	-0.022756	0.999957	-0.000631	0.000094	0.009221
65271	-0.029973	0.091003	9.763403	0.014402	-0.004116	-0.048826	0.999957	-0.000661	0.000100	0.009206
65272	-0.031683	0.105351	9.759857	0.012198	0.010387	-0.052223	0.999957	-0.000647	0.000073	0.009225
65273	-0.027692	0.109548	9.773324	0.015969	0.014458	-0.038734	0.999957	-0.000655	0.000077	0.009219
65274	-0.040840	0.095470	9.781392	0.003118	0.000158	-0.030745	0.999957	-0.000657	0.000074	0.009211
65275	-0.027486	0.095997	9.776859	0.017523	0.001295	-0.035335	0.999955	-0.000671	0.000133	0.009494
65276	-0.043279	0.110300	9.777836	0.001418	0.015302	-0.034146	0.999955	-0.000672	0.000124	0.009494
65277	-0.025630	0.114773	9.786774	0.019063	0.019884	-0.025246	0.999955	-0.000657	0.000137	0.009498
65278	-0.029215	0.097383	9.776840	0.015821	0.002329	-0.035332	0.999955	-0.000653	0.000129	0.009489
65279	-0.028309	0.083609	9.780382	0.016882	-0.011468	-0.031928	0.999955	-0.000655	0.000126	0.009480
65280	-0.035994	0.108603	9.759807	0.008735	0.013448	-0.052223	0.999955	-0.000640	0.000139	0.009484
65281	-0.046136	0.112673	9.777795	-0.001448	0.017054	-0.034149	0.999955	-0.000645	0.000121	0.009474
65282	-0.017307	0.099244	9.772294	0.027413	0.004261	-0.039913	0.999955	-0.000644	0.000119	0.009480
65283	-0.031756	0.099340	9.776812	0.012951	0.004108	-0.035328	0.999955	-0.000652	0.000117	0.009481
65284	-0.046339	0.099450	9.781328	-0.001518	0.003939	-0.030745	0.999955	-0.000649	0.000129	0.009489
65285	-0.020569	0.114502	9.768728	0.024071	0.019459	-0.043316	0.999955	-0.000636	0.000135	0.009485
65286	-0.052047	0.096571	9.767838	-0.007005	0.000908	-0.044236	0.999955	-0.000645	0.000136	0.009477
65287	-0.034211	0.100784	9.776789	0.010628	0.005510	-0.035326	0.999955	-0.000651	0.000117	0.009453
65288	-0.033120	0.087080	9.780337	0.011700	-0.008299	-0.031917	0.999955	-0.000636	0.000105	0.009472
65289	-0.044391	0.105320	9.794769	-0.000112	0.009446	-0.017256	0.999955	-0.000637	0.000090	0.009479
65290	-0.049297	0.101884	9.781288	-0.004970	0.006041	-0.030747	0.999955	-0.000635	0.000109	0.009479
65291	-0.045622	0.105912	9.794757	-0.001267	0.010144	-0.017257	0.999955	-0.000651	0.000097	0.009482
65292	-0.023512	0.114040	9.817184	0.020648	0.018511	0.005148	0.999955	-0.000640	0.000094	0.009469
65293	-0.041330	0.099223	9.763281	0.002876	0.003846	-0.048815	0.999955	-0.000647	0.000097	0.009464
65294	-0.051354	0.103174	9.781264	-0.007301	0.007440	-0.030750	0.999955	-0.000640	0.000077	0.009483
65295	-0.036681	0.089807	9.780299	0.007663	-0.005843	-0.031912	0.999955	-0.000626	0.000102	0.009471
65296	-0.028978	0.100983	9.758746	0.015079	0.005408	-0.053389	0.999955	-0.000612	0.000078	0.009491
65297	-0.041903	0.087173	9.766811	0.002239	-0.008905	-0.045402	0.999955	-0.000607	0.000082	0.009481
65298	-0.047878	0.095037	9.798263	-0.003663	-0.001553	-0.013847	0.999955	-0.000603	0.000086	0.009470
65299	-0.046051	0.116213	9.759677	-0.002213	0.020089	-0.052231	0.999955	-0.000614	0.000102	0.009474
65300	-0.039728	0.092034	9.780267	0.004805	-0.004108	-0.031909	0.999955	-0.000608	0.000100	0.009472
65301	-0.030625	0.088959	9.762277	0.013830	-0.006993	-0.049969	0.999955	-0.000597	0.000098	0.009459
65302	-0.043602	0.121387	9.773126	0.000347	0.024879	-0.038742	0.999955	-0.000589	0.000104	0.009465
65303	-0.031611	0.086882	9.810759	0.013306	-0.009684	-0.001506	0.999955	-0.000604	0.000113	0.009460
65304	-0.043583	0.107771	9.776677	0.000860	0.011450	-0.035326	0.999955	-0.000604	0.000112	0.009467
65305	-0.034580	0.104771	9.758688	0.009914	0.008553	-0.053384	0.999955	-0.000579	0.000121	0.009484
65306	-0.043548	0.094820	9.780224	0.001386	-0.002005	-0.031907	0.999955	-0.000580	0.000126	0.009483
65307	-0.025849	0.099271	9.789190	0.019032	0.002638	-0.022979	0.999955	-0.000574	0.000120	0.009488
65308	-0.040321	0.099476	9.793686	0.004583	0.002451	-0.018414	0.999955	-0.000573	0.000126	0.009489
65309	-0.046520	0.110221	9.776636	-0.001919	0.013185	-0.035328	0.999955	-0.000567	0.000119	0.009493
65310	-0.045665	0.096422	9.780199	-0.000828	-0.000622	-0.031907	0.999955	-0.000575	0.000122	0.009488
65311	-0.032423	0.096810	9.775694	0.012523	0.000254	-0.036468	0.999955	-0.000586	0.000133	0.009498
65312	-0.045520	0.082716	9.783758	-0.000283	-0.014063	-0.028484	0.999955	-0.000585	0.000120	0.009520
65313	-0.023913	0.093918	9.757709	0.021034	-0.002277	-0.054520	0.999955	-0.000578	0.000139	0.009510
65314	-0.034305	0.098077	9.775675	0.010858	0.001303	-0.036466	0.999955	-0.000564	0.000140	0.009513
65315	-0.034912	0.098570	9.775668	0.010291	0.001651	-0.036466	0.999955	-0.000564	0.000145	0.009513
65316	-0.035504	0.098984	9.775662	0.009704	0.002017	-0.036465	0.999955	-0.000559	0.000142	0.009508
65317	-0.050022	0.099097	9.780151	-0.004775	0.001833	-0.031908	0.999955	-0.000567	0.000145	0.009502
65318	-0.063101	0.085074	9.788212	-0.017577	-0.012500	-0.023926	0.999955	-0.000561	0.000139	0.009508
65319	-0.035694	0.085950	9.779219	0.009700	-0.011097	-0.033037	0.999955	-0.000560	0.000138	0.009517
65320	-0.022163	0.132914	9.777471	0.022329	0.035992	-0.034379	0.999955	-0.000546	0.000139	0.009519
65321	-0.033995	0.104770	9.789108	0.011199	0.007511	-0.022969	0.999955	-0.000560	0.000149	0.009516
65322	-0.044572	0.111480	9.758573	0.000420	0.014458	-0.053386	0.999954	-0.000559	0.000147	0.009524
65323	-0.038046	0.087373	9.779197	0.007444	-0.009683	-0.033033	0.999955	-0.000563	0.000144	0.009514
65324	-0.032903	0.077406	9.796246	0.012816	-0.019714	-0.016108	0.999955	-0.000562	0.000142	0.009522
65325	-0.036132	0.106081	9.789086	0.008910	0.008909	-0.022968	0.999955	-0.000557	0.000134	0.009512
65326	-0.054868	0.102362	9.780091	-0.009846	0.004947	-0.031913	0.999955	-0.000563	0.000138	0.009521
65327	-0.045895	0.099033	9.762120	-0.000770	0.002050	-0.049957	0.999955	-0.000566	0.000147	0.009498
65328	-0.040901	0.089213	9.779169	0.004559	-0.007949	-0.033030	0.999955	-0.000551	0.000146	0.009515
65329	-0.042838	0.103796	9.775582	0.002300	0.006532	-0.036463	0.999955	-0.000558	0.000142	0.009517
65330	-0.049001	0.114361	9.758519	-0.004197	0.017241	-0.053392	0.999955	-0.000560	0.000140	0.009509
65331	-0.025558	0.108370	9.784567	0.019353	0.011557	-0.027513	0.999955	-0.000570	0.000129	0.009502
65332	-0.033030	0.086949	9.761188	0.011947	-0.009800	-0.051068	0.999955	-0.000557	0.000116	0.009506
65333	-0.043135	0.091109	9.779142	0.001716	-0.006200	-0.033028	0.999955	-0.000550	0.000116	0.009518
65334	-0.046616	0.073731	9.769240	-0.001439	-0.023769	-0.043087	0.999955	-0.000535	0.000121	0.009488
65335	-0.041567	0.110051	9.789021	0.003145	0.012431	-0.022968	0.999955	-0.000549	0.000129	0.009484
65336	-0.037838	0.114258	9.802492	0.006826	0.016565	-0.009473	0.999955	-0.000534	0.000117	0.009502
65337	-0.027420	0.099862	9.739614	0.017079	0.002853	-0.072538	0.999955	-0.000535	0.000115	0.009495
65338	-0.044508	0.079186	9.782695	0.000564	-0.018610	-0.029588	0.999955	-0.000529	0.000114	0.009493
65339	-0.040839	0.083441	9.796167	0.004251	-0.014470	-0.016092	0.999955	-0.000530	0.000119	0.009492
65340	-0.047165	0.094166	9.779094	-0.002264	-0.003767	-0.033027	0.999955	-0.000522	0.000124	0.009497
65341	-0.043558	0.098364	9.792566	0.001399	0.000388	-0.019530	0.999955	-0.000531	0.000127	0.009489
65342	-0.031665	0.113097	9.784495	0.013072	0.015434	-0.027508	0.999955	-0.000524	0.000133	0.009493
65343	-0.030756	0.099521	9.788077	0.014193	0.001650	-0.024066	0.999955	-0.000512	0.000120	0.009496
65344	-0.057648	0.085353	9.800610	-0.012483	-0.013264	-0.011553	0.999955	-0.000513	0.000119	0.009489
65345	-0.040261	0.092697	9.761108	0.004607	-0.005253	-0.051059	0.999955	-0.000505	0.000126	0.009494
65346	-0.018473	0.101074	9.783586	0.026421	0.003250	-0.028598	0.999955	-0.000506	0.000129	0.009493
65347	-0.028902	0.107850	9.753032	0.015661	0.010161	-0.059035	0.999955	-0.000508	0.000119	0.009492
65348	-0.043293	0.107920	9.757498	0.001169	0.009961	-0.054502	0.999955	-0.000511	0.000116	0.009482
65349	-0.054948	0.079747	9.769149	-0.009931	-0.018537	-0.043081	0.999955	-0.000510	0.000115	0.009491
65350	-0.033329	0.087985	9.791631	0.011913	-0.010042	-0.020616	0.999955	-0.000518	0.000144	0.009469
65351	-0.028440	0.080790	9.760200	0.016784	-0.016725	-0.052140	0.999955	-0.000520	0.000115	0.009476
65352	-0.041237	0.113118	9.770952	0.003153	0.015135	-0.041006	0.999955	-0.000507	0.000116	0.009480
65353	-0.041816	0.113503	9.770945	0.002585	0.015477	-0.041006	0.999955	-0.000518	0.000117	0.009459
65354	-0.056522	0.113563	9.775404	-0.011890	0.015270	-0.036479	0.999955	-0.000512	0.000136	0.009448
65355	-0.048891	0.075391	9.799666	-0.003125	-0.022989	-0.012636	0.999955	-0.000518	0.000148	0.009449
65356	-0.018949	0.094262	9.800614	0.026674	-0.003578	-0.011639	0.999955	-0.000511	0.000159	0.009447
65357	-0.037719	0.090482	9.791593	0.007938	-0.007594	-0.020610	0.999955	-0.000520	0.000148	0.009441
65358	-0.043892	0.101094	9.774508	0.001447	0.003092	-0.037558	0.999955	-0.000513	0.000155	0.009445
65359	-0.044486	0.101505	9.774501	0.000872	0.003442	-0.037558	0.999955	-0.000515	0.000151	0.009437
65360	-0.035113	0.095436	9.805056	0.010455	-0.002733	-0.007110	0.999955	-0.000515	0.000150	0.009444
65361	-0.012104	0.092455	9.782650	0.033501	-0.005053	-0.029651	0.999955	-0.000516	0.000160	0.009436
65362	-0.049158	0.084401	9.764604	-0.003357	-0.013465	-0.047604	0.999955	-0.000532	0.000162	0.009425
65363	-0.042475	0.106498	9.787960	0.002852	0.008629	-0.024060	0.999955	-0.000526	0.000142	0.009430
65364	-0.028910	0.107089	9.783497	0.016197	0.009556	-0.028580	0.999955	-0.000535	0.000145	0.009423
65365	-0.032303	0.089433	9.773613	0.013104	-0.008028	-0.038623	0.999955	-0.000530	0.000144	0.009420
65366	-0.046817	0.089370	9.778066	-0.001399	-0.008245	-0.034105	0.999955	-0.000552	0.000144	0.009417
65367	-0.037674	0.086055	9.760124	0.007734	-0.011125	-0.052121	0.999955	-0.000539	0.000145	0.009419
65368	-0.017248	0.108806	9.779019	0.027827	0.011562	-0.033094	0.999955	-0.000525	0.000145	0.009422
65369	-0.036099	0.105104	9.769986	0.009129	0.007514	-0.042077	0.999955	-0.000531	0.000156	0.009424
65370	-0.045172	0.094815	9.791520	0.000549	-0.003021	-0.020605	0.999955	-0.000538	0.000166	0.009424
65371	-0.044401	0.081043	9.795120	0.001674	-0.016808	-0.017146	0.999955	-0.000532	0.000164	0.009422
65372	-0.032393	0.095780	9.787057	0.013333	-0.001737	-0.025117	0.999955	-0.000540	0.000162	0.009423
65373	-0.034398	0.110240	9.783444	0.011043	0.012737	-0.028576	0.999956	-0.000535	0.000166	0.009413
65374	-0.034919	0.110580	9.783438	0.010455	0.013085	-0.028576	0.999955	-0.000542	0.000156	0.009422
65375	-0.043943	0.103119	9.756469	0.001472	0.005793	-0.055576	0.999956	-0.000543	0.000167	0.009414
65376	-0.034637	0.097364	9.787034	0.011028	-0.000359	-0.025114	0.999955	-0.000514	0.000157	0.009429
65377	-0.039483	0.094059	9.773544	0.006236	-0.003840	-0.038614	0.999955	-0.000521	0.000173	0.009424
65378	-0.027730	0.108749	9.765481	0.017885	0.011224	-0.046585	0.999955	-0.000521	0.000178	0.009423
65379	-0.024107	0.113036	9.778957	0.021519	0.015389	-0.033084	0.999955	-0.000515	0.000176	0.009421
65380	-0.037166	0.099104	9.787007	0.008760	0.001025	-0.025112	0.999955	-0.000510	0.000176	0.009419
65381	-0.038972	0.113794	9.783386	0.006469	0.015520	-0.028576	0.999955	-0.000495	0.000158	0.009443
65382	-0.030998	0.078502	9.759200	0.014843	-0.019441	-0.053153	0.999955	-0.000503	0.000161	0.009436
65383	-0.039986	0.114636	9.783372	0.005328	0.016225	-0.028577	0.999955	-0.000490	0.000161	0.009440
65384	-0.025250	0.101148	9.782539	0.020393	0.003048	-0.029614	0.999955	-0.000505	0.000170	0.009435
65385	-0.058147	0.096943	9.777933	-0.012233	-0.001616	-0.034109	0.999955	-0.000503	0.000182	0.009443
65386	-0.021090	0.091443	9.799629	0.025162	-0.006568	-0.012643	0.999955	-0.000511	0.000184	0.009437
