// General information: 
//  MT Manager version: 2021.0.0 
//  XDA version: 2021.0.0 build 5908 rev 109668 built on 2021-04-19
// Device information: 
//  DeviceId: 00B43DFA
//  ProductCode: MTW2-3A7G6
//  Firmware Version: 4.3.5
//  Hardware Version: 1.1.0
// Device settings: 
//  Filter Profile: human(46.1)
//  Option Flags: Orientation Smoother Disabled, Position/Velocity Smoother Disabled, Continuous Zero Rotation Update Disabled, AHS Disabled, ICC Disabled
// Coordinate system: ENU
PacketCounter	Acc_X	Acc_Y	Acc_Z	FreeAcc_E	FreeAcc_N	FreeAcc_U	Quat_q0	Quat_q1	Quat_q2	Quat_q3
64468	-9.349925	-2.668489	2.280919	0.307165	0.011423	0.169787	0.585843	0.253027	0.571557	-0.515837
64469	-9.340529	-2.515155	2.368665	0.433728	-0.042682	0.136781	0.586110	0.255403	0.570710	-0.515301
64470	-9.316378	-2.622605	2.331544	0.281726	-0.076882	0.138374	0.586573	0.257094	0.570243	-0.514448
64471	-9.298791	-2.680721	2.331964	0.197266	-0.123556	0.139075	0.587171	0.258245	0.570052	-0.513401
64472	-9.313711	-2.735069	2.342251	0.130136	-0.164581	0.170691	0.587889	0.259080	0.569872	-0.512358
64473	-9.291629	-2.783164	2.285436	0.037439	-0.151203	0.151211	0.588625	0.259691	0.569695	-0.511399
64474	-9.232819	-2.856903	2.168252	-0.106205	-0.101222	0.091181	0.589336	0.260136	0.569560	-0.510504
64475	-9.174254	-2.873398	2.210999	-0.132211	-0.171948	0.049604	0.589948	0.260640	0.569320	-0.509806
64476	-9.152522	-2.860175	2.273461	-0.115508	-0.237254	0.038618	0.590485	0.261043	0.569136	-0.509184
64477	-9.160738	-2.873999	2.317411	-0.123637	-0.284605	0.059145	0.590941	0.261447	0.568878	-0.508735
64478	-9.142376	-2.768145	2.334093	-0.039003	-0.272543	0.016750	0.591375	0.261838	0.568558	-0.508388
64479	-9.101061	-2.780327	2.263932	-0.097990	-0.229260	-0.033999	0.591860	0.262014	0.568338	-0.507979
64480	-9.134573	-2.794209	2.247591	-0.122310	-0.210720	-0.002473	0.592371	0.262030	0.568170	-0.507563
64481	-9.189282	-2.837638	2.201150	-0.179961	-0.168071	0.050351	0.592965	0.261804	0.568107	-0.507055
64482	-9.204481	-2.872346	2.145691	-0.238121	-0.125136	0.061748	0.593562	0.261475	0.568055	-0.506585
64483	-9.180254	-2.789045	2.112511	-0.187018	-0.070842	0.009662	0.594163	0.261122	0.567903	-0.506232
64484	-9.178362	-2.827337	2.169224	-0.203684	-0.130000	0.030244	0.594734	0.260602	0.567840	-0.505901
64485	-9.217719	-2.880408	2.175106	-0.244809	-0.135283	0.082562	0.595248	0.259954	0.567811	-0.505662
64486	-9.147788	-2.893594	2.085337	-0.303954	-0.073783	0.000859	0.595676	0.259244	0.567817	-0.505516
64487	-9.175100	-2.858769	2.057074	-0.277366	-0.019632	0.011225	0.595989	0.258542	0.567847	-0.505473
64488	-9.218393	-2.885836	2.029838	-0.301261	0.016883	0.053214	0.596182	0.257834	0.567925	-0.505519
64489	-9.220639	-2.837534	2.073627	-0.233134	0.004907	0.052267	0.596303	0.257169	0.567986	-0.505647
64490	-9.248015	-2.847303	2.129978	-0.206972	-0.030826	0.093166	0.596352	0.256521	0.568068	-0.505825
64491	-9.196075	-2.765127	2.073310	-0.156007	0.041549	0.010054	0.596375	0.255736	0.568230	-0.506014
64492	-9.124935	-2.743895	2.026479	-0.156135	0.078536	-0.072593	0.596341	0.254836	0.568447	-0.506265
64493	-9.160774	-2.792727	2.004221	-0.188541	0.103190	-0.030572	0.596248	0.253770	0.568774	-0.506543
64494	-9.141679	-2.837168	1.984570	-0.221815	0.110206	-0.040433	0.596036	0.252717	0.569145	-0.506901
64495	-9.103958	-2.800320	1.998340	-0.171005	0.110542	-0.082543	0.595679	0.251896	0.569411	-0.507431
64496	-9.109709	-2.846249	2.054314	-0.170513	0.057176	-0.051757	0.595171	0.251355	0.569575	-0.508111
64497	-9.144466	-2.851911	2.040363	-0.160675	0.087441	-0.020636	0.594520	0.251165	0.569601	-0.508937
64498	-9.195911	-2.730993	2.062585	-0.023932	0.134349	-0.001534	0.593782	0.251427	0.569374	-0.509922
64499	-9.267104	-2.545992	2.170103	0.205608	0.132281	0.036722	0.593059	0.251796	0.569173	-0.510805
64500	-9.279596	-2.538220	2.173978	0.223380	0.138604	0.046853	0.592479	0.251976	0.569112	-0.511457
64501	-9.239172	-2.589592	2.098550	0.147741	0.176107	0.006648	0.591988	0.251967	0.569259	-0.511867
64502	-9.195082	-2.672822	2.088485	0.071590	0.141751	-0.013195	0.591549	0.251860	0.569559	-0.512092
64503	-9.146627	-2.711525	2.147730	0.062539	0.058811	-0.034214	0.591014	0.252002	0.569740	-0.512438
64504	-9.220245	-2.520986	2.344752	0.333683	-0.027683	0.023676	0.590470	0.252325	0.569700	-0.512951
64505	-9.245257	-2.592383	2.338391	0.275551	-0.038622	0.065870	0.589972	0.252678	0.569541	-0.513527
64506	-9.279463	-2.525241	2.236007	0.302816	0.087278	0.055731	0.589512	0.252972	0.569370	-0.514099
64507	-9.260277	-2.695719	2.155566	0.117607	0.095911	0.068763	0.589045	0.253232	0.569270	-0.514618
64508	-9.242062	-2.679836	2.203051	0.151392	0.054283	0.057713	0.588501	0.253669	0.569103	-0.515209
64509	-9.219220	-2.575053	2.330297	0.294447	-0.030453	0.034524	0.587910	0.254287	0.568833	-0.515877
64510	-9.166697	-2.508950	2.396734	0.369732	-0.084375	-0.018624	0.587362	0.255061	0.568424	-0.516569
64511	-9.152986	-2.442804	2.395799	0.420784	-0.066352	-0.050371	0.586947	0.255953	0.567862	-0.517218
64512	-9.124560	-2.412841	2.321348	0.404452	0.000404	-0.101639	0.586742	0.256704	0.567349	-0.517641
64513	-9.085574	-2.469100	2.276951	0.320044	0.008085	-0.131463	0.586713	0.257295	0.566964	-0.517802
64514	-9.092680	-2.479728	2.279723	0.303732	0.002807	-0.120899	0.586821	0.257730	0.566656	-0.517800
64515	-9.152548	-2.487903	2.296333	0.305161	0.003078	-0.058775	0.587046	0.257957	0.566429	-0.517681
64516	-9.187024	-2.464837	2.228944	0.298334	0.081421	-0.047987	0.587382	0.257950	0.566314	-0.517429
64517	-9.218356	-2.548206	2.228547	0.223280	0.064758	0.004838	0.587779	0.257756	0.566298	-0.517092
64518	-9.253173	-2.602560	2.159453	0.148822	0.119957	0.037248	0.588127	0.257602	0.566280	-0.516793
64519	-9.225495	-2.658325	2.161509	0.089596	0.091413	0.027647	0.588443	0.257578	0.566178	-0.516557
64520	-9.243464	-2.659632	2.132677	0.073720	0.122047	0.038365	0.588670	0.257749	0.566005	-0.516402
64521	-9.234697	-2.667960	2.069830	0.032247	0.171074	0.018464	0.588859	0.258026	0.565816	-0.516256
64522	-9.136837	-2.597653	2.098446	0.081449	0.135507	-0.086020	0.589025	0.258429	0.565607	-0.516094
64523	-9.083244	-2.557332	2.137018	0.114429	0.093952	-0.138486	0.589206	0.258865	0.565397	-0.515898
64524	-9.056657	-2.533028	2.137881	0.122816	0.088514	-0.169718	0.589411	0.259237	0.565255	-0.515633
64525	-9.054656	-2.566802	2.151892	0.089231	0.059552	-0.158963	0.589689	0.259463	0.565200	-0.515261
64526	-9.072886	-2.642860	2.082021	-0.010961	0.097239	-0.136572	0.590034	0.259526	0.565271	-0.514757
64527	-9.098551	-2.698640	1.961018	-0.110573	0.188800	-0.124344	0.590368	0.259531	0.565413	-0.514215
64528	-9.153658	-2.740218	2.003911	-0.126442	0.147448	-0.051736	0.590627	0.259612	0.565575	-0.513699
64529	-9.207404	-2.706690	2.047664	-0.074654	0.129172	-0.000801	0.590792	0.259852	0.565670	-0.513283
64530	-9.254393	-2.610068	2.099928	0.036173	0.122106	0.028538	0.590918	0.260101	0.565777	-0.512894
64531	-9.228868	-2.624947	2.007391	-0.022317	0.183394	-0.011778	0.591056	0.260250	0.565998	-0.512416
64532	-9.173060	-2.679786	1.947620	-0.107080	0.191257	-0.062228	0.591147	0.260375	0.566342	-0.511865
64533	-9.132287	-2.812334	2.009320	-0.209636	0.067602	-0.050684	0.591139	0.260619	0.566702	-0.511353
64534	-9.136109	-2.858779	2.031681	-0.243295	0.020709	-0.029580	0.590982	0.261105	0.566949	-0.511011
64535	-9.171478	-2.788177	2.056629	-0.166346	0.020094	-0.010057	0.590670	0.261845	0.567106	-0.510821
64536	-9.205557	-2.673035	2.091385	-0.047188	0.024872	-0.001550	0.590345	0.262723	0.567148	-0.510698
64537	-9.196269	-2.590521	2.131658	0.037230	0.000318	-0.023677	0.590060	0.263469	0.567291	-0.510484
64538	-9.233938	-2.649972	2.091038	-0.029041	0.013643	0.018861	0.589871	0.263994	0.567592	-0.510097
64539	-9.238016	-2.664459	2.103679	-0.037225	-0.015642	0.029269	0.589747	0.264344	0.567998	-0.509607
64540	-9.273946	-2.715943	2.079120	-0.086746	-0.014496	0.071513	0.589626	0.264601	0.568452	-0.509107
64541	-9.308579	-2.701654	2.135257	-0.043961	-0.062550	0.112132	0.589456	0.264851	0.568860	-0.508718
64542	-9.360865	-2.738749	2.151287	-0.059672	-0.085864	0.174486	0.589222	0.265093	0.569251	-0.508425
64543	-9.296242	-2.668872	2.179032	0.006906	-0.116025	0.100821	0.588934	0.265359	0.569532	-0.508306
64544	-9.263163	-2.635479	2.170820	0.032155	-0.115752	0.058987	0.588612	0.265576	0.569854	-0.508203
64545	-9.285936	-2.617183	2.236703	0.083125	-0.169886	0.089096	0.588268	0.265825	0.570120	-0.508174
64546	-9.287951	-2.597392	2.203333	0.092420	-0.139546	0.078680	0.587973	0.265976	0.570361	-0.508165
64547	-9.277829	-2.579774	2.220498	0.117889	-0.157299	0.067865	0.587729	0.266067	0.570595	-0.508138
64548	-9.318976	-2.602938	2.205583	0.102393	-0.144634	0.109601	0.587525	0.266107	0.570834	-0.508085
64549	-9.311964	-2.583138	2.260189	0.144468	-0.192567	0.108793	0.587339	0.266184	0.570969	-0.508107
64550	-9.296539	-2.468171	2.319185	0.271036	-0.211855	0.075577	0.587187	0.266269	0.570913	-0.508302
64551	-9.285464	-2.475866	2.213320	0.221738	-0.120725	0.045547	0.587055	0.266243	0.570813	-0.508580
64552	-9.271124	-2.504240	2.194411	0.188370	-0.113614	0.035764	0.586942	0.266166	0.570717	-0.508858
64553	-9.231925	-2.486896	2.145590	0.180242	-0.070928	-0.015794	0.586875	0.266041	0.570622	-0.509107
64554	-9.248017	-2.472446	2.188468	0.214545	-0.094861	0.004297	0.586872	0.265918	0.570497	-0.509315
64555	-9.298513	-2.405647	2.190236	0.283900	-0.053592	0.034299	0.586955	0.265813	0.570275	-0.509524
64556	-9.331757	-2.407170	2.186975	0.285228	-0.035146	0.065391	0.587173	0.265592	0.570090	-0.509595
64557	-9.331481	-2.505446	2.120421	0.168030	-0.002753	0.077800	0.587491	0.265284	0.569972	-0.509521
64558	-9.293051	-2.571449	2.019080	0.058902	0.059528	0.038344	0.587850	0.265011	0.569849	-0.509386
64559	-9.258644	-2.598985	2.041291	0.033093	0.024711	0.017997	0.588156	0.264867	0.569671	-0.509307
64560	-9.308553	-2.645524	2.056994	0.000638	0.013796	0.080693	0.588359	0.264917	0.569380	-0.509371
64561	-9.263129	-2.490482	2.101039	0.143731	0.018103	0.005735	0.588505	0.265111	0.568953	-0.509579
64562	-9.201059	-2.472157	2.058368	0.126576	0.049001	-0.066432	0.588648	0.265189	0.568625	-0.509739
64563	-9.186334	-2.539749	1.997100	0.034396	0.081075	-0.075146	0.588771	0.265198	0.568389	-0.509855
64564	-9.170904	-2.540940	2.015166	0.034407	0.063741	-0.085534	0.588884	0.265224	0.568177	-0.509948
64565	-9.203035	-2.572932	1.982705	-0.006319	0.094897	-0.053696	0.588999	0.265353	0.567886	-0.510073
64566	-9.238908	-2.545449	2.049045	0.045012	0.058667	-0.013205	0.589091	0.265568	0.567557	-0.510220
64567	-9.287589	-2.547482	2.073903	0.054766	0.053045	0.038416	0.589219	0.265759	0.567244	-0.510321
64568	-9.325388	-2.436648	2.038403	0.141278	0.135861	0.037022	0.589431	0.265796	0.567029	-0.510295
64569	-9.287834	-2.542542	1.985898	0.014601	0.138685	0.018525	0.589717	0.265589	0.566972	-0.510136
64570	-9.287861	-2.649685	1.959254	-0.094650	0.129216	0.041155	0.589944	0.265353	0.566951	-0.510020
64571	-9.257562	-2.635593	1.964107	-0.086340	0.123710	0.009928	0.590043	0.265287	0.566813	-0.510093
64572	-9.226444	-2.662499	2.019547	-0.095640	0.058681	-0.000341	0.589973	0.265448	0.566616	-0.510308
64573	-9.196757	-2.590755	2.085994	-0.011887	0.015923	-0.032947	0.589767	0.265846	0.566356	-0.510629
64574	-9.155969	-2.501413	2.079541	0.055581	0.039255	-0.096274	0.589604	0.266346	0.566058	-0.510886
64575	-9.145076	-2.444701	2.095900	0.106445	0.038912	-0.117899	0.589518	0.266765	0.565846	-0.511003
64576	-9.164504	-2.510564	2.080240	0.039760	0.034683	-0.085628	0.589502	0.267003	0.565766	-0.510985
64577	-9.198323	-2.465106	2.080599	0.083350	0.058361	-0.065666	0.589562	0.267131	0.565655	-0.510972
64578	-9.184719	-2.550889	2.136226	0.023507	-0.023725	-0.043939	0.589684	0.266992	0.565686	-0.510869
64579	-9.194175	-2.656585	2.118830	-0.077215	-0.039250	-0.011043	0.589760	0.266843	0.565693	-0.510851
64580	-9.208903	-2.653656	2.106201	-0.076186	-0.020748	-0.000673	0.589757	0.266749	0.565685	-0.510913
64581	-9.271093	-2.626303	2.105640	-0.040355	0.009052	0.050510	0.589698	0.266731	0.565657	-0.511021
64582	-9.300965	-2.563668	2.141336	0.036632	0.008182	0.069836	0.589597	0.266727	0.565644	-0.511155
64583	-9.312055	-2.584655	2.117630	0.012320	0.027161	0.080658	0.589474	0.266687	0.565637	-0.511324
64584	-9.296674	-2.570053	2.105826	0.021147	0.039542	0.059790	0.589319	0.266673	0.565641	-0.511507
64585	-9.292871	-2.647490	2.128710	-0.038040	-0.006601	0.081582	0.589110	0.266755	0.565602	-0.511748
64586	-9.269332	-2.610228	2.176422	0.012140	-0.042864	0.059933	0.588835	0.266980	0.565468	-0.512094
64587	-9.208607	-2.551926	2.172712	0.053708	-0.037101	-0.013341	0.588539	0.267316	0.565238	-0.512513
64588	-9.214911	-2.473819	2.186259	0.130471	-0.020071	-0.025111	0.588242	0.267621	0.565020	-0.512936
64589	-9.202070	-2.423735	2.203136	0.181330	-0.020497	-0.046773	0.588027	0.267692	0.564916	-0.513260
64590	-9.262346	-2.444227	2.158032	0.158501	0.034354	0.005465	0.587925	0.267503	0.564930	-0.513459
64591	-9.231450	-2.471063	2.073406	0.100242	0.095874	-0.034876	0.587885	0.267277	0.564953	-0.513598
64592	-9.245096	-2.487324	2.182768	0.133462	0.000095	0.005930	0.587850	0.267091	0.564964	-0.513723
64593	-9.261813	-2.504484	2.231957	0.142178	-0.041369	0.036846	0.587814	0.266976	0.564921	-0.513870
64594	-9.241596	-2.428470	2.170437	0.185529	0.036075	-0.015768	0.587807	0.266845	0.564852	-0.514022
64595	-9.232257	-2.449340	2.048347	0.119854	0.139628	-0.045615	0.587802	0.266635	0.564849	-0.514140
64596	-9.202992	-2.538540	1.979941	0.010552	0.166316	-0.064270	0.587730	0.266483	0.564855	-0.514295
64597	-9.182862	-2.531216	2.072234	0.051638	0.082314	-0.065035	0.587553	0.266597	0.564747	-0.514556
64598	-9.172023	-2.486316	2.167390	0.126767	0.009571	-0.066448	0.587319	0.266964	0.564506	-0.514897
64599	-9.206191	-2.364192	2.205816	0.254637	0.025462	-0.058535	0.587160	0.267417	0.564187	-0.515192
64600	-9.253649	-2.308085	2.115389	0.274572	0.139253	-0.048602	0.587168	0.267613	0.564013	-0.515273
64601	-9.294243	-2.440188	1.983889	0.108517	0.226999	-0.004019	0.587307	0.267530	0.564021	-0.515149
64602	-9.248727	-2.506625	1.963051	0.031968	0.211170	-0.033625	0.587468	0.267320	0.564082	-0.515008
64603	-9.277195	-2.561622	2.013139	0.006989	0.158458	0.018682	0.587564	0.267091	0.564146	-0.514948
64604	-9.308846	-2.542297	2.040037	0.041784	0.152331	0.049092	0.587556	0.266971	0.564128	-0.515037
64605	-9.298850	-2.441876	1.963307	0.102598	0.253232	-0.003952	0.587529	0.266949	0.564040	-0.515177
64606	-9.278868	-2.441572	1.863837	0.061802	0.338326	-0.044664	0.587438	0.266986	0.563987	-0.515319
64607	-9.248588	-2.448734	1.890321	0.061152	0.302955	-0.065356	0.587321	0.267105	0.564000	-0.515376
64608	-9.237964	-2.480769	1.944725	0.052009	0.237882	-0.054775	0.587104	0.267352	0.564056	-0.515435
64609	-9.235962	-2.445033	1.991966	0.102469	0.201424	-0.055739	0.586863	0.267748	0.564104	-0.515452
64610	-9.241281	-2.386260	1.987939	0.153877	0.218751	-0.067131	0.586650	0.268222	0.564144	-0.515403
64611	-9.263033	-2.353734	1.977858	0.180332	0.236628	-0.057317	0.586534	0.268702	0.564204	-0.515220
64612	-9.235394	-2.321920	1.989592	0.205191	0.218584	-0.088882	0.586549	0.269072	0.564376	-0.514821
64613	-9.254367	-2.382807	2.026941	0.162934	0.160227	-0.046555	0.586659	0.269394	0.564606	-0.514274
64614	-9.245683	-2.493065	2.081433	0.077279	0.060943	-0.013672	0.586822	0.269690	0.564898	-0.513612
64615	-9.252661	-2.525782	2.062389	0.035567	0.056382	-0.002473	0.586916	0.270174	0.565095	-0.513033
64616	-9.243892	-2.549098	2.074707	0.009896	0.021553	-0.001915	0.586942	0.270856	0.565171	-0.512560
64617	-9.255065	-2.576213	2.092014	-0.015362	-0.013249	0.019362	0.586871	0.271678	0.565166	-0.512213
64618	-9.326758	-2.510959	2.091585	0.046003	0.015877	0.069906	0.586757	0.272556	0.565102	-0.511947
64619	-9.307915	-2.468244	2.173813	0.103720	-0.062703	0.058496	0.586658	0.273368	0.565067	-0.511665
64620	-9.321027	-2.539210	2.183051	0.036263	-0.102508	0.090999	0.586606	0.274047	0.565070	-0.511358
64621	-9.309574	-2.500020	2.181564	0.061692	-0.102619	0.069779	0.586599	0.274639	0.565058	-0.511063
64622	-9.315993	-2.553514	2.192108	0.011063	-0.136817	0.091587	0.586635	0.275071	0.565074	-0.510770
64623	-9.310175	-2.568699	2.202388	-0.005902	-0.159844	0.091983	0.586703	0.275426	0.565044	-0.510535
64624	-9.339404	-2.597560	2.187564	-0.038460	-0.152534	0.123734	0.586740	0.275707	0.564987	-0.510403
64625	-9.388379	-2.546451	2.172199	0.005897	-0.111087	0.153864	0.586770	0.275919	0.564897	-0.510354
64626	-9.355663	-2.511738	2.113426	0.006581	-0.056845	0.101976	0.586809	0.276046	0.564762	-0.510390
64627	-9.349118	-2.498534	2.157028	0.031613	-0.092786	0.101537	0.586869	0.276062	0.564665	-0.510418
64628	-9.285642	-2.514730	2.178909	0.013170	-0.133812	0.050202	0.586928	0.276063	0.564526	-0.510504
64629	-9.243496	-2.497266	2.094570	-0.011298	-0.061064	-0.011569	0.587003	0.276032	0.564374	-0.510604
64630	-9.267216	-2.489169	2.095132	-0.001636	-0.048740	0.008944	0.587043	0.276035	0.564202	-0.510746
64631	-9.292841	-2.426771	2.097695	0.058959	-0.019695	0.018008	0.587117	0.275954	0.564054	-0.510869
64632	-9.320784	-2.428463	2.117077	0.068425	-0.025288	0.048912	0.587248	0.275769	0.563947	-0.510935
64633	-9.329905	-2.396416	2.063534	0.078734	0.040780	0.038214	0.587443	0.275472	0.563898	-0.510926
64634	-9.395970	-2.474984	2.072663	0.021522	0.030935	0.122316	0.587651	0.275130	0.563887	-0.510884
64635	-9.337193	-2.513811	2.096984	-0.013782	-0.015633	0.081722	0.587806	0.274907	0.563791	-0.510931
64636	-9.283762	-2.474584	2.133693	0.027190	-0.046117	0.029140	0.587854	0.274779	0.563625	-0.511127
64637	-9.280882	-2.444538	2.130620	0.053269	-0.028284	0.018205	0.587812	0.274685	0.563410	-0.511463
64638	-9.277601	-2.394874	2.102838	0.088312	0.019208	-0.003352	0.587791	0.274542	0.563169	-0.511830
64639	-9.255200	-2.316147	2.141624	0.172550	0.011623	-0.036190	0.587801	0.274295	0.562956	-0.512184
64640	-9.220341	-2.341687	2.123262	0.138730	0.018876	-0.066569	0.587930	0.273893	0.562809	-0.512413
64641	-9.243066	-2.350202	2.110561	0.131808	0.043568	-0.045758	0.588113	0.273442	0.562679	-0.512586
64642	-9.203539	-2.387616	2.099602	0.089235	0.039077	-0.075918	0.588350	0.272925	0.562593	-0.512684
64643	-9.218639	-2.410009	2.058257	0.057177	0.082313	-0.064978	0.588549	0.272511	0.562467	-0.512814
64644	-9.178471	-2.414238	2.038609	0.040184	0.095114	-0.106085	0.588697	0.272209	0.562285	-0.513005
64645	-9.197351	-2.432566	2.032344	0.024521	0.108075	-0.085058	0.588759	0.272004	0.562097	-0.513248
64646	-9.209404	-2.419450	2.041753	0.042296	0.114183	-0.075091	0.588784	0.271874	0.561903	-0.513500
64647	-9.235634	-2.390655	2.054052	0.077360	0.125870	-0.055154	0.588791	0.271808	0.561723	-0.513725
64648	-9.243531	-2.408356	2.094602	0.077408	0.090578	-0.034333	0.588818	0.271760	0.561570	-0.513886
64649	-9.250139	-2.419149	2.055758	0.053458	0.127610	-0.033917	0.588837	0.271701	0.561462	-0.514013
64650	-9.244745	-2.431527	2.065553	0.045205	0.116392	-0.033702	0.588874	0.271584	0.561402	-0.514099
64651	-9.227658	-2.405119	2.072980	0.070620	0.116201	-0.054971	0.588922	0.271369	0.561416	-0.514142
64652	-9.221044	-2.485443	2.062440	-0.005181	0.100757	-0.042909	0.588939	0.271140	0.561465	-0.514190
64653	-9.205094	-2.491447	2.076872	-0.005367	0.083312	-0.053205	0.588914	0.271037	0.561477	-0.514259
64654	-9.189633	-2.495960	2.090905	-0.005553	0.065866	-0.063499	0.588808	0.271123	0.561409	-0.514409
64655	-9.228253	-2.448680	2.162223	0.070996	0.028667	-0.023610	0.588667	0.271281	0.561354	-0.514549
64656	-9.250515	-2.398002	2.168045	0.122904	0.045826	-0.014439	0.588628	0.271344	0.561342	-0.514573
64657	-9.309079	-2.437948	2.110490	0.075236	0.101627	0.038237	0.588607	0.271233	0.561465	-0.514520
64658	-9.296656	-2.445999	2.062093	0.050870	0.138603	0.017936	0.588602	0.270994	0.561646	-0.514455
64659	-9.300142	-2.479119	2.104157	0.042138	0.091578	0.039012	0.588564	0.270702	0.561864	-0.514414
64660	-9.285867	-2.473705	2.169303	0.074881	0.031420	0.038496	0.588462	0.270505	0.561997	-0.514488
64661	-9.275642	-2.403835	2.193778	0.150985	0.029836	0.016093	0.588310	0.270396	0.562100	-0.514607
64662	-9.267120	-2.441776	2.189257	0.117355	0.019284	0.016884	0.588162	0.270367	0.562189	-0.514694
64663	-9.248173	-2.413297	2.252887	0.166906	-0.035403	0.005617	0.588036	0.270437	0.562248	-0.514738
64664	-9.241560	-2.382264	2.267573	0.200811	-0.041819	-0.005475	0.587950	0.270501	0.562261	-0.514788
64665	-9.225743	-2.334330	2.246702	0.235207	-0.012454	-0.037432	0.587950	0.270386	0.562322	-0.514782
64666	-9.241238	-2.364993	2.241151	0.210798	-0.011190	-0.016164	0.588002	0.270046	0.562472	-0.514737
64667	-9.276873	-2.409960	2.319906	0.210735	-0.082180	0.046272	0.588047	0.269601	0.562594	-0.514786
64668	-9.348570	-2.329959	2.334237	0.306484	-0.042153	0.095765	0.588108	0.269115	0.562674	-0.514883
64669	-9.433551	-2.332964	2.342690	0.326393	-0.017874	0.178106	0.588202	0.268604	0.562686	-0.515030
64670	-9.501891	-2.231105	2.395264	0.455296	-0.002703	0.226922	0.588345	0.268045	0.562667	-0.515178
64671	-9.577450	-2.189145	2.537128	0.565620	-0.082561	0.317968	0.588543	0.267323	0.562641	-0.515354
64672	-9.597950	-2.171074	2.790017	0.689066	-0.282535	0.388477	0.588697	0.266533	0.562493	-0.515750
64673	-9.607627	-2.040530	3.023450	0.906139	-0.425485	0.415182	0.588945	0.265515	0.562136	-0.516381
64674	-9.620791	-1.964311	3.002475	0.976041	-0.349197	0.402905	0.589394	0.264240	0.561597	-0.517109
64675	-9.563055	-1.763786	3.087913	1.186125	-0.342984	0.315170	0.590142	0.262699	0.560915	-0.517780
64676	-9.499833	-1.647397	3.280378	1.359975	-0.455246	0.270203	0.591219	0.260687	0.560299	-0.518235
64677	-9.474290	-1.678508	3.597494	1.456066	-0.708415	0.331244	0.592583	0.258373	0.559636	-0.518552
64678	-9.518161	-1.718752	3.921895	1.554241	-0.943322	0.464715	0.594156	0.256329	0.558534	-0.518955
64679	-9.554098	-1.782994	4.191008	1.594112	-1.134737	0.589007	0.595992	0.254874	0.556646	-0.519594
64680	-9.540678	-1.715602	4.383007	1.693787	-1.226596	0.618257	0.598052	0.254219	0.553794	-0.520594
64681	-9.491020	-1.584458	4.543407	1.810295	-1.277318	0.595146	0.600486	0.254151	0.550009	-0.521837
64682	-9.518126	-1.344583	4.591360	1.974258	-1.161774	0.590904	0.603398	0.254277	0.545608	-0.523035
64683	-9.612433	-1.322894	4.620593	1.928683	-1.069524	0.705569	0.606896	0.254298	0.540817	-0.523953
64684	-9.655444	-1.086393	4.729994	2.092519	-0.989648	0.742930	0.610961	0.254092	0.535847	-0.524436
64685	-9.782090	-1.111308	4.951978	2.061687	-1.052747	0.961615	0.615651	0.253648	0.530590	-0.524509
64686	-9.904254	-1.261917	4.988765	1.830856	-0.984526	1.153203	0.621000	0.252888	0.525005	-0.524191
64687	-9.973141	-1.266231	5.053530	1.725600	-0.902341	1.269293	0.626890	0.251942	0.518942	-0.523674
64688	-10.022778	-1.142437	5.302671	1.795130	-0.932788	1.402642	0.633251	0.250710	0.512494	-0.522960
64689	-9.959865	-1.133534	5.467738	1.710081	-0.959292	1.435937	0.640034	0.249081	0.505645	-0.522148
64690	-9.867822	-1.007047	5.584819	1.710508	-0.904896	1.404683	0.647202	0.246885	0.498513	-0.521211
64691	-9.955409	-0.980186	5.550778	1.566896	-0.666014	1.500079	0.654697	0.244145	0.491093	-0.520186
64692	-10.200039	-0.975316	5.783574	1.500792	-0.571453	1.843100	0.662418	0.241078	0.483221	-0.519213
64693	-10.520728	-0.880141	6.346400	1.628365	-0.654877	2.379514	0.670424	0.237654	0.474602	-0.518464
64694	-10.536572	-0.843258	6.303973	1.450413	-0.373397	2.402847	0.678772	0.233765	0.465206	-0.517886
64695	-10.131511	-0.528592	5.993775	1.433155	0.031490	1.882999	0.687590	0.229004	0.455556	-0.516959
64696	-9.877156	-0.527028	5.797127	1.180167	0.307168	1.586766	0.696762	0.223130	0.446192	-0.515411
64697	-9.835897	-0.424990	6.300799	1.290842	0.192301	1.802547	0.706279	0.216272	0.436979	-0.513269
64698	-9.981250	-0.344125	6.846582	1.383198	0.169006	2.215094	0.716304	0.208500	0.427551	-0.510525
64699	-9.872761	-0.477365	6.721185	1.032491	0.448728	2.086700	0.726883	0.199946	0.417719	-0.507124
64700	-9.450226	-0.601357	6.168034	0.555524	0.848518	1.442284	0.737762	0.191033	0.407564	-0.503096
64701	-9.067697	-0.755185	5.902860	0.168899	1.019435	0.983617	0.748720	0.181883	0.397295	-0.498491
64702	-8.952663	-0.848169	6.189627	0.024739	0.983133	1.059510	0.759558	0.172444	0.387005	-0.493520
64703	-8.953598	-1.154835	6.476563	-0.329150	0.924194	1.254142	0.770162	0.162965	0.376505	-0.488403
64704	-9.029055	-1.262010	6.815907	-0.508974	0.974084	1.516720	0.780391	0.153892	0.365566	-0.483393
64705	-8.902667	-1.345668	6.873231	-0.745399	1.077214	1.438265	0.790222	0.145318	0.354177	-0.478530
64706	-8.726861	-1.382733	6.786650	-0.991554	1.239455	1.214547	0.799586	0.137356	0.342421	-0.473859
64707	-8.614159	-1.265287	6.947653	-1.022586	1.372448	1.193491	0.808480	0.129755	0.330489	-0.469363
64708	-8.431526	-1.217846	6.939549	-1.158589	1.507523	1.008920	0.816924	0.122431	0.318433	-0.465023
64709	-8.109408	-1.268811	6.888860	-1.335124	1.505420	0.712121	0.824967	0.115188	0.306308	-0.460799
64710	-7.468528	-1.359695	6.809532	-1.413765	1.259360	0.207561	0.832572	0.108159	0.294102	-0.456759
64711	-6.873435	-1.219654	6.744175	-1.284087	1.150476	-0.260903	0.839780	0.100936	0.281978	-0.452846
64712	-6.706636	-1.338267	6.701130	-1.516188	1.174859	-0.432390	0.846494	0.093734	0.270077	-0.449134
64713	-6.718564	-1.470947	7.108224	-1.664370	1.128170	-0.128644	0.852694	0.086948	0.258255	-0.445709
64714	-6.770597	-1.596621	7.500321	-1.844843	1.124472	0.185846	0.858388	0.081350	0.246013	-0.442752
64715	-6.354266	-1.300340	7.714521	-1.543891	1.096241	0.086276	0.863667	0.077159	0.233156	-0.440187
64716	-5.895138	-0.991611	7.636936	-1.313814	1.134155	-0.271188	0.868588	0.073777	0.220155	-0.437772
64717	-5.523255	-0.288952	7.963265	-0.680826	1.335172	-0.234010	0.873320	0.070492	0.207222	-0.435204
64718	-5.176752	0.031534	8.018958	-0.436286	1.421692	-0.384743	0.877978	0.065799	0.194950	-0.432226
64719	-5.039263	0.024964	8.019631	-0.555004	1.490542	-0.475983	0.882609	0.059793	0.183329	-0.428738
64720	-4.840109	-0.023946	8.154131	-0.615559	1.462444	-0.464208	0.887200	0.052687	0.172283	-0.424757
64721	-4.574041	-0.057309	8.328761	-0.600834	1.396049	-0.433021	0.891733	0.045000	0.161549	-0.420344
64722	-4.323899	-0.293169	8.251456	-0.804044	1.269540	-0.614566	0.896177	0.037260	0.150916	-0.415575
64723	-3.914156	-0.444404	8.109340	-0.850794	1.077261	-0.902531	0.900454	0.030127	0.140329	-0.410589
64724	-3.458781	-0.411200	8.090728	-0.690612	0.932654	-1.081045	0.904546	0.023655	0.129973	-0.405395
64725	-3.241580	-0.450272	8.057207	-0.728385	0.902795	-1.194087	0.908468	0.017673	0.119975	-0.399975
64726	-3.081724	-0.568727	7.979666	-0.860327	0.852041	-1.325838	0.912216	0.012096	0.110530	-0.394334
64727	-2.949275	-0.789090	8.014683	-1.051757	0.720382	-1.331618	0.915779	0.007232	0.101550	-0.388566
64728	-2.787861	-0.874729	7.983284	-1.132559	0.650305	-1.412535	0.919134	0.003264	0.092934	-0.382813
64729	-2.489214	-0.800980	8.060956	-0.983539	0.572902	-1.415104	0.922343	0.000047	0.084566	-0.377004
64730	-2.190221	-0.937150	7.753571	-1.032303	0.362274	-1.775592	0.925375	-0.002692	0.076658	-0.371212
64731	-1.980979	-1.024801	7.482025	-1.085806	0.229971	-2.084667	0.928207	-0.004964	0.069407	-0.365499
64732	-1.906865	-1.082135	7.327656	-1.184252	0.189865	-2.258721	0.930843	-0.006536	0.062814	-0.359920
64733	-1.794549	-1.038396	6.950253	-1.200947	0.193420	-2.662552	0.933312	-0.007829	0.056907	-0.354442
64734	-1.620974	-0.948934	6.441344	-1.135878	0.187384	-3.202597	0.935634	-0.009570	0.052018	-0.348986
64735	-1.130248	-0.943432	6.448234	-0.808691	-0.100001	-3.248918	0.937804	-0.011928	0.048217	-0.343594
64736	-0.961402	-1.007747	6.460681	-0.745745	-0.222382	-3.249570	0.939814	-0.015174	0.045662	-0.338280
64737	-0.982434	-1.228841	6.875195	-0.869228	-0.341740	-2.821904	0.941641	-0.018773	0.044123	-0.333187
64738	-0.950166	-1.382624	7.251306	-0.899784	-0.440724	-2.437599	0.943330	-0.022187	0.043183	-0.328285
64739	-0.814992	-1.511969	7.133778	-0.873968	-0.592437	-2.551410	0.944920	-0.025182	0.042708	-0.323524
64740	-0.815065	-1.591522	6.989621	-0.920801	-0.633956	-2.685118	0.946419	-0.027325	0.042729	-0.318933
64741	-0.894993	-1.574087	7.367523	-0.919756	-0.554627	-2.302323	0.947845	-0.028412	0.043059	-0.314530
64742	-0.991109	-1.429999	7.743378	-0.856150	-0.375916	-1.931523	0.949160	-0.028881	0.043842	-0.310385
64743	-1.234512	-1.412162	8.175865	-0.978142	-0.220166	-1.484561	0.950359	-0.028787	0.044952	-0.306542
64744	-1.429111	-1.168867	8.656398	-0.925188	0.079020	-1.010442	0.951455	-0.028131	0.046243	-0.302991
64745	-1.484910	-1.089991	8.738524	-0.896175	0.149569	-0.928475	0.952404	-0.027507	0.047767	-0.299813
64746	-1.364885	-0.936434	9.179945	-0.642121	0.183770	-0.508657	0.953233	-0.026345	0.049276	-0.297025
64747	-1.468371	-0.829369	9.770269	-0.585211	0.297618	0.080282	0.953978	-0.024344	0.050596	-0.294574
64748	-1.533072	-0.739207	10.028898	-0.553538	0.350812	0.338453	0.954705	-0.021232	0.051548	-0.292285
64749	-1.615187	-0.314734	10.375458	-0.358626	0.667628	0.665046	0.955466	-0.016795	0.051887	-0.290019
64750	-1.633475	0.091322	10.355799	-0.181202	0.917442	0.629711	0.956283	-0.011902	0.051763	-0.287578
64751	-1.856137	0.503223	10.281866	-0.186021	1.287444	0.566247	0.957167	-0.007302	0.051459	-0.284833
64752	-1.797008	0.982871	10.290420	0.086632	1.575688	0.560220	0.958152	-0.003912	0.051144	-0.281628
64753	-1.794785	0.973697	10.158227	0.039664	1.516035	0.437132	0.959202	-0.002055	0.051059	-0.278064
64754	-1.588812	0.910744	10.586673	0.200072	1.307409	0.849488	0.960329	-0.000832	0.051021	-0.274163
64755	-1.363547	0.613384	10.536944	0.209399	0.910734	0.788696	0.961549	0.000362	0.050880	-0.269879
64756	-1.537702	0.650537	10.051711	0.010016	1.016855	0.325870	0.962874	0.002077	0.050554	-0.265167
64757	-1.420284	0.906879	10.018775	0.208250	1.139859	0.280509	0.964284	0.004127	0.050127	-0.260052
64758	-1.387140	0.937146	9.955353	0.214430	1.114329	0.218443	0.965741	0.005846	0.049769	-0.254624
64759	-1.275740	0.872787	10.065968	0.261382	0.968192	0.321766	0.967242	0.007201	0.049481	-0.248884
64760	-1.193015	0.865489	10.018937	0.299961	0.899538	0.269585	0.968782	0.008269	0.049168	-0.242851
64761	-1.131968	0.755300	9.825556	0.257152	0.761615	0.074027	0.970373	0.009296	0.048612	-0.236486
64762	-1.058722	0.615439	9.789900	0.223995	0.582006	0.033771	0.972001	0.010758	0.047831	-0.229804
64763	-0.912919	0.616735	9.582331	0.301346	0.499341	-0.184888	0.973642	0.012480	0.046827	-0.222873
64764	-0.904931	0.646918	9.320680	0.262846	0.504770	-0.443141	0.975235	0.014366	0.045857	-0.215890
64765	-0.735074	0.746922	9.434501	0.432978	0.485430	-0.342485	0.976751	0.016387	0.044987	-0.208964
64766	-0.608305	0.793335	9.399597	0.531994	0.444377	-0.385536	0.978180	0.018492	0.044306	-0.202137
64767	-0.546506	0.807209	9.370481	0.563361	0.399950	-0.417014	0.979548	0.020628	0.043806	-0.195297
64768	-0.537561	0.921230	9.250344	0.580960	0.475514	-0.531376	0.980904	0.022630	0.043490	-0.188214
64769	-0.549299	1.140848	9.134256	0.620066	0.663993	-0.635953	0.982295	0.024089	0.043379	-0.180648
64770	-0.686910	0.959878	9.035430	0.401605	0.533360	-0.724980	0.983749	0.024776	0.043445	-0.172445
64771	-0.716426	0.860049	9.473294	0.361711	0.403037	-0.288879	0.985188	0.025924	0.043750	-0.163766
64772	-0.679732	1.003718	9.738700	0.453980	0.482519	-0.021223	0.986601	0.027452	0.044263	-0.154612
64773	-0.589569	1.181445	9.496136	0.564750	0.613990	-0.261561	0.988002	0.028861	0.044923	-0.144920
64774	-0.476196	1.341803	9.391678	0.702589	0.726727	-0.367634	0.989367	0.029460	0.045824	-0.134852
64775	-0.489484	1.410837	9.522367	0.715795	0.790930	-0.233148	0.990692	0.028865	0.046923	-0.124476
64776	-0.601533	1.082004	9.386290	0.516761	0.533848	-0.374314	0.991960	0.027106	0.048073	-0.113881
64777	-0.897555	0.636862	9.623587	0.159833	0.181948	-0.129409	0.993124	0.025155	0.049081	-0.103265
64778	-1.148418	0.536228	10.158063	-0.044668	0.123670	0.423295	0.994163	0.023730	0.049746	-0.092746
64779	-1.547196	0.468057	10.083830	-0.451231	0.138455	0.388966	0.995076	0.023085	0.050076	-0.082357
64780	-2.043115	0.615939	9.793578	-0.945771	0.366124	0.159238	0.995861	0.022719	0.050333	-0.072194
64781	-2.420507	1.036082	9.700255	-1.275341	0.820953	0.123447	0.996542	0.021693	0.050680	-0.062170
64782	-2.781002	1.138592	9.758988	-1.623616	0.959519	0.222819	0.997136	0.019115	0.051267	-0.052205
64783	-2.669513	0.907673	10.092669	-1.509118	0.726465	0.531722	0.997650	0.015190	0.051934	-0.042036
64784	-2.548121	0.152351	10.282614	-1.425880	-0.002298	0.685643	0.998045	0.011126	0.052758	-0.031621
64785	-2.358212	-0.034952	10.197278	-1.239733	-0.166825	0.578752	0.998306	0.008264	0.053630	-0.021003
64786	-2.426431	0.064258	10.165423	-1.286459	-0.058501	0.558865	0.998432	0.006780	0.054586	-0.010373
64787	-2.557675	0.327907	10.521023	-1.354705	0.182454	0.933128	0.998440	0.006239	0.055479	0.000059
64788	-2.696388	0.448063	10.721897	-1.457506	0.263143	1.152558	0.998344	0.006311	0.056255	0.010214
64789	-2.960358	0.660039	10.513282	-1.741561	0.423129	0.981578	0.998157	0.006670	0.056799	0.020320
64790	-3.091924	0.822751	10.256182	-1.910296	0.530613	0.746441	0.997879	0.006666	0.057092	0.030556
64791	-2.878865	1.025866	10.138345	-1.735741	0.707760	0.609044	0.997507	0.005715	0.057133	0.041025
64792	-2.758641	0.789814	10.155555	-1.610135	0.461891	0.606684	0.997023	0.003990	0.057068	0.051689
64793	-2.669003	0.566318	10.335696	-1.489101	0.240002	0.770123	0.996403	0.002004	0.056980	0.062685
64794	-2.538640	0.275733	10.425564	-1.321250	-0.037706	0.839354	0.995638	0.000247	0.056794	0.074027
64795	-2.608192	0.069830	10.223023	-1.384760	-0.269617	0.643288	0.994718	-0.000711	0.056566	0.085652
64796	-2.871741	0.120023	9.989402	-1.677270	-0.306285	0.441200	0.993648	-0.000838	0.056192	0.097492
64797	-3.027333	0.329283	9.704103	-1.905176	-0.189828	0.176145	0.992432	-0.000889	0.055534	0.109514
64798	-3.061343	0.463802	9.349293	-2.018228	-0.125842	-0.173865	0.991087	-0.001512	0.054602	0.121500
64799	-3.069457	0.291567	9.510050	-1.981553	-0.338185	-0.019498	0.989635	-0.002693	0.053449	0.133261
64800	-3.045619	0.066078	9.653154	-1.896059	-0.588517	0.113137	0.988087	-0.003471	0.052265	0.144707
64801	-2.950930	0.194684	9.593177	-1.858647	-0.489308	0.040265	0.986429	-0.003547	0.051070	0.156001
64802	-2.849774	0.365709	9.481522	-1.837720	-0.359339	-0.083993	0.984628	-0.003031	0.049834	0.167379
64803	-2.678857	0.605275	9.395745	-1.778982	-0.147189	-0.187938	0.982644	-0.002361	0.048511	0.179029
64804	-2.747801	0.770460	9.082055	-1.950742	-0.092273	-0.495315	0.980434	-0.002111	0.047076	0.191125
64805	-2.843288	0.748395	9.028785	-2.057655	-0.214202	-0.545370	0.977975	-0.002572	0.045425	0.203701
64806	-3.050468	0.416012	9.094460	-2.125526	-0.661300	-0.472873	0.975269	-0.003210	0.043841	0.216607
64807	-3.220804	0.371573	9.213519	-2.256686	-0.837318	-0.346620	0.972300	-0.003584	0.042376	0.229835
64808	-3.142629	0.306461	9.194637	-2.158550	-0.933253	-0.379731	0.969081	-0.003748	0.041065	0.243272
64809	-3.048375	0.340133	9.133921	-2.090663	-0.932524	-0.453418	0.965611	-0.003984	0.039879	0.256883
64810	-3.043293	0.256983	9.118218	-2.035831	-1.069164	-0.475582	0.961896	-0.004533	0.038872	0.270600
64811	-3.102884	0.086528	9.179781	-1.974530	-1.302203	-0.415401	0.957921	-0.005470	0.038123	0.284437
64812	-3.151861	-0.152742	9.426642	-1.834371	-1.575230	-0.170461	0.953658	-0.006140	0.037795	0.298445
64813	-2.891042	-0.183703	9.578094	-1.546757	-1.500506	-0.040922	0.949116	-0.006256	0.037847	0.312581
64814	-2.597359	0.134825	9.731383	-1.442550	-1.119203	0.093388	0.944300	-0.006062	0.038081	0.326818
64815	-2.463220	0.281719	9.666413	-1.393945	-0.974419	0.020601	0.939221	-0.006372	0.038097	0.341132
64816	-2.518187	0.369042	9.755623	-1.457586	-0.982137	0.115069	0.933891	-0.007364	0.037738	0.355484
64817	-2.554940	0.246020	9.774327	-1.383162	-1.132150	0.133706	0.928270	-0.008943	0.036882	0.369967
64818	-2.171004	-0.051389	9.592158	-0.902894	-1.111515	-0.082594	0.922702	-0.010749	0.035801	0.383697
64819	-1.844237	-0.291813	9.633053	-0.493097	-1.053691	-0.069553	0.916828	-0.012462	0.034767	0.397569
64820	-1.577111	-0.438763	9.742051	-0.190340	-0.950888	0.018230	0.910598	-0.014045	0.033782	0.411671
64821	-1.467154	-0.721445	9.515724	0.090829	-1.055463	-0.215826	0.904008	-0.015754	0.032774	0.425966
64822	-1.444322	-0.963093	9.396386	0.297551	-1.176057	-0.334609	0.897133	-0.017690	0.031771	0.440262
64823	-1.310024	-1.219031	9.313312	0.592678	-1.197951	-0.423679	0.890046	-0.019720	0.030913	0.454393
64824	-0.988976	-1.549975	9.198099	1.060261	-1.093689	-0.557151	0.882814	-0.021577	0.030253	0.468251
64825	-0.665780	-1.807940	9.002129	1.468920	-0.927327	-0.772101	0.875521	-0.022928	0.030231	0.481689
64826	-0.585937	-1.755860	9.060315	1.502012	-0.767761	-0.720396	0.868237	-0.023637	0.031057	0.494613
64827	-0.850731	-1.620233	9.305263	1.302959	-0.852768	-0.457930	0.861060	-0.024077	0.032235	0.506909
64828	-0.911840	-1.445641	9.556006	1.177504	-0.754633	-0.206322	0.854073	-0.024368	0.033452	0.518505
64829	-0.802694	-1.313306	9.590179	1.152301	-0.551010	-0.184138	0.847339	-0.024822	0.034385	0.529356
64830	-0.869172	-1.178603	9.370094	1.022887	-0.528219	-0.398988	0.840855	-0.025606	0.034942	0.539524
64831	-0.969798	-1.100122	9.560519	0.935295	-0.532697	-0.200423	0.834581	-0.026618	0.035221	0.549113
64832	-1.129908	-1.017444	9.818304	0.822148	-0.590494	0.070949	0.828447	-0.027357	0.035563	0.558267
64833	-1.171760	-0.779023	9.965841	0.609793	-0.500700	0.221019	0.822273	-0.027839	0.035843	0.567281
64834	-0.995580	-0.563328	9.799859	0.480004	-0.256427	0.038687	0.815882	-0.028309	0.035829	0.576413
64835	-0.783106	-0.542810	9.570017	0.525074	-0.053618	-0.209849	0.809214	-0.029315	0.035271	0.585721
64836	-0.682467	-0.708663	9.626314	0.699245	0.017661	-0.161547	0.802279	-0.030853	0.034271	0.595166
64837	-0.700215	-0.987048	9.614916	0.935171	-0.050559	-0.167279	0.795102	-0.032616	0.033089	0.604693
64838	-0.628338	-1.329475	9.389237	1.252935	-0.054702	-0.392124	0.787701	-0.034572	0.031883	0.614260
64839	-0.566714	-1.527195	9.270102	1.430952	-0.006747	-0.509982	0.780209	-0.036531	0.030883	0.623687
64840	-0.538736	-1.622288	9.422301	1.506024	0.067296	-0.356003	0.772721	-0.038377	0.030180	0.632866
64841	-0.636667	-1.814734	9.422972	1.657360	-0.010214	-0.339368	0.765292	-0.039914	0.029803	0.641753
64842	-0.620470	-1.777609	9.560692	1.614090	0.079977	-0.203327	0.757999	-0.040948	0.029705	0.650291
64843	-0.734894	-1.540168	9.830725	1.359163	0.075127	0.071758	0.750891	-0.041417	0.029670	0.658458
64844	-0.766279	-1.346142	10.003368	1.162690	0.116701	0.242219	0.743938	-0.041559	0.029243	0.666314
64845	-1.009200	-1.248803	9.742188	1.039885	-0.123395	0.005236	0.737099	-0.041652	0.028246	0.673908
64846	-1.012700	-1.097362	9.695691	0.879477	-0.111774	-0.042826	0.730295	-0.041985	0.026570	0.681323
64847	-1.259123	-1.450157	9.537148	1.197940	-0.391901	-0.166089	0.723574	-0.042613	0.024474	0.688495
64848	-1.527211	-1.457224	9.559362	1.174212	-0.648887	-0.115398	0.717005	-0.043215	0.022632	0.695359
64849	-1.556697	-1.449134	9.513390	1.156488	-0.672201	-0.156676	0.710443	-0.043767	0.021130	0.702075
64850	-1.547160	-1.260306	9.366738	0.968078	-0.658900	-0.307610	0.703785	-0.044507	0.020253	0.708728
64851	-1.724190	-1.096438	9.397774	0.803924	-0.808998	-0.263221	0.696961	-0.045787	0.019804	0.715372
64852	-1.821962	-0.872047	9.762811	0.567068	-0.844426	0.104860	0.689920	-0.047652	0.019556	0.722051
64853	-1.735375	-0.902847	9.912971	0.576693	-0.701971	0.250519	0.682568	-0.050108	0.019113	0.728852
64854	-1.595724	-0.926623	10.038529	0.562203	-0.504604	0.366020	0.674865	-0.052867	0.018467	0.735813
64855	-1.466157	-1.042908	10.011557	0.636727	-0.321630	0.334203	0.666890	-0.055710	0.017793	0.742857
64856	-1.564169	-1.023036	9.831357	0.605681	-0.391441	0.168718	0.658734	-0.058451	0.017204	0.749905
64857	-1.797794	-1.211515	9.785414	0.795283	-0.553887	0.163014	0.650536	-0.061206	0.016392	0.756828
64858	-2.249068	-1.333296	10.164201	0.930371	-0.890230	0.603101	0.642689	-0.063647	0.015569	0.763320
64859	-2.401197	-1.369236	10.513957	0.946769	-0.952565	0.975267	0.635344	-0.065562	0.014663	0.769302
64860	-2.433084	-1.476609	10.392396	1.055343	-0.943958	0.868946	0.628631	-0.066862	0.013641	0.774704
64861	-2.551322	-1.427642	10.252382	1.040220	-1.062345	0.744210	0.622554	-0.067470	0.012751	0.779559
64862	-2.850082	-1.117965	10.395074	0.804195	-1.395409	0.903489	0.617099	-0.067222	0.012119	0.783915
64863	-3.043839	-1.006365	10.526886	0.758818	-1.597733	1.048454	0.612034	-0.066167	0.011459	0.787975
64864	-2.890791	-0.710850	10.124911	0.511949	-1.580070	0.609256	0.607043	-0.064592	0.010700	0.791967
64865	-2.823140	-0.457091	9.886802	0.309256	-1.630694	0.344720	0.602015	-0.063152	0.009278	0.795930
64866	-2.532680	-0.458034	9.866170	0.258136	-1.388723	0.285344	0.596819	-0.062146	0.007112	0.799934
64867	-2.359867	-0.509989	9.888175	0.264193	-1.244901	0.286093	0.591365	-0.061688	0.004481	0.804029
64868	-2.248457	-0.614615	9.791945	0.333417	-1.150778	0.181308	0.585552	-0.061792	0.001671	0.808275
64869	-2.044948	-0.815238	9.737778	0.450909	-0.927008	0.117469	0.579343	-0.062263	-0.000999	0.812701
64870	-2.009406	-1.012815	9.608968	0.620581	-0.854570	-0.000434	0.572697	-0.062961	-0.003279	0.817339
64871	-2.146298	-1.248748	9.338647	0.900353	-0.923421	-0.236000	0.565693	-0.063851	-0.005175	0.822124
64872	-2.217891	-1.359553	9.338291	1.019348	-0.939521	-0.218454	0.558448	-0.064698	-0.006403	0.826988
64873	-2.469175	-1.493090	9.460199	1.221552	-1.091109	-0.058778	0.551152	-0.065403	-0.007081	0.831808
64874	-2.590111	-1.497613	9.474349	1.279106	-1.170725	-0.029640	0.543926	-0.065904	-0.007571	0.836507
64875	-2.605738	-1.440078	9.403081	1.251723	-1.186755	-0.101540	0.536889	-0.066362	-0.008349	0.840998
64876	-2.729410	-1.594537	9.380538	1.454564	-1.211953	-0.096614	0.530188	-0.066665	-0.009162	0.845206
64877	-2.749513	-1.516823	9.458860	1.396645	-1.239363	-0.022696	0.523862	-0.066664	-0.009894	0.849133
64878	-2.642659	-1.457948	9.520595	1.308479	-1.151708	0.021558	0.517896	-0.066164	-0.010403	0.852818
64879	-2.468327	-1.314075	9.485123	1.133053	-1.054159	-0.045813	0.512132	-0.065285	-0.010648	0.856356
64880	-2.422560	-1.062108	9.371943	0.940511	-1.129146	-0.186135	0.506444	-0.063969	-0.010470	0.859833
64881	-2.419738	-0.715691	9.272969	0.694008	-1.291798	-0.315071	0.500762	-0.062477	-0.010214	0.863267
64882	-2.439050	-0.573345	9.191970	0.637665	-1.378176	-0.407166	0.495060	-0.060906	-0.010046	0.866663
64883	-2.450130	-0.450119	9.204139	0.584457	-1.447041	-0.405976	0.489310	-0.059351	-0.009956	0.870031
64884	-2.411663	-0.400512	9.528460	0.534792	-1.421382	-0.093554	0.483525	-0.057918	-0.009612	0.873360
64885	-2.322720	-0.220823	9.952450	0.342799	-1.414245	0.305474	0.477553	-0.056419	-0.008792	0.876746
64886	-2.063294	0.062482	9.972569	0.023833	-1.334627	0.283405	0.471228	-0.054898	-0.007381	0.880270
64887	-1.858640	0.262864	10.049280	-0.200025	-1.252920	0.331350	0.464397	-0.053519	-0.005737	0.883990
64888	-1.802666	0.388382	10.268965	-0.295563	-1.248548	0.541323	0.457068	-0.052373	-0.004288	0.887878
64889	-1.753437	0.395997	10.406555	-0.289512	-1.194006	0.676263	0.449304	-0.051397	-0.003636	0.891892
64890	-1.730183	-0.070832	10.019514	0.152543	-0.909919	0.313410	0.441239	-0.050228	-0.003618	0.895976
64891	-1.822245	-0.310337	9.711008	0.469457	-0.842631	0.025502	0.433185	-0.048918	-0.003226	0.899971
64892	-1.755397	-0.284122	9.792757	0.448521	-0.786820	0.098908	0.425313	-0.047460	-0.002209	0.903798
64893	-1.596155	-0.023547	10.012083	0.182558	-0.799217	0.292642	0.417576	-0.045929	-0.000758	0.907480
64894	-1.315247	0.196281	10.239444	-0.129756	-0.701880	0.488036	0.409723	-0.044422	0.000333	0.911128
64895	-0.919776	0.335871	10.201954	-0.444973	-0.495936	0.414461	0.401571	-0.043085	0.000815	0.914813
64896	-0.680864	0.247193	10.011713	-0.492234	-0.276554	0.209300	0.392999	-0.042031	0.000589	0.918577
64897	-0.463698	-0.126603	9.650169	-0.325457	0.107993	-0.156644	0.383984	-0.041169	-0.000176	0.922421
64898	-0.394335	-0.434385	9.537663	-0.140301	0.353535	-0.264571	0.374726	-0.040416	-0.000917	0.926254
64899	-0.468893	-0.949468	9.464105	0.277577	0.661251	-0.316565	0.365318	-0.039631	-0.001507	0.930037
64900	-0.392679	-1.016645	9.405696	0.271747	0.758760	-0.378425	0.356040	-0.038725	-0.001890	0.933666
64901	-0.374072	-1.146585	9.318089	0.350314	0.864788	-0.463313	0.347116	-0.037804	-0.002374	0.937057
64902	-0.229610	-1.390439	9.237143	0.401964	1.139454	-0.547111	0.338778	-0.036850	-0.002971	0.940140
64903	-0.275087	-1.233401	9.447183	0.317147	0.988437	-0.338057	0.331061	-0.035947	-0.003721	0.942917
64904	-0.097841	-1.383768	9.278058	0.279105	1.201002	-0.512881	0.323765	-0.035041	-0.004836	0.945476
64905	0.013720	-1.207180	9.116519	0.084634	1.108735	-0.684058	0.316716	-0.034332	-0.006143	0.947879
64906	-0.002216	-1.240096	8.955030	0.114279	1.102899	-0.840458	0.309870	-0.033954	-0.007549	0.950142
64907	-0.195026	-1.157678	9.252829	0.182769	0.909603	-0.531940	0.303205	-0.033924	-0.008642	0.952282
64908	-0.156013	-0.925716	9.693527	-0.032588	0.734129	-0.101576	0.296477	-0.034116	-0.009579	0.954383
64909	0.010968	-1.023902	9.629950	-0.128882	0.901088	-0.171327	0.289509	-0.034300	-0.010048	0.956508
64910	-0.080336	-0.738003	9.439469	-0.213790	0.612671	-0.366334	0.282295	-0.034585	-0.009885	0.958653
64911	-0.225288	-0.519841	9.365773	-0.217825	0.356730	-0.439109	0.274987	-0.035010	-0.009768	0.960761
64912	-0.312529	-0.479429	9.433682	-0.185044	0.278806	-0.367589	0.267672	-0.035601	-0.010162	0.962798
64913	-0.288925	-0.620200	9.439820	-0.153870	0.404446	-0.358005	0.260423	-0.036307	-0.011212	0.964747
64914	-0.299118	-0.837914	9.438419	-0.061525	0.575375	-0.350108	0.253359	-0.037038	-0.012279	0.966585
64915	-0.381941	-0.830649	9.650161	-0.032180	0.521612	-0.133415	0.246503	-0.037440	-0.012720	0.968335
64916	-0.468039	-0.791993	9.373637	0.033629	0.448042	-0.404738	0.239768	-0.037531	-0.012883	0.970019
64917	-0.408963	-0.518595	9.300272	-0.147037	0.235388	-0.493126	0.233384	-0.037615	-0.013074	0.971569
64918	-0.334311	-0.495058	9.548500	-0.249765	0.247184	-0.251975	0.227232	-0.037703	-0.013181	0.973021
64919	-0.360875	-0.330611	9.586143	-0.306252	0.089257	-0.219361	0.221206	-0.037822	-0.013105	0.974405
64920	-0.401917	-0.155266	9.581073	-0.347537	-0.081323	-0.228575	0.215175	-0.038072	-0.012776	0.975750
64921	-0.482708	0.291237	9.929424	-0.492292	-0.516345	0.107107	0.208913	-0.038526	-0.012608	0.977094
64922	-0.536533	0.198192	9.888524	-0.405688	-0.452957	0.073682	0.202141	-0.039027	-0.012885	0.978494
64923	-0.576747	0.088843	9.983811	-0.339892	-0.370509	0.175515	0.194831	-0.039617	-0.013031	0.979950
64924	-0.821182	-0.291869	10.325980	-0.004377	-0.101717	0.549503	0.187125	-0.040032	-0.012189	0.981444
64925	-1.039573	-0.334648	10.540849	0.196989	-0.102672	0.782245	0.179278	-0.040144	-0.009987	0.982928
64926	-1.324148	-0.115897	10.612763	0.392353	-0.343062	0.870264	0.171496	-0.040010	-0.007088	0.984347
64927	-1.423776	0.307567	10.666224	0.361158	-0.705337	0.923314	0.163837	-0.039723	-0.004494	0.985677
64928	-1.428939	0.417097	10.404952	0.377013	-0.759062	0.663971	0.156276	-0.039388	-0.003044	0.986923
64929	-1.456902	0.318244	10.293323	0.463871	-0.641989	0.557894	0.148705	-0.039102	-0.002453	0.988105
64930	-1.559556	0.152666	10.329619	0.624465	-0.485888	0.605106	0.141007	-0.038829	-0.001694	0.989245
64931	-1.661095	0.118334	10.212922	0.758833	-0.442783	0.497740	0.133118	-0.038409	-0.000148	0.990356
64932	-1.636410	0.254071	10.153748	0.728586	-0.512043	0.436585	0.125022	-0.037755	0.002160	0.991433
64933	-1.727723	0.561556	10.113843	0.775416	-0.770190	0.404715	0.116808	-0.036982	0.004420	0.992456
64934	-1.824107	0.704436	9.852193	0.890274	-0.882382	0.153147	0.108531	-0.036181	0.005794	0.993418
64935	-1.948716	0.640576	9.807189	1.061600	-0.810881	0.117274	0.100335	-0.035409	0.006110	0.994305
64936	-2.079959	0.589131	9.857594	1.225720	-0.768690	0.174912	0.092309	-0.034632	0.005197	0.995114
64937	-2.227892	0.521748	9.731338	1.418409	-0.734386	0.055615	0.084409	-0.033836	0.003317	0.995851
64938	-2.445120	0.269751	9.578196	1.710873	-0.537079	-0.087587	0.076467	-0.032767	0.000984	0.996533
64939	-2.486427	0.019530	9.233639	1.838174	-0.309295	-0.433552	0.068358	-0.031630	-0.001096	0.997159
64940	-2.475627	-0.171674	8.997181	1.890743	-0.113765	-0.673783	0.059964	-0.030608	-0.002109	0.997729
64941	-2.447908	0.054930	8.973547	1.855276	-0.308558	-0.703218	0.051196	-0.030037	-0.002115	0.998235
64942	-2.307588	0.357046	8.958622	1.698776	-0.557727	-0.729057	0.041997	-0.030059	-0.002062	0.998663
64943	-2.214284	0.535502	9.008825	1.591541	-0.695028	-0.684018	0.032217	-0.030906	-0.002571	0.999000
64944	-2.243085	0.443995	9.231390	1.602093	-0.585335	-0.456525	0.021748	-0.032399	-0.004068	0.999230
64945	-2.346174	0.462724	9.291434	1.678608	-0.605037	-0.385835	0.010741	-0.034380	-0.006719	0.999329
64946	-2.583817	0.256839	9.469026	1.878070	-0.420141	-0.184566	-0.000564	-0.036448	-0.010539	0.999280
64947	-2.958364	0.015113	9.784267	2.192883	-0.209758	0.168851	-0.011951	-0.038386	-0.014912	0.999080
64948	-3.149769	-0.154524	9.960928	2.330907	-0.069860	0.371949	-0.023430	-0.039941	-0.019441	0.998738
64949	-3.113875	-0.501479	9.757959	2.263684	0.256931	0.186066	-0.035026	-0.040995	-0.023630	0.998266
64950	-3.039494	-0.846925	9.515229	2.153690	0.597370	-0.040274	-0.046836	-0.041755	-0.026642	0.997674
64951	-3.077245	-0.718193	9.490641	2.172514	0.489992	-0.060896	-0.058811	-0.042574	-0.028206	0.996962
64952	-3.080798	-0.553623	9.483604	2.165359	0.365887	-0.070322	-0.070930	-0.043267	-0.028994	0.996121
64953	-3.139291	-0.483712	9.476242	2.205864	0.353350	-0.071160	-0.083187	-0.043851	-0.029679	0.995126
64954	-3.247394	-0.419837	9.473210	2.298065	0.356401	-0.063062	-0.095419	-0.044253	-0.030673	0.993980
64955	-3.363255	-0.627855	9.424474	2.351204	0.630433	-0.086404	-0.107532	-0.044459	-0.031845	0.992696
64956	-3.468074	-0.662666	9.480509	2.415586	0.730904	-0.015893	-0.119442	-0.044483	-0.032597	0.991308
64957	-3.587669	-0.598527	9.457235	2.525031	0.756828	-0.029030	-0.131113	-0.044281	-0.032857	0.989833
64958	-3.630822	-0.393424	9.452071	2.602339	0.640524	-0.040462	-0.142584	-0.043793	-0.032579	0.988277
64959	-3.583115	-0.309522	9.307249	2.579498	0.635623	-0.194941	-0.153896	-0.043070	-0.032022	0.986628
64960	-3.656727	-0.207428	9.211406	2.677572	0.649333	-0.290445	-0.165125	-0.042294	-0.031395	0.984865
64961	-3.426903	-0.112671	9.110599	2.490771	0.568403	-0.419499	-0.176395	-0.041573	-0.031383	0.982940
64962	-3.178883	-0.039419	8.978256	2.285960	0.482087	-0.579177	-0.187886	-0.041136	-0.032185	0.980801
64963	-2.712103	-0.068534	9.117463	1.823275	0.362043	-0.483546	-0.199779	-0.041051	-0.033915	0.978393
64964	-2.390619	-0.327954	9.279711	1.398161	0.474201	-0.338729	-0.212159	-0.041553	-0.035995	0.975688
64965	-2.344510	-0.433534	9.549052	1.261409	0.531821	-0.066152	-0.225063	-0.042726	-0.037672	0.972678
64966	-2.380666	-0.609532	9.636357	1.159953	0.706224	0.038909	-0.238351	-0.044399	-0.038727	0.969391
64967	-2.378561	-0.568702	9.529228	1.120867	0.696345	-0.063558	-0.251875	-0.046421	-0.039241	0.965849
64968	-2.458914	-0.352982	9.501684	1.230612	0.572156	-0.085885	-0.265376	-0.048557	-0.039781	0.962099
64969	-2.528660	-0.369333	9.705538	1.201674	0.618249	0.132232	-0.278852	-0.050450	-0.040912	0.958135
64970	-2.740884	-0.446752	9.822915	1.270377	0.790814	0.284947	-0.292209	-0.051888	-0.042709	0.953990
64971	-2.945286	-0.613375	9.769074	1.296981	1.047794	0.272229	-0.305310	-0.052813	-0.044918	0.949726
64972	-3.099478	-0.750545	9.818025	1.288768	1.241364	0.354004	-0.318002	-0.053397	-0.046965	0.945419
64973	-2.885224	-0.629360	10.032078	1.134163	0.993832	0.535698	-0.330348	-0.053654	-0.048685	0.941075
64974	-2.674006	-0.573777	9.877350	0.984652	0.844629	0.353855	-0.342541	-0.053569	-0.050246	0.936628
64975	-2.647400	-0.511532	9.683789	0.993079	0.813275	0.157192	-0.354776	-0.053278	-0.051666	0.932001
64976	-2.679739	-0.536280	9.697609	0.976335	0.862886	0.178027	-0.367170	-0.052810	-0.052949	0.927143
64977	-2.641057	-0.636169	9.803662	0.850965	0.906600	0.284123	-0.379781	-0.052145	-0.054342	0.922005
64978	-2.336584	-0.844324	9.874102	0.464443	0.836824	0.324097	-0.392596	-0.051488	-0.055769	0.916574
64979	-2.110385	-0.978538	9.924799	0.187137	0.755610	0.351312	-0.405519	-0.051065	-0.057055	0.910874
64980	-1.967194	-1.080995	9.942780	-0.012863	0.706319	0.355800	-0.418491	-0.050959	-0.058068	0.904929
64981	-2.088965	-1.103756	9.879515	0.014142	0.812991	0.312804	-0.431467	-0.051139	-0.058671	0.898765
64982	-2.092869	-1.038721	9.724594	0.032665	0.793221	0.157086	-0.444429	-0.051205	-0.059305	0.892381
64983	-2.007031	-1.295116	9.695695	-0.263015	0.874113	0.131086	-0.457158	-0.051195	-0.059948	0.885885
64984	-2.179307	-1.380595	9.779303	-0.280801	1.038278	0.243810	-0.469567	-0.051156	-0.060233	0.879353
64985	-2.293489	-1.393164	9.634918	-0.271507	1.156847	0.118095	-0.481581	-0.051005	-0.060193	0.872843
64986	-2.336343	-1.341220	9.485054	-0.249808	1.190699	-0.027839	-0.493138	-0.050748	-0.059854	0.866405
64987	-2.323548	-1.164444	9.423192	-0.147918	1.107367	-0.101710	-0.504336	-0.050201	-0.059585	0.859985
64988	-2.182200	-1.138724	9.134457	-0.219594	1.024445	-0.410601	-0.515174	-0.049234	-0.059752	0.853582
64989	-2.004743	-1.075182	9.167169	-0.265582	0.835418	-0.408245	-0.525665	-0.047972	-0.060465	0.847183
64990	-1.993776	-1.148870	9.134429	-0.343786	0.857267	-0.438268	-0.535920	-0.046506	-0.061511	0.840740
64991	-2.103044	-1.235904	9.038880	-0.382830	0.996447	-0.511498	-0.545939	-0.045208	-0.062534	0.834264
64992	-1.937362	-1.123596	9.259256	-0.360485	0.757757	-0.323457	-0.555804	-0.044282	-0.063221	0.827722
64993	-1.905059	-0.884445	9.421292	-0.165211	0.605558	-0.180542	-0.565641	-0.043504	-0.063931	0.821018
64994	-1.968506	-0.705198	9.334073	0.017205	0.607396	-0.266588	-0.575550	-0.042478	-0.065132	0.814061
64995	-2.145274	-0.541572	9.406332	0.232503	0.699000	-0.177756	-0.585536	-0.041027	-0.066978	0.806832
64996	-2.174594	-0.854114	9.554469	-0.042404	0.786600	-0.008317	-0.595553	-0.039146	-0.069189	0.799373
64997	-2.311070	-1.112421	9.517563	-0.238461	0.976314	-0.006953	-0.605530	-0.037289	-0.071280	0.791746
64998	-2.482850	-1.143525	9.654011	-0.214775	1.108344	0.157145	-0.615350	-0.035562	-0.073037	0.784057
64999	-2.423417	-1.155739	9.808670	-0.237004	1.014958	0.303259	-0.625017	-0.033976	-0.074441	0.776311
65000	-2.358821	-1.135247	9.808905	-0.235401	0.936736	0.293476	-0.634548	-0.032530	-0.075554	0.768493
65001	-2.504891	-1.196543	9.686280	-0.281690	1.099692	0.199381	-0.643899	-0.031078	-0.076502	0.760642
65002	-2.689577	-1.311980	9.564659	-0.384652	1.307602	0.116059	-0.653004	-0.029645	-0.077388	0.752807
65003	-2.930398	-1.451204	9.537384	-0.509480	1.553561	0.136270	-0.661823	-0.028349	-0.078249	0.745026
65004	-3.048553	-1.450941	9.675430	-0.514143	1.632766	0.290902	-0.670356	-0.027291	-0.078933	0.737325
65005	-3.038811	-1.473313	9.885681	-0.559143	1.576777	0.499088	-0.678690	-0.026637	-0.079243	0.729652
65006	-2.914235	-1.316613	9.979760	-0.450785	1.415410	0.561081	-0.686981	-0.026352	-0.079026	0.721884
65007	-2.830603	-1.145104	9.774263	-0.349702	1.347416	0.332348	-0.695292	-0.026243	-0.078528	0.713943
65008	-3.049373	-1.089398	9.691704	-0.349559	1.567821	0.278599	-0.703611	-0.026107	-0.077979	0.705811
65009	-3.326645	-1.117383	9.805463	-0.429860	1.818316	0.432840	-0.711936	-0.025868	-0.077355	0.697491
65010	-3.532604	-1.164862	9.709889	-0.557311	2.027335	0.370486	-0.720255	-0.025691	-0.076575	0.688992
65011	-3.559901	-1.101676	9.491733	-0.584740	2.079835	0.152829	-0.728536	-0.025420	-0.075908	0.680314
65012	-3.667046	-1.151478	9.412325	-0.717702	2.181269	0.091432	-0.736694	-0.024974	-0.075486	0.671536
65013	-3.761216	-1.240745	9.364131	-0.885591	2.254867	0.061727	-0.744690	-0.024464	-0.075306	0.662697
65014	-3.774365	-1.324579	9.506833	-1.023716	2.214566	0.208667	-0.752466	-0.024027	-0.075229	0.653880
65015	-3.873686	-1.321565	9.640098	-1.089165	2.266059	0.354010	-0.760031	-0.023833	-0.075071	0.645096
65016	-3.807978	-1.234305	9.645592	-1.061774	2.185331	0.343993	-0.767494	-0.023828	-0.074795	0.636232
65017	-3.808610	-1.029450	9.477920	-0.945214	2.218066	0.166418	-0.774864	-0.023792	-0.074516	0.627269
65018	-3.848021	-0.889077	9.311507	-0.894342	2.284336	-0.000269	-0.782170	-0.023027	-0.074572	0.618157
65019	-3.902767	-1.063956	9.034832	-1.151221	2.312705	-0.256658	-0.789335	-0.021505	-0.075020	0.608982
65020	-3.851797	-1.203731	9.016388	-1.311040	2.211915	-0.274916	-0.796269	-0.019342	-0.075811	0.599862
65021	-3.795564	-1.417042	9.036008	-1.523038	2.078329	-0.251065	-0.802900	-0.017024	-0.076607	0.590925
65022	-3.653388	-1.445499	9.098189	-1.525023	1.909364	-0.208400	-0.809262	-0.014983	-0.077073	0.582178
65023	-3.598223	-1.519878	8.925680	-1.625475	1.834012	-0.382994	-0.815396	-0.013472	-0.077027	0.573597
65024	-3.582375	-1.245697	8.767346	-1.421050	1.909552	-0.561441	-0.821332	-0.012525	-0.076567	0.565150
65025	-3.593160	-1.112024	8.965637	-1.326572	1.927690	-0.375841	-0.827024	-0.011568	-0.075907	0.556898
65026	-3.582900	-1.092050	9.109297	-1.336870	1.897218	-0.240739	-0.832432	-0.010518	-0.075094	0.548914
65027	-3.532400	-1.008650	9.189505	-1.279919	1.868408	-0.178742	-0.837518	-0.009363	-0.074055	0.541287
65028	-3.619868	-1.117967	9.032005	-1.483164	1.912631	-0.322048	-0.842270	-0.008476	-0.072662	0.534069
65029	-3.509148	-0.958487	8.853630	-1.368616	1.890878	-0.529865	-0.846719	-0.008016	-0.071163	0.527198
65030	-3.229925	-0.571653	9.198757	-0.916497	1.775042	-0.253117	-0.850966	-0.007596	-0.070010	0.520478
65031	-2.656274	-0.250934	9.764176	-0.352348	1.366060	0.210662	-0.855188	-0.006613	-0.069352	0.513615
65032	-2.400455	-0.139363	9.983370	-0.133300	1.190220	0.386079	-0.859544	-0.004876	-0.069122	0.506343
65033	-2.134616	-0.051936	9.700791	0.033100	1.050749	0.064526	-0.864266	-0.002273	-0.069420	0.498218
65034	-1.891546	-0.210039	9.161219	-0.035321	0.833752	-0.493166	-0.869412	0.000836	-0.070291	0.489062
65035	-2.115623	-0.455650	9.015896	-0.353457	0.932575	-0.594493	-0.874836	0.004429	-0.071817	0.479045
65036	-2.322556	-1.060078	8.917249	-0.946623	0.801832	-0.620509	-0.880327	0.008505	-0.073883	0.468501
65037	-2.411984	-1.438505	9.039620	-1.242479	0.660998	-0.452090	-0.885695	0.012543	-0.076302	0.457782
65038	-2.391276	-1.752686	9.248521	-1.398053	0.446468	-0.212112	-0.890767	0.016261	-0.078788	0.447284
65039	-2.251716	-1.914153	9.536313	-1.342578	0.213920	0.078061	-0.895506	0.019245	-0.080941	0.437203
65040	-2.186461	-2.276911	9.754187	-1.503334	-0.090389	0.328354	-0.899953	0.021148	-0.082309	0.427624
65041	-1.984100	-2.127129	9.770736	-1.230120	-0.180770	0.305744	-0.904180	0.022127	-0.082919	0.418442
65042	-1.548597	-1.837908	9.583793	-0.750895	-0.343484	0.033291	-0.908229	0.022735	-0.083070	0.409516
65043	-1.352367	-1.486090	9.382980	-0.384756	-0.265989	-0.228384	-0.912111	0.023600	-0.083225	0.400712
65044	-1.305061	-1.464150	9.590346	-0.284189	-0.292173	-0.032326	-0.915835	0.025394	-0.083538	0.391947
65045	-1.184714	-1.880136	9.749291	-0.440541	-0.657018	0.155322	-0.919439	0.027979	-0.084003	0.383134
65046	-1.255232	-1.935215	9.782730	-0.481736	-0.627372	0.207124	-0.922943	0.030657	-0.084488	0.374296
65047	-1.272431	-1.997821	9.811650	-0.491635	-0.641473	0.248400	-0.926322	0.033263	-0.084907	0.365529
65048	-1.095585	-2.043818	9.857939	-0.347792	-0.778358	0.278373	-0.929561	0.035560	-0.085317	0.356893
65049	-0.879442	-1.962128	9.936106	-0.081169	-0.844567	0.317934	-0.932689	0.037751	-0.085823	0.348281
65050	-0.790056	-1.991760	9.973693	0.016175	-0.906888	0.348165	-0.935774	0.039829	-0.086414	0.339520
65051	-0.795575	-2.117027	9.923108	-0.031789	-0.984606	0.317079	-0.938844	0.041709	-0.087006	0.330550
65052	-0.923265	-2.284202	9.881580	-0.196017	-1.025469	0.317734	-0.941888	0.043420	-0.087516	0.321408
65053	-0.987193	-2.397558	9.813043	-0.284493	-1.070675	0.276476	-0.944837	0.045152	-0.087856	0.312290
65054	-1.124299	-2.637875	9.704770	-0.511974	-1.173450	0.225525	-0.947615	0.047444	-0.087993	0.303368
65055	-1.125238	-2.889097	9.505187	-0.652106	-1.364991	0.070277	-0.950165	0.050126	-0.087870	0.294876
65056	-1.019663	-3.213774	9.316524	-0.739815	-1.673317	-0.075229	-0.952437	0.053171	-0.087590	0.286992
65057	-0.933558	-3.389913	9.302924	-0.724956	-1.838107	-0.065739	-0.954452	0.056009	-0.087103	0.279816
65058	-0.868599	-3.308673	9.389871	-0.577338	-1.771242	0.005698	-0.956248	0.058463	-0.086391	0.273329
65059	-0.806232	-3.310649	9.390792	-0.502241	-1.777742	0.004882	-0.957884	0.060623	-0.085356	0.267391
65060	-0.745550	-3.063233	9.295771	-0.330881	-1.579930	-0.130494	-0.959394	0.062363	-0.084218	0.261880
65061	-0.685946	-3.004238	9.192194	-0.262227	-1.543671	-0.245000	-0.960796	0.064069	-0.083033	0.256656
65062	-0.685030	-2.916823	9.319282	-0.188074	-1.436411	-0.131393	-0.962123	0.065527	-0.081870	0.251639
65063	-0.538153	-2.856313	9.323107	-0.027827	-1.435771	-0.153174	-0.963394	0.066830	-0.080723	0.246757
65064	-0.660016	-3.003636	9.164107	-0.227996	-1.502900	-0.266610	-0.964634	0.067724	-0.079639	0.241976
65065	-0.882799	-2.948623	9.050628	-0.415047	-1.355063	-0.358634	-0.965823	0.067981	-0.078759	0.237407
65066	-1.325161	-2.975661	9.100171	-0.802596	-1.177663	-0.252737	-0.966934	0.067653	-0.078189	0.233128
65067	-1.611328	-2.715003	9.313479	-0.899090	-0.820466	-0.054259	-0.967964	0.066737	-0.077839	0.229202
65068	-1.639427	-2.599392	9.596366	-0.824001	-0.713594	0.204623	-0.968901	0.065385	-0.077568	0.225698
65069	-1.540695	-2.578760	9.741963	-0.708677	-0.770456	0.328001	-0.969809	0.063256	-0.077098	0.222542
65070	-1.597066	-2.267796	9.746984	-0.643398	-0.524030	0.287227	-0.970719	0.060346	-0.076356	0.219619
65071	-1.631215	-1.986276	9.705671	-0.589576	-0.324628	0.204937	-0.971621	0.057165	-0.075351	0.216811
65072	-1.706296	-1.749496	9.723885	-0.587081	-0.140346	0.195379	-0.972491	0.054310	-0.074160	0.214036
65073	-1.751241	-1.574444	9.818791	-0.570185	-0.005248	0.268437	-0.973291	0.052518	-0.073038	0.211218
65074	-1.788546	-1.726821	9.816394	-0.689650	-0.155112	0.288930	-0.974013	0.051932	-0.071994	0.208370
65075	-1.841839	-2.023262	9.582799	-0.910999	-0.429466	0.102030	-0.974677	0.051901	-0.071064	0.205572
65076	-2.017276	-2.269412	9.384236	-1.210683	-0.603200	-0.042636	-0.975310	0.051869	-0.070249	0.202840
65077	-2.007999	-2.348445	9.271334	-1.259459	-0.696679	-0.146598	-0.975915	0.051749	-0.069619	0.200162
65078	-1.875231	-2.364063	9.117359	-1.172677	-0.786183	-0.313305	-0.976483	0.051574	-0.069288	0.197537
65079	-1.752540	-2.367811	9.362770	-1.022061	-0.833785	-0.086457	-0.977012	0.051311	-0.069222	0.194993
65080	-1.797804	-2.476232	9.501943	-1.077657	-0.922123	0.068561	-0.977517	0.050851	-0.069256	0.192558
65081	-1.929967	-2.357267	9.366657	-1.171748	-0.790702	-0.064995	-0.977996	0.050229	-0.069265	0.190271
65082	-2.075440	-2.364135	9.076780	-1.350162	-0.778969	-0.333511	-0.978403	0.049939	-0.069215	0.188263
65083	-2.331285	-2.530844	9.089805	-1.641999	-0.845822	-0.270516	-0.978700	0.049988	-0.069043	0.186764
65084	-2.411783	-2.443603	9.386419	-1.640729	-0.716613	0.020279	-0.978883	0.050243	-0.068644	0.185880
65085	-2.332802	-2.313847	9.486487	-1.514845	-0.611911	0.092870	-0.978981	0.050803	-0.067841	0.185508
65086	-2.055659	-2.373002	9.206377	-1.339592	-0.771676	-0.209345	-0.979010	0.051819	-0.066599	0.185525
65087	-2.114158	-2.459365	8.737944	-1.514997	-0.836465	-0.654370	-0.978948	0.053311	-0.065232	0.185914
65088	-2.290108	-2.610079	8.457929	-1.790720	-0.896070	-0.891707	-0.978748	0.055132	-0.064100	0.186828
65089	-2.123926	-2.477893	8.669805	-1.569755	-0.773911	-0.715806	-0.978352	0.057458	-0.063495	0.188397
65090	-1.435721	-2.314208	9.157195	-0.805462	-0.789515	-0.325920	-0.977785	0.059881	-0.063588	0.190543
65091	-0.512146	-2.242602	9.759480	0.168989	-0.975133	0.165259	-0.977137	0.061938	-0.064277	0.192964
65092	0.105195	-1.982959	10.141762	0.903980	-0.910617	0.441681	-0.976589	0.062950	-0.065175	0.195097
65093	0.215326	-1.911100	10.354073	1.078029	-0.863807	0.627484	-0.976256	0.062738	-0.065998	0.196553
65094	-0.213138	-1.817415	10.053147	0.683451	-0.657784	0.361511	-0.976194	0.061313	-0.066610	0.197103
65095	-0.702325	-1.576428	9.619476	0.262755	-0.317118	-0.048313	-0.976321	0.059552	-0.066978	0.196888
65096	-1.110425	-1.599586	9.490001	-0.137762	-0.219558	-0.128443	-0.976491	0.058339	-0.067275	0.196308
65097	-1.419427	-1.869643	9.481659	-0.519079	-0.363820	-0.065361	-0.976587	0.058002	-0.067609	0.195812
65098	-1.424475	-1.967021	9.677164	-0.522153	-0.437439	0.141296	-0.976585	0.058293	-0.067999	0.195601
65099	-1.114929	-2.000688	9.725491	-0.233879	-0.576446	0.159472	-0.976478	0.059057	-0.068455	0.195747
65100	-0.726554	-1.991952	9.630470	0.121440	-0.712725	0.021891	-0.976286	0.060032	-0.068979	0.196223
65101	-0.495065	-1.972372	9.467969	0.327981	-0.785121	-0.166249	-0.976058	0.060744	-0.069700	0.196884
65102	-0.589961	-1.821709	9.364204	0.296747	-0.608931	-0.278742	-0.975815	0.061340	-0.070524	0.197607
65103	-0.805838	-1.859665	9.218555	0.078999	-0.564423	-0.391188	-0.975566	0.061753	-0.071509	0.198355
65104	-0.739274	-1.834317	9.419816	0.200084	-0.550006	-0.205315	-0.975297	0.061599	-0.072550	0.199342
65105	-0.795038	-1.719943	9.632228	0.244216	-0.416810	-0.007756	-0.975040	0.060770	-0.073591	0.200471
65106	-0.857484	-1.518249	9.603972	0.273217	-0.232870	-0.058319	-0.974808	0.059505	-0.074577	0.201609
65107	-0.978122	-1.219708	9.403173	0.256453	0.045249	-0.283983	-0.974599	0.058279	-0.075528	0.202624
65108	-1.036527	-1.158120	9.099492	0.189539	0.081495	-0.583723	-0.974376	0.057712	-0.076607	0.203452
65109	-1.008756	-1.230806	8.912922	0.173775	-0.018342	-0.760502	-0.974127	0.057791	-0.077903	0.204128
65110	-1.014214	-1.463180	8.846046	0.091888	-0.234760	-0.792796	-0.973846	0.057978	-0.079485	0.204802
65111	-1.231531	-1.614900	8.816406	-0.140289	-0.291834	-0.771191	-0.973566	0.057718	-0.081256	0.205513
65112	-1.443756	-1.421523	8.426099	-0.297275	-0.069105	-1.151794	-0.973274	0.057347	-0.083215	0.206213
65113	-1.601929	-1.307265	7.690779	-0.497796	0.039183	-1.864496	-0.972885	0.057648	-0.085617	0.206981
65114	-1.346275	-1.279553	7.686300	-0.214789	-0.039276	-1.908192	-0.972364	0.058482	-0.088587	0.207944
65115	-1.153719	-1.659611	8.183325	-0.041869	-0.426370	-1.394351	-0.971772	0.058837	-0.091971	0.209136
65116	-1.168568	-1.725622	8.255614	-0.011342	-0.489134	-1.312170	-0.971186	0.057930	-0.095633	0.210466
65117	-1.469156	-1.528597	7.962962	-0.207827	-0.234479	-1.578292	-0.970605	0.056422	-0.099492	0.211765
65118	-1.840429	-1.322673	7.303112	-0.540939	0.037929	-2.185258	-0.969902	0.055555	-0.103908	0.213090
65119	-2.023182	-1.342059	7.623869	-0.568308	0.096940	-1.832407	-0.969043	0.055127	-0.108947	0.214584
65120	-2.429011	-1.856845	8.182729	-0.921171	-0.184614	-1.128120	-0.968074	0.054210	-0.114349	0.216374
65121	-2.448258	-1.754399	8.165048	-0.814905	-0.119649	-1.148926	-0.967067	0.052363	-0.119851	0.218347
65122	-2.676218	-1.237217	7.493730	-0.887543	0.375837	-1.817745	-0.965989	0.050930	-0.125720	0.220151
65123	-2.563092	-1.169394	7.518238	-0.659276	0.360538	-1.819235	-0.964736	0.050546	-0.132248	0.221902
65124	-2.709269	-1.698461	7.729697	-0.837522	-0.061577	-1.490024	-0.963303	0.050460	-0.139412	0.223752
65125	-3.067204	-1.881727	7.799945	-1.083343	-0.088479	-1.291828	-0.961791	0.049610	-0.146839	0.225689
65126	-3.550914	-1.687908	6.976952	-1.547561	0.253754	-1.959326	-0.960177	0.049018	-0.154598	0.227501
65127	-3.690385	-1.635364	6.240231	-1.758057	0.333000	-2.599448	-0.958318	0.049443	-0.163156	0.229266
65128	-3.567388	-1.835387	7.154436	-1.292097	0.102972	-1.713385	-0.956123	0.049890	-0.172712	0.231322
65129	-3.796118	-2.225394	7.975264	-1.191800	-0.150639	-0.783737	-0.953709	0.049548	-0.182775	0.233619
65130	-4.052311	-2.110546	7.615571	-1.316363	0.027714	-1.029951	-0.951244	0.047856	-0.192717	0.236017
65131	-4.676176	-1.834083	5.921458	-2.206818	0.530598	-2.387029	-0.948612	0.046853	-0.203072	0.238120
65132	-5.076656	-1.882278	5.662467	-2.494615	0.652658	-2.414906	-0.945581	0.045975	-0.214448	0.240365
65133	-4.842322	-1.864973	7.274290	-1.417569	0.490596	-1.004330	-0.942118	0.045136	-0.226799	0.242772
65134	-5.001377	-2.455814	7.842019	-1.319092	-0.024991	-0.283971	-0.938373	0.043085	-0.239570	0.245368
65135	-5.270739	-1.688450	7.284133	-1.219314	0.727499	-0.775577	-0.934520	0.040727	-0.252324	0.247682
65136	-6.067202	-1.500473	5.732235	-2.271204	1.305050	-1.747036	-0.930439	0.040711	-0.265693	0.249065
65137	-6.552798	-1.495485	5.610463	-2.448122	1.525869	-1.546767	-0.925909	0.042247	-0.280200	0.249792
65138	-6.816856	-2.330172	5.973285	-2.527137	0.890893	-0.846596	-0.920732	0.045668	-0.296140	0.249937
65139	-7.222173	-2.965392	6.613259	-2.393364	0.478952	0.123118	-0.914985	0.047965	-0.312676	0.250471
65140	-7.773107	-2.858604	7.296325	-1.958412	0.748065	1.023493	-0.909047	0.047667	-0.328653	0.251692
65141	-7.985347	-2.224100	7.129481	-1.585977	1.334833	0.922060	-0.903278	0.045276	-0.343557	0.252996
65142	-7.971723	-2.067198	6.540745	-1.582462	1.410149	0.487898	-0.897767	0.041085	-0.357357	0.254209
65143	-7.724663	-1.054427	6.600464	-0.675055	2.033037	0.174873	-0.892225	0.036597	-0.371036	0.254810
65144	-8.466486	-0.909673	6.846762	-0.584716	2.357485	0.839897	-0.886427	0.034742	-0.385662	0.253585
65145	-8.644140	-1.531506	6.637134	-0.762116	1.823048	1.013346	-0.880433	0.035328	-0.401097	0.250420
65146	-8.605607	-2.361959	6.054179	-1.153319	1.066307	0.855471	-0.874077	0.036464	-0.417077	0.246389
65147	-8.316118	-2.989189	5.745775	-1.120287	0.322117	0.662805	-0.867123	0.036585	-0.433570	0.242437
65148	-8.782098	-3.483471	6.128686	-0.877467	-0.102313	1.413417	-0.859445	0.033438	-0.450340	0.239645
65149	-9.418419	-3.118090	7.107949	0.117575	0.125958	2.389959	-0.851457	0.025792	-0.466406	0.238373
65150	-9.727045	-2.627035	6.816424	0.295486	0.455536	2.339161	-0.843502	0.014902	-0.481395	0.237784
65151	-9.861498	-2.711767	5.377681	-0.644251	0.412852	1.716399	-0.835098	0.001661	-0.496088	0.237708
65152	-10.083481	-2.842432	4.668351	-1.055007	0.221132	1.605260	-0.825697	-0.013134	-0.511243	0.238080
65153	-10.258771	-2.852682	5.045866	-0.474651	-0.176212	1.958618	-0.814988	-0.028725	-0.526942	0.239378
65154	-11.317150	-2.165697	7.352212	1.767684	-0.324894	3.735770	-0.803498	-0.047146	-0.541331	0.243165
65155	-11.265737	-1.701864	7.405833	2.352510	-0.461059	3.562087	-0.792577	-0.066046	-0.553200	0.247852
65156	-11.154421	-1.559205	5.626927	1.214204	-0.151570	2.717193	-0.781746	-0.084059	-0.563820	0.252811
65157	-10.550184	-1.611547	4.410436	0.554474	-0.234572	1.718990	-0.770929	-0.099708	-0.574145	0.257068
65158	-10.374966	-2.047060	4.310296	0.523733	-0.908345	1.558251	-0.759758	-0.112724	-0.584795	0.260912
65159	-10.741533	-2.948201	5.683936	1.345868	-2.507778	2.363855	-0.747858	-0.125935	-0.594502	0.267240
65160	-11.484560	-2.584314	6.563828	2.340059	-2.770458	3.167898	-0.735619	-0.140938	-0.601663	0.277492
65161	-11.528772	-2.176392	5.384884	1.760768	-2.065997	2.807582	-0.723291	-0.156345	-0.606548	0.290697
65162	-11.156306	-1.369193	4.271650	1.552804	-1.079461	2.061826	-0.711051	-0.170326	-0.610173	0.305097
65163	-10.644013	-0.917458	3.803162	1.682615	-0.711322	1.379262	-0.699078	-0.181029	-0.614023	0.318581
65164	-10.525844	-1.030485	4.577233	2.361462	-1.437014	1.374854	-0.687196	-0.189095	-0.618296	0.331233
65165	-10.780809	-0.678761	5.723752	3.597983	-2.013492	1.695774	-0.675984	-0.195389	-0.621965	0.343553
65166	-10.651117	-0.469838	5.035472	3.419802	-1.505835	1.370238	-0.666235	-0.199392	-0.624918	0.354754
65167	-10.089013	-0.212961	3.380586	2.613515	-0.313324	0.498983	-0.657998	-0.200333	-0.628348	0.363435
65168	-9.407631	-0.941573	1.981541	1.267104	0.072021	-0.236503	-0.650763	-0.199271	-0.632786	0.369298
65169	-9.400865	-1.130443	2.384423	1.569492	-0.345097	-0.181753	-0.643609	-0.198684	-0.637608	0.373830
65170	-9.898098	-2.081948	2.894331	1.414221	-1.236907	0.538745	-0.636460	-0.199683	-0.641734	0.378449
65171	-10.447638	-1.146007	3.785444	2.870756	-1.236324	0.912297	-0.628915	-0.205437	-0.642683	0.386290
65172	-10.360391	0.857047	3.912872	4.506890	-0.211717	0.337423	-0.622750	-0.212191	-0.641703	0.394177
65173	-10.039533	1.477963	3.531659	4.731585	0.285512	-0.170121	-0.618384	-0.217810	-0.640285	0.400243
65174	-9.861143	1.015647	2.764841	3.898954	0.515812	-0.302169	-0.616089	-0.220234	-0.640107	0.402733
65175	-9.745004	-0.433618	1.812482	2.195741	0.382464	-0.144669	-0.615578	-0.219309	-0.641626	0.401602
65176	-9.487535	-1.736558	0.957889	0.650038	0.232774	-0.144716	-0.615998	-0.216572	-0.644031	0.398581
65177	-9.297519	-2.449711	0.521141	-0.174476	0.096622	-0.185815	-0.616303	-0.214954	-0.645740	0.396214
65178	-9.249039	-2.452085	0.325125	-0.293689	0.214723	-0.245517	-0.616529	-0.214408	-0.646771	0.394473
65179	-9.299957	-2.882561	0.238842	-0.670628	0.014844	-0.096443	-0.616681	-0.215003	-0.646974	0.393576
65180	-9.469890	-2.924042	0.145521	-0.747884	0.080737	0.070840	-0.616846	-0.216175	-0.646610	0.393275
65181	-9.352215	-2.868359	-0.056431	-0.865525	0.235205	-0.071532	-0.617235	-0.216912	-0.646254	0.392845
65182	-9.262112	-2.925149	-0.148512	-0.992778	0.246134	-0.152508	-0.617667	-0.216988	-0.646198	0.392213
65183	-9.268969	-2.972647	0.021044	-0.927843	0.080410	-0.123338	-0.618031	-0.216594	-0.646433	0.391470
65184	-9.369631	-3.162693	0.316682	-0.872856	-0.247145	0.039721	-0.618071	-0.216347	-0.646664	0.391162
65185	-9.556721	-3.097701	0.559645	-0.640560	-0.360007	0.222249	-0.617795	-0.216550	-0.646664	0.391485
65186	-9.735106	-2.889128	0.678750	-0.378419	-0.288930	0.353598	-0.617302	-0.217195	-0.646378	0.392377
65187	-9.659122	-2.733272	0.753014	-0.224882	-0.262697	0.247971	-0.616634	-0.218391	-0.645696	0.393885
65188	-9.482945	-2.367141	0.961107	0.155712	-0.234766	0.004336	-0.615903	-0.219799	-0.644781	0.395739
65189	-9.403645	-2.185893	1.140364	0.389128	-0.274550	-0.102883	-0.615211	-0.221075	-0.643856	0.397607
65190	-9.388192	-2.055909	1.300858	0.580971	-0.317600	-0.137010	-0.614577	-0.222185	-0.642984	0.399375
65191	-9.403936	-1.991075	1.412975	0.697496	-0.355245	-0.128568	-0.614034	-0.223120	-0.642190	0.400964
65192	-9.474569	-2.122341	1.340844	0.555579	-0.349976	-0.033194	-0.613588	-0.224142	-0.641317	0.402471
65193	-9.568053	-2.172924	1.231072	0.453616	-0.263680	0.062001	-0.613254	-0.225324	-0.640305	0.403928
65194	-9.675014	-2.395380	0.998114	0.140570	-0.173718	0.201802	-0.613060	-0.226588	-0.639160	0.405327
65195	-9.565063	-2.454948	0.879769	-0.009607	-0.124975	0.100710	-0.612901	-0.227831	-0.637995	0.406704
65196	-9.406643	-2.575640	0.786410	-0.198895	-0.139160	-0.031157	-0.612737	-0.228897	-0.636920	0.408034
65197	-9.361202	-2.714782	0.808589	-0.315783	-0.231154	-0.040134	-0.612394	-0.230068	-0.635827	0.409593
65198	-9.346010	-2.613021	0.776667	-0.266576	-0.137591	-0.081861	-0.611941	-0.231222	-0.634753	0.411283
65199	-9.440004	-2.583064	0.766135	-0.243438	-0.078456	0.000947	-0.611405	-0.232360	-0.633749	0.412982
65200	-9.560961	-2.479764	0.766476	-0.149508	0.017315	0.093171	-0.610921	-0.233361	-0.632805	0.414580
65201	-9.494033	-2.459257	0.739614	-0.164664	0.049818	0.021031	-0.610487	-0.234337	-0.631885	0.416070
65202	-9.378240	-2.392921	0.771997	-0.115402	0.047602	-0.104040	-0.610106	-0.235133	-0.631081	0.417397
65203	-9.348048	-2.405440	0.828697	-0.101879	-0.000216	-0.125145	-0.609739	-0.235800	-0.630389	0.418602
65204	-9.402720	-2.384320	0.865541	-0.057880	0.003439	-0.074006	-0.609372	-0.236252	-0.629854	0.419684
65205	-9.462200	-2.319941	0.952083	0.052684	-0.009936	-0.023973	-0.608986	-0.236576	-0.629429	0.420698
65206	-9.502229	-2.257800	1.015435	0.146966	-0.010047	0.005633	-0.608684	-0.236711	-0.629089	0.421566
65207	-9.486607	-2.226299	1.031447	0.181861	0.000445	-0.015600	-0.608449	-0.236743	-0.628789	0.422334
65208	-9.545893	-2.155610	1.036742	0.255078	0.055861	0.024862	-0.608370	-0.236380	-0.628743	0.422720
65209	-9.528820	-2.322134	1.023277	0.114723	-0.016397	0.047555	-0.608403	-0.235882	-0.628793	0.422878
65210	-9.563200	-2.352153	1.034341	0.106607	-0.026761	0.089090	-0.608441	-0.235418	-0.628857	0.422986
65211	-9.569687	-2.440861	0.975630	0.006318	-0.018062	0.111435	-0.608421	-0.235166	-0.628839	0.423181
65212	-9.593095	-2.389695	0.973038	0.052390	0.021494	0.121179	-0.608317	-0.235128	-0.628730	0.423513
65213	-9.511340	-2.315340	1.002714	0.119368	0.023621	0.026876	-0.608235	-0.235014	-0.628668	0.423788
65214	-9.392793	-2.375182	0.973708	0.039636	-0.005043	-0.075513	-0.608079	-0.234914	-0.628621	0.424135
65215	-9.308230	-2.337152	1.044835	0.102643	-0.056666	-0.159534	-0.607848	-0.234760	-0.628642	0.424520
65216	-9.356780	-2.411083	1.024081	0.044250	-0.063208	-0.096441	-0.607545	-0.234734	-0.628643	0.424967
65217	-9.384216	-2.422490	1.136206	0.106505	-0.150931	-0.056212	-0.607199	-0.234981	-0.628466	0.425587
65218	-9.402990	-2.370542	1.177623	0.175109	-0.149143	-0.046953	-0.606901	-0.235493	-0.628068	0.426316
65219	-9.359996	-2.326064	1.179448	0.201452	-0.132062	-0.099132	-0.606699	-0.236136	-0.627505	0.427076
65220	-9.457476	-2.254999	1.135560	0.244685	-0.032423	-0.027114	-0.606701	-0.236355	-0.627153	0.427469
65221	-9.526262	-2.365637	1.047492	0.113508	0.002682	0.057989	-0.606910	-0.236020	-0.627106	0.427427
65222	-9.544479	-2.530414	1.003897	-0.041015	-0.038330	0.112268	-0.607159	-0.235358	-0.627268	0.427199
65223	-9.550571	-2.671369	0.928712	-0.193117	-0.043495	0.145874	-0.607309	-0.234777	-0.627395	0.427119
65224	-9.478110	-2.709031	0.916675	-0.237619	-0.062912	0.084448	-0.607277	-0.234467	-0.627351	0.427401
65225	-9.441658	-2.651886	0.888481	-0.208501	-0.010059	0.032272	-0.607032	-0.234438	-0.627183	0.428009
65226	-9.454270	-2.612604	0.955068	-0.133289	-0.032781	0.041359	-0.606600	-0.234669	-0.626892	0.428922
65227	-9.418434	-2.407437	1.054355	0.088482	-0.006904	-0.034833	-0.606127	-0.234877	-0.626626	0.429864
65228	-9.426661	-2.369367	1.065082	0.133037	0.014693	-0.035555	-0.605761	-0.234795	-0.626520	0.430579
65229	-9.446572	-2.416351	1.069692	0.107426	-0.000247	-0.004060	-0.605522	-0.234548	-0.626482	0.431104
65230	-9.428744	-2.412840	1.045784	0.101043	0.025296	-0.024643	-0.605335	-0.234264	-0.626486	0.431515
65231	-9.384456	-2.450508	1.066827	0.080940	-0.014085	-0.055414	-0.605189	-0.233996	-0.626459	0.431904
65232	-9.379337	-2.476519	1.054019	0.056180	-0.011103	-0.054984	-0.605063	-0.233861	-0.626366	0.432289
65233	-9.381417	-2.453872	0.994144	0.044794	0.056813	-0.065095	-0.604896	-0.233852	-0.626217	0.432743
65234	-9.376081	-2.412754	1.036619	0.103697	0.047246	-0.076473	-0.604742	-0.233810	-0.626120	0.433121
65235	-9.421966	-2.393432	1.054176	0.139595	0.057503	-0.035651	-0.604592	-0.233759	-0.626089	0.433402
65236	-9.516140	-2.429224	1.090294	0.148477	0.033944	0.067778	-0.604490	-0.233673	-0.626097	0.433579
65237	-9.558525	-2.422044	1.111297	0.175012	0.032942	0.108752	-0.604492	-0.233522	-0.626079	0.433684
65238	-9.387012	-2.416171	1.028028	0.107370	0.069075	-0.066180	-0.604586	-0.233271	-0.626060	0.433716
65239	-9.311850	-2.397359	0.976955	0.083958	0.107818	-0.148648	-0.604673	-0.232927	-0.626093	0.433730
65240	-9.252361	-2.413073	0.990635	0.072783	0.079636	-0.200256	-0.604794	-0.232306	-0.626262	0.433652
65241	-9.215423	-2.475237	0.985311	0.019522	0.048804	-0.220039	-0.604867	-0.231593	-0.626532	0.433541
65242	-9.073529	-2.492658	0.872555	-0.071502	0.104738	-0.363479	-0.604869	-0.230812	-0.626898	0.433427
65243	-9.083842	-2.526490	0.800873	-0.126536	0.152077	-0.352160	-0.604725	-0.230164	-0.627334	0.433341
65244	-9.079659	-2.575062	0.816961	-0.146005	0.112626	-0.341438	-0.604430	-0.229759	-0.627846	0.433226
65245	-9.097353	-2.574402	0.847263	-0.113297	0.087061	-0.321281	-0.604024	-0.229565	-0.628481	0.432974
65246	-9.177265	-2.606400	0.918323	-0.074169	0.019135	-0.228694	-0.603573	-0.229601	-0.629253	0.432463
65247	-9.345388	-2.746043	1.010878	-0.097209	-0.109596	-0.020988	-0.603069	-0.230009	-0.630077	0.431749
65248	-9.504624	-2.846445	1.088448	-0.101862	-0.215789	0.165680	-0.602556	-0.230879	-0.630842	0.430881
65249	-9.428671	-2.898663	1.176251	-0.105678	-0.364547	0.114119	-0.602017	-0.232071	-0.631536	0.429977
65250	-9.325385	-2.883422	1.187595	-0.103336	-0.423933	0.010591	-0.601452	-0.233255	-0.632337	0.428949
65251	-9.253476	-2.959918	1.191754	-0.170827	-0.519624	-0.039823	-0.600850	-0.234131	-0.633415	0.427724
65252	-9.152771	-3.175589	1.244223	-0.323985	-0.734416	-0.078151	-0.600034	-0.234974	-0.634612	0.426632
65253	-9.152226	-3.294345	1.300277	-0.376941	-0.878979	-0.045812	-0.598827	-0.236267	-0.635622	0.426108
65254	-9.318224	-3.341003	1.382515	-0.329766	-0.971092	0.129701	-0.597166	-0.238294	-0.636282	0.426326
65255	-9.415875	-3.387978	1.393503	-0.339559	-1.016797	0.233690	-0.595242	-0.241016	-0.636485	0.427183
65256	-9.436226	-3.337664	1.337560	-0.326738	-0.968583	0.233529	-0.593117	-0.244268	-0.636260	0.428625
65257	-9.563272	-3.492126	1.181721	-0.522883	-0.915106	0.382248	-0.590798	-0.248111	-0.635520	0.430712
65258	-9.632495	-3.453119	1.136923	-0.516972	-0.860068	0.433998	-0.588244	-0.252615	-0.634156	0.433590
65259	-9.555551	-3.268282	1.083426	-0.424739	-0.746550	0.307898	-0.585535	-0.257376	-0.632411	0.436994
65260	-9.490448	-3.249695	1.036682	-0.465128	-0.712193	0.236204	-0.582634	-0.262263	-0.630411	0.440839
65261	-9.507658	-3.203450	0.970728	-0.474528	-0.626062	0.236333	-0.579557	-0.267159	-0.628164	0.445140
65262	-9.602743	-3.128728	0.805553	-0.489965	-0.419198	0.298431	-0.576304	-0.272194	-0.625569	0.449942
65263	-9.576830	-3.000457	0.712892	-0.444100	-0.265756	0.235134	-0.572836	-0.277571	-0.622442	0.455389
65264	-9.659513	-2.693067	0.732915	-0.167804	-0.112664	0.239926	-0.569244	-0.283051	-0.618927	0.461273
65265	-9.745297	-2.480238	0.696657	0.007791	0.048606	0.267255	-0.565810	-0.287936	-0.615537	0.466975
65266	-9.749018	-2.328375	0.704015	0.141770	0.128933	0.233384	-0.562695	-0.291890	-0.612620	0.472093
65267	-9.764997	-2.309743	0.697526	0.163131	0.170526	0.243201	-0.559978	-0.294719	-0.610331	0.476510
65268	-9.737844	-2.309070	0.647524	0.151917	0.238544	0.212114	-0.557622	-0.296444	-0.608682	0.480297
65269	-9.652327	-2.473359	0.562263	-0.023699	0.271793	0.163610	-0.555489	-0.297314	-0.607497	0.483718
65270	-9.648215	-2.496033	0.547774	-0.019863	0.308699	0.163405	-0.553393	-0.297595	-0.606598	0.487065
65271	-9.679324	-2.513871	0.514375	-0.004557	0.374806	0.193946	-0.551345	-0.297426	-0.605823	0.490443
65272	-9.511932	-2.432726	0.468777	0.058490	0.453883	0.005919	-0.549252	-0.296895	-0.605193	0.493879
65273	-9.402917	-2.405974	0.458136	0.102696	0.492803	-0.109095	-0.547176	-0.295991	-0.604814	0.497180
65274	-9.376725	-2.415380	0.494401	0.153766	0.489607	-0.130861	-0.545101	-0.294822	-0.604710	0.500270
65275	-9.408307	-2.476328	0.564837	0.186015	0.446313	-0.079581	-0.543011	-0.293643	-0.604706	0.503233
65276	-9.367939	-2.499285	0.593358	0.219512	0.438437	-0.111345	-0.540891	-0.292645	-0.604648	0.506159
65277	-9.336333	-2.461936	0.600420	0.298334	0.468757	-0.154543	-0.538746	-0.291963	-0.604430	0.509092
65278	-9.391918	-2.452809	0.632515	0.377569	0.481541	-0.104453	-0.536596	-0.291621	-0.604010	0.512048
65279	-9.380681	-2.413164	0.666525	0.463261	0.487340	-0.127001	-0.534552	-0.291463	-0.603439	0.514942
65280	-9.337606	-2.427937	0.641957	0.466195	0.523777	-0.168723	-0.532654	-0.291472	-0.602759	0.517693
65281	-9.294828	-2.321560	0.656979	0.586941	0.556296	-0.243935	-0.530960	-0.291548	-0.602069	0.520186
65282	-9.217792	-2.240622	0.714701	0.685477	0.530453	-0.339169	-0.529545	-0.291495	-0.601570	0.522232
65283	-9.230220	-2.188326	0.769889	0.777963	0.511636	-0.341076	-0.528457	-0.291245	-0.601376	0.523695
65284	-9.281829	-2.282446	0.836855	0.749252	0.443311	-0.257359	-0.527759	-0.290805	-0.601499	0.524502
65285	-9.244636	-2.326359	0.857248	0.721306	0.410253	-0.277410	-0.527410	-0.290401	-0.601710	0.524834
65286	-9.245521	-2.428767	0.852512	0.635914	0.388271	-0.244500	-0.527314	-0.290193	-0.601888	0.524841
65287	-9.306070	-2.489491	0.821393	0.589019	0.411384	-0.171162	-0.527435	-0.290204	-0.601981	0.524608
65288	-9.348781	-2.484541	0.840964	0.606410	0.398959	-0.130076	-0.527723	-0.290451	-0.601963	0.524201
65289	-9.459547	-2.511845	0.841514	0.601515	0.406865	-0.016098	-0.528198	-0.290782	-0.601927	0.523580
65290	-9.472159	-2.513638	0.812498	0.578559	0.427560	-0.005407	-0.528844	-0.291185	-0.601914	0.522718
65291	-9.456704	-2.476961	0.848085	0.601035	0.390243	-0.026459	-0.529650	-0.291536	-0.602017	0.521588
65292	-9.442327	-2.566342	0.910385	0.517307	0.290024	-0.003473	-0.530587	-0.291815	-0.602236	0.520224
65293	-9.335319	-2.644249	0.960116	0.414210	0.184760	-0.073268	-0.531558	-0.292140	-0.602441	0.518812
65294	-9.328531	-2.665536	0.956165	0.370628	0.165062	-0.072249	-0.532458	-0.292580	-0.602600	0.517455
65295	-9.380269	-2.713668	0.940937	0.312505	0.159031	-0.008822	-0.533355	-0.293220	-0.602613	0.516151
65296	-9.427053	-2.686990	0.981124	0.336207	0.122017	0.032303	-0.534295	-0.293981	-0.602498	0.514878
65297	-9.384427	-2.603613	0.997581	0.376509	0.106849	-0.030655	-0.535444	-0.294780	-0.602311	0.513445
65298	-9.343181	-2.611412	0.949803	0.309695	0.124787	-0.070767	-0.536815	-0.295462	-0.602182	0.511770
65299	-9.252579	-2.663503	0.943378	0.203012	0.079823	-0.140733	-0.538356	-0.296040	-0.602176	0.509821
65300	-9.259437	-2.757425	1.038298	0.116573	-0.055986	-0.096631	-0.539994	-0.296589	-0.602212	0.507723
65301	-9.280113	-2.843213	1.032236	0.004406	-0.093596	-0.052517	-0.541652	-0.297249	-0.602139	0.505653
65302	-9.318160	-2.835859	1.009648	-0.027654	-0.083986	-0.020773	-0.543330	-0.298036	-0.601944	0.503617
65303	-9.381389	-2.810141	1.000411	-0.033975	-0.076367	0.031144	-0.545013	-0.298779	-0.601773	0.501560
65304	-9.407372	-2.914139	1.019589	-0.156833	-0.142936	0.086060	-0.546681	-0.299549	-0.601543	0.499556
65305	-9.442811	-2.855287	1.053642	-0.124197	-0.168824	0.106255	-0.548303	-0.300269	-0.601280	0.497659
65306	-9.401110	-2.880970	0.995687	-0.216291	-0.148668	0.066747	-0.549886	-0.300867	-0.601046	0.495830
65307	-9.444722	-2.887561	0.993134	-0.249581	-0.156803	0.109011	-0.551382	-0.301306	-0.600876	0.494106
65308	-9.477841	-2.952700	0.950561	-0.349252	-0.147301	0.152638	-0.552767	-0.301629	-0.600740	0.492524
65309	-9.483596	-2.959070	1.005287	-0.362454	-0.211365	0.163743	-0.553982	-0.301910	-0.600567	0.491196
65310	-9.487975	-2.945425	1.012648	-0.371344	-0.221857	0.164060	-0.555073	-0.302073	-0.600373	0.490100
65311	-9.545869	-2.886533	1.016248	-0.325719	-0.200610	0.204402	-0.556083	-0.302036	-0.600218	0.489168
65312	-9.533859	-2.853264	1.011253	-0.316171	-0.188819	0.183441	-0.557086	-0.301685	-0.600140	0.488338
65313	-9.484460	-2.890700	0.996627	-0.376497	-0.195267	0.143442	-0.558034	-0.301020	-0.600178	0.487618
65314	-9.422182	-2.840617	0.990807	-0.350735	-0.179290	0.070286	-0.558946	-0.299993	-0.600361	0.486980
65315	-9.398440	-2.912373	0.952899	-0.434102	-0.165483	0.061763	-0.559780	-0.298694	-0.600641	0.486476
65316	-9.399774	-2.887822	0.990207	-0.392372	-0.180242	0.060980	-0.560484	-0.297288	-0.600920	0.486182
65317	-9.406674	-2.851924	0.997384	-0.347587	-0.159249	0.059879	-0.561116	-0.295783	-0.601185	0.486043
65318	-9.489512	-2.834143	0.954322	-0.321841	-0.081965	0.131336	-0.561691	-0.294263	-0.601423	0.486008
65319	-9.576896	-2.775913	0.960905	-0.239126	-0.033549	0.201684	-0.562278	-0.292711	-0.601644	0.485992
65320	-9.540002	-2.708943	1.047740	-0.141357	-0.077484	0.158358	-0.562921	-0.291017	-0.601877	0.485976
65321	-9.478730	-2.654255	1.036900	-0.096655	-0.039148	0.084566	-0.563696	-0.289062	-0.602175	0.485875
65322	-9.407085	-2.606969	0.912903	-0.103238	0.099415	-0.009508	-0.564550	-0.286719	-0.602657	0.485674
65323	-9.475795	-2.665329	0.838484	-0.153217	0.183220	0.063577	-0.565427	-0.284034	-0.603371	0.485345
65324	-9.517455	-2.768623	0.899320	-0.190167	0.121876	0.137433	-0.566178	-0.281307	-0.604170	0.485064
65325	-9.483105	-2.794758	1.036236	-0.140470	0.004286	0.126825	-0.566772	-0.278821	-0.604825	0.484990
65326	-9.370653	-2.695597	1.102236	-0.025769	-0.017968	0.000021	-0.567228	-0.276665	-0.605232	0.485183
65327	-9.254383	-2.575944	1.068198	0.062932	0.057818	-0.147660	-0.567615	-0.274573	-0.605582	0.485482
65328	-9.265681	-2.499451	0.961882	0.110148	0.210387	-0.170652	-0.568017	-0.272251	-0.606079	0.485700
65329	-9.269857	-2.568849	0.866107	0.033499	0.295927	-0.159160	-0.568427	-0.269763	-0.606771	0.485744
65330	-9.320178	-2.606416	0.901353	0.051448	0.283768	-0.097323	-0.568789	-0.267334	-0.607524	0.485722
65331	-9.330497	-2.638209	1.094152	0.132364	0.121894	-0.056508	-0.569084	-0.265286	-0.608102	0.485777
65332	-9.335971	-2.562365	1.216442	0.272086	0.062534	-0.059338	-0.569410	-0.263597	-0.608439	0.485893
65333	-9.250619	-2.483751	1.124396	0.296658	0.174056	-0.174798	-0.569845	-0.262060	-0.608675	0.485918
65334	-9.247055	-2.456250	1.046233	0.296623	0.270637	-0.196319	-0.570342	-0.260548	-0.608939	0.485817
65335	-9.270721	-2.450599	1.046534	0.316646	0.293861	-0.176283	-0.571009	-0.258834	-0.609334	0.485455
65336	-9.270575	-2.442684	1.068053	0.342521	0.292342	-0.176910	-0.571792	-0.257015	-0.609832	0.484874
65337	-9.305773	-2.440797	1.137680	0.391538	0.253212	-0.136335	-0.572715	-0.255093	-0.610390	0.484096
65338	-9.378876	-2.426863	1.111206	0.415637	0.312509	-0.075268	-0.573755	-0.253027	-0.611056	0.483108
65339	-9.458119	-2.448875	1.043010	0.391007	0.394179	-0.002866	-0.574866	-0.250822	-0.611885	0.481885
65340	-9.511051	-2.538423	1.024669	0.325419	0.395400	0.071208	-0.575991	-0.248615	-0.612803	0.480517
65341	-9.460237	-2.561227	1.031209	0.306044	0.373356	0.030396	-0.577092	-0.246568	-0.613733	0.479062
65342	-9.390967	-2.584156	1.093104	0.306982	0.295384	-0.020777	-0.578131	-0.244792	-0.614572	0.477644
65343	-9.345956	-2.572590	1.129913	0.328632	0.257714	-0.062436	-0.579138	-0.243271	-0.615318	0.476237
65344	-9.379105	-2.531763	1.134219	0.373834	0.278673	-0.043016	-0.580135	-0.241936	-0.615993	0.474829
65345	-9.320860	-2.511980	1.124240	0.372804	0.278756	-0.105180	-0.581216	-0.240618	-0.616688	0.473274
65346	-9.235329	-2.535552	1.141953	0.341533	0.227344	-0.176503	-0.582332	-0.239338	-0.617420	0.471593
65347	-9.190657	-2.594412	1.184459	0.300467	0.147349	-0.195510	-0.583477	-0.238127	-0.618145	0.469837
65348	-9.180239	-2.625426	1.194427	0.272494	0.114460	-0.194531	-0.584671	-0.237046	-0.618815	0.468013
65349	-9.229665	-2.652661	1.171168	0.241026	0.124493	-0.142044	-0.585876	-0.236141	-0.619452	0.466117
65350	-9.236575	-2.677369	1.146413	0.199068	0.122985	-0.130637	-0.587134	-0.235451	-0.620039	0.464099
65351	-9.271069	-2.740968	1.159156	0.145497	0.074962	-0.077060	-0.588407	-0.235009	-0.620567	0.462002
65352	-9.236933	-2.762680	1.210642	0.129614	-0.007235	-0.096615	-0.589724	-0.234820	-0.620989	0.459846
65353	-9.279131	-2.804667	1.216863	0.085501	-0.044060	-0.043356	-0.591044	-0.234833	-0.621363	0.457633
65354	-9.274553	-2.859102	1.226529	0.021409	-0.103596	-0.030823	-0.592360	-0.235007	-0.621666	0.455426
65355	-9.331766	-2.868483	1.277232	0.026495	-0.162642	0.031809	-0.593648	-0.235282	-0.621920	0.453255
65356	-9.378176	-2.930584	1.302601	-0.028429	-0.228349	0.096006	-0.594932	-0.235604	-0.622121	0.451124
65357	-9.422040	-2.940895	1.288407	-0.061749	-0.236164	0.138393	-0.596210	-0.235875	-0.622303	0.449038
65358	-9.483956	-2.931316	1.257202	-0.083740	-0.214826	0.190579	-0.597442	-0.236108	-0.622483	0.447025
65359	-9.524497	-2.984095	1.268382	-0.137331	-0.262693	0.244236	-0.598651	-0.236170	-0.622664	0.445119
65360	-9.520482	-3.043344	1.279911	-0.201439	-0.322107	0.256836	-0.599750	-0.236193	-0.622820	0.443406
65361	-9.518873	-3.085971	1.307702	-0.240285	-0.383752	0.268840	-0.600739	-0.236183	-0.622925	0.441922
65362	-9.493729	-3.028459	1.291405	-0.221947	-0.361071	0.226761	-0.601631	-0.236140	-0.622965	0.440673
65363	-9.474760	-3.013347	1.311954	-0.215749	-0.385073	0.206180	-0.602457	-0.235991	-0.622974	0.439610
65364	-9.397931	-3.026582	1.306771	-0.253494	-0.411781	0.134932	-0.603238	-0.235653	-0.623010	0.438668
65365	-9.386481	-3.025137	1.321394	-0.254922	-0.428950	0.124846	-0.603982	-0.235175	-0.623026	0.437879
65366	-9.348690	-3.016058	1.300214	-0.271313	-0.415136	0.083737	-0.604671	-0.234543	-0.623043	0.437241
65367	-9.345977	-3.033303	1.289039	-0.296132	-0.412037	0.084401	-0.605313	-0.233843	-0.623052	0.436715
65368	-9.336807	-3.039464	1.263747	-0.319605	-0.391161	0.074486	-0.605947	-0.233091	-0.623023	0.436279
65369	-9.363287	-3.032125	1.323539	-0.278919	-0.423541	0.104948	-0.606528	-0.232317	-0.622966	0.435966
65370	-9.449013	-3.079211	1.316480	-0.309218	-0.412683	0.198935	-0.607072	-0.231508	-0.622908	0.435722
65371	-9.502916	-3.096942	1.276834	-0.337347	-0.366504	0.251041	-0.607566	-0.230667	-0.622869	0.435535
65372	-9.482954	-3.077770	1.297912	-0.312120	-0.368096	0.229760	-0.608009	-0.229801	-0.622817	0.435448
65373	-9.473989	-3.212434	1.356318	-0.388369	-0.473906	0.264037	-0.608363	-0.228848	-0.622717	0.435600
65374	-9.497405	-3.216335	1.322431	-0.399875	-0.423566	0.284589	-0.608549	-0.227662	-0.622629	0.436086
65375	-9.459125	-3.271995	1.245123	-0.480597	-0.373640	0.255116	-0.608544	-0.226139	-0.622680	0.436812
65376	-9.513615	-3.357597	1.299144	-0.490639	-0.418616	0.338864	-0.608279	-0.224490	-0.622731	0.437958
65377	-9.437986	-3.321403	1.342228	-0.424071	-0.418595	0.264696	-0.607812	-0.222861	-0.622655	0.439542
65378	-9.331932	-3.211193	1.352454	-0.319240	-0.356727	0.137010	-0.607206	-0.221255	-0.622443	0.441488
65379	-9.206101	-3.155922	1.325786	-0.282576	-0.294842	0.000714	-0.606514	-0.219652	-0.622141	0.443661
65380	-9.158564	-3.038354	1.328001	-0.165272	-0.203425	-0.075874	-0.605807	-0.217933	-0.621868	0.445852
65381	-9.149980	-3.043735	1.282380	-0.166372	-0.124396	-0.087075	-0.605160	-0.216008	-0.621678	0.447927
65382	-9.179376	-3.075556	1.300777	-0.145708	-0.100654	-0.046399	-0.604510	-0.214073	-0.621490	0.449989
65383	-9.173512	-3.055923	1.290221	-0.105768	-0.037370	-0.058518	-0.603840	-0.212213	-0.621290	0.452042
65384	-9.121742	-3.082603	1.280506	-0.112529	-0.012305	-0.100052	-0.603100	-0.210586	-0.621024	0.454151
65385	-9.127543	-3.058197	1.280504	-0.064424	0.044362	-0.101972	-0.602302	-0.209277	-0.620643	0.456330
65386	-9.079503	-3.019826	1.306223	-0.003558	0.069074	-0.155670	-0.601461	-0.208204	-0.620193	0.458538
