// General information: 
//  MT Manager version: 2021.0.0 
//  XDA version: 2021.0.0 build 5908 rev 109668 built on 2021-04-19
// Device information: 
//  DeviceId: 00B43DF1
//  ProductCode: MTW2-3A7G6
//  Firmware Version: 4.3.5
//  Hardware Version: 1.1.0
// Device settings: 
//  Filter Profile: human(46.1)
//  Option Flags: Orientation Smoother Disabled, Position/Velocity Smoother Disabled, Continuous Zero Rotation Update Disabled, AHS Disabled, ICC Disabled
// Coordinate system: ENU
PacketCounter	Acc_X	Acc_Y	Acc_Z	FreeAcc_E	FreeAcc_N	FreeAcc_U	Quat_q0	Quat_q1	Quat_q2	Quat_q3
64468	-0.525057	8.990837	4.296817	-0.045478	-0.129539	0.165019	0.151062	0.128009	-0.510771	-0.836604
64469	-0.552858	8.977825	4.282436	-0.016848	-0.131653	0.148669	0.150942	0.128058	-0.510511	-0.836777
64470	-0.577560	8.977237	4.289921	0.001779	-0.122841	0.152888	0.150895	0.128207	-0.510198	-0.836954
64471	-0.586526	8.924363	4.305561	-0.003223	-0.091835	0.112920	0.150841	0.128310	-0.509851	-0.837159
64472	-0.623027	8.914712	4.311428	0.026384	-0.077523	0.109104	0.150795	0.128417	-0.509461	-0.837389
64473	-0.655262	8.911087	4.352790	0.039709	-0.039008	0.126151	0.150723	0.128499	-0.509076	-0.837623
64474	-0.638058	8.898778	4.371344	0.015352	-0.034218	0.122231	0.150703	0.128585	-0.508699	-0.837843
64475	-0.619945	8.880465	4.402733	-0.015246	-0.016194	0.118604	0.150682	0.128674	-0.508353	-0.838042
64476	-0.670221	8.843988	4.396462	0.029014	0.005681	0.086470	0.150704	0.128770	-0.507985	-0.838247
64477	-0.638106	8.821638	4.457168	-0.025228	0.044545	0.091463	0.150721	0.128797	-0.507672	-0.838429
64478	-0.649533	8.769304	4.423115	-0.007625	0.038085	0.030332	0.150736	0.128861	-0.507456	-0.838548
64479	-0.654380	8.815372	4.448566	-0.007201	0.037158	0.083135	0.150718	0.128873	-0.507371	-0.838600
64480	-0.628345	8.820972	4.402343	-0.013734	-0.014217	0.065804	0.150621	0.128881	-0.507367	-0.838619
64481	-0.591410	8.835098	4.358712	-0.031218	-0.071011	0.056511	0.150508	0.128945	-0.507338	-0.838647
64482	-0.546999	8.817622	4.430110	-0.102853	-0.024272	0.069841	0.150402	0.129017	-0.507266	-0.838698
64483	-0.608086	8.813156	4.383514	-0.032326	-0.038749	0.049064	0.150362	0.129209	-0.507187	-0.838724
64484	-0.628131	8.864401	4.377115	-0.008288	-0.060703	0.093248	0.150290	0.129335	-0.507116	-0.838760
64485	-0.586478	8.865512	4.409061	-0.060959	-0.053540	0.105704	0.150257	0.129487	-0.507029	-0.838796
64486	-0.619611	8.834027	4.461067	-0.056612	0.013570	0.103041	0.150247	0.129684	-0.507002	-0.838783
64487	-0.648362	8.793298	4.457385	-0.037061	0.040076	0.066976	0.150243	0.129864	-0.507104	-0.838694
64488	-0.573983	8.846519	4.441652	-0.097325	-0.021877	0.102386	0.150225	0.130078	-0.507283	-0.838556
64489	-0.587981	8.877697	4.402661	-0.070604	-0.058076	0.113756	0.150275	0.130320	-0.507450	-0.838408
64490	-0.630954	8.871566	4.428586	-0.046179	-0.014108	0.122746	0.150360	0.130607	-0.507605	-0.838255
64491	-0.658087	8.863335	4.404154	-0.017686	-0.016311	0.106374	0.150439	0.130868	-0.507766	-0.838102
64492	-0.671597	8.954358	4.409803	-0.000885	-0.042600	0.191118	0.150487	0.131086	-0.507907	-0.837974
64493	-0.628402	9.000921	4.393946	-0.031922	-0.090470	0.222702	0.150470	0.131158	-0.507951	-0.837939
64494	-0.599145	8.915550	4.369329	-0.060190	-0.085641	0.133472	0.150469	0.131180	-0.507844	-0.838001
64495	-0.636363	8.858234	4.380175	-0.035943	-0.040478	0.089649	0.150491	0.131147	-0.507680	-0.838101
64496	-0.635556	8.844179	4.409867	-0.048282	-0.013864	0.090233	0.150498	0.131124	-0.507549	-0.838183
64497	-0.619889	8.791320	4.419102	-0.071736	0.008360	0.046056	0.150423	0.131085	-0.507502	-0.838231
64498	-0.664792	8.885901	4.402816	-0.013033	-0.030203	0.126371	0.150194	0.130947	-0.507444	-0.838329
64499	-0.597461	8.946523	4.398868	-0.066013	-0.088964	0.174054	0.149963	0.130837	-0.507310	-0.838469
64500	-0.581546	8.900957	4.316698	-0.055410	-0.146902	0.095615	0.149782	0.130853	-0.507084	-0.838635
64501	-0.652565	8.817750	4.367287	-0.020912	-0.048099	0.048803	0.149537	0.130956	-0.506865	-0.838795
64502	-0.640303	8.711168	4.564633	-0.122698	0.147027	0.040922	0.149459	0.131272	-0.506563	-0.838942
64503	-0.793413	8.667600	4.603964	-0.005754	0.251926	0.030573	0.149443	0.131475	-0.506435	-0.838990
64504	-0.774955	8.783218	4.496351	0.028548	0.104839	0.084324	0.149183	0.131459	-0.506446	-0.839032
64505	-0.698456	8.859793	4.479882	-0.029006	0.027514	0.139776	0.148801	0.131371	-0.506479	-0.839094
64506	-0.653418	8.841242	4.355318	-0.028746	-0.084228	0.064326	0.148380	0.131355	-0.506475	-0.839174
64507	-0.602726	8.900908	4.332677	-0.064406	-0.150739	0.103697	0.147966	0.131416	-0.506427	-0.839266
64508	-0.575990	8.893829	4.361331	-0.106088	-0.138201	0.108140	0.147638	0.131619	-0.506321	-0.839356
64509	-0.645083	8.891994	4.382630	-0.057303	-0.098785	0.120997	0.147351	0.131910	-0.506110	-0.839488
64510	-0.683286	8.858350	4.437457	-0.053073	-0.031626	0.118297	0.147037	0.132174	-0.505867	-0.839648
64511	-0.764464	8.846963	4.457235	0.006904	0.013310	0.123100	0.146800	0.132446	-0.505599	-0.839808
64512	-0.848105	8.876440	4.513510	0.060789	0.070331	0.180991	0.146587	0.132677	-0.505303	-0.839987
64513	-0.850827	8.826370	4.494555	0.060958	0.071632	0.128183	0.146440	0.132829	-0.505123	-0.840097
64514	-0.860478	8.891215	4.479894	0.080375	0.031165	0.180117	0.146299	0.132825	-0.505049	-0.840167
64515	-0.818731	8.895136	4.384391	0.078082	-0.066283	0.137496	0.146147	0.132724	-0.504976	-0.840253
64516	-0.734301	8.979464	4.326365	0.032132	-0.186491	0.179889	0.145982	0.132628	-0.504795	-0.840405
64517	-0.684831	8.950031	4.348911	-0.024225	-0.180526	0.159869	0.145887	0.132609	-0.504465	-0.840623
64518	-0.661900	8.899897	4.447399	-0.086559	-0.096567	0.157709	0.145922	0.132658	-0.503993	-0.840892
64519	-0.742528	8.811176	4.485981	-0.034715	-0.005536	0.102501	0.146066	0.132753	-0.503510	-0.841142
64520	-0.760580	8.807954	4.545168	-0.038604	0.040821	0.127832	0.146258	0.132843	-0.503069	-0.841358
64521	-0.835498	8.763258	4.586683	0.012221	0.114334	0.112895	0.146493	0.132918	-0.502666	-0.841546
64522	-0.829036	8.730884	4.579299	0.008827	0.113475	0.080374	0.146751	0.132911	-0.502370	-0.841679
64523	-0.831054	8.716181	4.562279	0.018937	0.102630	0.059797	0.147021	0.132916	-0.502170	-0.841750
64524	-0.803754	8.749659	4.581638	-0.006359	0.089783	0.096190	0.147321	0.132929	-0.501998	-0.841798
64525	-0.877112	8.770775	4.535182	0.085150	0.068665	0.099514	0.147583	0.132822	-0.501834	-0.841867
64526	-0.831489	8.796612	4.517642	0.057869	0.022946	0.110869	0.147795	0.132680	-0.501678	-0.841945
64527	-0.787368	8.797306	4.504870	0.027722	-0.007415	0.102229	0.147952	0.132461	-0.501500	-0.842058
64528	-0.744800	8.772943	4.496642	-0.005129	-0.022421	0.073592	0.148076	0.132227	-0.501343	-0.842167
64529	-0.711599	8.900087	4.464689	-0.003298	-0.120985	0.169132	0.148176	0.131997	-0.501169	-0.842289
64530	-0.674990	8.950240	4.543897	-0.054763	-0.098501	0.246970	0.148365	0.131800	-0.500849	-0.842477
64531	-0.712771	8.897288	4.497547	-0.001817	-0.104074	0.181654	0.148599	0.131615	-0.500482	-0.842682
64532	-0.727512	8.838165	4.577929	-0.017565	-0.013827	0.167261	0.148894	0.131383	-0.500131	-0.842875
64533	-0.721602	8.828031	4.599002	-0.023612	-0.000406	0.167548	0.149195	0.131134	-0.499823	-0.843043
64534	-0.693557	8.750521	4.585188	-0.044526	0.007512	0.090572	0.149486	0.130839	-0.499536	-0.843207
64535	-0.649116	8.725107	4.578816	-0.077305	-0.007513	0.061945	0.149733	0.130543	-0.499310	-0.843343
64536	-0.627797	8.676708	4.578417	-0.094561	0.001465	0.017487	0.149974	0.130297	-0.499026	-0.843507
64537	-0.621815	8.698433	4.580962	-0.091601	-0.013653	0.037491	0.150161	0.130127	-0.498749	-0.843663
64538	-0.692128	8.693088	4.589751	-0.025447	0.018036	0.041939	0.150294	0.129968	-0.498501	-0.843811
64539	-0.670018	8.754043	4.625683	-0.047001	0.006392	0.110864	0.150355	0.129789	-0.498303	-0.843945
64540	-0.696668	8.757251	4.651366	-0.027301	0.031785	0.127547	0.150431	0.129644	-0.498093	-0.844077
64541	-0.655341	8.726106	4.655818	-0.066522	0.030022	0.099210	0.150462	0.129438	-0.497950	-0.844188
64542	-0.631551	8.760090	4.627718	-0.069317	-0.020150	0.114477	0.150493	0.129242	-0.497787	-0.844308
64543	-0.662749	8.720424	4.647387	-0.048866	0.022807	0.090864	0.150519	0.129083	-0.497659	-0.844404
64544	-0.672133	8.748386	4.617399	-0.022225	-0.013411	0.102237	0.150598	0.128990	-0.497484	-0.844507
64545	-0.672165	8.715022	4.638198	-0.031038	0.015388	0.082518	0.150680	0.128898	-0.497339	-0.844591
64546	-0.641146	8.694292	4.647481	-0.062836	0.016813	0.066414	0.150815	0.128878	-0.497130	-0.844694
64547	-0.729926	8.676751	4.614787	0.030497	0.029681	0.041918	0.150860	0.128878	-0.497014	-0.844754
64548	-0.647397	8.757887	4.637732	-0.043330	-0.023372	0.118367	0.150791	0.128864	-0.496903	-0.844833
64549	-0.595325	8.753850	4.653229	-0.097131	-0.032694	0.118392	0.150782	0.128870	-0.496722	-0.844940
64550	-0.583885	8.753260	4.673912	-0.114225	-0.024757	0.126743	0.150869	0.128874	-0.496498	-0.845056
64551	-0.611007	8.716096	4.661973	-0.088529	-0.011570	0.090327	0.151030	0.129016	-0.496268	-0.845141
64552	-0.721963	8.655897	4.674118	0.001435	0.065073	0.050828	0.151163	0.129126	-0.496139	-0.845176
64553	-0.719916	8.673343	4.684912	-0.001901	0.063118	0.071116	0.151289	0.129165	-0.496070	-0.845188
64554	-0.658153	8.705125	4.649364	-0.041363	-0.004519	0.078077	0.151331	0.129230	-0.496050	-0.845182
64555	-0.616187	8.725812	4.641785	-0.075144	-0.037088	0.089768	0.151397	0.129319	-0.495994	-0.845190
64556	-0.602067	8.738683	4.681452	-0.102114	-0.018031	0.118693	0.151504	0.129455	-0.495916	-0.845195
64557	-0.654149	8.752243	4.691955	-0.057866	0.002786	0.139235	0.151633	0.129649	-0.495833	-0.845191
64558	-0.709601	8.747478	4.693034	-0.010065	0.025769	0.139483	0.151720	0.129861	-0.495759	-0.845186
64559	-0.733561	8.704395	4.738238	-0.013228	0.089684	0.124479	0.151730	0.130057	-0.495728	-0.845173
64560	-0.757339	8.706758	4.739031	0.005367	0.098518	0.128635	0.151712	0.130224	-0.495791	-0.845113
64561	-0.739895	8.712280	4.721895	-0.006491	0.076784	0.124195	0.151639	0.130307	-0.495874	-0.845065
64562	-0.737717	8.704377	4.665906	0.008952	0.036134	0.090832	0.151589	0.130425	-0.495951	-0.845010
64563	-0.780080	8.702860	4.680563	0.039540	0.066949	0.099423	0.151469	0.130465	-0.496082	-0.844949
64564	-0.665339	8.675674	4.724770	-0.088283	0.071056	0.087848	0.151323	0.130524	-0.496097	-0.844957
64565	-0.684003	8.572965	4.771496	-0.104365	0.162402	0.020597	0.151220	0.130668	-0.496119	-0.844940
64566	-0.772325	8.569636	4.755583	-0.020958	0.186329	0.016634	0.150977	0.130683	-0.496245	-0.844908
64567	-0.743224	8.673286	4.654716	-0.000190	0.049308	0.058595	0.150596	0.130626	-0.496444	-0.844868
64568	-0.691314	8.786964	4.573519	-0.007765	-0.085345	0.116985	0.150046	0.130564	-0.496631	-0.844865
64569	-0.650306	8.827265	4.572515	-0.045058	-0.119943	0.148988	0.149522	0.130534	-0.496685	-0.844931
64570	-0.620446	8.845048	4.596298	-0.083978	-0.122770	0.173486	0.149103	0.130590	-0.496617	-0.845036
64571	-0.680489	8.807977	4.614997	-0.045201	-0.071073	0.153989	0.148822	0.130762	-0.496528	-0.845112
64572	-0.720129	8.731383	4.660847	-0.040249	0.013535	0.110887	0.148652	0.130970	-0.496516	-0.845116
64573	-0.742787	8.707077	4.714333	-0.047007	0.075342	0.116158	0.148541	0.131160	-0.496521	-0.845103
64574	-0.811508	8.701141	4.696885	0.018113	0.090517	0.108029	0.148490	0.131320	-0.496572	-0.845057
64575	-0.775689	8.717848	4.651661	0.000625	0.033717	0.098891	0.148394	0.131451	-0.496642	-0.845013
64576	-0.769972	8.714888	4.631405	-0.000188	0.017452	0.086390	0.148314	0.131522	-0.496691	-0.844987
64577	-0.732198	8.718065	4.613284	-0.030285	-0.012890	0.077817	0.148276	0.131669	-0.496693	-0.844970
64578	-0.754635	8.713279	4.628107	-0.018043	0.009221	0.082244	0.148243	0.131753	-0.496668	-0.844977
64579	-0.783950	8.743708	4.644334	0.004346	0.019295	0.118901	0.148181	0.131855	-0.496696	-0.844956
64580	-0.795423	8.754128	4.648925	0.011944	0.022800	0.131120	0.148071	0.131927	-0.496729	-0.844944
64581	-0.793598	8.760031	4.682812	-0.004042	0.047250	0.151971	0.147927	0.131953	-0.496815	-0.844915
64582	-0.771707	8.815592	4.657813	-0.010343	-0.005101	0.187577	0.147740	0.131926	-0.496925	-0.844887
64583	-0.755561	8.802690	4.631880	-0.018604	-0.024629	0.162862	0.147505	0.131854	-0.497028	-0.844879
64584	-0.698406	8.786425	4.601425	-0.063525	-0.061532	0.129864	0.147275	0.131819	-0.497184	-0.844832
64585	-0.681673	8.813379	4.659600	-0.100388	-0.031379	0.179367	0.147061	0.131862	-0.497310	-0.844789
64586	-0.723966	8.790556	4.598211	-0.044645	-0.052439	0.134010	0.146891	0.131964	-0.497404	-0.844747
64587	-0.776647	8.760615	4.648926	-0.022150	0.023413	0.135329	0.146716	0.132032	-0.497497	-0.844712
64588	-0.860206	8.747580	4.578961	0.076456	0.006567	0.097969	0.146538	0.132066	-0.497599	-0.844678
64589	-0.764358	8.717025	4.638153	-0.039311	0.032589	0.090879	0.146280	0.131972	-0.497683	-0.844688
64590	-0.763766	8.645435	4.617449	-0.042090	0.049136	0.018057	0.146092	0.132006	-0.497740	-0.844681
64591	-0.871649	8.598484	4.647091	0.037946	0.136773	-0.001010	0.145819	0.132014	-0.497877	-0.844646
64592	-0.863289	8.743446	4.632313	0.048424	0.058171	0.119367	0.145364	0.131944	-0.498117	-0.844594
64593	-0.795379	8.902666	4.572007	0.022894	-0.086187	0.226505	0.144892	0.131777	-0.498283	-0.844604
64594	-0.734158	8.967178	4.517542	-0.007417	-0.182395	0.253302	0.144509	0.131567	-0.498288	-0.844699
64595	-0.675144	8.898203	4.547282	-0.080429	-0.151156	0.201418	0.144276	0.131434	-0.498215	-0.844803
64596	-0.726535	8.758561	4.680522	-0.097913	0.036752	0.144049	0.144231	0.131456	-0.498105	-0.844872
64597	-0.799140	8.612477	4.713551	-0.059368	0.155119	0.036341	0.144284	0.131493	-0.497994	-0.844922
64598	-0.836705	8.703217	4.680479	-0.001543	0.100354	0.104111	0.144284	0.131407	-0.498014	-0.844924
64599	-0.741536	8.794758	4.705402	-0.086134	0.041832	0.188777	0.144311	0.131268	-0.497920	-0.844996
64600	-0.712745	8.748442	4.602653	-0.076707	-0.032877	0.097947	0.144382	0.131168	-0.497772	-0.845087
64601	-0.721690	8.731573	4.616301	-0.071895	-0.013985	0.090144	0.144513	0.131058	-0.497584	-0.845192
64602	-0.738337	8.749176	4.632556	-0.057004	-0.007179	0.114573	0.144733	0.131057	-0.497303	-0.845320
64603	-0.803919	8.714402	4.626549	0.005306	0.023398	0.086376	0.144944	0.131031	-0.497025	-0.845452
64604	-0.742830	8.771645	4.659007	-0.052777	-0.005613	0.147085	0.145119	0.130975	-0.496725	-0.845607
64605	-0.715125	8.775900	4.618910	-0.059329	-0.057028	0.129917	0.145284	0.130963	-0.496362	-0.845793
64606	-0.722589	8.806985	4.628118	-0.048995	-0.068866	0.162153	0.145405	0.130935	-0.495984	-0.845998
64607	-0.725540	8.843237	4.672923	-0.054914	-0.056481	0.215236	0.145589	0.130881	-0.495602	-0.846199
64608	-0.709865	8.807257	4.647172	-0.059687	-0.073910	0.170241	0.145759	0.130827	-0.495254	-0.846382
64609	-0.721093	8.801361	4.638598	-0.042274	-0.081519	0.161884	0.145939	0.130741	-0.494849	-0.846601
64610	-0.663255	8.793183	4.592543	-0.074531	-0.144972	0.128381	0.146042	0.130626	-0.494450	-0.846834
64611	-0.695041	8.743833	4.629633	-0.060455	-0.088870	0.104956	0.146111	0.130550	-0.494044	-0.847071
64612	-0.685387	8.715832	4.658730	-0.080278	-0.065524	0.093296	0.146169	0.130552	-0.493599	-0.847320
64613	-0.708964	8.642779	4.716123	-0.086265	0.013696	0.058202	0.146253	0.130610	-0.493166	-0.847549
64614	-0.725644	8.625198	4.800191	-0.102923	0.086532	0.083996	0.146379	0.130733	-0.492784	-0.847730
64615	-0.740283	8.581254	4.820058	-0.100856	0.120714	0.056161	0.146524	0.130810	-0.492438	-0.847894
64616	-0.776417	8.604492	4.874847	-0.083728	0.160521	0.105552	0.146669	0.130881	-0.492133	-0.848035
64617	-0.765724	8.603163	4.896444	-0.100773	0.168533	0.113910	0.146807	0.130984	-0.491886	-0.848138
64618	-0.739084	8.640849	4.836927	-0.098144	0.088604	0.116506	0.146928	0.131063	-0.491682	-0.848224
64619	-0.743362	8.665553	4.788461	-0.072663	0.035949	0.115413	0.147062	0.131147	-0.491488	-0.848300
64620	-0.738846	8.687241	4.720932	-0.048294	-0.033159	0.101838	0.147194	0.131197	-0.491333	-0.848359
64621	-0.698101	8.682435	4.719337	-0.084806	-0.050368	0.093596	0.147339	0.131261	-0.491211	-0.848394
64622	-0.730073	8.667941	4.732803	-0.061643	-0.022866	0.089904	0.147479	0.131361	-0.491093	-0.848423
64623	-0.693247	8.702865	4.768914	-0.104249	-0.027822	0.134742	0.147564	0.131391	-0.490893	-0.848519
64624	-0.710672	8.655509	4.750791	-0.086123	-0.017965	0.086058	0.147623	0.131436	-0.490658	-0.848638
64625	-0.665791	8.679326	4.783039	-0.135998	-0.026208	0.118690	0.147656	0.131508	-0.490395	-0.848773
64626	-0.680202	8.668072	4.784304	-0.124814	-0.020563	0.110604	0.147711	0.131655	-0.490108	-0.848907
64627	-0.740529	8.617014	4.783395	-0.076190	0.019959	0.070429	0.147750	0.131823	-0.489868	-0.849012
64628	-0.735148	8.604793	4.781127	-0.083344	0.016888	0.058222	0.147772	0.131984	-0.489674	-0.849095
64629	-0.775901	8.611193	4.823120	-0.062654	0.058832	0.087300	0.147724	0.132110	-0.489534	-0.849165
64630	-0.791813	8.608238	4.808347	-0.045134	0.051272	0.078938	0.147641	0.132246	-0.489417	-0.849225
64631	-0.753880	8.597245	4.818280	-0.087906	0.047271	0.070977	0.147505	0.132368	-0.489368	-0.849259
64632	-0.813152	8.650467	4.750517	-0.005577	-0.010998	0.089790	0.147353	0.132570	-0.489304	-0.849290
64633	-0.879408	8.609896	4.798444	0.027875	0.070312	0.082919	0.147130	0.132723	-0.489344	-0.849282
64634	-0.783932	8.705824	4.790679	-0.051355	-0.017831	0.154939	0.146820	0.132904	-0.489428	-0.849259
64635	-0.762128	8.714604	4.856922	-0.101892	0.022259	0.192510	0.146610	0.133181	-0.489476	-0.849224
64636	-0.836271	8.658534	4.845297	-0.042336	0.068196	0.144221	0.146473	0.133432	-0.489547	-0.849167
64637	-0.827856	8.603246	4.811990	-0.049795	0.066059	0.079207	0.146368	0.133673	-0.489674	-0.849074
64638	-0.857791	8.570101	4.790975	-0.024127	0.079236	0.042718	0.146265	0.133930	-0.489860	-0.848944
64639	-0.865327	8.560800	4.763691	-0.014005	0.068373	0.022146	0.146195	0.134181	-0.490053	-0.848805
64640	-0.904137	8.621315	4.790646	0.012275	0.079684	0.091267	0.146071	0.134444	-0.490252	-0.848670
64641	-0.863105	8.695699	4.770625	-0.015778	0.016515	0.143139	0.145922	0.134665	-0.490452	-0.848545
64642	-0.854831	8.647790	4.723151	-0.016906	0.001166	0.077858	0.145772	0.134888	-0.490597	-0.848452
64643	-0.886058	8.665759	4.762372	-0.007150	0.037704	0.115011	0.145649	0.135172	-0.490704	-0.848366
64644	-0.957405	8.596827	4.775411	0.039715	0.110040	0.067238	0.145557	0.135408	-0.490860	-0.848254
64645	-0.927732	8.554104	4.828177	-0.017474	0.164261	0.052270	0.145474	0.135587	-0.491081	-0.848111
64646	-0.948938	8.615373	4.803873	0.013034	0.129366	0.096168	0.145377	0.135760	-0.491372	-0.847932
64647	-0.962958	8.655666	4.750443	0.046025	0.080079	0.107293	0.145174	0.135784	-0.491752	-0.847742
64648	-0.930597	8.691541	4.741022	0.019786	0.050851	0.131316	0.144915	0.135783	-0.492132	-0.847566
64649	-0.881513	8.758926	4.664768	0.006905	-0.053113	0.149894	0.144674	0.135785	-0.492481	-0.847404
64650	-0.858830	8.849025	4.619132	0.009885	-0.133961	0.205354	0.144425	0.135718	-0.492786	-0.847280
64651	-0.801347	8.834936	4.586471	-0.035007	-0.170988	0.172477	0.144258	0.135759	-0.492947	-0.847209
64652	-0.905405	8.760435	4.666534	0.019626	-0.030513	0.154268	0.144149	0.135825	-0.493028	-0.847169
64653	-0.889186	8.633500	4.729499	-0.035033	0.075060	0.071101	0.144013	0.135826	-0.493196	-0.847095
64654	-0.918432	8.633709	4.759344	-0.021736	0.113717	0.087939	0.143910	0.135874	-0.493414	-0.846977
64655	-0.960577	8.684156	4.715534	0.036998	0.076463	0.115370	0.143783	0.135805	-0.493698	-0.846844
64656	-0.883740	8.817304	4.640852	0.007859	-0.068954	0.190239	0.143635	0.135689	-0.493953	-0.846740
64657	-0.879646	8.861960	4.527468	0.051416	-0.177656	0.175899	0.143471	0.135542	-0.494116	-0.846696
64658	-0.814055	8.831873	4.572380	-0.028714	-0.150785	0.164675	0.143337	0.135424	-0.494168	-0.846707
64659	-0.858840	8.791376	4.571109	0.008933	-0.115693	0.132536	0.143306	0.135407	-0.494158	-0.846721
64660	-0.855788	8.726796	4.653311	-0.031672	-0.020938	0.114105	0.143352	0.135429	-0.494179	-0.846697
64661	-0.857847	8.678145	4.775154	-0.081091	0.101421	0.128708	0.143465	0.135498	-0.494272	-0.846613
64662	-0.879691	8.694441	4.748111	-0.049835	0.083966	0.132270	0.143592	0.135576	-0.494446	-0.846477
64663	-0.903133	8.692590	4.711437	-0.015093	0.068636	0.115528	0.143721	0.135599	-0.494599	-0.846362
64664	-0.864132	8.755381	4.622943	-0.010819	-0.043108	0.125776	0.143846	0.135639	-0.494670	-0.846293
64665	-0.872624	8.695782	4.675383	-0.027931	0.030628	0.098699	0.144100	0.135661	-0.494611	-0.846280
64666	-0.916378	8.623464	4.691904	0.000493	0.094144	0.046774	0.144443	0.135735	-0.494565	-0.846238
64667	-0.895151	8.642639	4.766256	-0.042719	0.137541	0.096548	0.144726	0.135729	-0.494583	-0.846179
64668	-0.921186	8.717519	4.739994	0.001449	0.092769	0.152384	0.144930	0.135740	-0.494559	-0.846157
64669	-0.899118	8.639602	4.798392	-0.047698	0.167731	0.109272	0.145058	0.135715	-0.494572	-0.846131
64670	-0.931821	8.705231	4.816044	-0.015209	0.165896	0.178102	0.145226	0.135636	-0.494672	-0.846057
64671	-0.963407	8.770929	4.833818	0.017405	0.164048	0.246931	0.145307	0.135461	-0.494712	-0.846047
64672	-0.853525	8.896080	4.860758	-0.075205	0.084914	0.359965	0.145362	0.135180	-0.494579	-0.846161
64673	-0.901546	8.851904	4.704335	0.028938	-0.009040	0.252044	0.145454	0.135075	-0.493966	-0.846520
64674	-0.982230	8.726761	4.530219	0.159175	-0.072638	0.067261	0.145385	0.135030	-0.493347	-0.846900
64675	-0.988425	8.844600	4.504816	0.190618	-0.156715	0.159093	0.145209	0.134823	-0.493003	-0.847163
64676	-0.977811	9.056903	4.869551	0.072406	0.023285	0.516414	0.145068	0.134410	-0.492722	-0.847416
64677	-0.710131	8.820095	4.996005	-0.239742	0.120651	0.345381	0.145266	0.134230	-0.491939	-0.847866
64678	-0.858751	8.559962	5.059985	-0.146757	0.331661	0.161393	0.145756	0.134141	-0.490932	-0.848379
64679	-0.905128	8.548605	4.999991	-0.071180	0.287505	0.127637	0.146287	0.133903	-0.489995	-0.848867
64680	-0.991797	8.486413	4.547911	0.182660	-0.024021	-0.135270	0.146844	0.133793	-0.489321	-0.849177
64681	-0.868323	8.568738	4.746749	0.013226	0.037985	0.021297	0.147277	0.133613	-0.488936	-0.849352
64682	-0.782081	8.659634	4.982887	-0.135748	0.141686	0.206871	0.147917	0.133595	-0.488476	-0.849508
64683	-0.895699	8.741706	5.215507	-0.098889	0.318204	0.400547	0.148683	0.133505	-0.487584	-0.849901
64684	-0.794211	8.907940	5.006108	-0.080546	0.017623	0.436042	0.149465	0.133440	-0.486721	-0.850268
64685	-0.938282	8.670268	4.775663	0.118403	-0.010524	0.129482	0.150350	0.133841	-0.485905	-0.850516
64686	-1.097454	8.516375	4.861827	0.218407	0.185500	0.050796	0.150865	0.133760	-0.485797	-0.850499
64687	-1.040900	8.603167	5.089825	0.098754	0.303410	0.232334	0.151190	0.133377	-0.485880	-0.850454
64688	-1.006927	8.563417	4.937252	0.130524	0.191055	0.120536	0.151482	0.132922	-0.485799	-0.850520
64689	-0.984189	8.518313	4.999520	0.091672	0.254001	0.109639	0.151822	0.132434	-0.485808	-0.850530
64690	-0.863351	8.505016	4.821127	0.059261	0.078196	0.001297	0.152071	0.131678	-0.486097	-0.850438
64691	-0.801853	8.633009	4.636272	0.103337	-0.144570	0.017635	0.152316	0.130882	-0.486316	-0.850392
64692	-0.882865	8.562185	4.686390	0.163096	-0.033777	-0.013455	0.152572	0.130274	-0.486445	-0.850366
64693	-1.085676	8.471857	4.917547	0.263709	0.273718	0.035604	0.152666	0.129529	-0.486450	-0.850460
64694	-1.162463	8.490799	4.819728	0.388645	0.220561	0.009485	0.152434	0.128377	-0.486658	-0.850557
64695	-0.950596	8.674942	4.803595	0.240973	0.049637	0.145836	0.151965	0.126978	-0.487487	-0.850376
64696	-0.863031	8.818114	4.585203	0.279337	-0.208302	0.157596	0.151395	0.125176	-0.488161	-0.850359
64697	-0.656060	8.819102	4.716941	0.061682	-0.167324	0.208523	0.150923	0.123567	-0.488925	-0.850238
64698	-0.621866	8.922037	4.632620	0.094572	-0.282260	0.255181	0.150764	0.122195	-0.489286	-0.850257
64699	-0.654763	8.782944	4.828106	0.055464	-0.040323	0.230951	0.150914	0.121126	-0.489490	-0.850267
64700	-0.626260	8.614334	4.655230	0.089338	-0.100617	-0.001879	0.151055	0.119748	-0.489865	-0.850220
64701	-0.526483	8.580442	4.610184	0.029502	-0.144315	-0.059062	0.151343	0.118620	-0.490504	-0.849959
64702	-0.469362	8.617597	4.668190	-0.018176	-0.119360	-0.001437	0.151496	0.117216	-0.491180	-0.849736
64703	-0.357190	8.755997	4.740786	-0.107584	-0.148704	0.149058	0.151711	0.116020	-0.491971	-0.849404
64704	-0.454463	8.760800	4.955421	-0.075378	0.075850	0.262176	0.152220	0.115307	-0.492511	-0.849097
64705	-0.607154	8.819605	4.672506	0.191187	-0.103361	0.184266	0.152473	0.114087	-0.493241	-0.848793
64706	-0.362427	8.689790	4.855988	-0.099697	0.034290	0.147897	0.152792	0.113044	-0.494188	-0.848324
64707	-0.379769	8.538264	4.732203	-0.044191	0.032314	-0.043508	0.152924	0.111761	-0.494889	-0.848061
64708	-0.224851	8.671245	4.728737	-0.148840	-0.068513	0.065323	0.152924	0.110546	-0.495829	-0.847672
64709	-0.236406	8.699609	4.778747	-0.138056	-0.015306	0.114859	0.153069	0.109863	-0.496608	-0.847278
64710	-0.380997	8.784452	4.507586	0.113961	-0.202081	0.065380	0.153068	0.108836	-0.497212	-0.847057
64711	-0.099202	8.910131	4.374471	-0.067709	-0.452093	0.103322	0.152838	0.107455	-0.498186	-0.846702
64712	-0.015924	8.976663	4.453337	-0.147129	-0.426783	0.197762	0.153058	0.106600	-0.498984	-0.846301
64713	-0.261926	8.927623	4.885358	-0.060077	0.050387	0.367274	0.154012	0.106472	-0.499047	-0.846107
64714	-0.594036	8.550367	4.762636	0.244579	0.252598	-0.013672	0.154731	0.105981	-0.499450	-0.845799
64715	-0.430894	8.769328	4.766371	0.138511	0.117093	0.175911	0.155040	0.105132	-0.500544	-0.845201
64716	-0.305766	8.716210	4.646692	0.068015	0.020596	0.069239	0.155434	0.104347	-0.501288	-0.844785
64717	-0.157422	8.735284	4.465441	0.010088	-0.168089	-0.002402	0.155729	0.103220	-0.502286	-0.844276
64718	0.081920	8.767119	4.529694	-0.211542	-0.193828	0.051634	0.156356	0.102344	-0.503146	-0.843755
64719	0.058437	8.592148	4.594493	-0.224152	-0.034864	-0.071728	0.157197	0.101891	-0.503742	-0.843298
64720	-0.018302	8.621325	4.551744	-0.120610	-0.034017	-0.064344	0.157842	0.101220	-0.504614	-0.842737
64721	0.014554	8.768040	4.487123	-0.093739	-0.136594	0.035433	0.158556	0.100718	-0.505782	-0.841962
64722	0.105492	8.909349	4.624806	-0.192386	-0.089779	0.223812	0.159361	0.100481	-0.506845	-0.841199
64723	0.201735	8.882026	4.453431	-0.219323	-0.230372	0.120233	0.160157	0.100098	-0.507602	-0.840637
64724	0.178287	8.755554	4.442024	-0.205063	-0.156071	0.003455	0.160962	0.099882	-0.508366	-0.840047
64725	0.202667	8.779918	4.484491	-0.230802	-0.120263	0.044844	0.161804	0.099830	-0.509130	-0.839428
64726	0.270949	8.864481	4.404949	-0.247359	-0.226200	0.083960	0.162837	0.099912	-0.509950	-0.838721
64727	0.249886	8.957945	4.518236	-0.244696	-0.146092	0.219284	0.164238	0.100275	-0.510393	-0.838135
64728	0.188907	8.958869	4.598742	-0.206160	-0.046969	0.257106	0.165810	0.100429	-0.510398	-0.837803
64729	0.320172	8.855336	4.541768	-0.309408	-0.093911	0.139325	0.166986	0.099920	-0.510533	-0.837549
64730	0.360777	8.737931	4.530940	-0.347333	-0.060983	0.030414	0.168298	0.099844	-0.510700	-0.837194
64731	0.360037	8.698390	4.472252	-0.323936	-0.080918	-0.031013	0.169775	0.100243	-0.511176	-0.836556
64732	0.459132	8.896654	4.481441	-0.377738	-0.174781	0.150810	0.171339	0.100680	-0.512050	-0.835650
64733	0.662452	8.975316	4.446191	-0.530411	-0.297232	0.206995	0.172863	0.100861	-0.512447	-0.835071
64734	0.949040	8.968103	4.277649	-0.726914	-0.535422	0.127672	0.174242	0.101288	-0.512683	-0.834588
64735	0.797489	8.619161	4.395922	-0.693123	-0.238030	-0.132142	0.176138	0.102915	-0.512047	-0.834381
64736	0.525078	8.363306	4.248612	-0.447970	-0.147549	-0.429253	0.177807	0.104707	-0.512336	-0.833627
64737	0.361286	8.437844	4.463784	-0.379343	0.077281	-0.267889	0.179172	0.106488	-0.513153	-0.832606
64738	0.321826	8.649320	4.552587	-0.358063	0.099631	-0.040168	0.180300	0.108251	-0.514070	-0.831568
64739	0.408054	8.703480	4.468972	-0.414191	-0.008385	-0.029174	0.180923	0.109279	-0.514782	-0.830858
64740	0.579046	8.696666	4.475617	-0.588029	-0.058572	-0.032647	0.181350	0.110275	-0.515306	-0.830308
64741	0.715477	8.805665	4.398683	-0.678846	-0.216499	0.030702	0.181791	0.111558	-0.515429	-0.829964
64742	0.713061	8.793971	4.369715	-0.687223	-0.236039	0.006109	0.182405	0.113259	-0.515405	-0.829613
64743	0.416795	8.787230	4.540090	-0.510196	0.025963	0.073692	0.183275	0.115527	-0.515275	-0.829189
64744	0.193379	8.889396	4.513427	-0.308160	0.056216	0.153836	0.183995	0.117611	-0.515391	-0.828665
64745	0.396238	9.122711	4.461170	-0.455141	-0.163186	0.338622	0.184524	0.119252	-0.515713	-0.828113
64746	0.327888	9.087830	4.334308	-0.373812	-0.219910	0.251817	0.185269	0.121088	-0.515806	-0.827621
64747	0.304438	9.147508	4.283977	-0.344509	-0.271202	0.283340	0.185996	0.122721	-0.516078	-0.827048
64748	0.294982	9.233206	4.020218	-0.234700	-0.510104	0.246435	0.186923	0.124380	-0.516188	-0.826522
64749	0.303170	9.335621	4.090863	-0.268180	-0.495620	0.368831	0.187868	0.125821	-0.516160	-0.826107
64750	0.525681	9.448788	3.970703	-0.407283	-0.741037	0.415088	0.188909	0.126950	-0.515637	-0.826024
64751	0.631204	9.391679	3.771050	-0.431579	-0.944608	0.274149	0.190368	0.128340	-0.514432	-0.826226
64752	0.524251	9.408737	3.704813	-0.305584	-0.981474	0.260449	0.192076	0.130042	-0.513205	-0.826327
64753	0.393420	9.451401	3.940533	-0.280951	-0.777339	0.401435	0.193934	0.131863	-0.511826	-0.826460
64754	0.358956	9.420781	4.018230	-0.287691	-0.715444	0.406483	0.195940	0.133466	-0.510434	-0.826590
64755	0.390429	9.486950	3.892005	-0.241173	-0.887814	0.407678	0.198242	0.134902	-0.508588	-0.826946
64756	0.585956	9.290316	3.934353	-0.453612	-0.904609	0.242571	0.201025	0.136438	-0.506572	-0.827260
64757	0.336260	9.172902	4.038344	-0.284290	-0.692797	0.187439	0.204544	0.138386	-0.504652	-0.827247
64758	0.079170	9.177260	4.110779	-0.071710	-0.543316	0.228550	0.208489	0.140297	-0.502832	-0.827048
64759	0.050062	9.139966	3.898826	0.066955	-0.701829	0.099182	0.212651	0.141691	-0.500991	-0.826868
64760	-0.143758	8.967971	3.836659	0.260017	-0.606310	-0.079765	0.217273	0.143324	-0.498905	-0.826647
64761	-0.209845	8.894213	3.766616	0.368975	-0.617290	-0.178316	0.222044	0.144679	-0.496866	-0.826371
64762	-0.104683	8.853168	3.548674	0.411114	-0.837825	-0.319980	0.227169	0.146169	-0.494749	-0.825986
64763	-0.369402	8.823965	3.521137	0.681210	-0.724392	-0.357091	0.232901	0.148484	-0.492465	-0.825341
64764	-0.562700	8.736282	3.685380	0.777951	-0.483218	-0.358459	0.238986	0.151268	-0.489606	-0.824797
64765	-0.768213	8.733403	3.823334	0.907703	-0.292395	-0.295815	0.245305	0.154719	-0.486620	-0.824068
64766	-1.005073	8.972458	4.178097	1.002143	-0.026792	0.085119	0.251713	0.158797	-0.483244	-0.823346
64767	-1.125139	9.171343	4.381161	1.057179	0.075855	0.358379	0.257923	0.162744	-0.480003	-0.822550
64768	-1.192403	9.147497	4.320033	1.147887	0.055348	0.308599	0.264119	0.166266	-0.476979	-0.821637
64769	-1.084479	8.980431	4.157384	1.116584	-0.068640	0.079561	0.270175	0.169356	-0.474706	-0.820353
64770	-0.755385	9.054953	4.010642	0.971360	-0.396821	0.063901	0.276156	0.172284	-0.473180	-0.818631
64771	-0.778076	8.947020	3.920330	1.020331	-0.386815	-0.074473	0.282645	0.175844	-0.471945	-0.816369
64772	-1.258260	8.603386	3.905173	1.305040	0.062951	-0.371041	0.289394	0.179592	-0.470667	-0.813923
64773	-1.131236	8.408285	3.561691	1.346429	-0.138093	-0.711450	0.295669	0.182815	-0.470170	-0.811233
64774	-1.006030	8.513526	3.757056	1.168731	-0.095852	-0.526543	0.302348	0.186785	-0.469356	-0.808333
64775	-1.152234	8.431217	3.922391	1.145605	0.169237	-0.514457	0.309274	0.191186	-0.468153	-0.805376
64776	-1.195054	8.491249	4.178849	1.023981	0.368118	-0.335975	0.316332	0.195930	-0.467161	-0.802064
64777	-1.196827	8.485978	4.466274	0.824320	0.579264	-0.201409	0.323681	0.200586	-0.465949	-0.798679
64778	-1.014916	8.471632	4.649705	0.555247	0.596191	-0.129996	0.331056	0.204917	-0.464998	-0.795102
64779	-0.568583	9.036455	4.771270	0.335680	0.190018	0.414572	0.338088	0.209080	-0.464913	-0.791099
64780	-0.124597	10.308999	5.403570	0.020842	-0.146789	1.826356	0.345315	0.214496	-0.464686	-0.786649
64781	-0.268992	10.393844	5.590319	-0.000276	0.067964	1.992031	0.352939	0.218897	-0.463186	-0.782929
64782	-0.008524	9.954300	5.342021	-0.154699	-0.109767	1.482857	0.360086	0.222328	-0.462220	-0.779269
64783	0.325858	9.329245	4.794695	-0.197416	-0.456243	0.669816	0.367276	0.225148	-0.460841	-0.775914
64784	1.018159	8.788575	4.412373	-0.529930	-1.024845	0.006350	0.374131	0.227740	-0.459700	-0.772552
64785	1.667887	8.752548	4.107006	-0.692971	-1.683437	-0.172036	0.381168	0.231212	-0.458067	-0.769043
64786	1.330422	8.628938	3.908316	-0.366052	-1.491291	-0.370997	0.389313	0.236929	-0.455264	-0.764876
64787	0.529572	8.545695	4.683587	-0.480785	-0.447136	-0.075431	0.398007	0.243325	-0.451733	-0.760474
64788	0.343799	8.588045	4.671596	-0.352723	-0.337581	-0.042420	0.406025	0.248895	-0.448725	-0.756201
64789	0.580424	8.960127	4.565736	-0.262564	-0.704730	0.232266	0.413666	0.254936	-0.445885	-0.751715
64790	0.522517	9.409836	4.714412	-0.181271	-0.722307	0.698691	0.421076	0.261328	-0.443168	-0.746997
64791	0.481683	9.654472	4.692908	-0.058460	-0.780488	0.904196	0.428731	0.267560	-0.439713	-0.742465
64792	0.215008	9.277631	4.666744	-0.058320	-0.498204	0.562641	0.436750	0.273689	-0.435498	-0.738028
64793	0.259653	8.635875	4.372994	-0.095235	-0.535736	-0.144561	0.444790	0.279037	-0.431272	-0.733692
64794	0.487710	8.189762	4.177910	-0.204704	-0.741422	-0.638088	0.452980	0.284579	-0.426885	-0.729104
64795	0.456037	7.952184	4.073330	-0.188390	-0.728837	-0.898069	0.461143	0.290520	-0.422439	-0.724217
64796	0.401458	8.126902	4.072558	-0.084961	-0.746662	-0.744687	0.469139	0.296931	-0.418239	-0.718900
64797	0.407775	8.511459	4.102831	0.050520	-0.849924	-0.393587	0.477050	0.303572	-0.414038	-0.713330
64798	0.331403	8.856361	4.150919	0.180988	-0.857769	-0.065559	0.484920	0.310362	-0.409882	-0.707478
64799	0.253503	9.328243	4.306274	0.270755	-0.855268	0.425453	0.492957	0.317411	-0.405499	-0.701295
64800	-0.078589	9.604826	4.437385	0.375589	-0.582939	0.745167	0.501328	0.324196	-0.400407	-0.695156
64801	-0.190043	9.270588	4.280127	0.407156	-0.480118	0.380596	0.509939	0.329989	-0.394690	-0.689412
64802	-0.124663	8.480433	4.128395	0.198200	-0.468968	-0.393685	0.518758	0.335682	-0.388708	-0.683457
64803	-0.236743	8.064407	4.047254	0.128271	-0.332893	-0.793616	0.527393	0.341391	-0.383244	-0.677077
64804	-0.042860	8.221855	4.021678	0.189688	-0.564782	-0.679251	0.535778	0.347152	-0.378430	-0.670237
64805	0.218239	8.413904	3.910891	0.335489	-0.869795	-0.578654	0.544296	0.353010	-0.373493	-0.663045
64806	0.162146	8.778351	4.246999	0.224287	-0.832973	-0.097824	0.552793	0.359139	-0.368448	-0.655504
64807	-0.054037	8.810963	4.310727	0.216070	-0.626591	-0.026010	0.561328	0.365031	-0.363361	-0.647790
64808	0.005569	8.977344	4.413329	0.198668	-0.702472	0.164150	0.569698	0.370754	-0.358539	-0.639871
64809	-0.090132	9.253558	4.657517	0.120526	-0.631596	0.527307	0.578199	0.376434	-0.353168	-0.631868
64810	-0.200943	9.543230	4.694562	0.230942	-0.550523	0.807864	0.586449	0.381806	-0.348070	-0.623818
64811	-0.337225	9.858407	4.937159	0.162426	-0.443116	1.207962	0.594677	0.387266	-0.342972	-0.615430
64812	-0.473732	9.446774	4.714465	0.168987	-0.269676	0.750969	0.603085	0.391813	-0.337901	-0.607119
64813	-0.121158	8.846366	4.125565	0.430214	-0.536911	-0.075145	0.611191	0.396236	-0.333474	-0.598530
64814	-0.213949	8.785361	3.917001	0.572396	-0.401348	-0.216726	0.619088	0.401670	-0.328920	-0.589239
64815	-0.831341	8.738038	3.931668	0.450282	0.222501	-0.207999	0.626802	0.407812	-0.323856	-0.579591
64816	-1.366739	9.081018	4.065604	0.366980	0.728647	0.197106	0.633981	0.414604	-0.318822	-0.569669
64817	-1.761647	9.592547	4.323033	0.239266	1.064386	0.799491	0.640934	0.421042	-0.313521	-0.560028
64818	-1.762306	9.742501	4.288849	0.271929	1.062337	0.921069	0.647617	0.426215	-0.308376	-0.551214
64819	-1.660466	9.464264	4.025366	0.354407	1.010739	0.550020	0.654288	0.430492	-0.303059	-0.542899
64820	-1.831336	9.073373	4.115874	0.031989	1.138034	0.253300	0.661066	0.434550	-0.297268	-0.534592
64821	-1.912837	9.026342	4.423173	-0.299292	1.124924	0.353097	0.667750	0.438255	-0.291494	-0.526378
64822	-1.851043	9.069433	4.500165	-0.343455	1.038312	0.421393	0.674569	0.441229	-0.285509	-0.518419
64823	-1.868417	8.846718	4.396246	-0.361816	1.066308	0.178031	0.681476	0.443806	-0.279192	-0.510567
64824	-1.868738	8.537115	4.204050	-0.334406	1.101737	-0.183414	0.688279	0.445990	-0.272845	-0.502913
64825	-1.609176	8.435197	4.269897	-0.337961	0.825755	-0.263974	0.694836	0.448430	-0.266652	-0.494985
64826	-1.788356	8.238202	4.489254	-0.666364	0.881404	-0.325925	0.701654	0.451111	-0.259795	-0.486505
64827	-2.177371	8.090498	4.568531	-0.952164	1.168427	-0.389489	0.708329	0.454007	-0.252967	-0.477656
64828	-2.304452	8.227601	4.537677	-0.940721	1.286053	-0.270392	0.714392	0.457359	-0.246843	-0.468547
64829	-2.293580	8.679857	4.537816	-0.772448	1.311842	0.130874	0.720055	0.460842	-0.241060	-0.459385
64830	-2.113421	8.939129	4.484399	-0.571937	1.193934	0.322977	0.725587	0.464052	-0.235424	-0.450283
64831	-2.135140	8.876637	4.263052	-0.478601	1.289930	0.168996	0.731079	0.467240	-0.229725	-0.440950
64832	-2.269441	8.893361	4.310545	-0.619663	1.368325	0.215598	0.736270	0.470499	-0.224379	-0.431498
64833	-2.152707	8.860093	4.170404	-0.516810	1.321941	0.112677	0.741261	0.473262	-0.219534	-0.422327
64834	-1.922239	8.750124	3.927578	-0.307304	1.230937	-0.113425	0.745975	0.476047	-0.214884	-0.413189
64835	-1.907251	8.769070	3.858732	-0.291995	1.255029	-0.129536	0.750505	0.478968	-0.210217	-0.403907
64836	-2.063453	8.782214	4.040814	-0.557308	1.273175	-0.025884	0.754959	0.481798	-0.205373	-0.394625
64837	-1.979110	8.685837	3.893196	-0.492107	1.258302	-0.185024	0.759163	0.484453	-0.200836	-0.385540
64838	-1.846752	8.753398	3.678584	-0.287795	1.291872	-0.230804	0.763202	0.486808	-0.196578	-0.376695
64839	-1.795062	8.726805	3.778366	-0.380018	1.182915	-0.215212	0.767139	0.489279	-0.192110	-0.367692
64840	-1.908209	8.682864	3.838297	-0.556498	1.212624	-0.221776	0.771122	0.491587	-0.187415	-0.358592
64841	-1.868181	8.395997	3.711632	-0.600327	1.180471	-0.538801	0.774830	0.493910	-0.183119	-0.349512
64842	-1.962041	8.233165	3.741507	-0.790688	1.172889	-0.667611	0.778515	0.496278	-0.178505	-0.340233
64843	-2.056013	8.205408	3.746696	-0.920597	1.208732	-0.686635	0.781901	0.498802	-0.174132	-0.330916
64844	-2.072708	8.340325	3.845009	-0.996702	1.170112	-0.524069	0.785193	0.501060	-0.169725	-0.321876
64845	-1.811158	8.995418	4.138195	-0.805159	0.959011	0.175019	0.788014	0.503480	-0.165500	-0.313294
64846	-1.557675	9.077489	4.137404	-0.625996	0.800337	0.232848	0.791029	0.505212	-0.161178	-0.305050
64847	-1.266310	9.617054	4.565083	-0.503249	0.459673	0.886219	0.793624	0.507319	-0.156922	-0.296924
64848	-1.098829	10.362730	5.076215	-0.445154	0.198353	1.768504	0.796223	0.509237	-0.152239	-0.289018
64849	-1.407494	10.163694	5.225627	-0.837155	0.207589	1.669689	0.799241	0.510136	-0.147556	-0.281430
64850	-1.010733	9.521352	5.256666	-0.734699	-0.254077	1.082536	0.801791	0.510977	-0.144261	-0.274266
64851	-0.412504	9.169371	4.984328	-0.230757	-0.509610	0.616985	0.803907	0.512155	-0.141463	-0.267242
64852	-0.456997	8.929571	4.730545	-0.225024	-0.372053	0.293502	0.805950	0.513612	-0.137943	-0.260037
64853	-0.542553	8.442194	4.472166	-0.317114	-0.294123	-0.253494	0.807838	0.514855	-0.134735	-0.253315
64854	-0.194873	8.418927	4.454962	-0.041044	-0.486208	-0.298232	0.809101	0.516689	-0.132079	-0.246868
64855	0.101889	8.462902	4.348046	0.253328	-0.556291	-0.317271	0.810459	0.518428	-0.129056	-0.240276
64856	0.043743	8.471847	4.297203	0.214138	-0.493573	-0.328461	0.811714	0.520445	-0.125729	-0.233346
64857	0.018985	8.592230	4.460334	0.135061	-0.582608	-0.150201	0.812945	0.522421	-0.122355	-0.226330
64858	0.185203	8.542308	4.310789	0.319628	-0.573826	-0.265082	0.814274	0.524241	-0.118773	-0.219141
64859	0.155499	8.718639	4.392955	0.288716	-0.575165	-0.069859	0.815537	0.526258	-0.114827	-0.211583
64860	0.234951	8.992561	4.358378	0.423002	-0.498135	0.161766	0.816811	0.528075	-0.110941	-0.204080
64861	0.439251	8.980567	4.483447	0.546012	-0.699541	0.195177	0.818298	0.529534	-0.106818	-0.196399
64862	0.219944	8.975349	4.753801	0.243258	-0.829517	0.309398	0.819926	0.530765	-0.102435	-0.188460
64863	0.051435	8.743677	4.926626	-0.016505	-0.983982	0.175189	0.821662	0.531509	-0.098377	-0.180809
64864	0.345453	8.782840	4.680615	0.345310	-0.874898	0.100995	0.822922	0.532589	-0.094903	-0.173614
64865	0.526105	9.046379	4.747792	0.533939	-0.902230	0.363568	0.824038	0.533786	-0.091117	-0.166530
64866	0.508445	9.163323	4.774335	0.529154	-0.873689	0.481775	0.825101	0.534860	-0.087381	-0.159680
64867	0.555127	9.218082	4.587599	0.642162	-0.705545	0.454596	0.826205	0.535772	-0.083380	-0.152909
64868	0.438676	9.133513	4.454616	0.563280	-0.578868	0.326579	0.827213	0.536729	-0.079164	-0.146195
64869	0.465476	9.119018	4.330934	0.625340	-0.483218	0.262312	0.828092	0.537652	-0.075241	-0.139760
64870	0.629594	9.048083	4.199532	0.808220	-0.442636	0.139756	0.828869	0.538554	-0.071424	-0.133548
64871	0.741779	8.981232	4.106219	0.933592	-0.413593	0.037751	0.829646	0.539362	-0.067403	-0.127409
64872	0.692073	8.933596	4.072617	0.895702	-0.382044	-0.018502	0.830394	0.540210	-0.062930	-0.121071
64873	0.617768	8.910351	4.112587	0.823110	-0.400318	-0.022305	0.831177	0.540879	-0.058450	-0.114801
64874	0.781469	9.039977	4.062445	1.019336	-0.340290	0.070656	0.831777	0.541685	-0.054122	-0.108605
64875	0.820480	8.994477	4.157775	1.044901	-0.441528	0.065273	0.832598	0.542118	-0.049400	-0.102219
64876	0.782477	8.884744	4.194163	1.005398	-0.491494	-0.020369	0.833476	0.542357	-0.044622	-0.095795
64877	0.734114	8.495402	4.039159	0.960595	-0.474171	-0.438364	0.834385	0.542446	-0.039726	-0.089309
64878	0.592022	8.555076	4.226545	0.816126	-0.577513	-0.304592	0.835040	0.542815	-0.034878	-0.082719
64879	0.610454	8.517247	4.204699	0.852220	-0.559490	-0.349270	0.835923	0.542707	-0.030048	-0.076157
64880	0.764976	8.574495	3.992117	1.053080	-0.349159	-0.388610	0.836521	0.542908	-0.025355	-0.069576
64881	0.745163	8.705035	3.980930	1.058538	-0.266919	-0.273877	0.837104	0.543068	-0.020359	-0.062610
64882	0.759721	8.828119	4.057293	1.087378	-0.271318	-0.131859	0.837587	0.543252	-0.015385	-0.055575
64883	0.551136	9.330838	4.255426	0.916130	-0.214862	0.414308	0.837947	0.543516	-0.009919	-0.048336
64884	0.190096	9.673226	4.626848	0.578679	-0.366680	0.889917	0.838754	0.542946	-0.004098	-0.041054
64885	0.083528	9.502204	4.660752	0.484842	-0.425600	0.751643	0.839914	0.541647	0.001196	-0.034090
64886	-0.069248	9.340383	4.784364	0.344262	-0.556276	0.661545	0.841029	0.540270	0.006647	-0.027113
64887	-0.244991	8.784485	4.813679	0.164360	-0.764951	0.176625	0.842237	0.538602	0.011604	-0.020258
64888	-0.162195	8.158392	4.752119	0.235385	-0.933296	-0.418978	0.843172	0.537245	0.015825	-0.013345
64889	-0.032922	8.119933	4.583617	0.368825	-0.770397	-0.527518	0.843670	0.536459	0.019794	-0.006374
64890	-0.054144	8.844432	4.703910	0.382042	-0.563159	0.181839	0.843687	0.536279	0.024428	0.000916
64891	-0.540219	9.350155	4.658390	-0.081164	-0.320204	0.642393	0.843774	0.535811	0.029670	0.008463
64892	-0.888142	9.416436	4.667412	-0.415513	-0.318636	0.721477	0.843718	0.535442	0.034514	0.015839
64893	-0.907803	9.274555	4.414904	-0.453676	-0.154751	0.487948	0.843711	0.534907	0.038745	0.022921
64894	-0.942941	9.073496	3.955310	-0.536428	0.168442	0.114337	0.843565	0.534471	0.042997	0.029833
64895	-1.034941	8.872378	3.877819	-0.639540	0.138560	-0.096749	0.843444	0.533874	0.047297	0.036658
64896	-1.039962	8.514446	3.947310	-0.633660	-0.081586	-0.391945	0.843212	0.533318	0.051612	0.043607
64897	-1.398788	8.533540	4.288538	-0.935742	-0.439512	-0.215779	0.842755	0.532877	0.056599	0.051011
64898	-1.919343	8.463168	4.694372	-1.366741	-0.923367	-0.085119	0.842690	0.531615	0.061886	0.058558
64899	-1.904253	8.264727	4.644415	-1.335480	-0.970414	-0.284978	0.842460	0.530693	0.066036	0.065310
64900	-1.722513	8.441341	4.566780	-1.168748	-0.811152	-0.166196	0.841802	0.530472	0.069608	0.071579
64901	-1.758899	8.509852	4.713203	-1.169091	-0.942924	-0.041830	0.841063	0.530183	0.073582	0.078128
64902	-2.001999	8.478472	4.831356	-1.365825	-1.134769	-0.010583	0.840452	0.529615	0.077490	0.084518
64903	-2.067412	8.644874	4.827660	-1.427162	-1.101230	0.140441	0.839636	0.529410	0.080922	0.090490
64904	-2.090259	9.039198	4.937191	-1.440525	-1.064601	0.543161	0.838900	0.529118	0.083976	0.096071
64905	-1.855190	9.062443	4.875902	-1.228198	-0.962769	0.526975	0.838310	0.528699	0.086440	0.101203
64906	-1.549862	9.077188	4.772820	-0.966329	-0.804367	0.482767	0.837579	0.528512	0.088630	0.106214
64907	-1.262358	8.870853	4.621189	-0.723288	-0.700527	0.218615	0.836668	0.528598	0.090512	0.111257
64908	-1.121367	8.876977	4.351181	-0.676874	-0.449258	0.103507	0.835634	0.528823	0.092359	0.116330
64909	-0.955784	8.799360	3.925374	-0.649758	-0.091537	-0.152452	0.834548	0.529114	0.094038	0.121347
64910	-0.872933	8.681551	4.002176	-0.554101	-0.206959	-0.231517	0.833369	0.529306	0.096262	0.126750
64911	-1.238221	8.530868	4.253542	-0.818103	-0.625053	-0.255414	0.832200	0.529268	0.098949	0.132394
64912	-1.193633	8.638829	4.222527	-0.803743	-0.570554	-0.173589	0.830813	0.529694	0.101178	0.137611
64913	-1.089416	8.823766	4.135195	-0.762092	-0.422462	-0.046105	0.829323	0.530167	0.103626	0.142858
64914	-1.089420	8.724652	4.139874	-0.753016	-0.497941	-0.136433	0.827947	0.530345	0.106194	0.148189
64915	-1.041711	8.563074	4.030803	-0.728414	-0.483315	-0.331417	0.826360	0.530770	0.108750	0.153577
64916	-0.861860	8.784766	3.871984	-0.652335	-0.237634	-0.198896	0.824428	0.531722	0.111129	0.158874
64917	-0.853061	9.161273	3.989002	-0.660356	-0.230696	0.191281	0.822697	0.532001	0.114203	0.164627
64918	-1.013250	9.158088	3.933083	-0.830746	-0.279280	0.167202	0.821210	0.531817	0.117295	0.170372
64919	-0.979971	9.274743	4.072147	-0.767361	-0.364849	0.328396	0.819656	0.531625	0.120527	0.176103
64920	-0.994483	9.220763	4.103621	-0.757934	-0.440927	0.290889	0.818134	0.531205	0.124018	0.181929
64921	-1.110788	9.207453	4.200291	-0.817163	-0.599474	0.317777	0.816485	0.530865	0.127501	0.187824
64922	-1.012439	9.029023	4.077333	-0.747579	-0.546833	0.102702	0.814744	0.530726	0.130507	0.193623
64923	-0.525816	9.081737	3.784880	-0.453843	-0.096689	0.029281	0.812933	0.530770	0.133140	0.199241
64924	-0.257071	9.528681	3.895612	-0.259500	0.071131	0.481252	0.811101	0.530476	0.136279	0.205279
64925	-0.131459	9.532568	3.889581	-0.170460	0.130027	0.481484	0.809957	0.528862	0.139376	0.211776
64926	-0.232995	9.679400	4.158646	-0.184914	-0.075107	0.722945	0.808696	0.527032	0.143077	0.218579
64927	-0.544131	9.834196	4.465532	-0.356188	-0.404309	0.988148	0.807781	0.524465	0.146862	0.225519
64928	-0.282382	9.845705	4.570561	-0.104942	-0.317287	1.040693	0.806997	0.521754	0.150213	0.232305
64929	0.067961	9.350806	4.424119	0.197728	-0.148973	0.529144	0.806281	0.518539	0.153679	0.239606
64930	0.105350	8.829552	4.176028	0.187888	-0.080520	-0.046965	0.805244	0.515566	0.156969	0.247253
64931	0.321766	8.831337	4.029248	0.253116	0.178920	-0.105235	0.803885	0.513060	0.159948	0.254865
64932	0.402740	8.825645	4.069418	0.301939	0.218400	-0.092846	0.802391	0.510180	0.163500	0.262969
64933	0.134150	8.582506	4.276070	0.222552	-0.142430	-0.226646	0.800881	0.506818	0.167473	0.271438
64934	0.214833	8.376109	4.410470	0.384172	-0.225654	-0.354414	0.799240	0.503665	0.171205	0.279688
64935	0.308289	8.335806	4.645474	0.575126	-0.313828	-0.287367	0.797283	0.500578	0.175405	0.288087
64936	0.353702	8.385629	4.677769	0.593245	-0.257245	-0.225865	0.795238	0.497551	0.179462	0.296367
64937	0.716490	8.787721	4.657350	0.716353	0.153965	0.131725	0.792818	0.494972	0.183623	0.304507
64938	0.756486	9.072723	4.567925	0.580810	0.362191	0.350178	0.790452	0.491892	0.188056	0.312831
64939	0.588918	8.865042	4.539107	0.475875	0.233664	0.150148	0.788055	0.488779	0.192390	0.321016
64940	0.662631	9.085679	4.669322	0.517010	0.298521	0.406643	0.785419	0.486058	0.196825	0.328824
64941	0.625476	9.173099	4.419520	0.285853	0.480766	0.373392	0.782694	0.483397	0.201428	0.336370
64942	0.747418	9.107203	4.362284	0.339195	0.604965	0.289205	0.779748	0.480920	0.206195	0.343792
64943	0.835608	8.752739	4.351340	0.500129	0.589096	-0.032828	0.776505	0.478717	0.211173	0.351106
64944	0.901434	8.627760	4.605574	0.756340	0.468105	-0.031535	0.772845	0.476787	0.216595	0.358429
64945	0.807056	8.312535	4.565065	0.789746	0.342201	-0.333840	0.768688	0.475444	0.222363	0.365551
64946	0.764332	8.647624	4.267472	0.473045	0.561861	-0.167106	0.763469	0.475625	0.228714	0.372271
64947	0.783568	9.227660	4.049298	0.174414	0.818981	0.260001	0.757867	0.476175	0.235011	0.379031
64948	1.019856	9.506888	3.516245	-0.129607	1.322726	0.287726	0.752347	0.476532	0.240875	0.385838
64949	1.084067	9.302129	3.235128	-0.210023	1.434579	-0.011225	0.747136	0.475667	0.246925	0.393137
64950	1.013777	8.951273	3.196873	-0.149469	1.289505	-0.342322	0.742052	0.474301	0.252953	0.400515
64951	1.018900	8.701918	3.330527	0.044545	1.157284	-0.511470	0.737077	0.472394	0.258933	0.408063
64952	0.989839	8.692932	3.433764	0.111122	1.074864	-0.476205	0.731988	0.470233	0.264921	0.415802
64953	0.965331	8.795573	3.539036	0.140959	1.022123	-0.338822	0.726819	0.467860	0.270741	0.423721
64954	0.935533	8.881714	3.758179	0.260231	0.914279	-0.170056	0.721617	0.465017	0.276384	0.432018
64955	0.928177	8.813982	3.817766	0.311125	0.874043	-0.207359	0.716445	0.461615	0.281847	0.440660
64956	0.921720	8.755862	3.914992	0.383130	0.827313	-0.220475	0.711165	0.457884	0.287216	0.449549
64957	0.764982	8.890790	3.843291	0.179585	0.744607	-0.126848	0.705665	0.454126	0.292540	0.458505
64958	0.605268	9.244867	3.840586	-0.051003	0.661952	0.194467	0.700264	0.449841	0.297685	0.467607
64959	0.539375	9.716277	4.003224	-0.153355	0.621913	0.690282	0.694855	0.445459	0.302784	0.476513
64960	0.402452	10.113424	4.583732	0.099281	0.376729	1.291453	0.689655	0.440248	0.307841	0.485584
64961	0.175706	9.895963	4.661469	0.133810	0.135475	1.125950	0.684696	0.434777	0.312564	0.494434
64962	0.114883	10.005076	4.687210	0.051352	0.110377	1.235827	0.679801	0.429516	0.316924	0.502937
64963	0.365266	9.122184	4.065998	-0.107217	0.422970	0.171764	0.675125	0.423877	0.320645	0.511587
64964	0.465867	8.851121	4.257785	0.143575	0.463888	0.008312	0.669846	0.418088	0.325153	0.520369
64965	-0.025337	8.635064	4.527138	0.304128	-0.059386	-0.067760	0.664493	0.411365	0.330015	0.529451
64966	-0.524508	8.442696	4.582786	0.292765	-0.534041	-0.211383	0.658905	0.404803	0.334953	0.538317
64967	-0.816511	8.562693	4.724749	0.296281	-0.795022	-0.035689	0.652900	0.398866	0.340135	0.546751
64968	-0.802684	8.747506	4.877269	0.353831	-0.754873	0.200095	0.646694	0.393514	0.345234	0.554750
64969	-0.662360	8.915263	4.829544	0.262579	-0.573271	0.328689	0.640281	0.388652	0.350036	0.562553
64970	-0.555249	8.730427	4.632790	0.187099	-0.443529	0.074662	0.633477	0.383804	0.354902	0.570479
64971	-0.660929	8.381450	4.344455	0.082843	-0.536003	-0.364637	0.626435	0.379074	0.359657	0.578385
64972	-0.739109	8.634804	4.209393	-0.136462	-0.594909	-0.197465	0.618912	0.375074	0.364805	0.585820
64973	-0.817376	8.962144	4.080217	-0.377342	-0.665144	0.038783	0.611656	0.370627	0.369422	0.593329
64974	-0.710705	8.794782	3.742194	-0.590348	-0.568000	-0.263543	0.604710	0.365831	0.373775	0.600655
64975	-0.800867	8.898352	3.837228	-0.541302	-0.660382	-0.126757	0.597570	0.360616	0.378597	0.607890
64976	-1.203440	8.873983	4.028224	-0.336097	-1.050606	-0.055348	0.590712	0.354898	0.383104	0.615092
64977	-1.298268	9.124114	4.252504	-0.234553	-1.120613	0.272347	0.584255	0.349147	0.387363	0.621846
64978	-1.305882	9.294397	4.298331	-0.267793	-1.106740	0.447437	0.578044	0.342905	0.391491	0.628503
64979	-1.587550	9.215703	4.493735	-0.035441	-1.337087	0.475850	0.571891	0.336168	0.395440	0.635262
64980	-1.687436	9.298502	4.574406	0.004615	-1.400905	0.592703	0.565838	0.330005	0.398889	0.641725
64981	-1.509632	9.198183	4.383289	-0.153294	-1.230301	0.412850	0.559762	0.323741	0.401846	0.648365
64982	-1.610679	8.747366	4.284250	-0.029052	-1.310533	-0.027641	0.553395	0.317299	0.404806	0.655140
64983	-1.755114	8.597623	4.434638	0.189831	-1.399799	-0.082834	0.546709	0.310931	0.407888	0.661860
64984	-1.683581	8.708778	4.514749	0.186070	-1.306067	0.052391	0.540011	0.304804	0.410641	0.668473
64985	-1.512342	8.748821	4.396511	0.017094	-1.159126	0.026747	0.533069	0.298438	0.413411	0.675176
64986	-1.604429	8.675268	4.494138	0.149634	-1.209022	0.013177	0.525763	0.292190	0.416190	0.681897
64987	-1.501147	8.447928	4.444965	0.180241	-1.093443	-0.213180	0.518379	0.286048	0.418778	0.688538
64988	-1.412334	8.265216	4.489735	0.268999	-0.967471	-0.354472	0.510789	0.279699	0.421524	0.695112
64989	-1.621413	8.251090	4.646677	0.468389	-1.100249	-0.280054	0.502955	0.273327	0.424444	0.701552
64990	-1.646970	8.233005	4.730611	0.555888	-1.074746	-0.251859	0.494960	0.267153	0.427431	0.707776
64991	-1.620300	8.425662	4.686343	0.429312	-1.072260	-0.104708	0.486681	0.261181	0.430700	0.713740
64992	-1.743815	8.333745	4.648315	0.505372	-1.164141	-0.195601	0.478283	0.255163	0.433933	0.719611
64993	-1.855720	8.236043	4.738038	0.689054	-1.189012	-0.229555	0.469688	0.249447	0.437458	0.725120
64994	-1.627241	8.384169	4.751387	0.560653	-0.975784	-0.104378	0.460938	0.244149	0.441120	0.730301
64995	-1.492075	8.709775	4.568095	0.246152	-0.966303	0.084759	0.451740	0.238691	0.445255	0.735326
64996	-1.651736	8.735468	4.311925	0.156973	-1.202184	-0.006602	0.442558	0.233134	0.448897	0.740461
64997	-1.437327	8.805923	4.252960	0.017567	-1.041386	0.016496	0.433307	0.228250	0.452822	0.745050
64998	-1.189328	9.071882	4.298717	-0.150335	-0.848597	0.259535	0.423913	0.222954	0.456687	0.749684
64999	-1.281204	8.964969	4.231149	-0.066155	-0.919725	0.140422	0.414286	0.217156	0.460433	0.754462
65000	-1.230577	9.213666	4.400230	-0.044109	-0.831537	0.437897	0.404509	0.211540	0.464024	0.759148
65001	-1.128480	9.659155	4.779331	0.007780	-0.635294	1.004475	0.394523	0.205569	0.467555	0.763862
65002	-1.358516	10.293661	5.352785	0.302811	-0.634947	1.847605	0.384382	0.198956	0.470745	0.768808
65003	-1.455462	9.956661	5.285441	0.463568	-0.650117	1.525381	0.374411	0.192536	0.472713	0.774137
65004	-1.262649	9.137341	4.973118	0.467807	-0.472677	0.645557	0.364367	0.187076	0.474398	0.779221
65005	-0.950609	8.650315	4.679216	0.278501	-0.294656	0.059609	0.354253	0.182122	0.476064	0.784027
65006	-0.592741	8.325664	4.173466	-0.137047	-0.274416	-0.485755	0.344329	0.177579	0.477603	0.788542
65007	-0.272940	8.300845	4.047108	-0.410909	-0.143698	-0.584034	0.334295	0.172412	0.479408	0.792899
65008	-0.286330	8.543372	4.272744	-0.348669	-0.101258	-0.263045	0.323991	0.166139	0.481254	0.797385
65009	-0.487287	8.487712	4.479046	-0.070081	-0.097757	-0.204043	0.313862	0.159359	0.482469	0.802072
65010	-0.323033	8.424823	4.514220	-0.169009	0.034901	-0.250767	0.304339	0.153072	0.483326	0.806439
65011	-0.039251	8.683468	4.553324	-0.474443	0.129879	-0.020096	0.295150	0.146752	0.484247	0.810466
65012	0.045354	9.218423	4.886497	-0.575128	0.204121	0.603004	0.285911	0.139686	0.485202	0.814446
65013	-0.132023	9.300374	5.054893	-0.415613	0.165557	0.763984	0.276710	0.132405	0.485819	0.818462
65014	-0.178207	8.937125	4.849699	-0.397548	0.099232	0.348785	0.267643	0.125759	0.486281	0.822242
65015	0.120098	8.976527	4.846867	-0.681484	0.223649	0.364251	0.258581	0.119961	0.487152	0.825487
65016	0.363911	8.941389	4.719131	-0.947637	0.244448	0.256731	0.249443	0.114294	0.487847	0.828686
65017	0.412982	8.698057	4.669253	-0.953283	0.294301	0.017531	0.240140	0.108478	0.488456	0.831851
65018	0.440310	8.599714	4.797968	-0.910355	0.413387	-0.006071	0.230763	0.102861	0.489157	0.834802
65019	0.518570	8.435828	4.676403	-0.994668	0.392542	-0.212828	0.221282	0.097152	0.489815	0.837661
65020	0.609381	8.249239	4.555335	-1.081800	0.386799	-0.439727	0.211621	0.091496	0.490694	0.840276
65021	0.634340	7.934966	4.518446	-1.046550	0.472985	-0.731754	0.201731	0.085605	0.491529	0.842838
65022	0.643819	7.967867	4.477512	-1.085531	0.406066	-0.723891	0.191691	0.080113	0.492854	0.844945
65023	0.888742	8.263830	4.464932	-1.385830	0.340967	-0.486407	0.181530	0.074738	0.494067	0.846971
65024	0.834620	8.425814	4.533558	-1.355759	0.272541	-0.308394	0.170770	0.068404	0.494854	0.849281
65025	0.622932	8.095870	4.550503	-1.087387	0.323820	-0.574134	0.159739	0.062223	0.495467	0.851542
65026	0.488191	7.896457	4.619085	-0.905551	0.396903	-0.704960	0.148418	0.056054	0.496195	0.853593
65027	0.253445	8.336799	4.792365	-0.727960	0.249292	-0.224093	0.136958	0.049871	0.497294	0.855251
65028	0.094137	9.794400	5.351980	-0.718288	-0.007961	1.325841	0.125695	0.043306	0.498416	0.856683
65029	-0.602259	10.332792	5.616803	-0.098060	-0.221203	1.960977	0.114528	0.035323	0.498432	0.858604
65030	-1.332009	8.989216	5.347631	0.756002	0.009125	0.704238	0.103890	0.028006	0.497783	0.860601
65031	-0.985191	8.225139	5.148699	0.491965	0.282367	-0.075602	0.093965	0.022787	0.498490	0.861486
65032	-0.638101	8.380816	5.128404	0.126233	0.268815	0.028937	0.084117	0.017115	0.499142	0.862258
65033	-0.875751	8.337893	4.890979	0.337738	0.063838	-0.112640	0.074525	0.011605	0.499886	0.862801
65034	-0.582626	8.518154	4.668123	0.016081	-0.155139	-0.083074	0.065054	0.006933	0.500983	0.862981
65035	-0.451845	8.689717	4.535867	-0.120304	-0.318304	-0.005874	0.055442	0.002264	0.501968	0.863105
65036	-0.405318	8.803051	4.402773	-0.160150	-0.467116	0.025934	0.046069	-0.002337	0.502919	0.863102
65037	-0.432737	9.130534	4.502691	-0.134675	-0.523106	0.362592	0.036630	-0.007555	0.503755	0.863037
65038	-0.802154	9.112581	4.630021	0.251073	-0.403139	0.429094	0.027076	-0.013084	0.504267	0.863024
65039	-1.086101	8.756121	4.701609	0.563143	-0.152265	0.167995	0.017637	-0.018553	0.504747	0.862888
65040	-1.300824	8.452266	4.814996	0.791760	0.122861	-0.031324	0.008340	-0.023939	0.505239	0.862607
65041	-1.483978	8.253469	4.732138	0.982740	0.185019	-0.235895	-0.000781	-0.029266	0.505756	0.862180
65042	-1.627342	8.077769	4.791882	1.121102	0.367185	-0.353888	-0.009638	-0.034533	0.506269	0.861630
65043	-1.683497	8.021918	4.683849	1.176428	0.346828	-0.452169	-0.018160	-0.039716	0.506970	0.860857
65044	-1.746864	8.275561	4.780961	1.216197	0.363676	-0.180325	-0.026466	-0.044942	0.507790	0.859901
65045	-1.684662	8.720032	4.899403	1.128387	0.301264	0.262874	-0.034429	-0.049910	0.508737	0.858784
65046	-1.717053	9.163849	4.969964	1.141702	0.206398	0.688677	-0.042272	-0.055082	0.509336	0.857762
65047	-1.919430	9.084236	4.777601	1.354327	0.148422	0.539928	-0.049992	-0.060161	0.509560	0.856872
65048	-2.013220	8.756012	4.521102	1.467795	0.143081	0.136484	-0.057358	-0.064944	0.510313	0.855613
65049	-1.911823	8.699874	4.669856	1.326621	0.336065	0.151113	-0.064489	-0.069624	0.511122	0.854253
65050	-1.915672	8.636365	4.561052	1.332249	0.324546	0.045271	-0.071371	-0.074272	0.511817	0.852897
65051	-1.853579	8.687183	4.406453	1.289674	0.207858	0.016505	-0.078003	-0.078706	0.512733	0.851367
65052	-1.738561	8.750065	4.261325	1.200545	0.084963	0.000382	-0.084640	-0.082944	0.513797	0.849688
65053	-1.746519	8.882360	4.231603	1.214432	0.059013	0.105706	-0.091288	-0.087057	0.514826	0.847963
65054	-1.703115	8.834246	4.105786	1.196940	0.020142	0.004066	-0.097719	-0.090633	0.515950	0.846187
65055	-1.496787	8.747939	3.783367	1.077655	-0.212498	-0.227601	-0.103992	-0.094053	0.517272	0.844257
65056	-1.500442	8.891801	3.857545	1.072271	-0.150696	-0.064696	-0.110458	-0.097983	0.518479	0.842245
65057	-1.648494	8.880532	3.915557	1.191999	0.005055	-0.040695	-0.116883	-0.101902	0.519390	0.840350
65058	-1.752360	8.873834	3.819217	1.313131	0.015915	-0.082464	-0.123242	-0.105818	0.520388	0.838338
65059	-1.830147	9.002068	4.004733	1.333202	0.203460	0.117340	-0.129481	-0.109703	0.521292	0.836334
65060	-1.840969	9.329790	4.206770	1.299776	0.298678	0.500031	-0.135487	-0.113541	0.522084	0.834374
65061	-1.940858	9.263583	4.114456	1.407558	0.336231	0.405687	-0.141333	-0.117028	0.522528	0.832643
65062	-1.833707	9.247755	4.177246	1.279735	0.406030	0.411307	-0.146916	-0.119997	0.523104	0.830890
65063	-1.614455	9.367877	4.152954	1.099809	0.303862	0.497915	-0.152354	-0.122676	0.523692	0.829147
65064	-1.274192	9.960472	4.440975	0.758981	0.217011	1.138731	-0.157588	-0.125019	0.523913	0.827679
65065	-0.879655	10.539548	4.632894	0.414315	0.015207	1.726274	-0.162886	-0.127199	0.523369	0.826664
65066	-0.681961	10.155013	4.511527	0.255397	-0.007348	1.317357	-0.168591	-0.129252	0.522193	0.825945
65067	-0.616034	9.350702	4.504346	0.114775	0.274091	0.580382	-0.174535	-0.131246	0.521025	0.825133
65068	-0.546523	8.785718	4.291098	0.081252	0.296897	-0.024621	-0.180241	-0.132997	0.520415	0.824010
65069	-0.435927	8.612471	4.162755	0.031896	0.227436	-0.239788	-0.185518	-0.134549	0.520311	0.822652
65070	-0.278349	8.415384	4.090197	-0.090409	0.187891	-0.454143	-0.190734	-0.136519	0.519725	0.821504
65071	-0.309278	8.571978	4.145435	-0.046251	0.192581	-0.287990	-0.195913	-0.138964	0.519015	0.820323
65072	-0.343387	8.770810	4.383854	-0.075411	0.323676	-0.006937	-0.200915	-0.141365	0.517966	0.819366
65073	-0.223143	8.742245	4.474618	-0.213635	0.339632	0.002495	-0.205644	-0.143417	0.516505	0.818758
65074	-0.096045	8.704437	4.554730	-0.352954	0.338893	-0.000320	-0.210029	-0.145378	0.515034	0.818225
65075	-0.103880	8.867123	4.752235	-0.392877	0.416531	0.231838	-0.214060	-0.147293	0.513469	0.817822
65076	0.122922	8.927101	4.682621	-0.530121	0.205349	0.252695	-0.217520	-0.148658	0.512126	0.817504
65077	0.515125	8.822965	4.504553	-0.785669	-0.109903	0.075268	-0.220670	-0.149659	0.511055	0.817147
65078	0.761391	8.450597	4.334150	-0.972196	-0.244099	-0.337860	-0.223851	-0.150799	0.509879	0.816807
65079	0.922042	8.196049	4.241803	-1.100453	-0.318955	-0.609128	-0.227055	-0.152048	0.508898	0.816303
65080	1.017925	8.127709	4.389645	-1.252943	-0.244976	-0.607532	-0.230259	-0.153366	0.508026	0.815702
65081	1.034544	8.168483	4.347930	-1.224891	-0.311958	-0.587657	-0.233574	-0.154865	0.507312	0.814920
65082	0.920871	8.211792	4.399387	-1.134556	-0.235612	-0.523263	-0.237015	-0.156485	0.506719	0.813985
65083	0.796745	8.215844	4.486976	-1.066063	-0.104614	-0.478856	-0.240436	-0.158116	0.506568	0.812760
65084	0.773555	8.046053	4.367393	-1.018648	-0.112059	-0.682448	-0.243849	-0.159538	0.506664	0.811405
65085	0.821195	7.907629	4.135551	-0.964607	-0.246236	-0.906701	-0.247210	-0.160808	0.507225	0.809784
65086	0.907115	8.289339	4.259551	-1.004208	-0.315766	-0.508304	-0.250373	-0.161958	0.508182	0.807981
65087	0.813938	9.753922	4.784679	-0.854106	-0.366603	1.042299	-0.253400	-0.163722	0.508715	0.806345
65088	0.273428	10.447984	4.909838	-0.321604	-0.195525	1.728542	-0.256372	-0.166331	0.508118	0.805248
65089	-0.425326	10.262845	4.917047	0.177982	0.273939	1.570521	-0.259072	-0.169362	0.507144	0.804365
65090	-0.774386	9.753069	4.745469	0.401879	0.532051	1.040738	-0.260824	-0.171671	0.507349	0.803179
65091	-0.690522	8.889694	4.174272	0.412085	0.381708	0.016475	-0.262049	-0.173270	0.508008	0.802020
65092	-0.484628	8.103548	3.614757	0.343069	0.143937	-0.934043	-0.263094	-0.174874	0.509013	0.800691
65093	-0.507767	8.441847	3.692397	0.373562	0.124884	-0.593082	-0.264114	-0.176765	0.510233	0.799162
65094	-0.488038	8.794927	3.627570	0.456057	-0.031371	-0.297480	-0.264972	-0.177927	0.510713	0.798313
65095	-0.292834	9.232109	3.753441	0.322422	-0.194726	0.150445	-0.265810	-0.178935	0.510874	0.797706
65096	-0.531243	9.444502	4.054024	0.385031	0.094478	0.471220	-0.266719	-0.180020	0.510218	0.797579
65097	-0.693903	9.431032	4.305631	0.365958	0.362027	0.565139	-0.267121	-0.180643	0.509167	0.797974
65098	-0.648881	9.096540	4.388641	0.203119	0.481268	0.294504	-0.266991	-0.181126	0.508135	0.798566
65099	-0.604992	8.877279	4.520972	0.037754	0.598557	0.149819	-0.266462	-0.181536	0.507355	0.799146
65100	-0.641123	8.642256	4.572742	-0.024765	0.716670	-0.040516	-0.265746	-0.181840	0.506759	0.799693
65101	-0.844213	8.573830	4.588226	0.104169	0.860939	-0.090393	-0.264882	-0.181953	0.506582	0.800065
65102	-0.653272	8.639776	4.404818	0.066235	0.583603	-0.110629	-0.263799	-0.181725	0.506709	0.800395
65103	-0.571378	8.995426	4.174132	0.204843	0.243539	0.115367	-0.263120	-0.182180	0.506872	0.800412
65104	-0.938373	9.175894	4.336107	0.432905	0.515152	0.357199	-0.262696	-0.182767	0.506688	0.800534
65105	-0.839600	9.219020	4.137456	0.468960	0.289719	0.312031	-0.261855	-0.182560	0.506607	0.800908
65106	-0.753518	9.047736	4.188162	0.330676	0.322219	0.175147	-0.261095	-0.182385	0.506256	0.801418
65107	-0.701006	8.838108	4.281253	0.188858	0.418068	0.022058	-0.260272	-0.181997	0.506021	0.801922
65108	-0.580423	8.908041	4.284719	0.108441	0.314876	0.083675	-0.259408	-0.181548	0.505938	0.802355
65109	-0.605570	8.902961	4.371647	0.080604	0.383314	0.116425	-0.258664	-0.181247	0.505461	0.802964
65110	-0.575744	8.869193	4.378635	0.047255	0.368101	0.088260	-0.257812	-0.180907	0.505088	0.803550
65111	-0.522642	8.820507	4.430650	-0.034353	0.378440	0.064597	-0.256935	-0.180603	0.504801	0.804079
65112	-0.472293	8.734001	4.232309	0.015509	0.225008	-0.098399	-0.255944	-0.180264	0.504533	0.804639
65113	-0.327020	8.699877	4.223240	-0.107759	0.134040	-0.137928	-0.254795	-0.180163	0.504485	0.805056
65114	-0.608940	8.819209	4.470924	-0.003220	0.427680	0.084558	-0.253843	-0.180713	0.504311	0.805343
65115	-0.945325	8.860080	4.656801	0.161751	0.734511	0.213018	-0.252878	-0.180820	0.504055	0.805782
65116	-0.694400	8.854152	4.812942	-0.132304	0.691102	0.264389	-0.251594	-0.180353	0.504133	0.806240
65117	-0.153896	8.779875	4.127430	-0.207537	-0.106752	-0.112632	-0.250062	-0.179575	0.503731	0.807141
65118	-0.187008	8.753375	3.929604	-0.084845	-0.241861	-0.219327	-0.249302	-0.180466	0.502833	0.807737
65119	-0.822998	8.831525	4.498194	0.113854	0.486573	0.119939	-0.249175	-0.182364	0.501848	0.807963
65120	-1.236458	8.689735	4.843040	0.208467	1.003666	0.159498	-0.248492	-0.183003	0.500982	0.808566
65121	-0.810074	8.524335	4.499686	0.011875	0.553377	-0.155498	-0.246638	-0.182111	0.501349	0.809107
65122	-0.202398	8.792125	4.247422	-0.291306	-0.079788	-0.050937	-0.244348	-0.181181	0.502277	0.809435
65123	-0.242611	8.973076	4.104460	-0.160350	-0.228104	0.053606	-0.242898	-0.181804	0.502265	0.809739
65124	-0.810055	8.764313	4.396682	0.073725	0.372514	0.018684	-0.241934	-0.183188	0.501596	0.810131
65125	-1.208923	8.790541	4.886720	0.115591	0.928406	0.273927	-0.240384	-0.183452	0.501430	0.810635
65126	-0.447123	8.684390	4.710220	-0.434081	0.389221	0.059739	-0.237511	-0.181591	0.501551	0.811825
65127	0.202072	8.855013	3.789302	-0.440897	-0.717869	-0.215753	-0.234249	-0.180293	0.502475	0.812490
65128	-0.182173	9.336601	3.931258	-0.133369	-0.587803	0.301493	-0.232691	-0.181674	0.502146	0.812834
65129	-0.931661	8.895436	4.233118	0.205834	0.193920	0.078515	-0.232254	-0.183622	0.500626	0.813458
65130	-1.197276	8.876856	4.329514	0.356842	0.396772	0.121696	-0.230485	-0.182609	0.500715	0.814135
65131	-0.300028	9.121077	5.161744	-0.773611	0.404727	0.635536	-0.227894	-0.180545	0.501255	0.814991
65132	0.221063	9.517143	4.608758	-0.826387	-0.449403	0.722047	-0.225238	-0.178312	0.500942	0.816413
65133	-0.288249	9.444937	3.547544	0.150694	-0.953048	0.234392	-0.224359	-0.177789	0.499147	0.817867
65134	-0.804428	8.711848	4.108608	0.159126	-0.020961	-0.148426	-0.225653	-0.179591	0.495966	0.819052
65135	-1.194162	8.114343	4.651206	0.100425	0.780970	-0.416830	-0.225276	-0.178542	0.494298	0.820392
65136	0.030716	8.629880	5.074365	-1.003343	0.200316	0.146122	-0.221994	-0.173697	0.495100	0.821842
65137	0.399024	8.875974	3.753688	-0.543791	-1.072412	-0.242613	-0.220090	-0.169932	0.494023	0.823786
65138	-0.151096	9.041646	3.683221	0.013835	-0.934657	-0.093309	-0.221634	-0.171410	0.491459	0.824600
65139	-1.122508	9.286775	5.720722	-0.148207	0.918091	1.112764	-0.224001	-0.173661	0.487871	0.825619
65140	-1.288520	8.358244	4.359520	0.534071	0.324500	-0.318771	-0.223500	-0.171161	0.483731	0.828707
65141	-0.328095	8.212889	4.350722	-0.242802	-0.210460	-0.518374	-0.222070	-0.168647	0.480922	0.831238
65142	-0.553803	8.231456	5.129303	-0.413190	0.405630	-0.115382	-0.222173	-0.169447	0.478096	0.832677
65143	-0.889412	8.617515	5.006905	0.019552	0.271705	0.189677	-0.221261	-0.168874	0.476083	0.834188
65144	-0.748318	8.947510	5.374991	-0.201035	0.262133	0.646712	-0.220816	-0.168851	0.473749	0.835638
65145	-1.132444	8.107782	4.252348	0.526061	-0.018230	-0.602713	-0.220186	-0.167945	0.471045	0.837514
65146	-1.019189	8.083679	3.806770	0.674000	-0.433730	-0.855372	-0.219160	-0.165947	0.469284	0.839168
65147	-1.534711	8.549929	4.855136	0.737641	0.325880	0.105888	-0.218650	-0.163567	0.466619	0.841252
65148	-0.647863	8.682728	6.825907	-0.877187	1.156032	1.155266	-0.216979	-0.159955	0.464597	0.843495
65149	-0.291872	8.809190	5.569960	-0.512900	-0.015994	0.601155	-0.215313	-0.158863	0.464031	0.844440
65150	-0.628791	8.545077	4.742940	0.110883	-0.331728	-0.025614	-0.214250	-0.159081	0.463108	0.845176
65151	-1.293875	8.535063	4.330648	0.872659	-0.306135	-0.199124	-0.213391	-0.158490	0.462173	0.846015
65152	-1.531646	8.297343	4.653001	0.901720	0.130637	-0.220408	-0.212429	-0.155736	0.460733	0.847552
65153	-0.546245	8.506284	6.207851	-0.570185	0.623592	0.698183	-0.210572	-0.152006	0.460325	0.848913
65154	0.240616	8.663561	6.276460	-1.233072	0.223761	0.814557	-0.208958	-0.152186	0.462637	0.848023
65155	-0.723370	9.002357	5.109384	0.169970	-0.271033	0.558862	-0.208252	-0.153647	0.463453	0.847487
65156	-1.021703	8.737856	4.821987	0.473985	-0.188693	0.206556	-0.207521	-0.154268	0.464511	0.846975
65157	-1.168845	8.459807	4.785951	0.547615	0.010065	-0.038239	-0.206604	-0.153607	0.465630	0.846704
65158	-1.045105	8.705156	4.744486	0.520360	-0.181974	0.141115	-0.205255	-0.151243	0.466405	0.847031
65159	-0.383723	8.587926	5.429512	-0.370351	0.072272	0.347865	-0.203718	-0.149334	0.468115	0.846798
65160	-0.301010	8.544309	5.749663	-0.603044	0.333999	0.467336	-0.202474	-0.149358	0.470878	0.845559
65161	-0.669871	8.455005	5.038253	-0.009043	0.084526	0.052014	-0.201425	-0.149807	0.473369	0.844338
65162	-0.704913	8.659930	5.152353	-0.017569	0.145223	0.287623	-0.200186	-0.149641	0.476388	0.842964
65163	-0.591992	8.775760	4.949831	-0.025562	-0.053534	0.279954	-0.199017	-0.149247	0.479223	0.841702
65164	-0.685513	8.872392	4.913359	0.079414	-0.035497	0.352091	-0.198026	-0.148405	0.480713	0.841235
65165	-0.554633	8.479963	5.025093	-0.148904	0.180682	0.057170	-0.197062	-0.146609	0.480861	0.841692
65166	-0.414720	8.295849	5.022470	-0.284659	0.197138	-0.112255	-0.196341	-0.145151	0.480834	0.842129
65167	-0.417840	8.372230	5.209319	-0.333809	0.303312	0.046440	-0.196000	-0.144328	0.480697	0.842428
65168	-0.283604	8.515362	5.661345	-0.610263	0.511053	0.385795	-0.196100	-0.143828	0.480349	0.842688
65169	-0.256927	8.386094	5.145687	-0.423800	0.162835	0.019125	-0.196751	-0.143851	0.479952	0.842759
65170	-0.306436	8.524273	4.835409	-0.215627	-0.110608	-0.010668	-0.197695	-0.144418	0.480076	0.842370
65171	-0.495072	8.600258	4.816453	-0.027513	-0.068828	0.056571	-0.198762	-0.145019	0.479735	0.842210
65172	-0.707628	8.561772	5.063581	0.043868	0.225592	0.156851	-0.200032	-0.145863	0.478763	0.842316
65173	-0.849680	8.379306	5.060129	0.142700	0.354864	0.005320	-0.200772	-0.145718	0.477533	0.842863
65174	-0.789435	8.235537	5.310956	-0.037210	0.560836	0.002484	-0.201400	-0.145739	0.476751	0.843152
65175	-0.899465	8.432536	5.148106	0.171534	0.400997	0.098391	-0.201703	-0.146044	0.477262	0.842738
65176	-0.821421	8.663521	5.231105	0.105944	0.336518	0.334789	-0.201771	-0.146136	0.478236	0.842154
65177	-0.703670	8.608559	5.047330	0.067394	0.188382	0.189208	-0.201658	-0.146134	0.479151	0.841661
65178	-0.560466	8.540253	5.130074	-0.111705	0.232260	0.162344	-0.201227	-0.145702	0.480118	0.841288
65179	-0.399704	8.463439	4.889124	-0.160710	0.030317	-0.031771	-0.200637	-0.144996	0.481184	0.840942
65180	-0.507633	8.588598	4.977110	-0.082990	0.116232	0.125767	-0.200242	-0.144707	0.482443	0.840364
65181	-0.477389	8.680003	4.917445	-0.068537	0.041527	0.174562	-0.199741	-0.144138	0.483625	0.839902
65182	-0.364645	8.633852	4.821654	-0.137932	-0.040657	0.081957	-0.199307	-0.143925	0.484679	0.839433
65183	-0.382873	8.636229	4.865977	-0.148331	0.019233	0.106303	-0.199097	-0.144054	0.485440	0.839022
65184	-0.414123	8.680309	4.688480	-0.041928	-0.108169	0.060895	-0.199024	-0.144306	0.485830	0.838770
65185	-0.451529	8.572763	4.804378	-0.086516	0.049068	0.024400	-0.198934	-0.144481	0.485883	0.838730
65186	-0.468113	8.478250	4.848242	-0.113900	0.133522	-0.036466	-0.198846	-0.144709	0.486017	0.838634
65187	-0.519400	8.565316	4.920388	-0.088584	0.177922	0.076960	-0.198700	-0.144737	0.486312	0.838493
65188	-0.455410	8.741571	4.843441	-0.082143	0.018217	0.191027	-0.198705	-0.144970	0.486735	0.838206
65189	-0.441942	8.852271	4.812031	-0.063847	-0.054493	0.272282	-0.198841	-0.145161	0.486912	0.838038
65190	-0.494445	8.723949	4.734506	-0.010051	-0.028081	0.125442	-0.199135	-0.145374	0.486970	0.837897
65191	-0.498155	8.626348	4.760419	-0.038477	0.039655	0.052432	-0.199530	-0.145665	0.487098	0.837678
65192	-0.534628	8.667543	4.739512	0.007891	0.028984	0.080451	-0.200027	-0.146020	0.487374	0.837337
65193	-0.543532	8.745602	4.773767	0.012453	0.031183	0.165724	-0.200537	-0.146370	0.487483	0.837091
65194	-0.563047	8.747043	4.820040	0.008561	0.078057	0.190032	-0.201011	-0.146578	0.487474	0.836946
65195	-0.488538	8.681357	4.788558	-0.053974	0.048180	0.113525	-0.201461	-0.146759	0.487401	0.836849
65196	-0.496024	8.624350	4.807527	-0.065877	0.091409	0.072912	-0.201829	-0.146920	0.487342	0.836766
65197	-0.514058	8.639094	4.829345	-0.056650	0.111577	0.097162	-0.202149	-0.147082	0.487417	0.836616
65198	-0.579010	8.692078	4.817081	0.015358	0.113817	0.141134	-0.202443	-0.147200	0.487498	0.836478
65199	-0.600985	8.675159	4.854300	0.014915	0.162262	0.145086	-0.202720	-0.147297	0.487515	0.836383
65200	-0.571544	8.648461	4.873387	-0.023518	0.176204	0.129186	-0.202973	-0.147313	0.487581	0.836281
65201	-0.581344	8.637737	4.831961	0.003716	0.156659	0.100524	-0.203178	-0.147254	0.487613	0.836223
65202	-0.526011	8.572303	4.848999	-0.063130	0.173674	0.048332	-0.203356	-0.147281	0.487683	0.836134
65203	-0.526711	8.494967	4.838117	-0.072617	0.201860	-0.024774	-0.203497	-0.147362	0.487768	0.836036
65204	-0.539501	8.549480	4.829781	-0.048388	0.181017	0.019725	-0.203574	-0.147441	0.487928	0.835910
65205	-0.602519	8.612535	4.885316	-0.008709	0.232765	0.104512	-0.203587	-0.147511	0.488339	0.835654
65206	-0.585367	8.729523	4.755625	0.054308	0.084339	0.144879	-0.203522	-0.147481	0.488766	0.835425
65207	-0.527468	8.823853	4.785193	0.007273	0.045289	0.238908	-0.203472	-0.147416	0.489048	0.835284
65208	-0.516952	8.812495	4.825130	-0.022440	0.079556	0.247251	-0.203380	-0.147295	0.489172	0.835255
65209	-0.512768	8.769171	4.751230	0.000062	0.041688	0.173991	-0.203341	-0.147184	0.489164	0.835289
65210	-0.490898	8.698961	4.764533	-0.037810	0.072650	0.117416	-0.203272	-0.147097	0.489264	0.835263
65211	-0.607563	8.680285	4.810793	0.039711	0.174955	0.128541	-0.203180	-0.147012	0.489401	0.835220
65212	-0.584871	8.754554	4.864808	0.009080	0.175946	0.218245	-0.203013	-0.146954	0.489618	0.835144
65213	-0.478454	8.768310	4.809222	-0.056633	0.078563	0.198877	-0.202932	-0.146862	0.489684	0.835141
65214	-0.500247	8.686364	4.813158	-0.054273	0.128867	0.129652	-0.202922	-0.146758	0.489689	0.835158
65215	-0.527940	8.634830	4.785152	-0.025355	0.142622	0.072438	-0.202956	-0.146659	0.489607	0.835216
65216	-0.539110	8.620092	4.794058	-0.020536	0.161327	0.064214	-0.203006	-0.146596	0.489644	0.835193
65217	-0.558015	8.622825	4.795171	-0.001942	0.170408	0.068057	-0.203027	-0.146458	0.489589	0.835244
65218	-0.540240	8.661576	4.785194	-0.003420	0.137129	0.096602	-0.203070	-0.146399	0.489591	0.835243
65219	-0.519206	8.651086	4.798788	-0.027813	0.141569	0.092787	-0.203138	-0.146300	0.489530	0.835279
65220	-0.494508	8.662351	4.858486	-0.071918	0.169331	0.129742	-0.203240	-0.146282	0.489467	0.835295
65221	-0.498615	8.632346	4.827657	-0.058087	0.160018	0.088995	-0.203358	-0.146224	0.489384	0.835325
65222	-0.588056	8.648875	4.932457	-0.022139	0.274471	0.157376	-0.203463	-0.146218	0.489315	0.835341
65223	-0.515952	8.637980	4.866627	-0.055373	0.193498	0.113261	-0.203485	-0.146082	0.489262	0.835390
65224	-0.505715	8.629738	4.814139	-0.040044	0.152032	0.080712	-0.203465	-0.145958	0.489270	0.835412
65225	-0.465438	8.609566	4.839543	-0.089345	0.160602	0.073094	-0.203445	-0.145914	0.489273	0.835423
65226	-0.532647	8.647566	4.855176	-0.030122	0.188987	0.117077	-0.203432	-0.145915	0.489293	0.835414
65227	-0.486384	8.606317	4.851738	-0.077096	0.182779	0.076967	-0.203388	-0.145863	0.489369	0.835390
65228	-0.500889	8.638836	4.884109	-0.071646	0.201513	0.121555	-0.203376	-0.145755	0.489398	0.835394
65229	-0.442090	8.610645	4.788578	-0.084189	0.113975	0.048806	-0.203333	-0.145628	0.489487	0.835375
65230	-0.486003	8.650211	4.838734	-0.059285	0.158295	0.109365	-0.203260	-0.145482	0.489568	0.835370
65231	-0.461693	8.604155	4.763803	-0.055352	0.111476	0.032259	-0.203157	-0.145406	0.489679	0.835344
65232	-0.493144	8.662303	4.841234	-0.051513	0.161737	0.121467	-0.203067	-0.145342	0.489732	0.835345
65233	-0.467236	8.633839	4.776721	-0.050902	0.113130	0.064719	-0.203023	-0.145350	0.489755	0.835341
65234	-0.485416	8.652481	4.834732	-0.058445	0.158149	0.109372	-0.202981	-0.145390	0.489774	0.835333
65235	-0.481319	8.620139	4.783484	-0.046061	0.131420	0.056497	-0.202947	-0.145386	0.489801	0.835327
65236	-0.508446	8.726135	4.685161	0.041112	0.026986	0.104583	-0.202809	-0.145317	0.490066	0.835217
65237	-0.471531	8.892521	4.654163	0.054086	-0.080986	0.234751	-0.202640	-0.145130	0.490347	0.835125
65238	-0.484342	8.916616	4.745884	0.030575	-0.011108	0.299829	-0.202658	-0.144943	0.490436	0.835101
65239	-0.504072	8.894981	4.749455	0.046583	0.012550	0.283340	-0.202952	-0.144764	0.490426	0.835066
65240	-0.533299	8.852263	4.860846	0.021822	0.130695	0.299544	-0.203328	-0.144443	0.490284	0.835114
65241	-0.612624	8.745242	4.887858	0.070095	0.235275	0.221526	-0.203747	-0.143917	0.490098	0.835212
65242	-0.757725	8.585120	5.033045	0.116015	0.485244	0.155313	-0.203918	-0.143070	0.489998	0.835374
65243	-0.710757	8.449133	5.034106	0.063841	0.525475	0.033887	-0.203775	-0.142047	0.490208	0.835460
65244	-0.761767	8.500072	4.942576	0.174559	0.464985	0.036874	-0.203505	-0.140952	0.490475	0.835555
65245	-0.837552	8.658863	4.879907	0.317596	0.387015	0.149251	-0.203224	-0.139761	0.490303	0.835925
65246	-1.017235	8.617354	5.214801	0.342925	0.740143	0.278013	-0.202686	-0.138192	0.489839	0.836588
65247	-0.925563	8.512310	5.298859	0.232544	0.800306	0.222220	-0.201634	-0.136182	0.489856	0.837161
65248	-0.892418	8.433995	5.268396	0.228232	0.798449	0.136936	-0.200145	-0.133886	0.490304	0.837627
65249	-0.801215	8.470409	5.142927	0.233795	0.654852	0.104768	-0.198174	-0.131375	0.491261	0.837932
65250	-0.735263	8.646437	4.944971	0.313313	0.416237	0.161415	-0.195683	-0.128835	0.492809	0.838003
65251	-0.751664	8.645895	5.007687	0.314912	0.497876	0.189628	-0.192802	-0.126374	0.494334	0.838147
65252	-0.710712	8.535864	4.787740	0.358856	0.373343	-0.013690	-0.189606	-0.123684	0.495398	0.838650
65253	-0.628912	8.564115	4.758978	0.319835	0.305297	-0.004939	-0.186233	-0.120701	0.495679	0.839673
65254	-0.499699	8.482959	4.781694	0.197420	0.295355	-0.068527	-0.182656	-0.117881	0.495814	0.840779
65255	-0.485396	8.631514	4.815080	0.217345	0.239513	0.077661	-0.178760	-0.114793	0.495745	0.842083
65256	-0.454754	8.635109	4.913076	0.168146	0.296662	0.126826	-0.174630	-0.111888	0.496407	0.842951
65257	-0.350092	8.820393	4.978545	0.091682	0.226595	0.318850	-0.170241	-0.108913	0.497110	0.843823
65258	-0.171496	8.759810	4.895897	-0.043720	0.112578	0.223193	-0.165920	-0.105986	0.497201	0.845002
65259	-0.166054	8.687957	4.806531	-0.019341	0.059278	0.117418	-0.161610	-0.102985	0.497105	0.846264
65260	-0.138962	8.642560	4.704128	-0.004128	-0.030700	0.028093	-0.157216	-0.099770	0.496607	0.847768
65261	0.000603	8.579869	4.750122	-0.146857	-0.034534	-0.006820	-0.152627	-0.096650	0.496393	0.849092
65262	-0.014839	8.646014	4.788925	-0.125137	-0.040555	0.070139	-0.147830	-0.093466	0.496305	0.850348
65263	0.138533	8.685489	4.725667	-0.236135	-0.175413	0.071760	-0.143017	-0.090389	0.496178	0.851577
65264	0.178978	8.707504	4.713567	-0.263512	-0.221235	0.084382	-0.138412	-0.087595	0.495953	0.852760
65265	0.182951	8.768699	4.729866	-0.261046	-0.252791	0.145380	-0.134044	-0.085001	0.495498	0.853984
65266	0.208601	8.702968	4.708161	-0.287565	-0.265525	0.076636	-0.129890	-0.082595	0.495023	0.855137
65267	0.186409	8.733726	4.678268	-0.254495	-0.314787	0.088577	-0.126005	-0.080466	0.494556	0.856190
65268	0.160071	8.677493	4.769264	-0.263504	-0.221697	0.084372	-0.122444	-0.078595	0.494069	0.857161
65269	0.064068	8.656302	4.908943	-0.212148	-0.083361	0.136253	-0.119204	-0.076854	0.493655	0.858014
65270	-0.002712	8.635153	4.835845	-0.133149	-0.126652	0.082640	-0.116290	-0.075302	0.493499	0.858642
65271	-0.052903	8.694431	4.852381	-0.082801	-0.135152	0.143035	-0.113601	-0.073803	0.493408	0.859184
65272	-0.000425	8.704043	4.904342	-0.145003	-0.116502	0.176223	-0.111152	-0.072391	0.493382	0.859639
65273	0.002961	8.566800	4.915276	-0.166885	-0.045590	0.062538	-0.108992	-0.071138	0.493409	0.860005
65274	-0.032852	8.517749	4.998765	-0.157361	0.056498	0.062171	-0.107137	-0.070069	0.493578	0.860228
65275	-0.007838	8.584082	4.908996	-0.152795	-0.055246	0.074595	-0.105491	-0.069073	0.493801	0.860384
65276	0.108046	8.569464	4.941202	-0.273258	-0.048251	0.075986	-0.104023	-0.068163	0.493960	0.860545
65277	0.112869	8.553876	4.878751	-0.265346	-0.093366	0.031327	-0.102844	-0.067515	0.494016	0.860705
65278	0.019730	8.513050	4.944647	-0.195077	0.005263	0.030273	-0.101872	-0.067019	0.494120	0.860800
65279	-0.028649	8.613396	4.905717	-0.130340	-0.061283	0.098757	-0.100984	-0.066568	0.494395	0.860781
65280	-0.021767	8.738879	4.866878	-0.116648	-0.152519	0.188218	-0.100262	-0.066197	0.494584	0.860785
65281	0.018290	8.750775	4.897600	-0.161867	-0.141914	0.213106	-0.099785	-0.065959	0.494503	0.860906
65282	0.017266	8.650549	4.999094	-0.193636	-0.010934	0.176588	-0.099616	-0.065882	0.494346	0.861022
65283	-0.064001	8.602482	5.029117	-0.125735	0.054260	0.151251	-0.099671	-0.065873	0.494243	0.861075
65284	-0.067864	8.570285	4.978761	-0.113289	0.027692	0.098359	-0.099844	-0.065892	0.494253	0.861048
65285	-0.025513	8.619149	4.961319	-0.143745	-0.019625	0.131357	-0.100045	-0.065876	0.494314	0.860991
65286	-0.054583	8.575149	5.011772	-0.128858	0.052445	0.118811	-0.100349	-0.065882	0.494326	0.860948
65287	-0.047961	8.582061	5.065399	-0.143571	0.094015	0.151392	-0.100739	-0.065948	0.494373	0.860870
65288	-0.023279	8.586289	5.026636	-0.156475	0.055138	0.135400	-0.101200	-0.066088	0.494417	0.860780
65289	-0.014140	8.600572	4.928490	-0.140484	-0.034659	0.098877	-0.101773	-0.066311	0.494443	0.860681
65290	-0.164684	8.563613	5.009049	-0.015358	0.090407	0.109246	-0.102382	-0.066620	0.494564	0.860515
65291	-0.113261	8.667464	5.018701	-0.056023	0.037703	0.203328	-0.103050	-0.067008	0.494545	0.860416
65292	-0.039873	8.615470	5.023748	-0.133899	0.049023	0.159556	-0.103744	-0.067381	0.494468	0.860348
65293	-0.025562	8.579977	5.086647	-0.165381	0.114962	0.159779	-0.104556	-0.067815	0.494412	0.860248
65294	-0.098053	8.560797	5.058737	-0.090573	0.118467	0.130423	-0.105484	-0.068299	0.494294	0.860164
65295	-0.156804	8.518121	5.048163	-0.035683	0.144808	0.089064	-0.106402	-0.068809	0.494245	0.860038
65296	-0.140459	8.498993	5.033427	-0.050238	0.137741	0.064888	-0.107319	-0.069305	0.494167	0.859929
65297	-0.150635	8.471867	5.088535	-0.057042	0.199291	0.068883	-0.108228	-0.069905	0.494090	0.859811
65298	-0.173678	8.447873	5.096501	-0.041309	0.223041	0.052382	-0.109164	-0.070539	0.493991	0.859698
65299	-0.153587	8.427642	5.149459	-0.077104	0.270494	0.060841	-0.110101	-0.071133	0.493844	0.859614
65300	-0.199013	8.423636	5.104762	-0.025070	0.246679	0.035884	-0.110921	-0.071698	0.493826	0.859472
65301	-0.213802	8.473505	5.082278	-0.001583	0.208808	0.068200	-0.111656	-0.072196	0.493824	0.859336
65302	-0.173005	8.478101	5.125883	-0.053062	0.232520	0.093165	-0.112340	-0.072714	0.493762	0.859239
65303	-0.180738	8.423717	5.163419	-0.063917	0.292337	0.064713	-0.113045	-0.073256	0.493745	0.859110
65304	-0.223513	8.482586	5.066073	0.005567	0.195564	0.068155	-0.113751	-0.073739	0.493764	0.858965
65305	-0.170901	8.552240	5.004667	-0.024198	0.099637	0.097216	-0.114417	-0.074267	0.493918	0.858742
65306	-0.160450	8.615114	5.083954	-0.049248	0.136002	0.190892	-0.115098	-0.074787	0.493967	0.858578
65307	-0.138553	8.480032	5.084511	-0.089421	0.198077	0.073422	-0.115827	-0.075295	0.494068	0.858378
65308	-0.142008	8.572001	5.046128	-0.067310	0.126846	0.134280	-0.116578	-0.075789	0.494204	0.858154
65309	-0.101618	8.597006	5.029435	-0.100666	0.094160	0.146984	-0.117287	-0.076243	0.494352	0.857932
65310	-0.115623	8.566172	5.025469	-0.092417	0.114203	0.118396	-0.118050	-0.076804	0.494508	0.857687
65311	-0.107932	8.526960	5.029451	-0.108938	0.138648	0.086049	-0.118833	-0.077397	0.494649	0.857444
65312	-0.111305	8.561855	5.009092	-0.099359	0.110477	0.106318	-0.119662	-0.078004	0.494790	0.857193
65313	-0.078837	8.607854	4.954694	-0.113578	0.038213	0.118878	-0.120496	-0.078616	0.494904	0.856954
65314	-0.077536	8.552309	5.036926	-0.146788	0.135834	0.110952	-0.121399	-0.079332	0.494959	0.856729
65315	-0.056183	8.524738	5.013024	-0.168839	0.125213	0.074705	-0.122325	-0.080094	0.494996	0.856505
65316	-0.060485	8.508074	5.067588	-0.186420	0.181540	0.086996	-0.123258	-0.080918	0.495026	0.856277
65317	-0.062615	8.456857	5.051220	-0.193163	0.194563	0.034241	-0.124173	-0.081821	0.495056	0.856041
65318	-0.056042	8.421187	5.024459	-0.204300	0.189019	-0.010278	-0.124985	-0.082694	0.495110	0.855808
65319	-0.131365	8.550161	4.848156	-0.075367	0.006829	0.016931	-0.125647	-0.083461	0.495201	0.855584
65320	0.000566	8.670871	4.750392	-0.166219	-0.167510	0.071367	-0.126129	-0.084181	0.495382	0.855337
65321	0.005518	8.874468	4.786959	-0.163548	-0.232382	0.266520	-0.126733	-0.085129	0.495418	0.855133
65322	-0.040817	8.774306	4.855093	-0.160797	-0.117057	0.213402	-0.127528	-0.086145	0.495123	0.855084
65323	-0.061289	8.624319	5.030814	-0.219757	0.098417	0.168982	-0.128635	-0.087450	0.494768	0.854991
65324	-0.137888	8.571227	4.995533	-0.155232	0.113185	0.107161	-0.129890	-0.088841	0.494592	0.854760
65325	-0.236743	8.617803	4.846524	-0.023103	-0.002242	0.077248	-0.131096	-0.090077	0.494474	0.854515
65326	-0.241920	8.765766	4.856663	-0.010037	-0.061717	0.211306	-0.132199	-0.091178	0.494444	0.854245
65327	-0.277009	8.795993	4.808158	0.033968	-0.105706	0.214888	-0.133439	-0.092314	0.494188	0.854079
65328	-0.221161	8.596987	4.894288	-0.076727	0.036409	0.081954	-0.134845	-0.093444	0.493843	0.853934
65329	-0.271100	8.515909	4.993560	-0.076237	0.166549	0.061334	-0.136451	-0.094813	0.493431	0.853767
65330	-0.359907	8.410550	5.015918	-0.021794	0.257902	-0.016805	-0.137979	-0.096203	0.493053	0.853584
65331	-0.372496	8.519422	5.011768	-0.002067	0.201760	0.076519	-0.139391	-0.097501	0.492668	0.853430
65332	-0.327615	8.483300	5.038854	-0.064886	0.219980	0.057021	-0.140796	-0.098677	0.492303	0.853274
65333	-0.271768	8.534500	5.011063	-0.107365	0.150429	0.086208	-0.142180	-0.099778	0.492081	0.853045
65334	-0.343173	8.593433	4.965858	-0.023552	0.109128	0.117678	-0.143691	-0.100989	0.491904	0.852751
65335	-0.468059	8.590913	4.941833	0.095499	0.133794	0.107875	-0.145310	-0.102140	0.491691	0.852463
65336	-0.559592	8.698480	4.923966	0.198412	0.101381	0.195933	-0.147008	-0.103324	0.491517	0.852129
65337	-0.517494	8.848932	4.917333	0.181175	0.010999	0.322332	-0.148776	-0.104376	0.491258	0.851843
65338	-0.425984	8.855379	4.964744	0.082098	0.011612	0.348071	-0.150649	-0.105343	0.490880	0.851613
65339	-0.348706	8.795285	5.029652	-0.018229	0.060688	0.324966	-0.152771	-0.106486	0.490452	0.851340
65340	-0.479273	8.743595	5.034219	0.095971	0.131927	0.286664	-0.155039	-0.107651	0.489885	0.851109
65341	-0.519358	8.666093	5.101825	0.101585	0.232149	0.253856	-0.157298	-0.108704	0.489353	0.850867
65342	-0.485814	8.652156	5.030030	0.097340	0.165037	0.205312	-0.159605	-0.109766	0.488906	0.850558
65343	-0.449056	8.595015	5.101824	0.033592	0.231778	0.189797	-0.161939	-0.110827	0.488402	0.850269
65344	-0.466065	8.516943	5.097754	0.042199	0.268500	0.120527	-0.164267	-0.111875	0.487968	0.849934
65345	-0.503370	8.512346	5.118784	0.072828	0.299326	0.128161	-0.166518	-0.112836	0.487481	0.849648
65346	-0.488074	8.447010	5.103368	0.058591	0.308806	0.063332	-0.168691	-0.113700	0.487056	0.849348
65347	-0.485922	8.413031	5.122204	0.049526	0.336793	0.043087	-0.170756	-0.114494	0.486663	0.849054
65348	-0.490103	8.421707	5.131104	0.057364	0.340310	0.055163	-0.172721	-0.115224	0.486310	0.848760
65349	-0.482698	8.360125	5.133128	0.044144	0.366498	0.002476	-0.174572	-0.115927	0.485979	0.848475
65350	-0.437826	8.354414	5.130565	0.007776	0.348811	-0.005094	-0.176261	-0.116574	0.485768	0.848158
65351	-0.431123	8.372525	5.140452	0.004847	0.346915	0.015279	-0.177822	-0.117208	0.485617	0.847832
65352	-0.413654	8.420523	5.115019	0.009929	0.300167	0.043759	-0.179211	-0.117788	0.485543	0.847501
65353	-0.393462	8.500938	5.073751	0.024444	0.225391	0.092478	-0.180492	-0.118341	0.485463	0.847197
65354	-0.380261	8.524274	5.050203	0.026602	0.193660	0.100647	-0.181671	-0.118975	0.485436	0.846872
65355	-0.356042	8.555347	5.030404	0.017950	0.156664	0.117107	-0.182744	-0.119537	0.485402	0.846582
65356	-0.319752	8.615680	4.976244	0.017520	0.074745	0.141673	-0.183728	-0.120044	0.485440	0.846275
65357	-0.311814	8.646060	5.005874	0.004694	0.084416	0.182472	-0.184716	-0.120549	0.485455	0.845980
65358	-0.301647	8.637317	4.997429	-0.002586	0.080759	0.170398	-0.185700	-0.121034	0.485442	0.845703
65359	-0.259269	8.611688	5.029955	-0.058216	0.102598	0.163029	-0.186653	-0.121527	0.485468	0.845407
65360	-0.249983	8.610327	5.008350	-0.059066	0.085723	0.150894	-0.187610	-0.122104	0.485475	0.845108
65361	-0.280487	8.561655	4.976365	-0.030224	0.099558	0.093573	-0.188485	-0.122659	0.485505	0.844816
65362	-0.227951	8.586952	4.935771	-0.058375	0.036988	0.094116	-0.189230	-0.123159	0.485572	0.844538
65363	-0.234203	8.624321	4.935231	-0.047599	0.025573	0.126495	-0.189901	-0.123654	0.485607	0.844295
65364	-0.220785	8.658090	4.934419	-0.055160	0.005242	0.155095	-0.190523	-0.124147	0.485555	0.844112
65365	-0.261901	8.632726	4.884821	-0.006213	-0.003672	0.109710	-0.191108	-0.124654	0.485432	0.843976
65366	-0.277545	8.610845	4.906037	-0.007757	0.027960	0.101547	-0.191633	-0.125130	0.485281	0.843873
65367	-0.292029	8.673854	4.925526	0.007145	0.018462	0.166363	-0.192069	-0.125583	0.485092	0.843815
65368	-0.252661	8.691103	4.923197	-0.026304	-0.014231	0.179113	-0.192469	-0.126053	0.484728	0.843863
65369	-0.163403	8.573509	4.866506	-0.108453	-0.053513	0.046319	-0.192842	-0.126475	0.484273	0.843976
65370	-0.213416	8.579782	4.826297	-0.048976	-0.073830	0.033301	-0.193171	-0.127015	0.483862	0.844056
65371	-0.262428	8.639398	4.882157	-0.020836	-0.044700	0.114098	-0.193323	-0.127543	0.483478	0.844161
65372	-0.227722	8.704854	4.943532	-0.069676	-0.052697	0.200165	-0.193352	-0.128047	0.483071	0.844311
65373	-0.204819	8.720385	4.926879	-0.085591	-0.093170	0.204556	-0.193378	-0.128484	0.482647	0.844481
65374	-0.203453	8.702336	4.975980	-0.115263	-0.058957	0.213062	-0.193404	-0.128886	0.482181	0.844681
65375	-0.265828	8.633554	4.943197	-0.064800	-0.034425	0.139133	-0.193426	-0.129316	0.481828	0.844811
65376	-0.324102	8.613660	5.055327	-0.068432	0.077360	0.179601	-0.193443	-0.129765	0.481415	0.844974
65377	-0.316679	8.518712	5.025721	-0.086958	0.085073	0.082352	-0.193492	-0.130199	0.481038	0.845111
65378	-0.359028	8.489193	5.065195	-0.076520	0.138705	0.078035	-0.193532	-0.130638	0.480654	0.845252
65379	-0.362514	8.465008	5.041569	-0.074006	0.123727	0.045528	-0.193519	-0.131091	0.480252	0.845413
65380	-0.425501	8.459366	5.044775	-0.026057	0.146707	0.044770	-0.193536	-0.131565	0.479773	0.845608
65381	-0.436852	8.440226	5.076952	-0.038506	0.172992	0.044913	-0.193493	-0.132007	0.479255	0.845842
65382	-0.419924	8.400105	5.115990	-0.083165	0.200103	0.029288	-0.193417	-0.132476	0.478686	0.846109
65383	-0.431569	8.402292	5.110692	-0.076552	0.186767	0.029222	-0.193311	-0.132985	0.478164	0.846348
65384	-0.472685	8.417957	5.111254	-0.044154	0.185916	0.044991	-0.193095	-0.133427	0.477685	0.846598
65385	-0.498170	8.481073	5.088239	-0.006794	0.138468	0.089217	-0.192775	-0.133842	0.477251	0.846850
65386	-0.549932	8.477711	5.144810	0.007622	0.193949	0.117337	-0.192486	-0.134250	0.476762	0.847127
