// General information: 
//  MT Manager version: 2021.0.0 
//  XDA version: 2021.0.0 build 5908 rev 109668 built on 2021-04-19
// Device information: 
//  DeviceId: 00B43DED
//  ProductCode: MTW2-3A7G6
//  Firmware Version: 4.3.5
//  Hardware Version: 1.1.0
// Device settings: 
//  Filter Profile: human(46.1)
//  Option Flags: Orientation Smoother Disabled, Position/Velocity Smoother Disabled, Continuous Zero Rotation Update Disabled, AHS Disabled, ICC Disabled
// Coordinate system: ENU
PacketCounter	Acc_X	Acc_Y	Acc_Z	FreeAcc_E	FreeAcc_N	FreeAcc_U	Quat_q0	Quat_q1	Quat_q2	Quat_q3
64468	-9.606834	1.050096	-1.683845	0.051194	-0.094747	-0.003626	-0.278805	-0.719222	-0.260897	0.580448
64469	-9.596749	1.040064	-1.660832	0.031452	-0.098710	-0.018457	-0.279015	-0.719080	-0.260823	0.580557
64470	-9.582921	0.941281	-1.642915	-0.045370	-0.035269	-0.044666	-0.279059	-0.719024	-0.260597	0.580706
64471	-9.567690	0.931877	-1.744606	0.023284	0.047749	-0.042840	-0.279111	-0.718948	-0.260361	0.580882
64472	-9.590632	0.929929	-1.686608	-0.020831	0.011776	-0.030609	-0.279052	-0.718915	-0.260058	0.581086
64473	-9.577793	0.934937	-1.677322	-0.019958	0.006298	-0.044311	-0.279012	-0.718902	-0.259738	0.581264
64474	-9.569245	0.984173	-1.603173	-0.034803	-0.076564	-0.060655	-0.278928	-0.718906	-0.259427	0.581439
64475	-9.588202	0.983130	-1.593039	-0.045868	-0.080620	-0.043894	-0.278979	-0.718903	-0.259251	0.581497
64476	-9.565760	0.960292	-1.631967	-0.030686	-0.033160	-0.061421	-0.278969	-0.718930	-0.259031	0.581566
64477	-9.597727	0.986372	-1.642747	-0.012177	-0.043853	-0.025664	-0.278973	-0.718976	-0.258871	0.581579
64478	-9.569614	0.934368	-1.682351	-0.015802	0.024221	-0.051539	-0.279001	-0.718980	-0.258737	0.581620
64479	-9.628101	0.895490	-1.677170	-0.057846	0.047376	0.001055	-0.278902	-0.719050	-0.258477	0.581697
64480	-9.602173	1.007727	-1.673399	0.020914	-0.032120	-0.013910	-0.278887	-0.719101	-0.258216	0.581756
64481	-9.597191	0.921974	-1.756047	0.019653	0.090220	-0.013132	-0.278951	-0.719100	-0.258011	0.581818
64482	-9.569349	0.946240	-1.677214	-0.013674	0.023140	-0.051533	-0.278920	-0.719131	-0.257660	0.581950
64483	-9.626469	1.043704	-1.659674	0.029756	-0.057519	0.011189	-0.279031	-0.719115	-0.257445	0.582011
64484	-9.606473	0.932357	-1.688815	-0.023172	0.048399	-0.014584	-0.279193	-0.719061	-0.257253	0.582086
64485	-9.609336	0.980960	-1.699213	0.016795	0.025937	-0.005139	-0.279215	-0.719069	-0.256865	0.582236
64486	-9.586356	1.019977	-1.651761	0.014785	-0.028548	-0.031795	-0.279312	-0.719035	-0.256570	0.582363
64487	-9.605351	1.021076	-1.640068	0.003713	-0.032480	-0.015028	-0.279356	-0.719031	-0.256174	0.582521
64488	-9.603196	1.085986	-1.630788	0.042339	-0.079575	-0.012071	-0.279511	-0.718964	-0.255921	0.582640
64489	-9.616378	0.983902	-1.623667	-0.035036	-0.005590	-0.010758	-0.279670	-0.718895	-0.255672	0.582758
64490	-9.611087	0.989418	-1.632919	-0.023207	0.002980	-0.013819	-0.279738	-0.718848	-0.255339	0.582929
64491	-9.596120	1.071486	-1.585412	0.003044	-0.082701	-0.027991	-0.279754	-0.718847	-0.254958	0.583090
64492	-9.585170	1.077829	-1.608747	0.025945	-0.065059	-0.034121	-0.279843	-0.718818	-0.254644	0.583220
64493	-9.588091	1.066820	-1.591653	0.005735	-0.063845	-0.035222	-0.280005	-0.718759	-0.254471	0.583290
64494	-9.591029	1.055428	-1.574712	-0.014222	-0.062670	-0.036320	-0.280098	-0.718710	-0.254241	0.583407
64495	-9.577826	1.061762	-1.565966	-0.013293	-0.068111	-0.050028	-0.280296	-0.718630	-0.254148	0.583449
64496	-9.601903	1.016396	-1.560697	-0.053148	-0.035864	-0.032029	-0.280497	-0.718573	-0.254075	0.583456
64497	-9.606784	1.033726	-1.591570	-0.021270	-0.023630	-0.020294	-0.280629	-0.718551	-0.253983	0.583460
64498	-9.603655	1.082148	-1.617489	0.029899	-0.037317	-0.013952	-0.280747	-0.718535	-0.253872	0.583470
64499	-9.571827	1.106469	-1.585547	0.029706	-0.072406	-0.047853	-0.280902	-0.718486	-0.253790	0.583492
64500	-9.587883	1.091796	-1.575890	0.009134	-0.066166	-0.035240	-0.281133	-0.718422	-0.253852	0.583433
64501	-9.627299	0.998217	-1.628968	-0.026349	0.039587	0.002230	-0.281405	-0.718343	-0.253886	0.583384
64502	-9.615476	0.974206	-1.719268	0.021703	0.123970	0.002937	-0.281629	-0.718286	-0.253805	0.583381
64503	-9.621999	1.096927	-1.600037	0.020808	-0.042686	0.002810	-0.281737	-0.718243	-0.253587	0.583476
64504	-9.597963	1.150059	-1.598868	0.061578	-0.075588	-0.015218	-0.282057	-0.718084	-0.253580	0.583521
64505	-9.705190	1.178653	-1.618522	0.076881	-0.079921	0.096260	-0.282162	-0.717904	-0.253291	0.583817
64506	-9.504598	1.115617	-1.483266	-0.016905	-0.111455	-0.129231	-0.282857	-0.717358	-0.253436	0.584089
64507	-9.558797	0.960119	-1.584953	-0.057587	0.078084	-0.076410	-0.283172	-0.717106	-0.253475	0.584229
64508	-9.575529	1.078796	-1.515206	-0.025754	-0.051563	-0.058351	-0.283305	-0.717015	-0.253430	0.584295
64509	-9.597068	1.136318	-1.486154	-0.009881	-0.111326	-0.035618	-0.283405	-0.716964	-0.253441	0.584304
64510	-9.558969	1.070226	-1.586023	0.021395	0.007970	-0.064138	-0.283559	-0.716935	-0.253547	0.584220
64511	-9.609156	1.032778	-1.641786	0.023462	0.072101	-0.010023	-0.283512	-0.717024	-0.253463	0.584169
64512	-9.614589	1.107551	-1.545616	0.005083	-0.049284	-0.012001	-0.283326	-0.717151	-0.253253	0.584195
64513	-9.582092	1.114168	-1.549760	0.017541	-0.050996	-0.042493	-0.283255	-0.717219	-0.253215	0.584163
64514	-9.622192	1.092732	-1.521785	-0.025483	-0.057367	-0.010008	-0.283280	-0.717245	-0.253274	0.584093
64515	-9.634598	1.135465	-1.588425	0.047705	-0.042810	0.017559	-0.283227	-0.717266	-0.253257	0.584100
64516	-9.584808	1.085873	-1.492091	-0.043757	-0.071883	-0.052210	-0.283393	-0.717151	-0.253353	0.584119
64517	-9.584497	1.057126	-1.555932	-0.018261	-0.005318	-0.045361	-0.283453	-0.717125	-0.253348	0.584124
64518	-9.586999	1.117040	-1.536881	0.009143	-0.061307	-0.039434	-0.283412	-0.717152	-0.253318	0.584123
64519	-9.613726	1.083280	-1.534896	-0.021055	-0.039384	-0.017222	-0.283495	-0.717142	-0.253372	0.584072
64520	-9.591836	1.103175	-1.557139	0.011545	-0.037516	-0.032940	-0.283517	-0.717162	-0.253399	0.584025
64521	-9.623779	1.053875	-1.574344	-0.017282	0.008663	-0.004224	-0.283650	-0.717135	-0.253516	0.583943
64522	-9.636876	1.142454	-1.541614	0.017774	-0.077026	0.013039	-0.283853	-0.717056	-0.253641	0.583888
64523	-9.598961	1.017168	-1.691212	0.044110	0.120968	-0.013794	-0.284249	-0.716820	-0.253892	0.583875
64524	-9.654724	1.143409	-1.413620	-0.070259	-0.159348	0.010198	-0.284505	-0.716567	-0.253826	0.584090
64525	-9.523689	1.065822	-1.534897	-0.011424	-0.009086	-0.107415	-0.285016	-0.716318	-0.254119	0.584019
64526	-9.620497	1.065792	-1.491523	-0.059113	-0.038902	-0.019348	-0.285262	-0.716176	-0.254248	0.584017
64527	-9.647875	1.197277	-1.360836	-0.062268	-0.219775	0.001316	-0.285881	-0.715798	-0.254524	0.584057
64528	-9.562070	1.038210	-1.648012	0.047486	0.104056	-0.054925	-0.286604	-0.715365	-0.255129	0.583970
64529	-9.611877	1.045194	-1.487069	-0.065332	-0.010137	-0.030682	-0.287000	-0.715056	-0.255332	0.584064
64530	-9.572069	1.188388	-1.405965	-0.011355	-0.161726	-0.066549	-0.287570	-0.714728	-0.255624	0.584058
64531	-9.585500	1.116247	-1.569979	0.051941	0.010317	-0.035682	-0.288483	-0.714271	-0.256413	0.583821
64532	-9.610107	1.010897	-1.617372	0.007230	0.121254	-0.015891	-0.288954	-0.714073	-0.256819	0.583652
64533	-9.607168	1.116502	-1.512285	0.007986	-0.026006	-0.023381	-0.289170	-0.714036	-0.256977	0.583521
64534	-9.598524	1.090825	-1.560864	0.022807	0.026425	-0.027155	-0.289247	-0.714116	-0.257069	0.583344
64535	-9.581331	1.096013	-1.605924	0.056738	0.052844	-0.036384	-0.289187	-0.714306	-0.257090	0.583131
64536	-9.615261	1.017246	-1.648141	0.019799	0.134204	-0.005241	-0.288976	-0.714561	-0.256918	0.583000
64537	-9.619507	1.002731	-1.673017	0.021576	0.158492	0.001271	-0.288452	-0.714946	-0.256409	0.583011
64538	-9.613053	1.136974	-1.554879	0.030211	-0.023669	-0.008623	-0.287718	-0.715425	-0.255678	0.583108
64539	-9.590517	1.230427	-1.496570	0.055117	-0.133784	-0.029500	-0.287288	-0.715728	-0.255242	0.583138
64540	-9.614183	1.123272	-1.550945	0.010435	-0.022748	-0.009675	-0.287057	-0.715943	-0.255046	0.583074
64541	-9.611526	1.108831	-1.476110	-0.053801	-0.067423	-0.025839	-0.286678	-0.716187	-0.254706	0.583109
64542	-9.607883	1.109955	-1.525904	-0.020083	-0.035739	-0.021358	-0.286356	-0.716405	-0.254423	0.583124
64543	-9.593838	1.156929	-1.504278	-0.001939	-0.086363	-0.033342	-0.285973	-0.716624	-0.254095	0.583185
64544	-9.599028	1.170196	-1.461219	-0.025269	-0.129068	-0.033702	-0.285694	-0.716793	-0.253946	0.583180
64545	-9.595918	1.140223	-1.497049	-0.021656	-0.085504	-0.034389	-0.285490	-0.716909	-0.253887	0.583162
64546	-9.554787	1.146630	-1.562454	0.034912	-0.046241	-0.063502	-0.285283	-0.717053	-0.253847	0.583104
64547	-9.607896	1.150851	-1.555569	0.021404	-0.059418	-0.012079	-0.285139	-0.717152	-0.253903	0.583028
64548	-9.629409	1.086281	-1.556498	-0.027885	-0.016700	0.001952	-0.284992	-0.717252	-0.253923	0.582968
64549	-9.570296	1.154906	-1.498945	-0.010036	-0.107301	-0.057709	-0.284774	-0.717365	-0.253901	0.582945
64550	-9.582878	1.181478	-1.521224	0.020202	-0.114389	-0.038841	-0.284823	-0.717402	-0.254120	0.582781
64551	-9.616515	1.160766	-1.587924	0.043467	-0.056791	0.002664	-0.285114	-0.717383	-0.254580	0.582461
64552	-9.616366	0.982541	-1.668158	-0.026060	0.123981	-0.004192	-0.285274	-0.717351	-0.254913	0.582276
64553	-9.594399	1.164652	-1.568953	0.033786	-0.076710	-0.021697	-0.285263	-0.717411	-0.255003	0.582168
64554	-9.623738	1.100246	-1.587788	-0.004346	-0.019991	0.002991	-0.285508	-0.717318	-0.255340	0.582015
64555	-9.636266	0.979800	-1.699417	-0.013895	0.142232	0.020177	-0.285632	-0.717328	-0.255588	0.581833
64556	-9.582705	1.138178	-1.587863	0.027640	-0.047813	-0.033017	-0.285632	-0.717338	-0.255581	0.581824
64557	-9.566634	1.126291	-1.583242	0.018899	-0.042824	-0.050850	-0.285684	-0.717331	-0.255746	0.581734
64558	-9.630650	1.159283	-1.560876	0.013197	-0.085772	0.011882	-0.285732	-0.717336	-0.255878	0.581646
64559	-9.595521	1.091141	-1.616343	0.011085	0.001826	-0.021005	-0.285834	-0.717272	-0.256094	0.581580
64560	-9.595830	1.060244	-1.604025	-0.018735	0.013541	-0.026144	-0.285752	-0.717304	-0.256165	0.581550
64561	-9.576738	1.151689	-1.574813	0.028303	-0.073466	-0.039554	-0.285768	-0.717296	-0.256331	0.581479
64562	-9.592551	1.073611	-1.620809	0.002932	0.011540	-0.025116	-0.285772	-0.717284	-0.256522	0.581408
64563	-9.584581	1.117937	-1.584293	0.009746	-0.048099	-0.034060	-0.285614	-0.717361	-0.256555	0.581375
64564	-9.586985	1.130883	-1.586360	0.019606	-0.058654	-0.029953	-0.285661	-0.717338	-0.256787	0.581278
64565	-9.615976	1.005266	-1.658191	-0.023672	0.076906	-0.003474	-0.285538	-0.717396	-0.256912	0.581212
64566	-9.586545	1.171831	-1.572292	0.037861	-0.104394	-0.028271	-0.285397	-0.717472	-0.256983	0.581156
64567	-9.591749	1.035312	-1.619827	-0.025274	0.022423	-0.030243	-0.285394	-0.717466	-0.257240	0.581051
64568	-9.610353	1.029683	-1.614876	-0.036336	0.018348	-0.013438	-0.285188	-0.717559	-0.257290	0.581016
64569	-9.576856	1.123312	-1.659939	0.066202	-0.018982	-0.028585	-0.285091	-0.717605	-0.257402	0.580957
64570	-9.593662	1.043763	-1.627626	-0.014523	0.011190	-0.026134	-0.284989	-0.717621	-0.257525	0.580932
64571	-9.609857	1.068143	-1.602828	-0.017609	-0.027720	-0.011755	-0.284856	-0.717675	-0.257657	0.580872
64572	-9.553047	1.076336	-1.629095	0.017245	-0.016587	-0.062170	-0.284680	-0.717750	-0.257704	0.580845
64573	-9.590233	1.097511	-1.629155	0.024820	-0.036428	-0.023443	-0.284669	-0.717747	-0.257917	0.580760
64574	-9.597591	1.049953	-1.670195	0.018876	0.022667	-0.014482	-0.284532	-0.717803	-0.258010	0.580717
64575	-9.568212	1.038414	-1.661138	0.010483	0.022495	-0.046022	-0.284420	-0.717827	-0.258110	0.580698
64576	-9.592707	1.076268	-1.622430	0.005696	-0.035703	-0.024463	-0.284194	-0.717907	-0.258098	0.580715
64577	-9.571076	1.062975	-1.632671	0.008126	-0.021594	-0.045370	-0.283998	-0.717974	-0.258134	0.580711
64578	-9.577524	1.088871	-1.556223	-0.027961	-0.097617	-0.049177	-0.283829	-0.718043	-0.258206	0.580677
64579	-9.594871	1.009291	-1.636415	-0.031361	0.010399	-0.027137	-0.283719	-0.718106	-0.258381	0.580574
64580	-9.617474	1.077421	-1.691462	0.049352	-0.004827	0.011529	-0.283519	-0.718196	-0.258450	0.580531
64581	-9.603286	1.077241	-1.577215	-0.027319	-0.088238	-0.021741	-0.283407	-0.718238	-0.258589	0.580471
64582	-9.593027	1.092413	-1.685745	0.060276	-0.026236	-0.011822	-0.283353	-0.718266	-0.258794	0.580372
64583	-9.600539	1.014462	-1.713486	0.024120	0.044783	-0.007947	-0.283311	-0.718253	-0.259029	0.580303
64584	-9.585986	1.073981	-1.624982	0.007520	-0.062323	-0.031011	-0.283200	-0.718278	-0.259145	0.580274
64585	-9.614475	0.992685	-1.676891	-0.017999	0.027780	-0.002773	-0.283272	-0.718228	-0.259429	0.580174
64586	-9.579807	0.952522	-1.667663	-0.045203	0.048559	-0.042493	-0.283049	-0.718308	-0.259425	0.580186
64587	-9.611474	1.049237	-1.675080	0.021114	-0.019418	-0.000124	-0.282938	-0.718354	-0.259466	0.580164
64588	-9.629281	0.985387	-1.720810	0.005273	0.055217	0.018495	-0.282926	-0.718332	-0.259591	0.580142
64589	-9.564412	0.981870	-1.757743	0.041912	0.085876	-0.039122	-0.282956	-0.718276	-0.259671	0.580161
64590	-9.579330	0.978465	-1.684317	-0.013386	0.035818	-0.037391	-0.282904	-0.718281	-0.259650	0.580189
64591	-9.583524	0.977751	-1.749059	0.031161	0.081392	-0.022307	-0.282883	-0.718236	-0.259653	0.580254
64592	-9.612112	1.016441	-1.661545	-0.006894	-0.008863	-0.005218	-0.282690	-0.718294	-0.259473	0.580357
64593	-9.582241	1.110751	-1.545745	-0.015024	-0.155974	-0.044480	-0.282681	-0.718273	-0.259481	0.580383
64594	-9.564092	1.010148	-1.657790	-0.003425	-0.005406	-0.053564	-0.282687	-0.718261	-0.259560	0.580359
64595	-9.591163	1.019616	-1.637199	-0.016256	-0.028713	-0.029571	-0.282652	-0.718277	-0.259590	0.580343
64596	-9.568597	1.023531	-1.691961	0.029038	0.006784	-0.041940	-0.282590	-0.718287	-0.259617	0.580350
64597	-9.599777	1.032366	-1.736524	0.060418	0.029310	-0.002871	-0.282575	-0.718275	-0.259664	0.580351
64598	-9.640876	0.979624	-1.693881	-0.012804	0.034732	0.024691	-0.282607	-0.718214	-0.259733	0.580380
64599	-9.606275	0.970814	-1.695002	-0.010036	0.043514	-0.009930	-0.282471	-0.718221	-0.259607	0.580494
64600	-9.581917	1.093727	-1.578289	0.000618	-0.124469	-0.041051	-0.282408	-0.718201	-0.259556	0.580572
64601	-9.570726	1.021113	-1.610895	-0.024092	-0.049593	-0.053927	-0.282355	-0.718204	-0.259561	0.580591
64602	-9.611739	1.042699	-1.563096	-0.049893	-0.101390	-0.019667	-0.282288	-0.718227	-0.259572	0.580591
64603	-9.580920	1.033070	-1.631456	-0.003053	-0.046515	-0.039217	-0.282241	-0.718237	-0.259636	0.580573
64604	-9.583746	1.016577	-1.619382	-0.023136	-0.045306	-0.040204	-0.282099	-0.718290	-0.259639	0.580575
64605	-9.584936	1.000786	-1.686444	0.011958	0.010719	-0.029211	-0.282090	-0.718304	-0.259756	0.580510
64606	-9.620190	1.023341	-1.653159	-0.002434	-0.032072	0.001954	-0.281999	-0.718346	-0.259767	0.580497
64607	-9.578532	0.956113	-1.722282	0.006571	0.064445	-0.033910	-0.281933	-0.718379	-0.259815	0.580467
64608	-9.570089	1.060763	-1.600678	-0.003678	-0.096942	-0.052330	-0.281804	-0.718446	-0.259820	0.580444
64609	-9.578444	0.999343	-1.706317	0.024838	0.018532	-0.032307	-0.281825	-0.718449	-0.259936	0.580378
64610	-9.599630	0.935493	-1.706142	-0.024146	0.061206	-0.018064	-0.281809	-0.718475	-0.260040	0.580307
64611	-9.605769	1.023312	-1.655710	-0.000019	-0.038578	-0.011776	-0.281817	-0.718491	-0.260135	0.580241
64612	-9.609047	0.904022	-1.747324	-0.020547	0.109689	-0.004949	-0.281874	-0.718476	-0.260196	0.580205
64613	-9.595775	0.982049	-1.735684	0.027705	0.047027	-0.012027	-0.281956	-0.718466	-0.260209	0.580172
64614	-9.608588	0.936636	-1.760195	0.010468	0.097276	0.000108	-0.281962	-0.718458	-0.260097	0.580228
64615	-9.631906	1.023614	-1.666163	0.001180	-0.029433	0.015671	-0.282124	-0.718406	-0.260065	0.580228
64616	-9.554299	0.966194	-1.668778	-0.022188	0.019872	-0.065785	-0.282209	-0.718376	-0.259969	0.580267
64617	-9.587164	1.051626	-1.626578	0.001421	-0.069784	-0.032068	-0.282304	-0.718348	-0.259924	0.580277
64618	-9.587389	1.023939	-1.612315	-0.028246	-0.058151	-0.037113	-0.282422	-0.718325	-0.259914	0.580252
64619	-9.578597	1.042588	-1.639021	0.004046	-0.050998	-0.039239	-0.282516	-0.718321	-0.259935	0.580201
64620	-9.608502	1.038820	-1.604519	-0.029368	-0.072902	-0.016220	-0.282657	-0.718302	-0.259989	0.580132
64621	-9.569437	0.988785	-1.672697	-0.010862	0.013245	-0.047983	-0.282769	-0.718316	-0.260021	0.580045
64622	-9.583282	1.047541	-1.627222	-0.005817	-0.060606	-0.036145	-0.282846	-0.718341	-0.260043	0.579967
64623	-9.579243	1.050477	-1.674404	0.027874	-0.028927	-0.031715	-0.282946	-0.718363	-0.260062	0.579883
64624	-9.600716	1.033536	-1.654368	-0.003787	-0.031581	-0.015858	-0.283052	-0.718383	-0.260121	0.579779
64625	-9.653391	1.025942	-1.678212	-0.004430	-0.011432	0.039052	-0.283214	-0.718359	-0.260218	0.579687
64626	-9.560088	0.956492	-1.788337	0.040367	0.121069	-0.040685	-0.283382	-0.718315	-0.260257	0.579641
64627	-9.599727	1.069798	-1.667289	0.027550	-0.044339	-0.010832	-0.283430	-0.718298	-0.260163	0.579681
64628	-9.568208	1.018148	-1.641817	-0.020527	-0.022041	-0.051443	-0.283590	-0.718274	-0.260178	0.579626
64629	-9.596389	0.896996	-1.711209	-0.063494	0.113384	-0.024601	-0.283687	-0.718270	-0.260112	0.579613
64630	-9.566608	1.113294	-1.680857	0.070677	-0.058334	-0.036374	-0.283699	-0.718320	-0.259968	0.579610
64631	-9.543688	1.044969	-1.629030	-0.009210	-0.043410	-0.074838	-0.283893	-0.718255	-0.260051	0.579559
64632	-9.599122	1.052101	-1.651913	-0.000344	-0.033659	-0.015864	-0.284047	-0.718251	-0.260123	0.579455
64633	-9.600361	0.965292	-1.724012	-0.012780	0.079686	-0.011442	-0.284136	-0.718251	-0.260096	0.579424
64634	-9.617300	1.127361	-1.638193	0.036582	-0.095215	0.007531	-0.284184	-0.718268	-0.260047	0.579402
64635	-9.574905	1.047413	-1.627297	-0.019153	-0.043091	-0.044281	-0.284294	-0.718243	-0.260078	0.579364
64636	-9.595167	1.075407	-1.665673	0.021954	-0.036093	-0.014912	-0.284383	-0.718244	-0.260117	0.579302
64637	-9.578645	1.094840	-1.673562	0.043306	-0.042933	-0.027688	-0.284478	-0.718228	-0.260155	0.579258
64638	-9.568226	1.083125	-1.654580	0.023403	-0.046823	-0.042375	-0.284566	-0.718215	-0.260198	0.579212
64639	-9.596859	1.005076	-1.705114	-0.002115	0.043299	-0.013942	-0.284664	-0.718171	-0.260282	0.579181
64640	-9.597443	1.019991	-1.672264	-0.014285	0.009621	-0.017409	-0.284563	-0.718202	-0.260200	0.579228
64641	-9.603420	1.108070	-1.619642	0.009916	-0.090220	-0.011234	-0.284583	-0.718190	-0.260210	0.579229
64642	-9.577288	0.964363	-1.621221	-0.084194	0.013758	-0.051770	-0.284525	-0.718226	-0.260181	0.579226
64643	-9.582197	1.112120	-1.596333	0.000203	-0.109909	-0.035597	-0.284393	-0.718305	-0.260120	0.579221
64644	-9.600747	1.108580	-1.590830	-0.010772	-0.114026	-0.018765	-0.284350	-0.718373	-0.260182	0.579128
64645	-9.571838	1.069833	-1.680459	0.028155	-0.024297	-0.035818	-0.284352	-0.718426	-0.260295	0.579012
64646	-9.577644	1.082773	-1.637326	0.004799	-0.066911	-0.036186	-0.284267	-0.718507	-0.260410	0.578902
64647	-9.606099	1.047065	-1.671593	-0.003248	-0.022107	-0.006199	-0.284236	-0.718550	-0.260569	0.578791
64648	-9.584168	1.035297	-1.682251	-0.000793	-0.008114	-0.027085	-0.284216	-0.718588	-0.260720	0.578685
64649	-9.567204	1.007896	-1.712275	0.003124	0.030341	-0.041393	-0.284094	-0.718673	-0.260769	0.578618
64650	-9.573578	1.109448	-1.629995	0.014677	-0.102900	-0.038725	-0.284037	-0.718751	-0.260874	0.578502
64651	-9.559744	0.992431	-1.653634	-0.049605	-0.005726	-0.060476	-0.284019	-0.718814	-0.261035	0.578360
64652	-9.624676	1.084280	-1.693622	0.027234	-0.049674	0.019667	-0.283898	-0.718940	-0.261150	0.578211
64653	-9.558931	0.961637	-1.759859	-0.001266	0.083495	-0.046007	-0.283833	-0.718991	-0.261252	0.578134
64654	-9.600634	1.042598	-1.773716	0.055452	0.030842	0.005725	-0.283660	-0.719113	-0.261229	0.578077
64655	-9.630606	1.036317	-1.741399	0.022125	0.008843	0.028777	-0.283630	-0.719128	-0.261284	0.578048
64656	-9.563275	0.988047	-1.654593	-0.058438	-0.016036	-0.057357	-0.283612	-0.719157	-0.261354	0.577990
64657	-9.576049	1.059713	-1.655999	-0.010667	-0.068450	-0.037145	-0.283450	-0.719248	-0.261313	0.577974
64658	-9.621416	1.095632	-1.642689	-0.004684	-0.107703	0.008659	-0.283414	-0.719303	-0.261371	0.577897
64659	-9.576523	1.043856	-1.614811	-0.052477	-0.090480	-0.045595	-0.283366	-0.719373	-0.261448	0.577798
64660	-9.621415	1.035822	-1.621795	-0.063943	-0.084418	-0.001288	-0.283396	-0.719430	-0.261575	0.577655
64661	-9.581092	1.088912	-1.699633	0.032247	-0.067437	-0.021558	-0.283389	-0.719527	-0.261657	0.577501
64662	-9.612713	1.083838	-1.700512	0.021037	-0.066469	0.009015	-0.283511	-0.719515	-0.261838	0.577374
64663	-9.593542	0.984984	-1.815018	0.032796	0.084102	0.000181	-0.283674	-0.719521	-0.262059	0.577186
64664	-9.568544	0.916281	-1.844458	0.008324	0.153851	-0.026222	-0.283711	-0.719538	-0.262125	0.577117
64665	-9.545968	1.039721	-1.761318	0.041009	0.008939	-0.050157	-0.283815	-0.719518	-0.262203	0.577055
64666	-9.560804	0.993101	-1.708603	-0.031626	0.004197	-0.049822	-0.283920	-0.719506	-0.262304	0.576972
64667	-9.637134	1.040679	-1.737677	0.005456	-0.012351	0.034987	-0.284192	-0.719419	-0.262521	0.576848
64668	-9.555476	0.983314	-1.788422	0.015261	0.068952	-0.041941	-0.284243	-0.719443	-0.262531	0.576788
64669	-9.585824	1.097789	-1.727984	0.046955	-0.055605	-0.010963	-0.284395	-0.719391	-0.262635	0.576731
64670	-9.501004	0.936173	-1.818424	0.012384	0.126768	-0.094872	-0.284376	-0.719411	-0.262682	0.576694
64671	-9.600142	1.080461	-1.689029	0.004898	-0.072542	-0.005667	-0.284289	-0.719432	-0.262638	0.576731
64672	-9.524422	1.020129	-1.726305	0.003508	-0.000168	-0.079476	-0.284282	-0.719438	-0.262655	0.576719
64673	-9.566265	0.983144	-1.764023	-0.004741	0.049704	-0.035710	-0.284329	-0.719405	-0.262797	0.576672
64674	-9.628071	1.075763	-1.734995	0.027947	-0.040231	0.029306	-0.284316	-0.719414	-0.262817	0.576658
64675	-9.593909	1.009050	-1.821423	0.047940	0.070369	0.004216	-0.284488	-0.719292	-0.262933	0.576673
64676	-9.513889	1.037834	-1.719250	0.015086	-0.016701	-0.089185	-0.284454	-0.719274	-0.262888	0.576733
64677	-9.553171	1.060892	-1.749187	0.044957	-0.013681	-0.043039	-0.284519	-0.719208	-0.262993	0.576735
64678	-9.645258	0.984246	-1.730157	-0.038633	0.022580	0.035723	-0.284520	-0.719142	-0.263010	0.576809
64679	-9.501913	0.981145	-1.795306	0.034049	0.079098	-0.093392	-0.284518	-0.719091	-0.262968	0.576893
64680	-9.626958	0.987956	-1.733969	-0.026248	0.025909	0.018877	-0.284517	-0.719022	-0.262901	0.577010
64681	-9.562511	1.030038	-1.747937	0.027574	0.011306	-0.037362	-0.284521	-0.718953	-0.262815	0.577133
64682	-9.568027	1.088065	-1.646308	-0.000497	-0.099552	-0.043785	-0.284648	-0.718823	-0.262867	0.577208
64683	-9.516853	0.934921	-1.699436	-0.059402	0.050723	-0.100502	-0.284791	-0.718712	-0.262962	0.577233
64684	-9.606990	1.051777	-1.614267	-0.052555	-0.095793	-0.015014	-0.284627	-0.718748	-0.262803	0.577342
64685	-9.592080	1.099867	-1.666640	0.020948	-0.091558	-0.015413	-0.284812	-0.718636	-0.262983	0.577308
64686	-9.610609	1.007930	-1.697447	-0.024928	-0.004978	-0.001449	-0.284935	-0.718538	-0.263121	0.577306
64687	-9.621439	1.037485	-1.793853	0.060777	0.042766	0.029103	-0.285112	-0.718428	-0.263269	0.577288
64688	-9.545246	1.110728	-1.736756	0.089517	-0.043719	-0.047861	-0.285293	-0.718277	-0.263421	0.577317
64689	-9.547943	0.962470	-1.780284	0.016880	0.093577	-0.053080	-0.285596	-0.718059	-0.263697	0.577313
64690	-9.638903	0.975960	-1.798259	0.023622	0.094013	0.040499	-0.285499	-0.717989	-0.263570	0.577506
64691	-9.601455	1.131371	-1.795605	0.141982	-0.013080	0.019495	-0.285634	-0.717792	-0.263618	0.577662
64692	-9.614030	0.936013	-1.796508	0.007459	0.128611	0.011596	-0.285816	-0.717537	-0.263640	0.577879
64693	-9.583636	0.912048	-1.778118	-0.010626	0.139004	-0.023909	-0.285807	-0.717351	-0.263413	0.578217
64694	-9.598374	1.028575	-1.749205	0.054617	0.041160	-0.002398	-0.285735	-0.717171	-0.263095	0.578621
64695	-9.611658	0.996466	-1.700613	0.002599	0.034940	-0.001074	-0.285685	-0.716977	-0.262736	0.579049
64696	-9.622160	1.069238	-1.625455	0.006007	-0.063480	0.003996	-0.285585	-0.716838	-0.262297	0.579470
64697	-9.621705	1.114231	-1.564172	0.001731	-0.132001	-0.002085	-0.285577	-0.716610	-0.262019	0.579881
64698	-9.574411	1.049405	-1.604301	-0.000224	-0.049387	-0.048368	-0.285522	-0.716404	-0.261702	0.580306
64699	-9.602299	1.000567	-1.626830	-0.017699	0.005790	-0.022309	-0.285449	-0.716220	-0.261362	0.580721
64700	-9.617886	0.982550	-1.578251	-0.060285	-0.010857	-0.016961	-0.285258	-0.716083	-0.260946	0.581171
64701	-9.632098	1.010069	-1.589184	-0.029889	-0.018030	0.001682	-0.285089	-0.715953	-0.260532	0.581600
64702	-9.620037	1.012127	-1.576155	-0.029294	-0.023341	-0.012057	-0.284815	-0.715875	-0.260063	0.582040
64703	-9.556867	1.067789	-1.554152	0.011762	-0.071380	-0.071844	-0.284589	-0.715797	-0.259628	0.582440
64704	-9.593022	1.090702	-1.512790	-0.002698	-0.114264	-0.040729	-0.284368	-0.715723	-0.259231	0.582816
64705	-9.615056	1.086363	-1.532142	0.008455	-0.095465	-0.016374	-0.284179	-0.715635	-0.258976	0.583130
64706	-9.611745	1.188452	-1.390475	-0.013144	-0.265714	-0.032059	-0.283904	-0.715574	-0.258725	0.583450
64707	-9.583402	1.042783	-1.434243	-0.074119	-0.129758	-0.067755	-0.283856	-0.715438	-0.258805	0.583604
64708	-9.557066	1.029559	-1.454067	-0.060681	-0.106733	-0.091744	-0.283466	-0.715475	-0.258652	0.583817
64709	-9.597387	1.151927	-1.413106	-0.008571	-0.227740	-0.046332	-0.283214	-0.715491	-0.258735	0.583882
64710	-9.650293	1.108726	-1.502697	0.016239	-0.140917	0.015609	-0.283144	-0.715425	-0.259087	0.583842
64711	-9.641992	1.031083	-1.570812	0.013518	-0.043104	0.010578	-0.282912	-0.715436	-0.259335	0.583830
64712	-9.650141	1.113320	-1.553467	0.059732	-0.120051	0.023978	-0.282781	-0.715382	-0.259674	0.583808
64713	-9.502879	0.926076	-1.637075	0.018039	0.072011	-0.125746	-0.282628	-0.715313	-0.260123	0.583768
64714	-9.585646	0.963400	-1.654576	0.044004	0.046426	-0.037910	-0.282255	-0.715359	-0.260371	0.583781
64715	-9.658368	0.957421	-1.639305	0.019553	0.029148	0.030422	-0.281938	-0.715328	-0.260623	0.583860
64716	-9.654595	1.143698	-1.544445	0.088296	-0.176902	0.029339	-0.281599	-0.715320	-0.260892	0.583913
64717	-9.606887	0.981262	-1.555395	-0.004044	-0.058482	-0.031534	-0.281640	-0.715127	-0.261575	0.583824
64718	-9.624884	0.896368	-1.634554	-0.007239	0.049469	-0.009059	-0.281459	-0.715040	-0.262046	0.583807
64719	-9.601012	0.863443	-1.644696	-0.014312	0.073938	-0.033919	-0.281217	-0.714971	-0.262403	0.583848
64720	-9.598535	0.901304	-1.672588	0.036803	0.060282	-0.028170	-0.280940	-0.714888	-0.262685	0.583956
64721	-9.610255	0.891124	-1.646202	0.014843	0.042150	-0.021922	-0.280534	-0.714855	-0.262839	0.584122
64722	-9.654540	0.949347	-1.611001	0.028880	-0.031998	0.021176	-0.280280	-0.714741	-0.263110	0.584262
64723	-9.608058	0.772243	-1.684428	-0.028572	0.142723	-0.028658	-0.279963	-0.714612	-0.263292	0.584489
64724	-9.584559	0.977156	-1.606991	0.072132	-0.060925	-0.045799	-0.279385	-0.714594	-0.263190	0.584834
64725	-9.614482	0.903559	-1.622454	0.034020	-0.004261	-0.020555	-0.278983	-0.714469	-0.263315	0.585122
64726	-9.550337	0.906409	-1.513744	-0.019918	-0.084685	-0.101130	-0.278425	-0.714413	-0.263361	0.585436
64727	-9.580028	0.861298	-1.543953	-0.027841	-0.039939	-0.071014	-0.277923	-0.714352	-0.263546	0.585665
64728	-9.636531	0.795527	-1.540387	-0.079040	-0.006499	-0.021769	-0.277311	-0.714365	-0.263631	0.585901
64729	-9.598130	0.867911	-1.519071	-0.030422	-0.079216	-0.056779	-0.276760	-0.714380	-0.263753	0.586089
64730	-9.608290	0.796640	-1.546408	-0.057137	-0.018707	-0.048384	-0.276171	-0.714434	-0.263913	0.586229
64731	-9.551706	0.812599	-1.619725	0.020184	0.014086	-0.090635	-0.275504	-0.714524	-0.264050	0.586370
64732	-9.552302	0.786653	-1.578345	-0.022186	-0.007682	-0.098990	-0.274829	-0.714648	-0.264277	0.586434
64733	-9.596472	0.721650	-1.607726	-0.051165	0.043648	-0.055982	-0.274118	-0.714840	-0.264537	0.586415
64734	-9.654843	0.772997	-1.508035	-0.092786	-0.080355	-0.011024	-0.273256	-0.715098	-0.264680	0.586439
64735	-9.644927	0.897675	-1.566322	0.037752	-0.143859	-0.001384	-0.272404	-0.715410	-0.264822	0.586390
64736	-9.636124	0.979347	-1.374856	-0.037699	-0.349526	-0.036153	-0.272022	-0.715536	-0.265407	0.586150
64737	-9.535498	0.810859	-1.577843	0.005214	-0.094309	-0.114034	-0.272371	-0.715375	-0.266687	0.585603
64738	-9.536042	0.712907	-1.691218	0.014993	0.041956	-0.101737	-0.272464	-0.715366	-0.267768	0.585077
64739	-9.695336	1.181278	-1.407954	0.114790	-0.512376	0.041326	-0.272836	-0.715203	-0.268953	0.584558
64740	-9.643315	1.080955	-1.636064	0.215621	-0.285137	0.021482	-0.274292	-0.714354	-0.271275	0.583843
64741	-9.230623	0.710857	-1.477156	-0.074318	-0.107669	-0.438543	-0.276605	-0.712927	-0.274325	0.583070
64742	-9.647470	0.480201	-1.502782	-0.287933	0.034337	-0.041376	-0.277626	-0.712496	-0.276694	0.581992
64743	-9.550319	0.805558	-1.406326	-0.108329	-0.268890	-0.130166	-0.278914	-0.711996	-0.278908	0.580929
64744	-9.462586	0.678825	-1.812653	0.086410	0.103142	-0.155104	-0.280486	-0.711433	-0.281829	0.579451
64745	-9.700037	0.353261	-1.878722	-0.154871	0.338342	0.066918	-0.281578	-0.711243	-0.284332	0.577930
64746	-9.455589	0.555963	-1.980980	0.088437	0.274028	-0.140119	-0.281957	-0.711505	-0.285591	0.576801
64747	-9.600941	0.321613	-1.861123	-0.203606	0.315678	-0.034953	-0.282923	-0.711595	-0.287861	0.575086
64748	-9.705478	0.207631	-1.922626	-0.284206	0.405683	0.071162	-0.283238	-0.712054	-0.289284	0.573647
64749	-9.672546	0.537996	-1.763411	-0.162464	0.048599	0.032534	-0.283435	-0.712651	-0.290028	0.572430
64750	-9.521229	0.381577	-2.134170	-0.027294	0.424352	-0.057011	-0.284100	-0.713000	-0.291158	0.571091
64751	-9.562619	0.423901	-2.142954	-0.021220	0.384996	-0.011316	-0.284460	-0.713665	-0.291812	0.569746
64752	-9.639113	0.538931	-1.865137	-0.157887	0.086629	0.018344	-0.285563	-0.714022	-0.292787	0.568244
64753	-9.673804	0.065610	-1.881127	-0.529398	0.407205	0.019875	-0.286748	-0.714338	-0.293683	0.566788
64754	-9.564891	0.154775	-1.940667	-0.432316	0.398928	-0.069424	-0.287251	-0.715120	-0.293395	0.565694
64755	-9.582080	0.337963	-1.941969	-0.327460	0.278777	-0.039423	-0.288094	-0.715721	-0.293000	0.564709
64756	-9.541399	0.222922	-1.941878	-0.432721	0.368829	-0.089750	-0.289217	-0.716225	-0.292559	0.563724
64757	-9.505546	0.351605	-1.953720	-0.352630	0.308581	-0.113389	-0.290351	-0.716832	-0.291768	0.562779
64758	-9.536197	0.711698	-1.975877	-0.110019	0.100494	-0.049116	-0.291979	-0.717280	-0.291046	0.561738
64759	-9.530181	0.614370	-1.901055	-0.261724	0.135421	-0.079814	-0.294236	-0.717411	-0.290677	0.560583
64760	-9.464572	0.173334	-1.863941	-0.629845	0.434929	-0.195180	-0.296078	-0.717628	-0.289794	0.559791
64761	-9.587278	0.599298	-1.974205	-0.296754	0.250789	-0.013633	-0.296252	-0.718619	-0.287230	0.559750
64762	-9.519017	1.956462	-1.831646	0.597784	-0.729430	0.031335	-0.296064	-0.719955	-0.284016	0.559773
64763	-9.550040	2.236899	-1.458720	0.525260	-1.170022	0.020413	-0.297852	-0.720177	-0.283259	0.558921
64764	-9.571722	0.820687	-1.953708	-0.228647	0.166950	-0.013294	-0.300075	-0.719984	-0.283530	0.557843
64765	-9.614232	1.070062	-1.995522	-0.052893	0.047103	0.064332	-0.300273	-0.720876	-0.281836	0.557442
64766	-9.717490	2.248299	-2.123886	0.843368	-0.642145	0.329878	-0.299784	-0.722175	-0.279560	0.557170
64767	-9.837050	2.588309	-2.105017	1.027694	-0.889188	0.485427	-0.299683	-0.722818	-0.278640	0.556853
64768	-9.835627	1.965569	-1.758422	0.338891	-0.728277	0.338659	-0.299092	-0.723159	-0.278187	0.556953
64769	-9.451999	1.383900	-1.812145	0.035394	-0.284954	-0.093797	-0.296686	-0.724174	-0.277036	0.557495
64770	-9.306090	1.797280	-1.329906	0.048076	-0.944101	-0.288597	-0.291191	-0.726883	-0.273546	0.558589
64771	-9.192915	3.743883	-0.131304	0.640149	-3.196704	-0.436433	-0.285511	-0.730205	-0.269997	0.558914
64772	-9.238567	3.124130	-0.462584	0.381202	-2.600079	-0.409543	-0.284378	-0.730940	-0.273970	0.556594
64773	-9.358576	1.141864	-1.112322	-0.626246	-0.852424	-0.378469	-0.282765	-0.731690	-0.278840	0.554005
64774	-9.344360	1.890053	-1.268130	-0.000869	-1.362219	-0.292149	-0.277918	-0.734488	-0.280915	0.551702
64775	-9.436554	2.595192	-1.117241	0.359127	-2.087662	-0.192749	-0.274973	-0.736279	-0.285853	0.548244
64776	-9.314550	1.493225	-1.864284	0.072441	-0.907212	-0.240004	-0.272761	-0.737536	-0.293027	0.543854
64777	-9.486496	1.698214	-1.326282	-0.186144	-1.608205	-0.220339	-0.267636	-0.740046	-0.298717	0.539880
64778	-9.526366	2.324049	-0.768319	-0.118754	-2.618166	-0.332651	-0.262198	-0.742710	-0.305549	0.535045
64779	-9.831082	2.008569	-0.801800	-0.419894	-2.643315	-0.109128	-0.255642	-0.745853	-0.313731	0.529078
64780	-10.374620	2.642290	-0.320738	-0.419893	-3.781259	0.199069	-0.247608	-0.749814	-0.322802	0.521793
64781	-10.992269	1.997688	-1.041633	-0.630166	-3.299360	0.892985	-0.239948	-0.753616	-0.334849	0.512215
64782	-13.144812	0.943652	-2.626045	-1.032023	-2.487624	3.351499	-0.228209	-0.758434	-0.346782	0.502435
64783	-15.355750	0.864982	-1.845803	-2.159910	-4.163527	4.949688	-0.215866	-0.761764	-0.357536	0.495263
64784	-12.775506	0.667998	-1.976877	-1.531728	-3.562683	2.536950	-0.206014	-0.762599	-0.369800	0.489131
64785	-9.351235	0.582916	-3.158868	0.005436	-1.849177	-0.100132	-0.195065	-0.764457	-0.382613	0.480794
64786	-9.548763	1.901410	-5.193231	2.155150	-1.794112	0.859133	-0.184864	-0.766897	-0.396685	0.469398
64787	-10.441752	1.096319	-5.361324	1.353966	-1.924804	1.738454	-0.183128	-0.765259	-0.416467	0.455410
64788	-10.459123	-0.592215	-1.190201	-2.283914	-3.956869	-0.311129	-0.188927	-0.759182	-0.437523	0.443310
64789	-7.254890	0.594218	-1.194109	-0.485951	-3.201960	-3.185323	-0.192793	-0.753151	-0.453820	0.435480
64790	-8.003120	4.317553	-1.157264	2.646912	-5.553859	-3.017514	-0.202763	-0.744185	-0.470972	0.428090
64791	-8.706172	5.926574	-0.240660	3.805708	-7.124823	-3.051831	-0.224438	-0.729282	-0.492565	0.418515
64792	-7.487944	2.483522	-1.859766	1.836047	-3.515924	-2.745065	-0.254232	-0.708214	-0.517478	0.407450
64793	-7.343570	-0.616857	-2.976996	-0.580437	-1.276147	-1.989430	-0.281212	-0.685781	-0.538386	0.400955
64794	-8.488780	0.063200	-2.794627	-0.009779	-1.983695	-1.098875	-0.302459	-0.666085	-0.550753	0.401897
64795	-8.595853	1.458864	-2.907496	1.496753	-1.912689	-0.949447	-0.322810	-0.645719	-0.560424	0.405913
64796	-9.503337	1.006507	-3.812734	1.300620	-1.049218	0.338808	-0.341622	-0.625530	-0.567545	0.412188
64797	-9.817828	2.089694	-4.482797	2.574074	-0.243127	0.871114	-0.358204	-0.607792	-0.569826	0.421401
64798	-10.172290	4.175851	-5.128708	4.785939	0.564606	1.321082	-0.376234	-0.590644	-0.570322	0.429325
64799	-10.429248	4.372170	-5.076976	4.961327	1.078480	1.493936	-0.399025	-0.570063	-0.573032	0.432945
64800	-10.053061	3.581967	-5.647945	4.058907	2.462835	1.287385	-0.423440	-0.548362	-0.576090	0.433726
64801	-9.395236	3.834456	-5.775729	4.040043	3.437254	0.586874	-0.449924	-0.524633	-0.580798	0.430119
64802	-8.888365	3.474327	-6.531022	3.233347	4.885760	0.155045	-0.477341	-0.498671	-0.587695	0.422005
64803	-8.387575	3.063639	-6.767366	2.272388	5.682593	-0.430066	-0.504477	-0.470748	-0.596676	0.409729
64804	-8.517700	3.324199	-6.984389	1.903500	6.360194	-0.417946	-0.530099	-0.443118	-0.605976	0.394252
64805	-9.169169	2.239538	-6.552789	0.386332	5.874578	0.052827	-0.555238	-0.412582	-0.617796	0.373919
64806	-7.108232	-0.363089	-9.267298	-3.781296	7.656455	-1.838978	-0.575979	-0.385884	-0.626902	0.355438
64807	-5.817289	1.941162	-7.554079	-1.545484	7.137136	-3.383657	-0.588485	-0.374880	-0.629944	0.341060
64808	-6.569772	6.155825	-8.041251	1.506553	9.506753	-2.529132	-0.597247	-0.364750	-0.636459	0.324306
64809	-7.034284	2.122042	-10.357664	-3.672621	9.205407	-1.875587	-0.604001	-0.341576	-0.653981	0.301360
64810	-8.147751	-6.256903	-13.099036	-12.492395	5.817438	-0.478929	-0.607998	-0.317080	-0.672486	0.278498
64811	-14.352793	-11.814453	-2.105690	-9.337065	-7.451757	4.584265	-0.607317	-0.306121	-0.683194	0.265900
64812	-9.482206	-4.515411	-4.615728	-5.673842	-0.384925	0.150260	-0.594156	-0.331406	-0.676390	0.282215
64813	-10.306422	9.423018	0.543152	8.561554	3.867827	0.532120	-0.589197	-0.355158	-0.667323	0.285290
64814	-9.627571	3.128704	-2.108468	1.832367	2.199748	0.123454	-0.595649	-0.328791	-0.684365	0.262189
64815	-9.518356	-4.417523	-4.962416	-5.822457	-0.559441	0.213152	-0.601367	-0.315010	-0.691475	0.246959
64816	-9.286497	0.266493	-1.997814	-0.406359	0.232631	-0.321673	-0.597650	-0.325784	-0.690817	0.243825
64817	-10.520505	0.610007	-1.422199	0.294338	-0.283911	0.813132	-0.600996	-0.319057	-0.694942	0.232513
64818	-9.812807	-2.610746	-2.866188	-3.095022	-1.419817	0.173618	-0.601991	-0.315132	-0.698021	0.225976
64819	-9.183892	-0.112801	-1.897518	-0.680211	-0.360577	-0.465839	-0.597988	-0.326754	-0.695412	0.228132
64820	-9.812736	3.038328	-1.477451	1.936088	1.232952	0.308265	-0.596311	-0.333580	-0.694503	0.225395
64821	-9.962816	1.670388	-1.137864	1.141348	-0.057649	0.288614	-0.597564	-0.330129	-0.697716	0.217082
64822	-9.437681	0.824664	-3.054119	-0.841569	0.748857	0.077101	-0.597810	-0.329967	-0.699174	0.211898
64823	-9.359504	1.504287	-2.553625	-0.033146	0.809489	-0.028649	-0.597544	-0.331089	-0.699938	0.208344
64824	-9.580470	1.430328	-2.490749	-0.044018	0.607135	0.170511	-0.597477	-0.331636	-0.700651	0.205248
64825	-9.606780	2.274408	-2.637336	0.440280	1.231453	0.321812	-0.597757	-0.331596	-0.701529	0.201464
64826	-9.782581	1.877847	-2.295043	0.376655	0.639739	0.382462	-0.599515	-0.328347	-0.703190	0.195688
64827	-9.530141	1.256862	-2.716109	-0.413027	0.511274	0.154676	-0.601337	-0.324967	-0.704712	0.190187
64828	-9.706095	1.002442	-2.169207	-0.217123	-0.103717	0.180341	-0.602790	-0.322851	-0.705468	0.186347
64829	-9.421037	1.708739	-1.843926	0.460103	0.233787	-0.075677	-0.603498	-0.322516	-0.705537	0.184370
64830	-9.543749	2.175882	-1.360868	1.120535	0.208969	0.004148	-0.604140	-0.321606	-0.705979	0.182149
64831	-9.479099	1.858881	-1.588508	0.722809	0.133467	-0.050933	-0.604935	-0.319003	-0.707328	0.178822
64832	-9.451008	1.632923	-1.706648	0.479005	0.042653	-0.082869	-0.605323	-0.316532	-0.708840	0.175889
64833	-9.589455	1.726813	-1.571877	0.657690	-0.016962	0.035027	-0.605407	-0.314095	-0.710511	0.173207
64834	-9.389827	1.698801	-1.612929	0.605779	0.029003	-0.154091	-0.605437	-0.311537	-0.712218	0.170693
64835	-9.401010	1.583426	-1.562980	0.587555	-0.096798	-0.170360	-0.604813	-0.309610	-0.713990	0.168997
64836	-9.474083	2.054677	-1.776030	0.768404	0.362954	0.006273	-0.604039	-0.307316	-0.716084	0.167085
64837	-9.499880	1.435367	-2.242265	0.047420	0.173607	0.051554	-0.603404	-0.304048	-0.718563	0.164700
64838	-9.586240	1.544030	-2.227032	0.171925	0.220282	0.145300	-0.602489	-0.301345	-0.720865	0.162950
64839	-9.499533	1.416670	-2.474076	-0.070814	0.290668	0.100917	-0.601827	-0.298130	-0.723186	0.161013
64840	-9.425351	1.311142	-2.503397	-0.133180	0.245517	0.023228	-0.601109	-0.295070	-0.725380	0.159453
64841	-9.302271	1.298529	-2.474886	-0.096721	0.251737	-0.103380	-0.600320	-0.292187	-0.727461	0.158250
64842	-9.508160	1.188517	-2.546178	-0.161978	0.165824	0.099268	-0.599654	-0.289070	-0.729529	0.156973
64843	-9.380703	1.118503	-2.705910	-0.308908	0.243719	0.006460	-0.598892	-0.286482	-0.731286	0.156454
64844	-9.462916	1.441424	-2.569146	0.042398	0.411813	0.089508	-0.598048	-0.283818	-0.733091	0.156088
64845	-9.518201	1.515834	-1.949557	0.618306	0.122103	0.000431	-0.597163	-0.281429	-0.734662	0.156413
64846	-9.106106	0.729780	-1.652652	0.365038	-0.546801	-0.552423	-0.595852	-0.278985	-0.736492	0.157183
64847	-9.313021	1.748439	-1.262470	1.382392	0.007856	-0.353746	-0.592473	-0.279890	-0.738054	0.160977
64848	-8.797555	2.524288	-0.546649	2.425383	0.336175	-0.976875	-0.588967	-0.278893	-0.740638	0.163683
64849	-8.579903	1.703170	-0.640368	1.922319	-0.190247	-1.257411	-0.583857	-0.277312	-0.744643	0.166478
64850	-9.466598	2.605150	0.391508	3.567320	-0.270761	-0.660931	-0.576510	-0.277337	-0.749340	0.170912
64851	-11.430640	3.032442	-1.132097	3.234586	0.512576	1.606881	-0.568667	-0.275793	-0.755161	0.174035
64852	-11.702904	0.838600	-2.267092	1.315394	-0.584485	2.050000	-0.561285	-0.271384	-0.761668	0.176553
64853	-11.008412	0.049855	-2.477747	0.767623	-0.896754	1.409079	-0.552653	-0.269952	-0.767208	0.181914
64854	-10.691516	-0.163446	-1.252840	1.718213	-1.683982	0.680715	-0.543422	-0.268160	-0.773199	0.186937
64855	-10.390357	-0.208067	-2.140722	1.216926	-1.116111	0.668380	-0.533396	-0.266070	-0.779758	0.191503
64856	-10.509767	0.746116	-2.645327	1.765802	-0.088104	0.905351	-0.522627	-0.263663	-0.786706	0.196052
64857	-10.684886	1.485188	-2.714597	2.529374	0.507793	1.007588	-0.512447	-0.258443	-0.794513	0.198378
64858	-10.335368	0.933940	-3.348744	1.912124	0.544066	0.908631	-0.502578	-0.251039	-0.802995	0.198983
64859	-9.987737	0.595840	-3.540808	1.730828	0.485199	0.647185	-0.492622	-0.242940	-0.811480	0.199508
64860	-10.124369	0.469281	-4.492280	1.346660	0.923794	1.152188	-0.481977	-0.234153	-0.820370	0.199657
64861	-10.730289	0.118817	-5.255422	1.203356	0.983478	2.034131	-0.471085	-0.224955	-0.828945	0.200809
64862	-10.545524	0.536879	-4.996756	1.850897	1.287979	1.649034	-0.462069	-0.215253	-0.835893	0.203570
64863	-8.304242	1.102273	-5.420224	1.031808	2.457211	-0.197677	-0.454446	-0.203027	-0.843114	0.203513
64864	-7.945120	-0.044223	-5.940764	0.062394	1.863613	-0.068963	-0.447512	-0.185022	-0.852645	0.196206
64865	-7.170321	-2.358652	-6.117020	-1.437753	0.020216	-0.204233	-0.442702	-0.163333	-0.862117	0.184639
64866	-7.358324	-3.988463	-3.695686	-0.151122	-2.655642	-1.058841	-0.440392	-0.141918	-0.869530	0.172716
64867	-5.637641	-0.785341	-4.013870	0.097333	0.521721	-2.868009	-0.437518	-0.131136	-0.872625	0.172933
64868	-6.893324	5.983695	-1.217780	5.406473	5.429440	-4.704470	-0.440255	-0.121309	-0.873979	0.166192
64869	-6.100362	5.608437	-1.220422	4.493092	5.338604	-5.182093	-0.447631	-0.089549	-0.879286	0.135878
64870	-6.212799	-0.229044	-3.905629	0.536506	0.765817	-2.530684	-0.456726	-0.053257	-0.882127	0.102062
64871	-5.957903	-1.956825	-3.852374	-0.021998	-1.071292	-2.531497	-0.469321	-0.028649	-0.879248	0.076423
64872	-6.725591	-0.108835	-2.827801	1.333140	0.500853	-2.656595	-0.482591	-0.010401	-0.873852	0.058143
64873	-7.987142	-0.237904	-2.979438	1.614001	0.413550	-1.449420	-0.498347	0.010772	-0.866089	0.037738
64874	-9.096236	-1.866985	-4.169156	0.793495	-1.111477	0.273689	-0.515493	0.030185	-0.856110	0.020750
64875	-9.567174	-1.195438	-4.181018	0.603380	-0.452971	0.668473	-0.534647	0.042866	-0.843923	0.010419
64876	-10.280598	0.660525	-5.098683	-0.526590	1.380000	1.585318	-0.554568	0.050496	-0.830600	0.002829
64877	-10.390047	3.702833	-4.897031	-1.128982	4.295180	1.407111	-0.575047	0.056449	-0.816129	-0.008221
64878	-9.774642	5.707161	-4.856375	-2.198137	5.986969	0.721311	-0.593098	0.071815	-0.801354	-0.030138
64879	-9.208270	3.282550	-6.577020	-4.357618	2.869947	0.748311	-0.607649	0.097948	-0.785717	-0.061784
64880	-9.700115	0.037019	-7.516397	-4.871538	-1.102201	1.394093	-0.618698	0.125825	-0.769460	-0.096494
64881	-10.379065	-0.848916	-6.479188	-3.720217	-2.237496	1.656641	-0.627467	0.147271	-0.753786	-0.128074
64882	-10.107053	-0.883377	-6.341806	-3.759466	-2.779231	1.199593	-0.634075	0.162734	-0.740094	-0.154038
64883	-10.078950	-1.485170	-6.750598	-3.934592	-3.944314	1.064254	-0.639170	0.173455	-0.728820	-0.173771
64884	-6.713482	1.789108	-7.505434	-6.579958	-1.813285	-2.195915	-0.642684	0.169258	-0.724386	-0.183232
64885	-6.839978	6.056132	-7.256326	-8.370521	1.825435	-1.893594	-0.639599	0.170362	-0.723849	-0.194760
64886	-8.711868	-1.498406	-8.605758	-5.389628	-5.701532	-0.293092	-0.631213	0.201882	-0.717431	-0.214723
64887	-11.003771	-12.500041	-7.685214	2.399946	-14.339145	1.365688	-0.624642	0.226610	-0.710054	-0.233010
64888	-9.278934	-8.802245	-2.139697	4.613461	-8.058706	-0.761670	-0.627049	0.213007	-0.716659	-0.218717
64889	-8.450688	3.381650	-2.294885	-2.550604	1.816701	-0.964197	-0.629237	0.174095	-0.732086	-0.194425
64890	-10.850468	9.714821	1.784846	-1.674223	9.371652	1.352493	-0.626104	0.176984	-0.731241	-0.204835
64891	-11.197315	-1.807870	-4.312635	-0.873825	-3.732469	1.700247	-0.619166	0.204150	-0.724055	-0.225167
64892	-9.135455	-2.694724	-3.186575	0.386255	-3.914544	-0.571598	-0.617067	0.201544	-0.724541	-0.231622
64893	-10.063455	2.654886	-1.598518	-1.099707	1.284703	0.580256	-0.613164	0.192474	-0.729845	-0.233044
64894	-10.498405	1.409293	-1.719763	-0.326316	0.117746	0.912962	-0.609699	0.202081	-0.726489	-0.244221
64895	-9.945029	-2.463476	-2.800987	1.017559	-3.698033	0.092173	-0.608335	0.207060	-0.723184	-0.253101
64896	-8.978257	-0.414155	-1.711270	0.519743	-1.474115	-0.797968	-0.609119	0.194560	-0.727324	-0.249240
64897	-9.989494	3.083614	-0.652236	-0.397097	1.859322	0.488143	-0.609454	0.183062	-0.730497	-0.247846
64898	-9.561695	3.150256	-0.278776	-0.139658	2.052767	0.046006	-0.608236	0.181687	-0.730268	-0.252482
64899	-9.199149	2.300790	-0.738163	-0.065100	1.035035	-0.358228	-0.606621	0.180683	-0.730270	-0.257041
64900	-9.360673	2.935114	-0.219916	0.057621	1.783043	-0.163723	-0.604718	0.180199	-0.730544	-0.261054
64901	-9.139206	2.907295	0.000015	0.237336	1.856634	-0.406635	-0.602459	0.180802	-0.730834	-0.265022
64902	-9.217670	2.519326	-0.581888	0.053694	1.164892	-0.310529	-0.599493	0.182895	-0.731223	-0.269203
64903	-9.478387	2.571044	-1.070140	-0.258731	0.880466	0.023618	-0.596453	0.184739	-0.732087	-0.272329
64904	-9.689722	2.526580	-1.375043	-0.377950	0.636576	0.267830	-0.593137	0.188234	-0.732279	-0.276629
64905	-9.806227	1.932452	-2.220321	-0.603793	-0.370229	0.401247	-0.590083	0.191763	-0.732370	-0.280469
64906	-9.776238	1.596260	-1.930526	-0.147523	-0.455132	0.268026	-0.588065	0.193812	-0.732431	-0.283128
64907	-9.542095	1.667883	-2.125235	-0.362900	-0.516859	0.084338	-0.586836	0.193872	-0.733144	-0.283792
64908	-9.422603	2.562059	-1.745555	-0.625633	0.419618	0.078168	-0.586270	0.193099	-0.733917	-0.283488
64909	-9.513954	2.485275	-1.580408	-0.417476	0.465438	0.127065	-0.585934	0.193092	-0.734253	-0.283319
64910	-9.402573	1.522647	-1.250217	0.393496	-0.055347	-0.214147	-0.585581	0.194489	-0.733891	-0.284030
64911	-9.526443	1.035603	-1.692061	0.389278	-0.704781	-0.115246	-0.585441	0.193992	-0.734685	-0.282603
64912	-9.387404	2.457195	-1.375665	-0.258225	0.614355	-0.034679	-0.585424	0.192215	-0.735870	-0.280761
64913	-9.564376	2.482140	-1.574185	-0.367180	0.510876	0.173330	-0.584620	0.193378	-0.735961	-0.281400
64914	-9.477790	1.796678	-2.043763	-0.320450	-0.306049	0.038057	-0.583951	0.194504	-0.735966	-0.281999
64915	-9.523852	1.949667	-1.413935	0.076706	0.216200	0.008287	-0.583585	0.195328	-0.735911	-0.282331
64916	-9.462192	1.601559	-1.607190	0.128474	-0.165156	-0.084515	-0.582836	0.197499	-0.735469	-0.283518
64917	-9.522748	1.660069	-1.801271	-0.036452	-0.236835	0.017150	-0.582296	0.198514	-0.735548	-0.283712
64918	-9.525963	3.002009	-1.648401	-0.743498	0.896714	0.242976	-0.581731	0.199371	-0.735582	-0.284182
64919	-9.501246	2.644296	-1.789674	-0.639661	0.531822	0.176151	-0.580693	0.203064	-0.734332	-0.286910
64920	-9.555515	1.619411	-2.085996	-0.219890	-0.440396	0.088798	-0.580190	0.206264	-0.733180	-0.288586
64921	-9.591803	1.515392	-1.939827	-0.052191	-0.412008	0.081226	-0.580475	0.207215	-0.732938	-0.287946
64922	-9.577266	2.204110	-1.507506	-0.189845	0.409213	0.119641	-0.581133	0.207838	-0.732645	-0.286914
64923	-9.458240	1.938031	-1.553035	-0.103644	0.201151	-0.036445	-0.581257	0.209583	-0.732174	-0.286594
64924	-9.555021	2.502648	-1.344780	-0.302482	0.782950	0.120366	-0.581363	0.211037	-0.731891	-0.286034
64925	-9.328887	2.760913	-1.118359	-0.375153	1.151776	-0.094967	-0.581012	0.214118	-0.730993	-0.286752
64926	-9.390424	2.019056	-1.476181	-0.174459	0.380322	-0.103899	-0.580389	0.218352	-0.729797	-0.287868
64927	-9.728327	1.157807	-1.429156	0.467176	-0.200905	0.074908	-0.580497	0.221425	-0.729001	-0.287319
64928	-9.503612	1.245245	-1.144572	0.537030	0.099993	-0.175225	-0.581289	0.222292	-0.729247	-0.284409
64929	-9.510517	1.987941	-0.556434	0.462607	1.097627	-0.153890	-0.581749	0.223458	-0.729748	-0.281250
64930	-9.300058	1.793986	-0.457767	0.596114	1.081213	-0.410868	-0.581390	0.226005	-0.730277	-0.278574
64931	-9.294979	2.212247	-0.287678	0.439106	1.585154	-0.396359	-0.580252	0.229086	-0.731381	-0.275516
64932	-9.297737	2.449611	-0.202977	0.344740	1.914026	-0.394277	-0.578230	0.233650	-0.732535	-0.272856
64933	-9.387928	1.832937	-0.444981	0.592134	1.409817	-0.360107	-0.575655	0.238931	-0.734117	-0.269454
64934	-9.555081	1.862958	-0.558047	0.538875	1.507763	-0.194182	-0.572933	0.243630	-0.736793	-0.263681
64935	-10.071112	2.618755	-0.299024	0.369215	2.452406	0.297728	-0.569827	0.248509	-0.740094	-0.256519
64936	-10.469693	3.120130	-0.610984	-0.071572	2.861270	0.747938	-0.565689	0.255606	-0.742900	-0.250522
64937	-10.907385	2.976813	-1.520664	-0.516881	2.420049	1.323594	-0.560316	0.265476	-0.744774	-0.246739
64938	-11.248822	1.882700	-2.655008	-0.514903	1.123456	1.831976	-0.553876	0.280223	-0.744284	-0.246449
64939	-11.647797	-0.325808	-2.997402	0.830169	-0.400612	2.183357	-0.547956	0.299483	-0.740833	-0.247429
64940	-11.707415	-1.199463	-2.558299	1.703035	-0.432497	2.101750	-0.544350	0.315820	-0.736545	-0.247874
64941	-9.468215	0.454505	-3.809541	-0.841663	-0.412361	0.360093	-0.540120	0.329830	-0.733855	-0.246858
64942	-9.771166	2.989595	-1.980178	-1.571238	2.773135	0.095585	-0.532996	0.346876	-0.729694	-0.251274
64943	-9.286060	3.007534	-2.228186	-1.943255	2.535991	-0.324167	-0.522115	0.371803	-0.721210	-0.262707
64944	-8.605579	2.277896	-2.611415	-1.801876	1.609783	-0.855827	-0.509361	0.399387	-0.709395	-0.278928
64945	-8.225290	2.170173	-3.278241	-2.166074	0.821551	-0.995450	-0.495010	0.428387	-0.694579	-0.298345
64946	-8.159922	2.511663	-2.775648	-2.299881	1.212375	-1.220016	-0.480898	0.455543	-0.677284	-0.320164
64947	-8.038517	2.002002	-2.993589	-1.953984	0.569072	-1.242921	-0.466359	0.481674	-0.657118	-0.344521
64948	-7.634425	0.913462	-2.891118	-0.913323	-0.013005	-1.649357	-0.452976	0.505985	-0.633987	-0.369935
64949	-7.640952	-0.784991	-3.102003	0.745171	-0.715902	-1.593547	-0.441880	0.527120	-0.610456	-0.392722
64950	-8.076677	-1.089207	-3.224028	1.093678	-0.826507	-1.156278	-0.435732	0.541598	-0.590199	-0.410457
64951	-8.582129	0.481114	-2.817665	-0.428548	-0.311081	-0.782759	-0.433389	0.551586	-0.572145	-0.424944
64952	-8.565733	2.297497	-3.883420	-2.288647	-1.527496	-0.530872	-0.432078	0.559158	-0.554864	-0.439063
64953	-8.180373	4.255121	-2.625259	-4.217973	-0.767467	-1.238212	-0.427475	0.567543	-0.535481	-0.456531
64954	-8.285874	3.753405	-3.524692	-3.567484	-2.008369	-0.958855	-0.416639	0.579888	-0.512684	-0.476756
64955	-8.464320	1.996174	-4.051046	-1.546664	-2.614009	-0.713043	-0.402026	0.592067	-0.489607	-0.498113
64956	-8.770535	1.111553	-4.287851	-0.357220	-2.824778	-0.409123	-0.387038	0.600989	-0.470225	-0.517593
64957	-8.294391	2.230087	-3.554531	-1.318153	-2.634868	-0.997017	-0.372734	0.606138	-0.455813	-0.534697
64958	-9.232661	2.729867	-3.622268	-1.484621	-2.836127	-0.037325	-0.358267	0.609355	-0.444888	-0.549914
64959	-9.142609	2.548060	-6.260623	-0.065915	-5.291842	0.249921	-0.344249	0.612045	-0.437995	-0.561296
64960	-9.319532	-3.389295	-7.022657	6.036171	-3.583292	0.105379	-0.326960	0.623269	-0.419923	-0.572973
64961	-12.387162	-12.600855	-7.298367	14.557617	1.152966	2.523215	-0.311178	0.636461	-0.399607	-0.581722
64962	-11.733965	-10.923272	-4.020666	11.437328	3.412639	1.620049	-0.317477	0.634993	-0.407689	-0.574267
64963	-7.585786	1.193311	-3.104980	0.225083	-2.021831	-1.783548	-0.336736	0.618137	-0.441206	-0.556644
64964	-9.355151	12.684149	2.674795	-12.611900	-0.595940	-0.007667	-0.331561	0.615694	-0.449274	-0.556004
64965	-11.208490	0.568577	-6.139758	2.160722	-3.586916	2.274719	-0.307424	0.635826	-0.423418	-0.567391
64966	-9.495037	-3.958171	-3.928128	5.368920	0.209258	-0.201155	-0.297973	0.638155	-0.414893	-0.576051
64967	-8.245639	-0.654114	-2.872903	2.014120	-0.572071	-1.310480	-0.297711	0.635999	-0.423881	-0.572013
64968	-11.133035	1.755474	-1.750959	-0.560004	-0.045598	1.579219	-0.296578	0.633502	-0.428446	-0.571971
64969	-9.860248	0.680039	-1.664769	0.390241	0.285863	0.198515	-0.292064	0.634387	-0.425879	-0.575220
64970	-9.513087	-0.144278	-1.897305	1.276411	0.414496	-0.204467	-0.287686	0.634218	-0.425582	-0.577827
64971	-9.540445	0.793166	-2.176062	0.659382	-0.212938	-0.019646	-0.283832	0.633238	-0.427222	-0.579594
64972	-9.644258	1.954410	-1.845633	-0.430891	-0.401001	0.181835	-0.280371	0.631414	-0.429733	-0.581410
64973	-9.515742	2.350074	-1.973421	-0.633586	-0.688605	0.141725	-0.276564	0.630314	-0.430238	-0.584048
64974	-9.500579	1.566824	-1.821956	0.046620	-0.178704	-0.014678	-0.274227	0.629000	-0.430776	-0.586167
64975	-9.484965	2.227377	-1.473032	-0.640752	-0.182205	0.018465	-0.273919	0.626608	-0.433328	-0.586990
64976	-9.365129	2.722428	-0.673928	-1.418429	0.258169	-0.143531	-0.273043	0.624757	-0.435008	-0.588127
64977	-9.202627	2.592858	-0.724522	-1.246319	0.251004	-0.309018	-0.270365	0.624600	-0.434829	-0.589662
64978	-9.481448	2.697517	-0.974289	-1.157827	0.066645	0.024923	-0.267533	0.625010	-0.434499	-0.590762
64979	-9.470345	2.833924	-0.977824	-1.245558	0.013051	0.042414	-0.263620	0.626358	-0.432938	-0.592237
64980	-9.515575	2.743945	-1.216511	-1.018451	-0.122925	0.112174	-0.259498	0.628125	-0.430760	-0.593772
64981	-9.449221	1.971944	-1.796036	-0.045424	-0.236502	0.002812	-0.255201	0.630375	-0.427831	-0.595366
64982	-9.636792	1.469777	-1.827100	0.423543	0.048599	0.096122	-0.252428	0.631826	-0.426146	-0.596218
64983	-9.466795	1.724420	-1.434023	-0.005952	0.223810	-0.086429	-0.250632	0.632656	-0.425533	-0.596533
64984	-9.437817	2.452887	-1.929713	-0.351129	-0.542903	0.106726	-0.248439	0.633847	-0.424799	-0.596709
64985	-9.488706	2.197502	-1.652559	-0.275204	-0.157855	0.061260	-0.245927	0.635205	-0.422939	-0.597627
64986	-9.461471	1.927408	-1.652718	-0.045398	-0.016071	-0.016593	-0.243799	0.636474	-0.421566	-0.598117
64987	-9.305170	1.822676	-1.712731	0.063979	-0.039067	-0.177536	-0.242441	0.637446	-0.420615	-0.598304
64988	-9.415964	2.176779	-1.516123	-0.337006	-0.024539	-0.036022	-0.241242	0.638530	-0.419944	-0.598104
64989	-9.562895	2.524438	-1.477001	-0.642703	-0.128376	0.165976	-0.238887	0.640242	-0.418022	-0.598566
64990	-9.454295	1.621509	-2.030508	0.404430	-0.119141	-0.016862	-0.235511	0.642617	-0.414566	-0.599761
64991	-9.478399	1.673042	-2.266324	0.492259	-0.320562	0.057988	-0.233981	0.644081	-0.413166	-0.599755
64992	-9.462948	2.272165	-1.746536	-0.303558	-0.223913	0.067506	-0.232464	0.645324	-0.411685	-0.600027
64993	-9.461506	1.663018	-1.928835	0.292898	-0.034833	-0.018856	-0.231164	0.646530	-0.410087	-0.600326
64994	-9.557003	2.380319	-1.429927	-0.582922	-0.007132	0.122455	-0.230842	0.647261	-0.409395	-0.600134
64995	-9.308101	2.609637	-1.072352	-1.002016	0.083525	-0.138502	-0.229249	0.648820	-0.407295	-0.600490
64996	-9.386378	2.498635	-1.342635	-0.766059	-0.051878	-0.037189	-0.227034	0.651184	-0.404524	-0.600646
64997	-9.373024	2.833083	-1.341302	-1.060864	-0.246079	0.010397	-0.225094	0.653775	-0.401684	-0.600467
64998	-9.393818	3.357861	-1.482093	-1.424359	-0.654761	0.150148	-0.222738	0.656775	-0.398357	-0.600288
64999	-9.279731	2.033167	-1.534055	-0.371922	0.023930	-0.196999	-0.218351	0.661245	-0.391401	-0.601568
65000	-9.584770	0.373011	-2.636282	1.572998	0.227572	0.007213	-0.218342	0.664227	-0.388226	-0.600341
65001	-9.349602	2.505482	-1.599388	-0.814348	-0.308037	-0.040684	-0.223200	0.663793	-0.392097	-0.596507
65002	-9.464374	3.556731	-0.610859	-2.314728	-0.132418	0.047434	-0.224174	0.666037	-0.390360	-0.594777
65003	-9.241531	1.789643	-1.004816	-0.750636	0.530857	-0.390772	-0.223335	0.670277	-0.385868	-0.593259
65004	-9.390878	1.866477	-0.540411	-1.189900	0.870121	-0.336901	-0.223408	0.674413	-0.383285	-0.590211
65005	-9.445979	2.472790	-0.149239	-2.015463	0.825422	-0.293287	-0.222011	0.679556	-0.380185	-0.586834
65006	-9.585677	3.354089	-0.547341	-2.584337	0.043489	0.023591	-0.223387	0.684129	-0.378750	-0.581906
65007	-9.888982	3.127877	0.251361	-3.078622	0.862413	0.057149	-0.221976	0.692330	-0.373024	-0.576419
65008	-10.061635	1.674211	-0.890894	-1.451566	0.964615	0.276483	-0.222876	0.700085	-0.369281	-0.569069
65009	-10.657096	2.646799	-1.124839	-2.356144	0.386581	0.963995	-0.225311	0.707992	-0.367624	-0.559316
65010	-11.503750	2.188588	-3.015571	-1.213169	-0.438696	2.210085	-0.225937	0.717620	-0.362508	-0.550056
65011	-12.575664	1.684191	-2.641439	-1.520740	0.449497	3.049547	-0.226904	0.726907	-0.354436	-0.542675
65012	-11.208573	1.117638	-3.821218	-0.417090	-0.463177	2.065402	-0.225578	0.736601	-0.340793	-0.538882
65013	-9.019728	0.104100	-3.113593	0.081934	0.079381	-0.270994	-0.221091	0.747955	-0.324666	-0.535046
65014	-9.142975	1.489029	-3.492476	-0.900985	-1.114070	-0.017124	-0.211810	0.761276	-0.306551	-0.530680
65015	-9.605917	1.592156	-2.599267	-1.826218	-0.547507	0.083180	-0.193377	0.775983	-0.277943	-0.532168
65016	-7.642371	2.444765	-2.040618	-2.245239	-1.434731	-1.973984	-0.170910	0.789205	-0.246692	-0.535806
65017	-7.056938	5.846107	-2.121544	-3.722764	-4.595298	-2.499797	-0.140994	0.800760	-0.210757	-0.542665
65018	-7.239102	6.388105	-2.090275	-3.464536	-5.349125	-2.269239	-0.098433	0.811493	-0.161337	-0.552955
65019	-7.089936	1.480491	-3.422783	0.156667	-1.410959	-1.929258	-0.050753	0.817296	-0.103839	-0.564508
65020	-7.073567	-1.402285	-2.530693	0.176640	1.666231	-2.356273	-0.010067	0.815784	-0.051913	-0.575934
65021	-7.779722	-2.447166	-3.498841	0.892930	2.733894	-1.417318	0.018470	0.810492	-0.008725	-0.585393
65022	-9.423000	0.796061	-2.666480	-0.314333	-0.475921	-0.004336	0.036768	0.802492	0.022529	-0.595103
65023	-9.674386	3.494467	-2.867306	0.416397	-3.210927	0.361679	0.056939	0.792245	0.055960	-0.604958
65024	-9.152814	2.851364	-3.380950	1.468896	-2.454806	-0.059170	0.078687	0.780264	0.087990	-0.614211
65025	-7.953221	4.246232	-3.563232	2.703702	-3.553797	-1.209223	0.100743	0.768838	0.112163	-0.621416
65026	-8.813323	3.075151	-3.245770	2.290801	-2.287410	-0.476292	0.127254	0.757282	0.134742	-0.626239
65027	-9.153737	-0.245496	-9.490778	6.905132	3.430622	0.885455	0.149247	0.749773	0.149774	-0.627003
65028	-4.811666	0.807790	-14.779681	12.639597	5.354613	-2.479750	0.169680	0.748722	0.156923	-0.621289
65029	-11.602170	-9.352933	-16.014780	7.238863	15.333517	4.003271	0.188068	0.749970	0.184285	-0.606807
65030	-16.295209	-7.308756	0.709293	-7.241113	5.408399	5.605937	0.173872	0.750523	0.163669	-0.616195
65031	-2.843698	7.686744	-1.118874	3.522519	-6.606348	-6.304153	0.145727	0.763649	0.118215	-0.617762
65032	-12.285897	7.340006	-2.928021	2.712161	-5.768541	3.331081	0.157107	0.763745	0.131825	-0.612073
65033	-10.768079	-2.409390	-2.204684	-1.338126	2.962354	0.960004	0.171619	0.758262	0.148065	-0.611280
65034	-6.663233	-2.139605	-2.663327	-0.010057	3.000908	-2.952383	0.175753	0.759784	0.145875	-0.608736
65035	-10.136390	0.981695	-3.601847	1.292222	0.627563	0.893292	0.174847	0.764224	0.136584	-0.605586
65036	-10.018734	2.478987	-0.937529	-0.474771	-1.778085	0.385913	0.181805	0.763146	0.136795	-0.604849
65037	-9.155874	0.359371	-2.666425	0.325089	0.963485	-0.324046	0.189859	0.762353	0.140500	-0.602521
65038	-9.848581	1.139098	-2.592222	0.382896	0.322388	0.422561	0.193962	0.763112	0.138474	-0.600719
65039	-9.942998	1.449166	-2.101443	0.026587	-0.083474	0.452338	0.201898	0.762092	0.140310	-0.598971
65040	-9.625887	0.661394	-2.724911	0.256189	0.997197	0.160240	0.207871	0.761391	0.139605	-0.597984
65041	-9.523462	2.049239	-2.255658	0.480386	-0.351591	0.168720	0.211453	0.761217	0.136167	-0.597741
65042	-9.262052	2.465880	-2.151148	0.624848	-0.688935	-0.033733	0.214324	0.760776	0.132775	-0.598043
65043	-9.394234	2.907198	-1.204913	-0.031380	-1.439255	-0.010532	0.216813	0.760273	0.129473	-0.598510
65044	-9.262832	2.477471	-1.156559	-0.237276	-1.022739	-0.212015	0.219429	0.759534	0.127728	-0.598869
65045	-9.239564	3.105128	-0.512869	-0.510164	-1.829291	-0.238366	0.220507	0.759646	0.125377	-0.598828
65046	-9.332707	3.525583	-0.538203	-0.339368	-2.141958	-0.059966	0.223020	0.759606	0.125699	-0.597880
65047	-9.451938	2.713958	-0.825337	-0.496924	-1.263736	-0.038134	0.226712	0.759349	0.128391	-0.596243
65048	-9.435540	2.178993	-1.232444	-0.404682	-0.590871	-0.077010	0.229744	0.759450	0.131160	-0.594349
65049	-9.297866	2.581124	-1.281839	-0.161516	-0.924124	-0.123751	0.232354	0.759901	0.134110	-0.592095
65050	-9.577108	2.241773	-1.737851	-0.038043	-0.386613	0.168078	0.235472	0.760204	0.137833	-0.589614
65051	-9.442667	2.156275	-2.161769	0.282290	-0.113896	0.106687	0.237528	0.760701	0.140840	-0.587434
65052	-9.327786	2.040460	-2.391883	0.420374	0.088235	0.021316	0.239304	0.761050	0.143662	-0.585575
65053	-9.358741	2.161717	-2.152169	0.250607	-0.152729	0.026251	0.240884	0.761457	0.146699	-0.583642
65054	-9.477916	1.945161	-2.439249	0.325000	0.174959	0.158683	0.242987	0.761462	0.150285	-0.581849
65055	-9.304612	2.067157	-2.121058	0.160841	-0.119667	-0.050125	0.244440	0.761513	0.153011	-0.580461
65056	-9.257568	1.973129	-2.342258	0.296283	0.062816	-0.066395	0.245520	0.761501	0.155608	-0.579330
65057	-9.211072	1.774011	-1.898974	-0.158367	-0.033376	-0.243423	0.245611	0.761711	0.157416	-0.578526
65058	-9.092875	1.834838	-1.997901	-0.020712	-0.059015	-0.324030	0.245330	0.762146	0.159044	-0.577625
65059	-9.463506	2.546936	-1.885509	0.140241	-0.732392	0.139388	0.245160	0.762789	0.161236	-0.576241
65060	-9.514445	2.220167	-2.232834	0.228115	-0.297804	0.202230	0.246127	0.762674	0.164738	-0.574988
65061	-9.407041	1.737745	-2.484582	0.202051	0.204232	0.066718	0.245403	0.763071	0.167046	-0.574105
65062	-9.403969	2.471638	-2.189812	0.350765	-0.611739	0.129217	0.243709	0.763751	0.168406	-0.573524
65063	-9.590934	2.230747	-2.135719	0.124946	-0.487275	0.250626	0.242302	0.764200	0.170607	-0.572871
65064	-9.486472	1.540012	-1.677810	-0.574179	-0.222121	-0.076129	0.240681	0.764576	0.172789	-0.572398
65065	-9.358134	1.771118	-1.849217	-0.280170	-0.380583	-0.122105	0.237231	0.765937	0.173629	-0.571765
65066	-9.676447	2.284778	-1.517978	-0.371690	-1.059586	0.182152	0.235020	0.766858	0.175982	-0.570723
65067	-9.143674	1.245657	-2.307774	-0.144773	0.172613	-0.303059	0.232357	0.767813	0.178612	-0.569711
65068	-9.187847	1.715091	-1.588192	-0.490987	-0.697066	-0.370612	0.227392	0.769691	0.179230	-0.568987
65069	-9.151031	2.156244	-1.333704	-0.470805	-1.302059	-0.418457	0.222013	0.771920	0.180599	-0.567656
65070	-9.495572	2.275838	-1.230317	-0.624930	-1.581767	-0.119130	0.216175	0.774680	0.182400	-0.565571
65071	-9.945091	1.845702	-0.886457	-1.297816	-1.553023	0.137142	0.210035	0.777624	0.185073	-0.562970
65072	-10.118249	1.641527	-0.872083	-1.520501	-1.555215	0.242190	0.202113	0.781486	0.187612	-0.559671
65073	-10.640158	2.747534	-0.323308	-1.623619	-3.007577	0.636255	0.195189	0.785579	0.192213	-0.554817
65074	-11.110941	1.595826	-2.191959	-0.952118	-1.320624	1.507593	0.192479	0.788669	0.201876	-0.547904
65075	-10.905073	-0.070410	-4.022158	-0.407442	0.828606	1.773732	0.189288	0.791288	0.212289	-0.541264
65076	-11.344148	0.158618	-4.530518	-0.110797	0.605020	2.388027	0.184263	0.793333	0.220156	-0.536844
65077	-10.460300	-0.020109	-3.526465	-0.697373	0.187757	1.202356	0.185761	0.790451	0.232204	-0.535501
65078	-6.172663	-2.237490	-5.250198	0.729201	3.575537	-2.239374	0.189546	0.787069	0.248755	-0.531710
65079	-6.894799	-2.456584	-5.191244	0.223566	3.501295	-1.553688	0.192399	0.785107	0.262708	-0.526853
65080	-7.000443	-1.053818	-4.050275	0.133760	1.645805	-1.825537	0.198787	0.780592	0.277893	-0.523388
65081	-5.810563	0.898668	-3.235057	1.143086	-0.070926	-3.200282	0.208438	0.774354	0.292217	-0.521095
65082	-6.415891	2.341461	-2.491443	1.481795	-1.659873	-2.891721	0.224759	0.764565	0.310059	-0.518446
65083	-6.774680	2.560914	-0.887839	0.639699	-2.803686	-3.106956	0.247174	0.751259	0.328534	-0.516314
65084	-6.792414	1.752271	-2.135280	0.969809	-1.174121	-2.640467	0.274108	0.734469	0.348482	-0.513790
65085	-6.327216	0.445958	-8.336481	3.538889	4.746042	-1.171953	0.295817	0.719482	0.363859	-0.512293
65086	-9.938681	1.025450	-10.829705	4.266552	5.974818	2.961698	0.314568	0.708869	0.379933	-0.504184
65087	-11.525431	-5.625020	-16.317362	0.421938	13.871481	5.617858	0.329565	0.695592	0.396835	-0.500061
65088	-16.655269	-2.552436	3.700383	-7.054962	-5.453368	4.954606	0.325560	0.699276	0.381400	-0.509469
65089	-7.643300	-0.137388	-1.378061	-0.918646	-0.258583	-2.103914	0.327970	0.697832	0.372680	-0.516309
65090	-11.461407	-0.763483	-5.268845	-0.302240	2.714940	2.526075	0.326958	0.700451	0.367418	-0.517176
65091	-9.977435	1.578999	1.228504	-1.262054	-3.534523	-0.354263	0.330779	0.700431	0.357015	-0.522037
65092	-7.615608	2.541168	-3.399190	2.273874	0.295571	-1.401326	0.333879	0.702003	0.352745	-0.520852
65093	-8.860482	2.650458	-1.178955	0.947478	-1.712730	-0.697280	0.339865	0.699684	0.351004	-0.521277
65094	-9.381852	1.889349	-1.296650	0.242577	-1.180130	-0.230523	0.344658	0.697743	0.349966	-0.521430
65095	-9.152880	1.549019	-1.514229	0.100943	-0.705032	-0.434003	0.345781	0.697719	0.344969	-0.524043
65096	-9.060450	3.564375	-0.691108	1.370596	-2.390512	-0.448890	0.344879	0.699326	0.338337	-0.526811
65097	-9.698984	3.564060	-0.584860	1.166616	-2.502248	0.161896	0.349876	0.696588	0.341727	-0.524952
65098	-10.039836	-0.034959	-2.042722	-1.185843	0.619479	0.345179	0.356264	0.691923	0.348529	-0.522346
65099	-9.412043	-0.363784	-2.696640	-1.018311	1.433587	-0.174298	0.357045	0.691921	0.347315	-0.522624
65100	-9.799149	1.609199	-1.621323	0.038120	-0.506737	0.236349	0.355695	0.693828	0.342548	-0.524161
65101	-9.478982	1.663129	-1.419815	0.032227	-0.637628	-0.105719	0.356677	0.693826	0.340498	-0.524832
65102	-9.349760	1.785436	-1.307305	0.092528	-0.751858	-0.234539	0.356035	0.694887	0.337192	-0.525997
65103	-9.262762	2.324554	-1.078985	0.434063	-1.202101	-0.287299	0.356348	0.695233	0.335892	-0.526160
65104	-9.303937	2.016222	-1.299271	0.265041	-0.849313	-0.245822	0.356525	0.695486	0.335573	-0.525909
65105	-9.555877	1.969151	-1.664100	0.341345	-0.536434	0.064422	0.357343	0.695352	0.336090	-0.525200
65106	-9.500431	1.051203	-2.262960	-0.124325	0.462868	-0.001749	0.357926	0.695102	0.336400	-0.524935
65107	-9.522887	1.255247	-1.955850	-0.111126	0.097565	-0.011437	0.356874	0.695812	0.334812	-0.525725
65108	-9.513408	1.722217	-1.774322	0.187290	-0.300123	0.010450	0.356679	0.696106	0.334161	-0.525883
65109	-9.560052	1.336490	-2.049528	-0.003172	0.135351	0.054583	0.356256	0.696177	0.333564	-0.526455
65110	-9.547739	1.849135	-1.716477	0.260062	-0.413515	0.050693	0.355935	0.696425	0.332780	-0.526839
65111	-9.460052	1.690442	-1.734404	0.153478	-0.301012	-0.053376	0.355950	0.696474	0.332435	-0.526982
65112	-9.510943	1.810538	-1.552607	0.150095	-0.523828	-0.022399	0.355471	0.696754	0.332130	-0.527128
65113	-9.495277	1.592607	-1.524859	-0.037560	-0.430872	-0.074371	0.355232	0.696689	0.332138	-0.527369
65114	-9.411094	1.506204	-1.713887	0.006458	-0.222683	-0.131514	0.354777	0.696922	0.332147	-0.527363
65115	-9.472764	1.639795	-1.777443	0.135931	-0.256390	-0.040417	0.354633	0.696980	0.332661	-0.527058
65116	-9.424181	1.339487	-1.999419	0.008158	0.086734	-0.086460	0.354336	0.697128	0.332925	-0.526897
65117	-9.478405	1.532237	-1.989776	0.155002	-0.040108	-0.008531	0.353529	0.697428	0.332859	-0.527083
65118	-9.553156	1.543931	-1.788829	0.048248	-0.230603	0.025550	0.352857	0.697704	0.332635	-0.527309
65119	-9.422706	1.282266	-1.851987	-0.103570	-0.031267	-0.125080	0.352250	0.697848	0.332548	-0.527579
65120	-9.457843	1.333873	-1.670138	-0.151807	-0.222971	-0.120082	0.351124	0.698178	0.332242	-0.528086
65121	-9.540478	1.601356	-1.621621	0.028096	-0.429898	-0.013244	0.350365	0.698572	0.332307	-0.528028
65122	-9.572776	1.567443	-1.755610	0.063038	-0.316206	0.039882	0.350212	0.698599	0.333064	-0.527617
65123	-9.600508	1.192324	-2.070491	-0.091574	0.136432	0.079295	0.349866	0.698640	0.333467	-0.527537
65124	-9.420551	1.427281	-1.917063	0.068019	-0.107698	-0.094518	0.349273	0.698881	0.333314	-0.527708
65125	-9.493522	1.340752	-1.898343	-0.026646	-0.092816	-0.039308	0.348775	0.699042	0.333393	-0.527774
65126	-9.527071	1.302444	-1.930008	-0.048364	-0.056447	-0.005504	0.348409	0.699192	0.333506	-0.527745
65127	-9.483040	1.362880	-1.775703	-0.065625	-0.219506	-0.071737	0.348052	0.699310	0.333547	-0.527798
65128	-9.523951	1.260995	-2.100487	0.010290	0.093013	0.020880	0.347826	0.699337	0.334032	-0.527606
65129	-9.475333	1.235504	-2.035872	-0.030881	0.049688	-0.042849	0.347408	0.699425	0.334132	-0.527701
65130	-9.655646	1.384222	-2.066739	0.073446	-0.026970	0.157912	0.346925	0.699540	0.333905	-0.528010
65131	-9.486565	1.418443	-1.954443	0.084567	-0.127224	-0.024766	0.346497	0.699631	0.333771	-0.528255
65132	-9.392545	1.353917	-1.872060	0.014545	-0.153187	-0.141394	0.346196	0.699601	0.333801	-0.528472
65133	-9.397120	1.330042	-1.862061	-0.003600	-0.149050	-0.142118	0.345880	0.699515	0.333747	-0.528828
65134	-9.684001	1.209661	-2.088918	-0.044124	0.071728	0.167274	0.345793	0.699395	0.334013	-0.528875
65135	-9.626894	1.134980	-2.280464	0.010507	0.279489	0.141586	0.345797	0.699209	0.333842	-0.529227
65136	-9.550894	1.135807	-2.198776	-0.007059	0.225988	0.051040	0.345739	0.699002	0.333363	-0.529839
65137	-9.350966	1.176685	-2.041283	-0.004489	0.102517	-0.169999	0.345711	0.698799	0.332878	-0.530430
65138	-9.481905	1.193068	-2.070346	-0.000033	0.118019	-0.035044	0.345907	0.698602	0.332222	-0.530973
65139	-9.563657	1.185747	-1.996853	-0.056123	0.064952	0.028530	0.346015	0.698396	0.331597	-0.531564
65140	-9.609060	1.331615	-1.727622	-0.081620	-0.227320	0.037874	0.346116	0.698285	0.330665	-0.532224
65141	-9.498090	1.380423	-1.746493	-0.004602	-0.209296	-0.059448	0.346472	0.698034	0.329886	-0.532805
65142	-9.480138	1.312383	-1.727254	-0.063718	-0.170955	-0.089237	0.346516	0.697925	0.329122	-0.533391
65143	-9.388000	1.493589	-1.605391	0.047235	-0.351469	-0.178537	0.346457	0.697801	0.328438	-0.534013
65144	-9.467939	1.564990	-1.548967	0.061744	-0.435163	-0.102014	0.346715	0.697605	0.328180	-0.534260
65145	-9.568703	1.318927	-1.759101	-0.050432	-0.124749	0.004440	0.347025	0.697373	0.328048	-0.534442
65146	-9.669920	1.500974	-1.517635	-0.048417	-0.426568	0.080704	0.347089	0.697342	0.327601	-0.534716
65147	-9.457496	1.335376	-1.940420	0.086670	0.040279	-0.066737	0.347531	0.696946	0.327824	-0.534809
65148	-9.370275	1.167978	-1.754162	-0.130565	-0.005508	-0.209238	0.347697	0.696888	0.327434	-0.535015
65149	-9.530417	1.137790	-1.884349	-0.119440	0.110527	-0.032723	0.347775	0.696820	0.327209	-0.535191
65150	-9.633267	1.193181	-1.847363	-0.115195	0.047161	0.067635	0.347725	0.696891	0.326603	-0.535500
65151	-9.614110	1.278833	-1.926158	0.002570	0.074555	0.075237	0.347849	0.696782	0.326138	-0.535845
65152	-9.533225	1.345521	-1.762033	-0.011197	-0.080507	-0.025402	0.347748	0.696859	0.325229	-0.536362
65153	-9.469294	1.515528	-1.678901	0.099050	-0.229385	-0.080236	0.347932	0.696770	0.324806	-0.536615
65154	-9.502976	1.214376	-1.752392	-0.117946	0.008269	-0.074199	0.348199	0.696691	0.324200	-0.536910
65155	-9.659179	1.391811	-1.590215	-0.092184	-0.229173	0.071878	0.347987	0.696888	0.323409	-0.537270
65156	-9.598076	1.625941	-1.611392	0.121935	-0.328019	0.048391	0.348095	0.696918	0.322733	-0.537568
65157	-9.512919	1.443673	-1.647922	0.009320	-0.181573	-0.052442	0.348160	0.696930	0.322280	-0.537780
65158	-9.536127	1.547979	-1.544717	0.032964	-0.318663	-0.034269	0.348141	0.697027	0.321654	-0.538043
65159	-9.491073	1.481449	-1.688107	0.064095	-0.154910	-0.060931	0.348086	0.697084	0.321263	-0.538239
65160	-9.517513	1.445983	-1.657945	0.014129	-0.156772	-0.045501	0.347927	0.697162	0.320732	-0.538556
65161	-9.535019	1.554408	-1.669777	0.103210	-0.205719	-0.011261	0.347748	0.697327	0.320251	-0.538744
65162	-9.566399	1.464750	-1.689077	0.034244	-0.137931	0.010462	0.347663	0.697346	0.319885	-0.538992
65163	-9.590889	1.453370	-1.633820	-0.008962	-0.174899	0.022766	0.347504	0.697397	0.319396	-0.539319
65164	-9.535918	1.520066	-1.686350	0.087662	-0.160813	-0.011945	0.347305	0.697441	0.318888	-0.539690
65165	-9.568477	1.594477	-1.694163	0.148267	-0.191849	0.031575	0.347215	0.697391	0.318389	-0.540107
65166	-9.528028	1.511121	-1.590030	0.035547	-0.219742	-0.037952	0.347523	0.697133	0.318189	-0.540361
65167	-9.592936	1.406936	-1.803312	0.054377	0.018782	0.048982	0.347778	0.696889	0.318012	-0.540615
65168	-9.804206	1.487501	-1.399018	-0.135068	-0.358888	0.194573	0.348542	0.696059	0.317832	-0.541298
65169	-9.542519	1.397315	-1.535389	-0.064204	-0.150794	-0.048333	0.349948	0.694696	0.318057	-0.542009
65170	-9.589951	1.396660	-1.684622	0.025220	0.000168	0.023725	0.351090	0.693325	0.317970	-0.543076
65171	-9.282651	1.714822	-1.600468	0.327127	-0.191196	-0.245767	0.352342	0.691797	0.317468	-0.544505
65172	-9.448126	1.666233	-1.351857	0.139750	-0.348832	-0.131279	0.354004	0.690315	0.318732	-0.544570
65173	-9.682722	1.023768	-1.254494	-0.472199	-0.069734	-0.007123	0.355376	0.689040	0.319799	-0.544666
65174	-9.483699	1.102889	-1.478550	-0.241414	0.093748	-0.154740	0.355393	0.689040	0.319474	-0.544845
65175	-9.599292	1.388692	-1.547497	0.008475	-0.006753	0.009201	0.355453	0.688939	0.319229	-0.545077
65176	-9.630463	1.274437	-1.668183	-0.025644	0.160367	0.042588	0.355279	0.688958	0.318695	-0.545479
65177	-9.587113	1.627702	-1.565084	0.221240	-0.110227	0.033659	0.355003	0.689049	0.317786	-0.546073
65178	-9.543217	1.489401	-1.490979	0.080959	-0.083572	-0.040237	0.355096	0.688842	0.317324	-0.546543
65179	-9.581062	1.550714	-1.268285	0.008927	-0.295277	-0.028887	0.355057	0.688714	0.316851	-0.547004
65180	-9.524876	1.565666	-1.280716	0.043981	-0.281742	-0.079574	0.355258	0.688444	0.316664	-0.547321
65181	-9.530753	1.404620	-1.450003	0.003259	-0.043942	-0.070574	0.355438	0.688323	0.316413	-0.547502
65182	-9.611933	1.500170	-1.210399	-0.062005	-0.295253	-0.014023	0.355431	0.688308	0.316163	-0.547670
65183	-9.520069	1.584792	-1.245275	0.044032	-0.305268	-0.086492	0.355698	0.688217	0.316211	-0.547582
65184	-9.571917	1.442977	-1.319800	-0.043555	-0.162880	-0.044513	0.356084	0.688013	0.316389	-0.547486
65185	-9.570134	1.446976	-1.251558	-0.075721	-0.219903	-0.055971	0.356144	0.687961	0.316416	-0.547496
65186	-9.527909	1.544107	-1.323810	0.049307	-0.212120	-0.072545	0.356345	0.687939	0.316658	-0.547254
65187	-9.607609	1.462402	-1.349047	-0.021209	-0.151313	-0.002420	0.356470	0.687908	0.316875	-0.547085
65188	-9.605854	1.409708	-1.380992	-0.049161	-0.095928	-0.006810	0.356759	0.687815	0.317211	-0.546819
65189	-9.602753	1.388571	-1.421442	-0.046523	-0.052311	-0.006741	0.356764	0.687902	0.317296	-0.546657
65190	-9.550012	1.533971	-1.348325	0.041485	-0.192555	-0.048724	0.356803	0.688005	0.317362	-0.546463
65191	-9.591724	1.468754	-1.355356	-0.021098	-0.155182	-0.016215	0.356826	0.688137	0.317390	-0.546266
65192	-9.555159	1.513596	-1.480398	0.086956	-0.076334	-0.026461	0.356829	0.688233	0.317522	-0.546066
65193	-9.571294	1.388257	-1.393401	-0.067791	-0.084092	-0.041975	0.356723	0.688365	0.317488	-0.545989
65194	-9.551840	1.595746	-1.433050	0.125414	-0.166453	-0.025233	0.356634	0.688507	0.317435	-0.545899
65195	-9.566459	1.408336	-1.410351	-0.044968	-0.083356	-0.041266	0.356752	0.688478	0.317570	-0.545780
65196	-9.582468	1.447175	-1.312516	-0.069594	-0.189259	-0.035160	0.356598	0.688608	0.317535	-0.545736
65197	-9.520719	1.556149	-1.360924	0.056599	-0.210634	-0.072552	0.356524	0.688723	0.317746	-0.545517
65198	-9.598563	1.505024	-1.399270	0.016885	-0.158873	0.002094	0.356320	0.688921	0.317765	-0.545390
65199	-9.541736	1.515362	-1.494513	0.083498	-0.089341	-0.037225	0.356138	0.689153	0.317909	-0.545132
65200	-9.572025	1.376859	-1.519349	-0.027462	-0.001242	-0.023558	0.355889	0.689433	0.318014	-0.544878
65201	-9.576995	1.380190	-1.481068	-0.050910	-0.044140	-0.024288	0.355455	0.689863	0.317991	-0.544631
65202	-9.574085	1.391711	-1.637198	0.036805	0.068680	-0.000741	0.354993	0.690339	0.317971	-0.544340
65203	-9.595623	1.348548	-1.522074	-0.069834	-0.013653	-0.004211	0.354614	0.690743	0.317886	-0.544124
65204	-9.597914	1.407174	-1.602036	0.013866	0.011623	0.019213	0.354095	0.691283	0.317546	-0.543975
65205	-9.519064	1.514709	-1.548815	0.084949	-0.094846	-0.051051	0.353739	0.691627	0.317331	-0.543894
65206	-9.594612	1.556431	-1.431480	0.036184	-0.223694	0.009576	0.353367	0.691990	0.316992	-0.543874
65207	-9.515451	1.568856	-1.433587	0.059191	-0.229990	-0.065694	0.353192	0.692245	0.317021	-0.543645
65208	-9.572264	1.430232	-1.468756	-0.052585	-0.132107	-0.024387	0.353179	0.692426	0.317160	-0.543341
65209	-9.541123	1.487824	-1.513275	0.020898	-0.130858	-0.039301	0.352974	0.692690	0.317162	-0.543138
65210	-9.541364	1.494600	-1.552287	0.043467	-0.107971	-0.031711	0.352933	0.692849	0.317327	-0.542865
65211	-9.550500	1.434755	-1.561393	-0.005296	-0.072102	-0.029882	0.352889	0.692940	0.317460	-0.542699
65212	-9.643696	1.483990	-1.580021	0.021967	-0.092892	0.071161	0.352764	0.693132	0.317435	-0.542550
65213	-9.554537	1.470846	-1.597857	0.037067	-0.068551	-0.014747	0.352667	0.693259	0.317431	-0.542454
65214	-9.598653	1.595169	-1.488042	0.069123	-0.231665	0.027766	0.352677	0.693246	0.317244	-0.542573
65215	-9.509650	1.450025	-1.516092	-0.015401	-0.119300	-0.075127	0.352857	0.693167	0.317310	-0.542518
65216	-9.529859	1.441369	-1.643724	0.040703	-0.009326	-0.035375	0.352882	0.693194	0.317306	-0.542470
65217	-9.554538	1.435111	-1.624811	0.020129	-0.022963	-0.015350	0.352978	0.693145	0.317401	-0.542415
65218	-9.563995	1.378252	-1.561088	-0.062065	-0.044469	-0.024902	0.353012	0.693093	0.317402	-0.542458
65219	-9.545417	1.430114	-1.572707	-0.009845	-0.062134	-0.033645	0.352969	0.693156	0.317340	-0.542442
65220	-9.575499	1.634074	-1.468267	0.094988	-0.262360	0.007614	0.353027	0.693092	0.317233	-0.542549
65221	-9.513745	1.447217	-1.535766	-0.008536	-0.095586	-0.068194	0.353263	0.692960	0.317328	-0.542508
65222	-9.556276	1.506152	-1.556098	0.042229	-0.112575	-0.014836	0.353272	0.692939	0.317311	-0.542537
65223	-9.538513	1.528142	-1.493458	0.030680	-0.175756	-0.039406	0.353254	0.692939	0.317336	-0.542536
65224	-9.505160	1.487232	-1.490727	0.002417	-0.153894	-0.078290	0.353182	0.693004	0.317352	-0.542490
65225	-9.542102	1.556151	-1.493912	0.051674	-0.195348	-0.031877	0.353068	0.693109	0.317465	-0.542364
65226	-9.539157	1.405683	-1.585458	-0.023873	-0.040327	-0.041150	0.352941	0.693239	0.317619	-0.542190
65227	-9.551661	1.403207	-1.597386	-0.023443	-0.035253	-0.027338	0.352589	0.693476	0.317540	-0.542163
65228	-9.525168	1.535945	-1.574397	0.076217	-0.133035	-0.038069	0.352213	0.693774	0.317432	-0.542089
65229	-9.659115	1.551210	-1.538329	0.039000	-0.184672	0.088605	0.351958	0.693957	0.317386	-0.542047
65230	-9.499836	1.462935	-1.590017	0.028315	-0.086801	-0.070671	0.351950	0.693929	0.317566	-0.541983
65231	-9.508895	1.443703	-1.501598	-0.036099	-0.152740	-0.079573	0.351765	0.694008	0.317627	-0.541966
65232	-9.555216	1.478868	-1.583980	0.026999	-0.111492	-0.015492	0.351504	0.694171	0.317681	-0.541896
65233	-9.551779	1.503273	-1.564961	0.035823	-0.145650	-0.018663	0.351332	0.694317	0.317737	-0.541787
65234	-9.513327	1.469362	-1.611519	0.040153	-0.092096	-0.053112	0.351082	0.694497	0.317906	-0.541619
65235	-9.535103	1.358866	-1.623608	-0.050203	-0.029017	-0.045526	0.350836	0.694690	0.318068	-0.541436
65236	-9.550449	1.378421	-1.600822	-0.052361	-0.068235	-0.031769	0.350379	0.695045	0.318020	-0.541305
65237	-9.573388	1.484074	-1.643167	0.049366	-0.102014	0.012758	0.349997	0.695337	0.317996	-0.541190
65238	-9.567138	1.501162	-1.493976	-0.018526	-0.240083	-0.016893	0.349937	0.695456	0.318120	-0.541003
65239	-9.592384	1.443120	-1.707839	0.041219	-0.037265	0.036681	0.350007	0.695494	0.318465	-0.540706
65240	-9.570607	1.398004	-1.613929	-0.041499	-0.091521	-0.007301	0.350007	0.695451	0.318666	-0.540644
65241	-9.561715	1.429395	-1.537334	-0.054176	-0.173862	-0.024950	0.350259	0.695264	0.319133	-0.540445
65242	-9.551909	1.316168	-1.745535	-0.033125	0.059901	-0.014041	0.350484	0.695128	0.319630	-0.540180
65243	-9.541772	1.474604	-1.454401	-0.056687	-0.271176	-0.052646	0.350538	0.695091	0.319859	-0.540057
65244	-9.482968	1.184517	-1.636398	-0.185514	0.043057	-0.118808	0.351041	0.694851	0.320568	-0.539619
65245	-9.633054	1.415624	-1.801301	0.057211	0.037863	0.088812	0.350892	0.695027	0.320608	-0.539466
65246	-9.496310	1.396356	-1.746327	0.039838	0.010162	-0.056783	0.351079	0.694934	0.320815	-0.539340
65247	-9.576935	1.278206	-1.833310	-0.029309	0.140446	0.020518	0.350808	0.695148	0.320636	-0.539348
65248	-9.565332	1.499769	-1.723427	0.096942	-0.075562	0.020928	0.350326	0.695364	0.320200	-0.539641
65249	-9.559786	1.341486	-1.677639	-0.054648	-0.024780	-0.014731	0.350312	0.695333	0.320093	-0.539754
65250	-9.640417	1.298256	-1.840136	-0.018498	0.130741	0.086392	0.349906	0.695489	0.319491	-0.540172
65251	-9.558789	1.411047	-1.720173	0.029515	-0.022280	0.001543	0.349363	0.695719	0.318549	-0.540783
65252	-9.546343	1.540520	-1.659873	0.108395	-0.137835	-0.002983	0.349010	0.695845	0.317652	-0.541377
65253	-9.568569	1.373006	-1.818987	0.056337	0.094553	0.022924	0.348750	0.695848	0.316780	-0.542051
65254	-9.528109	1.196852	-1.698350	-0.136548	0.107443	-0.062226	0.348231	0.695877	0.315585	-0.543044
65255	-9.567603	1.305057	-1.725093	-0.035373	0.079614	-0.003990	0.347463	0.696138	0.313817	-0.544224
65256	-9.646429	1.552314	-1.620425	0.098158	-0.136080	0.089882	0.347002	0.696156	0.312207	-0.545421
65257	-9.575234	1.386292	-1.868200	0.125464	0.185361	0.038553	0.346798	0.695883	0.310805	-0.546698
65258	-9.622084	1.460463	-1.484705	-0.023303	-0.149779	0.031029	0.346017	0.695861	0.308547	-0.548497
65259	-9.340476	1.492154	-1.555774	0.112776	-0.072596	-0.227625	0.345516	0.695776	0.306726	-0.549940
65260	-9.525548	1.737314	-1.531742	0.266293	-0.226624	-0.015837	0.344362	0.696129	0.304515	-0.551444
65261	-9.451249	1.836161	-1.380379	0.283148	-0.387914	-0.098143	0.343780	0.696133	0.302817	-0.552736
65262	-9.494122	1.733002	-1.289279	0.148301	-0.386249	-0.084755	0.343378	0.696026	0.301434	-0.553874
65263	-9.466170	1.621446	-1.283006	0.070363	-0.309094	-0.128523	0.343258	0.695780	0.300556	-0.554735
65264	-9.664286	1.418517	-1.297306	-0.114746	-0.173516	0.038725	0.343315	0.695450	0.300239	-0.555284
65265	-9.620223	1.184174	-1.491760	-0.170986	0.132107	-0.008117	0.343110	0.695244	0.299750	-0.555933
65266	-9.522868	1.457985	-1.320931	-0.024827	-0.157709	-0.090028	0.342271	0.695479	0.298617	-0.556765
65267	-9.542504	1.632023	-1.305906	0.104150	-0.270621	-0.048252	0.341641	0.695686	0.297786	-0.557339
65268	-9.576256	1.482731	-1.345704	0.006406	-0.149094	-0.030468	0.341162	0.695778	0.297218	-0.557819
65269	-9.636893	1.320274	-1.431828	-0.080470	0.016099	0.018702	0.340687	0.695902	0.296729	-0.558216
65270	-9.646833	1.435773	-1.541044	0.075566	0.033730	0.061056	0.339902	0.696205	0.295913	-0.558749
65271	-9.540622	1.432273	-1.526089	0.089784	0.028290	-0.045653	0.339332	0.696328	0.295196	-0.559321
65272	-9.620846	1.409586	-1.446728	0.013953	-0.021478	0.017876	0.338578	0.696562	0.294265	-0.559977
65273	-9.572831	1.475964	-1.458419	0.086471	-0.049133	-0.018063	0.337916	0.696761	0.293451	-0.560557
65274	-9.553253	1.408095	-1.378024	-0.006256	-0.069330	-0.058638	0.337284	0.696966	0.292658	-0.561097
65275	-9.571436	1.480230	-1.387598	0.054136	-0.105406	-0.029290	0.336507	0.697340	0.291776	-0.561557
65276	-9.568124	1.451694	-1.280667	-0.030625	-0.174422	-0.052300	0.335819	0.697682	0.291135	-0.561878
65277	-9.516539	1.447353	-1.329475	0.004038	-0.137305	-0.096311	0.334761	0.698304	0.290304	-0.562166
65278	-9.542776	1.623615	-1.239513	0.078886	-0.325743	-0.059495	0.333692	0.698950	0.289593	-0.562365
65279	-9.556571	1.463617	-1.331172	0.003344	-0.165718	-0.054882	0.332936	0.699424	0.289312	-0.562369
65280	-9.526037	1.356396	-1.314757	-0.086458	-0.122212	-0.102314	0.331935	0.700026	0.288834	-0.562456
65281	-9.544563	1.461993	-1.269127	-0.040029	-0.236741	-0.076717	0.330837	0.700719	0.288303	-0.562513
65282	-9.601311	1.538451	-1.277508	0.008400	-0.292218	-0.009700	0.329976	0.701271	0.288007	-0.562483
65283	-9.612103	1.564379	-1.305644	0.039798	-0.298475	0.008404	0.329574	0.701564	0.288185	-0.562261
65284	-9.584178	1.495634	-1.362469	0.023656	-0.219588	-0.019786	0.329659	0.701627	0.288772	-0.561832
65285	-9.571850	1.464436	-1.499158	0.081031	-0.099792	-0.014941	0.329877	0.701671	0.289320	-0.561367
65286	-9.617060	1.492548	-1.552151	0.121975	-0.081865	0.041405	0.330330	0.701520	0.290024	-0.560926
65287	-9.644525	1.436528	-1.479558	0.028014	-0.107161	0.049224	0.330911	0.701262	0.290799	-0.560505
65288	-9.598346	1.421204	-1.544090	0.063306	-0.045187	0.012089	0.331657	0.700909	0.291620	-0.560079
65289	-9.604943	1.333405	-1.544972	-0.006222	0.011154	0.006665	0.332484	0.700500	0.292444	-0.559670
65290	-9.562177	1.257806	-1.586429	-0.031713	0.095107	-0.039049	0.333204	0.700129	0.293091	-0.559367
65291	-9.621556	1.276596	-1.671169	0.021775	0.151514	0.034820	0.333728	0.699814	0.293557	-0.559205
65292	-9.592699	1.442697	-1.368858	-0.022134	-0.183359	-0.017744	0.334113	0.699620	0.293664	-0.559162
65293	-9.493289	1.412517	-1.474350	0.036893	-0.073170	-0.102655	0.334776	0.699302	0.294191	-0.558886
65294	-9.586187	1.349209	-1.539955	0.007444	0.016119	-0.010315	0.335154	0.699081	0.294589	-0.558726
65295	-9.538774	1.373518	-1.433917	-0.025597	-0.080369	-0.069804	0.335334	0.698959	0.294861	-0.558627
65296	-9.531945	1.463402	-1.431868	0.045166	-0.136864	-0.064406	0.335489	0.698888	0.295125	-0.558484
65297	-9.563000	1.345589	-1.483949	-0.022637	-0.026505	-0.042198	0.335699	0.698764	0.295480	-0.558325
65298	-9.549930	1.391298	-1.488438	0.018598	-0.052070	-0.047993	0.335578	0.698825	0.295576	-0.558271
65299	-9.540602	1.429940	-1.448463	0.026740	-0.110893	-0.058056	0.335461	0.698887	0.295729	-0.558181
65300	-9.552791	1.511502	-1.297767	-0.001065	-0.285455	-0.058552	0.335291	0.699012	0.295892	-0.558041
65301	-9.546768	1.535583	-1.393530	0.074243	-0.229960	-0.046300	0.335277	0.699058	0.296299	-0.557777
65302	-9.541821	1.493419	-1.438033	0.067159	-0.175428	-0.050039	0.335177	0.699154	0.296645	-0.557532
65303	-9.588340	1.453527	-1.440535	0.025775	-0.158605	-0.009712	0.335265	0.699185	0.297211	-0.557139
65304	-9.581048	1.421326	-1.563662	0.072024	-0.048019	-0.001765	0.335300	0.699221	0.297667	-0.556829
65305	-9.561109	1.387842	-1.534656	0.031649	-0.055920	-0.030462	0.335411	0.699191	0.298174	-0.556528
65306	-9.541990	1.410976	-1.479582	0.019981	-0.118523	-0.054863	0.335487	0.699218	0.298643	-0.556196
65307	-9.569661	1.446072	-1.572874	0.093868	-0.072766	-0.008130	0.335659	0.699216	0.299164	-0.555815
65308	-9.539907	1.398661	-1.526302	0.032627	-0.084809	-0.051160	0.336016	0.699128	0.299834	-0.555349
65309	-9.579988	1.219937	-1.584157	-0.085548	0.061887	-0.026840	0.336401	0.699018	0.300595	-0.554844
65310	-9.565861	1.157783	-1.678035	-0.080594	0.169351	-0.033793	0.336418	0.699111	0.300924	-0.554537
65311	-9.519105	1.358659	-1.577235	0.026182	-0.035759	-0.068714	0.336205	0.699314	0.301055	-0.554339
65312	-9.515925	1.441230	-1.535088	0.064333	-0.125038	-0.067602	0.336137	0.699472	0.301293	-0.554052
65313	-9.537594	1.384763	-1.482145	-0.018313	-0.141146	-0.062828	0.336214	0.699530	0.301757	-0.553680
65314	-9.560771	1.403083	-1.545928	0.024309	-0.108585	-0.027265	0.336392	0.699586	0.302266	-0.553223
65315	-9.567590	1.265094	-1.649608	-0.031162	0.050105	-0.022031	0.336569	0.699649	0.302789	-0.552749
65316	-9.575556	1.297374	-1.573979	-0.054825	-0.036771	-0.022514	0.336547	0.699779	0.303131	-0.552410
65317	-9.551060	1.404776	-1.583357	0.036937	-0.099205	-0.030461	0.336528	0.699914	0.303513	-0.552041
65318	-9.571062	1.414865	-1.582670	0.036441	-0.113688	-0.009746	0.336728	0.699934	0.304082	-0.551580
65319	-9.572223	1.341830	-1.606006	-0.012255	-0.057857	-0.014539	0.336873	0.699995	0.304565	-0.551147
65320	-9.564194	1.386442	-1.601507	0.018010	-0.093353	-0.017188	0.337065	0.700029	0.305050	-0.550719
65321	-9.578497	1.261357	-1.689754	-0.038445	0.045999	-0.005022	0.337368	0.700030	0.305588	-0.550234
65322	-9.627059	1.233589	-1.757068	-0.037121	0.110068	0.050162	0.337552	0.700083	0.305875	-0.549894
65323	-9.586172	1.326200	-1.725042	0.023209	0.029518	0.017259	0.337747	0.700087	0.306111	-0.549638
65324	-9.561637	1.442919	-1.661625	0.081113	-0.090243	-0.001816	0.338014	0.700093	0.306352	-0.549332
65325	-9.560286	1.262185	-1.733847	-0.024929	0.075495	-0.015132	0.338603	0.699900	0.306807	-0.548961
65326	-9.562859	1.203656	-1.716388	-0.085751	0.097839	-0.023605	0.338856	0.699886	0.306880	-0.548781
65327	-9.548466	1.383539	-1.674498	0.033379	-0.038967	-0.020410	0.339164	0.699858	0.306941	-0.548593
65328	-9.531032	1.371801	-1.637700	0.002547	-0.056862	-0.045333	0.339748	0.699727	0.307152	-0.548280
65329	-9.560376	1.359569	-1.638413	-0.017848	-0.046094	-0.018242	0.340444	0.699533	0.307479	-0.547912
65330	-9.585752	1.313954	-1.709872	-0.024559	0.042425	0.012504	0.341181	0.699340	0.307775	-0.547534
65331	-9.551698	1.420112	-1.623058	0.012978	-0.081516	-0.020897	0.341919	0.699148	0.307980	-0.547204
65332	-9.518753	1.428937	-1.687795	0.057561	-0.024797	-0.040624	0.342764	0.698918	0.308271	-0.546805
65333	-9.538781	1.403174	-1.669270	0.016680	-0.018465	-0.027848	0.343613	0.698663	0.308590	-0.546418
65334	-9.540273	1.344918	-1.616267	-0.065732	-0.019878	-0.043695	0.344432	0.698431	0.308837	-0.546059
65335	-9.504403	1.477749	-1.604093	0.035590	-0.097556	-0.061803	0.345165	0.698294	0.309025	-0.545665
65336	-9.585987	1.644131	-1.622184	0.154636	-0.175533	0.044851	0.346185	0.698022	0.309378	-0.545167
65337	-9.557878	1.469204	-1.647052	0.027159	-0.043324	-0.003419	0.347419	0.697571	0.310000	-0.544605
65338	-9.566514	1.349095	-1.775258	-0.006600	0.138997	0.009248	0.348257	0.697298	0.310289	-0.544255
65339	-9.529042	1.576538	-1.606320	0.087766	-0.119077	-0.022565	0.348837	0.697128	0.310275	-0.544110
65340	-9.547673	1.580875	-1.594915	0.076916	-0.123432	-0.005556	0.349591	0.696872	0.310470	-0.543842
65341	-9.514858	1.638867	-1.597065	0.128746	-0.145156	-0.028446	0.350268	0.696616	0.310706	-0.543600
65342	-9.539076	1.550309	-1.494317	-0.007050	-0.173921	-0.035157	0.350894	0.696368	0.310976	-0.543359
65343	-9.509084	1.629149	-1.461517	0.043218	-0.239639	-0.058019	0.351303	0.696245	0.311187	-0.543132
65344	-9.519368	1.558245	-1.565730	0.038525	-0.112509	-0.041102	0.351644	0.696100	0.311512	-0.542910
65345	-9.492032	1.519586	-1.481189	-0.034348	-0.158433	-0.087697	0.351838	0.696047	0.311735	-0.542724
65346	-9.518385	1.560896	-1.569065	0.039518	-0.112564	-0.041107	0.351913	0.696063	0.311969	-0.542520
65347	-9.500194	1.582778	-1.510233	0.027689	-0.175598	-0.065479	0.351892	0.696126	0.312154	-0.542347
65348	-9.533121	1.536778	-1.540901	-0.001904	-0.130555	-0.035192	0.351936	0.696155	0.312495	-0.542085
65349	-9.510350	1.515859	-1.590212	0.011377	-0.082601	-0.052237	0.351726	0.696306	0.312652	-0.541936
65350	-9.506562	1.586172	-1.578238	0.061299	-0.138321	-0.047514	0.351568	0.696443	0.312880	-0.541732
65351	-9.529007	1.562876	-1.567789	0.029855	-0.141816	-0.030995	0.351496	0.696543	0.313210	-0.541458
65352	-9.516999	1.434145	-1.615701	-0.047893	-0.036020	-0.053746	0.351454	0.696611	0.313609	-0.541168
65353	-9.538519	1.492988	-1.652610	0.013370	-0.048160	-0.017741	0.351129	0.696844	0.313794	-0.540971
65354	-9.492050	1.591065	-1.599874	0.072863	-0.153031	-0.057618	0.351000	0.696975	0.314190	-0.540657
65355	-9.517039	1.448444	-1.604460	-0.048319	-0.079986	-0.053713	0.350918	0.697082	0.314729	-0.540259
65356	-9.531786	1.371696	-1.639690	-0.097629	-0.019173	-0.044619	0.350578	0.697356	0.315019	-0.539956
65357	-9.548058	1.533238	-1.670234	0.043836	-0.098196	0.000280	0.350042	0.697735	0.315150	-0.539738
65358	-9.533267	1.526379	-1.742238	0.077523	-0.045717	-0.002474	0.349712	0.697995	0.315407	-0.539465
65359	-9.583656	1.507872	-1.978428	0.176904	0.145770	0.085887	0.349192	0.698310	0.315365	-0.539419
65360	-9.974469	1.739932	-1.478572	0.012191	-0.424007	0.410993	0.348838	0.698278	0.314750	-0.540049
65361	-9.494420	1.695842	-1.298909	0.001153	-0.492351	-0.093405	0.351295	0.696090	0.315857	-0.540633
65362	-9.372379	1.020637	-1.943806	-0.154888	0.456642	-0.198687	0.352923	0.694516	0.317079	-0.540883
65363	-9.247765	1.413269	-1.732138	0.092439	0.089799	-0.299425	0.353914	0.693627	0.317348	-0.541217
65364	-9.631367	1.537630	-1.615289	0.056400	-0.084404	0.072978	0.354947	0.692904	0.318062	-0.541048
65365	-9.397617	1.335239	-1.698306	-0.012541	0.118399	-0.170689	0.355873	0.692289	0.318922	-0.540720
65366	-9.569453	1.472667	-1.591910	0.008126	-0.053499	-0.000734	0.356214	0.692115	0.319362	-0.540459
65367	-9.548359	1.425892	-1.562815	-0.042290	-0.051511	-0.033001	0.356839	0.691814	0.320166	-0.539957
65368	-9.624429	1.313533	-1.663218	-0.100174	0.087618	0.041427	0.357128	0.691701	0.320608	-0.539648
65369	-9.569150	1.479776	-1.697789	0.064163	0.027420	0.017673	0.357301	0.691711	0.320790	-0.539412
65370	-9.530195	1.538974	-1.650205	0.093719	-0.042129	-0.019544	0.357629	0.691606	0.321020	-0.539193
65371	-9.622810	1.448593	-1.783592	0.066769	0.115375	0.079751	0.358129	0.691394	0.321349	-0.538936
65372	-9.617455	1.288588	-1.704750	-0.106967	0.141731	0.037720	0.358642	0.691149	0.321485	-0.538829
65373	-9.530713	1.379843	-1.687658	-0.023628	0.089668	-0.036285	0.358898	0.691104	0.321238	-0.538863
65374	-9.540643	1.459790	-1.602845	-0.006539	-0.018831	-0.028845	0.359272	0.691009	0.321095	-0.538821
65375	-9.550594	1.538560	-1.584600	0.043395	-0.069806	-0.010381	0.359701	0.690919	0.320897	-0.538768
65376	-9.550655	1.320210	-1.656083	-0.104103	0.116863	-0.031272	0.360161	0.690828	0.320727	-0.538678
65377	-9.538655	1.613302	-1.639262	0.127886	-0.048453	-0.001614	0.360235	0.690956	0.320211	-0.538773
65378	-9.553617	1.692230	-1.474629	0.100607	-0.223123	-0.001986	0.360538	0.690888	0.319934	-0.538821
65379	-9.507740	1.563444	-1.517255	0.024011	-0.107921	-0.059159	0.360859	0.690806	0.319773	-0.538807
65380	-9.508142	1.484843	-1.469329	-0.067862	-0.099438	-0.078523	0.360979	0.690804	0.319476	-0.538906
65381	-9.537012	1.648880	-1.456346	0.051613	-0.196888	-0.027346	0.360871	0.691007	0.318996	-0.539002
65382	-9.543587	1.609710	-1.470290	0.022039	-0.161531	-0.024613	0.361039	0.691013	0.318903	-0.538936
65383	-9.518518	1.582969	-1.450296	-0.007638	-0.160417	-0.056379	0.361041	0.691128	0.318701	-0.538908
65384	-9.528804	1.617889	-1.465900	0.023270	-0.166376	-0.038420	0.361053	0.691279	0.318570	-0.538784
65385	-9.519266	1.599857	-1.587483	0.069454	-0.055614	-0.030655	0.360915	0.691529	0.318387	-0.538663
65386	-9.535771	1.638576	-1.559594	0.078146	-0.104911	-0.013143	0.360612	0.691894	0.318162	-0.538530
