// General information: 
//  MT Manager version: 2021.0.0 
//  XDA version: 2021.0.0 build 5908 rev 109668 built on 2021-04-19
// Device information: 
//  DeviceId: 00B43DF4
//  ProductCode: MTW2-3A7G6
//  Firmware Version: 4.3.5
//  Hardware Version: 1.1.0
// Device settings: 
//  Filter Profile: human(46.1)
//  Option Flags: Orientation Smoother Disabled, Position/Velocity Smoother Disabled, Continuous Zero Rotation Update Disabled, AHS Disabled, ICC Disabled
// Coordinate system: ENU
PacketCounter	Acc_X	Acc_Y	Acc_Z	FreeAcc_E	FreeAcc_N	FreeAcc_U	Quat_q0	Quat_q1	Quat_q2	Quat_q3
59330	10.051316	-0.298947	4.173630	0.470119	-0.110800	1.064079	-0.577101	-0.407354	0.386774	-0.592809
59331	10.167534	-0.202501	4.065693	0.362293	0.072516	1.133223	-0.576827	-0.406750	0.385206	-0.594510
59332	10.179106	-0.100351	3.866258	0.245498	0.295910	1.069604	-0.576332	-0.406413	0.383523	-0.596305
59333	9.913557	0.016004	3.854622	0.127419	0.236531	0.820500	-0.575696	-0.406287	0.381631	-0.598216
59334	9.470937	0.152221	3.962704	0.001770	-0.006712	0.454966	-0.575057	-0.406342	0.379725	-0.600004
59335	9.049111	0.209725	3.980577	-0.046839	-0.160523	0.074039	-0.574491	-0.406436	0.377964	-0.601592
59336	8.821075	0.225388	3.886982	-0.061917	-0.137547	-0.171734	-0.574141	-0.406358	0.376371	-0.602976
59337	8.668821	0.232721	3.918003	-0.062025	-0.200683	-0.299056	-0.573928	-0.406191	0.374977	-0.604159
59338	8.710027	0.268679	4.095574	-0.084601	-0.326240	-0.189961	-0.573903	-0.405794	0.373974	-0.605070
59339	8.738827	0.207686	4.145523	-0.021716	-0.337094	-0.144106	-0.573972	-0.405387	0.373384	-0.605641
59340	8.930476	0.191311	4.136044	-0.011146	-0.235584	0.028106	-0.574228	-0.404846	0.373035	-0.605976
59341	9.129328	0.222453	4.210229	-0.043197	-0.212819	0.240819	-0.574633	-0.404242	0.372945	-0.606051
59342	9.289284	0.219633	4.251782	-0.043768	-0.175268	0.404164	-0.575205	-0.403554	0.373041	-0.605908
59343	9.394655	0.184567	4.196823	-0.018924	-0.069345	0.478170	-0.575910	-0.402716	0.373243	-0.605671
59344	9.449802	0.168473	4.178566	-0.011017	-0.016566	0.521099	-0.576768	-0.401685	0.373486	-0.605388
59345	9.384934	0.104584	4.260396	0.052229	-0.097913	0.493939	-0.577761	-0.400558	0.373678	-0.605070
59346	9.378193	0.083241	4.306212	0.069193	-0.123002	0.506273	-0.578880	-0.399232	0.373897	-0.604742
59347	9.278379	0.004044	4.304013	0.140651	-0.136262	0.413478	-0.580076	-0.397778	0.374088	-0.604436
59348	9.258687	-0.014338	4.275184	0.148605	-0.093555	0.383870	-0.581346	-0.396215	0.374190	-0.604179
59349	9.230917	-0.052698	4.304517	0.179846	-0.104143	0.370545	-0.582622	-0.394638	0.374249	-0.603945
59350	9.200600	-0.094675	4.301082	0.213800	-0.086163	0.341431	-0.583831	-0.393171	0.374255	-0.603731
59351	9.212113	-0.103916	4.281468	0.215998	-0.040201	0.343910	-0.584917	-0.391948	0.374230	-0.603490
59352	9.259652	-0.133324	4.357942	0.244472	-0.069305	0.418930	-0.585789	-0.390990	0.374180	-0.603297
59353	9.168822	-0.161936	4.387711	0.273057	-0.118526	0.348853	-0.586395	-0.390371	0.374072	-0.603175
59354	9.055559	-0.172213	4.392588	0.284372	-0.160480	0.248178	-0.586700	-0.390094	0.373922	-0.603151
59355	9.041345	-0.146147	4.335811	0.257833	-0.110801	0.211672	-0.586758	-0.390110	0.373709	-0.603217
59356	8.997465	-0.103248	4.316782	0.217209	-0.110844	0.164295	-0.586662	-0.390241	0.373432	-0.603397
59357	8.996031	-0.083864	4.290210	0.199432	-0.086184	0.151966	-0.586475	-0.390440	0.373151	-0.603624
59358	9.061175	-0.088660	4.247613	0.204397	-0.019214	0.192952	-0.586225	-0.390697	0.372903	-0.603854
59359	9.111683	-0.099308	4.292714	0.218437	-0.037667	0.257610	-0.585987	-0.390876	0.372651	-0.604125
59360	9.203855	-0.139100	4.520134	0.267677	-0.199020	0.436734	-0.585828	-0.390813	0.372338	-0.604512
59361	9.267589	-0.117546	4.379187	0.237671	-0.039508	0.435300	-0.585594	-0.390791	0.372051	-0.604929
59362	9.163314	-0.281750	4.280268	0.395002	0.019135	0.297209	-0.585376	-0.390654	0.371836	-0.605361
59363	9.313586	-0.203889	4.551311	0.320729	-0.157733	0.549316	-0.585271	-0.390090	0.371789	-0.605855
59364	9.218257	-0.235123	4.714461	0.349987	-0.335312	0.532493	-0.585012	-0.389720	0.371729	-0.606379
59365	9.092670	-0.267655	4.414215	0.362865	-0.109570	0.291267	-0.584666	-0.389675	0.371491	-0.606888
59366	9.111526	-0.208815	4.527742	0.305452	-0.203040	0.357339	-0.584234	-0.389745	0.371257	-0.607403
59367	9.162679	-0.220608	4.607767	0.316723	-0.250084	0.437776	-0.583728	-0.389836	0.371010	-0.607981
59368	9.128910	-0.249669	4.596249	0.342180	-0.249868	0.402268	-0.583209	-0.389980	0.370729	-0.608558
59369	9.200438	-0.292426	4.552718	0.378690	-0.175688	0.448236	-0.582600	-0.390213	0.370418	-0.609181
59370	9.111681	-0.239462	4.472472	0.320734	-0.143247	0.334218	-0.581938	-0.390537	0.370124	-0.609785
59371	9.079430	-0.244175	4.507324	0.326318	-0.189505	0.319896	-0.581255	-0.390938	0.369878	-0.610329
59372	9.100798	-0.270752	4.460229	0.348642	-0.139865	0.318964	-0.580556	-0.391395	0.369714	-0.610800
59373	9.097264	-0.204077	4.434156	0.279228	-0.126109	0.305105	-0.579949	-0.391754	0.369582	-0.611226
59374	9.085066	-0.203607	4.366116	0.272844	-0.072719	0.265165	-0.579452	-0.391985	0.369469	-0.611617
59375	9.058989	-0.209286	4.341525	0.275293	-0.061970	0.231131	-0.579094	-0.392110	0.369319	-0.611967
59376	9.107700	-0.169819	4.380927	0.234694	-0.077147	0.292288	-0.578943	-0.392006	0.369175	-0.612263
59377	9.114623	-0.270253	4.453144	0.335050	-0.126927	0.328886	-0.579052	-0.391594	0.369126	-0.612454
59378	9.136415	-0.387042	4.425297	0.443538	-0.073382	0.336451	-0.579438	-0.390834	0.368964	-0.612671
59379	9.208841	-0.383768	4.468574	0.434372	-0.063742	0.420856	-0.580073	-0.389805	0.368765	-0.612845
59380	9.306722	-0.373613	4.573910	0.419592	-0.093659	0.555071	-0.581035	-0.388373	0.368613	-0.612935
59381	9.343747	-0.410086	4.673494	0.450897	-0.137057	0.632080	-0.582285	-0.386733	0.368518	-0.612843
59382	9.361011	-0.363214	4.624662	0.392645	-0.059366	0.627149	-0.583769	-0.385063	0.368483	-0.612504
59383	9.330198	-0.374814	4.705161	0.403980	-0.116461	0.635030	-0.585439	-0.383469	0.368456	-0.611925
59384	9.192239	-0.399505	4.698922	0.429705	-0.143859	0.508715	-0.587239	-0.381940	0.368434	-0.611170
59385	9.024564	-0.372951	4.672053	0.406644	-0.171167	0.346802	-0.589160	-0.380507	0.368469	-0.610194
59386	8.929489	-0.381439	4.642595	0.420701	-0.166886	0.248629	-0.591101	-0.379329	0.368543	-0.609004
59387	8.845437	-0.324949	4.609327	0.371534	-0.159426	0.158760	-0.593180	-0.378053	0.368684	-0.607688
59388	8.859593	-0.282863	4.605978	0.336509	-0.135045	0.170094	-0.595300	-0.376786	0.368944	-0.606242
59389	8.868086	-0.230180	4.555629	0.289846	-0.071397	0.155289	-0.597471	-0.375445	0.369174	-0.604798
59390	8.865782	-0.324063	4.647305	0.393087	-0.135436	0.193894	-0.599610	-0.374125	0.369401	-0.603358
59391	8.907795	-0.420265	4.736744	0.499031	-0.178499	0.271024	-0.601684	-0.372931	0.369505	-0.601967
59392	8.934729	-0.438108	4.770777	0.527280	-0.182504	0.310073	-0.603601	-0.371954	0.369632	-0.600573
59393	8.995962	-0.410754	4.788114	0.512281	-0.162052	0.372271	-0.605209	-0.371404	0.369792	-0.599195
59394	9.038845	-0.380131	4.796882	0.494451	-0.144981	0.414227	-0.606625	-0.370869	0.369852	-0.598056
59395	9.112154	-0.366552	4.736132	0.493503	-0.049624	0.451358	-0.607794	-0.370463	0.369632	-0.597257
59396	9.173335	-0.369368	4.842909	0.510369	-0.107568	0.554000	-0.608622	-0.370316	0.369225	-0.596757
59397	9.118192	-0.287208	4.799695	0.440995	-0.086163	0.485811	-0.609135	-0.370430	0.368685	-0.596496
59398	9.033066	-0.197134	4.954092	0.363732	-0.253690	0.482043	-0.609385	-0.370649	0.367914	-0.596580
59399	8.939168	-0.108525	4.659574	0.285124	-0.028408	0.264515	-0.609245	-0.371141	0.367233	-0.596837
59400	8.779874	-0.121592	4.567036	0.305119	-0.019711	0.080002	-0.608810	-0.371867	0.366757	-0.597122
59401	8.884170	-0.015218	5.031702	0.210891	-0.389172	0.387842	-0.608218	-0.372528	0.366475	-0.597487
59402	8.881695	-0.082129	4.880572	0.281859	-0.264036	0.314606	-0.607352	-0.373463	0.366156	-0.597979
59403	8.922377	-0.061702	4.664058	0.266309	-0.064764	0.251652	-0.606290	-0.374682	0.365792	-0.598516
59404	9.060873	0.006595	4.775072	0.208248	-0.113065	0.426679	-0.605080	-0.375841	0.365317	-0.599304
59405	9.120572	-0.009087	4.654591	0.227384	0.011176	0.424417	-0.603767	-0.376994	0.364752	-0.600248
59406	9.101664	0.031657	4.629988	0.189646	0.014604	0.397204	-0.602361	-0.378174	0.364132	-0.601293
59407	9.093938	0.084566	4.643511	0.140481	-0.010698	0.397563	-0.600908	-0.379354	0.363456	-0.602412
59408	9.074514	0.124358	4.619788	0.102750	-0.007264	0.370343	-0.599451	-0.380476	0.362772	-0.603567
59409	9.067306	0.117706	4.608253	0.110964	-0.007332	0.358523	-0.598000	-0.381544	0.362102	-0.604733
59410	9.067907	0.140861	4.652724	0.090572	-0.054023	0.379638	-0.596616	-0.382504	0.361492	-0.605857
59411	9.052764	0.104982	4.620211	0.124617	-0.036053	0.350632	-0.595308	-0.383315	0.360938	-0.606960
59412	9.002471	0.105997	4.677923	0.124569	-0.114256	0.331774	-0.594056	-0.384045	0.360396	-0.608048
59413	8.998084	0.097994	4.656443	0.129868	-0.100108	0.317993	-0.592850	-0.384745	0.359873	-0.609091
59414	9.093428	0.143379	4.756410	0.086233	-0.151504	0.449088	-0.591778	-0.385218	0.359547	-0.610026
59415	9.123950	0.081555	4.707994	0.140153	-0.094693	0.453262	-0.590790	-0.385644	0.359298	-0.610861
59416	9.139838	0.087247	4.697985	0.128164	-0.080846	0.463126	-0.589945	-0.385905	0.359048	-0.611659
59417	9.156677	0.101551	4.755672	0.110581	-0.124177	0.504474	-0.589251	-0.385972	0.358776	-0.612445
59418	9.116267	0.045339	4.755938	0.159150	-0.134507	0.467580	-0.588723	-0.385807	0.358531	-0.613199
59419	9.076698	0.024109	4.732934	0.170312	-0.123580	0.421735	-0.588332	-0.385531	0.358360	-0.613848
59420	9.061103	0.002165	4.703029	0.181355	-0.095063	0.394180	-0.588075	-0.385170	0.358241	-0.614390
59421	9.029665	-0.046194	4.710861	0.221277	-0.105542	0.369114	-0.587887	-0.384769	0.358175	-0.614860
59422	8.981841	-0.051378	4.719483	0.218194	-0.126718	0.330584	-0.587798	-0.384289	0.358171	-0.615247
59423	8.893238	-0.087670	4.739615	0.246918	-0.175885	0.260515	-0.587703	-0.383822	0.358298	-0.615556
59424	8.866782	-0.155161	4.725953	0.304030	-0.168479	0.230106	-0.587617	-0.383476	0.358577	-0.615691
59425	8.932995	-0.188135	4.714103	0.326291	-0.126505	0.283554	-0.587518	-0.383222	0.358941	-0.615731
59426	9.023515	-0.226172	4.660254	0.351234	-0.038360	0.339559	-0.587402	-0.383029	0.359363	-0.615716
59427	9.021984	-0.215524	4.674271	0.333646	-0.056468	0.344917	-0.587293	-0.382870	0.359777	-0.615677
59428	9.048159	-0.222961	4.662907	0.333126	-0.039111	0.363220	-0.587170	-0.382787	0.360177	-0.615612
59429	9.075872	-0.224586	4.683199	0.329782	-0.050350	0.397256	-0.587073	-0.382746	0.360566	-0.615502
59430	9.076709	-0.206590	4.727556	0.309370	-0.097052	0.418343	-0.586988	-0.382723	0.360992	-0.615348
59431	9.027629	-0.223554	4.639175	0.317667	-0.046675	0.334574	-0.586899	-0.382731	0.361407	-0.615184
59432	9.065688	-0.218783	4.630394	0.308486	-0.029475	0.364693	-0.586860	-0.382799	0.361787	-0.614956
59433	9.042102	-0.186119	4.620304	0.273729	-0.040231	0.339401	-0.586808	-0.382875	0.362109	-0.614768
59434	9.066546	-0.180701	4.858416	0.279380	-0.247803	0.468346	-0.586770	-0.382938	0.362345	-0.614627
59435	8.990401	-0.159558	4.594962	0.244435	-0.054427	0.282050	-0.586668	-0.383107	0.362598	-0.614469
59436	8.914046	-0.271651	4.479542	0.350513	0.010900	0.161144	-0.586459	-0.383393	0.363056	-0.614220
59437	9.054784	-0.245220	4.816393	0.335680	-0.240882	0.437980	-0.586279	-0.383451	0.363730	-0.613957
59438	9.044954	-0.331994	4.678418	0.409817	-0.129989	0.366908	-0.585963	-0.383710	0.364227	-0.613802
59439	9.027562	-0.313833	4.506296	0.380549	0.002073	0.274792	-0.585606	-0.384124	0.364594	-0.613666
59440	9.131866	-0.243246	4.632895	0.313828	-0.081636	0.424925	-0.585199	-0.384534	0.364919	-0.613603
59441	9.166792	-0.281888	4.580119	0.347680	-0.028533	0.432571	-0.584858	-0.384886	0.365216	-0.613532
59442	9.173232	-0.262566	4.574462	0.327171	-0.032427	0.435957	-0.584530	-0.385244	0.365466	-0.613471
59443	9.157856	-0.244540	4.531647	0.306700	-0.011077	0.403367	-0.584237	-0.385541	0.365641	-0.613458
59444	9.112241	-0.271023	4.458402	0.329418	0.028607	0.330015	-0.583964	-0.385793	0.365794	-0.613470
59445	9.085481	-0.250033	4.523441	0.312022	-0.049893	0.334733	-0.583668	-0.386089	0.365951	-0.613471
59446	9.042701	-0.213481	4.506765	0.274497	-0.063991	0.289168	-0.583365	-0.386353	0.366196	-0.613447
59447	9.106783	-0.204071	4.521550	0.262333	-0.057813	0.353304	-0.583072	-0.386543	0.366448	-0.613455
59448	9.172944	-0.213817	4.520026	0.267372	-0.033763	0.412116	-0.582807	-0.386664	0.366681	-0.613492
59449	9.149273	-0.236412	4.519284	0.287213	-0.047920	0.390461	-0.582548	-0.386800	0.366869	-0.613540
59450	9.175380	-0.175090	4.610687	0.226477	-0.127175	0.454212	-0.582341	-0.386779	0.367128	-0.613594
59451	9.107124	-0.277713	4.538357	0.321146	-0.090602	0.360915	-0.582146	-0.386776	0.367441	-0.613594
59452	9.102355	-0.304748	4.544933	0.343767	-0.101405	0.359514	-0.582015	-0.386732	0.367684	-0.613600
59453	9.124394	-0.236942	4.544534	0.271444	-0.098520	0.379472	-0.581895	-0.386693	0.367860	-0.613633
59454	9.090135	-0.248425	4.546095	0.279845	-0.116183	0.349371	-0.581840	-0.386581	0.368062	-0.613635
59455	9.064760	-0.255516	4.520303	0.282434	-0.105396	0.315364	-0.581844	-0.386482	0.368266	-0.613571
59456	9.037260	-0.212212	4.454201	0.233288	-0.062590	0.261968	-0.581839	-0.386407	0.368465	-0.613504
59457	9.073127	-0.277094	4.486120	0.295918	-0.073758	0.308117	-0.581848	-0.386299	0.368666	-0.613442
59458	9.072503	-0.354398	4.488206	0.370210	-0.073763	0.308449	-0.581837	-0.386242	0.368901	-0.613347
59459	9.053513	-0.346736	4.557619	0.364231	-0.148763	0.321582	-0.581828	-0.386237	0.369173	-0.613195
59460	9.086007	-0.327528	4.535565	0.340670	-0.120855	0.341301	-0.581823	-0.386220	0.369481	-0.613025
59461	9.057202	-0.312669	4.569946	0.326114	-0.170765	0.330269	-0.581798	-0.386263	0.369794	-0.612833
59462	9.114136	-0.261916	4.482321	0.267910	-0.075388	0.343583	-0.581806	-0.386281	0.370016	-0.612680
59463	9.187991	-0.265602	4.455397	0.267108	-0.022919	0.398504	-0.581811	-0.386285	0.370222	-0.612549
59464	9.145765	-0.294352	4.511343	0.298574	-0.093972	0.384660	-0.581797	-0.386330	0.370439	-0.612402
59465	9.113345	-0.302768	4.509424	0.306982	-0.111620	0.354560	-0.581748	-0.386465	0.370722	-0.612193
59466	9.129457	-0.290161	4.539706	0.295042	-0.140608	0.382080	-0.581691	-0.386625	0.371068	-0.611935
59467	9.107467	-0.278565	4.478428	0.280384	-0.104857	0.335724	-0.581600	-0.386830	0.371444	-0.611664
59468	9.157461	-0.261895	4.471224	0.262517	-0.087838	0.377645	-0.581480	-0.387123	0.371742	-0.611412
59469	9.237424	-0.206962	4.417997	0.204219	-0.017703	0.426918	-0.581383	-0.387365	0.371972	-0.611210
59470	9.159222	-0.241228	4.706295	0.256086	-0.316799	0.479679	-0.581278	-0.387606	0.372129	-0.611063
59471	9.101920	-0.345740	4.444986	0.350685	-0.108905	0.315864	-0.581092	-0.388018	0.372407	-0.610809
59472	9.113149	-0.370991	4.289642	0.370316	0.022986	0.259575	-0.580804	-0.388598	0.372863	-0.610436
59473	9.265607	-0.274500	4.536597	0.283028	-0.157786	0.502472	-0.580592	-0.388917	0.373492	-0.610050
59474	9.255039	-0.351883	4.429337	0.354474	-0.075499	0.447295	-0.580355	-0.389299	0.373836	-0.609821
59475	9.106661	-0.276995	4.272117	0.277321	-0.013334	0.246233	-0.580029	-0.389877	0.374104	-0.609597
59476	9.198903	-0.281885	4.486606	0.293725	-0.182401	0.420071	-0.579757	-0.390373	0.374411	-0.609350
59477	9.223849	-0.311937	4.352260	0.319021	-0.061387	0.386004	-0.579511	-0.390843	0.374644	-0.609140
59478	9.201080	-0.257975	4.311900	0.267041	-0.047119	0.348286	-0.579354	-0.391231	0.374708	-0.609000
59479	9.197525	-0.260802	4.287097	0.272403	-0.032954	0.334548	-0.579230	-0.391559	0.374762	-0.608874
59480	9.156322	-0.343258	4.315535	0.361299	-0.078848	0.308733	-0.579059	-0.392011	0.374831	-0.608703
59481	9.179111	-0.376088	4.337004	0.401011	-0.097065	0.338021	-0.578859	-0.392648	0.374882	-0.608452
59482	9.300902	-0.268120	4.235408	0.293635	0.026031	0.406433	-0.578548	-0.393475	0.374983	-0.608151
59483	9.306505	-0.245499	4.193536	0.276000	0.050761	0.394089	-0.578287	-0.394079	0.375143	-0.607910
59484	9.224692	-0.309801	4.146274	0.345047	0.051762	0.299719	-0.578032	-0.394665	0.375209	-0.607731
59485	9.218875	-0.250015	4.202253	0.295886	-0.016304	0.317528	-0.577761	-0.395388	0.375184	-0.607533
59486	9.289516	-0.127894	4.289004	0.185936	-0.085430	0.417910	-0.577647	-0.396001	0.375298	-0.607173
59487	9.252084	-0.176830	4.207408	0.240358	-0.038563	0.349759	-0.577632	-0.396735	0.375605	-0.606518
59488	9.185015	-0.177372	4.060325	0.246158	0.051422	0.228176	-0.577822	-0.397459	0.375825	-0.605726
59489	9.242300	-0.146803	4.229375	0.239694	-0.099399	0.349098	-0.578127	-0.398306	0.376202	-0.604644
59490	9.130560	-0.309115	4.329727	0.426743	-0.251241	0.285029	-0.578490	-0.399313	0.376823	-0.603244
59491	9.087659	-0.315334	4.342111	0.452546	-0.311407	0.248973	-0.578791	-0.400481	0.377759	-0.601593
59492	9.216075	-0.221129	4.166834	0.365280	-0.141814	0.296406	-0.578973	-0.401678	0.378790	-0.599970
59493	9.429644	-0.171873	3.964291	0.320581	0.091054	0.412388	-0.579191	-0.402705	0.379583	-0.598567
59494	9.410939	-0.142910	4.236333	0.323178	-0.197968	0.501816	-0.579365	-0.403799	0.380173	-0.597286
59495	9.354676	-0.101485	4.283599	0.303048	-0.297335	0.467834	-0.579451	-0.405076	0.380880	-0.595886
59496	9.389531	0.055700	3.802771	0.138877	0.115949	0.316212	-0.579380	-0.406316	0.381779	-0.594534
59497	9.545543	0.152563	3.526558	0.039961	0.402840	0.356550	-0.579617	-0.406623	0.382067	-0.593908
59498	9.379684	0.077203	3.818408	0.135325	0.069348	0.313593	-0.580014	-0.406517	0.382067	-0.593593
59499	9.347307	0.070389	3.721402	0.140865	0.151644	0.246293	-0.580462	-0.406208	0.381921	-0.593460
59500	9.274643	-0.009407	3.929034	0.232735	-0.054555	0.257032	-0.580982	-0.405781	0.381667	-0.593407
59501	9.188877	-0.046281	4.078434	0.278737	-0.214293	0.234581	-0.581403	-0.405509	0.381513	-0.593280
59502	9.201113	-0.034469	4.028135	0.266782	-0.157595	0.226811	-0.581747	-0.405277	0.381454	-0.593139
59503	9.266233	-0.037835	3.974356	0.268837	-0.076532	0.266096	-0.582040	-0.404974	0.381320	-0.593145
59504	9.318376	-0.010367	3.987133	0.242191	-0.059647	0.319798	-0.582356	-0.404574	0.381041	-0.593287
59505	9.354390	0.007919	4.058773	0.227100	-0.099685	0.381271	-0.582641	-0.404161	0.380665	-0.593529
59506	9.412552	0.061720	4.099378	0.174548	-0.100833	0.452018	-0.582907	-0.403644	0.380164	-0.593941
59507	9.362400	0.106989	3.880704	0.117109	0.095782	0.321558	-0.583005	-0.403229	0.379638	-0.594463
59508	9.242926	-0.005484	3.908292	0.226637	0.043641	0.219918	-0.583034	-0.402772	0.379212	-0.595016
59509	9.259596	0.036413	4.109014	0.185696	-0.117650	0.315346	-0.583193	-0.401825	0.378910	-0.595692
59510	9.104143	0.132295	4.415033	0.091176	-0.441144	0.296341	-0.583307	-0.400833	0.378486	-0.596518
59511	9.019242	0.146666	3.987867	0.045701	-0.061903	0.049633	-0.583304	-0.400066	0.378036	-0.597321
59512	9.364370	0.063580	3.977314	0.117734	0.115583	0.360177	-0.583510	-0.398954	0.377244	-0.598363
59513	9.334828	-0.024565	4.439021	0.214644	-0.280690	0.517828	-0.583742	-0.397665	0.376498	-0.599463
59514	9.147658	-0.042316	4.508355	0.221102	-0.389408	0.375840	-0.583700	-0.396634	0.376114	-0.600428
59515	9.112870	-0.191753	4.515665	0.352994	-0.381929	0.346144	-0.583514	-0.395611	0.376003	-0.601353
59516	9.226635	-0.316123	4.307970	0.446856	-0.119293	0.364510	-0.583360	-0.394487	0.375768	-0.602387
59517	9.292293	-0.035614	4.234405	0.144368	-0.010251	0.397950	-0.583301	-0.393325	0.375036	-0.603659
59518	9.272943	0.063869	4.340432	0.034719	-0.089118	0.425558	-0.583217	-0.392313	0.374402	-0.604790
59519	9.287404	-0.130709	4.417593	0.217898	-0.121531	0.469617	-0.582975	-0.391591	0.374151	-0.605647
59520	9.298844	-0.427643	4.190001	0.490658	0.117744	0.383040	-0.582668	-0.391154	0.373974	-0.606333
59521	9.453854	-0.326991	4.224226	0.379961	0.161675	0.538923	-0.582528	-0.390629	0.373401	-0.607159
59522	9.125711	-0.204679	4.735966	0.280403	-0.427542	0.458069	-0.582260	-0.390170	0.372821	-0.608067
59523	9.055778	-0.227470	4.509151	0.283697	-0.237562	0.299403	-0.581763	-0.389851	0.372650	-0.608851
59524	9.152152	-0.246520	4.392094	0.282810	-0.081902	0.337507	-0.581385	-0.389425	0.372615	-0.609506
59525	9.007162	-0.219811	4.564169	0.257271	-0.291118	0.279784	-0.581118	-0.389046	0.372347	-0.610166
59526	9.093657	-0.325005	4.545009	0.351113	-0.217468	0.350321	-0.580900	-0.388558	0.371864	-0.610979
59527	9.658117	-0.320316	4.181949	0.304410	0.364181	0.706115	-0.580597	-0.388118	0.371700	-0.611646
59528	9.864468	-0.245209	4.187965	0.213532	0.446811	0.895332	-0.580279	-0.387945	0.371969	-0.611893
59529	9.212004	-0.215105	4.385230	0.202957	-0.016352	0.390060	-0.579995	-0.388046	0.372314	-0.611889
59530	8.852610	-0.376460	4.455629	0.374476	-0.233120	0.095313	-0.579763	-0.388362	0.372667	-0.611694
59531	9.137876	-0.373885	4.161182	0.349716	0.141626	0.227912	-0.579544	-0.388802	0.373035	-0.611397
59532	9.418011	-0.351538	4.301336	0.329886	0.119770	0.541095	-0.579392	-0.389217	0.373297	-0.611118
59533	9.337422	-0.379565	4.457742	0.372892	-0.068669	0.534254	-0.579073	-0.389957	0.373573	-0.610779
59534	9.314976	-0.371885	4.322576	0.364359	0.024406	0.456604	-0.578715	-0.390737	0.374035	-0.610337
59535	9.344378	-0.295814	4.118214	0.280935	0.195345	0.397477	-0.578390	-0.391441	0.374663	-0.609808
59536	9.385680	-0.245036	4.162310	0.234286	0.148155	0.453714	-0.578129	-0.392022	0.375246	-0.609324
59537	9.368329	-0.209175	4.328309	0.210710	-0.030411	0.507111	-0.577991	-0.392541	0.375718	-0.608830
59538	9.342565	-0.170694	4.370900	0.178891	-0.098130	0.501175	-0.577979	-0.392941	0.376190	-0.608291
59539	9.309354	-0.228561	4.428501	0.244752	-0.176408	0.494441	-0.577998	-0.393395	0.376656	-0.607692
59540	9.415268	-0.208627	4.338339	0.223739	-0.067255	0.553477	-0.578055	-0.393878	0.377022	-0.607098
59541	9.321463	-0.192655	4.454326	0.223782	-0.223371	0.515324	-0.578394	-0.394163	0.377181	-0.606490
59542	9.347570	-0.250723	4.524553	0.294912	-0.277527	0.567462	-0.578924	-0.394301	0.377081	-0.605957
59543	9.352388	-0.311707	4.276913	0.355475	-0.052676	0.469683	-0.579206	-0.394850	0.377191	-0.605261
59544	9.335901	-0.301265	4.226970	0.355422	-0.027645	0.433774	-0.579399	-0.395454	0.377460	-0.604514
59545	9.324142	-0.421752	4.609096	0.506478	-0.384920	0.577527	-0.579791	-0.395759	0.377472	-0.603930
59546	9.195701	-0.464874	4.704766	0.572919	-0.533394	0.497455	-0.579692	-0.396991	0.377235	-0.603364
59547	9.037064	-0.588976	4.195371	0.701532	-0.148977	0.142314	-0.579267	-0.399202	0.376810	-0.602579
59548	9.207082	-0.214991	4.316783	0.366353	-0.233729	0.349116	-0.579165	-0.400854	0.376143	-0.601996
59549	9.175405	-0.057307	4.388017	0.245379	-0.333548	0.349717	-0.579093	-0.402376	0.375273	-0.601594
59550	9.138530	-0.078452	4.345434	0.297156	-0.315347	0.297399	-0.579099	-0.403815	0.374097	-0.601355
59551	9.032339	-0.055673	4.338585	0.309117	-0.356954	0.196633	-0.579062	-0.405377	0.372840	-0.601121
59552	9.074397	0.024986	4.287654	0.259772	-0.304151	0.215732	-0.579031	-0.406879	0.371790	-0.600786
59553	9.091730	0.071672	4.068714	0.234071	-0.108072	0.144848	-0.578936	-0.408677	0.370587	-0.600401
59554	8.969412	0.094746	4.206598	0.257216	-0.292317	0.086963	-0.578842	-0.410318	0.369353	-0.600132
59555	8.953623	0.129449	4.191688	0.254142	-0.295823	0.066695	-0.578641	-0.411853	0.368489	-0.599806
59556	9.124316	0.109576	3.853083	0.276541	0.073208	0.088298	-0.578345	-0.413222	0.367677	-0.599648
59557	9.288191	0.169956	4.028880	0.257186	-0.036437	0.309749	-0.577821	-0.414751	0.366693	-0.599700
59558	9.289751	0.276467	4.103220	0.181859	-0.122394	0.344291	-0.577186	-0.416280	0.365868	-0.599757
59559	9.297749	0.274926	4.027641	0.198909	-0.061922	0.321520	-0.576545	-0.417690	0.365129	-0.599844
59560	9.186379	0.303542	3.925915	0.179596	-0.024818	0.180391	-0.575951	-0.418979	0.364338	-0.599995
59561	9.345169	0.487397	3.918027	0.014241	0.022740	0.332259	-0.575348	-0.419977	0.363615	-0.600315
59562	9.232587	0.435977	3.874891	0.069488	0.016988	0.209308	-0.574631	-0.420756	0.363106	-0.600765
59563	9.257625	0.413674	3.979976	0.105961	-0.072868	0.271875	-0.573752	-0.421408	0.362679	-0.601405
59564	9.385527	0.456229	4.087377	0.078404	-0.132024	0.433255	-0.572767	-0.422271	0.362256	-0.601993
59565	8.989453	0.425418	4.033577	0.098510	-0.240953	0.045974	-0.571843	-0.422721	0.362037	-0.602686
59566	9.231060	0.377909	4.085327	0.150743	-0.198091	0.285987	-0.570754	-0.423447	0.361887	-0.603300
59567	9.336294	0.366364	3.974990	0.147092	-0.071106	0.339870	-0.569448	-0.424295	0.362198	-0.603752
59568	9.436042	0.458450	4.018439	0.053850	-0.104771	0.452934	-0.567918	-0.425273	0.362577	-0.604276
59569	9.209100	0.478871	4.146156	0.037574	-0.340966	0.292246	-0.566322	-0.426338	0.363418	-0.604519
59570	9.459855	0.363294	3.722504	0.094243	0.116282	0.358610	-0.564738	-0.427444	0.364807	-0.604383
59571	9.257005	0.230296	3.381028	0.174286	0.329850	0.038062	-0.563248	-0.428361	0.365743	-0.604558
59572	9.142177	0.318175	3.473199	0.085441	0.167085	-0.029616	-0.561961	-0.428951	0.366199	-0.605061
59573	9.131109	0.243595	3.545372	0.153933	0.092054	-0.016057	-0.561120	-0.428879	0.366567	-0.605670
59574	9.078307	0.146868	3.553139	0.234482	0.071140	-0.065793	-0.560378	-0.428669	0.366933	-0.606283
59575	9.152042	0.193468	3.590193	0.175972	0.055608	0.018524	-0.559816	-0.428413	0.367341	-0.606736
59576	9.137029	0.153703	3.643407	0.207196	0.002013	0.022982	-0.559488	-0.428082	0.367842	-0.606969
59577	9.433391	-0.056634	3.472543	0.380457	0.290370	0.228306	-0.559160	-0.427782	0.368183	-0.607276
59578	9.388942	-0.081933	3.648833	0.414332	0.119261	0.251457	-0.559022	-0.427208	0.368062	-0.607880
59579	9.216107	-0.133468	3.807879	0.475152	-0.078617	0.148358	-0.559007	-0.426775	0.368322	-0.608041
59580	9.371921	0.046378	3.748517	0.278372	0.004783	0.277351	-0.558678	-0.426890	0.369377	-0.607622
59581	9.755963	-0.042663	3.540928	0.327470	0.338370	0.555392	-0.558650	-0.426382	0.369791	-0.607753
59582	9.436351	-0.284950	3.678485	0.579227	0.128186	0.301917	-0.559029	-0.425719	0.369601	-0.607984
59583	9.457503	0.110385	3.870970	0.204384	-0.068677	0.404672	-0.559503	-0.425070	0.369206	-0.608242
59584	9.366160	-0.172146	3.782904	0.475296	0.028549	0.278804	-0.559862	-0.424565	0.368567	-0.608652
59585	9.271788	-0.188458	3.883462	0.506956	-0.077637	0.228217	-0.560302	-0.424224	0.367754	-0.608977
59586	9.316358	-0.055340	3.969703	0.390967	-0.135715	0.305851	-0.560764	-0.424022	0.366917	-0.609197
59587	9.289879	-0.054293	4.191440	0.424432	-0.332197	0.364859	-0.561079	-0.423950	0.366048	-0.609480
59588	9.197747	-0.037022	4.210880	0.419016	-0.374046	0.287607	-0.561309	-0.423989	0.365504	-0.609567
59589	9.234035	0.111810	4.040815	0.258147	-0.213957	0.261818	-0.561522	-0.424056	0.365201	-0.609507
59590	9.436805	0.192734	3.950315	0.170310	-0.059911	0.417798	-0.561771	-0.424046	0.365152	-0.609313
59591	9.371330	-0.012290	4.025601	0.388622	-0.127285	0.378496	-0.562095	-0.424024	0.364812	-0.609233
59592	9.244099	0.061252	4.304697	0.356510	-0.436505	0.369154	-0.562350	-0.424203	0.364623	-0.608986
59593	9.303114	0.120445	3.879453	0.256930	-0.033758	0.264288	-0.562410	-0.424676	0.364625	-0.608601
59594	9.403464	0.000186	3.722664	0.365669	0.157394	0.292998	-0.562668	-0.424808	0.364553	-0.608313
59595	9.310856	0.122272	4.014372	0.287211	-0.155861	0.322172	-0.563033	-0.424888	0.364083	-0.608200
59596	9.298141	0.157999	3.987127	0.258360	-0.134480	0.301299	-0.563296	-0.425070	0.363746	-0.608032
59597	9.350831	0.164406	3.773850	0.235550	0.082473	0.269213	-0.563467	-0.425277	0.363530	-0.607858
59598	9.405716	0.163394	3.806148	0.246114	0.077808	0.331982	-0.563757	-0.425163	0.363227	-0.607849
59599	9.402797	0.201914	3.785437	0.208541	0.099040	0.322874	-0.564003	-0.424975	0.362980	-0.607900
59600	9.333503	0.206823	3.928206	0.222510	-0.050316	0.313309	-0.564240	-0.424770	0.362627	-0.608033
59601	9.360193	0.141917	3.956489	0.290814	-0.047523	0.346068	-0.564571	-0.424336	0.362303	-0.608223
59602	9.324028	0.130662	3.915284	0.296742	-0.008010	0.296511	-0.564867	-0.423906	0.361820	-0.608535
59603	9.255713	0.197621	3.948813	0.233603	-0.057287	0.249247	-0.565091	-0.423499	0.361378	-0.608873
59604	9.237363	0.247708	3.991631	0.187239	-0.096594	0.251057	-0.565208	-0.423179	0.361080	-0.609163
59605	9.189020	0.233025	4.167935	0.220955	-0.267742	0.274114	-0.565113	-0.423122	0.360876	-0.609412
59606	9.180176	0.201663	4.271159	0.263301	-0.360835	0.304603	-0.564895	-0.423239	0.360841	-0.609554
59607	9.244457	0.197195	4.148287	0.251520	-0.226210	0.316119	-0.564648	-0.423368	0.360986	-0.609608
59608	9.233927	0.199513	4.110835	0.242828	-0.201239	0.292001	-0.564461	-0.423482	0.361155	-0.609601
59609	9.217503	0.154240	4.035342	0.277499	-0.140476	0.245811	-0.564278	-0.423681	0.361474	-0.609443
59610	9.283676	0.150821	3.907268	0.265737	-0.005851	0.257341	-0.564063	-0.424005	0.361634	-0.609322
59611	9.372398	0.163178	4.031175	0.269757	-0.093192	0.387185	-0.563879	-0.424299	0.361640	-0.609284
59612	9.362885	0.157869	3.900579	0.261538	0.017547	0.328040	-0.563717	-0.424545	0.361764	-0.609190
59613	9.296395	0.130775	3.814985	0.279460	0.068361	0.232780	-0.563593	-0.424696	0.361824	-0.609164
59614	9.322016	0.257255	4.068849	0.182730	-0.175146	0.358724	-0.563381	-0.424857	0.362218	-0.609013
59615	9.419976	0.096915	3.875329	0.314770	0.048143	0.368772	-0.563110	-0.424970	0.362636	-0.608936
59616	9.303196	-0.069226	3.930424	0.484760	-0.036287	0.275235	-0.563053	-0.425114	0.362838	-0.608768
59617	9.328750	0.180250	3.944271	0.242653	-0.079403	0.314016	-0.562553	-0.426018	0.363038	-0.608479
59618	9.491217	0.202374	3.824813	0.209888	0.078789	0.419765	-0.562415	-0.426169	0.363035	-0.608502
59619	9.288500	0.060160	3.971881	0.371540	-0.118711	0.282042	-0.562380	-0.426319	0.362888	-0.608517
59620	9.276347	0.068773	3.937327	0.362876	-0.093735	0.257934	-0.562375	-0.426554	0.362797	-0.608412
59621	9.380327	0.159955	3.817629	0.261656	0.043958	0.312530	-0.562330	-0.426732	0.362656	-0.608412
59622	9.371184	0.106912	3.871988	0.324355	-0.002712	0.322281	-0.562290	-0.426868	0.362405	-0.608504
59623	9.281075	0.108989	3.972127	0.338655	-0.126694	0.276777	-0.562371	-0.426952	0.362163	-0.608514
59624	9.178518	0.143584	3.964692	0.307662	-0.161059	0.180510	-0.562406	-0.427062	0.362017	-0.608490
59625	9.209717	0.075160	3.937080	0.376205	-0.115440	0.195823	-0.562424	-0.427239	0.361818	-0.608468
59626	9.271642	0.106518	4.044610	0.363222	-0.195256	0.294910	-0.562364	-0.427547	0.361682	-0.608389
59627	9.357683	0.086578	3.907726	0.371510	-0.039567	0.321634	-0.562231	-0.427951	0.361695	-0.608219
59628	9.399889	0.081780	3.866552	0.376774	0.009581	0.344713	-0.562142	-0.428301	0.361549	-0.608142
59629	9.428600	0.201628	3.971740	0.277834	-0.091023	0.416115	-0.562183	-0.428586	0.361214	-0.608103
59630	9.429747	0.196210	4.002905	0.294562	-0.116354	0.428483	-0.562250	-0.428771	0.360845	-0.608129
59631	9.354574	0.159162	3.982728	0.335280	-0.119089	0.349444	-0.562283	-0.428953	0.360517	-0.608165
59632	9.317716	0.198486	3.885363	0.289844	-0.047198	0.280332	-0.562269	-0.429196	0.360305	-0.608133
59633	9.326508	0.186729	3.841938	0.301193	-0.001146	0.271379	-0.562353	-0.429288	0.360022	-0.608157
59634	9.332554	0.166821	3.890557	0.332160	-0.037316	0.294197	-0.562445	-0.429390	0.359683	-0.608201
59635	9.281958	0.188772	3.882049	0.315108	-0.047487	0.245103	-0.562477	-0.429574	0.359302	-0.608266
59636	9.296783	0.198768	3.949977	0.319998	-0.101619	0.284801	-0.562486	-0.429754	0.358901	-0.608368
59637	9.264214	0.237945	3.962114	0.288269	-0.126334	0.261118	-0.562467	-0.429931	0.358548	-0.608468
59638	9.297078	0.197501	3.982971	0.336391	-0.127202	0.297178	-0.562366	-0.430224	0.358329	-0.608483
59639	9.323895	0.182892	3.955040	0.353239	-0.092152	0.310431	-0.562213	-0.430638	0.358141	-0.608442
59640	9.357472	0.250883	3.933259	0.289476	-0.071352	0.336542	-0.562084	-0.431026	0.357977	-0.608383
59641	9.367967	0.238930	3.885960	0.300846	-0.025311	0.327600	-0.561943	-0.431344	0.357757	-0.608418
59642	9.293669	0.259229	4.017488	0.303267	-0.178086	0.309368	-0.561796	-0.431678	0.357493	-0.608472
59643	9.275188	0.220155	3.946561	0.338048	-0.117322	0.263269	-0.561708	-0.431989	0.357346	-0.608419
59644	9.319244	0.296743	3.928436	0.265530	-0.096665	0.301121	-0.561568	-0.432372	0.357196	-0.608363
59645	9.289308	0.301782	3.963160	0.271010	-0.142902	0.286574	-0.561416	-0.432713	0.356900	-0.608436
59646	9.230177	0.285464	3.894678	0.283164	-0.106442	0.205029	-0.561106	-0.433267	0.356985	-0.608278
59647	9.202233	0.247884	3.655902	0.293198	0.090462	0.087513	-0.560467	-0.434213	0.357299	-0.608008
59648	9.092108	0.354105	3.725996	0.201385	-0.057778	0.017412	-0.559237	-0.435635	0.358034	-0.607691
59649	9.362300	0.077409	3.367043	0.430729	0.362776	0.121006	-0.557343	-0.437803	0.358986	-0.607311
59650	9.877882	-0.261870	3.014664	0.723814	0.872094	0.455941	-0.555341	-0.440001	0.359313	-0.607363
59651	9.340368	0.758298	4.000901	-0.131797	-0.393462	0.368299	-0.553784	-0.441727	0.357643	-0.608516
59652	9.345532	0.463105	4.447134	0.244567	-0.766292	0.516078	-0.553489	-0.442474	0.357142	-0.608536
59653	9.355284	0.163844	3.687164	0.441659	-0.027260	0.234576	-0.553398	-0.443487	0.356678	-0.608154
59654	9.409802	0.400185	3.819093	0.250133	-0.170879	0.345963	-0.553259	-0.444586	0.356059	-0.607841
59655	9.275214	0.462555	4.097847	0.249281	-0.490567	0.323046	-0.553222	-0.445197	0.355615	-0.607687
59656	9.112282	0.365660	4.166983	0.365107	-0.606319	0.188823	-0.552980	-0.445790	0.355703	-0.607421
59657	9.208805	0.395320	3.958945	0.310511	-0.404155	0.205885	-0.552315	-0.446843	0.356312	-0.606895
59658	9.578118	0.380585	3.896654	0.321337	-0.238730	0.526984	-0.551854	-0.447435	0.357053	-0.606442
59659	9.456284	0.360447	3.971619	0.350440	-0.365619	0.437605	-0.551677	-0.447582	0.357520	-0.606220
59660	9.481857	0.340663	4.007113	0.372612	-0.401977	0.472163	-0.551419	-0.447885	0.358360	-0.605735
59661	9.503164	0.178037	3.623463	0.469488	-0.038167	0.348483	-0.551061	-0.448253	0.359331	-0.605213
59662	9.622192	0.103683	3.551793	0.528829	0.059673	0.430814	-0.550774	-0.448525	0.360082	-0.604826
59663	9.505990	0.259487	3.624361	0.382449	-0.084752	0.356566	-0.550542	-0.448738	0.360481	-0.604642
59664	9.454997	0.344005	3.608468	0.293575	-0.108914	0.308493	-0.550461	-0.448762	0.360884	-0.604457
59665	9.457017	0.366291	3.515338	0.253589	-0.030453	0.279969	-0.550540	-0.448596	0.361255	-0.604286
59666	9.435862	0.275364	3.430086	0.325952	0.051680	0.225634	-0.550597	-0.448400	0.361539	-0.604210
59667	9.421786	0.315882	3.564556	0.301858	-0.084059	0.260927	-0.550606	-0.448198	0.361701	-0.604255
59668	9.463157	0.341464	3.532465	0.266839	-0.042017	0.290445	-0.550692	-0.447881	0.361874	-0.604308
59669	9.461674	0.336537	3.536907	0.266525	-0.042259	0.290452	-0.550769	-0.447520	0.361943	-0.604464
59670	9.395683	0.351108	3.649849	0.263236	-0.166513	0.268310	-0.550813	-0.447202	0.361909	-0.604679
59671	9.411078	0.357551	3.629225	0.248548	-0.138415	0.276246	-0.550823	-0.446929	0.361991	-0.604823
59672	9.484274	0.370265	3.591168	0.224755	-0.075501	0.332696	-0.550829	-0.446607	0.362030	-0.605032
59673	9.499224	0.348450	3.659455	0.249714	-0.126118	0.369160	-0.550805	-0.446253	0.362131	-0.605255
59674	9.463551	0.320260	3.566188	0.256190	-0.043619	0.302229	-0.550765	-0.445932	0.362142	-0.605521
59675	9.417386	0.304721	3.622673	0.273222	-0.103934	0.277819	-0.550764	-0.445568	0.362090	-0.605821
59676	9.464212	0.284375	3.640472	0.289591	-0.094328	0.326960	-0.550770	-0.445204	0.362046	-0.606110
59677	9.450938	0.283353	3.600817	0.278227	-0.055058	0.300965	-0.550796	-0.444831	0.361981	-0.606399
59678	9.429622	0.301492	3.605646	0.255104	-0.062070	0.283867	-0.550829	-0.444480	0.361875	-0.606689
59679	9.460875	0.259703	3.681352	0.302848	-0.105928	0.337436	-0.550917	-0.444092	0.361613	-0.607049
59680	9.387433	0.260632	3.719329	0.303026	-0.158609	0.282274	-0.550862	-0.443849	0.361494	-0.607347
59681	9.310438	0.257336	3.632208	0.286884	-0.100346	0.179861	-0.550743	-0.443549	0.361596	-0.607614
59682	9.326526	0.361392	3.943754	0.220828	-0.397330	0.309627	-0.550499	-0.443262	0.362023	-0.607791
59683	9.415976	0.173486	3.802770	0.373074	-0.213663	0.334574	-0.550245	-0.442978	0.362645	-0.607857
59684	9.349369	-0.042110	3.533354	0.536499	0.036931	0.167686	-0.550172	-0.442792	0.363055	-0.607814
59685	9.431708	0.234585	3.580528	0.264626	-0.017459	0.275027	-0.550127	-0.442674	0.363060	-0.607937
59686	9.454839	0.237475	3.620419	0.263764	-0.043124	0.310868	-0.550003	-0.442485	0.362928	-0.608266
59687	9.401086	0.188443	3.597375	0.304459	-0.028323	0.250291	-0.549992	-0.442219	0.362827	-0.608529
59688	9.357334	0.209641	3.609536	0.281517	-0.052809	0.214793	-0.550062	-0.441973	0.362812	-0.608653
59689	9.413138	0.214215	3.598238	0.272101	-0.018258	0.263323	-0.550092	-0.441777	0.362678	-0.608849
59690	9.347690	0.206287	3.785412	0.305564	-0.207005	0.267739	-0.550119	-0.441558	0.362470	-0.609107
59691	9.389208	0.127471	3.797756	0.382389	-0.186809	0.307357	-0.550169	-0.441345	0.362427	-0.609242
59692	9.389690	0.126008	3.651736	0.360195	-0.047589	0.256340	-0.550159	-0.441258	0.362302	-0.609388
59693	9.357521	0.154173	3.755379	0.347915	-0.154516	0.264263	-0.550108	-0.441261	0.362008	-0.609607
59694	9.392179	0.319517	3.909752	0.207972	-0.305044	0.359087	-0.550099	-0.441271	0.361932	-0.609652
59695	9.407386	0.213426	3.607739	0.267401	-0.005463	0.261473	-0.550100	-0.441222	0.362012	-0.609639
59696	9.458058	0.098099	3.706149	0.395203	-0.060661	0.338183	-0.550130	-0.441170	0.361880	-0.609728
59697	9.397548	0.181399	3.818862	0.331355	-0.195519	0.325483	-0.550106	-0.441254	0.361681	-0.609807
59698	9.440726	0.186957	3.724211	0.314072	-0.092770	0.332497	-0.550031	-0.441420	0.361548	-0.609834
59699	9.445765	0.257472	3.638955	0.233837	-0.021310	0.310337	-0.550087	-0.441424	0.361403	-0.609866
59700	9.378915	0.272428	3.701332	0.230846	-0.102629	0.270680	-0.550160	-0.441446	0.361269	-0.609865
59701	9.390212	0.224266	3.673817	0.276647	-0.063917	0.269113	-0.550204	-0.441480	0.361076	-0.609914
59702	9.401261	0.243944	3.724414	0.267176	-0.107242	0.298276	-0.550235	-0.441536	0.360928	-0.609933
59703	9.398170	0.185726	3.708547	0.324555	-0.082626	0.286880	-0.550326	-0.441507	0.360736	-0.609985
59704	9.400081	0.189261	3.697811	0.321428	-0.068608	0.284992	-0.550380	-0.441502	0.360516	-0.610070
59705	9.384111	0.256423	3.700205	0.257993	-0.082667	0.274205	-0.550419	-0.441558	0.360290	-0.610128
59706	9.400512	0.270566	3.677649	0.243312	-0.054551	0.282151	-0.550502	-0.441559	0.360069	-0.610183
59707	9.449781	0.278865	3.694400	0.239463	-0.048527	0.334481	-0.550635	-0.441456	0.359829	-0.610280
59708	9.403198	0.271407	3.748800	0.256445	-0.108831	0.310044	-0.550790	-0.441324	0.359677	-0.610325
59709	9.366489	0.225190	3.743732	0.302586	-0.105056	0.271694	-0.550999	-0.441162	0.359478	-0.610370
59710	9.391463	0.194164	3.754847	0.336438	-0.095184	0.297401	-0.551198	-0.441022	0.359225	-0.610441
59711	9.385238	0.189217	3.728483	0.339300	-0.066755	0.281890	-0.551289	-0.440986	0.359010	-0.610511
59712	9.323589	0.239291	3.734870	0.293563	-0.097933	0.229227	-0.551407	-0.440986	0.358790	-0.610534
59713	9.295474	0.284440	3.778461	0.258653	-0.151197	0.220944	-0.551556	-0.440971	0.358636	-0.610501
59714	9.371703	0.292857	3.771152	0.251805	-0.113437	0.289782	-0.551723	-0.440901	0.358365	-0.610560
59715	9.306709	0.256049	3.846299	0.303294	-0.198557	0.254238	-0.551739	-0.441075	0.358270	-0.610474
59716	9.298509	0.227929	3.688716	0.310150	-0.055598	0.188391	-0.551755	-0.441222	0.358434	-0.610258
59717	9.377251	0.329711	3.946434	0.249158	-0.285828	0.359436	-0.551633	-0.441389	0.358768	-0.610052
59718	9.451189	0.234444	3.828131	0.323814	-0.148138	0.380826	-0.551486	-0.441608	0.359389	-0.609660
59719	9.426783	0.014420	3.527772	0.496075	0.137537	0.239407	-0.551543	-0.441833	0.359916	-0.609134
59720	9.446576	0.331556	3.627475	0.201165	-0.001259	0.309854	-0.551565	-0.442113	0.359982	-0.608872
59721	9.460540	0.284301	3.593725	0.246973	0.037438	0.308336	-0.551579	-0.442269	0.359982	-0.608746
59722	9.410372	0.208581	3.592618	0.324882	0.030627	0.257021	-0.551696	-0.442306	0.359868	-0.608681
59723	9.406698	0.292510	3.641537	0.252213	-0.026456	0.275326	-0.551885	-0.442293	0.359851	-0.608528
59724	9.422998	0.258039	3.554286	0.275504	0.065899	0.257674	-0.551974	-0.442295	0.359772	-0.608493
59725	9.429218	0.250107	3.707013	0.308254	-0.070492	0.317202	-0.551963	-0.442372	0.359642	-0.608524
59726	9.378906	0.300296	3.667359	0.254149	-0.058860	0.258833	-0.552016	-0.442386	0.359670	-0.608449
59727	9.387652	0.249390	3.653216	0.302747	-0.034431	0.259222	-0.552075	-0.442307	0.359587	-0.608502
59728	9.358470	0.238182	3.725192	0.325096	-0.105772	0.256964	-0.552213	-0.442192	0.359410	-0.608565
59729	9.405032	0.325935	3.788187	0.248856	-0.156600	0.327567	-0.552231	-0.442217	0.359355	-0.608564
59730	9.433327	0.231105	3.625734	0.318756	0.017587	0.291030	-0.552264	-0.442184	0.359322	-0.608577
59731	9.436521	0.188128	3.822419	0.391370	-0.154695	0.361648	-0.552350	-0.442134	0.359218	-0.608597
59732	9.429218	0.281264	3.706198	0.282862	-0.061349	0.318522	-0.552376	-0.442151	0.359149	-0.608602
59733	9.409859	0.346227	3.721818	0.222175	-0.089595	0.309558	-0.552390	-0.442141	0.358950	-0.608712
59734	9.400135	0.326023	3.752128	0.247563	-0.114824	0.310198	-0.552484	-0.442058	0.358852	-0.608746
59735	9.370097	0.307260	3.778314	0.270324	-0.143230	0.290539	-0.552592	-0.441932	0.358711	-0.608822
59736	9.381263	0.297421	3.769271	0.278596	-0.125853	0.297234	-0.552677	-0.441830	0.358664	-0.608847
59737	9.368847	0.286245	3.633274	0.268184	-0.000637	0.236491	-0.552716	-0.441701	0.358620	-0.608931
59738	9.363969	0.278523	3.740741	0.289896	-0.097466	0.270026	-0.552708	-0.441555	0.358590	-0.609061
59739	9.409361	0.266336	3.678432	0.289603	-0.019829	0.289471	-0.552712	-0.441405	0.358664	-0.609124
59740	9.413580	0.293036	3.715214	0.265832	-0.052230	0.308121	-0.552787	-0.441165	0.358540	-0.609303
59741	9.426800	0.275940	3.784724	0.290570	-0.102923	0.344567	-0.552919	-0.440893	0.358458	-0.609427
59742	9.410968	0.277599	3.758142	0.282047	-0.077824	0.320496	-0.553031	-0.440595	0.358341	-0.609610
59743	9.406963	0.214452	3.746163	0.339434	-0.053248	0.309201	-0.553088	-0.440351	0.358275	-0.609773
59744	9.399166	0.224954	3.735433	0.324926	-0.042576	0.298741	-0.553130	-0.440183	0.358149	-0.609930
59745	9.408155	0.274282	3.759862	0.278192	-0.064232	0.318633	-0.553158	-0.440052	0.358049	-0.610058
59746	9.349860	0.280150	3.735239	0.267233	-0.059755	0.255847	-0.553185	-0.439910	0.357957	-0.610190
59747	9.347012	0.225681	3.767201	0.324162	-0.078112	0.261944	-0.553178	-0.439768	0.357799	-0.610391
59748	9.381356	0.293962	3.783119	0.257091	-0.085831	0.303378	-0.553129	-0.439675	0.357714	-0.610553
59749	9.413917	0.348923	3.844788	0.209719	-0.132972	0.359053	-0.553133	-0.439458	0.357462	-0.610853
59750	9.309839	0.247925	3.744835	0.292154	-0.060150	0.220726	-0.553031	-0.439375	0.357420	-0.611029
59751	9.301895	0.350099	3.732244	0.185537	-0.066830	0.214206	-0.552861	-0.439339	0.357658	-0.611070
59752	9.413079	0.331492	3.935928	0.227824	-0.215966	0.390691	-0.552693	-0.439212	0.358162	-0.611019
59753	9.369260	0.087479	3.623699	0.415292	0.084243	0.224359	-0.552668	-0.439024	0.358561	-0.610942
59754	9.389816	0.171010	3.707822	0.341907	0.001720	0.278345	-0.552780	-0.438915	0.358560	-0.610920
59755	9.444537	0.392487	3.748636	0.127571	-0.044972	0.355267	-0.552776	-0.438811	0.358556	-0.611001
59756	9.470916	0.233586	3.571655	0.255400	0.153964	0.307618	-0.552761	-0.438577	0.358392	-0.611278
59757	9.416529	0.235457	3.749106	0.276884	-0.020719	0.321668	-0.552907	-0.438210	0.358126	-0.611565
59758	9.369944	0.276626	3.643873	0.217795	0.062463	0.242105	-0.553048	-0.437894	0.357976	-0.611752
59759	9.379347	0.264383	3.639963	0.226048	0.079865	0.248818	-0.553133	-0.437561	0.357755	-0.612042
59760	9.335184	0.242328	3.850260	0.275845	-0.116654	0.283806	-0.553230	-0.437203	0.357495	-0.612362
59761	9.318668	0.217299	3.901589	0.303948	-0.156146	0.286344	-0.553332	-0.436787	0.357317	-0.612671
59762	9.353113	0.142105	3.856609	0.367040	-0.082298	0.298339	-0.553405	-0.436477	0.357130	-0.612935
59763	9.394769	0.271949	3.866718	0.236605	-0.086231	0.347221	-0.553487	-0.436196	0.356949	-0.613166
59764	9.409018	0.274437	3.937273	0.241085	-0.140457	0.386783	-0.553515	-0.435971	0.356981	-0.613282
59765	9.341979	0.167865	3.860024	0.331569	-0.075524	0.291019	-0.553542	-0.435723	0.356928	-0.613465
59766	9.388944	0.198244	3.939708	0.309685	-0.130244	0.365721	-0.553597	-0.435506	0.356842	-0.613619
59767	9.451433	0.277816	3.890651	0.219932	-0.066771	0.409401	-0.553682	-0.435195	0.356712	-0.613838
59768	9.418933	0.289226	3.892166	0.205621	-0.073526	0.380507	-0.553887	-0.434802	0.356564	-0.614018
59769	9.303930	0.255257	3.902925	0.238202	-0.111183	0.276513	-0.554169	-0.434302	0.356374	-0.614228
59770	9.255972	0.264813	3.962829	0.234918	-0.174968	0.255150	-0.554394	-0.433940	0.356207	-0.614377
59771	9.270892	0.226867	3.883488	0.258319	-0.082605	0.237627	-0.554593	-0.433606	0.356046	-0.614528
59772	9.323899	0.212158	3.875401	0.268945	-0.044576	0.283080	-0.554755	-0.433295	0.355857	-0.614711
59773	9.238671	0.173505	3.936035	0.315016	-0.118674	0.225350	-0.554895	-0.433022	0.355655	-0.614892
59774	9.325286	0.220431	3.906690	0.262170	-0.059431	0.296690	-0.554977	-0.432883	0.355559	-0.614972
59775	9.341680	0.231606	3.886130	0.247514	-0.031284	0.304643	-0.555040	-0.432762	0.355368	-0.615111
59776	9.330058	0.251014	3.935254	0.235264	-0.077793	0.313408	-0.555097	-0.432616	0.355176	-0.615273
59777	9.330017	0.264262	3.895957	0.215242	-0.038569	0.299172	-0.555190	-0.432427	0.355094	-0.615369
59778	9.339617	0.258005	3.812529	0.207170	0.046935	0.276181	-0.555335	-0.432177	0.355062	-0.615432
59779	9.281710	0.233121	3.939394	0.249201	-0.081323	0.269703	-0.555542	-0.431889	0.354905	-0.615539
59780	9.249846	0.173230	3.950933	0.309565	-0.088520	0.241957	-0.555797	-0.431617	0.354792	-0.615565
59781	9.268141	0.198142	3.886899	0.275213	-0.020907	0.235671	-0.556041	-0.431416	0.354744	-0.615512
59782	9.342522	0.223584	3.897394	0.250820	-0.000975	0.309540	-0.556294	-0.431191	0.354720	-0.615456
59783	9.311238	0.273100	3.990218	0.215282	-0.097107	0.318442	-0.556645	-0.430810	0.354509	-0.615526
59784	9.207152	0.185187	4.058879	0.313231	-0.178310	0.244674	-0.556955	-0.430524	0.354307	-0.615562
59785	9.175177	0.232634	4.030092	0.261878	-0.163363	0.206512	-0.557267	-0.430174	0.354282	-0.615539
59786	9.292426	0.444027	4.075895	0.052395	-0.186095	0.342207	-0.557551	-0.429650	0.354922	-0.615278
59787	9.355832	0.391671	3.985030	0.078268	-0.073140	0.363460	-0.557931	-0.428850	0.355836	-0.614964
59788	9.261897	0.105486	3.581466	0.293949	0.295936	0.109347	-0.558662	-0.427983	0.356753	-0.614374
59789	9.311046	0.159694	3.699989	0.248463	0.209029	0.202578	-0.559469	-0.426983	0.356649	-0.614396
59790	9.204672	0.134155	4.083040	0.319657	-0.162064	0.251444	-0.559885	-0.426187	0.356626	-0.614582
59791	9.332766	0.103861	3.865363	0.309070	0.110782	0.284068	-0.560799	-0.424728	0.356499	-0.614833
59792	9.292218	0.305630	3.804186	0.091483	0.151940	0.231169	-0.561991	-0.423285	0.356473	-0.614754
59793	9.236248	0.238495	3.537766	0.118331	0.406718	0.071718	-0.563222	-0.421937	0.356318	-0.614644
59794	9.201444	0.179310	3.789657	0.207442	0.191592	0.136205	-0.564029	-0.421227	0.356146	-0.614491
59795	9.227750	0.060399	4.186941	0.374547	-0.129162	0.312949	-0.564602	-0.420585	0.355827	-0.614589
59796	9.131491	0.204662	4.266314	0.236385	-0.237797	0.262777	-0.565232	-0.419460	0.355696	-0.614855
59797	8.839457	0.249447	4.390428	0.197810	-0.454197	0.047770	-0.565874	-0.418262	0.355908	-0.614957
59798	9.280152	0.268996	4.024534	0.116317	0.060185	0.305281	-0.566376	-0.417496	0.356893	-0.614445
59799	9.664899	0.137699	3.803470	0.209067	0.427739	0.563677	-0.566837	-0.417146	0.357442	-0.613938
59800	9.276685	-0.508389	4.430698	0.927621	-0.217990	0.436137	-0.567064	-0.416779	0.356579	-0.614480
59801	9.045476	-0.154834	4.681420	0.610437	-0.562687	0.339703	-0.566617	-0.416934	0.355873	-0.615195
59802	8.936931	0.614098	4.133178	-0.221643	-0.189772	0.048543	-0.566546	-0.416448	0.356128	-0.615442
59803	9.241796	0.644445	3.800991	-0.304796	0.234281	0.193603	-0.566997	-0.415789	0.356780	-0.615095
59804	9.478715	0.416192	4.060416	-0.058116	0.127168	0.506551	-0.567390	-0.415143	0.356751	-0.615186
59805	9.036397	-0.416795	4.518472	0.815756	-0.353993	0.259844	-0.567550	-0.413792	0.356113	-0.616317
59806	8.702696	0.173396	4.496513	0.212821	-0.508402	-0.030982	-0.567541	-0.412570	0.355930	-0.617249
59807	8.894124	0.481103	4.032379	-0.169133	-0.026327	-0.036817	-0.568216	-0.411124	0.356646	-0.617180
59808	9.345177	0.336579	4.250976	-0.022351	-0.008292	0.459402	-0.569268	-0.410012	0.357001	-0.616745
59809	9.349139	0.152574	4.638499	0.193761	-0.322049	0.618231	-0.569773	-0.409049	0.357011	-0.616913
59810	9.120264	-0.580491	4.094776	0.847841	0.165055	0.164146	-0.569321	-0.407858	0.357360	-0.617915
59811	8.776975	-0.191231	4.629945	0.490818	-0.485274	0.088409	-0.568682	-0.406323	0.357583	-0.619385
59812	8.977209	0.374117	4.559742	-0.117889	-0.385088	0.255044	-0.568600	-0.404995	0.358566	-0.619761
59813	9.081556	0.530501	4.466064	-0.310881	-0.264346	0.313282	-0.569332	-0.403656	0.359229	-0.619578
59814	9.335917	0.315370	4.396529	-0.126270	-0.052751	0.510562	-0.570231	-0.402175	0.359163	-0.619753
59815	9.140461	-0.475910	4.407726	0.649503	-0.033409	0.325331	-0.570641	-0.400375	0.358629	-0.620850
59816	8.953853	-0.342431	4.942411	0.549557	-0.570821	0.389673	-0.570622	-0.398753	0.358232	-0.622138
59817	8.804660	0.072393	4.751603	0.099271	-0.489565	0.180082	-0.570337	-0.398069	0.358989	-0.622402
59818	9.344272	0.503028	4.617802	-0.377390	-0.178582	0.614116	-0.570834	-0.397150	0.359585	-0.622189
59819	9.267735	0.403939	4.503246	-0.294689	-0.088328	0.494525	-0.571414	-0.396509	0.359404	-0.622170
59820	9.054920	-0.292934	4.524300	0.403302	-0.114531	0.305162	-0.571604	-0.395774	0.358995	-0.622699
59821	8.927702	-0.543813	4.913547	0.675353	-0.476504	0.358807	-0.571384	-0.394499	0.359259	-0.623558
59822	9.019427	-0.427070	4.544218	0.494855	-0.115247	0.283061	-0.570651	-0.393994	0.360402	-0.623888
59823	9.269562	-0.127178	4.353330	0.145985	0.122150	0.427243	-0.570070	-0.393752	0.361394	-0.623998
59824	9.272871	0.039826	4.705279	-0.005967	-0.217628	0.583464	-0.569745	-0.393484	0.361925	-0.624156
59825	9.291520	-0.208276	4.647206	0.224126	-0.144623	0.574857	-0.569218	-0.393734	0.362642	-0.624063
59826	9.340704	-0.389021	4.383780	0.370341	0.114888	0.505609	-0.568693	-0.393925	0.363244	-0.624071
59827	9.344076	-0.369551	4.458768	0.345828	0.039475	0.541431	-0.568215	-0.393642	0.363556	-0.624503
59828	9.505317	-0.368268	4.511308	0.325431	0.057458	0.710113	-0.567279	-0.393570	0.363957	-0.625167
59829	9.587022	-0.437367	4.507972	0.372856	0.091014	0.783384	-0.566097	-0.393904	0.364494	-0.625714
59830	9.504170	-0.380880	4.426283	0.299758	0.107526	0.673725	-0.564995	-0.394353	0.364903	-0.626189
59831	8.976473	-0.288989	4.417314	0.225545	-0.135385	0.192512	-0.563965	-0.394995	0.365348	-0.626453
59832	8.726902	-0.225823	4.311362	0.157814	-0.169100	-0.079027	-0.562994	-0.395369	0.365842	-0.626802
59833	8.818370	0.065340	4.461440	-0.136225	-0.312285	0.064369	-0.562137	-0.395417	0.366703	-0.627038
59834	9.230471	0.056191	4.238651	-0.187781	0.044938	0.342782	-0.561727	-0.395251	0.367955	-0.626777
59835	9.496029	-0.089151	4.169641	-0.078611	0.213989	0.556325	-0.561580	-0.395224	0.369150	-0.626222
59836	9.555109	-0.181363	4.083146	-0.006805	0.305269	0.575374	-0.561494	-0.395314	0.370297	-0.625565
59837	9.459279	-0.367357	3.985634	0.167769	0.352413	0.451123	-0.561330	-0.395382	0.371319	-0.625063
59838	9.357469	-0.555586	3.904546	0.345098	0.385284	0.328753	-0.561198	-0.395284	0.372317	-0.624650
59839	9.197366	-0.566619	4.116933	0.372575	0.112287	0.272465	-0.561039	-0.395123	0.373340	-0.624284
59840	9.221227	-0.498740	4.346458	0.311176	-0.110134	0.388414	-0.560750	-0.395129	0.374416	-0.623895
59841	9.343196	-0.449104	4.308923	0.240639	-0.051356	0.483100	-0.560391	-0.395252	0.375477	-0.623503
59842	9.445096	-0.462900	4.303615	0.238887	-0.024960	0.574203	-0.560087	-0.395454	0.376469	-0.623049
59843	9.353177	-0.434869	4.273718	0.208413	-0.058696	0.477540	-0.559867	-0.395743	0.377337	-0.622537
59844	9.307823	-0.489166	4.144108	0.253452	0.027805	0.384540	-0.559756	-0.396102	0.377923	-0.622054
59845	9.345396	-0.443384	4.160715	0.209185	0.009284	0.424534	-0.559801	-0.396406	0.378316	-0.621580
59846	9.390480	-0.450314	4.116452	0.214545	0.058263	0.447899	-0.560092	-0.396584	0.378627	-0.621016
59847	9.369522	-0.471262	4.024284	0.235855	0.129997	0.391839	-0.560629	-0.396592	0.378830	-0.620402
59848	9.255875	-0.482704	4.109490	0.267475	0.006480	0.322427	-0.561234	-0.396516	0.378880	-0.619872
59849	9.100572	-0.497543	4.107424	0.298011	-0.051633	0.179681	-0.561776	-0.396464	0.378876	-0.619417
59850	8.992641	-0.600327	4.157167	0.416298	-0.129413	0.102956	-0.562155	-0.396439	0.378785	-0.619144
59851	8.999842	-0.645736	4.140837	0.464990	-0.105170	0.103632	-0.562334	-0.396478	0.378590	-0.619076
59852	9.119778	-0.586303	4.324989	0.417390	-0.225969	0.286538	-0.562403	-0.396524	0.378231	-0.619203
59853	9.211328	-0.382622	4.190804	0.205035	-0.083112	0.311978	-0.562256	-0.396909	0.377956	-0.619258
59854	9.263609	-0.431758	4.014419	0.243847	0.101570	0.289126	-0.562123	-0.397249	0.377720	-0.619305
59855	9.450627	-0.263253	4.256348	0.088105	-0.059193	0.554997	-0.562115	-0.397293	0.377602	-0.619356
59856	9.429778	-0.267536	4.326323	0.101431	-0.130824	0.564304	-0.562064	-0.397494	0.377474	-0.619351
59857	9.291981	-0.321353	4.202110	0.159349	-0.067647	0.388878	-0.562127	-0.397822	0.377061	-0.619335
59858	9.296199	-0.186300	4.141263	0.030494	-0.020348	0.365855	-0.562262	-0.398171	0.376551	-0.619299
59859	9.346972	-0.137975	4.134670	-0.010632	0.007250	0.408870	-0.562483	-0.398268	0.376010	-0.619365
59860	9.329637	-0.309339	4.091307	0.165335	0.066735	0.377740	-0.562847	-0.398126	0.375354	-0.619522
59861	9.235029	-0.354456	4.195676	0.231031	-0.046867	0.334208	-0.563288	-0.397939	0.374591	-0.619703
59862	9.160900	-0.430824	4.210652	0.320731	-0.067910	0.273431	-0.563648	-0.397887	0.373831	-0.619868
59863	9.014556	-0.389955	4.275036	0.301444	-0.176064	0.165706	-0.563913	-0.397888	0.373083	-0.620078
59864	8.993101	-0.317521	4.301764	0.240735	-0.204137	0.156376	-0.564138	-0.397901	0.372471	-0.620233
59865	9.045467	-0.295450	4.236924	0.217721	-0.115817	0.177231	-0.564346	-0.397867	0.371938	-0.620384
59866	9.146527	-0.306264	4.213634	0.227936	-0.043190	0.259732	-0.564541	-0.397878	0.371455	-0.620490
59867	9.252193	-0.196968	4.386564	0.134560	-0.159828	0.426461	-0.564733	-0.397896	0.371098	-0.620517
59868	9.217614	-0.202598	4.347994	0.143923	-0.134347	0.379061	-0.564818	-0.398023	0.370854	-0.620505
59869	9.257473	-0.233018	4.267356	0.170144	-0.038933	0.382162	-0.564932	-0.398053	0.370613	-0.620525
59870	9.335206	-0.200794	4.312590	0.142232	-0.047901	0.471392	-0.565033	-0.398113	0.370422	-0.620508
59871	9.320510	-0.196779	4.249843	0.137312	0.005958	0.431965	-0.565187	-0.398096	0.370194	-0.620515
59872	9.265901	-0.241177	4.186781	0.181840	0.049515	0.356320	-0.565374	-0.398025	0.369985	-0.620516
59873	9.185284	-0.254947	4.227186	0.205061	-0.013757	0.299745	-0.565574	-0.397903	0.369785	-0.620531
59874	9.119963	-0.233915	4.306800	0.195853	-0.109374	0.273275	-0.565755	-0.397797	0.369582	-0.620555
59875	9.118002	-0.231163	4.311097	0.195529	-0.109645	0.273278	-0.565901	-0.397719	0.369428	-0.620563
59876	9.142449	-0.249007	4.290133	0.212471	-0.074787	0.286861	-0.566049	-0.397657	0.369255	-0.620571
59877	9.151894	-0.222195	4.268261	0.186503	-0.049975	0.286189	-0.566195	-0.397673	0.369062	-0.620542
59878	9.139915	-0.226438	4.266483	0.195014	-0.050073	0.274515	-0.566323	-0.397727	0.368870	-0.620505
59879	9.211037	-0.240730	4.274031	0.210873	-0.023420	0.342285	-0.566421	-0.397787	0.368661	-0.620501
59880	9.288739	-0.233430	4.270265	0.203808	0.014042	0.411235	-0.566482	-0.397867	0.368459	-0.620514
59881	9.281414	-0.197006	4.273177	0.171929	0.007014	0.405624	-0.566518	-0.397977	0.368245	-0.620538
59882	9.239088	-0.167798	4.279949	0.149101	-0.017231	0.369863	-0.566581	-0.398057	0.368027	-0.620558
59883	9.227088	-0.133078	4.297295	0.119939	-0.038523	0.366101	-0.566689	-0.398069	0.367855	-0.620554
59884	9.182293	-0.150549	4.253356	0.138186	-0.012853	0.307043	-0.566804	-0.398061	0.367700	-0.620546
59885	9.165824	-0.157223	4.265713	0.149431	-0.027231	0.297223	-0.566913	-0.398075	0.367511	-0.620550
59886	9.182286	-0.122893	4.260861	0.117342	-0.016854	0.310077	-0.566984	-0.398139	0.367355	-0.620536
59887	9.217932	-0.123563	4.429274	0.134067	-0.150861	0.412931	-0.567118	-0.398086	0.367124	-0.620585
59888	9.240751	-0.060860	4.198627	0.053644	0.064279	0.337024	-0.567166	-0.398168	0.366975	-0.620576
59889	9.114515	-0.162426	4.133464	0.156750	0.080329	0.195073	-0.567198	-0.398253	0.366960	-0.620501
59890	9.229920	-0.116590	4.497449	0.137628	-0.205836	0.452338	-0.567307	-0.398076	0.367175	-0.620387
59891	9.145390	-0.194074	4.416532	0.208755	-0.161750	0.341712	-0.567332	-0.398020	0.367324	-0.620312
59892	9.054659	-0.272075	4.209523	0.273337	-0.006239	0.172612	-0.567342	-0.398190	0.367211	-0.620261
59893	9.191757	-0.194488	4.260386	0.198419	-0.001828	0.318341	-0.567357	-0.398267	0.367021	-0.620311
59894	9.310702	-0.213786	4.252697	0.213835	0.059567	0.423085	-0.567349	-0.398220	0.366836	-0.620458
59895	9.334947	-0.190012	4.144373	0.180429	0.170204	0.399641	-0.567370	-0.398156	0.366564	-0.620640
59896	9.292994	-0.171294	4.216149	0.170983	0.091991	0.391590	-0.567395	-0.398108	0.366257	-0.620829
59897	9.187706	-0.145237	4.283717	0.156736	-0.009828	0.324403	-0.567384	-0.398095	0.365956	-0.621025
59898	9.157393	-0.182176	4.290978	0.197029	-0.020580	0.299893	-0.567366	-0.398105	0.365686	-0.621194
59899	9.181389	-0.149769	4.367687	0.172177	-0.078643	0.353983	-0.567396	-0.398077	0.365478	-0.621307
59900	9.170909	-0.161840	4.321701	0.181405	-0.035744	0.325097	-0.567443	-0.397982	0.365271	-0.621446
59901	9.153582	-0.210136	4.317155	0.230346	-0.028950	0.307399	-0.567420	-0.397939	0.364998	-0.621656
59902	9.202852	-0.174380	4.419404	0.201856	-0.098359	0.395330	-0.567362	-0.397838	0.364753	-0.621916
59903	9.185999	-0.234960	4.336740	0.254921	-0.019840	0.345054	-0.567223	-0.397852	0.364484	-0.622193
59904	9.212396	-0.234470	4.319530	0.251680	0.011540	0.361696	-0.567119	-0.397817	0.364210	-0.622470
59905	9.216555	-0.158170	4.302541	0.173971	0.026192	0.358390	-0.567055	-0.397778	0.363945	-0.622708
59906	9.207693	-0.164813	4.289680	0.179794	0.040360	0.344879	-0.567035	-0.397687	0.363672	-0.622944
59907	9.170209	-0.157308	4.269539	0.171768	0.048148	0.302382	-0.567061	-0.397552	0.363432	-0.623147
59908	9.115195	-0.208797	4.314863	0.229052	-0.005268	0.271752	-0.567093	-0.397441	0.363268	-0.623283
59909	9.137776	-0.249350	4.291990	0.266217	0.033008	0.282378	-0.567112	-0.397379	0.363129	-0.623387
59910	9.167097	-0.228408	4.275795	0.242776	0.060936	0.302035	-0.567081	-0.397359	0.362991	-0.623508
59911	9.203298	-0.200279	4.276671	0.213197	0.074408	0.335206	-0.566977	-0.397388	0.362909	-0.623632
59912	9.272771	-0.239503	4.281428	0.249229	0.104422	0.400013	-0.566832	-0.397438	0.362808	-0.623790
59913	9.282847	-0.162991	4.247620	0.168822	0.133356	0.394849	-0.566673	-0.397448	0.362596	-0.624052
59914	9.219741	-0.096404	4.268030	0.105817	0.084887	0.346574	-0.566473	-0.397428	0.362384	-0.624369
59915	9.244990	-0.047101	4.348029	0.060715	0.023362	0.403632	-0.566328	-0.397285	0.362164	-0.624720
59916	9.219185	-0.001789	4.413465	0.019468	-0.044185	0.408355	-0.566314	-0.397004	0.361959	-0.625030
59917	9.226602	-0.021300	4.377862	0.031240	0.001811	0.399821	-0.566398	-0.396634	0.361759	-0.625304
59918	9.134005	-0.096900	4.459915	0.114362	-0.094101	0.351384	-0.566485	-0.396270	0.361571	-0.625564
59919	9.052406	-0.114946	4.394877	0.125009	-0.060317	0.249864	-0.566530	-0.395885	0.361493	-0.625813
59920	9.056585	-0.173511	4.491956	0.186336	-0.133187	0.295579	-0.566480	-0.395570	0.361488	-0.626060
59921	9.020321	-0.194876	4.561644	0.208402	-0.204683	0.293125	-0.566379	-0.395213	0.361608	-0.626307
59922	9.040589	-0.224673	4.554554	0.228096	-0.184162	0.308614	-0.566258	-0.394931	0.361801	-0.626483
59923	9.035543	-0.183256	4.762246	0.198465	-0.374378	0.393882	-0.566161	-0.394577	0.361888	-0.626744
59924	9.009348	-0.163397	4.477673	0.145862	-0.132946	0.247414	-0.565874	-0.394555	0.362191	-0.626842
59925	8.895992	-0.189780	4.553316	0.177449	-0.256389	0.177815	-0.565362	-0.394758	0.362819	-0.626813
59926	9.083255	-0.090728	4.749219	0.076053	-0.378498	0.430346	-0.564850	-0.394695	0.363847	-0.626718
59927	9.065879	-0.162268	4.612876	0.121303	-0.274511	0.356138	-0.564326	-0.394819	0.364858	-0.626525
59928	9.082866	-0.174845	4.427902	0.106483	-0.120463	0.292235	-0.563807	-0.395209	0.365726	-0.626239
59929	9.130554	-0.123874	4.489507	0.052473	-0.182166	0.360908	-0.563403	-0.395516	0.366593	-0.625902
59930	9.186076	-0.241389	4.371343	0.148120	-0.058943	0.362058	-0.563135	-0.395599	0.367511	-0.625553
59931	9.172425	-0.290837	4.439056	0.195578	-0.138192	0.378770	-0.562988	-0.395629	0.368490	-0.625090
59932	9.247459	-0.317582	4.335566	0.201528	-0.028898	0.403575	-0.562859	-0.395735	0.369456	-0.624569
59933	9.306864	-0.327991	4.290216	0.198099	0.019826	0.438731	-0.562669	-0.395844	0.370329	-0.624154
59934	9.289640	-0.319971	4.253724	0.181259	0.027474	0.407896	-0.562377	-0.396026	0.371146	-0.623816
59935	9.221748	-0.357449	4.289657	0.218564	-0.046776	0.361770	-0.562069	-0.396198	0.371964	-0.623497
59936	9.229894	-0.410127	4.209373	0.256733	0.017110	0.336782	-0.561743	-0.396379	0.372786	-0.623184
59937	9.214045	-0.420586	4.157124	0.257409	0.042474	0.301121	-0.561433	-0.396586	0.373471	-0.622922
59938	9.208525	-0.312621	4.243632	0.152037	-0.064098	0.330085	-0.561167	-0.396748	0.374154	-0.622648
59939	9.228598	-0.373567	4.152274	0.198859	0.017334	0.311940	-0.560886	-0.396985	0.374876	-0.622316
59940	9.275751	-0.433437	4.192274	0.254503	-0.009659	0.372483	-0.560685	-0.397149	0.375548	-0.621988
59941	9.295152	-0.408808	4.185732	0.225103	-0.013548	0.387139	-0.560523	-0.397410	0.376201	-0.621572
59942	9.263207	-0.409114	4.115205	0.220596	0.023015	0.329309	-0.560465	-0.397668	0.376736	-0.621135
59943	9.268996	-0.452897	4.038496	0.258795	0.086892	0.304344	-0.560463	-0.397928	0.377145	-0.620722
59944	9.273323	-0.451016	4.028761	0.258486	0.086611	0.304354	-0.560461	-0.398217	0.377447	-0.620355
59945	9.271673	-0.361140	4.165037	0.183881	-0.056288	0.356132	-0.560447	-0.398555	0.377640	-0.620033
59946	9.321949	-0.453583	4.130827	0.275323	-0.004870	0.389880	-0.560423	-0.398919	0.377775	-0.619739
59947	9.348666	-0.421035	4.056314	0.241345	0.062816	0.383700	-0.560396	-0.399314	0.377823	-0.619480
59948	9.338264	-0.375215	4.003652	0.198919	0.095608	0.352178	-0.560394	-0.399720	0.377798	-0.619234
59949	9.333280	-0.262758	4.006227	0.095068	0.075092	0.346758	-0.560381	-0.400133	0.377687	-0.619047
59950	9.314412	-0.208406	3.908190	0.042082	0.147652	0.289395	-0.560372	-0.400546	0.377513	-0.618894
59951	9.304926	-0.277071	3.940608	0.121834	0.118077	0.294637	-0.560412	-0.400900	0.377287	-0.618767
59952	9.348657	-0.336324	4.021005	0.194171	0.065737	0.367536	-0.560453	-0.401313	0.377022	-0.618624
59953	9.367905	-0.280157	4.135481	0.157062	-0.038670	0.429976	-0.560543	-0.401739	0.376749	-0.618432
59954	9.342542	-0.273789	4.109611	0.160458	-0.027574	0.396154	-0.560675	-0.402119	0.376491	-0.618222
59955	9.344412	-0.321724	4.072901	0.215390	0.010991	0.383564	-0.560915	-0.402386	0.376197	-0.618010
59956	9.243393	-0.208266	4.023156	0.113998	0.007120	0.269793	-0.561214	-0.402655	0.375831	-0.617786
59957	9.190069	-0.203940	4.131908	0.132765	-0.110488	0.264106	-0.561500	-0.402885	0.375383	-0.617648
59958	9.169112	-0.265970	4.399547	0.228753	-0.351778	0.352119	-0.561758	-0.403034	0.374880	-0.617622
59959	9.259771	-0.201231	4.142384	0.148248	-0.084312	0.331971	-0.561841	-0.403412	0.374563	-0.617492
59960	9.208760	-0.300032	4.038163	0.248348	-0.001834	0.243970	-0.561910	-0.403715	0.374470	-0.617287
59961	9.339911	-0.170207	4.256358	0.135724	-0.162075	0.450587	-0.562190	-0.403504	0.374565	-0.617113
59962	9.278945	-0.200377	4.223586	0.165740	-0.150437	0.381799	-0.562481	-0.403297	0.374547	-0.616994
59963	9.129174	-0.136974	4.128093	0.103370	-0.124818	0.206069	-0.562740	-0.403260	0.374360	-0.616895
59964	9.225425	0.014260	4.129064	-0.047976	-0.097179	0.294047	-0.562989	-0.403113	0.374222	-0.616847
59965	9.371498	-0.036395	4.004835	-0.013755	0.085106	0.378366	-0.563309	-0.402761	0.374183	-0.616809
59966	9.347049	-0.138254	3.920305	0.079981	0.170482	0.322388	-0.563708	-0.402272	0.374088	-0.616822
59967	9.358524	-0.181954	3.929938	0.122587	0.180113	0.336796	-0.564095	-0.401860	0.373951	-0.616819
59968	9.212627	-0.161822	4.066688	0.119306	0.003954	0.258181	-0.564385	-0.401529	0.373806	-0.616858
59969	9.095050	-0.182675	4.160173	0.150855	-0.119446	0.188479	-0.564592	-0.401187	0.373788	-0.616902
59970	9.067804	-0.233125	4.228915	0.204433	-0.184314	0.191680	-0.564756	-0.400888	0.373948	-0.616848
59971	9.225863	-0.249729	4.200463	0.207982	-0.091733	0.324922	-0.564901	-0.400603	0.374169	-0.616767
59972	9.337774	-0.267972	4.142523	0.212776	0.009180	0.404014	-0.564995	-0.400357	0.374292	-0.616767
59973	9.361063	-0.207679	4.205147	0.153482	-0.041343	0.450383	-0.565055	-0.400157	0.374304	-0.616834
59974	9.232964	-0.170842	4.251967	0.122713	-0.135013	0.352092	-0.565115	-0.399903	0.374281	-0.616957
59975	9.236866	-0.230253	4.206612	0.174979	-0.082173	0.337727	-0.565162	-0.399684	0.374221	-0.617093
59976	9.360874	-0.256794	4.138647	0.188434	0.036244	0.423693	-0.565147	-0.399556	0.374139	-0.617238
59977	9.435406	-0.260645	4.103184	0.184812	0.102257	0.477421	-0.565102	-0.399497	0.374022	-0.617389
59978	9.321014	-0.246050	4.165946	0.179438	0.000780	0.398324	-0.565047	-0.399462	0.373859	-0.617561
59979	9.134494	-0.172080	4.243628	0.120263	-0.148518	0.259078	-0.564988	-0.399480	0.373624	-0.617746
59980	9.217320	-0.156103	4.150730	0.094560	-0.028576	0.296820	-0.564842	-0.399579	0.373350	-0.617980
59981	9.442697	-0.212860	4.093656	0.137866	0.122837	0.479725	-0.564690	-0.399662	0.373092	-0.618222
59982	9.464238	-0.301090	4.123909	0.228725	0.113758	0.512226	-0.564490	-0.399874	0.372879	-0.618395
59983	9.338967	-0.272699	4.194189	0.214711	-0.005242	0.426246	-0.564241	-0.400241	0.372720	-0.618482
59984	9.181067	-0.201248	4.210963	0.156168	-0.094154	0.288375	-0.563932	-0.400668	0.372450	-0.618649
59985	9.198216	-0.200248	4.227239	0.161019	-0.105681	0.310540	-0.563504	-0.401230	0.372164	-0.618848
59986	9.250113	-0.271306	4.200784	0.232288	-0.057819	0.347406	-0.563064	-0.401739	0.371867	-0.619096
59987	9.351662	-0.258039	4.120210	0.211748	0.050866	0.407335	-0.562587	-0.402270	0.371642	-0.619321
59988	9.373428	-0.242749	4.091185	0.197244	0.078952	0.415349	-0.562135	-0.402837	0.371428	-0.619490
59989	9.349788	-0.203361	4.080618	0.162989	0.068929	0.389274	-0.561686	-0.403417	0.371219	-0.619645
59990	9.291739	-0.225061	4.084159	0.192266	0.037539	0.337635	-0.561166	-0.404052	0.371043	-0.619808
59991	9.318622	-0.276650	4.080343	0.246213	0.050364	0.360773	-0.560649	-0.404613	0.370824	-0.620041
59992	9.302693	-0.218805	4.166156	0.201377	-0.045903	0.380554	-0.560073	-0.405211	0.370555	-0.620332
59993	9.344590	-0.166534	4.161026	0.151581	-0.035865	0.416632	-0.559532	-0.405841	0.370273	-0.620576
59994	9.366987	-0.082138	4.353481	0.089704	-0.215520	0.514243	-0.559132	-0.406234	0.370014	-0.620834
59995	9.297192	-0.062099	4.078449	0.049656	-0.005146	0.339794	-0.558500	-0.407096	0.370165	-0.620748
59996	9.294590	-0.100394	3.962136	0.080219	0.084230	0.290997	-0.557891	-0.407936	0.370612	-0.620478
59997	9.359643	-0.117925	4.311947	0.129564	-0.226933	0.489807	-0.557404	-0.408312	0.371232	-0.620297
59998	9.242500	-0.300988	4.338785	0.317502	-0.294461	0.392797	-0.556845	-0.408916	0.371605	-0.620179
59999	9.233046	-0.246908	4.256309	0.261182	-0.250523	0.350738	-0.556134	-0.410171	0.371897	-0.619812
60000	9.475634	-0.047525	4.238234	0.058570	-0.186242	0.565866	-0.555527	-0.411114	0.372212	-0.619542
60001	9.504377	-0.149203	3.893355	0.127492	0.128032	0.457705	-0.554772	-0.412143	0.372656	-0.619268
60002	9.417220	-0.202343	3.996789	0.198407	-0.014262	0.417645	-0.554251	-0.412758	0.372872	-0.619196
60003	9.259444	-0.228549	4.133918	0.249746	-0.211943	0.324941	-0.553740	-0.413489	0.372993	-0.619092
60004	9.215422	-0.126430	4.036278	0.145465	-0.166595	0.246268	-0.553074	-0.414392	0.373034	-0.619059
60005	9.314614	-0.105272	4.048487	0.125957	-0.158320	0.342233	-0.552453	-0.415116	0.373197	-0.619030
60006	9.358668	-0.275246	4.045834	0.297501	-0.136553	0.381527	-0.551834	-0.416081	0.373395	-0.618814
60007	9.336571	-0.180019	4.024757	0.211484	-0.156539	0.352614	-0.551247	-0.417233	0.373371	-0.618577
60008	9.287685	-0.197675	3.959560	0.239071	-0.130609	0.282065	-0.550578	-0.418625	0.372967	-0.618476
60009	9.384004	-0.084881	3.899991	0.131767	-0.067349	0.348746	-0.550081	-0.419644	0.372587	-0.618457
60010	9.340021	-0.129424	3.882914	0.189988	-0.077809	0.301044	-0.549262	-0.421042	0.372360	-0.618371
60011	9.277946	-0.192912	3.968657	0.278193	-0.185072	0.274735	-0.548711	-0.421878	0.371949	-0.618538
60012	9.218286	-0.186811	4.122721	0.307480	-0.359877	0.276140	-0.547856	-0.423311	0.371326	-0.618691
60013	9.299069	-0.097474	3.982029	0.213521	-0.224627	0.298824	-0.547131	-0.424442	0.370839	-0.618850
60014	9.372770	-0.205443	3.678720	0.292686	0.084482	0.253651	-0.546249	-0.425805	0.370213	-0.619067
60015	9.354010	-0.136089	3.662136	0.238238	0.071162	0.230490	-0.545307	-0.427236	0.369495	-0.619341
60016	9.397963	-0.070992	3.774343	0.203354	-0.030242	0.313029	-0.544575	-0.428323	0.368294	-0.619949
60017	9.217728	-0.008815	4.001708	0.195900	-0.312739	0.229427	-0.543766	-0.429345	0.367210	-0.620595
60018	9.333870	0.058759	3.911490	0.123485	-0.196721	0.305138	-0.543075	-0.430138	0.366356	-0.621155
60019	9.178109	0.027338	3.825445	0.156387	-0.168214	0.128122	-0.542509	-0.430675	0.365632	-0.621705
60020	9.268184	-0.015812	3.785378	0.195781	-0.092410	0.196394	-0.541822	-0.431410	0.365083	-0.622116
60021	9.263916	0.083167	3.810368	0.108646	-0.138030	0.203055	-0.541093	-0.432223	0.364703	-0.622409
60022	9.378166	0.107684	3.756497	0.075799	-0.058288	0.289972	-0.540451	-0.432776	0.364502	-0.622701
60023	9.354600	0.098799	3.805104	0.095129	-0.115551	0.285566	-0.539792	-0.433303	0.364164	-0.623103
60024	9.334770	0.098945	3.885765	0.110833	-0.201572	0.296416	-0.539132	-0.433866	0.363868	-0.623456
60025	9.405148	0.100976	3.697213	0.078541	-0.013024	0.293253	-0.538358	-0.434603	0.363892	-0.623597
60026	9.404721	0.171290	3.485811	-0.024189	0.153267	0.217512	-0.537525	-0.435288	0.364214	-0.623651
60027	9.538799	0.196837	3.620850	-0.035368	0.052907	0.391914	-0.536573	-0.436078	0.364616	-0.623683
60028	9.520287	0.138513	3.416164	-0.014090	0.225235	0.300387	-0.535851	-0.436474	0.365071	-0.623761
60029	9.490808	0.043190	3.142231	0.031928	0.472780	0.173622	-0.535459	-0.436624	0.365108	-0.623971
60030	9.195623	0.223719	3.428743	-0.087107	0.083635	0.003176	-0.535908	-0.436071	0.364301	-0.624444
60031	9.196696	0.005564	3.511973	0.141760	0.069261	0.030496	-0.536969	-0.435051	0.363771	-0.624552
60032	9.094065	-0.203120	3.452770	0.343678	0.151259	-0.090351	-0.538356	-0.433845	0.363078	-0.624600
60033	9.105312	0.033731	3.850942	0.174093	-0.220520	0.069550	-0.539663	-0.432722	0.362825	-0.624399
60034	9.232705	-0.287052	3.766637	0.470501	-0.020298	0.151798	-0.540806	-0.431625	0.362526	-0.624343
60035	9.258870	-0.363160	3.823895	0.552457	-0.029789	0.196039	-0.541925	-0.430690	0.362406	-0.624088
60036	9.421409	0.018304	3.789001	0.161550	0.020885	0.340797	-0.543029	-0.429590	0.362402	-0.623888
60037	9.326601	-0.168936	3.763261	0.342277	0.056410	0.239964	-0.543798	-0.428707	0.362358	-0.623852
60038	9.380611	-0.323233	3.804272	0.496037	0.077549	0.302685	-0.544534	-0.428050	0.362250	-0.623723
60039	9.266425	-0.119015	3.958890	0.321769	-0.125655	0.258770	-0.545382	-0.427403	0.362282	-0.623407
60040	9.246772	-0.069483	3.888287	0.262942	-0.067264	0.214911	-0.546313	-0.426731	0.362627	-0.622852
60041	9.292799	-0.129408	3.966490	0.332371	-0.105716	0.286038	-0.547184	-0.426208	0.362760	-0.622368
60042	9.242850	-0.059991	4.020064	0.277130	-0.179346	0.261330	-0.547942	-0.425975	0.362964	-0.621741
60043	9.242361	0.064774	3.958378	0.151366	-0.145546	0.239679	-0.548537	-0.426089	0.363521	-0.620812
60044	9.512426	0.069396	3.716986	0.111240	0.167028	0.398422	-0.549081	-0.426216	0.363965	-0.619983
60045	9.590174	0.100100	3.720280	0.086522	0.186527	0.472237	-0.549693	-0.426098	0.363922	-0.619548
60046	9.495945	0.231143	3.886353	-0.010694	-0.014586	0.450344	-0.550406	-0.425830	0.363944	-0.619085
60047	9.455365	0.072853	3.633901	0.119053	0.232154	0.313831	-0.551368	-0.425310	0.363808	-0.618667
60048	9.319626	0.017691	3.865969	0.217123	-0.010069	0.274640	-0.552301	-0.424938	0.363321	-0.618376
60049	9.269842	0.040847	3.928503	0.213663	-0.073743	0.252782	-0.553083	-0.424630	0.362783	-0.618205
60050	9.348144	0.082346	3.843613	0.168001	0.042802	0.293640	-0.553890	-0.424298	0.362368	-0.617954
60051	9.427990	0.069355	3.650526	0.162100	0.266521	0.292797	-0.554809	-0.423873	0.361922	-0.617682
60052	9.334023	0.049798	3.777435	0.209880	0.135107	0.253749	-0.555747	-0.423401	0.361266	-0.617547
60053	9.207734	0.086253	4.040611	0.220738	-0.135084	0.239641	-0.556601	-0.422881	0.360240	-0.617733
60054	9.175785	0.092273	4.024036	0.221653	-0.109610	0.204060	-0.557249	-0.422483	0.359493	-0.617856
60055	9.217089	0.148642	4.194506	0.194191	-0.236631	0.310404	-0.557819	-0.422154	0.358740	-0.618005
60056	9.241615	0.226329	4.357036	0.144059	-0.370038	0.399303	-0.558397	-0.421869	0.358427	-0.617859
60057	9.325510	0.168544	4.143120	0.175993	-0.125282	0.390856	-0.559002	-0.421530	0.358329	-0.617600
60058	9.267471	0.206914	4.166333	0.144572	-0.166733	0.347945	-0.559571	-0.421165	0.358347	-0.617323
60059	9.249087	0.123911	4.082370	0.218496	-0.084889	0.295318	-0.559972	-0.421066	0.358598	-0.616881
60060	9.280171	0.126878	4.047674	0.212740	-0.039278	0.310283	-0.560356	-0.420819	0.358495	-0.616760
60061	9.253891	0.184736	4.158049	0.170240	-0.149741	0.331601	-0.560737	-0.420424	0.358394	-0.616742
60062	9.268396	0.093190	4.223447	0.266306	-0.187735	0.367842	-0.560869	-0.420165	0.358630	-0.616662
60063	9.346626	-0.096740	4.108751	0.434308	-0.034337	0.388332	-0.560654	-0.420258	0.359140	-0.616498
60064	9.312929	0.113473	4.079713	0.219152	-0.048709	0.352802	-0.560518	-0.420133	0.358850	-0.616875
60065	9.252567	0.281795	4.124320	0.057643	-0.127824	0.320415	-0.560523	-0.420043	0.358631	-0.617059
60066	9.278337	0.384270	4.144261	-0.041361	-0.141934	0.355314	-0.560686	-0.419886	0.358345	-0.617184
60067	9.465299	0.057068	4.010313	0.263615	0.092729	0.463482	-0.560622	-0.420096	0.358759	-0.616858
60068	9.345641	-0.100365	3.993533	0.418347	0.075753	0.342047	-0.560221	-0.420160	0.358539	-0.617307
60069	9.383720	0.088014	4.275978	0.261343	-0.189414	0.494677	-0.559612	-0.420284	0.358503	-0.617796
60070	9.162368	0.118703	4.077075	0.205817	-0.100028	0.213940	-0.559418	-0.420265	0.358396	-0.618046
60071	9.275152	0.219315	4.140207	0.112869	-0.130905	0.345460	-0.559245	-0.420760	0.358649	-0.617719
60072	9.489513	0.140311	4.005533	0.172423	0.077645	0.486783	-0.558870	-0.421090	0.358552	-0.617889
60073	9.431801	-0.048953	3.829200	0.338461	0.241962	0.358396	-0.558501	-0.421129	0.357938	-0.618553
60074	9.201859	0.193300	4.078073	0.134925	-0.094131	0.252856	-0.558467	-0.420895	0.357277	-0.619125
60075	9.184153	0.318760	3.989013	-0.001122	-0.020305	0.205399	-0.558576	-0.420542	0.356581	-0.619667
60076	9.125610	0.212658	4.257369	0.140677	-0.258334	0.255114	-0.558647	-0.420300	0.356048	-0.620074
60077	9.370141	0.026165	4.236802	0.315554	-0.109989	0.465398	-0.558713	-0.420093	0.356102	-0.620123
60078	9.449153	0.169944	4.165240	0.160057	-0.027719	0.513890	-0.558687	-0.420001	0.355809	-0.620377
60079	9.368041	0.000905	4.003981	0.306115	0.115940	0.369891	-0.558690	-0.419712	0.355575	-0.620704
60080	9.221658	0.217326	4.060939	0.099699	-0.010390	0.265376	-0.558757	-0.419327	0.355001	-0.621232
60081	9.163267	0.401225	4.174379	-0.069117	-0.146977	0.263298	-0.558927	-0.418877	0.354740	-0.621532
60082	9.073429	0.363881	4.053911	-0.050511	-0.055227	0.131562	-0.559401	-0.418136	0.354544	-0.621716
60083	9.089236	-0.034203	4.177386	0.355507	-0.094315	0.183844	-0.559629	-0.417664	0.354283	-0.621978
60084	9.092220	0.043099	4.192767	0.274296	-0.108031	0.195444	-0.559568	-0.417207	0.354356	-0.622296
60085	9.115999	0.154753	4.227835	0.157660	-0.139765	0.234978	-0.559430	-0.416797	0.354501	-0.622613
60086	9.110851	0.219062	4.234384	0.085352	-0.153288	0.234940	-0.559427	-0.416410	0.354757	-0.622729
60087	9.166796	0.095090	4.185328	0.191914	-0.070437	0.262746	-0.559355	-0.416174	0.355142	-0.622732
60088	9.226756	-0.005095	4.241988	0.290131	-0.088237	0.337955	-0.559176	-0.416130	0.355469	-0.622736
60089	9.243742	-0.001580	4.227496	0.278323	-0.074410	0.347799	-0.558991	-0.416078	0.355870	-0.622708
60090	9.245408	0.019609	4.271141	0.256778	-0.121135	0.367685	-0.558867	-0.415971	0.356194	-0.622705
60091	9.234436	-0.043131	4.214678	0.306921	-0.071448	0.333290	-0.558609	-0.416044	0.356468	-0.622731
60092	9.243884	0.019153	4.138444	0.230392	-0.013283	0.312687	-0.558317	-0.416113	0.356782	-0.622767
60093	9.200112	0.065532	4.198980	0.189027	-0.097930	0.298319	-0.558072	-0.416174	0.357016	-0.622812
60094	9.203062	-0.019556	4.159683	0.264455	-0.056203	0.283183	-0.557791	-0.416302	0.357282	-0.622825
60095	9.120150	0.073129	4.224635	0.180408	-0.167823	0.235661	-0.557455	-0.416494	0.357515	-0.622864
60096	9.089160	0.107559	4.164343	0.135875	-0.137690	0.183748	-0.557149	-0.416608	0.357826	-0.622883
60097	9.083309	0.094419	4.260387	0.156382	-0.235093	0.216599	-0.556801	-0.416753	0.358363	-0.622788
60098	9.286204	0.126547	4.034330	0.082899	0.033236	0.312402	-0.556391	-0.417003	0.358994	-0.622625
60099	9.300985	0.096623	4.054457	0.110525	0.010686	0.333442	-0.556065	-0.417280	0.359450	-0.622466
60100	9.166823	0.091019	4.110218	0.125463	-0.104426	0.232519	-0.555887	-0.417471	0.359900	-0.622238
60101	9.145343	0.159401	4.295405	0.080731	-0.301037	0.287613	-0.555729	-0.417697	0.360307	-0.621991
60102	9.264262	-0.002845	4.048071	0.205038	-0.022459	0.295273	-0.555414	-0.418136	0.360938	-0.621612
60103	9.207785	-0.000211	4.029233	0.200158	-0.045983	0.235985	-0.555072	-0.418490	0.361619	-0.621283
60104	9.209359	0.110118	4.393332	0.133363	-0.415326	0.382186	-0.554360	-0.419175	0.362667	-0.620846
60105	9.396535	-0.193540	4.037811	0.376932	-0.007446	0.409546	-0.553666	-0.419724	0.363671	-0.620507
60106	9.355453	-0.244450	3.983028	0.418616	0.007492	0.349666	-0.553216	-0.420358	0.364436	-0.620030
60107	9.381879	0.080832	4.044095	0.104990	-0.103560	0.402943	-0.552825	-0.421068	0.364978	-0.619578
60108	9.303178	0.004392	4.071658	0.191550	-0.170896	0.339239	-0.552329	-0.421909	0.365439	-0.619178
60109	9.225722	-0.084624	4.129874	0.294659	-0.263674	0.287836	-0.551936	-0.422633	0.365943	-0.618736
60110	9.371431	-0.163988	3.884370	0.340465	0.004472	0.327478	-0.551525	-0.423344	0.366617	-0.618217
60111	9.367826	-0.111943	3.892776	0.293633	-0.034268	0.328071	-0.550826	-0.424263	0.366960	-0.618006
60112	9.336143	-0.037054	3.937605	0.231993	-0.122226	0.316520	-0.550039	-0.425438	0.367420	-0.617626
60113	9.370151	0.005154	3.798263	0.179224	-0.014588	0.296425	-0.549357	-0.426631	0.367772	-0.617201
60114	9.444685	-0.001047	3.851464	0.199039	-0.060186	0.384987	-0.548701	-0.427720	0.368045	-0.616868
60115	9.483406	0.026179	3.932185	0.190108	-0.143862	0.450884	-0.548261	-0.428558	0.368143	-0.616619
60116	9.330232	0.059635	3.922147	0.169516	-0.211004	0.304958	-0.547881	-0.429390	0.368205	-0.616341
60117	9.278367	0.059036	3.795654	0.164183	-0.134003	0.209967	-0.547256	-0.430537	0.368589	-0.615866
60118	9.452442	-0.018322	3.371775	0.187598	0.305954	0.216720	-0.546675	-0.431648	0.368823	-0.615464
60119	9.476183	0.144131	3.664221	0.075970	0.001614	0.347998	-0.546300	-0.432529	0.369000	-0.615073
60120	9.425753	0.244032	3.574513	-0.025328	0.033322	0.270949	-0.545833	-0.433396	0.369294	-0.614700
60121	9.328284	0.077423	3.462061	0.134116	0.105496	0.136161	-0.545378	-0.434270	0.369628	-0.614286
60122	9.518606	-0.110915	3.433936	0.320906	0.204719	0.299836	-0.544756	-0.435460	0.369660	-0.613976
60123	9.491584	0.093996	3.517896	0.143032	0.068138	0.309044	-0.544033	-0.436692	0.369562	-0.613801
60124	9.543381	0.155738	3.379048	0.069848	0.189749	0.310427	-0.543428	-0.437489	0.369463	-0.613829
60125	9.557525	0.130275	3.491630	0.115500	0.084332	0.362492	-0.543002	-0.437981	0.369355	-0.613920
60126	9.378988	0.107213	3.741607	0.184591	-0.213319	0.281714	-0.542603	-0.438598	0.369169	-0.613945
60127	9.368505	0.035900	3.664290	0.252444	-0.145984	0.242765	-0.542036	-0.439556	0.369057	-0.613827
60128	9.414556	0.005071	3.549711	0.276796	-0.036486	0.244964	-0.541289	-0.440869	0.368891	-0.613645
60129	9.483536	-0.105704	3.388678	0.376685	0.132240	0.250728	-0.540529	-0.442431	0.368638	-0.613342
60130	9.742968	-0.025309	3.231358	0.285524	0.334211	0.442773	-0.539758	-0.443952	0.368193	-0.613190
60131	9.667089	0.610940	3.404428	-0.300138	0.033121	0.450099	-0.538942	-0.444976	0.367854	-0.613368
60132	9.448198	0.391287	3.323950	-0.084050	0.057565	0.210277	-0.538599	-0.445475	0.367736	-0.613379
60133	9.726874	0.113885	3.137480	0.156997	0.364865	0.400591	-0.538333	-0.445761	0.367468	-0.613565
60134	9.376085	0.069710	3.390711	0.252597	0.021578	0.154683	-0.538168	-0.445916	0.366877	-0.613950
60135	9.497422	0.229010	3.396585	0.097158	0.038054	0.275889	-0.537911	-0.446158	0.366296	-0.614346
60136	9.372506	0.280035	3.587805	0.083305	-0.180997	0.224988	-0.537800	-0.446082	0.365625	-0.614898
60137	9.362498	0.423436	3.459176	-0.077992	-0.081557	0.176749	-0.537563	-0.446244	0.365316	-0.615171
60138	9.334356	0.192308	3.331271	0.130131	0.066502	0.099083	-0.537225	-0.446442	0.365024	-0.615496
60139	9.596318	0.180433	3.491679	0.161379	0.004178	0.399444	-0.536551	-0.446943	0.365109	-0.615671
60140	9.778394	0.102044	3.316278	0.202163	0.234878	0.508605	-0.536028	-0.447149	0.364957	-0.616066
60141	9.369267	0.058891	3.634931	0.305993	-0.185844	0.230776	-0.536016	-0.446849	0.364438	-0.616602
60142	9.338773	0.432572	3.750156	-0.045252	-0.352108	0.253962	-0.536299	-0.446339	0.364170	-0.616883
60143	9.380597	0.352628	3.756212	0.028720	-0.319024	0.293077	-0.536256	-0.446023	0.363967	-0.617269
60144	9.567328	-0.036999	3.502213	0.359975	0.050392	0.369086	-0.536101	-0.445956	0.363920	-0.617480
60145	9.561436	0.045836	3.564698	0.289171	-0.020436	0.387616	-0.536074	-0.446058	0.363577	-0.617631
60146	9.513715	0.233438	3.440240	0.085268	0.052163	0.306133	-0.536239	-0.445778	0.363436	-0.617773
60147	9.337131	0.253344	3.696178	0.111151	-0.237843	0.229175	-0.536449	-0.445302	0.363109	-0.618126
60148	9.296016	0.092597	3.924790	0.305319	-0.423335	0.264814	-0.536734	-0.444804	0.362946	-0.618334
60149	9.404303	0.034472	3.749426	0.327643	-0.204674	0.304182	-0.536954	-0.444579	0.362738	-0.618426
60150	9.546275	-0.003230	3.534223	0.324332	0.056537	0.361482	-0.537253	-0.444312	0.362651	-0.618410
60151	9.472458	0.166353	3.737297	0.193715	-0.176542	0.368365	-0.537598	-0.443976	0.362407	-0.618495
60152	9.422082	0.233068	3.794099	0.138361	-0.249930	0.343273	-0.537900	-0.443675	0.362436	-0.618430
60153	9.422850	0.025363	3.467758	0.287580	0.092078	0.223492	-0.538229	-0.443384	0.362327	-0.618417
60154	9.511429	0.034926	3.633057	0.304812	-0.022614	0.364452	-0.538630	-0.443137	0.362060	-0.618402
60155	9.449695	0.128308	3.657665	0.221616	-0.073654	0.318313	-0.539114	-0.442868	0.361896	-0.618268
60156	9.557956	0.088286	3.450532	0.227481	0.170478	0.345446	-0.539665	-0.442599	0.361694	-0.618098
60157	9.403237	0.112814	3.693925	0.253114	-0.102273	0.287022	-0.540172	-0.442401	0.361293	-0.618032
60158	9.365732	0.322438	3.622460	0.039186	-0.072885	0.234017	-0.540724	-0.441965	0.361118	-0.617963
60159	9.354606	0.224712	3.528631	0.119645	0.040657	0.187032	-0.541478	-0.441146	0.360863	-0.618037
60160	9.350378	0.224556	3.621892	0.134768	-0.028205	0.216227	-0.542060	-0.440627	0.360376	-0.618182
60161	9.309101	0.045396	3.700539	0.329722	-0.070140	0.199393	-0.542636	-0.440370	0.359809	-0.618189
60162	9.362617	0.181355	3.832747	0.224352	-0.181846	0.301561	-0.543152	-0.440335	0.359315	-0.618049
60163	9.432952	0.266167	3.833090	0.145065	-0.157960	0.370534	-0.543866	-0.439794	0.359053	-0.617958
60164	9.391910	0.185875	3.655340	0.196488	0.018093	0.265263	-0.544397	-0.439196	0.358810	-0.618057
60165	9.228036	0.239152	4.020369	0.204666	-0.372803	0.246951	-0.544705	-0.438815	0.358645	-0.618152
60166	9.261281	0.333197	3.963459	0.101524	-0.314985	0.261131	-0.545075	-0.438537	0.358539	-0.618084
60167	9.304529	0.513847	3.818446	-0.100570	-0.187498	0.255756	-0.545689	-0.438093	0.358650	-0.617793
60168	9.370060	0.429524	3.691808	-0.040964	-0.025522	0.267472	-0.546667	-0.437206	0.359033	-0.617334
60169	9.517929	-0.005894	3.355815	0.331202	0.416259	0.265483	-0.547662	-0.436354	0.359069	-0.617034
60170	9.512248	-0.236183	3.530529	0.589369	0.303833	0.314681	-0.548491	-0.435924	0.358624	-0.616860
60171	9.458409	0.040861	3.751189	0.359719	0.057195	0.355984	-0.549059	-0.435771	0.357759	-0.616965
60172	9.342156	0.345546	3.682138	0.057886	0.047373	0.234592	-0.549426	-0.435550	0.357250	-0.617090
60173	9.197189	0.468747	3.823692	-0.038376	-0.144681	0.157580	-0.549601	-0.435251	0.357133	-0.617212
60174	9.356092	0.432081	4.188494	0.044286	-0.410234	0.438965	-0.549545	-0.434826	0.357512	-0.617343
60175	9.363096	0.075635	3.621510	0.300898	0.163911	0.220817	-0.549360	-0.434715	0.357714	-0.617468
60176	9.415821	0.026297	3.648843	0.350874	0.164742	0.278011	-0.549535	-0.434701	0.357761	-0.617295
60177	9.387724	0.361680	3.922577	0.064229	-0.146301	0.366765	-0.549518	-0.434820	0.357631	-0.617302
60178	9.427474	0.233054	3.762620	0.168333	0.033837	0.339130	-0.549394	-0.434972	0.357522	-0.617369
60179	9.311370	0.365601	3.843264	0.052759	-0.101138	0.266644	-0.549515	-0.434835	0.357386	-0.617435
60180	9.363036	0.354636	3.558354	0.018682	0.185178	0.208263	-0.549623	-0.434679	0.357294	-0.617503
60181	9.300442	0.316418	3.819607	0.096526	-0.066262	0.245842	-0.549690	-0.434483	0.357097	-0.617695
60182	9.251424	0.318866	3.841307	0.096701	-0.101028	0.208620	-0.549791	-0.434333	0.357194	-0.617655
60183	9.255103	0.381913	3.769976	0.020391	-0.042600	0.187976	-0.549901	-0.434078	0.357380	-0.617628
60184	9.324610	0.310184	3.726837	0.077705	0.033078	0.233543	-0.549835	-0.433854	0.357718	-0.617648
60185	9.349613	0.186947	3.712520	0.189825	0.069693	0.246742	-0.549606	-0.433795	0.358103	-0.617671
60186	9.351923	0.272235	3.906705	0.126639	-0.127312	0.324505	-0.549344	-0.433687	0.358701	-0.617632
60187	9.281115	0.283284	3.820598	0.095248	-0.085170	0.227232	-0.549213	-0.433546	0.359328	-0.617484
60188	9.388898	0.180135	3.869281	0.195425	-0.083301	0.341625	-0.549276	-0.433434	0.359972	-0.617131
60189	9.319209	0.236415	3.998947	0.155470	-0.242468	0.326946	-0.549445	-0.433186	0.360423	-0.616892
60190	9.192966	0.146886	3.995787	0.238464	-0.272595	0.205663	-0.549832	-0.432459	0.360856	-0.616803
60191	9.049317	0.014004	3.835720	0.340351	-0.158650	0.008823	-0.550101	-0.431990	0.361448	-0.616546
60192	9.404558	0.088869	3.458315	0.196264	0.303530	0.201447	-0.550319	-0.431664	0.362298	-0.616081
60193	9.412471	0.244301	3.702928	0.071086	0.053471	0.304529	-0.550714	-0.431299	0.362961	-0.615592
60194	9.534706	0.315699	3.806096	0.007998	-0.014235	0.458456	-0.550999	-0.431161	0.363848	-0.614911
60195	9.525747	-0.067675	3.777208	0.374682	0.047850	0.427871	-0.550779	-0.430905	0.364913	-0.614656
60196	9.225587	0.252610	4.086880	0.086394	-0.398184	0.272539	-0.550674	-0.429911	0.365846	-0.614891
60197	9.138413	0.275668	3.654412	-0.016102	-0.041422	0.033087	-0.550980	-0.429025	0.367482	-0.614260
60198	9.400139	0.217533	3.290095	-0.029054	0.389031	0.141330	-0.551938	-0.427991	0.368925	-0.613255
60199	9.571392	-0.287749	3.581307	0.495851	0.244605	0.395858	-0.552412	-0.427425	0.369509	-0.612871
60200	9.465965	-0.267654	3.710801	0.482720	0.085984	0.346335	-0.552282	-0.426706	0.369917	-0.613244
60201	8.954268	0.409952	4.504537	-0.099402	-0.909231	0.177367	-0.552463	-0.425371	0.370448	-0.613688
60202	9.001803	0.542191	3.926726	-0.327135	-0.371198	0.010793	-0.553158	-0.424075	0.372111	-0.612952
60203	9.461698	0.301884	3.291648	-0.195307	0.409949	0.199485	-0.554280	-0.422750	0.373603	-0.611945
60204	9.564582	-0.558968	3.710438	0.693282	0.163915	0.436874	-0.554752	-0.422034	0.373828	-0.611874
60205	9.395725	-0.576738	3.893071	0.726176	-0.051165	0.347937	-0.554722	-0.421251	0.373471	-0.612658
60206	8.756493	0.561268	4.437975	-0.342206	-0.904161	-0.027384	-0.554740	-0.420098	0.373830	-0.613214
60207	8.948191	0.565496	3.884720	-0.440739	-0.326042	-0.056649	-0.555075	-0.418848	0.376247	-0.612288
60208	9.571550	0.353304	3.689947	-0.300943	0.090189	0.446763	-0.555873	-0.417480	0.378719	-0.610973
60209	9.440609	-0.243220	4.039051	0.311193	-0.219115	0.451488	-0.557030	-0.416034	0.379212	-0.610600
60210	8.932104	-0.446433	4.103994	0.526508	-0.430220	0.003739	-0.557995	-0.414848	0.379328	-0.610453
60211	9.028328	-0.255711	3.903691	0.302556	-0.213942	0.019787	-0.558683	-0.413533	0.379917	-0.610350
60212	9.696216	-0.110970	3.730629	0.101533	0.192194	0.574768	-0.559477	-0.412021	0.380817	-0.610084
60213	9.459974	0.160750	3.739198	-0.176333	0.085625	0.358846	-0.560673	-0.410478	0.381310	-0.609719
60214	9.631398	-0.068723	3.823905	0.045805	0.118575	0.549482	-0.562005	-0.409034	0.380906	-0.609715
60215	9.064411	-0.187730	3.925418	0.189506	-0.139912	0.064156	-0.563134	-0.407531	0.379657	-0.610459
60216	9.450885	-0.444689	3.749266	0.412042	0.234925	0.353377	-0.563818	-0.406050	0.378869	-0.611302
60217	9.339812	-0.232776	3.928895	0.205195	0.043583	0.320347	-0.564289	-0.404604	0.378501	-0.612054
60218	9.382889	-0.131524	3.928250	0.086722	0.086774	0.359425	-0.564848	-0.403012	0.377846	-0.612993
60219	9.141521	-0.084881	4.553169	0.086102	-0.539946	0.385685	-0.565725	-0.401443	0.376493	-0.614045
60220	8.995867	-0.030001	4.603352	0.038820	-0.607218	0.274287	-0.566202	-0.400711	0.375348	-0.614785
60221	9.285045	-0.259125	4.228359	0.225469	-0.095122	0.390167	-0.566599	-0.399641	0.374257	-0.615780
60222	9.618131	-0.421024	4.044660	0.348497	0.254660	0.620844	-0.566605	-0.398511	0.373609	-0.616899
60223	9.373824	-0.281865	4.188586	0.211095	0.044749	0.455982	-0.566751	-0.396925	0.373169	-0.618052
60224	9.311389	-0.189208	4.463793	0.121432	-0.204586	0.512354	-0.567185	-0.395346	0.372730	-0.618930
60225	9.365039	0.030143	4.452325	-0.112228	-0.166705	0.554938	-0.567393	-0.394792	0.372441	-0.619267
60226	9.497100	0.273667	4.270071	-0.374400	0.045867	0.596972	-0.567508	-0.394708	0.371750	-0.619630
60227	9.342699	0.064747	4.202807	-0.159641	0.078937	0.430459	-0.567675	-0.394444	0.370701	-0.620274
60228	8.999147	-0.300959	4.423498	0.237707	-0.205930	0.214455	-0.567875	-0.393702	0.369745	-0.621132
60229	9.110825	-0.378485	4.337652	0.295719	-0.052777	0.280644	-0.567941	-0.392939	0.369592	-0.621646
60230	9.576003	-0.147533	4.217439	0.022926	0.242559	0.649101	-0.568055	-0.392236	0.369783	-0.621872
60231	9.380905	-0.044954	4.326537	-0.071786	0.059382	0.517541	-0.568148	-0.391773	0.369949	-0.621980
60232	9.137508	0.077938	4.182948	-0.198863	0.076838	0.234787	-0.568090	-0.391714	0.370100	-0.621980
60233	9.171129	0.052024	4.100209	-0.183061	0.168809	0.230321	-0.568154	-0.391566	0.370050	-0.622046
60234	9.133886	-0.260540	4.279942	0.143313	0.023002	0.276544	-0.568491	-0.391305	0.370007	-0.621927
60235	9.183898	-0.459017	4.512472	0.360084	-0.145311	0.422854	-0.568895	-0.391365	0.369942	-0.621559
60236	9.301313	-0.557648	4.443221	0.457413	-0.028750	0.500292	-0.569137	-0.391845	0.369978	-0.621012
60237	9.447952	-0.513087	4.313481	0.408970	0.136522	0.577079	-0.569176	-0.392513	0.369979	-0.620554
60238	9.416437	-0.428946	4.346782	0.341963	0.077381	0.561552	-0.569033	-0.393234	0.369633	-0.620435
60239	9.226011	-0.166730	4.022616	0.077866	0.261628	0.249816	-0.568682	-0.394123	0.369060	-0.620534
60240	9.013564	-0.297413	4.150417	0.238986	0.063740	0.111906	-0.568360	-0.394819	0.368679	-0.620613
60241	9.001084	-0.198271	4.582305	0.180611	-0.346006	0.282064	-0.568133	-0.395086	0.368777	-0.620593
60242	9.326988	-0.275307	4.423064	0.230469	-0.069723	0.510781	-0.567776	-0.395512	0.369277	-0.620351
60243	9.479905	-0.320558	4.235733	0.255407	0.151668	0.571172	-0.567315	-0.396212	0.369490	-0.620199
60244	9.510488	-0.156648	4.180022	0.091733	0.182459	0.575034	-0.566611	-0.397214	0.369572	-0.620153
60245	9.396058	-0.104820	4.223724	0.054634	0.075209	0.489161	-0.565929	-0.398035	0.369435	-0.620330
60246	9.209698	-0.106262	4.261825	0.073857	-0.045136	0.335488	-0.565446	-0.398738	0.369081	-0.620530
60247	9.017063	-0.103567	4.211929	0.084291	-0.082267	0.139429	-0.565135	-0.399351	0.368432	-0.620806
60248	9.040657	-0.065865	4.146393	0.050931	-0.014265	0.133547	-0.564959	-0.399862	0.367669	-0.621088
60249	9.269137	-0.157586	4.031877	0.133276	0.199530	0.293755	-0.564825	-0.400263	0.366770	-0.621484
60250	9.346467	-0.150141	4.095738	0.138553	0.181957	0.390338	-0.564639	-0.400625	0.365890	-0.621938
60251	9.224714	-0.044719	4.103307	0.048334	0.122520	0.282713	-0.564376	-0.401000	0.365020	-0.622446
60252	9.218994	-0.001834	4.097366	0.013939	0.130165	0.274984	-0.564063	-0.401399	0.364025	-0.623055
60253	9.281809	0.014563	4.175184	0.010477	0.095177	0.364501	-0.563831	-0.401629	0.363088	-0.623664
60254	9.164204	-0.042629	4.205126	0.080870	0.036148	0.269955	-0.563599	-0.401789	0.362344	-0.624202
60255	9.223582	-0.030420	4.189172	0.068632	0.084375	0.317106	-0.563408	-0.401880	0.361593	-0.624752
60256	9.169680	0.018344	4.338440	0.042200	-0.068770	0.331222	-0.563216	-0.402058	0.360949	-0.625182
60257	9.135109	0.096759	4.370521	-0.027355	-0.113546	0.313881	-0.563049	-0.402122	0.360443	-0.625583
60258	9.106318	0.080386	4.381604	-0.007126	-0.127749	0.292438	-0.562955	-0.402130	0.360144	-0.625835
60259	9.164369	0.046494	4.355846	0.021159	-0.072943	0.334009	-0.562919	-0.402075	0.360082	-0.625939
60260	9.329437	0.079581	4.367304	-0.019920	-0.016889	0.488642	-0.562911	-0.401947	0.360223	-0.625946
60261	9.446591	0.051929	4.265913	-0.013645	0.126494	0.551800	-0.562995	-0.401614	0.360564	-0.625889
60262	9.331650	-0.046862	4.347675	0.089602	0.016366	0.481771	-0.563152	-0.401092	0.360998	-0.625831
60263	9.170570	-0.043958	4.375659	0.085803	-0.075690	0.347754	-0.563351	-0.400470	0.361532	-0.625743
60264	9.163462	-0.050414	4.330247	0.075524	-0.035911	0.322183	-0.563554	-0.399808	0.362107	-0.625650
60265	9.208347	-0.073173	4.286641	0.078655	0.027030	0.344446	-0.563836	-0.399040	0.362657	-0.625569
60266	9.142537	-0.145392	4.327409	0.144769	-0.026438	0.302248	-0.564131	-0.398316	0.363196	-0.625451
60267	9.235151	-0.196766	4.327384	0.180292	0.019782	0.386336	-0.564429	-0.397711	0.363754	-0.625244
60268	9.327730	-0.220082	4.373568	0.194257	0.019549	0.489980	-0.564732	-0.397203	0.364293	-0.624979
60269	9.278589	-0.223883	4.390150	0.194448	-0.015146	0.452677	-0.565113	-0.396677	0.364694	-0.624735
60270	9.094440	-0.194468	4.429589	0.170619	-0.127660	0.302771	-0.565581	-0.396017	0.365012	-0.624544
60271	9.007071	-0.199135	4.594906	0.187433	-0.305749	0.294316	-0.566142	-0.395281	0.365215	-0.624383
60272	9.115682	-0.198034	4.359342	0.154739	-0.042341	0.292410	-0.566593	-0.394800	0.365573	-0.624069
60273	9.100620	-0.198712	4.339272	0.149589	-0.031194	0.270303	-0.566954	-0.394426	0.366133	-0.623649
60274	9.179921	-0.148104	4.663629	0.115256	-0.297008	0.480068	-0.567299	-0.393817	0.366814	-0.623321
60275	8.998291	-0.301720	4.619922	0.263569	-0.322655	0.298216	-0.567450	-0.393481	0.367361	-0.623072
60276	8.920771	-0.267135	4.436882	0.212460	-0.200068	0.149856	-0.567436	-0.393522	0.367822	-0.622787
60277	9.163481	-0.047105	4.466068	-0.017913	-0.153767	0.380124	-0.567339	-0.393667	0.368271	-0.622519
60278	9.387527	-0.083134	4.372564	-0.002519	0.018257	0.543545	-0.567187	-0.393805	0.368712	-0.622308
60279	9.408672	-0.148501	4.350380	0.057787	0.044999	0.553874	-0.567195	-0.393854	0.369029	-0.622082
60280	9.277795	-0.192766	4.468870	0.116853	-0.117740	0.485756	-0.567293	-0.393848	0.369234	-0.621876
60281	8.904264	-0.184997	4.544945	0.132836	-0.346830	0.179245	-0.567413	-0.393845	0.369370	-0.621686
60282	8.940370	-0.195370	4.428272	0.132404	-0.229277	0.162676	-0.567417	-0.393928	0.369624	-0.621479
60283	9.129793	-0.184490	4.425809	0.111298	-0.152830	0.333208	-0.567487	-0.393837	0.369879	-0.621322
60284	8.963423	-0.223519	4.520459	0.163143	-0.306970	0.222581	-0.567578	-0.393743	0.370089	-0.621173
60285	9.009860	-0.228126	4.513515	0.164973	-0.287208	0.261623	-0.567549	-0.394013	0.370458	-0.620808
60286	9.347629	-0.158892	4.522541	0.082931	-0.174986	0.570919	-0.567433	-0.394447	0.371094	-0.620259
60287	9.568677	-0.277537	4.365026	0.180680	0.053290	0.706560	-0.567453	-0.394745	0.371659	-0.619712
60288	9.221484	-0.316191	4.377009	0.238286	-0.108824	0.396393	-0.567815	-0.394763	0.371983	-0.619174
60289	9.024972	-0.184302	4.259463	0.109900	-0.099527	0.167550	-0.568278	-0.394660	0.372257	-0.618650
60290	9.064759	-0.147282	4.041525	0.057750	0.109077	0.112545	-0.568741	-0.394494	0.372544	-0.618158
60291	9.168994	-0.262615	3.970751	0.164097	0.225634	0.178731	-0.569266	-0.394136	0.372854	-0.617716
60292	9.041263	-0.128038	4.160619	0.048402	-0.009550	0.140661	-0.569803	-0.393764	0.373176	-0.617263
60293	9.126582	-0.088640	4.114697	0.001814	0.063810	0.198756	-0.570262	-0.393492	0.373582	-0.616768
60294	9.339574	-0.214417	4.184366	0.121996	0.096851	0.422461	-0.570677	-0.393175	0.374022	-0.616319
60295	9.392518	-0.232566	4.183245	0.135097	0.119676	0.470330	-0.570995	-0.392849	0.374398	-0.616004
60296	9.355177	-0.195957	4.144768	0.093533	0.135955	0.420083	-0.571227	-0.392503	0.374721	-0.615813
60297	9.378339	-0.147373	4.128079	0.038653	0.157548	0.433760	-0.571418	-0.392196	0.374983	-0.615672
60298	9.246432	-0.138246	4.134893	0.032110	0.097142	0.316601	-0.571553	-0.392001	0.375080	-0.615611
60299	9.119509	-0.182128	4.384520	0.095888	-0.177711	0.305704	-0.571531	-0.392034	0.375032	-0.615640
60300	9.198856	-0.201978	4.330541	0.110087	-0.094536	0.355511	-0.571374	-0.392194	0.374910	-0.615758
60301	9.307580	-0.190469	4.336680	0.096031	-0.055167	0.456775	-0.571239	-0.392301	0.374691	-0.615949
60302	9.234455	-0.127056	4.245716	0.030906	-0.004676	0.351781	-0.571185	-0.392290	0.374449	-0.616153
60303	9.238024	-0.117355	4.411164	0.031493	-0.145962	0.424056	-0.571366	-0.391941	0.374123	-0.616405
60304	9.291446	-0.099916	4.101223	-0.009175	0.166422	0.342764	-0.571498	-0.391662	0.373831	-0.616637
60305	9.221113	-0.213577	4.061870	0.102671	0.191533	0.263329	-0.571666	-0.391274	0.373580	-0.616880
60306	9.169666	-0.167957	4.278583	0.068255	-0.019299	0.307205	-0.571810	-0.390714	0.373546	-0.617122
60307	9.070558	-0.192816	4.407582	0.097780	-0.168313	0.272008	-0.571792	-0.390320	0.373634	-0.617335
60308	8.973511	-0.311956	4.244406	0.205148	-0.048234	0.116652	-0.571719	-0.390200	0.373535	-0.617538
60309	9.306677	-0.218842	4.166476	0.091577	0.158192	0.384775	-0.571566	-0.390212	0.373370	-0.617771
60310	9.497077	-0.152695	4.147724	0.013462	0.253578	0.548631	-0.571310	-0.390113	0.373201	-0.618172
60311	9.530265	-0.205260	4.158714	0.058351	0.265529	0.583902	-0.570999	-0.389894	0.373204	-0.618597
60312	9.452159	-0.128786	4.130307	-0.025819	0.255301	0.500095	-0.570612	-0.389679	0.373248	-0.619062
60313	9.288282	-0.093294	4.147162	-0.063657	0.171439	0.358173	-0.570172	-0.389394	0.373266	-0.619635
60314	9.088449	-0.133377	4.207563	-0.021538	0.040304	0.203259	-0.569740	-0.389129	0.373199	-0.620240
60315	8.857761	-0.083751	4.266509	-0.065104	-0.109592	0.018578	-0.569454	-0.388889	0.373154	-0.620680
60316	8.828975	-0.122878	4.304686	-0.028496	-0.149363	0.009385	-0.569372	-0.388676	0.373166	-0.620882
60317	8.983150	-0.248174	4.314674	0.086006	-0.081897	0.155306	-0.569329	-0.388636	0.373245	-0.620899
60318	9.218955	-0.214659	4.487689	0.049947	-0.144214	0.441642	-0.569262	-0.388641	0.373533	-0.620783
60319	9.230992	-0.230970	4.343339	0.053769	-0.014965	0.391529	-0.569161	-0.388796	0.373950	-0.620528
60320	9.136117	-0.186640	4.388707	0.016433	-0.104799	0.324027	-0.569475	-0.388617	0.374182	-0.620211
60321	9.105246	-0.188219	4.518308	0.030059	-0.234235	0.350986	-0.569973	-0.388480	0.374228	-0.619812
60322	9.160839	-0.224889	4.564752	0.073362	-0.248338	0.421639	-0.570466	-0.388526	0.374133	-0.619387
60323	9.243740	-0.320698	4.428291	0.164950	-0.080316	0.440394	-0.570836	-0.388608	0.373871	-0.619153
60324	9.050096	-0.335266	4.507266	0.200618	-0.225954	0.298730	-0.571190	-0.388474	0.373485	-0.619144
60325	8.768373	-0.312010	4.671639	0.206601	-0.486919	0.113347	-0.571378	-0.388489	0.373033	-0.619233
60326	8.757549	-0.197650	4.821293	0.109820	-0.632866	0.165590	-0.571325	-0.388900	0.372786	-0.619173
60327	8.982240	-0.269118	4.634964	0.168477	-0.368165	0.290382	-0.571089	-0.389577	0.372475	-0.619152
60328	9.112499	-0.192231	4.431858	0.082703	-0.140304	0.320891	-0.570821	-0.390173	0.372088	-0.619257
60329	9.216832	-0.207342	4.370564	0.096693	-0.040012	0.389463	-0.570645	-0.390485	0.371630	-0.619497
60330	9.093207	-0.212561	4.546538	0.125005	-0.249371	0.352192	-0.570430	-0.390818	0.371312	-0.619676
60331	8.864797	-0.261829	4.725129	0.201207	-0.506308	0.221414	-0.570156	-0.391252	0.371277	-0.619675
60332	8.950614	-0.373906	4.653032	0.307835	-0.407103	0.269152	-0.569676	-0.391942	0.371548	-0.619518
60333	9.122249	-0.350572	4.582234	0.274355	-0.293553	0.393864	-0.568908	-0.392862	0.372097	-0.619311
60334	9.155021	-0.258328	4.464383	0.172930	-0.209417	0.372499	-0.567901	-0.393958	0.372849	-0.619087
60335	9.143120	-0.266332	4.658256	0.194972	-0.422177	0.441608	-0.566724	-0.395156	0.373615	-0.618940
60336	9.099106	-0.224187	4.237522	0.124447	-0.101064	0.225974	-0.565284	-0.396838	0.374505	-0.618643
60337	9.188204	-0.258670	3.984129	0.137985	0.123141	0.203745	-0.563715	-0.398693	0.375447	-0.618312
60338	9.582078	0.030983	3.881088	-0.176119	0.299701	0.519736	-0.562136	-0.400433	0.376641	-0.617897
60339	9.643857	-0.004440	3.784060	-0.152676	0.365879	0.539401	-0.560701	-0.402025	0.377775	-0.617476
60340	9.439122	0.012464	3.612762	-0.170382	0.392196	0.285143	-0.559356	-0.403927	0.378628	-0.616932
60341	9.337426	0.103700	3.647944	-0.245516	0.264451	0.206064	-0.558108	-0.405772	0.379505	-0.616313
60342	9.381224	-0.037590	3.630664	-0.103199	0.263770	0.242663	-0.556880	-0.407372	0.380675	-0.615645
60343	9.439957	-0.070328	3.417039	-0.093257	0.441941	0.216757	-0.555809	-0.408430	0.381926	-0.615137
60344	9.492106	-0.077534	3.316560	-0.103836	0.516133	0.228646	-0.554813	-0.409287	0.383225	-0.614659
60345	9.486875	-0.195573	3.697392	0.039078	0.138583	0.370088	-0.553872	-0.410053	0.384425	-0.614247
60346	9.507932	-0.170457	3.610059	-0.002833	0.189305	0.357190	-0.552915	-0.410812	0.385689	-0.613810
60347	9.498808	-0.131256	3.519257	-0.058320	0.234161	0.315069	-0.552207	-0.411259	0.386825	-0.613433
60348	9.644967	-0.158779	3.411135	-0.056010	0.365667	0.412260	-0.551738	-0.411575	0.387707	-0.613086
60349	9.698000	-0.227288	3.341674	-0.000924	0.438091	0.438054	-0.551527	-0.411827	0.388284	-0.612741
60350	9.629876	-0.129318	3.546433	-0.078183	0.200733	0.448015	-0.551424	-0.412068	0.388722	-0.612394
60351	9.553158	-0.157795	3.496819	-0.049561	0.209966	0.359280	-0.551342	-0.412314	0.389173	-0.612016
60352	9.445226	-0.206066	3.472164	0.002103	0.190971	0.250821	-0.551500	-0.412235	0.389464	-0.611742
60353	9.503877	-0.185380	3.595349	-0.011805	0.095162	0.349762	-0.551720	-0.412032	0.389528	-0.611639
60354	9.484727	-0.295039	3.388863	0.081197	0.295204	0.258943	-0.552075	-0.411725	0.389443	-0.611580
60355	9.533935	-0.384005	3.221797	0.154350	0.485919	0.245314	-0.552473	-0.411342	0.389136	-0.611674
60356	9.597273	-0.460289	3.048319	0.215994	0.690745	0.241563	-0.552860	-0.411097	0.388497	-0.611894
60357	9.718157	-0.441110	3.128156	0.205323	0.675236	0.381643	-0.553219	-0.411095	0.387534	-0.612182
60358	9.719130	-0.446121	3.405890	0.245915	0.439570	0.483275	-0.553582	-0.411138	0.386172	-0.612685
60359	9.660551	-0.476805	3.350076	0.289557	0.497853	0.407138	-0.553830	-0.411313	0.384561	-0.613357
60360	9.740965	-0.381515	3.450739	0.215980	0.452607	0.516299	-0.554022	-0.411523	0.382753	-0.614173
60361	9.807254	-0.368331	3.558198	0.226027	0.406022	0.616245	-0.554058	-0.411801	0.380862	-0.615129
60362	9.624492	-0.415264	3.392614	0.281587	0.522717	0.383416	-0.553808	-0.412300	0.378965	-0.616190
60363	9.550811	-0.343436	3.368313	0.226617	0.533287	0.303915	-0.553314	-0.413036	0.376997	-0.617347
60364	9.615635	-0.213220	3.658872	0.138560	0.297851	0.472509	-0.552836	-0.413644	0.375163	-0.618485
60365	9.436927	-0.138269	3.698844	0.089565	0.211182	0.321584	-0.552580	-0.413850	0.373142	-0.619797
60366	9.420808	-0.004948	3.686163	-0.033168	0.231770	0.300895	-0.552353	-0.413928	0.371232	-0.621093
60367	9.475653	0.223428	3.809990	-0.239487	0.146864	0.398820	-0.552427	-0.413663	0.369134	-0.622452
60368	9.249146	0.162036	3.903826	-0.147720	0.022586	0.226751	-0.552529	-0.413321	0.366880	-0.623920
60369	9.298882	0.131212	4.031636	-0.094600	-0.031872	0.322915	-0.552728	-0.413103	0.365104	-0.624929
60370	9.268357	-0.126298	3.965609	0.165215	0.081843	0.267509	-0.552936	-0.413022	0.363435	-0.625772
60371	9.262165	0.010209	4.318239	0.085129	-0.230902	0.403690	-0.553076	-0.412960	0.362001	-0.626519
60372	9.284163	0.044830	4.599705	0.096086	-0.452954	0.538181	-0.553295	-0.412764	0.360360	-0.627400
60373	9.060657	-0.045193	4.235658	0.161896	-0.168752	0.186490	-0.553494	-0.412709	0.358523	-0.628312
60374	9.252990	0.116816	4.468971	0.038259	-0.293311	0.459390	-0.553559	-0.412873	0.356656	-0.629210
60375	9.297531	0.258071	4.671051	-0.058319	-0.445383	0.585750	-0.553662	-0.413016	0.354520	-0.630231
60376	9.162540	-0.165074	4.810242	0.401719	-0.537859	0.515289	-0.553751	-0.413121	0.353291	-0.630775
60377	9.157303	-0.161004	4.609259	0.379667	-0.342731	0.427710	-0.553765	-0.413165	0.352452	-0.631202
60378	9.094322	0.152506	4.502496	0.064196	-0.304949	0.331537	-0.553524	-0.413320	0.351473	-0.631858
60379	9.032058	0.465367	4.798219	-0.192415	-0.626171	0.404377	-0.552956	-0.413603	0.349936	-0.633022
60380	8.944963	0.200162	4.855813	0.090284	-0.658601	0.345532	-0.552500	-0.413904	0.348962	-0.633760
60381	9.054439	0.066745	4.768947	0.212022	-0.510582	0.406145	-0.551863	-0.414626	0.348387	-0.634160
60382	9.215696	-0.070931	4.660771	0.333304	-0.328301	0.504191	-0.551346	-0.415337	0.347904	-0.634410
60383	9.199806	0.176366	4.523375	0.078227	-0.246472	0.437267	-0.551013	-0.415652	0.346812	-0.635089
60384	8.918956	0.267866	4.566160	0.018888	-0.404560	0.202566	-0.550357	-0.416301	0.345440	-0.635981
60385	9.156401	0.002830	4.677872	0.299012	-0.355448	0.458944	-0.549653	-0.417127	0.344517	-0.636549
60386	8.948794	0.089922	4.701083	0.241490	-0.476456	0.282055	-0.548802	-0.418204	0.343409	-0.637175
60387	8.838668	0.267064	4.691039	0.090639	-0.544887	0.182014	-0.547756	-0.419683	0.342059	-0.637829
60388	9.105288	0.229481	4.765240	0.151632	-0.502537	0.453317	-0.546353	-0.421614	0.340980	-0.638336
60389	8.955920	0.208222	4.480326	0.151989	-0.323261	0.197184	-0.545187	-0.423237	0.340385	-0.638576
60390	8.973509	0.328105	4.336611	0.025711	-0.230671	0.156454	-0.543963	-0.424975	0.340043	-0.638648
60391	9.136354	0.249877	4.320122	0.106053	-0.155658	0.294901	-0.542999	-0.426204	0.339828	-0.638763
60392	9.091702	0.197700	4.374828	0.176967	-0.220709	0.274791	-0.542510	-0.426573	0.339266	-0.639231
60393	9.104820	0.305523	4.502089	0.099996	-0.346251	0.342607	-0.542330	-0.426907	0.338711	-0.639456
60394	9.166367	0.128358	4.490172	0.275135	-0.280604	0.387604	-0.541739	-0.427605	0.338667	-0.639513
60395	9.159789	0.269693	4.458269	0.137162	-0.291783	0.372924	-0.541062	-0.428365	0.338342	-0.639750
60396	9.111515	0.187299	4.278315	0.192872	-0.146768	0.252103	-0.540506	-0.429163	0.338452	-0.639627
60397	9.207493	0.138693	4.309471	0.247131	-0.140960	0.350370	-0.539950	-0.429837	0.338586	-0.639573
60398	9.181190	0.111100	4.148377	0.246797	-0.017180	0.259770	-0.539425	-0.430391	0.338929	-0.639462
60399	9.185736	0.120669	3.968953	0.203168	0.131600	0.191626	-0.539008	-0.430759	0.338975	-0.639541
60400	9.206389	0.138800	3.977914	0.184968	0.130869	0.214740	-0.539193	-0.430348	0.338632	-0.639844
60401	9.128249	0.219436	4.207158	0.150260	-0.097137	0.239234	-0.539953	-0.429173	0.337678	-0.640495
60402	8.889826	0.139000	4.294856	0.251045	-0.221061	0.055550	-0.540931	-0.427754	0.336992	-0.640981
60403	8.981268	0.096759	4.086080	0.239555	0.045696	0.051845	-0.541875	-0.426367	0.336272	-0.641485
60404	9.134061	0.044708	4.293843	0.313727	-0.035137	0.275445	-0.542600	-0.425163	0.335919	-0.641857
60405	9.197556	0.053583	4.493714	0.331951	-0.165277	0.417358	-0.543194	-0.424327	0.335634	-0.642057
60406	9.150267	-0.013667	4.380206	0.377226	-0.063693	0.324740	-0.543550	-0.424296	0.335941	-0.641615
60407	9.401118	0.457537	3.810286	-0.201234	0.449247	0.329615	-0.543454	-0.424708	0.336230	-0.641272
60408	9.354040	0.329500	3.613553	-0.109880	0.629420	0.200111	-0.543705	-0.424222	0.335976	-0.641514
60409	9.139282	0.117534	4.056536	0.188653	0.200352	0.183313	-0.544036	-0.423694	0.335617	-0.641771
60410	9.360916	0.103045	4.270350	0.229036	0.121363	0.473519	-0.544514	-0.423084	0.335344	-0.641910
60411	9.186367	0.101713	4.260256	0.235934	0.073337	0.310968	-0.544912	-0.422617	0.334824	-0.642152
60412	9.034252	0.214847	4.251702	0.132408	0.008967	0.173464	-0.545153	-0.422427	0.334394	-0.642296
60413	9.009196	0.386935	4.373316	-0.010050	-0.131818	0.208477	-0.545343	-0.422255	0.333978	-0.642465
60414	9.093020	0.170756	4.508659	0.223505	-0.166389	0.334358	-0.545578	-0.421954	0.333859	-0.642525
60415	9.157495	0.153883	4.537424	0.241384	-0.155341	0.404417	-0.545768	-0.421777	0.333775	-0.642523
60416	9.070658	0.371478	4.535296	0.031966	-0.230469	0.332735	-0.545852	-0.421794	0.333912	-0.642369
60417	9.191670	0.216209	4.391653	0.152810	-0.025044	0.375354	-0.545892	-0.421892	0.333991	-0.642230
60418	9.275052	0.093612	4.529074	0.296432	-0.089893	0.504866	-0.546072	-0.421881	0.334068	-0.642044
60419	9.273833	0.228633	4.541483	0.165726	-0.126878	0.513869	-0.546414	-0.421579	0.334354	-0.641802
60420	9.195289	0.204919	4.345977	0.153678	0.017288	0.358789	-0.546737	-0.421293	0.334719	-0.641525
60421	9.202231	0.151468	4.148891	0.166006	0.204471	0.279286	-0.547106	-0.420913	0.335110	-0.641256
60422	9.246065	0.171070	4.381981	0.182844	0.013907	0.418985	-0.547527	-0.420490	0.335455	-0.640993
60423	9.190897	0.214538	4.427918	0.147515	-0.055738	0.390263	-0.547959	-0.420097	0.335691	-0.640758
60424	9.199543	0.049397	4.221772	0.270068	0.164890	0.304489	-0.548387	-0.419705	0.335809	-0.640587
60425	9.173734	0.114910	4.186856	0.199466	0.178048	0.268427	-0.548791	-0.419376	0.335859	-0.640430
60426	9.080131	0.175871	4.252079	0.155590	0.073965	0.213788	-0.549145	-0.419149	0.335871	-0.640269
60427	9.079179	0.175148	4.380776	0.179893	-0.035479	0.267974	-0.549482	-0.418914	0.335794	-0.640174
60428	9.095558	0.175790	4.330618	0.169687	0.021569	0.261292	-0.549860	-0.418585	0.335806	-0.640059
60429	9.174833	0.170987	4.224390	0.151535	0.155849	0.287066	-0.550174	-0.418317	0.335801	-0.639967
60430	9.274559	0.251565	4.372719	0.092236	0.058724	0.443503	-0.550546	-0.417913	0.335835	-0.639892
60431	9.275042	0.155468	4.371115	0.181945	0.088625	0.439933	-0.551188	-0.417047	0.335787	-0.639930
60432	9.148725	0.266709	4.510699	0.098678	-0.096565	0.390138	-0.551483	-0.416727	0.335616	-0.639973
60433	9.167168	0.246792	4.448196	0.106267	-0.021964	0.379101	-0.551798	-0.416438	0.335508	-0.639948
60434	9.238926	0.187179	4.503887	0.169451	-0.016098	0.465872	-0.552353	-0.415679	0.335086	-0.640183
60435	9.113849	0.165563	4.562663	0.201940	-0.095730	0.378365	-0.553000	-0.414702	0.334579	-0.640524
60436	9.020487	0.186311	4.483651	0.169142	-0.055516	0.260809	-0.553186	-0.414503	0.334537	-0.640513
60437	9.197694	0.314578	4.456269	0.027790	0.027075	0.412447	-0.553285	-0.414255	0.334659	-0.640524
60438	9.083461	0.110022	4.593554	0.253343	-0.104326	0.363119	-0.553423	-0.413888	0.334603	-0.640672
60439	9.059212	0.020429	4.479340	0.321307	0.003286	0.288351	-0.553469	-0.413924	0.334748	-0.640533
60440	9.341579	0.202159	4.483970	0.130399	0.090051	0.550075	-0.553707	-0.413792	0.334900	-0.640333
60441	9.189270	0.431879	4.636163	-0.062902	-0.145611	0.487703	-0.553853	-0.413607	0.334563	-0.640503
60442	9.014529	0.230878	4.319314	0.090544	0.100021	0.184978	-0.553917	-0.413479	0.334241	-0.640698
60443	9.093233	0.211964	4.369823	0.113137	0.099430	0.277133	-0.554088	-0.413197	0.334225	-0.640740
60444	9.194172	0.229336	4.492189	0.109635	0.040575	0.422130	-0.554233	-0.412866	0.333936	-0.640979
60445	9.032563	0.192015	4.526518	0.157889	-0.041347	0.291113	-0.554410	-0.412462	0.333392	-0.641369
60446	8.992844	0.289202	4.568807	0.070444	-0.103261	0.277568	-0.554421	-0.412393	0.333261	-0.641471
60447	9.112122	0.166672	4.477013	0.169572	0.055577	0.339669	-0.554414	-0.412269	0.333053	-0.641666
60448	9.127642	0.142615	4.548558	0.204116	0.006646	0.384463	-0.554362	-0.412285	0.332989	-0.641734
60449	9.202504	0.322506	4.576097	0.028061	-0.014277	0.469810	-0.554284	-0.412291	0.332882	-0.641853
60450	9.117445	0.362274	4.546841	-0.012766	-0.031813	0.381999	-0.554168	-0.412291	0.332814	-0.641989
60451	9.089053	0.184189	4.665298	0.182762	-0.115410	0.403138	-0.554086	-0.412215	0.332625	-0.642206
60452	9.152794	0.137864	4.597533	0.212705	-0.017747	0.428621	-0.554019	-0.412214	0.332651	-0.642250
60453	9.166180	0.273347	4.508045	0.062284	0.042990	0.405449	-0.553922	-0.412219	0.332659	-0.642327
60454	9.113923	0.287359	4.504217	0.048760	0.019849	0.357434	-0.553804	-0.412234	0.332716	-0.642390
60455	9.129895	0.244335	4.448145	0.079169	0.083325	0.345436	-0.553732	-0.412199	0.332696	-0.642485
60456	9.113744	0.189291	4.568642	0.152945	-0.019546	0.382648	-0.553685	-0.412138	0.332700	-0.642561
60457	9.122447	0.178463	4.510881	0.151795	0.037736	0.364467	-0.553636	-0.412100	0.332689	-0.642635
60458	9.089841	0.202092	4.485228	0.124293	0.043056	0.324670	-0.553620	-0.412012	0.332654	-0.642722
60459	9.006360	0.156609	4.488417	0.171878	0.012449	0.249879	-0.553654	-0.411906	0.332721	-0.642727
60460	8.981959	0.167343	4.528003	0.167840	-0.033856	0.245995	-0.553709	-0.411814	0.332708	-0.642745
60461	9.046993	0.191807	4.507789	0.135363	0.010936	0.296051	-0.553889	-0.411554	0.332785	-0.642717
60462	9.143541	0.241802	4.561008	0.088023	0.000431	0.407775	-0.554025	-0.411380	0.332896	-0.642653
60463	9.133226	0.250018	4.621967	0.088713	-0.057468	0.425952	-0.554230	-0.411160	0.332997	-0.642565
60464	9.080049	0.153492	4.496259	0.163560	0.047629	0.319350	-0.554433	-0.410984	0.333139	-0.642429
60465	9.110697	0.170829	4.477791	0.140336	0.075549	0.339120	-0.554614	-0.410793	0.333263	-0.642330
60466	9.048028	0.245266	4.580412	0.085571	-0.054819	0.331119	-0.554730	-0.410683	0.333408	-0.642225
60467	9.038839	0.246661	4.545503	0.078121	-0.029185	0.307396	-0.554789	-0.410672	0.333493	-0.642137
60468	9.016488	0.260430	4.519990	0.061894	-0.020865	0.276462	-0.554830	-0.410734	0.333599	-0.642007
60469	9.126207	0.332245	4.543849	-0.010717	-0.005903	0.387531	-0.555117	-0.410473	0.333792	-0.641826
60470	9.086742	0.309097	4.644731	0.026713	-0.103397	0.396452	-0.555767	-0.409778	0.334051	-0.641573
60471	9.005128	0.142138	4.483912	0.164264	0.037485	0.246617	-0.556475	-0.409136	0.334297	-0.641240
60472	9.010445	0.017141	4.431210	0.275870	0.113755	0.223994	-0.557104	-0.408591	0.334481	-0.640945
60473	9.113957	0.286366	4.920037	0.076693	-0.302973	0.543725	-0.558042	-0.407389	0.334784	-0.640736
60474	8.824956	-0.041463	4.972508	0.409969	-0.408368	0.300301	-0.559337	-0.405967	0.335113	-0.640338
60475	9.179661	0.070661	4.673101	0.232054	0.000905	0.485623	-0.560118	-0.405765	0.335955	-0.639341
60476	9.419383	0.253961	4.527245	0.018734	0.205904	0.639225	-0.560920	-0.405219	0.336303	-0.638801
60477	9.257640	0.073661	4.672613	0.224352	0.036959	0.555096	-0.561349	-0.404861	0.336472	-0.638562
60478	8.864976	0.702485	5.099250	-0.318191	-0.596675	0.416013	-0.562294	-0.403967	0.336045	-0.638522
60479	9.047447	0.309841	4.670707	-0.005375	-0.069038	0.373725	-0.563059	-0.403322	0.337057	-0.637721
60480	9.131022	0.261819	4.494952	0.005045	0.126248	0.367330	-0.563845	-0.402614	0.338036	-0.636956
60481	9.092928	0.250413	4.808233	0.054513	-0.167271	0.474790	-0.564633	-0.401967	0.338784	-0.636268
60482	8.973133	0.072528	4.872111	0.236245	-0.250395	0.392278	-0.565593	-0.401012	0.339468	-0.635653
60483	8.934840	-0.040416	4.946301	0.352322	-0.320782	0.388874	-0.566189	-0.400706	0.340467	-0.634781
60484	9.034831	0.187959	4.899122	0.111940	-0.279287	0.462250	-0.566795	-0.400578	0.341662	-0.633678
60485	9.172305	0.415224	4.812363	-0.133652	-0.192005	0.551079	-0.567241	-0.400597	0.343203	-0.632433
60486	9.107768	0.218451	4.883338	0.066291	-0.281026	0.519919	-0.567634	-0.400443	0.344583	-0.631427
60487	8.917349	-0.073307	4.968049	0.366380	-0.425134	0.380006	-0.568006	-0.400433	0.345866	-0.630396
60488	8.962085	0.062491	4.711831	0.198046	-0.223309	0.308332	-0.568108	-0.401119	0.347332	-0.629060
60489	9.036973	0.231456	4.723541	0.033372	-0.258263	0.383603	-0.568137	-0.401991	0.348795	-0.627667
60490	8.910397	0.061030	4.610073	0.197590	-0.234596	0.215145	-0.568030	-0.402994	0.350584	-0.626122
60491	8.831290	0.091330	4.646771	0.176349	-0.349641	0.159223	-0.567867	-0.403881	0.352288	-0.624740
60492	9.038924	0.153830	4.819595	0.132785	-0.461974	0.420745	-0.567638	-0.405000	0.353359	-0.623618
60493	8.937792	0.201316	4.730354	0.085020	-0.470450	0.290391	-0.567218	-0.406151	0.354780	-0.622444
60494	8.890088	0.107010	4.602262	0.167356	-0.408303	0.188866	-0.566873	-0.407074	0.356494	-0.621175
60495	8.795270	-0.024969	4.843454	0.329491	-0.693624	0.198637	-0.566290	-0.408303	0.357771	-0.620164
60496	9.132479	-0.455309	4.736838	0.737432	-0.460257	0.448462	-0.565483	-0.409623	0.359864	-0.618818
60497	9.368018	-0.186812	4.563523	0.445562	-0.299389	0.595572	-0.564278	-0.411469	0.361824	-0.617549
60498	9.318050	0.181767	4.716253	0.098810	-0.566353	0.616657	-0.562927	-0.413346	0.363820	-0.616355
60499	9.127389	0.455058	4.474876	-0.198571	-0.514000	0.347871	-0.561737	-0.414523	0.365783	-0.615487
60500	9.335224	-0.142558	4.063008	0.332455	-0.047030	0.363841	-0.560420	-0.415532	0.368099	-0.614627
60501	9.199993	-0.149291	4.033100	0.326429	-0.123778	0.227532	-0.558798	-0.416808	0.369502	-0.614397
60502	9.202765	0.296856	4.348028	-0.093120	-0.510495	0.356621	-0.557519	-0.417944	0.371384	-0.613653
60503	9.215020	0.495404	4.620718	-0.271828	-0.827524	0.470998	-0.556684	-0.418729	0.373191	-0.612778
60504	9.037774	0.024809	4.125373	0.138020	-0.439462	0.111434	-0.555802	-0.419783	0.375724	-0.611308
60505	9.428618	-0.275269	3.621756	0.367136	0.128039	0.283843	-0.554375	-0.421971	0.378590	-0.609326
60506	9.441196	0.048988	3.717586	0.055555	-0.069642	0.333775	-0.553115	-0.423821	0.380758	-0.607834
60507	9.543380	0.173758	3.747859	-0.067947	-0.138714	0.440537	-0.552271	-0.425140	0.382747	-0.606430
60508	9.496248	0.187487	3.670760	-0.088614	-0.135762	0.368762	-0.551746	-0.426073	0.384337	-0.605247
60509	9.351703	-0.357055	3.501849	0.438395	-0.023310	0.169885	-0.550865	-0.427338	0.386527	-0.603760
60510	9.514006	0.333788	3.103522	-0.300453	0.255916	0.192464	-0.549148	-0.429206	0.390138	-0.601673
60511	9.940913	0.160268	2.522491	-0.212165	0.878471	0.404614	-0.548296	-0.429748	0.393501	-0.599870
60512	9.243268	0.090271	2.673833	-0.120965	0.465515	-0.202063	-0.547891	-0.430089	0.395128	-0.598926
60513	9.475448	0.086619	2.803626	-0.115245	0.376741	0.061344	-0.547647	-0.430977	0.397249	-0.597105
60514	9.717257	-0.229371	2.648198	0.182388	0.583007	0.243024	-0.547585	-0.431734	0.398937	-0.595488
60515	10.284578	-0.270545	2.244876	0.177472	1.093145	0.659104	-0.547301	-0.432700	0.401410	-0.593382
60516	10.052746	0.036995	1.884567	-0.151280	1.298114	0.331408	-0.547547	-0.432537	0.402383	-0.592615
60517	9.605957	-0.003284	2.359631	-0.064262	0.712613	0.052926	-0.547854	-0.431921	0.402394	-0.592772
60518	9.223406	-0.098768	2.900613	0.079648	0.101307	-0.144290	-0.548184	-0.431355	0.402275	-0.592960
60519	9.396561	-0.065692	3.072953	0.051749	-0.013439	0.073659	-0.548342	-0.431290	0.403265	-0.592189
