// General information: 
//  MT Manager version: 2021.0.0 
//  XDA version: 2021.0.0 build 5908 rev 109668 built on 2021-04-19
// Device information: 
//  DeviceId: 00B43DF3
//  ProductCode: MTW2-3A7G6
//  Firmware Version: 4.3.5
//  Hardware Version: 1.1.0
// Device settings: 
//  Filter Profile: human(46.1)
//  Option Flags: Orientation Smoother Disabled, Position/Velocity Smoother Disabled, Continuous Zero Rotation Update Disabled, AHS Disabled, ICC Disabled
// Coordinate system: ENU
PacketCounter	Acc_X	Acc_Y	Acc_Z	FreeAcc_E	FreeAcc_N	FreeAcc_U	Quat_q0	Quat_q1	Quat_q2	Quat_q3
59330	10.902417	0.001882	0.648799	-0.625758	0.813948	1.060654	-0.453756	0.513024	0.496759	0.533051
59331	10.664559	0.411983	0.413471	-0.223252	0.544956	0.851583	-0.455322	0.511735	0.498565	0.531265
59332	10.244388	0.815101	0.261638	0.193212	0.364169	0.459137	-0.456645	0.510714	0.500138	0.529631
59333	9.849847	1.047658	0.148167	0.444153	0.236793	0.081032	-0.457643	0.510036	0.501183	0.528433
59334	9.613639	1.060636	0.167297	0.477930	0.257686	-0.154522	-0.458194	0.509809	0.501660	0.527722
59335	9.424324	0.929965	0.161945	0.364555	0.262131	-0.351856	-0.458305	0.510008	0.501620	0.527471
59336	9.457035	0.674307	0.088290	0.109125	0.210742	-0.334203	-0.458011	0.510628	0.501272	0.527458
59337	9.548495	0.370358	-0.033602	-0.201344	0.118261	-0.259807	-0.457553	0.511354	0.500904	0.527501
59338	9.553873	0.240518	-0.030000	-0.325878	0.140484	-0.262332	-0.456949	0.512091	0.500724	0.527481
59339	9.571700	0.208210	-0.048261	-0.358278	0.138042	-0.246305	-0.456219	0.512789	0.500757	0.527403
59340	9.639274	0.219073	-0.057340	-0.352010	0.145196	-0.178276	-0.455557	0.513360	0.500994	0.527195
59341	9.784835	0.178102	-0.071111	-0.402332	0.153919	-0.035459	-0.454925	0.513960	0.501152	0.527006
59342	9.832350	0.188094	-0.142461	-0.399767	0.098413	0.013871	-0.454314	0.514579	0.501250	0.526835
59343	9.852370	0.251162	-0.211172	-0.341888	0.039991	0.039134	-0.453754	0.515192	0.501321	0.526652
59344	9.841295	0.288261	-0.241613	-0.304239	0.020090	0.031071	-0.453240	0.515806	0.501358	0.526458
59345	9.888441	0.358117	-0.267945	-0.236545	0.001070	0.083037	-0.452778	0.516387	0.501234	0.526403
59346	9.867281	0.349172	-0.199377	-0.235407	0.076888	0.059677	-0.452346	0.516947	0.500926	0.526519
59347	9.932057	0.300240	-0.135336	-0.279518	0.151036	0.119748	-0.451895	0.517490	0.500515	0.526763
59348	9.942248	0.190441	-0.023488	-0.377924	0.273443	0.120465	-0.451472	0.517926	0.500024	0.527165
59349	9.984912	0.072374	0.060537	-0.490815	0.366416	0.153867	-0.451092	0.518174	0.499514	0.527729
59350	9.912159	0.124922	0.166974	-0.428483	0.460010	0.081714	-0.450860	0.518119	0.499161	0.528314
59351	9.827108	0.172657	0.202806	-0.378433	0.482183	-0.001098	-0.450682	0.517985	0.498935	0.528811
59352	9.718191	0.250304	0.127428	-0.307789	0.392517	-0.103243	-0.450446	0.517878	0.498869	0.529179
59353	9.625629	0.375361	0.070782	-0.189235	0.321867	-0.186721	-0.450154	0.517842	0.498973	0.529364
59354	9.583764	0.440474	-0.034850	-0.137097	0.213405	-0.222097	-0.449729	0.517964	0.499108	0.529480
59355	9.570479	0.435578	-0.133071	-0.155025	0.122421	-0.233414	-0.449179	0.518219	0.499222	0.529588
59356	9.601163	0.404513	-0.220533	-0.200349	0.047913	-0.202684	-0.448535	0.518578	0.499315	0.529696
59357	9.577543	0.442333	-0.318437	-0.174947	-0.043415	-0.221343	-0.447828	0.518988	0.499429	0.529785
59358	9.670077	0.397450	-0.367922	-0.234490	-0.073336	-0.130572	-0.447025	0.519482	0.499546	0.529869
59359	9.834359	0.211621	-0.451166	-0.441900	-0.120319	0.023632	-0.446310	0.519900	0.499679	0.529937
59360	9.950561	0.071781	-0.453845	-0.592404	-0.094905	0.130392	-0.445902	0.520086	0.499904	0.529885
59361	9.956512	-0.008656	-0.414165	-0.671768	-0.041689	0.129683	-0.445956	0.519907	0.500239	0.529699
59362	9.909678	0.085106	-0.279520	-0.564894	0.082220	0.084849	-0.446387	0.519400	0.500727	0.529372
59363	9.894913	0.188911	-0.165909	-0.452551	0.182198	0.073389	-0.447059	0.518645	0.501343	0.528962
59364	9.823125	0.271110	-0.170104	-0.370219	0.163258	0.007318	-0.447788	0.517777	0.502009	0.528564
59365	9.806605	0.393401	-0.067735	-0.243131	0.248680	-0.004125	-0.448658	0.516725	0.502854	0.528052
59366	9.868179	0.498197	-0.240347	-0.163220	0.065202	0.069419	-0.449614	0.515565	0.503813	0.527458
59367	9.866407	0.622909	-0.169911	-0.038628	0.118629	0.074036	-0.450598	0.514382	0.504585	0.527035
59368	9.764117	0.704809	-0.105408	0.048691	0.163669	-0.024088	-0.451486	0.513243	0.505186	0.526811
59369	9.719557	0.778304	-0.073076	0.120843	0.178651	-0.064131	-0.452227	0.512248	0.505643	0.526705
59370	9.734923	0.764900	-0.101616	0.097959	0.141641	-0.048751	-0.452815	0.511381	0.505988	0.526711
59371	9.739436	0.747044	-0.182584	0.068029	0.053240	-0.043319	-0.453277	0.510674	0.506258	0.526740
59372	9.699492	0.686845	-0.180177	0.005644	0.049848	-0.087368	-0.453630	0.510079	0.506364	0.526910
59373	9.651202	0.721024	-0.258269	0.031732	-0.040856	-0.131283	-0.453884	0.509525	0.506442	0.527152
59374	9.662259	0.795230	-0.473359	0.082566	-0.268597	-0.110278	-0.453717	0.509275	0.506256	0.527716
59375	9.609294	0.897955	-0.586954	0.172864	-0.397469	-0.153417	-0.453351	0.509297	0.505903	0.528348
59376	9.778628	0.876202	-0.610926	0.131185	-0.423745	0.014100	-0.452785	0.509626	0.505055	0.529327
59377	9.624091	0.882614	-0.464076	0.154774	-0.295999	-0.142843	-0.452283	0.509984	0.503768	0.530637
59378	9.507924	0.789177	-0.319008	0.079691	-0.164979	-0.268496	-0.451804	0.510516	0.502335	0.531889
59379	9.633675	0.589070	-0.178655	-0.114237	-0.021194	-0.160066	-0.451395	0.511172	0.501050	0.532818
59380	9.851979	0.727849	-0.066903	0.023286	0.075363	0.066052	-0.450811	0.512041	0.500023	0.533443
59381	9.988490	0.791135	0.023587	0.091591	0.160603	0.205406	-0.450147	0.513021	0.499014	0.534006
59382	9.929731	1.117728	0.190757	0.442340	0.295740	0.167399	-0.449259	0.514112	0.497969	0.534679
59383	9.695227	1.046222	0.167105	0.391548	0.274102	-0.071461	-0.447878	0.515639	0.496571	0.535667
59384	9.606663	0.762087	0.158611	0.120472	0.294956	-0.179806	-0.446330	0.517249	0.495234	0.536643
59385	9.587316	0.672937	-0.004616	0.020911	0.150654	-0.202986	-0.444636	0.518968	0.494132	0.537405
59386	9.556075	0.667647	-0.153182	0.004621	0.016985	-0.232110	-0.442759	0.520778	0.493052	0.538196
59387	9.461924	0.693660	-0.157731	0.038257	0.022225	-0.324164	-0.440856	0.522582	0.491962	0.539006
59388	9.539151	0.638639	-0.199797	-0.024111	0.004381	-0.250127	-0.438943	0.524442	0.490791	0.539828
59389	9.614483	0.404350	-0.271106	-0.267065	-0.019559	-0.189613	-0.437172	0.526185	0.489646	0.540607
59390	9.653560	0.189589	-0.365925	-0.491174	-0.068749	-0.163073	-0.435625	0.527768	0.488679	0.541188
59391	9.713621	0.106140	-0.425828	-0.581440	-0.100160	-0.107075	-0.434556	0.528973	0.488007	0.541478
59392	9.787890	0.162097	-0.416455	-0.524029	-0.085029	-0.028994	-0.434030	0.529750	0.487621	0.541487
59393	9.869754	0.307105	-0.352006	-0.370216	-0.031106	0.061128	-0.433870	0.530225	0.487475	0.541282
59394	10.015996	0.373223	-0.415086	-0.315795	-0.092455	0.213453	-0.434058	0.530425	0.487506	0.540908
59395	10.157619	0.418586	-0.272792	-0.251876	0.047559	0.353980	-0.434648	0.530255	0.487619	0.540498
59396	9.986748	0.437133	-0.126956	-0.196167	0.178097	0.180917	-0.435293	0.529951	0.487654	0.540245
59397	9.858790	0.402523	-0.163068	-0.223488	0.136100	0.052194	-0.435884	0.529597	0.487773	0.540009
59398	9.735920	0.415304	-0.227633	-0.209958	0.061772	-0.067713	-0.436461	0.529171	0.488132	0.539637
59399	9.706226	0.388637	-0.168217	-0.225320	0.120737	-0.100591	-0.437094	0.528635	0.488624	0.539203
59400	9.723077	0.414483	-0.148891	-0.197835	0.134844	-0.082586	-0.437788	0.528037	0.489190	0.538713
59401	9.749134	0.436272	-0.118385	-0.173768	0.160285	-0.055942	-0.438524	0.527385	0.489732	0.538261
59402	9.748570	0.413881	-0.143019	-0.199351	0.135258	-0.057262	-0.439318	0.526671	0.490352	0.537748
59403	9.853510	0.387534	-0.098504	-0.226863	0.182493	0.044633	-0.440237	0.525806	0.491101	0.537159
59404	9.830870	0.464811	-0.144379	-0.156236	0.122200	0.028225	-0.441313	0.524758	0.491987	0.536489
59405	9.691939	0.475629	-0.196573	-0.145383	0.059744	-0.108367	-0.442243	0.523812	0.492757	0.535940
59406	9.588245	0.445361	-0.256688	-0.178565	-0.002985	-0.212334	-0.443161	0.522827	0.493725	0.535253
59407	9.625919	0.543513	-0.271003	-0.087586	-0.027623	-0.168066	-0.444098	0.521851	0.494796	0.534440
59408	9.695841	0.439761	-0.310581	-0.201270	-0.053174	-0.104143	-0.444947	0.520946	0.495766	0.533717
59409	9.705479	0.459900	-0.271153	-0.179929	-0.015815	-0.094214	-0.445821	0.520003	0.496778	0.532965
59410	9.721096	0.486621	-0.275960	-0.157681	-0.021751	-0.076809	-0.446593	0.519112	0.497825	0.532210
59411	9.689923	0.463771	-0.240734	-0.178263	0.017129	-0.110339	-0.447281	0.518276	0.498862	0.531476
59412	9.641133	0.518296	-0.323915	-0.132093	-0.068133	-0.153345	-0.447956	0.517492	0.499961	0.530638
59413	9.680013	0.539147	-0.376427	-0.120984	-0.114743	-0.111800	-0.448567	0.516777	0.501082	0.529761
59414	9.743741	0.579883	-0.423323	-0.090634	-0.156440	-0.044204	-0.449154	0.516102	0.502074	0.528982
59415	9.754420	0.542342	-0.411224	-0.129195	-0.135572	-0.036344	-0.449665	0.515503	0.502937	0.528310
59416	9.795587	0.550028	-0.428395	-0.127642	-0.147587	0.005739	-0.450139	0.514905	0.503753	0.527712
59417	9.813806	0.587445	-0.375167	-0.089786	-0.093395	0.024988	-0.450578	0.514326	0.504499	0.527190
59418	9.825112	0.574397	-0.331713	-0.103187	-0.046987	0.034137	-0.450973	0.513761	0.505083	0.526844
59419	9.826826	0.584738	-0.290023	-0.093209	-0.006416	0.035349	-0.451322	0.513255	0.505551	0.526590
59420	9.817996	0.571453	-0.305517	-0.110189	-0.022761	0.026026	-0.451642	0.512797	0.505889	0.526436
59421	9.781113	0.544053	-0.220836	-0.131695	0.059388	-0.015032	-0.451905	0.512390	0.506109	0.526395
59422	9.712073	0.551505	-0.234897	-0.123841	0.038353	-0.082996	-0.452147	0.512005	0.506248	0.526428
59423	9.691247	0.529030	-0.160819	-0.142644	0.108578	-0.107335	-0.452307	0.511683	0.506344	0.526512
59424	9.674182	0.523243	-0.163813	-0.150988	0.100926	-0.124683	-0.452395	0.511420	0.506355	0.526680
59425	9.679705	0.549975	-0.195540	-0.130552	0.063613	-0.116487	-0.452471	0.511180	0.506425	0.526782
59426	9.727725	0.542918	-0.255799	-0.148071	0.002821	-0.067592	-0.452565	0.510974	0.506517	0.526812
59427	9.752542	0.564807	-0.246830	-0.129281	0.008230	-0.041545	-0.452683	0.510787	0.506534	0.526876
59428	9.778785	0.570250	-0.222829	-0.125248	0.028184	-0.015596	-0.452792	0.510638	0.506407	0.527049
59429	9.769774	0.573734	-0.227328	-0.122265	0.017328	-0.024221	-0.452890	0.510529	0.506197	0.527272
59430	9.761594	0.580925	-0.211087	-0.114075	0.026514	-0.032246	-0.452961	0.510427	0.505981	0.527517
59431	9.746071	0.557191	-0.199133	-0.137170	0.033401	-0.049692	-0.452965	0.510332	0.505748	0.527828
59432	9.754046	0.503865	-0.256540	-0.196578	-0.025906	-0.044279	-0.452966	0.510277	0.505499	0.528119
59433	9.738217	0.523049	-0.210666	-0.174546	0.012023	-0.059728	-0.453027	0.510138	0.505318	0.528374
59434	9.739808	0.531640	-0.163248	-0.164576	0.052590	-0.058545	-0.453103	0.509965	0.505175	0.528613
59435	9.696461	0.562179	-0.150718	-0.132254	0.056495	-0.099839	-0.453191	0.509790	0.505118	0.528760
59436	9.738160	0.592481	-0.131855	-0.105580	0.070060	-0.056452	-0.453274	0.509617	0.505094	0.528879
59437	9.730331	0.581533	-0.124504	-0.117346	0.073742	-0.065184	-0.453367	0.509434	0.505034	0.529034
59438	9.715243	0.539269	-0.121076	-0.160396	0.075119	-0.083348	-0.453453	0.509222	0.504999	0.529198
59439	9.815915	0.565223	-0.112900	-0.143853	0.078880	0.018767	-0.453647	0.508903	0.505054	0.529285
59440	9.818545	0.618375	-0.190173	-0.099118	-0.007538	0.026647	-0.453931	0.508545	0.505103	0.529339
59441	9.729539	0.560067	-0.148173	-0.149482	0.030082	-0.067109	-0.454150	0.508263	0.505049	0.529473
59442	9.704262	0.559739	-0.140742	-0.149177	0.031115	-0.092472	-0.454402	0.507938	0.505115	0.529507
59443	9.710276	0.631340	-0.116943	-0.078420	0.044909	-0.081626	-0.454692	0.507585	0.505210	0.529506
59444	9.690930	0.654815	-0.146663	-0.057239	0.008161	-0.098725	-0.454944	0.507284	0.505250	0.529539
59445	9.710341	0.609099	-0.132960	-0.104469	0.020324	-0.082935	-0.455198	0.506983	0.505299	0.529563
59446	9.726627	0.637579	-0.113159	-0.077069	0.034459	-0.064895	-0.455400	0.506744	0.505382	0.529537
59447	9.733300	0.642072	-0.152773	-0.076599	-0.008340	-0.057341	-0.455582	0.506542	0.505424	0.529534
59448	9.758050	0.662843	-0.142970	-0.057841	-0.002899	-0.031278	-0.455762	0.506327	0.505452	0.529558
59449	9.785289	0.628844	-0.132679	-0.093760	0.006075	-0.006766	-0.455893	0.506173	0.505380	0.529661
59450	9.743241	0.595616	-0.162725	-0.126496	-0.026603	-0.050758	-0.455995	0.506045	0.505312	0.529761
59451	9.743298	0.595717	-0.158859	-0.126944	-0.026122	-0.050762	-0.456088	0.505913	0.505296	0.529823
59452	9.717477	0.590650	-0.174825	-0.131834	-0.045144	-0.076704	-0.456216	0.505773	0.505281	0.529860
59453	9.734397	0.599069	-0.163071	-0.124401	-0.036506	-0.059372	-0.456322	0.505645	0.505278	0.529895
59454	9.725347	0.625692	-0.143334	-0.096251	-0.021822	-0.066680	-0.456478	0.505498	0.505242	0.529934
59455	9.752461	0.614721	-0.106552	-0.107018	0.012707	-0.040885	-0.456567	0.505385	0.505199	0.530006
59456	9.678850	0.579980	-0.073706	-0.134693	0.043869	-0.117231	-0.456628	0.505292	0.505171	0.530069
59457	9.661382	0.590731	-0.073320	-0.123058	0.041694	-0.133857	-0.456668	0.505255	0.505166	0.530074
59458	9.704263	0.580131	-0.071544	-0.136352	0.044296	-0.091893	-0.456685	0.505268	0.505142	0.530071
59459	9.712832	0.571382	-0.080719	-0.145442	0.036083	-0.083882	-0.456717	0.505297	0.505155	0.530003
59460	9.748432	0.551566	-0.057297	-0.164859	0.061922	-0.050084	-0.456785	0.505311	0.505173	0.529914
59461	9.774922	0.558277	-0.017383	-0.155680	0.101965	-0.023589	-0.456891	0.505317	0.505175	0.529815
59462	9.739587	0.573681	-0.040484	-0.137160	0.077087	-0.057404	-0.457032	0.505301	0.505176	0.529708
59463	9.747995	0.610461	0.005372	-0.095939	0.119982	-0.046803	-0.457166	0.505287	0.505163	0.529618
59464	9.756126	0.596503	-0.023147	-0.110234	0.091726	-0.039367	-0.457276	0.505284	0.505126	0.529560
59465	9.749060	0.562178	-0.026318	-0.141958	0.089885	-0.048842	-0.457404	0.505284	0.505105	0.529469
59466	9.728869	0.621187	-0.047649	-0.080845	0.064139	-0.064437	-0.457479	0.505335	0.505059	0.529402
59467	9.752135	0.650623	-0.075819	-0.052555	0.035024	-0.038783	-0.457485	0.505463	0.504997	0.529332
59468	9.782778	0.688095	-0.127108	-0.018150	-0.017312	-0.004948	-0.457440	0.505642	0.504847	0.529343
59469	9.836993	0.640716	-0.087457	-0.064441	0.025745	0.045293	-0.457394	0.505768	0.504663	0.529438
59470	9.789273	0.586051	-0.063599	-0.112814	0.050831	-0.006462	-0.457293	0.505894	0.504443	0.529614
59471	9.729700	0.586317	-0.070854	-0.108258	0.040998	-0.065767	-0.457200	0.506013	0.504248	0.529767
59472	9.764191	0.559294	-0.085732	-0.138095	0.026768	-0.033127	-0.457116	0.506116	0.504044	0.529934
59473	9.780844	0.515696	-0.149280	-0.186187	-0.035724	-0.018955	-0.457061	0.506232	0.503796	0.530108
59474	9.772508	0.521435	-0.136407	-0.177988	-0.026549	-0.026982	-0.457086	0.506259	0.503581	0.530264
59475	9.832401	0.495017	-0.149924	-0.208614	-0.041279	0.031011	-0.457203	0.506190	0.503445	0.530358
59476	9.864103	0.542012	-0.154726	-0.163834	-0.053500	0.066004	-0.457388	0.506042	0.503335	0.530445
59477	9.714486	0.479958	-0.143980	-0.214234	-0.046450	-0.087757	-0.457533	0.505901	0.503148	0.530631
59478	9.655579	0.535453	-0.051971	-0.148956	0.034894	-0.143343	-0.457725	0.505695	0.503078	0.530729
59479	9.623686	0.533994	0.017082	-0.144341	0.099200	-0.175774	-0.457817	0.505550	0.503057	0.530808
59480	9.697496	0.518376	-0.083970	-0.173138	-0.002071	-0.102527	-0.457900	0.505414	0.503108	0.530817
59481	9.749373	0.482287	-0.096766	-0.215079	-0.013619	-0.053292	-0.458077	0.505151	0.503269	0.530762
59482	9.760159	0.471956	-0.028980	-0.223348	0.052860	-0.043777	-0.458347	0.504811	0.503519	0.530615
59483	9.749942	0.464611	-0.099210	-0.235931	-0.018158	-0.054045	-0.458682	0.504443	0.503863	0.530349
59484	9.741225	0.495649	-0.061850	-0.202585	0.016575	-0.060783	-0.459112	0.504023	0.504290	0.529970
59485	9.731064	0.538131	-0.058996	-0.159669	0.016715	-0.067899	-0.459588	0.503554	0.504790	0.529527
59486	9.677873	0.614648	-0.030848	-0.078696	0.040238	-0.115670	-0.460033	0.503074	0.505324	0.529088
59487	9.691548	0.670518	-0.064511	-0.027018	0.005318	-0.097797	-0.460423	0.502657	0.505872	0.528621
59488	9.706845	0.742643	-0.017991	0.045444	0.050581	-0.077696	-0.460690	0.502344	0.506324	0.528254
59489	9.698059	0.774597	0.015303	0.078786	0.085309	-0.084425	-0.460732	0.502258	0.506598	0.528036
59490	9.664341	0.758287	-0.005172	0.062641	0.069407	-0.119093	-0.460564	0.502336	0.506732	0.527980
59491	9.691426	0.702116	-0.030251	0.001515	0.052849	-0.095958	-0.460241	0.502524	0.506835	0.527983
59492	9.711498	0.642167	-0.013334	-0.060527	0.079566	-0.080485	-0.459856	0.502804	0.506885	0.528005
59493	9.736800	0.643626	-0.020133	-0.061799	0.079558	-0.055138	-0.459471	0.503189	0.506826	0.528030
59494	9.761592	0.663003	-0.020822	-0.043108	0.085066	-0.029049	-0.458997	0.503728	0.506669	0.528078
59495	9.805010	0.654802	-0.006642	-0.051295	0.107795	0.013440	-0.458500	0.504322	0.506454	0.528149
59496	9.782232	0.572473	-0.039869	-0.130765	0.086704	-0.014894	-0.458000	0.504948	0.506216	0.528213
59497	9.777356	0.482712	-0.051266	-0.217154	0.088342	-0.026096	-0.457571	0.505526	0.506020	0.528220
59498	9.753290	0.439028	-0.070850	-0.256708	0.078276	-0.052954	-0.457216	0.506029	0.505858	0.528200
59499	9.753393	0.459152	-0.050154	-0.232019	0.104320	-0.051678	-0.456902	0.506485	0.505733	0.528155
59500	9.742872	0.518085	-0.047104	-0.169150	0.109984	-0.058024	-0.456589	0.506941	0.505616	0.528100
59501	9.743542	0.495344	-0.060211	-0.189559	0.104951	-0.058783	-0.456282	0.507376	0.505510	0.528049
59502	9.777391	0.486167	-0.076712	-0.199484	0.096276	-0.025422	-0.456015	0.507740	0.505475	0.527964
59503	9.777354	0.460513	-0.109576	-0.225084	0.071196	-0.026728	-0.455830	0.508008	0.505487	0.527854
59504	9.802102	0.455756	-0.135175	-0.231548	0.051158	-0.001930	-0.455727	0.508176	0.505511	0.527758
59505	9.826473	0.494126	-0.125067	-0.192916	0.062205	0.024908	-0.455729	0.508244	0.505558	0.527646
59506	9.844605	0.485458	-0.103855	-0.200302	0.085431	0.042021	-0.455799	0.508213	0.505593	0.527582
59507	9.802521	0.498585	-0.083355	-0.182624	0.103747	0.000611	-0.455933	0.508086	0.505693	0.527492
59508	9.776727	0.516521	-0.074798	-0.162301	0.110220	-0.024005	-0.456088	0.507955	0.505832	0.527351
59509	9.710177	0.579910	0.020798	-0.088317	0.200178	-0.087648	-0.456181	0.507850	0.505958	0.527251
59510	9.666165	0.582011	-0.020338	-0.086197	0.158336	-0.130674	-0.456242	0.507784	0.506037	0.527186
59511	9.746725	0.643423	-0.066927	-0.033541	0.110669	-0.045203	-0.456282	0.507768	0.506142	0.527067
59512	9.816377	0.696578	-0.185103	0.007010	-0.008506	0.030108	-0.456272	0.507773	0.506107	0.527103
59513	9.770237	0.631998	-0.127062	-0.050845	0.051025	-0.021472	-0.456115	0.507874	0.505879	0.527361
59514	9.697341	0.535747	-0.135493	-0.143384	0.045347	-0.100778	-0.455922	0.507989	0.505682	0.527606
59515	9.701804	0.473673	-0.080312	-0.202895	0.103943	-0.101670	-0.455772	0.508083	0.505586	0.527737
59516	9.751733	0.448627	-0.128654	-0.235342	0.057886	-0.052801	-0.455685	0.508131	0.505464	0.527884
59517	9.774366	0.500470	-0.147403	-0.187147	0.034372	-0.026256	-0.455709	0.508090	0.505381	0.527981
59518	9.848817	0.538327	-0.153910	-0.155391	0.024477	0.050778	-0.455771	0.508022	0.505318	0.528053
59519	9.844991	0.506302	-0.059499	-0.181112	0.117324	0.043131	-0.455830	0.507928	0.505200	0.528205
59520	9.746131	0.381517	-0.112396	-0.303116	0.066455	-0.063382	-0.455947	0.507758	0.505137	0.528327
59521	9.686545	0.407345	-0.089267	-0.273276	0.082037	-0.121369	-0.456193	0.507434	0.505236	0.528332
59522	9.711445	0.475966	-0.024017	-0.204337	0.138725	-0.092693	-0.456430	0.507106	0.505350	0.528333
59523	9.753039	0.459444	-0.059757	-0.228135	0.101356	-0.051841	-0.456677	0.506776	0.505532	0.528263
59524	9.763071	0.417624	-0.058984	-0.271966	0.102169	-0.044830	-0.457071	0.506351	0.505836	0.528039
59525	9.746175	0.409584	-0.064458	-0.280235	0.094424	-0.062180	-0.457573	0.505825	0.506272	0.527690
59526	9.693328	0.486611	-0.033658	-0.199189	0.117883	-0.109855	-0.458158	0.505200	0.506871	0.527206
59527	9.666690	0.690167	-0.083285	0.000856	0.056100	-0.121195	-0.458649	0.504653	0.507486	0.526712
59528	9.769408	0.847581	-0.118309	0.147177	0.015630	-0.006984	-0.458972	0.504300	0.507907	0.526362
59529	9.889790	0.829034	-0.086482	0.121601	0.051621	0.111288	-0.459250	0.504033	0.508177	0.526115
59530	9.869884	0.726149	-0.043207	0.023012	0.099608	0.083439	-0.459521	0.503784	0.508366	0.525933
59531	9.721135	0.649297	-0.021816	-0.041784	0.120744	-0.070706	-0.459764	0.503555	0.508489	0.525822
59532	9.570248	0.603396	-0.027545	-0.077032	0.112807	-0.224370	-0.459949	0.503396	0.508561	0.525743
59533	9.577675	0.634154	-0.022592	-0.046246	0.115648	-0.214822	-0.460001	0.503375	0.508609	0.525671
59534	9.743579	0.622615	-0.141565	-0.075125	0.001421	-0.048499	-0.460018	0.503401	0.508661	0.525581
59535	9.825517	0.619601	-0.228899	-0.087604	-0.082761	0.034270	-0.460026	0.503447	0.508683	0.525509
59536	9.882665	0.619229	-0.294617	-0.094047	-0.146449	0.092211	-0.460102	0.503465	0.508693	0.525414
59537	9.882351	0.635850	-0.287113	-0.074565	-0.140443	0.092984	-0.460221	0.503516	0.508569	0.525382
59538	9.798714	0.617493	-0.278965	-0.083737	-0.135521	0.008134	-0.460340	0.503535	0.508376	0.525446
59539	9.705608	0.622524	-0.273893	-0.069471	-0.136466	-0.084485	-0.460451	0.503567	0.508120	0.525564
59540	9.711032	0.518214	-0.227558	-0.168908	-0.088940	-0.087050	-0.460522	0.503622	0.507865	0.525697
59541	9.771454	0.470547	-0.246844	-0.219660	-0.109042	-0.029870	-0.460633	0.503610	0.507643	0.525826
59542	9.855712	0.459128	-0.273427	-0.236562	-0.138564	0.053693	-0.460832	0.503515	0.507483	0.525897
59543	9.861933	0.547262	-0.241776	-0.145943	-0.119118	0.065581	-0.461106	0.503331	0.507177	0.526129
59544	9.827477	0.590910	-0.207465	-0.096974	-0.098492	0.033754	-0.461321	0.503202	0.506722	0.526501
59545	9.857940	0.511439	-0.126998	-0.172154	-0.025817	0.057792	-0.461535	0.503123	0.506151	0.526938
59546	9.810984	0.416362	-0.104027	-0.260271	-0.012019	0.004221	-0.461823	0.502969	0.505579	0.527382
59547	9.811806	0.393271	-0.095458	-0.280680	-0.017066	0.003433	-0.462195	0.502745	0.505034	0.527791
59548	9.825706	0.436360	-0.152085	-0.239395	-0.092014	0.020533	-0.462696	0.502421	0.504512	0.528160
59549	9.775876	0.489725	-0.017496	-0.172304	0.020612	-0.026077	-0.463144	0.502181	0.503755	0.528718
59550	9.690997	0.536799	0.066545	-0.111202	0.082161	-0.107593	-0.463560	0.502012	0.502983	0.529249
59551	9.641468	0.517581	0.118456	-0.119493	0.118041	-0.158072	-0.463979	0.501882	0.502351	0.529605
59552	9.608066	0.493884	0.114916	-0.135532	0.102005	-0.192746	-0.464400	0.501809	0.501798	0.529829
59553	9.618068	0.444012	0.124603	-0.179372	0.102805	-0.185790	-0.464736	0.501795	0.501256	0.530061
59554	9.642611	0.445639	0.079631	-0.176291	0.048237	-0.161186	-0.464960	0.501878	0.500771	0.530245
59555	9.759947	0.454694	0.019614	-0.173242	-0.019359	-0.043691	-0.465133	0.501956	0.500399	0.530370
59556	9.800546	0.509201	0.014436	-0.117300	-0.034550	0.000326	-0.465372	0.501961	0.500030	0.530503
59557	9.791243	0.550480	0.045208	-0.069194	-0.014342	-0.006133	-0.465605	0.501985	0.499578	0.530702
59558	9.766789	0.527781	0.067848	-0.083544	0.001075	-0.031770	-0.465891	0.502028	0.499118	0.530844
59559	9.742905	0.488443	0.103966	-0.112661	0.031012	-0.057693	-0.466177	0.502108	0.498616	0.530989
59560	9.751617	0.465438	0.062350	-0.132148	-0.017270	-0.050680	-0.466475	0.502149	0.498206	0.531073
59561	9.734305	0.497446	0.115960	-0.090139	0.026122	-0.065443	-0.466820	0.502102	0.497814	0.531182
59562	9.742668	0.507599	0.142775	-0.074144	0.043529	-0.056140	-0.467110	0.502043	0.497454	0.531320
59563	9.758202	0.569825	0.179850	-0.006976	0.068867	-0.036453	-0.467381	0.501971	0.497181	0.531405
59564	9.699023	0.575689	0.216610	0.008192	0.098867	-0.094687	-0.467661	0.501891	0.496932	0.531467
59565	9.716345	0.556041	0.204505	-0.009613	0.082030	-0.078647	-0.467932	0.501821	0.496757	0.531458
59566	9.716892	0.528787	0.182494	-0.035200	0.056930	-0.079937	-0.468174	0.501714	0.496637	0.531458
59567	9.786193	0.461124	0.188995	-0.104288	0.062813	-0.014570	-0.468460	0.501536	0.496644	0.531368
59568	9.753077	0.434806	0.229716	-0.124729	0.101396	-0.048544	-0.468812	0.501266	0.496697	0.531262
59569	9.744463	0.433135	0.203160	-0.126872	0.070434	-0.057566	-0.469163	0.500946	0.496776	0.531181
59570	9.753417	0.405529	0.193053	-0.155958	0.056725	-0.050346	-0.469540	0.500544	0.496906	0.531105
59571	9.770384	0.399149	0.222045	-0.163421	0.079996	-0.033325	-0.469882	0.500098	0.497034	0.531102
59572	9.728966	0.353249	0.205883	-0.210657	0.061534	-0.077607	-0.470158	0.499663	0.497228	0.531086
59573	9.672928	0.214818	0.207116	-0.349875	0.067293	-0.141718	-0.470436	0.499110	0.497618	0.530995
59574	9.579838	0.214769	0.220923	-0.350226	0.080712	-0.234636	-0.470716	0.498466	0.498277	0.530733
59575	9.584906	0.351645	0.256486	-0.219726	0.111256	-0.221066	-0.470958	0.497860	0.499130	0.530286
59576	9.598477	0.479652	0.183759	-0.103830	0.038412	-0.201114	-0.471040	0.497426	0.499982	0.529818
59577	9.672553	0.554243	0.140706	-0.042744	-0.000295	-0.123341	-0.471027	0.497115	0.500763	0.529384
59578	9.656007	0.544356	0.176577	-0.055402	0.046531	-0.140008	-0.470884	0.497006	0.501439	0.528973
59579	9.699142	0.510263	0.119923	-0.099251	0.003721	-0.099900	-0.470583	0.497068	0.502089	0.528566
59580	9.725477	0.475796	0.093172	-0.140522	-0.007254	-0.076150	-0.470173	0.497262	0.502641	0.528223
59581	9.717266	0.459235	0.040440	-0.162608	-0.043767	-0.085950	-0.469710	0.497507	0.503204	0.527868
59582	9.816050	0.563793	0.056162	-0.066991	-0.017130	0.019456	-0.469249	0.497827	0.503714	0.527490
59583	9.914791	0.612760	-0.095657	-0.032719	-0.156447	0.120195	-0.468847	0.498181	0.504031	0.527210
59584	9.808270	0.525222	-0.013700	-0.109499	-0.058693	0.008859	-0.468422	0.498607	0.504105	0.527115
59585	9.709313	0.460056	0.032993	-0.165402	0.001357	-0.093833	-0.467995	0.499046	0.504210	0.526978
59586	9.717442	0.503498	0.086693	-0.119137	0.064412	-0.082766	-0.467554	0.499527	0.504355	0.526775
59587	9.725412	0.537843	0.098563	-0.083219	0.087360	-0.072664	-0.467035	0.500115	0.504443	0.526593
59588	9.760702	0.465682	0.035799	-0.158298	0.042152	-0.042191	-0.466439	0.500790	0.504518	0.526408
59589	9.836671	0.461684	0.000438	-0.166702	0.021471	0.033377	-0.465937	0.501367	0.504626	0.526200
59590	9.904567	0.474095	0.016751	-0.156088	0.049558	0.101881	-0.465560	0.501793	0.504728	0.526030
59591	9.863140	0.499851	0.087732	-0.122764	0.127880	0.061908	-0.465267	0.502140	0.504755	0.525932
59592	9.804201	0.480525	0.064319	-0.137825	0.112157	0.001884	-0.465001	0.502480	0.504760	0.525837
59593	9.736448	0.464432	0.029706	-0.149370	0.085025	-0.066639	-0.464733	0.502840	0.504783	0.525707
59594	9.726636	0.501104	0.004186	-0.111605	0.065122	-0.074008	-0.464441	0.503200	0.504814	0.525593
59595	9.775945	0.532258	-0.031071	-0.084377	0.035844	-0.022644	-0.464114	0.503535	0.504809	0.525565
59596	9.741770	0.534769	-0.047441	-0.080403	0.025284	-0.056499	-0.463781	0.503839	0.504805	0.525571
59597	9.751351	0.468004	-0.081732	-0.149387	0.000500	-0.050913	-0.463455	0.504154	0.504772	0.525589
59598	9.786281	0.472776	-0.035193	-0.143956	0.052139	-0.016127	-0.463209	0.504412	0.504734	0.525595
59599	9.753282	0.463026	-0.015936	-0.149582	0.076146	-0.049850	-0.463023	0.504656	0.504738	0.525520
59600	9.712288	0.464456	0.032110	-0.141352	0.128854	-0.091128	-0.462887	0.504871	0.504821	0.525353
59601	9.737681	0.439798	-0.000942	-0.167866	0.103386	-0.067073	-0.462752	0.505054	0.504943	0.525179
59602	9.797236	0.412278	-0.022844	-0.198832	0.088974	-0.009173	-0.462711	0.505171	0.505051	0.524999
59603	9.800477	0.372346	0.055752	-0.233288	0.173115	-0.009285	-0.462760	0.505165	0.505192	0.524826
59604	9.759102	0.370635	0.086571	-0.230223	0.205760	-0.051049	-0.462867	0.505077	0.505399	0.524617
59605	9.758989	0.437156	0.145548	-0.160516	0.262971	-0.047686	-0.463011	0.504955	0.505608	0.524406
59606	9.766769	0.468286	0.148240	-0.129778	0.265882	-0.038051	-0.463118	0.504854	0.505810	0.524214
59607	9.766703	0.444308	0.119381	-0.155358	0.240765	-0.039354	-0.463183	0.504782	0.506036	0.524008
59608	9.783556	0.429049	0.098348	-0.173195	0.223948	-0.023327	-0.463266	0.504668	0.506321	0.523768
59609	9.823351	0.461741	0.035975	-0.147649	0.163243	0.019112	-0.463331	0.504507	0.506579	0.523617
59610	9.838171	0.498844	-0.003938	-0.115993	0.122940	0.036673	-0.463401	0.504300	0.506802	0.523539
59611	9.803284	0.476015	-0.060731	-0.142276	0.066698	0.001076	-0.463453	0.504102	0.506959	0.523531
59612	9.745195	0.449613	-0.041691	-0.166881	0.085474	-0.058839	-0.463539	0.503872	0.507153	0.523488
59613	9.744734	0.471598	-0.034676	-0.147403	0.091489	-0.058030	-0.463589	0.503682	0.507379	0.523408
59614	9.759867	0.489442	-0.080400	-0.135688	0.045643	-0.041274	-0.463648	0.503471	0.507588	0.523356
59615	9.752487	0.464599	-0.063309	-0.162189	0.063733	-0.050490	-0.463676	0.503285	0.507757	0.523347
59616	9.794293	0.495568	-0.048077	-0.135931	0.077722	-0.006997	-0.463763	0.503086	0.507922	0.523301
59617	9.833934	0.480682	-0.160046	-0.160617	-0.034166	0.032919	-0.463927	0.502842	0.508058	0.523258
59618	9.759529	0.472453	-0.100442	-0.162666	0.021936	-0.042592	-0.464066	0.502648	0.508084	0.523296
59619	9.708824	0.471671	-0.095910	-0.161219	0.023073	-0.093304	-0.464145	0.502506	0.508117	0.523329
59620	9.708049	0.511604	-0.080293	-0.121797	0.034630	-0.091661	-0.464244	0.502359	0.508143	0.523357
59621	9.733014	0.508266	-0.098232	-0.128386	0.014713	-0.066773	-0.464366	0.502214	0.508153	0.523380
59622	9.783766	0.485463	-0.122937	-0.155881	-0.011072	-0.017359	-0.464515	0.502067	0.508149	0.523392
59623	9.766936	0.500231	-0.101582	-0.138970	0.006685	-0.033412	-0.464650	0.501957	0.508142	0.523385
59624	9.726301	0.459352	-0.079402	-0.175761	0.028192	-0.076849	-0.464791	0.501838	0.508187	0.523330
59625	9.692527	0.489653	-0.041123	-0.141466	0.063232	-0.108950	-0.464930	0.501708	0.508252	0.523268
59626	9.682174	0.547388	-0.051974	-0.083741	0.048866	-0.115397	-0.465042	0.501597	0.508342	0.523187
59627	9.760194	0.498481	-0.031763	-0.136608	0.071846	-0.040939	-0.465153	0.501499	0.508428	0.523099
59628	9.812094	0.464148	-0.024338	-0.173735	0.080643	0.008541	-0.465332	0.501335	0.508533	0.522995
59629	9.785628	0.497857	-0.028763	-0.138519	0.072469	-0.015608	-0.465580	0.501102	0.508632	0.522901
59630	9.768011	0.527796	-0.021358	-0.106833	0.075709	-0.031281	-0.465830	0.500900	0.508702	0.522803
59631	9.775411	0.553896	-0.034724	-0.081280	0.058577	-0.022048	-0.466062	0.500703	0.508754	0.522735
59632	9.782829	0.579948	-0.048036	-0.055719	0.041442	-0.012811	-0.466316	0.500501	0.508816	0.522642
59633	9.732159	0.601341	-0.016480	-0.029139	0.068140	-0.062236	-0.466596	0.500266	0.508849	0.522585
59634	9.681605	0.574417	-0.037754	-0.052769	0.043631	-0.114225	-0.466818	0.500108	0.508828	0.522558
59635	9.680584	0.608271	-0.041978	-0.018518	0.035130	-0.113003	-0.466925	0.500015	0.508802	0.522576
59636	9.723018	0.568657	-0.084517	-0.062459	-0.007600	-0.072891	-0.466996	0.499937	0.508773	0.522616
59637	9.724146	0.533422	-0.074737	-0.097658	0.001829	-0.074125	-0.467042	0.499866	0.508774	0.522643
59638	9.741438	0.522024	-0.070820	-0.110359	0.005072	-0.057640	-0.467103	0.499797	0.508781	0.522647
59639	9.774842	0.558107	-0.045328	-0.075476	0.027750	-0.022151	-0.467204	0.499718	0.508748	0.522665
59640	9.775018	0.532829	-0.068887	-0.101063	0.002610	-0.023438	-0.467330	0.499638	0.508682	0.522692
59641	9.741276	0.538457	-0.056568	-0.091864	0.012020	-0.056817	-0.467440	0.499589	0.508642	0.522680
59642	9.733652	0.505591	-0.058192	-0.123529	0.010024	-0.066528	-0.467520	0.499528	0.508637	0.522672
59643	9.741890	0.492820	-0.086018	-0.137866	-0.018202	-0.058952	-0.467608	0.499428	0.508704	0.522623
59644	9.741251	0.507636	-0.098760	-0.123561	-0.032246	-0.058555	-0.467732	0.499319	0.508772	0.522550
59645	9.731645	0.573850	-0.069412	-0.055520	-0.006492	-0.064051	-0.467881	0.499192	0.508840	0.522472
59646	9.756863	0.621595	-0.015241	-0.006786	0.044896	-0.036138	-0.468024	0.499111	0.508862	0.522400
59647	9.798918	0.624737	-0.025831	-0.005707	0.033347	0.006101	-0.468092	0.499098	0.508817	0.522395
59648	9.784080	0.516102	-0.063519	-0.113595	-0.002273	-0.015458	-0.468141	0.499094	0.508697	0.522472
59649	9.827425	0.489006	-0.044329	-0.142087	0.015199	0.025959	-0.468391	0.498873	0.508737	0.522419
59650	9.809614	0.514396	-0.055731	-0.115548	-0.001625	0.009882	-0.468868	0.498446	0.508910	0.522231
59651	9.586036	0.376045	0.024595	-0.235636	0.077426	-0.222454	-0.469255	0.498122	0.509040	0.522066
59652	9.537899	0.260224	0.009378	-0.348595	0.065217	-0.277827	-0.469628	0.497717	0.509602	0.521568
59653	9.685613	0.454786	0.024219	-0.165969	0.079329	-0.118118	-0.469960	0.497177	0.510470	0.520935
59654	9.756737	0.645835	0.017439	0.014484	0.074268	-0.034877	-0.470107	0.496693	0.511295	0.520455
59655	9.735831	0.768365	-0.014183	0.130412	0.045079	-0.047548	-0.470050	0.496382	0.511814	0.520293
59656	9.726850	0.782228	-0.008636	0.138629	0.054179	-0.055566	-0.469780	0.496343	0.512008	0.520383
59657	9.777819	0.743421	-0.044546	0.091102	0.022907	-0.006996	-0.469438	0.496510	0.511989	0.520550
59658	9.794448	0.724256	-0.084915	0.068059	-0.013949	0.008623	-0.469078	0.496853	0.511792	0.520741
59659	9.796220	0.643625	-0.111377	-0.012186	-0.035694	0.005213	-0.468710	0.497337	0.511427	0.520970
59660	9.813790	0.551654	-0.209427	-0.105360	-0.129328	0.017411	-0.468364	0.497852	0.510962	0.521245
59661	9.890732	0.481613	-0.268977	-0.179001	-0.186481	0.090042	-0.468126	0.498271	0.510446	0.521565
59662	9.892290	0.471072	-0.210413	-0.183961	-0.131381	0.090467	-0.467993	0.498624	0.509822	0.521955
59663	9.801183	0.454059	-0.136058	-0.188422	-0.063735	-0.002065	-0.467878	0.498947	0.509136	0.522420
59664	9.733903	0.439705	-0.136817	-0.194569	-0.071060	-0.070099	-0.467749	0.499286	0.508510	0.522821
59665	9.699819	0.433653	-0.162331	-0.195640	-0.101801	-0.104327	-0.467671	0.499563	0.507999	0.523123
59666	9.675458	0.442016	-0.096410	-0.179636	-0.040874	-0.128410	-0.467634	0.499780	0.507573	0.523362
59667	9.667425	0.450196	-0.062930	-0.166251	-0.011713	-0.136016	-0.467630	0.499965	0.507209	0.523543
59668	9.718220	0.471639	-0.033769	-0.143666	0.013829	-0.084041	-0.467631	0.500123	0.506929	0.523661
59669	9.727005	0.436484	-0.067208	-0.177938	-0.019941	-0.077309	-0.467665	0.500219	0.506775	0.523688
59670	9.709796	0.469099	-0.041920	-0.141067	0.003349	-0.092500	-0.467732	0.500257	0.506756	0.523611
59671	9.759474	0.498720	-0.070456	-0.114014	-0.025722	-0.040924	-0.467842	0.500236	0.506805	0.523485
59672	9.733751	0.540143	-0.037084	-0.068438	0.006197	-0.064133	-0.467959	0.500168	0.506901	0.523352
59673	9.732899	0.574084	-0.045027	-0.034192	-0.002272	-0.062829	-0.468045	0.500108	0.507024	0.523214
59674	9.757275	0.633251	-0.027271	0.024120	0.014612	-0.034888	-0.468069	0.500069	0.507138	0.523118
59675	9.749356	0.625789	-0.005374	0.017561	0.038222	-0.043357	-0.468028	0.500071	0.507208	0.523087
59676	9.749742	0.582805	-0.039285	-0.027946	0.007526	-0.045506	-0.467897	0.500106	0.507242	0.523137
59677	9.725543	0.529056	-0.038726	-0.082058	0.011653	-0.073041	-0.467749	0.500125	0.507302	0.523193
59678	9.751713	0.496699	-0.033311	-0.118290	0.020815	-0.049015	-0.467561	0.500161	0.507399	0.523231
59679	9.744142	0.447689	-0.045820	-0.169876	0.013246	-0.059647	-0.467392	0.500187	0.507527	0.523234
59680	9.784968	0.513579	-0.041350	-0.109052	0.018448	-0.014788	-0.467267	0.500184	0.507676	0.523205
59681	9.768661	0.544039	0.035443	-0.076665	0.096362	-0.029600	-0.467160	0.500181	0.507780	0.523202
59682	9.758981	0.559818	-0.011294	-0.063954	0.050841	-0.037998	-0.467017	0.500244	0.507799	0.523251
59683	9.734877	0.505600	-0.010961	-0.118057	0.054959	-0.065553	-0.466814	0.500346	0.507785	0.523348
59684	9.769996	0.444681	-0.020946	-0.182941	0.049942	-0.034393	-0.466668	0.500422	0.507825	0.523366
59685	9.818557	0.411981	-0.185029	-0.226703	-0.110573	0.013014	-0.466596	0.500437	0.507849	0.523394
59686	9.727986	0.364727	-0.109605	-0.265794	-0.034087	-0.080938	-0.466584	0.500404	0.507837	0.523447
59687	9.693960	0.344323	-0.145918	-0.286756	-0.070422	-0.116012	-0.466588	0.500312	0.507907	0.523464
59688	9.751585	0.441688	-0.102971	-0.193189	-0.031200	-0.052523	-0.466662	0.500160	0.508058	0.523396
59689	9.792713	0.510244	-0.074944	-0.127234	-0.005909	-0.007231	-0.466774	0.500036	0.508154	0.523321
59690	9.752263	0.478740	-0.013352	-0.153609	0.055571	-0.050038	-0.466888	0.499931	0.508190	0.523285
59691	9.693566	0.440814	-0.035082	-0.188309	0.033977	-0.110927	-0.466962	0.499879	0.508225	0.523236
59692	9.735832	0.449108	-0.026531	-0.182168	0.042591	-0.068262	-0.467009	0.499840	0.508287	0.523170
59693	9.778451	0.437895	-0.024236	-0.195964	0.045644	-0.026475	-0.467062	0.499787	0.508312	0.523149
59694	9.777517	0.472192	-0.030676	-0.161714	0.037182	-0.025134	-0.467166	0.499715	0.508349	0.523088
59695	9.776967	0.486446	-0.043434	-0.147404	0.023157	-0.024667	-0.467265	0.499651	0.508381	0.523030
59696	9.767586	0.528041	-0.040409	-0.104448	0.023321	-0.031341	-0.467388	0.499581	0.508373	0.522995
59697	9.785489	0.500081	-0.021568	-0.131986	0.041126	-0.015380	-0.467480	0.499524	0.508284	0.523054
59698	9.743547	0.494512	-0.006284	-0.133920	0.053524	-0.057663	-0.467527	0.499483	0.508194	0.523137
59699	9.734985	0.473315	-0.041562	-0.155915	0.016942	-0.067376	-0.467537	0.499471	0.508122	0.523211
59700	9.725727	0.491374	-0.064642	-0.138032	-0.008523	-0.075322	-0.467577	0.499459	0.508056	0.523252
59701	9.760089	0.491930	-0.031301	-0.137986	0.023233	-0.041161	-0.467656	0.499398	0.508015	0.523279
59702	9.752003	0.479046	-0.025995	-0.149677	0.026761	-0.050075	-0.467747	0.499341	0.507951	0.523313
59703	9.717838	0.504966	-0.007751	-0.120450	0.041653	-0.082570	-0.467816	0.499296	0.507909	0.523336
59704	9.718037	0.480011	-0.032135	-0.146003	0.016520	-0.083860	-0.467872	0.499255	0.507860	0.523372
59705	9.743087	0.499537	-0.024091	-0.127610	0.022331	-0.057633	-0.467928	0.499212	0.507829	0.523393
59706	9.785301	0.479525	-0.060708	-0.151721	-0.014720	-0.016642	-0.467997	0.499136	0.507825	0.523408
59707	9.760352	0.487353	-0.017727	-0.140835	0.026109	-0.041209	-0.468100	0.499026	0.507848	0.523399
59708	9.743524	0.478523	-0.024488	-0.148958	0.018195	-0.058543	-0.468206	0.498923	0.507897	0.523355
59709	9.759859	0.501821	-0.028002	-0.127010	0.012579	-0.040729	-0.468331	0.498795	0.507947	0.523316
59710	9.725643	0.528532	-0.010463	-0.097773	0.027472	-0.073218	-0.468437	0.498672	0.508004	0.523282
59711	9.742873	0.516841	-0.006293	-0.110532	0.030770	-0.056788	-0.468545	0.498573	0.508025	0.523259
59712	9.751760	0.517338	0.026971	-0.109425	0.062762	-0.047992	-0.468601	0.498508	0.508038	0.523260
59713	9.743082	0.520526	0.017518	-0.106323	0.051795	-0.056412	-0.468681	0.498416	0.508044	0.523270
59714	9.699630	0.566165	0.009840	-0.058701	0.040724	-0.096806	-0.468702	0.498371	0.508024	0.523313
59715	9.691804	0.562930	0.054189	-0.060113	0.084375	-0.104950	-0.468684	0.498377	0.508005	0.523341
59716	9.726236	0.539929	0.058565	-0.085173	0.090531	-0.072093	-0.468592	0.498467	0.508002	0.523341
59717	9.760711	0.488175	0.015213	-0.140468	0.050985	-0.040907	-0.468487	0.498583	0.507966	0.523359
59718	9.785941	0.483666	-0.006083	-0.147170	0.031193	-0.015954	-0.468387	0.498686	0.507902	0.523413
59719	9.835449	0.567383	0.038856	-0.064925	0.073586	0.038701	-0.468367	0.498720	0.507871	0.523429
59720	9.868033	0.552414	-0.084261	-0.086149	-0.049567	0.070655	-0.468375	0.498757	0.507745	0.523508
59721	9.727046	0.463107	-0.019167	-0.162793	0.016023	-0.075979	-0.468355	0.498821	0.507560	0.523646
59722	9.692552	0.480257	-0.041643	-0.143814	-0.009240	-0.109226	-0.468340	0.498852	0.507452	0.523734
59723	9.708739	0.527313	-0.018144	-0.096771	0.010770	-0.090110	-0.468358	0.498844	0.507363	0.523811
59724	9.733956	0.551025	0.010174	-0.073266	0.036682	-0.063487	-0.468371	0.498862	0.507282	0.523861
59725	9.760233	0.515299	0.019345	-0.109557	0.045883	-0.039564	-0.468386	0.498885	0.507173	0.523931
59726	9.769961	0.479556	0.060491	-0.143188	0.086802	-0.032210	-0.468456	0.498885	0.507096	0.523944
59727	9.769815	0.502114	0.089319	-0.118598	0.112917	-0.030941	-0.468543	0.498834	0.507047	0.523961
59728	9.718790	0.519390	0.098465	-0.096960	0.119361	-0.080746	-0.468609	0.498821	0.506983	0.523976
59729	9.727236	0.505883	0.070734	-0.111302	0.091167	-0.073112	-0.468674	0.498791	0.506987	0.523944
59730	9.778480	0.490640	0.085150	-0.128762	0.105753	-0.022953	-0.468785	0.498699	0.507044	0.523876
59731	9.761795	0.485863	0.098263	-0.131733	0.117888	-0.039914	-0.468891	0.498607	0.507063	0.523850
59732	9.778182	0.508880	0.094976	-0.109791	0.112286	-0.022072	-0.469004	0.498508	0.507087	0.523821
59733	9.751556	0.558274	0.075788	-0.059649	0.089541	-0.045463	-0.469078	0.498425	0.507087	0.523834
59734	9.768280	0.561892	0.066300	-0.057639	0.078374	-0.028519	-0.469122	0.498379	0.507051	0.523872
59735	9.751464	0.552928	0.059995	-0.065746	0.070441	-0.045851	-0.469188	0.498322	0.506994	0.523922
59736	9.727027	0.520968	0.090363	-0.094711	0.100096	-0.072275	-0.469248	0.498278	0.506966	0.523937
59737	9.726389	0.526959	0.037708	-0.090673	0.045943	-0.072491	-0.469252	0.498268	0.506916	0.523992
59738	9.759966	0.538875	0.036535	-0.081050	0.043198	-0.038220	-0.469258	0.498262	0.506858	0.524048
59739	9.776377	0.562050	0.033334	-0.059120	0.037602	-0.020362	-0.469272	0.498248	0.506780	0.524125
59740	9.768214	0.549474	0.038334	-0.070814	0.041122	-0.029299	-0.469259	0.498278	0.506646	0.524238
59741	9.759965	0.532432	0.022934	-0.087640	0.024570	-0.038607	-0.469227	0.498318	0.506527	0.524343
59742	9.760680	0.492380	0.012134	-0.127986	0.013903	-0.040436	-0.469204	0.498338	0.506437	0.524431
59743	9.770022	0.448742	0.012856	-0.171917	0.014695	-0.033879	-0.469237	0.498326	0.506348	0.524499
59744	9.769871	0.476261	0.061931	-0.142195	0.060878	-0.032241	-0.469274	0.498307	0.506291	0.524540
59745	9.743778	0.509939	0.056841	-0.106844	0.052619	-0.056136	-0.469323	0.498278	0.506216	0.524596
59746	9.718039	0.523824	0.045418	-0.091417	0.038784	-0.080941	-0.469362	0.498265	0.506149	0.524638
59747	9.750573	0.589909	0.043401	-0.027153	0.032721	-0.044282	-0.469380	0.498276	0.506072	0.524685
59748	9.776955	0.525816	0.005951	-0.093677	-0.003763	-0.022050	-0.469394	0.498294	0.505955	0.524769
59749	9.760933	0.481231	0.007135	-0.136494	-0.002801	-0.040849	-0.469419	0.498302	0.505846	0.524844
59750	9.743556	0.515365	0.033564	-0.099595	0.020464	-0.055983	-0.469492	0.498274	0.505800	0.524850
59751	9.768650	0.534222	0.041854	-0.081270	0.026346	-0.029724	-0.469534	0.498272	0.505712	0.524898
59752	9.692605	0.531591	0.044396	-0.078388	0.027332	-0.105769	-0.469524	0.498307	0.505604	0.524977
59753	9.760906	0.504931	0.061881	-0.108230	0.044825	-0.039237	-0.469516	0.498324	0.505549	0.525021
59754	9.845237	0.517797	0.060530	-0.100880	0.041783	0.045738	-0.469562	0.498260	0.505530	0.525060
59755	9.785826	0.511700	0.011740	-0.105795	-0.009001	-0.014060	-0.469614	0.498173	0.505468	0.525157
59756	9.701889	0.487494	0.051709	-0.123762	0.029548	-0.099254	-0.469622	0.498127	0.505415	0.525243
59757	9.684373	0.514205	0.036873	-0.097117	0.012672	-0.115098	-0.469650	0.498086	0.505452	0.525221
59758	9.683707	0.553354	0.050007	-0.057742	0.024306	-0.113257	-0.469630	0.498095	0.505458	0.525226
59759	9.727257	0.482976	0.032587	-0.131463	0.010756	-0.074286	-0.469590	0.498134	0.505506	0.525177
59760	9.761977	0.448571	0.070010	-0.166260	0.051517	-0.041709	-0.469553	0.498186	0.505569	0.525101
59761	9.761253	0.474322	0.020355	-0.142292	0.002944	-0.040932	-0.469526	0.498222	0.505633	0.525029
59762	9.744552	0.473874	0.050866	-0.140104	0.035110	-0.057556	-0.469509	0.498261	0.505665	0.524976
59763	9.787082	0.457510	0.032204	-0.159187	0.018236	-0.016175	-0.469531	0.498286	0.505684	0.524915
59764	9.786457	0.491229	0.024343	-0.124950	0.009807	-0.014681	-0.469563	0.498301	0.505711	0.524845
59765	9.811985	0.498757	0.064604	-0.116299	0.050265	0.011361	-0.469617	0.498318	0.505712	0.524781
59766	9.795538	0.464539	0.029037	-0.149450	0.016660	-0.007250	-0.469669	0.498341	0.505736	0.524688
59767	9.794947	0.497916	0.021922	-0.115207	0.008231	-0.005749	-0.469717	0.498345	0.505694	0.524682
59768	9.803248	0.508326	0.021696	-0.104490	0.005697	0.003197	-0.469796	0.498310	0.505580	0.524755
59769	9.777629	0.526224	0.032046	-0.083904	0.011896	-0.021223	-0.469858	0.498288	0.505409	0.524885
59770	9.718752	0.520874	0.079405	-0.083032	0.055820	-0.080177	-0.469873	0.498303	0.505222	0.525038
59771	9.719075	0.491228	0.035911	-0.113703	0.010575	-0.081810	-0.469846	0.498372	0.505021	0.525189
59772	9.720109	0.443621	0.079888	-0.158573	0.054515	-0.083578	-0.469839	0.498426	0.504900	0.525261
59773	9.720151	0.442375	0.081603	-0.159054	0.054994	-0.083588	-0.469819	0.498470	0.504793	0.525339
59774	9.736678	0.465171	0.077561	-0.137138	0.049436	-0.065685	-0.469771	0.498529	0.504740	0.525378
59775	9.770643	0.461295	0.089064	-0.142387	0.061248	-0.031983	-0.469741	0.498570	0.504712	0.525392
59776	9.745324	0.455331	0.069091	-0.146857	0.041807	-0.057682	-0.469738	0.498637	0.504660	0.525382
59777	9.753656	0.465469	0.066464	-0.136147	0.039276	-0.048733	-0.469756	0.498681	0.504661	0.525322
59778	9.769967	0.511302	0.087779	-0.089192	0.059391	-0.029543	-0.469770	0.498746	0.504636	0.525272
59779	9.719917	0.469277	0.074634	-0.127212	0.048966	-0.082117	-0.469736	0.498840	0.504604	0.525245
59780	9.720555	0.424288	0.040102	-0.172683	0.018220	-0.084344	-0.469657	0.498945	0.504629	0.525190
59781	9.745962	0.424015	0.037653	-0.174335	0.018560	-0.059008	-0.469578	0.499018	0.504711	0.525113
59782	9.795830	0.479460	0.034676	-0.122485	0.015457	-0.005846	-0.469546	0.499024	0.504775	0.525076
59783	9.761958	0.490992	0.063482	-0.107960	0.044741	-0.038882	-0.469521	0.499045	0.504784	0.525069
59784	9.753782	0.487225	0.106179	-0.109357	0.088361	-0.047178	-0.469487	0.499083	0.504799	0.525049
59785	9.754394	0.447015	0.092609	-0.149696	0.077678	-0.049073	-0.469474	0.499128	0.504822	0.524996
59786	9.737057	0.472234	0.075838	-0.123029	0.060786	-0.064857	-0.469545	0.499147	0.504838	0.524898
59787	9.777853	0.555437	0.015433	-0.043104	-0.002831	-0.019155	-0.469566	0.499245	0.504740	0.524880
59788	9.819996	0.589673	0.072289	-0.007008	0.051735	0.025124	-0.469572	0.499340	0.504574	0.524945
59789	9.744516	0.542562	0.041290	-0.048968	0.021349	-0.053137	-0.469584	0.499409	0.504446	0.524992
59790	9.702851	0.484817	-0.018906	-0.105966	-0.037831	-0.098365	-0.469491	0.499487	0.504275	0.525164
59791	9.651867	0.503456	-0.010480	-0.084172	-0.031544	-0.148111	-0.469378	0.499583	0.504133	0.525310
59792	9.661773	0.405602	-0.010011	-0.182772	-0.027440	-0.144166	-0.469221	0.499703	0.503982	0.525481
59793	9.662377	0.383407	0.058014	-0.202592	0.042139	-0.144747	-0.469126	0.499754	0.504019	0.525483
59794	9.738594	0.406343	0.157165	-0.180957	0.142609	-0.067076	-0.469015	0.499792	0.504135	0.525434
59795	9.763489	0.455766	0.207635	-0.132502	0.194302	-0.039191	-0.468844	0.499858	0.504257	0.525406
59796	9.687363	0.451828	0.183672	-0.134580	0.175073	-0.115568	-0.468649	0.499957	0.504430	0.525321
59797	9.677963	0.506747	0.145909	-0.081909	0.140673	-0.121736	-0.468408	0.500165	0.504540	0.525231
59798	9.753823	0.481787	0.017435	-0.116721	0.020423	-0.047676	-0.468188	0.500444	0.504637	0.525069
59799	9.881671	0.431157	0.031636	-0.172632	0.043735	0.076833	-0.468094	0.500638	0.504731	0.524878
59800	9.858298	0.397372	0.224234	-0.195275	0.242786	0.051244	-0.468065	0.500653	0.504958	0.524671
59801	9.747390	0.390179	0.073763	-0.203390	0.097336	-0.059819	-0.468030	0.500600	0.505277	0.524445
59802	9.772200	0.398452	0.014413	-0.200504	0.043120	-0.034507	-0.468040	0.500546	0.505608	0.524169
59803	9.847046	0.464983	-0.025045	-0.140252	0.005423	0.044364	-0.468181	0.500474	0.505844	0.523884
59804	9.889821	0.488963	0.063667	-0.113889	0.094583	0.088311	-0.468516	0.500218	0.506083	0.523598
59805	9.702951	0.604773	0.167954	0.017670	0.192548	-0.091379	-0.468913	0.499817	0.506456	0.523265
59806	9.516921	0.525037	0.036528	-0.056287	0.065153	-0.281614	-0.468920	0.499790	0.506677	0.523070
59807	9.610013	0.453302	-0.080561	-0.138189	-0.043303	-0.192742	-0.468790	0.499929	0.506882	0.522855
59808	9.846551	0.468168	-0.090898	-0.138249	-0.046680	0.044326	-0.468711	0.499980	0.507108	0.522658
59809	9.938034	0.620756	-0.021742	0.009838	0.021185	0.144711	-0.468861	0.499725	0.507492	0.522394
59810	9.857567	0.943170	0.024117	0.336275	0.056760	0.084053	-0.468883	0.499625	0.507700	0.522269
59811	9.712808	0.926153	-0.097871	0.323386	-0.065594	-0.060913	-0.468593	0.499975	0.507252	0.522629
59812	9.631818	0.686788	-0.106964	0.091593	-0.068695	-0.156501	-0.468157	0.500590	0.506507	0.523153
59813	9.720063	0.466063	-0.069848	-0.129581	-0.023733	-0.082098	-0.467846	0.501002	0.506063	0.523467
59814	9.838189	0.466441	-0.101632	-0.137562	-0.055267	0.035961	-0.467693	0.501064	0.505970	0.523634
59815	9.810003	0.699998	-0.042549	0.097118	-0.007683	0.021868	-0.467470	0.501109	0.505832	0.523923
59816	9.673323	0.722192	-0.137219	0.120497	-0.107407	-0.112816	-0.466929	0.501518	0.505190	0.524633
59817	9.708550	0.569909	-0.226358	-0.039654	-0.194866	-0.086823	-0.466267	0.502113	0.504253	0.525554
59818	9.948471	0.395169	-0.170844	-0.228229	-0.139226	0.141504	-0.465628	0.502594	0.503075	0.526788
59819	9.977151	0.243373	-0.018428	-0.377936	0.005981	0.160287	-0.465332	0.502571	0.502174	0.527929
59820	9.831146	0.391502	0.023189	-0.225668	0.023060	0.023661	-0.465215	0.502318	0.501666	0.528756
59821	9.642738	0.506089	-0.068848	-0.110454	-0.088709	-0.157473	-0.464951	0.502376	0.500975	0.529588
59822	9.508634	0.418813	-0.155918	-0.196311	-0.181881	-0.297321	-0.464722	0.502582	0.500182	0.530343
59823	9.729070	0.401740	-0.089717	-0.223401	-0.124510	-0.078273	-0.464616	0.502721	0.499598	0.530854
59824	10.049958	0.441480	-0.024947	-0.200713	-0.070726	0.244742	-0.464595	0.502668	0.499270	0.531230
59825	9.940342	0.417455	0.020988	-0.217200	-0.032367	0.134014	-0.464628	0.502479	0.498889	0.531738
59826	9.610688	0.397864	0.045608	-0.216696	-0.016390	-0.196115	-0.464801	0.502216	0.498582	0.532123
59827	9.314284	0.420354	0.038286	-0.176602	-0.032465	-0.490574	-0.464956	0.502088	0.498365	0.532312
59828	9.543280	0.403421	-0.058736	-0.213614	-0.133005	-0.264019	-0.464991	0.502114	0.498299	0.532319
59829	10.024560	0.452460	-0.021889	-0.192257	-0.102634	0.219735	-0.465057	0.502096	0.498283	0.532293
59830	10.193574	0.462020	-0.009147	-0.192526	-0.094038	0.389106	-0.465279	0.501864	0.498299	0.532302
59831	9.948793	0.410612	0.068838	-0.223733	-0.017822	0.142284	-0.465653	0.501481	0.498287	0.532348
59832	9.584999	0.353350	0.253973	-0.246794	0.164963	-0.222409	-0.466145	0.500982	0.498391	0.532290
59833	9.422546	0.401877	0.397180	-0.180506	0.300442	-0.379725	-0.466506	0.500583	0.498615	0.532139
59834	9.487493	0.560718	0.421267	-0.026747	0.313911	-0.304526	-0.466718	0.500301	0.499027	0.531832
59835	9.646625	0.690446	0.342144	0.085332	0.229767	-0.138439	-0.466785	0.500116	0.499455	0.531546
59836	9.815722	0.734342	0.225416	0.108947	0.114678	0.031775	-0.466747	0.500035	0.499803	0.531328
59837	9.884639	0.686625	0.116732	0.048101	0.012026	0.096334	-0.466653	0.499974	0.499936	0.531342
59838	9.826536	0.628976	0.064370	-0.011173	-0.035688	0.034097	-0.466577	0.499927	0.499981	0.531411
59839	9.817984	0.633955	0.054723	-0.008015	-0.046697	0.025781	-0.466516	0.499920	0.499862	0.531582
59840	9.835408	0.591480	0.088654	-0.050494	-0.014321	0.040749	-0.466425	0.499974	0.499535	0.531920
59841	9.818410	0.575594	0.140460	-0.063067	0.032276	0.023328	-0.466341	0.499997	0.499149	0.532334
59842	9.792404	0.622375	0.108242	-0.017904	-0.010589	0.000049	-0.466206	0.500053	0.498617	0.532898
59843	9.768040	0.563606	0.098696	-0.076913	-0.026814	-0.028243	-0.466091	0.500082	0.497975	0.533572
59844	9.727546	0.461356	0.087838	-0.178168	-0.042696	-0.075535	-0.466029	0.500078	0.497351	0.534211
59845	9.729442	0.363702	0.064610	-0.278246	-0.070186	-0.080465	-0.465971	0.500072	0.496866	0.534718
59846	9.738179	0.340701	0.076498	-0.302267	-0.063792	-0.073148	-0.465907	0.500063	0.496626	0.535005
59847	9.771572	0.341726	0.113322	-0.302513	-0.031772	-0.039217	-0.465947	0.499951	0.496530	0.535163
59848	9.711661	0.368819	0.131784	-0.271824	-0.017019	-0.096948	-0.465989	0.499836	0.496573	0.535195
59849	9.642545	0.439087	0.149716	-0.197641	-0.002565	-0.161013	-0.466028	0.499716	0.496791	0.535071
59850	9.623888	0.513760	0.186495	-0.120816	0.031877	-0.174102	-0.466082	0.499633	0.497021	0.534886
59851	9.665274	0.545477	0.220262	-0.089974	0.066529	-0.130174	-0.466118	0.499625	0.497253	0.534649
59852	9.707391	0.568132	0.211843	-0.069365	0.061035	-0.086817	-0.466165	0.499703	0.497468	0.534333
59853	9.741459	0.561783	0.217630	-0.074723	0.073001	-0.053176	-0.466203	0.499843	0.497693	0.533959
59854	9.749589	0.605587	0.201346	-0.029321	0.061649	-0.042473	-0.466224	0.499994	0.497998	0.533516
59855	9.817990	0.588123	0.176038	-0.049846	0.044940	0.024248	-0.466223	0.500127	0.498263	0.533144
59856	9.828249	0.515303	0.119594	-0.123954	0.000012	0.029007	-0.466224	0.500249	0.498477	0.532830
59857	9.844702	0.529077	0.163833	-0.106699	0.049190	0.046883	-0.466303	0.500250	0.498771	0.532484
59858	9.870693	0.532412	0.084821	-0.108988	-0.025035	0.072086	-0.466464	0.500106	0.499147	0.532126
59859	9.802339	0.566742	0.106250	-0.069514	-0.001732	0.006350	-0.466595	0.499928	0.499447	0.531897
59860	9.641457	0.572919	0.112563	-0.053694	0.007538	-0.153719	-0.466670	0.499787	0.499680	0.531744
59861	9.664768	0.664557	0.198830	0.039588	0.090623	-0.123563	-0.466676	0.499706	0.499913	0.531596
59862	9.673909	0.622656	0.193652	-0.004374	0.091425	-0.117259	-0.466579	0.499737	0.500093	0.531483
59863	9.726072	0.546024	0.163136	-0.087062	0.069465	-0.070571	-0.466480	0.499769	0.500301	0.531344
59864	9.794462	0.512464	0.134250	-0.127513	0.047184	-0.004852	-0.466403	0.499811	0.500533	0.531153
59865	9.802948	0.520721	0.107800	-0.121951	0.024643	0.003885	-0.466388	0.499792	0.500724	0.531005
59866	9.776899	0.559776	0.118525	-0.081333	0.036386	-0.019465	-0.466423	0.499730	0.500927	0.530840
59867	9.793992	0.559930	0.084969	-0.084534	0.005285	-0.002700	-0.466485	0.499662	0.501109	0.530678
59868	9.803170	0.516712	0.081889	-0.128494	0.006090	0.003590	-0.466600	0.499549	0.501268	0.530533
59869	9.794712	0.520346	0.070652	-0.125313	-0.004913	-0.004711	-0.466735	0.499386	0.501427	0.530418
59870	9.820061	0.520938	0.071992	-0.127072	-0.004423	0.020623	-0.466901	0.499189	0.501559	0.530332
59871	9.820197	0.505755	0.088329	-0.142356	0.010556	0.019885	-0.467063	0.498972	0.501622	0.530334
59872	9.776976	0.556502	0.103060	-0.089322	0.019333	-0.019771	-0.467287	0.498707	0.501687	0.530325
59873	9.717021	0.598912	0.108601	-0.043786	0.019564	-0.076739	-0.467459	0.498498	0.501744	0.530316
59874	9.683708	0.566823	0.106861	-0.074067	0.017434	-0.112114	-0.467617	0.498352	0.501807	0.530255
59875	9.658133	0.558043	0.162827	-0.077860	0.072568	-0.137661	-0.467806	0.498212	0.501893	0.530137
59876	9.708917	0.557717	0.164221	-0.080928	0.073043	-0.086990	-0.467950	0.498100	0.502003	0.530012
59877	9.734555	0.552825	0.144166	-0.087812	0.053455	-0.061924	-0.468057	0.498049	0.502100	0.529874
59878	9.750857	0.594975	0.145782	-0.046074	0.053629	-0.042864	-0.468138	0.497998	0.502192	0.529762
59879	9.751678	0.566038	0.098190	-0.076699	0.008364	-0.044406	-0.468248	0.497934	0.502303	0.529620
59880	9.751411	0.584384	0.104500	-0.057256	0.014474	-0.043401	-0.468362	0.497871	0.502398	0.529488
59881	9.777171	0.552057	0.131606	-0.088614	0.043918	-0.019559	-0.468419	0.497898	0.502443	0.529370
59882	9.785629	0.573597	0.094458	-0.068255	0.006881	-0.010047	-0.468474	0.497895	0.502505	0.529265
59883	9.777032	0.568462	0.137163	-0.069673	0.050451	-0.018561	-0.468548	0.497886	0.502524	0.529190
59884	9.760040	0.578417	0.135494	-0.057715	0.047993	-0.034872	-0.468618	0.497861	0.502502	0.529172
59885	9.709681	0.556947	0.129783	-0.075543	0.042877	-0.086568	-0.468628	0.497867	0.502468	0.529190
59886	9.734826	0.587622	0.102839	-0.047702	0.014436	-0.059727	-0.468631	0.497871	0.502505	0.529149
59887	9.735195	0.567331	0.096124	-0.068116	0.009333	-0.060744	-0.468647	0.497865	0.502534	0.529112
59888	9.760070	0.590914	0.123170	-0.044851	0.035498	-0.034137	-0.468656	0.497855	0.502569	0.529081
59889	9.768273	0.617885	0.106909	-0.019381	0.018563	-0.024345	-0.468640	0.497863	0.502604	0.529055
59890	9.743235	0.597751	0.100430	-0.038497	0.013476	-0.050702	-0.468591	0.497878	0.502568	0.529118
59891	9.726591	0.574407	0.106388	-0.061249	0.019864	-0.068782	-0.468514	0.497892	0.502490	0.529247
59892	9.768692	0.556666	0.164593	-0.080072	0.077940	-0.027402	-0.468452	0.497888	0.502481	0.529314
59893	9.803749	0.540732	0.020871	-0.106463	-0.065045	0.005192	-0.468434	0.497839	0.502534	0.529325
59894	9.752147	0.557022	0.103083	-0.083929	0.015720	-0.044475	-0.468426	0.497803	0.502471	0.529427
59895	9.676140	0.540537	0.117819	-0.095320	0.030648	-0.121262	-0.468409	0.497791	0.502467	0.529456
59896	9.700958	0.564645	0.145319	-0.072073	0.056854	-0.094658	-0.468370	0.497805	0.502472	0.529472
59897	9.726660	0.545405	0.138894	-0.093775	0.051760	-0.070347	-0.468320	0.497822	0.502489	0.529485
59898	9.751932	0.534558	0.172928	-0.105280	0.086798	-0.045538	-0.468308	0.497795	0.502548	0.529465
59899	9.760898	0.507475	0.156776	-0.134451	0.073126	-0.038547	-0.468280	0.497776	0.502651	0.529410
59900	9.769612	0.511624	0.112220	-0.134004	0.030526	-0.030010	-0.468266	0.497737	0.502821	0.529297
59901	9.751993	0.547534	0.134528	-0.097014	0.053731	-0.045038	-0.468276	0.497673	0.503012	0.529167
59902	9.718194	0.551244	0.120963	-0.092531	0.042695	-0.078653	-0.468296	0.497626	0.503185	0.529029
59903	9.768998	0.563591	0.085647	-0.085939	0.008692	-0.027452	-0.468320	0.497564	0.503337	0.528922
59904	9.811622	0.548707	0.066888	-0.105297	-0.007904	0.013926	-0.468366	0.497477	0.503499	0.528809
59905	9.803313	0.537145	0.068559	-0.116922	-0.004473	0.004872	-0.468486	0.497329	0.503689	0.528660
59906	9.768975	0.564282	0.083761	-0.087404	0.010157	-0.027466	-0.468632	0.497169	0.503861	0.528518
59907	9.709670	0.582507	0.058267	-0.066784	-0.015398	-0.085627	-0.468760	0.497032	0.504033	0.528370
59908	9.675296	0.598129	0.106872	-0.046961	0.033768	-0.118504	-0.468851	0.496935	0.504210	0.528210
59909	9.683641	0.609526	0.102756	-0.036312	0.031315	-0.109457	-0.468910	0.496892	0.504399	0.528019
59910	9.717517	0.605710	0.111447	-0.041792	0.043360	-0.075860	-0.468901	0.496909	0.504580	0.527838
59911	9.718231	0.565983	0.095040	-0.082115	0.032628	-0.077926	-0.468856	0.496946	0.504745	0.527684
59912	9.718133	0.581120	0.077612	-0.067802	0.018654	-0.077140	-0.468813	0.496989	0.504919	0.527517
59913	9.744040	0.557176	0.046980	-0.094637	-0.006507	-0.053078	-0.468789	0.497017	0.505134	0.527306
59914	9.743473	0.584662	0.089767	-0.065003	0.039749	-0.051573	-0.468783	0.497052	0.505336	0.527083
59915	9.760326	0.592014	0.094256	-0.058037	0.048826	-0.034263	-0.468737	0.497123	0.505534	0.526868
59916	9.726584	0.594478	0.077665	-0.053526	0.037752	-0.067864	-0.468650	0.497228	0.505728	0.526659
59917	9.700970	0.613566	0.078464	-0.032774	0.043814	-0.092171	-0.468528	0.497317	0.505957	0.526465
59918	9.717568	0.637806	0.067490	-0.011004	0.038428	-0.074059	-0.468325	0.497449	0.506178	0.526309
59919	9.725827	0.650797	0.058428	-0.000368	0.035982	-0.065003	-0.468088	0.497589	0.506407	0.526167
59920	9.751161	0.652254	0.051730	-0.002193	0.036517	-0.039668	-0.467776	0.497834	0.506527	0.526097
59921	9.743067	0.625947	0.061310	-0.028627	0.054406	-0.049535	-0.467438	0.498084	0.506643	0.526049
59922	9.750803	0.673873	0.044993	0.016731	0.043112	-0.038633	-0.467113	0.498336	0.506736	0.526009
59923	9.751055	0.655051	0.032847	-0.003679	0.037988	-0.039674	-0.466767	0.498604	0.506750	0.526048
59924	9.785956	0.586532	0.074369	-0.073537	0.087829	-0.009557	-0.466483	0.498827	0.506773	0.526067
59925	9.820122	0.568323	0.094983	-0.093866	0.114363	0.023212	-0.466186	0.499071	0.506783	0.526089
59926	9.804105	0.510414	0.103568	-0.151345	0.129569	0.003220	-0.465901	0.499247	0.506759	0.526198
59927	9.787504	0.484359	0.086076	-0.179200	0.115849	-0.015151	-0.465609	0.499385	0.506718	0.526365
59928	9.837856	0.503018	0.070949	-0.167570	0.101986	0.036322	-0.465406	0.499422	0.506746	0.526482
59929	9.911866	0.615050	-0.024353	-0.068424	0.001416	0.118037	-0.465373	0.499303	0.506719	0.526651
59930	9.818229	0.647116	-0.014513	-0.032505	0.004373	0.026800	-0.465248	0.499280	0.506379	0.527109
59931	9.750591	0.636387	-0.034594	-0.042851	-0.023925	-0.041413	-0.465103	0.499227	0.505923	0.527725
59932	9.716421	0.650623	0.006274	-0.028105	0.005129	-0.074548	-0.464904	0.499232	0.505293	0.528498
59933	9.726262	0.559322	0.036811	-0.121643	0.029227	-0.071090	-0.464723	0.499247	0.504757	0.529155
59934	9.811276	0.531198	0.011823	-0.159987	-0.004333	0.011661	-0.464570	0.499243	0.504214	0.529810
59935	9.786368	0.497432	0.030774	-0.193854	0.004945	-0.015557	-0.464488	0.499176	0.503635	0.530496
59936	9.752668	0.474924	0.079006	-0.213825	0.042842	-0.050579	-0.464470	0.499085	0.503168	0.531040
59937	9.727183	0.475071	0.089023	-0.212960	0.043270	-0.075928	-0.464536	0.498967	0.502840	0.531404
59938	9.752100	0.494828	0.104289	-0.194891	0.049450	-0.049555	-0.464628	0.498870	0.502564	0.531676
59939	9.735364	0.485625	0.102196	-0.202811	0.041336	-0.066881	-0.464730	0.498805	0.502326	0.531873
59940	9.727262	0.456733	0.123814	-0.229233	0.059215	-0.076800	-0.464864	0.498709	0.502178	0.531985
59941	9.726717	0.490640	0.121814	-0.194994	0.050866	-0.074927	-0.465045	0.498567	0.502115	0.532020
59942	9.726243	0.497356	0.166468	-0.185279	0.091515	-0.074506	-0.465222	0.498427	0.502104	0.532006
59943	9.700732	0.538368	0.107508	-0.145068	0.028483	-0.097558	-0.465371	0.498347	0.502140	0.531917
59944	9.700434	0.556116	0.115664	-0.125641	0.034596	-0.096512	-0.465504	0.498295	0.502140	0.531849
59945	9.717740	0.527249	0.132570	-0.153424	0.052547	-0.081103	-0.465588	0.498274	0.502179	0.531758
59946	9.785632	0.542362	0.087622	-0.144599	0.007198	-0.012715	-0.465669	0.498243	0.502275	0.531626
59947	9.819510	0.537437	0.098464	-0.150149	0.019310	0.020847	-0.465787	0.498204	0.502382	0.531458
59948	9.803043	0.511726	0.102311	-0.172876	0.025645	0.002680	-0.465947	0.498137	0.502501	0.531269
59949	9.760231	0.528610	0.139853	-0.149313	0.063219	-0.038496	-0.466143	0.498049	0.502635	0.531052
59950	9.701321	0.513911	0.140925	-0.158178	0.066470	-0.098257	-0.466327	0.497947	0.502823	0.530808
59951	9.692322	0.555009	0.140611	-0.115147	0.066660	-0.104381	-0.466474	0.497893	0.503077	0.530489
59952	9.717852	0.553517	0.137041	-0.117006	0.067237	-0.079055	-0.466605	0.497850	0.503364	0.530141
59953	9.768625	0.568076	0.119460	-0.105429	0.053439	-0.027543	-0.466716	0.497817	0.503647	0.529805
59954	9.760331	0.596769	0.055961	-0.077699	-0.006600	-0.034280	-0.466834	0.497808	0.503907	0.529463
59955	9.776780	0.637711	0.053652	-0.036048	-0.006318	-0.015053	-0.466954	0.497805	0.504147	0.529132
59956	9.768843	0.619386	0.031955	-0.052752	-0.022984	-0.024346	-0.467074	0.497787	0.504356	0.528843
59957	9.760425	0.636437	0.003773	-0.034729	-0.048490	-0.031716	-0.467159	0.497789	0.504523	0.528607
59958	9.743937	0.610739	0.005745	-0.057449	-0.042164	-0.049887	-0.467213	0.497823	0.504646	0.528410
59959	9.752505	0.605022	0.014738	-0.061639	-0.030129	-0.041663	-0.467258	0.497864	0.504744	0.528237
59960	9.777858	0.607028	0.033166	-0.058418	-0.009461	-0.016127	-0.467339	0.497915	0.504810	0.528054
59961	9.778122	0.614936	-0.002034	-0.049194	-0.043502	-0.015468	-0.467455	0.497982	0.504795	0.527903
59962	9.711259	0.567183	-0.004032	-0.089058	-0.043003	-0.085381	-0.467523	0.498082	0.504683	0.527856
59963	9.719907	0.559895	0.006946	-0.093251	-0.030968	-0.077161	-0.467563	0.498205	0.504668	0.527719
59964	9.804904	0.572479	-0.071467	-0.087269	-0.107779	0.008196	-0.467614	0.498276	0.504730	0.527547
59965	9.762795	0.577042	-0.095259	-0.078967	-0.130480	-0.033579	-0.467604	0.498374	0.504637	0.527552
59966	9.694927	0.578854	-0.043563	-0.068793	-0.078590	-0.100959	-0.467608	0.498435	0.504608	0.527519
59967	9.676691	0.649092	0.067377	0.008510	0.030525	-0.114068	-0.467546	0.498529	0.504646	0.527448
59968	9.642663	0.647983	0.127367	0.013585	0.094063	-0.147905	-0.467377	0.498770	0.504645	0.527371
59969	9.635099	0.579547	0.125712	-0.052639	0.100664	-0.160024	-0.467131	0.499080	0.504627	0.527313
59970	9.669330	0.543461	0.158403	-0.087862	0.141719	-0.128237	-0.466845	0.499419	0.504690	0.527185
59971	9.745523	0.558427	0.136726	-0.077725	0.128077	-0.051370	-0.466535	0.499766	0.504828	0.526999
59972	9.779602	0.560870	0.084723	-0.078697	0.085621	-0.017340	-0.466237	0.500123	0.504960	0.526797
59973	9.788572	0.527934	0.040105	-0.112992	0.051881	-0.010595	-0.465956	0.500438	0.505096	0.526617
59974	9.738201	0.498727	-0.015588	-0.140776	0.006377	-0.062730	-0.465696	0.500705	0.505287	0.526410
59975	9.797629	0.475811	-0.018904	-0.167695	0.013022	-0.004936	-0.465490	0.500870	0.505530	0.526202
59976	9.839821	0.476658	-0.057852	-0.172382	-0.017870	0.037317	-0.465352	0.500932	0.505843	0.525963
59977	9.839542	0.497332	-0.057316	-0.152973	-0.011745	0.038387	-0.465329	0.500885	0.506176	0.525708
59978	9.805576	0.501623	-0.073266	-0.148354	-0.022913	0.004837	-0.465366	0.500792	0.506508	0.525444
59979	9.771661	0.522381	-0.006918	-0.123355	0.046239	-0.027957	-0.465462	0.500642	0.506833	0.525188
59980	9.704441	0.487858	0.029352	-0.152948	0.086837	-0.097539	-0.465564	0.500466	0.507171	0.524940
59981	9.712736	0.505003	0.044118	-0.137238	0.104518	-0.088262	-0.465667	0.500290	0.507554	0.524646
59982	9.780241	0.506339	0.008397	-0.143343	0.073751	-0.020671	-0.465733	0.500159	0.507921	0.524356
59983	9.839222	0.515364	-0.018157	-0.140656	0.051520	0.038901	-0.465830	0.500001	0.508259	0.524093
59984	9.830716	0.528097	0.009416	-0.127260	0.080624	0.031054	-0.466053	0.499743	0.508555	0.523854
59985	9.763366	0.508375	0.034999	-0.142050	0.106744	-0.037647	-0.466308	0.499476	0.508824	0.523621
59986	9.695818	0.503548	0.046755	-0.142019	0.118413	-0.105451	-0.466584	0.499225	0.509116	0.523331
59987	9.704277	0.481717	-0.023646	-0.166611	0.050140	-0.097991	-0.466857	0.499005	0.509422	0.522999
59988	9.746562	0.484027	-0.036552	-0.166225	0.039347	-0.055541	-0.467180	0.498790	0.509748	0.522597
59989	9.796801	0.532547	-0.059678	-0.120029	0.016811	-0.001990	-0.467521	0.498567	0.510066	0.522195
59990	9.804712	0.596312	-0.064624	-0.054799	0.011214	0.010195	-0.467840	0.498387	0.510314	0.521838
59991	9.762306	0.624445	-0.061106	-0.021446	0.014167	-0.030273	-0.468104	0.498244	0.510478	0.521578
59992	9.754551	0.579434	-0.030224	-0.062697	0.046434	-0.041206	-0.468344	0.498115	0.510590	0.521376
59993	9.712494	0.572962	-0.018560	-0.064072	0.058201	-0.083675	-0.468564	0.498000	0.510760	0.521123
59994	9.754842	0.574495	-0.030773	-0.063736	0.047411	-0.041218	-0.468805	0.497872	0.510945	0.520846
59995	9.737660	0.617857	-0.042121	-0.016990	0.036022	-0.055436	-0.469085	0.497774	0.511143	0.520493
59996	9.762961	0.648948	-0.051536	0.015801	0.027842	-0.028099	-0.469338	0.497736	0.511282	0.520165
59997	9.754630	0.672434	-0.037430	0.043991	0.042476	-0.035027	-0.469526	0.497739	0.511323	0.519952
59998	9.746344	0.672327	-0.049121	0.047193	0.031416	-0.043223	-0.469621	0.497784	0.511315	0.519830
59999	9.788865	0.653584	-0.067042	0.027614	0.014993	-0.001849	-0.469671	0.497843	0.511282	0.519762
60000	9.856202	0.681457	-0.126531	0.051062	-0.044620	0.067622	-0.469673	0.497906	0.511198	0.519781
60001	9.814243	0.627488	-0.165254	-0.000282	-0.084305	0.022622	-0.469640	0.497981	0.510941	0.519992
60002	9.763973	0.623666	-0.085702	0.002524	-0.009426	-0.028446	-0.469680	0.498020	0.510668	0.520188
60003	9.704973	0.633580	-0.051375	0.018755	0.019355	-0.086956	-0.469742	0.498056	0.510407	0.520353
60004	9.730834	0.567240	-0.085658	-0.048010	-0.017002	-0.065091	-0.469795	0.498135	0.510126	0.520506
60005	9.731144	0.544571	-0.087268	-0.068422	-0.022144	-0.066192	-0.469858	0.498188	0.509858	0.520660
60006	9.748411	0.510648	-0.086374	-0.101385	-0.024277	-0.051085	-0.469884	0.498259	0.509584	0.520837
60007	9.757244	0.465494	-0.083238	-0.145423	-0.023521	-0.045102	-0.469888	0.498318	0.509340	0.521016
60008	9.783088	0.390013	-0.083804	-0.221911	-0.025354	-0.024018	-0.469979	0.498219	0.509229	0.521137
60009	9.817116	0.357779	-0.114236	-0.257679	-0.058977	0.008053	-0.470175	0.497993	0.509211	0.521194
60010	9.842434	0.381928	-0.081499	-0.234660	-0.032648	0.034641	-0.470498	0.497661	0.509208	0.521222
60011	9.791475	0.429488	-0.020413	-0.182300	0.018948	-0.013491	-0.470910	0.497265	0.509170	0.521266
60012	9.732223	0.451585	-0.016843	-0.156275	0.013171	-0.071241	-0.471356	0.496855	0.509170	0.521253
60013	9.723810	0.443004	0.014004	-0.162779	0.036607	-0.080211	-0.471805	0.496465	0.509199	0.521189
60014	9.724041	0.447570	-0.032963	-0.158626	-0.017545	-0.079605	-0.472260	0.496086	0.509227	0.521112
60015	9.766588	0.414615	-0.028366	-0.193028	-0.019548	-0.039187	-0.472786	0.495617	0.509281	0.521027
60016	9.749582	0.398651	0.025590	-0.205579	0.026847	-0.057128	-0.473392	0.495081	0.509434	0.520838
60017	9.749675	0.427350	0.004933	-0.176421	-0.001582	-0.055245	-0.473999	0.494549	0.509646	0.520585
60018	9.766500	0.468334	0.012678	-0.134857	-0.001250	-0.035887	-0.474634	0.494032	0.509838	0.520308
60019	9.690507	0.515121	-0.003334	-0.081454	-0.024547	-0.108871	-0.475212	0.493615	0.509941	0.520074
60020	9.707094	0.614368	0.021833	0.019826	-0.007268	-0.086170	-0.475720	0.493256	0.510019	0.519875
60021	9.783876	0.617091	-0.025986	0.019597	-0.060927	-0.009545	-0.476187	0.492940	0.510035	0.519730
60022	9.817708	0.630263	-0.001537	0.033794	-0.043083	0.025078	-0.476654	0.492614	0.510019	0.519629
60023	9.775277	0.628355	0.037474	0.037576	-0.011321	-0.017243	-0.477026	0.492370	0.509849	0.519684
60024	9.733002	0.586938	0.064853	0.001526	0.009170	-0.061793	-0.477312	0.492209	0.509630	0.519789
60025	9.741826	0.591326	0.049956	0.007018	-0.013345	-0.052815	-0.477561	0.492049	0.509412	0.519926
60026	9.767709	0.599727	0.024009	0.014789	-0.047231	-0.026680	-0.477791	0.491888	0.509176	0.520099
60027	9.818710	0.613101	0.019169	0.026156	-0.060864	0.024941	-0.478000	0.491742	0.508889	0.520324
60028	9.802005	0.603486	0.019433	0.018282	-0.069071	0.007637	-0.478198	0.491568	0.508609	0.520581
60029	9.716601	0.530638	0.087154	-0.048190	-0.008543	-0.081341	-0.478335	0.491411	0.508284	0.520920
60030	9.572424	0.348388	0.125657	-0.222294	0.026267	-0.235718	-0.478337	0.491275	0.508026	0.521299
60031	9.512622	0.254829	0.163477	-0.315174	0.061210	-0.300666	-0.478352	0.490990	0.508140	0.521442
60032	9.503371	0.238846	0.201971	-0.336497	0.099027	-0.310642	-0.478285	0.490622	0.508544	0.521457
60033	9.553938	0.247491	0.200586	-0.339945	0.099789	-0.260007	-0.478124	0.490265	0.509136	0.521363
60034	9.612607	0.343984	0.196605	-0.257800	0.100188	-0.195896	-0.477830	0.489967	0.509853	0.521211
60035	9.737363	0.602944	0.226997	-0.017161	0.134819	-0.054981	-0.477462	0.489831	0.510508	0.521035
60036	9.797652	0.737399	0.080988	0.103977	-0.002790	0.012457	-0.477075	0.489984	0.510918	0.520843
60037	9.805852	0.720196	0.096367	0.084901	0.023656	0.019653	-0.476651	0.490453	0.510993	0.520716
60038	9.764505	0.584473	0.095505	-0.045538	0.035935	-0.030412	-0.476239	0.491040	0.510977	0.520556
60039	9.756974	0.458878	0.091920	-0.166361	0.045525	-0.046020	-0.475926	0.491580	0.511013	0.520297
60040	9.774707	0.432919	0.044241	-0.189570	0.008902	-0.030139	-0.475669	0.492078	0.511045	0.520031
60041	9.774402	0.507016	0.059113	-0.110489	0.031979	-0.025642	-0.475397	0.492600	0.510990	0.519839
60042	9.800089	0.552035	0.028671	-0.062963	0.009426	0.002773	-0.475036	0.493190	0.510852	0.519744
60043	9.834229	0.574490	0.004299	-0.039057	-0.007209	0.038228	-0.474620	0.493781	0.510670	0.519742
60044	9.876599	0.614020	-0.000794	0.000994	-0.006572	0.082978	-0.474231	0.494322	0.510411	0.519839
60045	9.851470	0.610033	-0.004179	0.001944	-0.006281	0.057651	-0.473862	0.494880	0.509975	0.520071
60046	9.809784	0.537833	-0.032524	-0.064133	-0.031633	0.011623	-0.473511	0.495452	0.509453	0.520358
60047	9.793132	0.474783	-0.019425	-0.121466	-0.016643	-0.008800	-0.473230	0.495937	0.508979	0.520614
60048	9.742176	0.484384	0.041151	-0.103714	0.043660	-0.059039	-0.472987	0.496323	0.508611	0.520827
60049	9.716609	0.475135	0.095875	-0.107358	0.098483	-0.085087	-0.472750	0.496660	0.508262	0.521063
60050	9.666032	0.542878	0.080255	-0.035382	0.080937	-0.131493	-0.472461	0.497015	0.507947	0.521293
60051	9.708256	0.607914	0.107489	0.029596	0.107305	-0.085460	-0.472135	0.497436	0.507612	0.521513
60052	9.716827	0.546784	0.118836	-0.029292	0.122506	-0.080577	-0.471784	0.497890	0.507290	0.521711
60053	9.699903	0.490077	0.148881	-0.081552	0.157537	-0.100891	-0.471443	0.498325	0.507065	0.521822
60054	9.666495	0.502516	0.098274	-0.067044	0.111725	-0.133518	-0.471088	0.498741	0.506988	0.521820
60055	9.742565	0.473923	0.139978	-0.096622	0.161775	-0.059418	-0.470743	0.499189	0.506938	0.521753
60056	9.785192	0.450895	0.095247	-0.121369	0.125371	-0.018204	-0.470470	0.499566	0.506912	0.521663
60057	9.759940	0.492350	0.121842	-0.075435	0.157036	-0.041130	-0.470203	0.499911	0.506907	0.521578
60058	9.777205	0.560177	0.069531	-0.009295	0.108531	-0.019807	-0.469907	0.500245	0.506866	0.521564
60059	9.828056	0.558819	0.064670	-0.012818	0.109435	0.030838	-0.469622	0.500561	0.506810	0.521572
60060	9.845087	0.557292	0.029101	-0.016140	0.078500	0.047877	-0.469357	0.500823	0.506739	0.521628
60061	9.811257	0.525300	0.022350	-0.046054	0.075978	0.012246	-0.469154	0.501034	0.506667	0.521679
60062	9.802871	0.523940	-0.010625	-0.047862	0.044803	0.003962	-0.469017	0.501187	0.506557	0.521761
60063	9.819918	0.561851	-0.028610	-0.011425	0.025143	0.023293	-0.468965	0.501252	0.506420	0.521878
60064	9.794518	0.534110	0.022350	-0.035016	0.074365	-0.003937	-0.468969	0.501291	0.506192	0.522058
60065	9.777527	0.450278	0.011766	-0.117355	0.063624	-0.025701	-0.469034	0.501265	0.506062	0.522152
60066	9.828357	0.372857	-0.084546	-0.200863	-0.032751	0.020997	-0.469215	0.501122	0.505999	0.522187
60067	9.845361	0.423454	-0.037311	-0.149209	0.007862	0.040714	-0.469522	0.500824	0.506041	0.522156
60068	9.811922	0.488709	-0.097692	-0.085095	-0.061215	0.011324	-0.469832	0.500480	0.506045	0.522204
60069	9.710638	0.563675	-0.085170	-0.004995	-0.059115	-0.085512	-0.470121	0.500143	0.506011	0.522298
60070	9.744490	0.599343	-0.053182	0.028994	-0.035540	-0.049746	-0.470385	0.499861	0.505927	0.522412
60071	9.837862	0.593883	-0.096495	0.016042	-0.085891	0.043169	-0.470731	0.499516	0.505858	0.522497
60072	9.804088	0.522842	-0.104313	-0.053710	-0.099739	0.005233	-0.471063	0.499157	0.505753	0.522642
60073	9.643019	0.544211	-0.025948	-0.020957	-0.031936	-0.154365	-0.471404	0.498776	0.505637	0.522811
60074	9.558253	0.537134	0.004420	-0.022899	-0.009227	-0.239385	-0.471628	0.498523	0.505571	0.522915
60075	9.583965	0.547909	-0.024683	-0.015156	-0.043094	-0.213151	-0.471769	0.498379	0.505578	0.522918
60076	9.719192	0.524017	-0.016453	-0.046987	-0.035500	-0.079544	-0.471865	0.498254	0.505677	0.522855
60077	9.854489	0.575419	-0.003616	-0.004337	-0.025385	0.058554	-0.471929	0.498105	0.505760	0.522858
60078	9.837501	0.647382	0.014979	0.067429	-0.011001	0.045866	-0.471858	0.498088	0.505671	0.523025
60079	9.744338	0.605373	0.015823	0.029541	-0.011225	-0.049602	-0.471737	0.498137	0.505460	0.523291
60080	9.668469	0.542546	-0.021233	-0.031108	-0.048553	-0.129156	-0.471598	0.498233	0.505253	0.523526
60081	9.667749	0.500697	0.042536	-0.071035	0.015250	-0.132160	-0.471478	0.498325	0.505118	0.523675
60082	9.676304	0.473106	0.027147	-0.100239	0.001523	-0.125305	-0.471233	0.498520	0.505023	0.523802
60083	9.717992	0.435283	0.075628	-0.139462	0.054251	-0.085809	-0.470988	0.498701	0.505025	0.523849
60084	9.709800	0.455332	0.046635	-0.121407	0.028726	-0.092906	-0.470703	0.498894	0.505070	0.523877
60085	9.667454	0.527242	0.058404	-0.048089	0.042844	-0.130905	-0.470351	0.499160	0.505093	0.523918
60086	9.693095	0.578230	0.031928	-0.000577	0.020368	-0.102330	-0.469932	0.499549	0.505029	0.523985
60087	9.811519	0.526754	0.016593	-0.059645	0.013622	0.012785	-0.469496	0.499971	0.504920	0.524078
60088	9.870461	0.412814	0.024426	-0.176281	0.032408	0.064806	-0.469127	0.500336	0.504845	0.524133
60089	9.853511	0.349833	0.011424	-0.238679	0.027291	0.044112	-0.468835	0.500594	0.504807	0.524184
60090	9.786017	0.376937	-0.009065	-0.208635	0.009779	-0.021637	-0.468603	0.500823	0.504790	0.524190
60091	9.803234	0.430986	-0.044118	-0.157346	-0.024245	-0.001177	-0.468424	0.500981	0.504749	0.524237
60092	9.794860	0.473733	-0.043192	-0.114195	-0.024037	-0.006978	-0.468347	0.501063	0.504671	0.524304
60093	9.794790	0.457430	-0.028526	-0.129527	-0.009132	-0.008040	-0.468323	0.501112	0.504569	0.524376
60094	9.769373	0.381475	-0.033231	-0.202977	-0.011459	-0.037927	-0.468382	0.501132	0.504508	0.524362
60095	9.735343	0.336793	-0.002427	-0.242611	0.020468	-0.074564	-0.468505	0.501092	0.504526	0.524274
60096	9.684576	0.398065	0.037968	-0.175200	0.057527	-0.121614	-0.468689	0.500991	0.504630	0.524106
60097	9.710223	0.489822	0.050655	-0.082814	0.066514	-0.090566	-0.468845	0.500959	0.504704	0.523926
60098	9.744246	0.518561	0.055135	-0.053890	0.070086	-0.054897	-0.468930	0.500976	0.504681	0.523855
60099	9.769536	0.461748	0.056475	-0.110515	0.073923	-0.032986	-0.468983	0.500977	0.504685	0.523803
60100	9.761500	0.495349	0.017455	-0.077496	0.033923	-0.038978	-0.469022	0.500963	0.504750	0.523719
60101	9.787305	0.521337	-0.030719	-0.054943	-0.014277	-0.011624	-0.469023	0.500966	0.504794	0.523673
60102	9.753262	0.536920	0.018952	-0.034881	0.034610	-0.044763	-0.469045	0.500978	0.504744	0.523690
60103	9.744478	0.556367	0.090031	-0.011371	0.103850	-0.052483	-0.468983	0.501059	0.504614	0.523794
60104	9.736097	0.519804	0.067137	-0.047806	0.081386	-0.062950	-0.468847	0.501217	0.504390	0.523979
60105	9.787293	0.525536	0.014706	-0.046677	0.027753	-0.011435	-0.468692	0.501414	0.504143	0.524168
60106	9.880220	0.515861	0.040199	-0.059438	0.052300	0.080755	-0.468540	0.501632	0.503803	0.524423
60107	9.889777	0.496191	-0.100184	-0.084232	-0.090680	0.089262	-0.468506	0.501788	0.503408	0.524682
60108	9.779329	0.376240	-0.071183	-0.193593	-0.062168	-0.027977	-0.468494	0.501945	0.502907	0.525023
60109	9.686103	0.397193	-0.006208	-0.161525	-0.005338	-0.119790	-0.468536	0.502049	0.502451	0.525323
60110	9.720612	0.456257	-0.021670	-0.102897	-0.030609	-0.081942	-0.468600	0.502107	0.502036	0.525607
60111	9.812840	0.398357	0.050822	-0.160147	0.037147	0.006990	-0.468675	0.502149	0.501580	0.525935
60112	9.753409	0.285654	0.027443	-0.267967	0.011579	-0.058745	-0.468851	0.502115	0.501227	0.526147
60113	9.779219	0.336564	0.034300	-0.215413	0.009256	-0.029995	-0.469133	0.502018	0.501056	0.526151
60114	9.779610	0.347965	0.027397	-0.201042	-0.004736	-0.028918	-0.469443	0.501903	0.500802	0.526226
60115	9.771922	0.339740	-0.016646	-0.207866	-0.056059	-0.037218	-0.469845	0.501672	0.500635	0.526247
60116	9.796801	0.304979	0.019892	-0.239590	-0.026446	-0.014085	-0.470328	0.501320	0.500541	0.526239
60117	9.754653	0.294758	0.019745	-0.245687	-0.035047	-0.056718	-0.470904	0.500845	0.500569	0.526150
60118	9.695292	0.363778	0.077045	-0.169416	0.010425	-0.111752	-0.471508	0.500348	0.500657	0.525998
60119	9.619732	0.436437	0.089292	-0.090601	0.012557	-0.183080	-0.472104	0.499873	0.500838	0.525743
60120	9.646172	0.562876	0.100839	0.036450	0.012838	-0.149658	-0.472535	0.499570	0.500893	0.525592
60121	9.712611	0.623522	0.210264	0.100094	0.114371	-0.078998	-0.472867	0.499354	0.500887	0.525505
60122	9.746075	0.558310	0.206412	0.034581	0.109704	-0.049129	-0.473052	0.499243	0.500874	0.525456
60123	9.745544	0.482021	0.203355	-0.040384	0.107587	-0.053788	-0.473252	0.499119	0.500882	0.525386
60124	9.627200	0.433909	0.180925	-0.081525	0.086697	-0.174750	-0.473505	0.498961	0.501017	0.525178
60125	9.688520	0.461003	0.091162	-0.059603	-0.004193	-0.112962	-0.473669	0.498927	0.501129	0.524956
60126	9.815499	0.456788	0.092521	-0.068049	-0.002306	0.013635	-0.473858	0.498887	0.501246	0.524712
60127	9.907626	0.410577	0.124094	-0.115619	0.030968	0.103496	-0.474071	0.498766	0.501358	0.524528
60128	9.839359	0.390609	0.148481	-0.129900	0.056573	0.034522	-0.474278	0.498590	0.501543	0.524331
60129	9.779936	0.359101	0.144274	-0.158120	0.053561	-0.026521	-0.474508	0.498376	0.501706	0.524170
60130	9.765210	0.325030	0.014540	-0.196158	-0.075303	-0.044318	-0.474912	0.497999	0.502082	0.523804
60131	9.783862	0.496270	0.021891	-0.025533	-0.075324	-0.016545	-0.475281	0.497672	0.502347	0.523524
60132	9.834465	0.538148	0.058249	0.015636	-0.042747	0.036558	-0.475668	0.497344	0.502544	0.523296
60133	9.740228	0.567162	0.137509	0.052815	0.034023	-0.055194	-0.476000	0.497030	0.502762	0.523083
60134	9.645865	0.494178	0.164056	-0.014517	0.062284	-0.152990	-0.476234	0.496764	0.502953	0.522938
60135	9.596189	0.565108	0.147914	0.057697	0.044620	-0.199012	-0.476285	0.496685	0.503138	0.522790
60136	9.656028	0.591584	0.130505	0.079802	0.028508	-0.138045	-0.476224	0.496722	0.503264	0.522690
60137	9.765810	0.606345	0.147422	0.088926	0.047466	-0.027480	-0.476103	0.496826	0.503353	0.522614
60138	9.865510	0.606991	0.240813	0.087370	0.143981	0.072977	-0.475905	0.497032	0.503360	0.522592
60139	9.822642	0.504403	0.216222	-0.013195	0.127055	0.024444	-0.475686	0.497258	0.503325	0.522610
60140	9.737254	0.335501	0.162216	-0.178953	0.083942	-0.070310	-0.475390	0.497521	0.503336	0.522618
60141	9.779853	0.338875	0.146737	-0.178860	0.073414	-0.027775	-0.475200	0.497674	0.503446	0.522540
60142	9.824718	0.395143	0.035561	-0.129503	-0.034958	0.019122	-0.475035	0.497796	0.503560	0.522464
60143	9.842472	0.517244	0.061127	-0.008497	-0.011707	0.043545	-0.474868	0.497916	0.503404	0.522652
60144	9.791602	0.498498	0.056476	-0.025684	-0.017567	-0.008291	-0.474679	0.498036	0.503100	0.523002
60145	9.747071	0.374999	0.107111	-0.145744	0.034511	-0.058968	-0.474512	0.498153	0.502826	0.523305
60146	9.721715	0.312081	0.069477	-0.209325	-0.002470	-0.087970	-0.474444	0.498181	0.502756	0.523407
60147	9.823689	0.346015	0.065115	-0.181574	-0.009475	0.015628	-0.474464	0.498151	0.502747	0.523425
60148	9.848826	0.369166	0.093873	-0.158822	0.017092	0.042207	-0.474550	0.498077	0.502743	0.523422
60149	9.815402	0.329105	0.051672	-0.198711	-0.025799	0.006322	-0.474683	0.497922	0.502733	0.523460
60150	9.781370	0.318125	0.057900	-0.208593	-0.022876	-0.028224	-0.474869	0.497669	0.502753	0.523512
60151	9.824481	0.376475	0.052267	-0.153936	-0.036438	0.017870	-0.475086	0.497430	0.502665	0.523627
60152	9.800089	0.426677	0.037619	-0.103188	-0.059495	-0.003965	-0.475328	0.497211	0.502522	0.523752
60153	9.766355	0.473062	0.065777	-0.053410	-0.039558	-0.034886	-0.475573	0.497034	0.502368	0.523846
60154	9.782968	0.419764	0.062919	-0.106323	-0.047356	-0.021208	-0.475805	0.496884	0.502171	0.523965
60155	9.833917	0.353688	0.031968	-0.174798	-0.083420	0.025733	-0.476002	0.496757	0.501941	0.524128
60156	9.850462	0.403351	0.082637	-0.123263	-0.042656	0.045512	-0.476252	0.496566	0.501687	0.524324
60157	9.807932	0.417931	0.109037	-0.104410	-0.025615	0.004161	-0.476497	0.496393	0.501367	0.524572
60158	9.705460	0.405529	0.150553	-0.108109	0.007970	-0.098197	-0.476790	0.496226	0.501046	0.524771
60159	9.614543	0.500214	0.125083	-0.006732	-0.027569	-0.184370	-0.476982	0.496236	0.500718	0.524899
60160	9.606115	0.503633	0.139650	0.001645	-0.018628	-0.192384	-0.476995	0.496445	0.500265	0.525122
60161	9.706791	0.403485	0.134998	-0.099785	-0.025147	-0.097121	-0.476946	0.496682	0.499863	0.525325
60162	9.780900	0.293173	0.162839	-0.209382	0.002482	-0.028280	-0.476963	0.496815	0.499566	0.525467
60163	9.731033	0.345326	0.163679	-0.151997	-0.000789	-0.075339	-0.477036	0.496875	0.499385	0.525516
60164	9.690647	0.443876	0.154217	-0.048824	-0.015564	-0.110790	-0.477039	0.497060	0.499116	0.525593
60165	9.741138	0.462333	0.184413	-0.027673	0.011370	-0.058887	-0.477074	0.497264	0.498838	0.525632
60166	9.741989	0.472596	0.172384	-0.013347	-0.002545	-0.057728	-0.477106	0.497468	0.498579	0.525656
60167	9.690318	0.457511	0.205721	-0.020341	0.031773	-0.109467	-0.477092	0.497670	0.498408	0.525640
60168	9.641484	0.461676	0.148686	-0.012788	-0.023017	-0.159047	-0.476967	0.497936	0.498292	0.525612
60169	9.695695	0.472389	0.038738	-0.007069	-0.131005	-0.106301	-0.476742	0.498232	0.498182	0.525639
60170	9.804512	0.367479	0.018316	-0.117415	-0.145966	-0.003062	-0.476490	0.498458	0.498047	0.525781
60171	9.851977	0.289753	0.087368	-0.195456	-0.072772	0.041730	-0.476291	0.498564	0.497999	0.525906
60172	9.791836	0.327470	0.140378	-0.153826	-0.018643	-0.015597	-0.476191	0.498617	0.498071	0.525879
60173	9.757077	0.426473	0.233762	-0.049168	0.073030	-0.043894	-0.476128	0.498737	0.498045	0.525846
60174	9.641229	0.503885	0.192084	0.034050	0.031429	-0.156500	-0.476038	0.498967	0.497911	0.525837
60175	9.640946	0.378309	0.130807	-0.090776	-0.022306	-0.163888	-0.475973	0.499206	0.497794	0.525780
60176	9.799220	0.302179	0.178712	-0.169465	0.029453	-0.008689	-0.476016	0.499292	0.497885	0.525573
60177	9.912974	0.299958	0.041523	-0.180998	-0.106379	0.102688	-0.476148	0.499257	0.498033	0.525346
60178	9.810083	0.355957	0.132821	-0.114932	-0.015562	0.004065	-0.476290	0.499159	0.498098	0.525248
60179	9.674287	0.369874	0.159053	-0.093242	0.011723	-0.130482	-0.476432	0.499000	0.498279	0.525099
60180	9.657279	0.449477	0.215378	-0.011341	0.066340	-0.142789	-0.476588	0.498806	0.498606	0.524831
60181	9.699201	0.481073	0.249658	0.018608	0.101798	-0.098905	-0.476662	0.498692	0.498902	0.524592
60182	9.725266	0.496809	0.232680	0.031285	0.088249	-0.072411	-0.476674	0.498621	0.499236	0.524331
60183	9.733789	0.533305	0.252505	0.066733	0.111738	-0.061898	-0.476592	0.498627	0.499498	0.524150
60184	9.727210	0.588630	0.215053	0.119628	0.077496	-0.066353	-0.476436	0.498730	0.499663	0.524036
60185	9.794886	0.552193	0.187665	0.078170	0.056101	-0.000925	-0.476230	0.498900	0.499763	0.523966
60186	9.835766	0.465515	0.180783	-0.011195	0.057455	0.035574	-0.476006	0.499079	0.499844	0.523922
60187	9.868513	0.383075	0.162594	-0.096724	0.047178	0.064010	-0.475814	0.499201	0.499958	0.523872
60188	9.876066	0.321226	0.150962	-0.160699	0.042214	0.068358	-0.475682	0.499245	0.500100	0.523814
60189	9.834037	0.335500	0.145153	-0.146827	0.039187	0.026968	-0.475604	0.499176	0.500272	0.523786
60190	9.715061	0.360643	0.179403	-0.117846	0.075221	-0.090285	-0.475518	0.499056	0.500450	0.523809
60191	9.605597	0.345612	0.137922	-0.132735	0.036844	-0.200872	-0.475410	0.498975	0.500606	0.523835
60192	9.684308	0.404406	0.062466	-0.083928	-0.039240	-0.120180	-0.475307	0.498951	0.500787	0.523779
60193	9.786309	0.418940	0.048410	-0.076311	-0.051649	-0.017729	-0.475247	0.499009	0.500884	0.523684
60194	9.859965	0.379089	0.129615	-0.116320	0.033366	0.054672	-0.475221	0.499066	0.500971	0.523571
60195	9.810427	0.410164	0.098482	-0.083791	0.004315	0.006446	-0.475225	0.499054	0.501134	0.523423
60196	9.802890	0.472365	0.104876	-0.020836	0.010299	0.002110	-0.475169	0.499141	0.501097	0.523427
60197	9.725560	0.377845	0.090968	-0.110655	0.001290	-0.079995	-0.475125	0.499266	0.500987	0.523452
60198	9.715985	0.309300	0.093341	-0.176782	0.007580	-0.092943	-0.475157	0.499328	0.501035	0.523318
60199	9.716447	0.347317	0.103972	-0.137520	0.019463	-0.090471	-0.475231	0.499259	0.501287	0.523075
60200	9.700871	0.501508	0.163059	0.018863	0.076740	-0.097814	-0.475235	0.499199	0.501585	0.522843
60201	9.710940	0.564054	0.135424	0.078940	0.051381	-0.084893	-0.474988	0.499409	0.501615	0.522838
60202	9.739012	0.552883	-0.003575	0.061365	-0.082702	-0.058537	-0.474707	0.499735	0.501523	0.522870
60203	9.837662	0.496636	0.091380	0.004761	0.017143	0.037911	-0.474441	0.500017	0.501354	0.523004
60204	9.817309	0.376994	0.156676	-0.111889	0.089493	0.012062	-0.474216	0.500114	0.501362	0.523108
60205	9.732483	0.302059	0.094819	-0.188009	0.034321	-0.076932	-0.473960	0.500150	0.501524	0.523150
60206	9.665269	0.270085	0.033722	-0.222229	-0.020721	-0.146163	-0.473727	0.500242	0.501666	0.523137
60207	9.787534	0.448131	-0.016389	-0.053785	-0.073375	-0.015309	-0.473581	0.500413	0.501784	0.522993
60208	9.933583	0.601330	0.003359	0.093336	-0.056650	0.138481	-0.473393	0.500653	0.501646	0.523064
60209	9.777118	0.527464	0.163908	0.034088	0.108262	-0.020637	-0.473137	0.500822	0.501469	0.523304
60210	9.618047	0.471496	0.014156	-0.022307	-0.037217	-0.183178	-0.472763	0.501004	0.501412	0.523523
60211	9.679727	0.519118	-0.091416	0.014207	-0.142156	-0.119672	-0.472169	0.501419	0.501141	0.523921
60212	9.781155	0.495687	-0.117885	-0.018034	-0.165836	-0.019691	-0.471477	0.502014	0.500593	0.524498
60213	9.888195	0.437141	-0.008860	-0.078521	-0.054294	0.084709	-0.470862	0.502526	0.500028	0.525099
60214	9.868109	0.317666	0.058627	-0.195122	0.018059	0.058763	-0.470366	0.502894	0.499569	0.525627
60215	9.630703	0.205269	-0.016232	-0.300680	-0.050951	-0.184612	-0.469917	0.503218	0.499213	0.526057
60216	9.488549	0.223827	-0.096477	-0.280138	-0.130316	-0.326038	-0.469534	0.503570	0.498987	0.526277
60217	9.624347	0.295319	-0.059631	-0.213526	-0.093333	-0.186447	-0.469064	0.504087	0.498761	0.526415
60218	9.955691	0.378131	-0.066517	-0.146985	-0.099209	0.148826	-0.468628	0.504609	0.498547	0.526507
60219	10.063751	0.304364	-0.023495	-0.222590	-0.047871	0.253118	-0.468291	0.504939	0.498314	0.526710
60220	9.797712	0.124743	0.027838	-0.385497	0.014866	-0.021739	-0.468179	0.504969	0.498259	0.526833
60221	9.460506	0.260018	0.091737	-0.230510	0.072780	-0.351252	-0.468142	0.504956	0.498471	0.526677
60222	9.456430	0.475319	0.035175	-0.018830	0.009481	-0.344278	-0.468048	0.505095	0.498727	0.526386
60223	9.655310	0.686131	-0.020836	0.179073	-0.050473	-0.134795	-0.467660	0.505545	0.498720	0.526305
60224	9.934342	0.609978	-0.106592	0.084905	-0.122719	0.139815	-0.467139	0.506085	0.498614	0.526349
60225	10.067085	0.478445	-0.086235	-0.052110	-0.088032	0.265610	-0.466789	0.506355	0.498525	0.526484
60226	9.868155	0.294337	0.008596	-0.221039	0.018914	0.057367	-0.466662	0.506389	0.498465	0.526620
60227	9.679302	0.216243	0.117400	-0.284593	0.131490	-0.135335	-0.466678	0.506241	0.498605	0.526617
60228	9.645520	0.273276	0.179738	-0.224647	0.191661	-0.166142	-0.466737	0.506075	0.498936	0.526411
60229	9.801008	0.448618	0.144392	-0.061905	0.151277	-0.001717	-0.466725	0.506023	0.499319	0.526107
60230	9.871532	0.640675	0.156741	0.124986	0.158273	0.078799	-0.466662	0.505987	0.499589	0.525941
60231	9.829836	0.694292	0.164611	0.178723	0.166589	0.039983	-0.466488	0.506003	0.499703	0.525971
60232	9.711120	0.694558	0.173136	0.183045	0.176648	-0.078545	-0.466311	0.506031	0.499740	0.526066
60233	9.701909	0.645513	0.160667	0.131789	0.168585	-0.090355	-0.466132	0.506116	0.499738	0.526146
60234	9.734190	0.524358	0.130057	0.006457	0.147034	-0.064628	-0.465979	0.506233	0.499707	0.526198
60235	9.800186	0.421893	0.137945	-0.099565	0.163345	-0.004320	-0.465825	0.506318	0.499735	0.526226
60236	9.858693	0.379790	0.134818	-0.147119	0.165037	0.051762	-0.465578	0.506375	0.499745	0.526380
60237	9.893430	0.399357	0.058799	-0.138638	0.088660	0.087606	-0.465293	0.506356	0.499704	0.526690
60238	9.928477	0.436108	-0.027274	-0.115312	-0.002134	0.124731	-0.465101	0.506209	0.499579	0.527119
60239	9.861190	0.492668	-0.008599	-0.059870	0.005772	0.060622	-0.465128	0.505937	0.499384	0.527540
60240	9.801067	0.495307	0.062801	-0.052795	0.068509	0.000707	-0.465198	0.505790	0.499155	0.527837
60241	9.732366	0.304305	-0.041814	-0.245899	-0.032114	-0.078634	-0.465438	0.505637	0.498889	0.528024
60242	9.672774	0.251252	-0.045737	-0.293643	-0.041140	-0.141087	-0.465754	0.505484	0.498637	0.528129
60243	9.707864	0.333335	-0.032063	-0.210418	-0.040251	-0.101413	-0.466098	0.505284	0.498471	0.528174
60244	9.863146	0.419085	-0.121889	-0.137393	-0.143542	0.058110	-0.466523	0.504938	0.498342	0.528251
60245	9.905158	0.451268	-0.053283	-0.102554	-0.087797	0.101968	-0.466944	0.504583	0.498104	0.528443
60246	9.861789	0.414418	-0.003494	-0.133085	-0.047740	0.056793	-0.467504	0.504099	0.497997	0.528510
60247	9.725823	0.430008	0.055476	-0.105876	-0.000780	-0.077781	-0.468117	0.503549	0.498007	0.528482
60248	9.540806	0.470533	0.043440	-0.055516	-0.023793	-0.260378	-0.468761	0.502963	0.498198	0.528290
60249	9.515467	0.469745	0.049621	-0.054256	-0.023726	-0.285687	-0.469306	0.502460	0.498459	0.528039
60250	9.566659	0.526839	0.074476	0.001345	-0.005236	-0.231245	-0.469719	0.502073	0.498798	0.527719
60251	9.644711	0.611251	0.048793	0.079851	-0.035122	-0.148897	-0.470002	0.501801	0.499191	0.527355
60252	9.736706	0.605973	0.091101	0.071383	0.010197	-0.056984	-0.470191	0.501588	0.499610	0.526991
60253	9.769242	0.527372	0.092820	-0.009218	0.020133	-0.028806	-0.470374	0.501394	0.500036	0.526608
60254	9.665910	0.443249	0.113330	-0.086968	0.050569	-0.136479	-0.470530	0.501206	0.500538	0.526171
60255	9.698645	0.384691	0.118750	-0.147672	0.066191	-0.107040	-0.470652	0.501053	0.501156	0.525618
60256	9.740372	0.421015	0.167112	-0.112932	0.121995	-0.063206	-0.470755	0.500852	0.501860	0.525047
60257	9.782973	0.469838	0.180814	-0.068385	0.143333	-0.018057	-0.470832	0.500646	0.502580	0.524484
60258	9.740790	0.508716	0.195549	-0.029554	0.165997	-0.058120	-0.470887	0.500438	0.503245	0.523997
60259	9.733867	0.585565	0.161548	0.043207	0.137530	-0.060951	-0.470912	0.500286	0.503818	0.523568
60260	9.768466	0.590423	0.111880	0.041811	0.095606	-0.026311	-0.470894	0.500206	0.504262	0.523233
60261	9.828500	0.570511	0.036588	0.013702	0.028368	0.032375	-0.470837	0.500174	0.504635	0.522955
60262	9.903786	0.515773	0.033095	-0.046737	0.033278	0.104409	-0.470826	0.500118	0.504952	0.522712
60263	9.887880	0.559716	-0.000584	-0.004874	0.001846	0.091020	-0.470835	0.500017	0.505181	0.522580
60264	9.828512	0.593320	0.034163	0.031928	0.035711	0.033660	-0.470876	0.499918	0.505204	0.522615
60265	9.726458	0.603878	0.076104	0.048570	0.074525	-0.067610	-0.470882	0.499833	0.505113	0.522779
60266	9.666725	0.597974	0.101087	0.045644	0.096948	-0.127550	-0.470797	0.499846	0.505000	0.522953
60267	9.709152	0.558174	0.058677	0.000618	0.055281	-0.087484	-0.470635	0.499944	0.504901	0.523099
60268	9.844701	0.545106	0.032722	-0.022785	0.029678	0.047077	-0.470405	0.500066	0.504727	0.523358
60269	9.911916	0.514192	0.032510	-0.059544	0.028686	0.112390	-0.470227	0.500130	0.504488	0.523688
60270	9.810061	0.477893	0.022384	-0.092724	0.015901	0.008582	-0.470140	0.500074	0.504299	0.524002
60271	9.725503	0.508017	0.042300	-0.059120	0.029099	-0.074057	-0.470146	0.499983	0.504081	0.524292
60272	9.666341	0.536740	0.062345	-0.027287	0.042770	-0.131389	-0.470156	0.499944	0.503900	0.524493
60273	9.743457	0.586243	0.047160	0.016399	0.021641	-0.051533	-0.470064	0.500010	0.503660	0.524745
60274	9.794470	0.518083	-0.007766	-0.057410	-0.034192	-0.004750	-0.469988	0.500066	0.503377	0.525030
60275	9.779278	0.532811	-0.080126	-0.045432	-0.111540	-0.019318	-0.469938	0.500098	0.503117	0.525294
60276	9.804581	0.512482	-0.081158	-0.067643	-0.116236	0.004692	-0.469880	0.500140	0.502840	0.525571
60277	9.788800	0.472218	-0.152549	-0.110284	-0.190644	-0.013792	-0.469918	0.500114	0.502596	0.525795
60278	9.804386	0.452333	-0.089013	-0.128322	-0.132348	0.000800	-0.469949	0.500060	0.502300	0.526101
60279	9.830044	0.491165	-0.067812	-0.090910	-0.119930	0.028702	-0.470080	0.499890	0.502115	0.526323
60280	9.838971	0.542050	-0.048854	-0.040722	-0.110720	0.040618	-0.470273	0.499663	0.501951	0.526522
60281	9.803725	0.460457	-0.024547	-0.119845	-0.090622	0.000725	-0.470492	0.499402	0.501773	0.526743
60282	9.685954	0.449889	-0.047743	-0.125285	-0.121187	-0.117741	-0.470758	0.499123	0.501624	0.526912
60283	9.600883	0.462672	-0.012223	-0.106454	-0.093638	-0.201701	-0.471013	0.498847	0.501515	0.527050
60284	9.636043	0.505116	-0.033274	-0.068092	-0.124173	-0.164397	-0.471239	0.498568	0.501419	0.527203
60285	9.704616	0.523659	-0.049497	-0.055283	-0.148252	-0.095115	-0.471424	0.498363	0.501323	0.527323
60286	9.832314	0.474257	-0.094269	-0.114621	-0.196840	0.028874	-0.471564	0.498209	0.501253	0.527409
60287	9.915024	0.480725	-0.014246	-0.109362	-0.122870	0.112631	-0.471787	0.498028	0.501158	0.527471
60288	9.855101	0.452870	0.006186	-0.132125	-0.106253	0.051358	-0.471999	0.497852	0.501049	0.527552
60289	9.710222	0.516716	0.078745	-0.056023	-0.039805	-0.088651	-0.472168	0.497727	0.501002	0.527563
60290	9.606251	0.576481	0.194333	0.015603	0.070520	-0.187463	-0.472178	0.497754	0.500794	0.527726
60291	9.479183	0.639632	0.233056	0.088812	0.105688	-0.310094	-0.472032	0.497955	0.500579	0.527870
60292	9.513398	0.648872	0.230300	0.097483	0.103986	-0.275471	-0.471636	0.498425	0.500334	0.528013
60293	9.660402	0.628194	0.116695	0.064839	-0.004581	-0.131396	-0.471174	0.498963	0.500153	0.528090
60294	9.803370	0.576997	0.124045	0.007763	0.010380	0.008423	-0.470698	0.499518	0.499920	0.528210
60295	9.896330	0.561236	0.124264	-0.010977	0.015656	0.100304	-0.470295	0.500034	0.499606	0.528377
60296	9.946522	0.522307	0.130214	-0.049828	0.025855	0.148232	-0.469946	0.500484	0.499231	0.528616
60297	9.886643	0.493017	0.144404	-0.072473	0.042449	0.086938	-0.469711	0.500817	0.498869	0.528852
60298	9.785448	0.511536	0.149358	-0.045829	0.046600	-0.012958	-0.469521	0.501093	0.498568	0.529042
60299	9.761303	0.521403	0.116140	-0.034665	0.012119	-0.036847	-0.469361	0.501321	0.498271	0.529249
60300	9.779401	0.476171	0.052940	-0.082863	-0.050133	-0.022036	-0.469274	0.501472	0.498035	0.529404
60301	9.821615	0.481494	0.065850	-0.078090	-0.040169	0.020551	-0.469300	0.501500	0.497862	0.529518
60302	9.829495	0.436398	0.066252	-0.122202	-0.039399	0.025875	-0.469469	0.501418	0.497881	0.529428
60303	9.771155	0.415987	0.027670	-0.140037	-0.077413	-0.033951	-0.469790	0.501170	0.498097	0.529174
60304	9.661259	0.506129	0.082353	-0.039798	-0.027651	-0.137951	-0.470161	0.500878	0.498362	0.528872
60305	9.634955	0.512812	0.122833	-0.028381	0.012516	-0.163363	-0.470503	0.500609	0.498659	0.528542
60306	9.709032	0.526387	0.205904	-0.014243	0.095003	-0.087691	-0.470750	0.500375	0.498964	0.528256
60307	9.682387	0.495662	0.231061	-0.042603	0.123748	-0.115752	-0.470938	0.500158	0.499299	0.527978
60308	9.661916	0.497303	0.354807	-0.034878	0.250261	-0.134776	-0.471093	0.499937	0.499694	0.527674
60309	9.689194	0.462732	0.263820	-0.077186	0.165193	-0.110576	-0.471220	0.499726	0.500172	0.527308
60310	9.732219	0.443845	0.222630	-0.102374	0.129280	-0.069205	-0.471297	0.499560	0.500546	0.527041
60311	9.758184	0.461024	0.206680	-0.089877	0.115935	-0.042534	-0.471324	0.499389	0.500870	0.526871
60312	9.818619	0.548365	0.208925	-0.008660	0.117560	0.022746	-0.471367	0.499243	0.501248	0.526612
60313	9.818770	0.569093	0.212104	0.010694	0.123781	0.024064	-0.471406	0.499170	0.501486	0.526419
60314	9.722293	0.469067	0.279697	-0.080429	0.200001	-0.077454	-0.471453	0.499171	0.501684	0.526188
60315	9.626849	0.360009	0.305699	-0.181589	0.236013	-0.178862	-0.471475	0.499211	0.501929	0.525897
60316	9.577424	0.371249	0.263929	-0.168583	0.200941	-0.228026	-0.471457	0.499260	0.502325	0.525488
60317	9.655349	0.396807	0.210095	-0.149958	0.154197	-0.149299	-0.471426	0.499261	0.502769	0.525090
60318	9.760254	0.469456	0.115565	-0.088655	0.064860	-0.041084	-0.471339	0.499262	0.503206	0.524749
60319	9.829951	0.519754	0.057111	-0.046289	0.012174	0.031044	-0.471164	0.499371	0.503470	0.524549
60320	9.858673	0.613024	-0.030947	0.040415	-0.073067	0.064722	-0.470909	0.499569	0.503572	0.524492
60321	9.884934	0.624268	-0.069100	0.047870	-0.106494	0.091492	-0.470614	0.499835	0.503530	0.524543
60322	9.893274	0.596432	-0.086590	0.018572	-0.120126	0.098181	-0.470326	0.500104	0.503308	0.524757
60323	9.859821	0.557090	-0.130975	-0.020954	-0.163379	0.062354	-0.470056	0.500358	0.502943	0.525107
60324	9.867127	0.497926	-0.115516	-0.079935	-0.148246	0.066235	-0.469865	0.500542	0.502567	0.525463
60325	9.772621	0.443973	-0.080115	-0.126472	-0.115230	-0.031155	-0.469695	0.500741	0.502048	0.525920
60326	9.688923	0.443880	-0.107139	-0.122532	-0.148169	-0.114916	-0.469491	0.500972	0.501502	0.526404
60327	9.756257	0.410071	-0.103805	-0.159430	-0.149019	-0.049704	-0.469378	0.501123	0.501073	0.526770
60328	9.814965	0.321210	-0.132153	-0.252040	-0.178691	0.003560	-0.469360	0.501197	0.500689	0.527080
60329	9.814839	0.343198	-0.098038	-0.227660	-0.152366	0.004818	-0.469477	0.501117	0.500397	0.527329
60330	9.788703	0.349918	-0.050457	-0.216260	-0.112222	-0.020633	-0.469701	0.500960	0.500203	0.527464
60331	9.694992	0.349603	-0.014168	-0.208182	-0.082183	-0.113966	-0.469956	0.500784	0.500057	0.527541
60332	9.738204	0.409625	0.002238	-0.148920	-0.075077	-0.067299	-0.470268	0.500531	0.500031	0.527528
60333	9.821731	0.450199	0.076741	-0.109153	-0.009562	0.019045	-0.470645	0.500168	0.500039	0.527528
60334	9.897885	0.530531	0.134841	-0.030787	0.035622	0.100211	-0.471091	0.499729	0.499997	0.527586
60335	9.905807	0.525927	0.157322	-0.035200	0.047819	0.108140	-0.471590	0.499232	0.499926	0.527678
60336	9.758761	0.543972	0.277216	-0.003287	0.157100	-0.036110	-0.472132	0.498733	0.499885	0.527705
60337	9.673557	0.595535	0.327704	0.055491	0.195855	-0.117415	-0.472650	0.498259	0.499860	0.527712
60338	9.732320	0.546346	0.317187	0.002587	0.177640	-0.061504	-0.473101	0.497831	0.499823	0.527746
60339	9.764954	0.482806	0.319718	-0.063295	0.173234	-0.032319	-0.473546	0.497347	0.499803	0.527823
60340	9.786964	0.440835	0.392100	-0.105204	0.237541	-0.011400	-0.474014	0.496784	0.499887	0.527854
60341	9.822699	0.461366	0.346159	-0.091843	0.181349	0.024831	-0.474510	0.496142	0.500094	0.527816
60342	9.736399	0.520872	0.414432	-0.028033	0.240182	-0.056559	-0.474873	0.495646	0.500176	0.527877
60343	9.634742	0.563606	0.431977	0.018706	0.249817	-0.155061	-0.475154	0.495287	0.500134	0.528002
60344	9.584521	0.741483	0.495880	0.200741	0.300654	-0.193537	-0.475309	0.495145	0.499991	0.528131
60345	9.665109	0.792427	0.409434	0.243931	0.205180	-0.111744	-0.475309	0.495184	0.499664	0.528403
60346	9.750932	0.713709	0.350368	0.159214	0.141637	-0.031716	-0.475219	0.495334	0.499181	0.528800
60347	9.802030	0.647450	0.319648	0.090315	0.106032	0.014914	-0.475076	0.495531	0.498646	0.529248
60348	9.760584	0.614880	0.289020	0.059767	0.071131	-0.028926	-0.474820	0.495778	0.498086	0.529774
60349	9.776219	0.606723	0.318326	0.051439	0.095003	-0.013084	-0.474453	0.496038	0.497588	0.530327
60350	9.793923	0.528995	0.265685	-0.031532	0.041408	-0.001029	-0.473948	0.496377	0.497032	0.530982
60351	9.845542	0.404533	0.193205	-0.165046	-0.031459	0.041623	-0.473312	0.496807	0.496203	0.531922
60352	9.772780	0.326521	0.276463	-0.238025	0.050842	-0.033575	-0.472741	0.497115	0.495558	0.532742
60353	9.747211	0.349980	0.287512	-0.216778	0.056478	-0.057530	-0.472273	0.497326	0.495127	0.533361
60354	9.719241	0.423972	0.371403	-0.140752	0.133861	-0.079055	-0.471896	0.497474	0.494855	0.533809
60355	9.650117	0.467163	0.415116	-0.094735	0.175823	-0.144418	-0.471365	0.497770	0.494567	0.534269
60356	9.588622	0.456749	0.264311	-0.113717	0.031161	-0.210279	-0.470631	0.498260	0.494427	0.534588
60357	9.666037	0.387265	0.398537	-0.183011	0.177299	-0.134044	-0.470010	0.498678	0.494610	0.534576
60358	9.714670	0.303623	0.413538	-0.271580	0.210661	-0.090555	-0.469448	0.499034	0.495086	0.534297
60359	9.683456	0.284719	0.336176	-0.296164	0.152950	-0.124950	-0.469024	0.499301	0.495809	0.533749
60360	9.686266	0.334780	0.276560	-0.252123	0.110327	-0.120601	-0.468730	0.499509	0.496691	0.532992
60361	9.682327	0.399569	0.170373	-0.194337	0.021543	-0.122596	-0.468542	0.499690	0.497622	0.532119
60362	9.694311	0.532894	0.114221	-0.064927	-0.020954	-0.103311	-0.468439	0.499841	0.498604	0.531148
60363	9.731457	0.504899	-0.016594	-0.101337	-0.128760	-0.069506	-0.468234	0.500085	0.499464	0.530291
60364	9.803066	0.514862	0.120701	-0.087307	0.028623	0.004199	-0.468133	0.500219	0.500430	0.529341
60365	9.758681	0.527103	0.190852	-0.067854	0.120005	-0.038892	-0.468001	0.500385	0.501396	0.528386
60366	9.712473	0.492055	-0.016536	-0.109671	-0.061604	-0.088560	-0.467809	0.500618	0.502455	0.527329
60367	9.652378	0.570986	0.047783	-0.022797	0.023571	-0.143376	-0.467675	0.500799	0.503548	0.526231
60368	9.586127	0.571464	-0.041563	-0.021670	-0.040738	-0.209566	-0.467359	0.501112	0.504551	0.525254
60369	9.663569	0.593982	-0.135422	-0.008249	-0.107363	-0.130536	-0.467066	0.501346	0.505865	0.524025
60370	9.772350	0.665089	-0.050983	0.059298	0.004855	-0.017783	-0.466644	0.501690	0.507039	0.522936
60371	9.754061	0.561039	-0.123450	-0.047537	-0.032304	-0.041898	-0.466116	0.502095	0.508230	0.521861
60372	9.812619	0.527143	-0.210310	-0.090713	-0.084910	0.015542	-0.465632	0.502377	0.509564	0.520718
60373	9.803618	0.554296	-0.245582	-0.067457	-0.090381	0.009008	-0.465230	0.502560	0.510861	0.519630
60374	9.802663	0.553804	-0.294011	-0.072993	-0.109986	0.009118	-0.464798	0.502764	0.512043	0.518656
60375	9.784873	0.572358	-0.398337	-0.060852	-0.187448	-0.004981	-0.464362	0.502935	0.513252	0.517684
60376	9.783760	0.602837	-0.472380	-0.036683	-0.235787	-0.001901	-0.464000	0.503049	0.514404	0.516754
60377	9.740749	0.635743	-0.418604	-0.002368	-0.158803	-0.043536	-0.463595	0.503246	0.515467	0.515865
60378	9.756275	0.652749	-0.488413	0.008952	-0.203853	-0.024539	-0.463189	0.503496	0.516410	0.515042
60379	9.805687	0.622847	-0.483354	-0.025114	-0.173375	0.023081	-0.462836	0.503762	0.517217	0.514290
60380	9.821511	0.672784	-0.556986	0.020911	-0.227057	0.044946	-0.462494	0.504041	0.517916	0.513620
60381	9.829355	0.750280	-0.612164	0.095726	-0.266600	0.060186	-0.462194	0.504286	0.518414	0.513147
60382	9.853691	0.654458	-0.561714	-0.000827	-0.199365	0.076665	-0.461821	0.504554	0.518699	0.512930
60383	9.766979	0.611918	-0.635192	-0.041358	-0.264112	-0.009610	-0.461434	0.504856	0.518912	0.512767
60384	9.727556	0.649601	-0.450394	0.003166	-0.072267	-0.053336	-0.461054	0.505142	0.519098	0.512638
60385	9.725171	0.613038	-0.546666	-0.037246	-0.157907	-0.054240	-0.460616	0.505529	0.519194	0.512554
60386	9.768466	0.633824	-0.486215	-0.017669	-0.087444	-0.012019	-0.460253	0.505884	0.519245	0.512477
60387	9.718069	0.607164	-0.443982	-0.038994	-0.039375	-0.065710	-0.459882	0.506303	0.519154	0.512489
60388	9.701182	0.602053	-0.437930	-0.041492	-0.027811	-0.083110	-0.459504	0.506753	0.519002	0.512537
60389	9.691095	0.590523	-0.514665	-0.053102	-0.099317	-0.090639	-0.459225	0.507149	0.518844	0.512555
60390	9.725860	0.608030	-0.481558	-0.034614	-0.060645	-0.056198	-0.458893	0.507576	0.518660	0.512617
60391	9.676115	0.665996	-0.466121	0.028341	-0.044215	-0.102628	-0.458422	0.508088	0.518450	0.512743
60392	9.718756	0.707831	-0.470459	0.067586	-0.042666	-0.057166	-0.457918	0.508581	0.518214	0.512943
60393	9.718566	0.641441	-0.439493	0.002667	-0.004802	-0.063067	-0.457458	0.509045	0.517965	0.513145
60394	9.738768	0.673849	-0.312004	0.039194	0.125347	-0.046533	-0.456991	0.509519	0.517609	0.513450
60395	9.720140	0.637325	-0.368866	0.001824	0.070874	-0.064952	-0.456518	0.509994	0.517204	0.513807
60396	9.734783	0.623868	-0.461725	-0.016732	-0.020087	-0.047047	-0.456059	0.510438	0.516746	0.514234
60397	9.827516	0.641980	-0.487503	-0.006266	-0.043065	0.047737	-0.455629	0.510844	0.516270	0.514691
60398	9.857248	0.569699	-0.630080	-0.087423	-0.182386	0.079026	-0.455322	0.511161	0.515857	0.515061
60399	9.826731	0.633195	-0.524009	-0.017295	-0.082239	0.047997	-0.454976	0.511494	0.515490	0.515404
60400	9.725133	0.583312	-0.501032	-0.059535	-0.061331	-0.057576	-0.454617	0.511863	0.515203	0.515642
60401	9.578829	0.494425	-0.556508	-0.141660	-0.116176	-0.206723	-0.454182	0.512288	0.515011	0.515793
60402	9.555231	0.525870	-0.493071	-0.105313	-0.050282	-0.231013	-0.453800	0.512674	0.514921	0.515836
60403	9.547668	0.505723	-0.441934	-0.121557	0.007449	-0.242202	-0.453445	0.513055	0.514855	0.515835
60404	9.590107	0.496640	-0.427718	-0.131880	0.032014	-0.201167	-0.452996	0.513495	0.514883	0.515764
60405	9.719711	0.549856	-0.345695	-0.082451	0.127696	-0.072486	-0.452590	0.513843	0.515066	0.515592
60406	9.768514	0.506991	-0.391335	-0.131592	0.097933	-0.024576	-0.452132	0.514199	0.515255	0.515449
60407	9.718248	0.482027	-0.353890	-0.152851	0.145967	-0.078353	-0.451663	0.514513	0.515573	0.515229
60408	9.751140	0.527343	-0.396353	-0.114702	0.115767	-0.040618	-0.451258	0.514724	0.515977	0.514969
60409	9.737320	0.647199	-0.335689	0.006966	0.181873	-0.049807	-0.450898	0.514977	0.516360	0.514648
60410	9.831850	0.697606	-0.307710	0.052244	0.225016	0.045976	-0.450601	0.515246	0.516683	0.514314
60411	9.755038	0.628166	-0.301901	-0.011765	0.240782	-0.035756	-0.450290	0.515508	0.516887	0.514119
60412	9.706452	0.676464	-0.254442	0.041394	0.291653	-0.083824	-0.449958	0.515743	0.517073	0.513987
60413	9.677463	0.678301	-0.355782	0.037703	0.196728	-0.107028	-0.449537	0.516030	0.517144	0.513996
60414	9.685148	0.672440	-0.370667	0.028258	0.188844	-0.099027	-0.449117	0.516289	0.517126	0.514120
60415	9.766582	0.567891	-0.420622	-0.086390	0.154255	-0.022167	-0.448817	0.516461	0.517136	0.514200
60416	9.783398	0.592920	-0.427820	-0.065074	0.149469	-0.003361	-0.448594	0.516565	0.517101	0.514326
60417	9.780466	0.649476	-0.522621	-0.016174	0.052340	0.003089	-0.448379	0.516683	0.516964	0.514531
60418	9.847747	0.653800	-0.534245	-0.018674	0.043162	0.071076	-0.448260	0.516724	0.516778	0.514781
60419	9.845495	0.607671	-0.583735	-0.068893	-0.008013	0.068556	-0.448197	0.516749	0.516462	0.515127
60420	9.787569	0.635784	-0.559361	-0.036632	0.005287	0.011377	-0.448103	0.516818	0.516106	0.515497
60421	9.729027	0.608600	-0.535307	-0.058926	0.021452	-0.050158	-0.448077	0.516855	0.515776	0.515813
60422	9.738366	0.552531	-0.497296	-0.112930	0.056647	-0.046808	-0.448079	0.516890	0.515378	0.516174
60423	9.740076	0.660851	-0.489515	-0.004308	0.051426	-0.038089	-0.448095	0.516918	0.515062	0.516448
60424	9.740747	0.643907	-0.469407	-0.019661	0.066297	-0.039646	-0.448039	0.516996	0.514656	0.516822
60425	9.647290	0.616512	-0.476703	-0.041004	0.049947	-0.134187	-0.447949	0.517134	0.514319	0.517098
60426	9.581165	0.650976	-0.445532	0.000232	0.071612	-0.199371	-0.447805	0.517308	0.514005	0.517360
60427	9.596111	0.575642	-0.483151	-0.077714	0.038103	-0.187582	-0.447606	0.517540	0.513742	0.517563
60428	9.613486	0.582002	-0.474235	-0.071249	0.047684	-0.170312	-0.447416	0.517759	0.513559	0.517688
60429	9.662372	0.604305	-0.544414	-0.056020	-0.019352	-0.116322	-0.447225	0.518012	0.513418	0.517741
60430	9.696512	0.597994	-0.535933	-0.062458	-0.006436	-0.083184	-0.447059	0.518253	0.513274	0.517785
60431	9.711718	0.592846	-0.589908	-0.070996	-0.057154	-0.065451	-0.446889	0.518476	0.513136	0.517846
60432	9.738005	0.579103	-0.558396	-0.083344	-0.021490	-0.041889	-0.446750	0.518632	0.513074	0.517871
60433	9.764306	0.668190	-0.566163	0.003427	-0.031743	-0.009235	-0.446608	0.518776	0.513024	0.517899
60434	9.739605	0.620196	-0.526980	-0.039631	0.011145	-0.039225	-0.446424	0.518977	0.512933	0.517946
60435	9.762706	0.556745	-0.571794	-0.106682	-0.024994	-0.018029	-0.446331	0.519114	0.512964	0.517859
60436	9.722159	0.559157	-0.520798	-0.097129	0.026057	-0.061064	-0.446269	0.519206	0.512990	0.517793
60437	9.713560	0.546700	-0.520407	-0.108525	0.029208	-0.070495	-0.446220	0.519253	0.513068	0.517712
60438	9.756651	0.573111	-0.507280	-0.084228	0.045258	-0.026529	-0.446201	0.519237	0.513175	0.517638
60439	9.841455	0.618927	-0.519824	-0.045138	0.036642	0.061731	-0.446253	0.519183	0.513322	0.517502
60440	9.830979	0.630932	-0.585362	-0.036823	-0.029116	0.055781	-0.446380	0.519094	0.513419	0.517386
60441	9.738695	0.611035	-0.556917	-0.048096	-0.005335	-0.039082	-0.446490	0.519018	0.513467	0.517319
60442	9.629543	0.603401	-0.530585	-0.046448	0.015099	-0.149804	-0.446547	0.518975	0.513576	0.517205
60443	9.632075	0.700001	-0.496291	0.052315	0.044373	-0.142709	-0.446582	0.518955	0.513674	0.517097
60444	9.646877	0.660464	-0.543892	0.009069	0.002270	-0.127947	-0.446578	0.518973	0.513757	0.516999
60445	9.713573	0.592224	-0.546394	-0.062921	0.010385	-0.065960	-0.446594	0.518964	0.513870	0.516883
60446	9.750124	0.582298	-0.463732	-0.069258	0.097995	-0.034925	-0.446601	0.518944	0.514026	0.516741
60447	9.730432	0.563830	-0.535544	-0.091674	0.029103	-0.051706	-0.446604	0.518907	0.514188	0.516615
60448	9.754987	0.611205	-0.577517	-0.049622	-0.012724	-0.021658	-0.446667	0.518799	0.514324	0.516534
60449	9.739457	0.646604	-0.551172	-0.012364	0.010310	-0.036254	-0.446773	0.518657	0.514440	0.516469
60450	9.757353	0.673757	-0.534341	0.013921	0.025680	-0.017558	-0.446863	0.518529	0.514517	0.516443
60451	9.748407	0.642513	-0.537125	-0.017315	0.023068	-0.028418	-0.446893	0.518493	0.514474	0.516496
60452	9.735293	0.572854	-0.648325	-0.093371	-0.085826	-0.039851	-0.446991	0.518418	0.514452	0.516509
60453	9.737771	0.582906	-0.584061	-0.078883	-0.024997	-0.040367	-0.447131	0.518302	0.514403	0.516552
60454	9.714949	0.644675	-0.537897	-0.012811	0.012170	-0.061541	-0.447257	0.518176	0.514351	0.516621
60455	9.706458	0.648272	-0.544600	-0.009343	0.000960	-0.069378	-0.447362	0.518078	0.514251	0.516728
60456	9.732295	0.631571	-0.527800	-0.026721	0.016539	-0.045701	-0.447390	0.518045	0.514107	0.516880
60457	9.722959	0.580450	-0.535915	-0.077811	0.008160	-0.058000	-0.447394	0.518042	0.513986	0.517000
60458	9.637614	0.581430	-0.562303	-0.073235	-0.025327	-0.141501	-0.447396	0.518049	0.513896	0.517081
60459	9.615888	0.599623	-0.457593	-0.046738	0.074978	-0.167666	-0.447357	0.518074	0.513797	0.517187
60460	9.632579	0.603146	-0.468035	-0.045297	0.064489	-0.150224	-0.447291	0.518126	0.513729	0.517260
60461	9.687922	0.575918	-0.580481	-0.083772	-0.042451	-0.090771	-0.447250	0.518168	0.513704	0.517279
60462	9.764806	0.577524	-0.561387	-0.085403	-0.019642	-0.015114	-0.447312	0.518148	0.513644	0.517304
60463	9.725089	0.583405	-0.486144	-0.070818	0.051446	-0.058386	-0.447371	0.518163	0.513605	0.517279
60464	9.689891	0.630433	-0.555891	-0.025723	-0.023651	-0.086474	-0.447393	0.518160	0.513591	0.517276
60465	9.723402	0.621551	-0.565072	-0.037223	-0.030790	-0.053187	-0.447387	0.518161	0.513553	0.517317
60466	9.715627	0.613189	-0.540913	-0.043605	-0.007555	-0.062814	-0.447362	0.518173	0.513483	0.517396
60467	9.708687	0.659628	-0.516097	0.004555	0.012861	-0.067951	-0.447315	0.518215	0.513410	0.517467
60468	9.680385	0.609571	-0.589175	-0.048566	-0.059198	-0.095553	-0.447274	0.518266	0.513301	0.517560
60469	9.696508	0.609027	-0.619217	-0.052124	-0.089782	-0.077913	-0.447261	0.518292	0.513169	0.517676
60470	9.715196	0.638810	-0.580611	-0.020875	-0.054288	-0.059388	-0.447279	0.518287	0.513073	0.517761
60471	9.709687	0.692193	-0.513671	0.037267	0.006332	-0.064889	-0.447209	0.518355	0.512888	0.517937
60472	9.706436	0.606701	-0.581031	-0.052596	-0.056415	-0.070273	-0.447062	0.518489	0.512749	0.518066
60473	9.721048	0.532956	-0.620459	-0.130554	-0.089933	-0.058578	-0.446871	0.518608	0.512614	0.518247
60474	9.737678	0.470328	-0.598041	-0.193536	-0.063134	-0.047453	-0.446820	0.518612	0.512534	0.518365
60475	9.710683	0.511215	-0.675972	-0.157395	-0.146599	-0.067464	-0.446950	0.518469	0.512600	0.518331
60476	9.645561	0.585570	-0.631734	-0.076292	-0.113539	-0.129707	-0.447050	0.518370	0.512561	0.518382
60477	9.713513	0.623501	-0.648106	-0.044278	-0.131081	-0.058612	-0.447156	0.518256	0.512559	0.518407
60478	9.723072	0.622735	-0.613676	-0.043768	-0.098718	-0.050983	-0.447223	0.518154	0.512523	0.518486
60479	9.682418	0.642279	-0.570252	-0.019287	-0.062081	-0.092466	-0.447321	0.518042	0.512472	0.518564
60480	9.665227	0.650435	-0.588933	-0.011815	-0.085034	-0.108093	-0.447416	0.517937	0.512460	0.518600
60481	9.708839	0.727803	-0.590095	0.061957	-0.091777	-0.059370	-0.447415	0.517930	0.512300	0.518765
60482	9.788884	0.626543	-0.706858	-0.053002	-0.200834	0.019469	-0.447443	0.517865	0.512123	0.518980
60483	9.818119	0.663451	-0.592901	-0.010768	-0.093251	0.045221	-0.447599	0.517701	0.512027	0.519104
60484	9.724957	0.688191	-0.620862	0.017763	-0.132812	-0.044581	-0.447747	0.517589	0.511916	0.519198
60485	9.651665	0.801382	-0.591048	0.137557	-0.120077	-0.111510	-0.447784	0.517588	0.511619	0.519460
60486	9.650264	0.722495	-0.612141	0.057700	-0.142630	-0.117295	-0.447784	0.517614	0.511211	0.519836
60487	9.793031	0.649173	-0.625869	-0.025609	-0.152221	0.020561	-0.447825	0.517592	0.510759	0.520266
60488	9.777637	0.616284	-0.556943	-0.052762	-0.091926	-0.000403	-0.447943	0.517480	0.510362	0.520665
60489	9.686923	0.639815	-0.484854	-0.019139	-0.036744	-0.092646	-0.448067	0.517323	0.509993	0.521076
60490	9.628615	0.617076	-0.436637	-0.036244	-0.000707	-0.154513	-0.448143	0.517161	0.509593	0.521562
60491	9.697972	0.615670	-0.361709	-0.038879	0.065043	-0.088759	-0.448305	0.516909	0.509141	0.522114
60492	9.740967	0.544060	-0.270421	-0.108856	0.147172	-0.054510	-0.448598	0.516507	0.508618	0.522770
60493	9.725632	0.503796	-0.137959	-0.140889	0.262000	-0.077585	-0.449286	0.515755	0.508347	0.523185
60494	9.667829	0.567535	-0.105324	-0.073717	0.266543	-0.131593	-0.450168	0.514865	0.508176	0.523469
60495	9.615889	0.622745	-0.292692	-0.030641	0.053077	-0.172407	-0.451020	0.514049	0.507979	0.523729
60496	9.757762	0.515553	-0.380155	-0.153800	-0.042654	-0.035228	-0.451946	0.513157	0.507726	0.524051
60497	10.069722	0.404094	-0.401248	-0.287470	-0.070017	0.268780	-0.453170	0.511991	0.507573	0.524282
60498	10.181789	0.442176	-0.304649	-0.250655	-0.002873	0.380164	-0.454809	0.510462	0.507561	0.524366
60499	10.127088	0.639436	-0.305342	-0.049665	-0.052698	0.338897	-0.456733	0.508767	0.507506	0.524394
60500	9.993599	0.713453	-0.079246	0.048757	0.124697	0.205757	-0.458629	0.507101	0.507034	0.524809
60501	9.787449	0.547691	0.058230	-0.093632	0.222119	-0.012727	-0.460512	0.505408	0.506431	0.525375
60502	9.719358	0.494810	0.059775	-0.141516	0.180271	-0.083266	-0.462459	0.503614	0.506000	0.525803
60503	9.809727	0.654468	-0.052524	0.006196	0.017077	0.018962	-0.464469	0.501793	0.505645	0.526114
60504	9.898490	0.926900	0.047959	0.278102	0.057942	0.125151	-0.466255	0.500176	0.504744	0.526938
60505	9.911371	0.751676	0.124743	0.105963	0.090328	0.126940	-0.467782	0.498655	0.503464	0.528249
60506	9.901740	0.414577	0.013878	-0.237846	-0.059232	0.094693	-0.469373	0.496927	0.502447	0.529434
60507	9.833922	0.370134	0.043868	-0.280740	-0.080996	0.023944	-0.471233	0.494922	0.501705	0.530361
60508	9.740322	0.505605	0.151835	-0.137975	-0.031503	-0.059108	-0.473262	0.492880	0.501040	0.531085
60509	9.736867	0.840754	0.209756	0.197740	-0.039373	-0.039429	-0.475204	0.491016	0.500288	0.531786
60510	9.793182	0.797466	0.283711	0.154324	-0.016971	0.015767	-0.476923	0.489421	0.499122	0.532812
60511	9.704342	0.561816	0.443160	-0.067872	0.101402	-0.082776	-0.478463	0.487953	0.497874	0.533944
60512	9.625633	0.405981	0.329653	-0.221885	-0.053183	-0.175570	-0.480033	0.486436	0.496874	0.534850
60513	9.542020	0.405055	0.338088	-0.217078	-0.086936	-0.258961	-0.481657	0.484829	0.496196	0.535478
60514	9.512368	0.393281	0.410786	-0.225368	-0.052805	-0.286153	-0.483131	0.483316	0.495727	0.535952
60515	9.483488	0.457232	0.483274	-0.159273	-0.015690	-0.307244	-0.484463	0.481901	0.495442	0.536287
60516	9.463542	0.513805	0.541292	-0.102154	0.013063	-0.320324	-0.485654	0.480627	0.495358	0.536431
60517	9.508842	0.581306	0.627244	-0.037405	0.072691	-0.265818	-0.486701	0.479557	0.495441	0.536363
60518	9.609605	0.672958	0.664515	0.047856	0.085159	-0.157150	-0.487609	0.478726	0.495480	0.536245
60519	9.444644	0.744079	0.817253	0.134538	0.233115	-0.307405	-0.488361	0.478134	0.495512	0.536060
60520	9.277354	0.690370	0.874117	0.096231	0.294443	-0.473842	-0.488829	0.477921	0.495524	0.535811
60521	9.324389	0.520583	0.883964	-0.072134	0.304878	-0.437269	-0.489098	0.477893	0.495689	0.535438
60522	9.590306	0.281093	0.805409	-0.326005	0.221451	-0.192587	-0.489340	0.477909	0.496155	0.534771
60523	9.832345	0.097323	0.717433	-0.523244	0.134453	0.031464	-0.489712	0.477751	0.497085	0.533707
60524	10.056966	0.223161	0.608470	-0.410987	0.024200	0.256727	-0.490438	0.477252	0.498349	0.532305
60525	9.936588	0.480419	0.590563	-0.143100	0.021063	0.151971	-0.491307	0.476693	0.499388	0.531029
60526	9.679189	0.614045	0.655127	0.011540	0.108388	-0.092551	-0.492054	0.476267	0.500332	0.529831
60527	9.720901	0.657762	0.773722	0.056469	0.236920	-0.041921	-0.492616	0.475915	0.501431	0.528584
60528	10.018994	0.513205	0.626263	-0.105488	0.088502	0.238027	-0.493254	0.475338	0.502657	0.527342
60529	10.144298	0.556141	0.657753	-0.072018	0.124743	0.367095	-0.494000	0.474524	0.503906	0.526184
