// General information: 
//  MT Manager version: 2021.0.0 
//  XDA version: 2021.0.0 build 5908 rev 109668 built on 2021-04-19
// Device information: 
//  DeviceId: 00B43DEC
//  ProductCode: MTW2-3A7G6
//  Firmware Version: 4.3.5
//  Hardware Version: 1.1.0
// Device settings: 
//  Filter Profile: human(46.1)
//  Option Flags: Orientation Smoother Disabled, Position/Velocity Smoother Disabled, Continuous Zero Rotation Update Disabled, AHS Disabled, ICC Disabled
// Coordinate system: ENU
PacketCounter	Acc_X	Acc_Y	Acc_Z	FreeAcc_E	FreeAcc_N	FreeAcc_U	Quat_q0	Quat_q1	Quat_q2	Quat_q3
59330	-9.353817	0.806281	3.099045	0.115197	-0.271062	0.069687	0.354255	0.545773	0.232651	-0.722847
59331	-9.331272	0.793823	3.023310	0.151425	-0.216107	0.024668	0.354055	0.545756	0.232762	-0.722923
59332	-9.326417	0.817842	3.015450	0.177312	-0.233853	0.018778	0.353622	0.545805	0.233071	-0.722998
59333	-9.305270	0.746309	3.049933	0.102281	-0.229329	0.004850	0.352893	0.545987	0.233519	-0.723072
59334	-9.314062	0.646093	3.014958	0.055361	-0.154294	-0.002884	0.352031	0.546215	0.234167	-0.723111
59335	-9.266702	0.561988	2.955210	0.027514	-0.090590	-0.070417	0.351134	0.546500	0.234993	-0.723063
59336	-9.276955	0.459797	2.963674	-0.049888	-0.050499	-0.063247	0.350270	0.546909	0.235751	-0.722927
59337	-9.333245	0.316947	2.813093	-0.050864	0.142338	-0.060738	0.349602	0.547230	0.236530	-0.722753
59338	-9.307932	0.355962	2.825445	-0.032896	0.083346	-0.079271	0.349113	0.547575	0.237024	-0.722566
59339	-9.332151	0.382263	2.752026	0.036499	0.111594	-0.076415	0.348759	0.547819	0.237341	-0.722448
59340	-9.331187	0.460314	2.769952	0.083386	0.038847	-0.068607	0.348481	0.547967	0.237522	-0.722410
59341	-9.352242	0.454330	2.822792	0.049288	0.004709	-0.033294	0.348238	0.548032	0.237636	-0.722441
59342	-9.349407	0.441089	2.851656	0.021482	-0.011196	-0.028142	0.348084	0.548064	0.237655	-0.722484
59343	-9.326508	0.430498	2.824820	0.027578	0.008221	-0.058311	0.348018	0.548064	0.237624	-0.722526
59344	-9.360897	0.510174	2.867035	0.066865	-0.064972	-0.009736	0.347976	0.548048	0.237525	-0.722591
59345	-9.320470	0.476067	2.873514	0.031106	-0.055755	-0.047913	0.347962	0.548003	0.237440	-0.722659
59346	-9.359156	0.459408	2.935531	-0.014692	-0.077774	0.006474	0.347987	0.548014	0.237349	-0.722670
59347	-9.350744	0.397242	2.840261	-0.002999	0.031507	-0.032079	0.348107	0.547981	0.237192	-0.722688
59348	-9.358097	0.420259	2.828839	0.021775	0.031749	-0.027420	0.348319	0.547897	0.236924	-0.722738
59349	-9.336674	0.455298	2.832989	0.041175	0.008745	-0.045148	0.348588	0.547756	0.236546	-0.722838
59350	-9.351296	0.530585	2.916757	0.046328	-0.086923	-0.003201	0.348867	0.547590	0.236167	-0.722954
59351	-9.337515	0.600786	2.961408	0.068228	-0.158543	0.000073	0.349137	0.547428	0.235828	-0.723056
59352	-9.333778	0.525188	2.929163	0.031300	-0.077765	-0.016351	0.349393	0.547251	0.235512	-0.723170
59353	-9.352516	0.579119	2.924864	0.078305	-0.096662	0.002825	0.349637	0.547068	0.235230	-0.723282
59354	-9.309803	0.562425	2.940364	0.050400	-0.099601	-0.034036	0.349828	0.546855	0.234996	-0.723427
59355	-9.310419	0.493490	2.876387	0.041125	-0.001985	-0.055672	0.350004	0.546683	0.234805	-0.723534
59356	-9.298236	0.532558	2.911339	0.047687	-0.048803	-0.055021	0.350196	0.546517	0.234570	-0.723643
59357	-9.264826	0.536592	2.959736	0.014636	-0.088016	-0.072204	0.350381	0.546424	0.234351	-0.723694
59358	-9.312737	0.593774	2.991311	0.045115	-0.130989	-0.014300	0.350495	0.546366	0.234234	-0.723720
59359	-9.318003	0.577818	3.001048	0.026545	-0.123306	-0.007105	0.350609	0.546383	0.234143	-0.723683
59360	-9.324406	0.517949	2.900420	0.044704	-0.008653	-0.033977	0.350761	0.546396	0.234068	-0.723623
59361	-9.324120	0.520853	2.900820	0.044391	-0.007530	-0.033974	0.350950	0.546389	0.233891	-0.723594
59362	-9.343928	0.481102	2.898946	0.016802	0.030242	-0.017631	0.351195	0.546328	0.233669	-0.723592
59363	-9.315019	0.482666	2.911606	0.003196	0.020451	-0.041323	0.351536	0.546227	0.233342	-0.723609
59364	-9.341669	0.574495	2.945510	0.053060	-0.046841	-0.001070	0.351931	0.546091	0.232938	-0.723650
59365	-9.332396	0.534741	2.957126	0.012105	-0.020071	-0.008423	0.352348	0.545920	0.232530	-0.723708
59366	-9.330139	0.622331	2.953860	0.078763	-0.063356	-0.006881	0.352822	0.545684	0.232120	-0.723786
59367	-9.306149	0.579835	2.923433	0.061399	-0.006945	-0.041134	0.353293	0.545442	0.231664	-0.723885
59368	-9.279807	0.689984	3.049205	0.059887	-0.161651	-0.021935	0.353735	0.545180	0.231219	-0.724008
59369	-9.311422	0.655338	3.048716	0.038913	-0.118092	0.006235	0.354098	0.544976	0.230862	-0.724098
59370	-9.300602	0.640114	3.020232	0.043897	-0.080880	-0.013490	0.354429	0.544770	0.230582	-0.724181
59371	-9.294904	0.620502	3.004705	0.038564	-0.049445	-0.024706	0.354743	0.544567	0.230310	-0.724266
59372	-9.309254	0.570537	2.941306	0.043850	0.041426	-0.033354	0.355069	0.544361	0.229986	-0.724365
59373	-9.283607	0.662921	3.012456	0.064576	-0.065874	-0.030499	0.355425	0.544130	0.229658	-0.724467
59374	-9.305089	0.568756	2.999343	0.005671	0.021048	-0.019642	0.355764	0.543912	0.229320	-0.724572
59375	-9.230299	0.622148	3.093726	-0.026109	-0.089656	-0.058309	0.356149	0.543709	0.228897	-0.724669
59376	-9.268572	0.728730	3.079596	0.068281	-0.128504	-0.019823	0.356452	0.543597	0.228583	-0.724703
59377	-9.273076	0.623432	3.099782	-0.025048	-0.063875	-0.015619	0.356805	0.543459	0.228275	-0.724729
59378	-9.267873	0.604248	3.034557	-0.000425	0.002701	-0.041960	0.357165	0.543324	0.227938	-0.724760
59379	-9.293223	0.616056	3.031022	0.012521	0.015111	-0.018290	0.357618	0.543181	0.227539	-0.724769
59380	-9.299638	0.551753	3.078544	-0.067433	0.036962	-0.001509	0.358037	0.543007	0.227105	-0.724829
59381	-9.248910	0.812352	3.154331	0.071201	-0.188312	-0.009039	0.358375	0.542894	0.226594	-0.724906
59382	-9.238119	0.959560	3.199386	0.149791	-0.309967	0.004702	0.358598	0.542852	0.226352	-0.724903
59383	-9.263467	0.993175	3.151456	0.208444	-0.287029	0.016049	0.358665	0.542815	0.226313	-0.724910
59384	-9.265669	0.736825	3.082188	0.060279	-0.070272	-0.020505	0.358605	0.542752	0.226373	-0.724968
59385	-9.257755	0.793245	3.084757	0.102149	-0.112362	-0.023513	0.358495	0.542724	0.226457	-0.725017
59386	-9.248768	0.797289	3.105144	0.092665	-0.134653	-0.025421	0.358363	0.542720	0.226615	-0.725035
59387	-9.216182	0.739905	3.116603	0.038656	-0.118952	-0.056508	0.358177	0.542769	0.226835	-0.725022
59388	-9.269453	0.652479	3.039398	0.030875	0.001854	-0.035906	0.358019	0.542867	0.227024	-0.724967
59389	-9.250864	0.678215	3.034196	0.050163	-0.021241	-0.053494	0.357898	0.542985	0.227175	-0.724891
59390	-9.257205	0.671709	3.043625	0.039518	-0.025840	-0.044962	0.357829	0.543064	0.227285	-0.724832
59391	-9.262372	0.680488	3.057928	0.036588	-0.042527	-0.035041	0.357806	0.543160	0.227316	-0.724762
59392	-9.304586	0.686145	3.042247	0.056280	-0.024633	0.000447	0.357830	0.543193	0.227342	-0.724717
59393	-9.270911	0.713423	3.044726	0.069002	-0.053250	-0.028950	0.357882	0.543211	0.227308	-0.724689
59394	-9.287312	0.673522	3.027601	0.051980	-0.009575	-0.021295	0.357930	0.543176	0.227267	-0.724704
59395	-9.291053	0.684187	3.045855	0.049287	-0.026445	-0.011367	0.358018	0.543106	0.227194	-0.724736
59396	-9.255526	0.727155	3.103743	0.040010	-0.102554	-0.024193	0.358087	0.543031	0.227117	-0.724783
59397	-9.249342	0.824949	3.133637	0.094944	-0.187181	-0.014397	0.358114	0.542959	0.227109	-0.724825
59398	-9.277287	0.666255	3.049027	0.034386	-0.016060	-0.024579	0.358072	0.542923	0.227142	-0.724862
59399	-9.241708	0.720743	3.109250	0.032813	-0.104363	-0.035975	0.358057	0.542895	0.227177	-0.724880
59400	-9.254369	0.747696	3.063651	0.085151	-0.087137	-0.036517	0.357992	0.542890	0.227234	-0.724898
59401	-9.265614	0.723516	3.084738	0.056261	-0.085167	-0.020840	0.357893	0.542900	0.227338	-0.724907
59402	-9.263136	0.695716	3.061729	0.050858	-0.053594	-0.032175	0.357780	0.542886	0.227403	-0.724952
59403	-9.255710	0.752815	3.112102	0.062498	-0.130747	-0.019880	0.357649	0.542880	0.227511	-0.724988
59404	-9.267403	0.725474	3.083877	0.063649	-0.093572	-0.019395	0.357452	0.542899	0.227710	-0.725008
59405	-9.254196	0.652035	3.099821	-0.002105	-0.065858	-0.031591	0.357249	0.542942	0.227921	-0.725010
59406	-9.227794	0.655751	3.108271	-0.007713	-0.088165	-0.053810	0.356968	0.543078	0.228178	-0.724965
59407	-9.266055	0.672291	3.030815	0.060058	-0.041524	-0.040674	0.356694	0.543264	0.228428	-0.724882
59408	-9.268630	0.665802	3.024368	0.059797	-0.040442	-0.040667	0.356406	0.543406	0.228717	-0.724826
59409	-9.284131	0.675069	3.017971	0.074010	-0.045842	-0.027425	0.356133	0.543541	0.228992	-0.724773
59410	-9.281833	0.578714	3.005639	0.009562	0.017689	-0.039214	0.355871	0.543648	0.229218	-0.724750
59411	-9.269200	0.679450	3.051322	0.055417	-0.090536	-0.031123	0.355622	0.543764	0.229433	-0.724717
59412	-9.257960	0.672037	3.098675	0.018665	-0.129933	-0.027699	0.355305	0.543909	0.229722	-0.724672
59413	-9.269306	0.575271	2.983372	0.020941	0.009107	-0.058152	0.355014	0.544101	0.230005	-0.724581
59414	-9.290841	0.662163	3.027076	0.061670	-0.081446	-0.019274	0.354735	0.544294	0.230270	-0.724489
59415	-9.321280	0.551754	2.965467	0.022083	0.034858	-0.015597	0.354514	0.544421	0.230501	-0.724427
59416	-9.302387	0.590998	2.964299	0.049515	-0.000800	-0.031670	0.354364	0.544516	0.230651	-0.724382
59417	-9.283950	0.618737	3.009113	0.038819	-0.058988	-0.033917	0.354258	0.544574	0.230711	-0.724371
59418	-9.310257	0.677115	3.062579	0.053271	-0.130556	0.010697	0.354146	0.544618	0.230793	-0.724366
59419	-9.311680	0.550434	2.961425	0.022627	0.021732	-0.025992	0.354070	0.544649	0.230879	-0.724353
59420	-9.301690	0.584775	2.989618	0.028882	-0.025249	-0.024953	0.354030	0.544693	0.230921	-0.724325
59421	-9.289128	0.567564	2.988498	0.014283	-0.017369	-0.038198	0.354021	0.544715	0.230920	-0.724314
59422	-9.288747	0.581473	2.991851	0.021971	-0.028404	-0.036757	0.354076	0.544716	0.230862	-0.724305
59423	-9.285618	0.652203	3.012193	0.061283	-0.088568	-0.029549	0.354123	0.544713	0.230804	-0.724303
59424	-9.286922	0.624463	3.003784	0.045360	-0.062969	-0.032423	0.354168	0.544707	0.230764	-0.724298
59425	-9.302612	0.584682	2.986765	0.028288	-0.019386	-0.024938	0.354231	0.544692	0.230710	-0.724296
59426	-9.312533	0.563468	2.961036	0.029426	0.017689	-0.024566	0.354342	0.544670	0.230586	-0.724297
59427	-9.286815	0.614638	3.001104	0.037124	-0.047060	-0.033846	0.354511	0.544634	0.230398	-0.724301
59428	-9.284832	0.645508	3.010895	0.052561	-0.070443	-0.030942	0.354659	0.544593	0.230256	-0.724305
59429	-9.279825	0.652600	3.047036	0.032859	-0.098474	-0.024190	0.354801	0.544590	0.230140	-0.724274
59430	-9.284877	0.636146	3.007650	0.044301	-0.055681	-0.032374	0.354916	0.544617	0.230018	-0.724237
59431	-9.315456	0.666019	2.971622	0.092672	-0.038316	-0.012597	0.355064	0.544613	0.229867	-0.724215
59432	-9.287246	0.679514	3.034040	0.057387	-0.095734	-0.019443	0.355185	0.544583	0.229771	-0.724209
59433	-9.284641	0.628686	3.004919	0.036032	-0.039793	-0.033809	0.355315	0.544560	0.229681	-0.724191
59434	-9.282988	0.658614	3.013740	0.051525	-0.063176	-0.030886	0.355455	0.544542	0.229574	-0.724169
59435	-9.303231	0.616893	3.011164	0.023755	-0.025338	-0.014904	0.355609	0.544497	0.229457	-0.724165
59436	-9.277260	0.667781	3.051552	0.031564	-0.090055	-0.024105	0.355767	0.544440	0.229297	-0.724181
59437	-9.272294	0.659782	3.035789	0.034062	-0.070765	-0.034109	0.355902	0.544387	0.229146	-0.724203
59438	-9.270244	0.690234	3.045581	0.049720	-0.094065	-0.031169	0.356056	0.544333	0.228996	-0.724215
59439	-9.296484	0.710086	3.042091	0.070568	-0.093831	-0.006089	0.356165	0.544274	0.228900	-0.724235
59440	-9.261320	0.658290	3.009452	0.046611	-0.043535	-0.052660	0.356269	0.544218	0.228810	-0.724255
59441	-9.293248	0.659705	3.015132	0.049076	-0.036683	-0.020500	0.356383	0.544143	0.228707	-0.724288
59442	-9.254113	0.693050	3.056181	0.042361	-0.094813	-0.042918	0.356464	0.544067	0.228596	-0.724341
59443	-9.290703	0.688977	3.026656	0.064453	-0.058668	-0.017541	0.356538	0.543994	0.228546	-0.724374
59444	-9.281990	0.669632	3.041987	0.039265	-0.056665	-0.022249	0.356631	0.543916	0.228446	-0.724419
59445	-9.283906	0.707392	3.020926	0.082384	-0.062935	-0.024605	0.356718	0.543816	0.228390	-0.724469
59446	-9.280796	0.669908	3.045566	0.038982	-0.054365	-0.022235	0.356770	0.543738	0.228329	-0.724521
59447	-9.260923	0.685316	3.042429	0.050351	-0.065449	-0.041101	0.356834	0.543657	0.228279	-0.724565
59448	-9.253197	0.651379	3.052850	0.017206	-0.051108	-0.047293	0.356878	0.543646	0.228235	-0.724566
59449	-9.290416	0.741574	3.063759	0.084059	-0.106340	-0.002998	0.356916	0.543635	0.228199	-0.724567
59450	-9.260849	0.684393	3.042861	0.049615	-0.061885	-0.041074	0.356913	0.543617	0.228203	-0.724580
59451	-9.284607	0.678248	3.064668	0.034943	-0.066328	-0.012151	0.356942	0.543604	0.228183	-0.724583
59452	-9.274839	0.684852	3.038046	0.055595	-0.053668	-0.029262	0.356967	0.543568	0.228160	-0.724605
59453	-9.294121	0.668468	3.043188	0.043603	-0.040277	-0.010391	0.357001	0.543514	0.228131	-0.724637
59454	-9.273281	0.618345	3.054093	-0.003900	-0.019410	-0.029887	0.357065	0.543458	0.228081	-0.724663
59455	-9.273429	0.698121	3.044516	0.062825	-0.062273	-0.027745	0.357128	0.543403	0.227981	-0.724705
59456	-9.267501	0.716181	3.036229	0.080953	-0.067645	-0.034802	0.357173	0.543370	0.227912	-0.724729
59457	-9.273880	0.685497	3.090350	0.024582	-0.082632	-0.013831	0.357214	0.543334	0.227882	-0.724745
59458	-9.267693	0.716885	3.085014	0.050637	-0.100363	-0.019387	0.357234	0.543342	0.227869	-0.724734
59459	-9.241560	0.683001	3.036583	0.051297	-0.050945	-0.061353	0.357233	0.543348	0.227863	-0.724732
59460	-9.263533	0.719045	3.069808	0.060530	-0.092283	-0.027923	0.357231	0.543386	0.227874	-0.724701
59461	-9.288759	0.683773	3.033794	0.060284	-0.037348	-0.017410	0.357235	0.543398	0.227892	-0.724684
59462	-9.260410	0.706783	3.049508	0.062726	-0.071926	-0.037969	0.357199	0.543444	0.227916	-0.724660
59463	-9.290995	0.668191	3.074912	0.022003	-0.057641	-0.003491	0.357178	0.543463	0.227980	-0.724636
59464	-9.279786	0.716168	3.058942	0.066391	-0.081833	-0.016088	0.357161	0.543496	0.228004	-0.724611
59465	-9.282509	0.672448	3.044893	0.042509	-0.044051	-0.020609	0.357118	0.543525	0.228079	-0.724587
59466	-9.251637	0.750711	3.076845	0.076694	-0.127766	-0.035105	0.357072	0.543539	0.228141	-0.724580
59467	-9.275495	0.647078	3.006552	0.047241	-0.006091	-0.040758	0.357011	0.543561	0.228264	-0.724555
59468	-9.281165	0.641018	3.018057	0.036549	-0.010683	-0.032189	0.356981	0.543578	0.228323	-0.724538
59469	-9.297697	0.693803	3.042141	0.064129	-0.058334	-0.005769	0.356965	0.543564	0.228343	-0.724551
59470	-9.247199	0.694542	3.077050	0.035209	-0.097990	-0.042811	0.356925	0.543553	0.228383	-0.724566
59471	-9.289090	0.698351	3.062213	0.054694	-0.079652	-0.007449	0.356873	0.543568	0.228443	-0.724562
59472	-9.268366	0.660323	3.075083	0.015135	-0.071194	-0.025478	0.356812	0.543566	0.228506	-0.724573
59473	-9.272332	0.681242	3.046499	0.050288	-0.065146	-0.029303	0.356754	0.543590	0.228578	-0.724560
59474	-9.278558	0.661341	3.054176	0.031788	-0.057424	-0.022249	0.356716	0.543592	0.228630	-0.724562
59475	-9.277257	0.701347	3.065097	0.055308	-0.092905	-0.017662	0.356663	0.543607	0.228690	-0.724558
59476	-9.274908	0.660861	3.037886	0.041829	-0.049325	-0.030804	0.356620	0.543634	0.228732	-0.724545
59477	-9.280081	0.654392	3.001087	0.061204	-0.018802	-0.037691	0.356578	0.543651	0.228761	-0.724544
59478	-9.275953	0.657560	3.035413	0.041624	-0.046939	-0.030792	0.356568	0.543626	0.228792	-0.724558
59479	-9.261267	0.682093	3.047497	0.050777	-0.076007	-0.039500	0.356538	0.543621	0.228822	-0.724567
59480	-9.247937	0.678689	3.051028	0.044088	-0.080587	-0.051268	0.356508	0.543637	0.228840	-0.724564
59481	-9.279816	0.705225	3.061884	0.062270	-0.098074	-0.016057	0.356464	0.543661	0.228911	-0.724545
59482	-9.297488	0.634627	3.034815	0.029090	-0.030121	-0.011954	0.356404	0.543702	0.228995	-0.724518
59483	-9.292760	0.650201	3.023564	0.047114	-0.035604	-0.018985	0.356358	0.543737	0.229059	-0.724494
59484	-9.292234	0.676354	3.030081	0.062724	-0.058853	-0.015899	0.356308	0.543759	0.229099	-0.724489
59485	-9.278594	0.686111	3.037031	0.063884	-0.075744	-0.026125	0.356224	0.543784	0.229190	-0.724482
59486	-9.281188	0.641138	3.022896	0.039954	-0.037906	-0.030746	0.356134	0.543803	0.229264	-0.724489
59487	-9.279664	0.694352	3.037366	0.071471	-0.085592	-0.024560	0.356035	0.543828	0.229360	-0.724489
59488	-9.281850	0.662782	3.026842	0.055514	-0.059796	-0.027641	0.355902	0.543863	0.229470	-0.724493
59489	-9.284116	0.631142	3.016001	0.039504	-0.034065	-0.030730	0.355788	0.543910	0.229577	-0.724480
59490	-9.293383	0.662791	3.052204	0.042352	-0.080871	-0.008919	0.355665	0.543960	0.229662	-0.724476
59491	-9.266997	0.640666	3.006046	0.051103	-0.044036	-0.049520	0.355562	0.544008	0.229787	-0.724450
59492	-9.316065	0.597396	2.990415	0.036289	0.005435	-0.010280	0.355465	0.544067	0.229884	-0.724424
59493	-9.292686	0.629451	3.023038	0.036294	-0.047251	-0.020577	0.355402	0.544084	0.229947	-0.724421
59494	-9.315904	0.649956	3.051691	0.037601	-0.076244	0.011472	0.355365	0.544100	0.230003	-0.724410
59495	-9.307148	0.641318	3.019562	0.050368	-0.051565	-0.007237	0.355318	0.544118	0.230057	-0.724403
59496	-9.274655	0.653072	3.018387	0.055501	-0.068445	-0.037790	0.355271	0.544100	0.230122	-0.724418
59497	-9.293933	0.648989	3.025860	0.051442	-0.067182	-0.017431	0.355218	0.544114	0.230172	-0.724418
59498	-9.299584	0.642970	3.037522	0.040829	-0.071671	-0.008840	0.355144	0.544136	0.230244	-0.724415
59499	-9.281655	0.642142	3.026963	0.044378	-0.070597	-0.029180	0.355084	0.544163	0.230338	-0.724394
59500	-9.295315	0.669325	3.028248	0.066547	-0.088071	-0.014271	0.355001	0.544210	0.230439	-0.724368
59501	-9.283344	0.650121	3.025573	0.051809	-0.080353	-0.027592	0.354883	0.544294	0.230595	-0.724313
59502	-9.289634	0.627936	2.982455	0.063183	-0.037725	-0.036123	0.354783	0.544379	0.230723	-0.724257
59503	-9.296456	0.607163	2.988083	0.044601	-0.029968	-0.029104	0.354682	0.544457	0.230852	-0.724206
59504	-9.307044	0.611128	3.015766	0.031630	-0.052475	-0.010359	0.354592	0.544508	0.230923	-0.724189
59505	-9.298021	0.616222	2.986781	0.052210	-0.039908	-0.027522	0.354536	0.544558	0.231006	-0.724153
59506	-9.299216	0.600311	2.980872	0.043997	-0.026634	-0.029092	0.354512	0.544573	0.231034	-0.724144
59507	-9.288372	0.663645	3.018403	0.066511	-0.097942	-0.024377	0.354490	0.544565	0.231044	-0.724158
59508	-9.293953	0.629060	2.974253	0.070004	-0.042984	-0.034512	0.354449	0.544550	0.231069	-0.724182
59509	-9.275763	0.644221	3.017666	0.051662	-0.089158	-0.037695	0.354411	0.544537	0.231097	-0.724200
59510	-9.276652	0.628118	3.012740	0.043413	-0.075714	-0.039265	0.354351	0.544542	0.231130	-0.724216
59511	-9.301382	0.606176	3.029399	0.020934	-0.067786	-0.011902	0.354289	0.544542	0.231179	-0.724231
59512	-9.297088	0.607556	3.014467	0.031136	-0.060926	-0.020482	0.354234	0.544581	0.231251	-0.724205
59513	-9.307058	0.596822	2.990626	0.039975	-0.036068	-0.018890	0.354168	0.544597	0.231297	-0.724211
59514	-9.297532	0.602114	2.963107	0.060620	-0.023640	-0.036062	0.354125	0.544578	0.231328	-0.724236
59515	-9.303144	0.582629	2.972109	0.042021	-0.015894	-0.029060	0.354104	0.544542	0.231316	-0.724277
59516	-9.288368	0.607809	2.985493	0.051210	-0.044865	-0.037630	0.354104	0.544486	0.231265	-0.724335
59517	-9.321416	0.608204	3.038763	0.023847	-0.072802	0.010088	0.354109	0.544443	0.231210	-0.724383
59518	-9.324617	0.630874	3.012202	0.059036	-0.066706	0.006269	0.354129	0.544401	0.231182	-0.724414
59519	-9.268321	0.635656	2.986724	0.070555	-0.065975	-0.054766	0.354129	0.544361	0.231173	-0.724447
59520	-9.255892	0.590435	2.979436	0.040058	-0.033940	-0.071310	0.354117	0.544311	0.231159	-0.724494
59521	-9.293769	0.571527	2.992981	0.024135	-0.020306	-0.032210	0.354118	0.544274	0.231117	-0.724535
59522	-9.305505	0.658336	3.061708	0.048190	-0.121546	0.004786	0.354136	0.544258	0.231069	-0.724554
59523	-9.278631	0.610997	3.010167	0.040858	-0.060359	-0.039147	0.354158	0.544246	0.231046	-0.724559
59524	-9.273403	0.628037	3.000514	0.059067	-0.065692	-0.046127	0.354162	0.544245	0.231047	-0.724558
59525	-9.302081	0.602815	2.982369	0.056061	-0.028464	-0.025825	0.354166	0.544247	0.231018	-0.724564
59526	-9.294227	0.568750	2.992090	0.022907	-0.014366	-0.032197	0.354201	0.544212	0.230981	-0.724585
59527	-9.305586	0.640708	3.008461	0.069035	-0.068472	-0.012391	0.354230	0.544174	0.230907	-0.724622
59528	-9.297029	0.650206	3.079262	0.030014	-0.126030	0.001720	0.354226	0.544168	0.230884	-0.724636
59529	-9.301520	0.644408	3.043435	0.049355	-0.095531	-0.005319	0.354199	0.544165	0.230884	-0.724651
59530	-9.297493	0.603180	2.968547	0.065558	-0.017155	-0.034402	0.354168	0.544160	0.230926	-0.724657
59531	-9.284030	0.599691	2.972604	0.058688	-0.021779	-0.046147	0.354148	0.544145	0.230930	-0.724677
59532	-9.280711	0.575143	2.999822	0.023098	-0.025650	-0.042317	0.354147	0.544100	0.230912	-0.724717
59533	-9.279613	0.602641	3.008823	0.038815	-0.048930	-0.039074	0.354173	0.544045	0.230839	-0.724769
59534	-9.292191	0.632199	3.013395	0.060921	-0.066220	-0.024075	0.354195	0.543990	0.230777	-0.724819
59535	-9.287707	0.636508	3.049519	0.041328	-0.094409	-0.016994	0.354188	0.543950	0.230719	-0.724871
59536	-9.320865	0.607672	3.046094	0.027873	-0.062918	0.011861	0.354216	0.543893	0.230676	-0.724914
59537	-9.292274	0.602241	3.008017	0.044412	-0.038445	-0.027302	0.354233	0.543818	0.230628	-0.724977
59538	-9.268887	0.608243	3.036034	0.028656	-0.066810	-0.040561	0.354257	0.543744	0.230585	-0.725035
59539	-9.290642	0.628862	3.018864	0.059993	-0.060632	-0.024033	0.354273	0.543669	0.230528	-0.725101
59540	-9.277295	0.598454	3.016798	0.037334	-0.041017	-0.039032	0.354309	0.543595	0.230475	-0.725156
59541	-9.293859	0.652403	3.043209	0.064965	-0.088431	-0.012150	0.354348	0.543521	0.230403	-0.725215
59542	-9.271711	0.616501	3.059017	0.025300	-0.080181	-0.030294	0.354362	0.543456	0.230352	-0.725273
59543	-9.279854	0.664438	3.102267	0.036209	-0.139101	-0.006538	0.354354	0.543438	0.230352	-0.725290
59544	-9.286035	0.602186	3.050325	0.023663	-0.059875	-0.020169	0.354350	0.543421	0.230353	-0.725305
59545	-9.304303	0.598109	3.009929	0.049607	-0.023546	-0.015522	0.354340	0.543414	0.230338	-0.725320
59546	-9.271093	0.625597	3.013817	0.062756	-0.052777	-0.044325	0.354351	0.543386	0.230326	-0.725340
59547	-9.276817	0.622416	3.075546	0.022325	-0.092185	-0.020001	0.354366	0.543370	0.230300	-0.725352
59548	-9.304985	0.611349	3.061676	0.027195	-0.066995	0.001849	0.354394	0.543374	0.230290	-0.725339
59549	-9.276602	0.620177	3.025765	0.051796	-0.054846	-0.035698	0.354420	0.543374	0.230294	-0.725325
59550	-9.267726	0.628449	3.046753	0.042558	-0.077340	-0.037177	0.354458	0.543405	0.230293	-0.725283
59551	-9.268933	0.599756	3.037580	0.026370	-0.051846	-0.040464	0.354491	0.543398	0.230322	-0.725263
59552	-9.282276	0.629043	3.039973	0.048698	-0.069128	-0.025419	0.354513	0.543430	0.230318	-0.725229
59553	-9.268992	0.626907	3.043216	0.042019	-0.073830	-0.037148	0.354546	0.543452	0.230341	-0.725190
59554	-9.283337	0.628146	3.036915	0.048316	-0.066755	-0.025400	0.354570	0.543498	0.230364	-0.725136
59555	-9.275208	0.622193	3.052905	0.031212	-0.077074	-0.028520	0.354582	0.543549	0.230385	-0.725085
59556	-9.284414	0.641010	3.036694	0.055868	-0.076659	-0.023726	0.354587	0.543620	0.230446	-0.725010
59557	-9.285806	0.626068	3.029791	0.047663	-0.063283	-0.025374	0.354577	0.543708	0.230494	-0.724934
59558	-9.281914	0.628821	3.013375	0.057965	-0.056492	-0.033975	0.354560	0.543800	0.230565	-0.724851
59559	-9.273412	0.650256	3.036407	0.056889	-0.091173	-0.033770	0.354532	0.543867	0.230636	-0.724792
59560	-9.302823	0.624280	3.015849	0.053887	-0.053992	-0.013617	0.354517	0.543950	0.230721	-0.724710
59561	-9.285477	0.610886	3.000327	0.049693	-0.040939	-0.035619	0.354499	0.544008	0.230788	-0.724653
59562	-9.290520	0.633924	3.019460	0.055076	-0.069842	-0.023671	0.354476	0.544048	0.230846	-0.724616
59563	-9.310813	0.602472	3.017826	0.035073	-0.044111	-0.006653	0.354448	0.544095	0.230885	-0.724583
59564	-9.277547	0.657362	3.028137	0.064106	-0.097828	-0.032047	0.354393	0.544145	0.230948	-0.724552
59565	-9.298000	0.625063	3.026168	0.044151	-0.072064	-0.015032	0.354320	0.544190	0.231037	-0.724525
59566	-9.303125	0.617203	2.988396	0.063313	-0.041547	-0.022190	0.354205	0.544228	0.231144	-0.724518
59567	-9.332623	0.575265	2.964684	0.052207	0.007898	-0.003745	0.354118	0.544241	0.231227	-0.724525
59568	-9.277075	0.607559	2.994517	0.050016	-0.051058	-0.045637	0.354023	0.544221	0.231292	-0.724566
59569	-9.296014	0.616273	3.006176	0.053833	-0.061854	-0.023610	0.353910	0.544204	0.231382	-0.724605
59570	-9.301344	0.622868	3.022191	0.051231	-0.078470	-0.013309	0.353783	0.544203	0.231480	-0.724636
59571	-9.287523	0.615884	2.976535	0.074195	-0.048165	-0.040823	0.353639	0.544218	0.231605	-0.724655
59572	-9.294041	0.579884	2.979892	0.047653	-0.028339	-0.035564	0.353489	0.544217	0.231695	-0.724700
59573	-9.308120	0.548390	2.917346	0.067848	0.038037	-0.043005	0.353344	0.544197	0.231755	-0.724767
59574	-9.285835	0.581989	3.000492	0.038352	-0.049732	-0.036980	0.353242	0.544181	0.231704	-0.724845
59575	-9.263193	0.587093	3.027029	0.022617	-0.078198	-0.050121	0.353151	0.544181	0.231702	-0.724890
59576	-9.286134	0.635529	3.064156	0.040102	-0.131046	-0.014399	0.353033	0.544204	0.231700	-0.724931
59577	-9.301014	0.577333	2.992591	0.044343	-0.040459	-0.025238	0.352918	0.544273	0.231777	-0.724910
59578	-9.274293	0.585659	3.003151	0.039056	-0.063140	-0.046987	0.352801	0.544366	0.231826	-0.724882
59579	-9.307779	0.597001	3.007564	0.049374	-0.067950	-0.013221	0.352690	0.544472	0.231913	-0.724829
59580	-9.277247	0.566640	2.991829	0.030631	-0.048652	-0.048665	0.352565	0.544584	0.232021	-0.724771
59581	-9.310873	0.577881	2.995812	0.040972	-0.053575	-0.014899	0.352474	0.544690	0.232107	-0.724707
59582	-9.335409	0.598305	3.022018	0.042446	-0.081995	0.017465	0.352402	0.544794	0.232180	-0.724641
59583	-9.299793	0.572399	2.992997	0.034178	-0.057067	-0.026606	0.352317	0.544916	0.232281	-0.724558
59584	-9.286758	0.610901	3.005544	0.051424	-0.098295	-0.033216	0.352238	0.545050	0.232399	-0.724458
59585	-9.305907	0.619134	2.964627	0.085026	-0.074026	-0.027007	0.352154	0.545189	0.232573	-0.724339
59586	-9.337057	0.578505	2.986634	0.044158	-0.059511	0.007180	0.352053	0.545299	0.232723	-0.724257
59587	-9.315518	0.539418	2.948454	0.034275	-0.016495	-0.026892	0.351990	0.545410	0.232855	-0.724161
59588	-9.297634	0.567361	2.944054	0.053929	-0.039956	-0.043816	0.351937	0.545512	0.232982	-0.724069
59589	-9.312808	0.566853	2.935135	0.060167	-0.032821	-0.032092	0.351885	0.545629	0.233103	-0.723967
59590	-9.310236	0.584070	2.970088	0.048641	-0.073253	-0.023136	0.351846	0.545762	0.233229	-0.723845
59591	-9.320376	0.587572	2.947769	0.065237	-0.060562	-0.020034	0.351811	0.545864	0.233361	-0.723743
59592	-9.294368	0.582061	2.953234	0.052032	-0.071322	-0.043457	0.351751	0.545979	0.233510	-0.723638
59593	-9.323780	0.554565	2.931268	0.048926	-0.033990	-0.023448	0.351673	0.546070	0.233654	-0.723561
59594	-9.311093	0.578104	2.940061	0.058195	-0.062954	-0.031723	0.351578	0.546175	0.233810	-0.723477
59595	-9.318490	0.515344	2.932996	0.015665	-0.018768	-0.029963	0.351523	0.546258	0.233930	-0.723402
59596	-9.310273	0.564207	2.963692	0.030683	-0.077800	-0.026167	0.351473	0.546352	0.234033	-0.723322
59597	-9.333910	0.569565	2.937032	0.053888	-0.059116	-0.011359	0.351441	0.546458	0.234121	-0.723229
59598	-9.316677	0.542035	2.917037	0.041698	-0.034055	-0.035138	0.351404	0.546539	0.234214	-0.723156
59599	-9.317447	0.554907	2.918225	0.049524	-0.045107	-0.033409	0.351403	0.546608	0.234259	-0.723089
59600	-9.309122	0.577012	2.942392	0.048471	-0.079934	-0.033034	0.351414	0.546639	0.234282	-0.723053
59601	-9.323621	0.563687	2.931792	0.046930	-0.060608	-0.023041	0.351401	0.546670	0.234314	-0.723026
59602	-9.305406	0.564726	2.921671	0.050702	-0.059899	-0.043373	0.351402	0.546702	0.234366	-0.722984
59603	-9.316346	0.555809	2.946141	0.029683	-0.070027	-0.026105	0.351377	0.546739	0.234435	-0.722946
59604	-9.312125	0.544047	2.926876	0.031937	-0.051092	-0.036459	0.351369	0.546776	0.234479	-0.722908
59605	-9.331441	0.555064	2.937353	0.035824	-0.061802	-0.014380	0.351380	0.546823	0.234507	-0.722857
59606	-9.313088	0.570202	2.931149	0.047478	-0.073172	-0.032976	0.351346	0.546867	0.234557	-0.722825
59607	-9.331237	0.551422	2.885152	0.065037	-0.024597	-0.030289	0.351350	0.546887	0.234590	-0.722796
59608	-9.309413	0.543587	2.906743	0.041442	-0.040915	-0.045066	0.351345	0.546917	0.234589	-0.722777
59609	-9.342128	0.556314	2.913347	0.051802	-0.045689	-0.011276	0.351362	0.546905	0.234595	-0.722776
59610	-9.323658	0.529994	2.896873	0.039569	-0.020566	-0.035091	0.351405	0.546877	0.234535	-0.722795
59611	-9.337046	0.531947	2.892985	0.045842	-0.013448	-0.023383	0.351478	0.546810	0.234440	-0.722841
59612	-9.313843	0.539980	2.922160	0.030172	-0.041960	-0.036410	0.351576	0.546715	0.234292	-0.722914
59613	-9.321537	0.532683	2.903200	0.038821	-0.017026	-0.035082	0.351715	0.546580	0.234123	-0.723003
59614	-9.330093	0.555472	2.941555	0.033805	-0.051285	-0.014312	0.351877	0.546451	0.233901	-0.723093
59615	-9.314252	0.612745	2.966454	0.059050	-0.104714	-0.019008	0.352035	0.546336	0.233704	-0.723167
59616	-9.313343	0.587135	2.961899	0.042805	-0.079298	-0.022498	0.352202	0.546219	0.233507	-0.723238
59617	-9.307265	0.578962	2.947879	0.045074	-0.060364	-0.032877	0.352349	0.546107	0.233364	-0.723297
59618	-9.314643	0.600342	2.936764	0.069729	-0.059782	-0.028050	0.352507	0.546009	0.233203	-0.723346
59619	-9.327743	0.575839	2.926707	0.060010	-0.028365	-0.019854	0.352642	0.545903	0.233039	-0.723413
59620	-9.300302	0.589866	2.992181	0.025034	-0.086242	-0.025520	0.352801	0.545784	0.232875	-0.723478
59621	-9.293982	0.609558	2.985777	0.043174	-0.091614	-0.032387	0.352928	0.545712	0.232733	-0.723517
59622	-9.307581	0.570563	2.970919	0.025425	-0.048109	-0.025961	0.353084	0.545618	0.232635	-0.723542
59623	-9.320217	0.588450	2.972452	0.039772	-0.053142	-0.012494	0.353247	0.545549	0.232447	-0.723576
59624	-9.313873	0.609131	2.965929	0.058028	-0.058572	-0.019363	0.353436	0.545452	0.232279	-0.723610
59625	-9.318096	0.594217	2.977951	0.039355	-0.050885	-0.012481	0.353636	0.545359	0.232102	-0.723639
59626	-9.320198	0.620330	2.953989	0.074510	-0.044585	-0.016290	0.353840	0.545233	0.231909	-0.723696
59627	-9.282689	0.614839	2.985331	0.044515	-0.067036	-0.042731	0.354054	0.545110	0.231703	-0.723751
59628	-9.299905	0.629838	3.001354	0.048374	-0.077550	-0.020614	0.354253	0.544990	0.231523	-0.723801
59629	-9.284937	0.630814	3.009409	0.041678	-0.082296	-0.032298	0.354441	0.544879	0.231350	-0.723848
59630	-9.310911	0.650886	3.007130	0.062468	-0.081257	-0.007125	0.354649	0.544759	0.231169	-0.723894
59631	-9.287577	0.632445	3.028985	0.030843	-0.085470	-0.023634	0.354819	0.544663	0.231000	-0.723937
59632	-9.304395	0.617062	2.987773	0.048313	-0.036784	-0.021077	0.354994	0.544536	0.230871	-0.723988
59633	-9.298910	0.580906	2.965837	0.034488	0.006370	-0.035053	0.355213	0.544403	0.230679	-0.724041
59634	-9.287506	0.635009	3.004340	0.049442	-0.052625	-0.030978	0.355439	0.544245	0.230453	-0.724121
59635	-9.276786	0.646784	3.031078	0.040298	-0.075163	-0.032235	0.355645	0.544082	0.230235	-0.724212
59636	-9.275689	0.621507	3.027547	0.023985	-0.049743	-0.035793	0.355868	0.543922	0.230033	-0.724286
59637	-9.306608	0.624077	3.035634	0.026162	-0.042263	-0.003762	0.356104	0.543775	0.229846	-0.724341
59638	-9.280983	0.633413	3.018692	0.040338	-0.035953	-0.032736	0.356360	0.543602	0.229575	-0.724431
59639	-9.278695	0.651156	3.028014	0.048089	-0.046928	-0.030942	0.356605	0.543416	0.229358	-0.724518
59640	-9.254399	0.690860	3.116201	0.018864	-0.134672	-0.024255	0.356798	0.543284	0.229104	-0.724603
59641	-9.288228	0.701209	3.043975	0.078143	-0.074907	-0.013864	0.356987	0.543159	0.228947	-0.724653
59642	-9.245290	0.712461	3.065698	0.066624	-0.103855	-0.047122	0.357146	0.543028	0.228758	-0.724733
59643	-9.277632	0.671663	3.060631	0.044760	-0.059786	-0.020473	0.357281	0.542911	0.228627	-0.724795
59644	-9.281140	0.683613	3.081074	0.042121	-0.076219	-0.010018	0.357432	0.542791	0.228449	-0.724867
59645	-9.270786	0.664659	3.049231	0.046638	-0.039475	-0.030902	0.357568	0.542704	0.228314	-0.724907
59646	-9.273732	0.704864	3.077278	0.060119	-0.080305	-0.016846	0.357704	0.542594	0.228158	-0.724972
59647	-9.268357	0.681827	3.058898	0.054359	-0.049191	-0.029089	0.357823	0.542468	0.228026	-0.725049
59648	-9.247970	0.742298	3.117983	0.060460	-0.131850	-0.026128	0.357927	0.542354	0.227906	-0.725120
59649	-9.289383	0.719623	3.097538	0.063617	-0.088320	0.005327	0.357966	0.542309	0.227843	-0.725155
59650	-9.252492	0.651647	3.012774	0.060877	0.007748	-0.060442	0.357991	0.542226	0.227763	-0.725229
59651	-9.275171	0.659646	3.040880	0.054273	-0.008359	-0.029648	0.358043	0.542103	0.227665	-0.725326
59652	-9.254005	0.746821	3.108411	0.076477	-0.115275	-0.023028	0.358079	0.541936	0.227562	-0.725465
59653	-9.239847	0.715794	3.108575	0.053754	-0.095912	-0.038319	0.358100	0.541767	0.227504	-0.725600
59654	-9.234463	0.703579	3.093986	0.055978	-0.076907	-0.048772	0.358075	0.541646	0.227474	-0.725712
59655	-9.262123	0.690646	3.081851	0.060700	-0.051495	-0.027219	0.358042	0.541576	0.227501	-0.725771
59656	-9.265651	0.577597	3.098605	-0.033336	0.011669	-0.025654	0.358059	0.541517	0.227489	-0.725811
59657	-9.262930	0.646442	3.070930	0.036300	-0.012678	-0.032663	0.358090	0.541495	0.227376	-0.725848
59658	-9.276405	0.678411	3.123732	0.029066	-0.064662	-0.001235	0.358169	0.541449	0.227281	-0.725873
59659	-9.247593	0.674732	3.085841	0.045581	-0.040514	-0.040690	0.358250	0.541387	0.227155	-0.725918
59660	-9.288622	0.696098	3.126263	0.043159	-0.068235	0.012283	0.358342	0.541299	0.227048	-0.725972
59661	-9.282423	0.685470	3.062813	0.075046	-0.014347	-0.014308	0.358468	0.541186	0.226907	-0.726038
59662	-9.226378	0.695574	3.137471	0.027252	-0.084252	-0.043053	0.358610	0.541038	0.226723	-0.726136
59663	-9.256906	0.725009	3.152837	0.045524	-0.100694	-0.007376	0.358752	0.540934	0.226584	-0.726187
59664	-9.232462	0.718358	3.129853	0.051742	-0.082229	-0.038183	0.358897	0.540811	0.226410	-0.726261
59665	-9.240858	0.726887	3.163293	0.038698	-0.104333	-0.019023	0.359026	0.540725	0.226269	-0.726305
59666	-9.225271	0.739283	3.125408	0.069809	-0.086336	-0.044985	0.359119	0.540655	0.226157	-0.726346
59667	-9.257292	0.739809	3.130663	0.072040	-0.078611	-0.012970	0.359186	0.540616	0.226073	-0.726368
59668	-9.247831	0.748675	3.153248	0.062937	-0.101120	-0.014132	0.359231	0.540583	0.226030	-0.726384
59669	-9.234126	0.746254	3.157815	0.056328	-0.105954	-0.025789	0.359205	0.540574	0.226023	-0.726406
59670	-9.229593	0.748830	3.143619	0.066657	-0.099218	-0.034437	0.359182	0.540597	0.226030	-0.726398
59671	-9.253678	0.726069	3.111333	0.073763	-0.056136	-0.023432	0.359116	0.540625	0.226107	-0.726385
59672	-9.232036	0.716556	3.131522	0.050165	-0.072564	-0.038098	0.359021	0.540697	0.226177	-0.726357
59673	-9.260692	0.717457	3.119589	0.062824	-0.059229	-0.014752	0.358931	0.540750	0.226249	-0.726340
59674	-9.248950	0.670865	3.109886	0.032045	-0.027738	-0.031955	0.358834	0.540784	0.226322	-0.726339
59675	-9.267474	0.708262	3.128672	0.051938	-0.062429	-0.006072	0.358743	0.540810	0.226400	-0.726341
59676	-9.235443	0.719690	3.126956	0.057338	-0.079843	-0.036208	0.358616	0.540830	0.226459	-0.726370
59677	-9.255484	0.700266	3.129443	0.045015	-0.065930	-0.017720	0.358478	0.540878	0.226550	-0.726374
59678	-9.267069	0.632025	3.088884	0.021555	0.007358	-0.023984	0.358375	0.540923	0.226638	-0.726364
59679	-9.252041	0.711864	3.116134	0.063037	-0.070013	-0.024509	0.358267	0.540912	0.226679	-0.726413
59680	-9.266750	0.696064	3.106419	0.061302	-0.050641	-0.014694	0.358153	0.540895	0.226768	-0.726454
59681	-9.245139	0.671519	3.123736	0.029779	-0.055000	-0.031207	0.358026	0.540903	0.226827	-0.726492
59682	-9.231487	0.694753	3.134935	0.039197	-0.084051	-0.039139	0.357888	0.540922	0.226887	-0.726527
59683	-9.251121	0.689216	3.141652	0.035059	-0.082410	-0.018801	0.357735	0.540954	0.226977	-0.726550
59684	-9.261291	0.676824	3.117397	0.043783	-0.057504	-0.017661	0.357583	0.540995	0.227074	-0.726565
59685	-9.258238	0.634790	3.089756	0.029797	-0.014363	-0.031919	0.357461	0.541029	0.227159	-0.726573
59686	-9.258832	0.645948	3.091740	0.037628	-0.025249	-0.030049	0.357356	0.541069	0.227204	-0.726581
59687	-9.263646	0.681943	3.115512	0.051014	-0.065905	-0.015766	0.357271	0.541077	0.227250	-0.726602
59688	-9.278873	0.638905	3.097452	0.033190	-0.022232	-0.009713	0.357207	0.541087	0.227290	-0.726613
59689	-9.246298	0.665562	3.100544	0.046486	-0.051812	-0.037948	0.357161	0.541088	0.227302	-0.726632
59690	-9.241985	0.653607	3.082467	0.048571	-0.032941	-0.048485	0.357133	0.541090	0.227307	-0.726642
59691	-9.242680	0.681805	3.138127	0.034731	-0.090764	-0.028496	0.357096	0.541111	0.227306	-0.726645
59692	-9.247196	0.689384	3.105252	0.061775	-0.072362	-0.034169	0.357049	0.541161	0.227346	-0.726619
59693	-9.248544	0.659576	3.095118	0.045596	-0.046947	-0.037919	0.356998	0.541203	0.227394	-0.726598
59694	-9.276454	0.689282	3.091503	0.074308	-0.057879	-0.010839	0.356948	0.541267	0.227448	-0.726557
59695	-9.240787	0.693418	3.120390	0.052500	-0.092738	-0.035241	0.356902	0.541339	0.227499	-0.726511
59696	-9.270144	0.652873	3.096119	0.041083	-0.042985	-0.017575	0.356850	0.541414	0.227558	-0.726461
59697	-9.247187	0.671126	3.075625	0.063153	-0.048797	-0.044680	0.356809	0.541479	0.227612	-0.726416
59698	-9.249290	0.656892	3.117643	0.025212	-0.070323	-0.030306	0.356779	0.541544	0.227662	-0.726367
59699	-9.226125	0.746958	3.165635	0.058079	-0.171597	-0.031698	0.356712	0.541631	0.227739	-0.726311
59700	-9.288470	0.575630	3.011244	0.035996	0.063362	-0.031619	0.356645	0.541712	0.227862	-0.726245
59701	-9.260972	0.698546	3.102262	0.065759	-0.091401	-0.021624	0.356570	0.541796	0.227906	-0.726205
59702	-9.276516	0.655865	3.082646	0.047845	-0.047780	-0.015645	0.356498	0.541853	0.227994	-0.726170
59703	-9.263807	0.652078	3.084669	0.041167	-0.052596	-0.027288	0.356428	0.541923	0.228052	-0.726134
59704	-9.246033	0.666144	3.077002	0.052940	-0.064074	-0.045707	0.356346	0.542020	0.228154	-0.726069
59705	-9.266665	0.633789	3.073583	0.032629	-0.038222	-0.029173	0.356276	0.542149	0.228248	-0.725979
59706	-9.262701	0.663750	3.064358	0.058841	-0.055657	-0.034041	0.356211	0.542257	0.228353	-0.725896
59707	-9.250057	0.688145	3.073034	0.068387	-0.084845	-0.041876	0.356124	0.542380	0.228479	-0.725808
59708	-9.265688	0.672959	3.059792	0.066597	-0.065423	-0.032122	0.356012	0.542500	0.228620	-0.725729
59709	-9.263463	0.674955	3.090688	0.047120	-0.093487	-0.024495	0.355898	0.542612	0.228763	-0.725656
59710	-9.279632	0.617104	3.065457	0.020897	-0.037841	-0.020469	0.355814	0.542732	0.228912	-0.725560
59711	-9.290102	0.605524	3.039195	0.029421	-0.012911	-0.019408	0.355746	0.542834	0.229050	-0.725474
59712	-9.263362	0.642380	3.057381	0.040400	-0.060269	-0.036960	0.355688	0.542911	0.229132	-0.725419
59713	-9.274782	0.618932	3.076699	0.011358	-0.058210	-0.021507	0.355634	0.542999	0.229223	-0.725351
59714	-9.269294	0.661549	3.023548	0.075417	-0.052803	-0.040747	0.355567	0.543088	0.229323	-0.725285
59715	-9.280266	0.693984	3.058463	0.078568	-0.098976	-0.017629	0.355482	0.543181	0.229440	-0.725219
59716	-9.274108	0.587729	3.044475	0.005075	-0.024799	-0.034002	0.355411	0.543292	0.229547	-0.725138
59717	-9.269691	0.659843	3.047520	0.055644	-0.078465	-0.033082	0.355347	0.543393	0.229637	-0.725065
59718	-9.285321	0.603225	3.023012	0.029584	-0.022712	-0.029115	0.355298	0.543486	0.229719	-0.724993
59719	-9.276861	0.694830	3.065889	0.068817	-0.117742	-0.018607	0.355237	0.543585	0.229781	-0.724929
59720	-9.278653	0.650406	3.050120	0.044439	-0.080364	-0.024366	0.355154	0.543688	0.229918	-0.724849
59721	-9.283946	0.628574	3.006945	0.055382	-0.037791	-0.033936	0.355080	0.543775	0.230043	-0.724781
59722	-9.322997	0.593717	3.012516	0.031125	-0.011156	0.002858	0.355028	0.543834	0.230108	-0.724741
59723	-9.282414	0.615692	3.032746	0.027658	-0.052547	-0.028194	0.355001	0.543885	0.230153	-0.724702
59724	-9.281652	0.627058	2.986191	0.065057	-0.028536	-0.042603	0.354983	0.543927	0.230191	-0.724667
59725	-9.287384	0.622100	2.997660	0.054403	-0.032798	-0.033912	0.354979	0.543955	0.230218	-0.724640
59726	-9.298040	0.627647	3.026503	0.041279	-0.054751	-0.014601	0.354987	0.543991	0.230246	-0.724599
59727	-9.279880	0.614902	3.012612	0.036967	-0.042157	-0.036851	0.354996	0.544015	0.230268	-0.724570
59728	-9.271390	0.665123	3.045146	0.052129	-0.100897	-0.032040	0.354982	0.544066	0.230285	-0.724533
59729	-9.291211	0.633571	3.043322	0.031916	-0.074891	-0.015586	0.354950	0.544115	0.230330	-0.724498
59730	-9.286900	0.635835	3.028012	0.042048	-0.068123	-0.024263	0.354928	0.544154	0.230380	-0.724464
59731	-9.282578	0.624132	3.008990	0.044193	-0.049373	-0.034885	0.354914	0.544185	0.230413	-0.724437
59732	-9.288271	0.619118	3.020637	0.033548	-0.053606	-0.026190	0.354894	0.544210	0.230438	-0.724420
59733	-9.264842	0.623878	2.997789	0.047732	-0.047521	-0.055191	0.354884	0.544223	0.230453	-0.724410
59734	-9.275113	0.671738	3.039150	0.059146	-0.105771	-0.030014	0.354869	0.544241	0.230461	-0.724401
59735	-9.303568	0.603124	3.007885	0.031498	-0.031841	-0.016489	0.354847	0.544260	0.230495	-0.724387
59736	-9.285001	0.632174	3.006500	0.051442	-0.055392	-0.032901	0.354830	0.544259	0.230504	-0.724394
59737	-9.323050	0.612561	3.018436	0.035241	-0.040817	0.005793	0.354824	0.544257	0.230482	-0.724405
59738	-9.290559	0.612577	3.014930	0.032442	-0.046373	-0.026149	0.354857	0.544217	0.230460	-0.724426
59739	-9.276714	0.610504	3.020293	0.025754	-0.051380	-0.037771	0.354899	0.544174	0.230426	-0.724448
59740	-9.290063	0.653734	3.027964	0.056116	-0.080318	-0.020262	0.354925	0.544137	0.230398	-0.724472
59741	-9.290139	0.638926	3.024122	0.047887	-0.067031	-0.022211	0.354934	0.544110	0.230382	-0.724493
59742	-9.281485	0.661001	3.050026	0.046916	-0.101691	-0.021212	0.354935	0.544105	0.230370	-0.724500
59743	-9.290480	0.636748	3.023534	0.047429	-0.064674	-0.022193	0.354927	0.544070	0.230401	-0.724520
59744	-9.304608	0.594580	3.006367	0.029448	-0.021188	-0.016454	0.354927	0.544050	0.230398	-0.724537
59745	-9.280515	0.627758	2.993092	0.059749	-0.039202	-0.041529	0.354946	0.543997	0.230377	-0.724574
59746	-9.268200	0.640667	3.050791	0.031453	-0.091061	-0.034751	0.354945	0.543976	0.230363	-0.724594
59747	-9.296011	0.614023	3.032651	0.027936	-0.053401	-0.015433	0.354928	0.543958	0.230393	-0.724607
59748	-9.272310	0.632757	3.014488	0.050100	-0.059418	-0.042467	0.354932	0.543960	0.230405	-0.724599
59749	-9.318937	0.618204	3.008432	0.050615	-0.033094	-0.000870	0.354934	0.543944	0.230407	-0.724610
59750	-9.277859	0.626762	3.026794	0.039264	-0.062523	-0.033754	0.354920	0.543928	0.230394	-0.724633
59751	-9.272928	0.643304	3.017151	0.057583	-0.067937	-0.040466	0.354901	0.543916	0.230416	-0.724644
59752	-9.286983	0.629350	3.007717	0.055620	-0.048508	-0.030814	0.354893	0.543906	0.230415	-0.724656
59753	-9.305988	0.611738	3.011925	0.043246	-0.034457	-0.012469	0.354900	0.543865	0.230404	-0.724687
59754	-9.286998	0.641068	3.012004	0.063037	-0.058014	-0.028816	0.354917	0.543822	0.230381	-0.724718
59755	-9.273317	0.624354	3.013142	0.048204	-0.050917	-0.042409	0.354909	0.543791	0.230373	-0.724747
59756	-9.278382	0.661331	3.038336	0.061714	-0.091503	-0.027748	0.354891	0.543768	0.230392	-0.724768
59757	-9.278934	0.589047	3.017731	0.021223	-0.030024	-0.037671	0.354839	0.543754	0.230422	-0.724794
59758	-9.292856	0.630743	3.024268	0.051667	-0.058905	-0.020085	0.354819	0.543731	0.230470	-0.724806
59759	-9.284608	0.623812	3.041551	0.034635	-0.069426	-0.022993	0.354782	0.543742	0.230483	-0.724812
59760	-9.284995	0.608256	3.036780	0.026327	-0.056214	-0.024976	0.354764	0.543726	0.230493	-0.724829
59761	-9.276602	0.643666	3.066189	0.033432	-0.102987	-0.021904	0.354737	0.543731	0.230538	-0.724825
59762	-9.308179	0.625333	3.015897	0.057033	-0.047904	-0.008437	0.354703	0.543733	0.230589	-0.724823
59763	-9.291474	0.627065	3.054738	0.031207	-0.082347	-0.012260	0.354682	0.543753	0.230653	-0.724799
59764	-9.287044	0.600946	3.031966	0.025202	-0.051443	-0.024947	0.354649	0.543775	0.230682	-0.724788
59765	-9.282452	0.631279	3.025383	0.051407	-0.068779	-0.029640	0.354617	0.543799	0.230709	-0.724778
59766	-9.301750	0.613369	3.028628	0.039071	-0.054761	-0.011318	0.354617	0.543789	0.230728	-0.724779
59767	-9.288391	0.624765	3.036609	0.040489	-0.071894	-0.020919	0.354607	0.543806	0.230749	-0.724764
59768	-9.302533	0.625311	3.030617	0.046579	-0.064394	-0.009297	0.354603	0.543829	0.230724	-0.724758
59769	-9.283939	0.612668	3.017795	0.042274	-0.051771	-0.031609	0.354612	0.543796	0.230725	-0.724778
59770	-9.287551	0.620689	2.986355	0.069208	-0.033245	-0.037398	0.354635	0.543780	0.230705	-0.724784
59771	-9.275454	0.605984	3.035795	0.025018	-0.061024	-0.034499	0.354662	0.543746	0.230673	-0.724807
59772	-9.275514	0.619570	3.039687	0.032800	-0.071866	-0.032478	0.354690	0.543744	0.230657	-0.724800
59773	-9.284314	0.610166	3.017148	0.041203	-0.046752	-0.031579	0.354699	0.543741	0.230620	-0.724810
59774	-9.301792	0.634030	2.984280	0.082634	-0.033987	-0.023751	0.354718	0.543754	0.230616	-0.724792
59775	-9.286364	0.624463	3.068498	0.019138	-0.091027	-0.013018	0.354746	0.543736	0.230586	-0.724801
59776	-9.284939	0.622460	3.019575	0.048326	-0.054863	-0.029537	0.354782	0.543735	0.230587	-0.724784
59777	-9.276671	0.616541	3.036772	0.031296	-0.065366	-0.032428	0.354781	0.543754	0.230586	-0.724770
59778	-9.282259	0.654237	3.060684	0.044893	-0.105760	-0.017641	0.354782	0.543788	0.230596	-0.724741
59779	-9.272667	0.618508	3.020541	0.041175	-0.057344	-0.041117	0.354771	0.543827	0.230630	-0.724707
59780	-9.286935	0.590833	3.006116	0.031148	-0.025740	-0.033559	0.354781	0.543847	0.230624	-0.724689
59781	-9.278774	0.627298	3.035033	0.038290	-0.072458	-0.030364	0.354809	0.543875	0.230644	-0.724648
59782	-9.311795	0.597444	3.029106	0.024252	-0.040121	-0.002501	0.354803	0.543893	0.230637	-0.724639
59783	-9.288163	0.631076	3.014797	0.054602	-0.058179	-0.027451	0.354827	0.543896	0.230626	-0.724629
59784	-9.271248	0.606114	3.046232	0.012744	-0.068515	-0.035260	0.354851	0.543902	0.230630	-0.724611
59785	-9.280160	0.639130	3.035289	0.045532	-0.079564	-0.028289	0.354886	0.543914	0.230606	-0.724592
59786	-9.307878	0.613515	3.016586	0.041972	-0.041804	-0.009154	0.354912	0.543920	0.230599	-0.724577
59787	-9.294466	0.639851	3.028720	0.051469	-0.070936	-0.016669	0.354939	0.543933	0.230593	-0.724557
59788	-9.267345	0.636580	3.037689	0.038479	-0.082223	-0.039856	0.354959	0.543944	0.230584	-0.724542
59789	-9.267736	0.635812	3.036656	0.038212	-0.080961	-0.039845	0.354956	0.543960	0.230596	-0.724527
59790	-9.309310	0.596931	3.008619	0.032935	-0.024826	-0.011174	0.354986	0.543974	0.230609	-0.724498
59791	-9.271861	0.601274	2.991402	0.040752	-0.025068	-0.051789	0.355028	0.543960	0.230582	-0.724496
59792	-9.299289	0.618128	2.985636	0.061355	-0.023306	-0.026545	0.355074	0.543935	0.230515	-0.724514
59793	-9.300765	0.619742	3.034742	0.031622	-0.056986	-0.009947	0.355142	0.543892	0.230454	-0.724532
59794	-9.281816	0.664371	3.038945	0.059620	-0.092586	-0.024095	0.355185	0.543870	0.230421	-0.724538
59795	-9.263047	0.623920	3.018397	0.039194	-0.056077	-0.050548	0.355204	0.543857	0.230427	-0.724536
59796	-9.277054	0.610692	3.008637	0.037297	-0.036490	-0.041001	0.355211	0.543884	0.230398	-0.724522
59797	-9.287921	0.673205	3.053548	0.056628	-0.106521	-0.013286	0.355218	0.543945	0.230413	-0.724468
59798	-9.275028	0.656836	3.052099	0.041891	-0.099535	-0.026921	0.355216	0.544010	0.230483	-0.724398
59799	-9.312022	0.621580	3.009070	0.046985	-0.037797	-0.007027	0.355187	0.544113	0.230507	-0.724328
59800	-9.275273	0.653388	2.998010	0.070858	-0.062188	-0.043513	0.355183	0.544150	0.230575	-0.724280
59801	-9.275892	0.581620	2.975902	0.030261	-0.000778	-0.053818	0.355169	0.544192	0.230606	-0.724245
59802	-9.291882	0.611918	3.026159	0.023091	-0.052187	-0.021472	0.355208	0.544200	0.230592	-0.724225
59803	-9.297318	0.636139	3.046696	0.028638	-0.080555	-0.008615	0.355251	0.544204	0.230574	-0.724206
59804	-9.292407	0.639780	3.032818	0.038847	-0.073789	-0.017322	0.355279	0.544215	0.230545	-0.724193
59805	-9.280565	0.631539	2.953234	0.080812	-0.014683	-0.053457	0.355312	0.544211	0.230539	-0.724182
59806	-9.282128	0.548416	2.977724	0.002544	0.023973	-0.049240	0.355357	0.544179	0.230438	-0.724216
59807	-9.294186	0.683684	3.093522	0.033010	-0.140960	0.005573	0.355418	0.544148	0.230357	-0.724235
59808	-9.282098	0.675899	3.014612	0.074893	-0.081860	-0.030573	0.355474	0.544147	0.230354	-0.724210
59809	-9.301102	0.644936	3.014285	0.054412	-0.055843	-0.014408	0.355493	0.544143	0.230335	-0.724209
59810	-9.287515	0.600785	3.006634	0.023495	-0.024872	-0.032219	0.355519	0.544146	0.230328	-0.724197
59811	-9.282590	0.632383	3.001052	0.049843	-0.042260	-0.036777	0.355542	0.544140	0.230287	-0.724203
59812	-9.292916	0.638749	3.031475	0.036825	-0.064000	-0.017245	0.355579	0.544116	0.230234	-0.724220
59813	-9.297873	0.677311	3.057554	0.050492	-0.104261	-0.002264	0.355630	0.544054	0.230133	-0.724273
59814	-9.290367	0.637279	2.985419	0.065802	-0.026615	-0.033898	0.355670	0.543961	0.230069	-0.724344
59815	-9.258651	0.583035	3.017026	0.001238	-0.019308	-0.057452	0.355731	0.543837	0.229954	-0.724443
59816	-9.266313	0.630974	3.013906	0.041926	-0.042287	-0.048326	0.355835	0.543729	0.229806	-0.724520
59817	-9.308191	0.651294	3.054586	0.039400	-0.069034	0.005193	0.355921	0.543604	0.229693	-0.724608
59818	-9.266178	0.703789	3.088266	0.052300	-0.134814	-0.021168	0.355993	0.543498	0.229578	-0.724688
59819	-9.274114	0.680303	3.064055	0.052599	-0.097683	-0.022482	0.356010	0.543419	0.229542	-0.724750
59820	-9.231004	0.645313	3.023234	0.046460	-0.056551	-0.078087	0.356008	0.543365	0.229528	-0.724796
59821	-9.287416	0.608909	3.040443	0.017885	-0.028960	-0.021364	0.356034	0.543329	0.229513	-0.724815
59822	-9.306171	0.648531	3.061321	0.037850	-0.062969	0.005240	0.356075	0.543293	0.229427	-0.724850
59823	-9.302419	0.667986	3.101604	0.026608	-0.103032	0.015325	0.356123	0.543245	0.229346	-0.724888
59824	-9.273100	0.677973	3.067638	0.051230	-0.091605	-0.022416	0.356173	0.543212	0.229293	-0.724905
59825	-9.268033	0.667150	3.050301	0.053265	-0.072891	-0.033234	0.356178	0.543209	0.229297	-0.724903
59826	-9.249443	0.626219	3.029193	0.032649	-0.036467	-0.059844	0.356184	0.543217	0.229315	-0.724888
59827	-9.287386	0.592768	3.036841	0.008113	-0.009536	-0.023450	0.356205	0.543239	0.229266	-0.724877
59828	-9.322109	0.706225	3.119990	0.045598	-0.132097	0.042021	0.356254	0.543263	0.229216	-0.724850
59829	-9.271124	0.723452	3.111282	0.055098	-0.150874	-0.008025	0.356266	0.543287	0.229249	-0.724816
59830	-9.275191	0.674763	3.062018	0.049598	-0.084299	-0.022342	0.356234	0.543346	0.229295	-0.724773
59831	-9.269191	0.633229	2.985763	0.064919	-0.006840	-0.054132	0.356218	0.543399	0.229395	-0.724710
59832	-9.271883	0.646754	3.035820	0.043380	-0.052403	-0.035281	0.356170	0.543441	0.229470	-0.724678
59833	-9.264205	0.639833	3.051567	0.026390	-0.063054	-0.038115	0.356134	0.543503	0.229522	-0.724633
59834	-9.270617	0.690843	3.077851	0.048158	-0.115368	-0.020898	0.356085	0.543599	0.229602	-0.724559
59835	-9.280416	0.665747	3.048131	0.048437	-0.078387	-0.022287	0.356019	0.543694	0.229723	-0.724482
59836	-9.304035	0.655957	3.017234	0.063220	-0.046942	-0.009992	0.355959	0.543800	0.229822	-0.724401
59837	-9.296495	0.592417	3.015856	0.013668	-0.009560	-0.021320	0.355925	0.543872	0.229931	-0.724329
59838	-9.283967	0.631802	3.030126	0.031376	-0.050696	-0.026507	0.355893	0.543943	0.229947	-0.724287
59839	-9.298395	0.632360	3.023117	0.037403	-0.043107	-0.014932	0.355911	0.543984	0.229966	-0.724240
59840	-9.312413	0.618942	3.013106	0.035313	-0.023500	-0.005489	0.355932	0.543974	0.229950	-0.724243
59841	-9.293685	0.649185	3.013007	0.055335	-0.047083	-0.021520	0.355975	0.543941	0.229889	-0.724266
59842	-9.284964	0.658070	3.035920	0.046523	-0.069663	-0.022212	0.356027	0.543880	0.229831	-0.724304
59843	-9.270841	0.628593	3.033696	0.023712	-0.050788	-0.038037	0.356085	0.543843	0.229767	-0.724324
59844	-9.284461	0.644496	3.033125	0.037986	-0.055272	-0.024330	0.356151	0.543830	0.229698	-0.724323
59845	-9.262335	0.666882	3.064117	0.030892	-0.096256	-0.034437	0.356200	0.543845	0.229632	-0.724309
59846	-9.271192	0.700589	3.053393	0.063654	-0.107199	-0.027317	0.356254	0.543854	0.229606	-0.724284
59847	-9.281756	0.664587	3.070618	0.026462	-0.092975	-0.014115	0.356248	0.543889	0.229614	-0.724258
59848	-9.286022	0.686500	3.041087	0.061380	-0.086467	-0.017870	0.356240	0.543962	0.229692	-0.724182
59849	-9.254365	0.671786	3.031209	0.050687	-0.080488	-0.051860	0.356210	0.544011	0.229777	-0.724133
59850	-9.311892	0.634929	3.044801	0.021996	-0.052680	0.004748	0.356186	0.544124	0.229824	-0.724045
59851	-9.289069	0.654167	3.024185	0.044331	-0.058828	-0.022130	0.356184	0.544199	0.229909	-0.723963
59852	-9.308976	0.636528	3.025167	0.031863	-0.044658	-0.003975	0.356182	0.544295	0.229967	-0.723873
59853	-9.282819	0.646794	3.035859	0.027082	-0.068289	-0.024935	0.356155	0.544386	0.230053	-0.723790
59854	-9.265126	0.648079	3.024303	0.030875	-0.067920	-0.045221	0.356168	0.544481	0.230130	-0.723688
59855	-9.293825	0.649884	3.010467	0.043223	-0.053933	-0.022097	0.356163	0.544614	0.230211	-0.723565
59856	-9.286741	0.657984	3.028765	0.034351	-0.076535	-0.022750	0.356151	0.544722	0.230274	-0.723469
59857	-9.318915	0.696638	2.991670	0.090182	-0.069272	-0.001233	0.356129	0.544835	0.230367	-0.723366
59858	-9.284032	0.645009	3.004198	0.035971	-0.056626	-0.033629	0.356099	0.544927	0.230465	-0.723280
59859	-9.280297	0.675018	2.995598	0.062353	-0.073930	-0.038036	0.356049	0.545015	0.230567	-0.723206
59860	-9.310507	0.620682	3.014652	0.012797	-0.046740	-0.006742	0.356014	0.545093	0.230667	-0.723133
59861	-9.295764	0.601900	2.964060	0.027450	-0.005148	-0.037290	0.355995	0.545158	0.230774	-0.723059
59862	-9.288658	0.637521	2.991468	0.034791	-0.051787	-0.033598	0.355991	0.545229	0.230832	-0.722988
59863	-9.292634	0.631335	2.953654	0.053484	-0.021241	-0.041690	0.355988	0.545287	0.230865	-0.722936
59864	-9.290468	0.663704	2.995070	0.050528	-0.073270	-0.029241	0.355977	0.545325	0.230887	-0.722905
59865	-9.290749	0.634479	2.985615	0.034028	-0.048070	-0.033576	0.355983	0.545333	0.230908	-0.722890
59866	-9.304996	0.634831	2.979005	0.039996	-0.040468	-0.022019	0.356007	0.545381	0.230952	-0.722828
59867	-9.286612	0.636514	2.969443	0.043769	-0.040077	-0.042305	0.356021	0.545390	0.230948	-0.722815
59868	-9.292284	0.646234	2.985757	0.041154	-0.056325	-0.031377	0.356058	0.545399	0.230941	-0.722792
59869	-9.297798	0.642185	2.998076	0.030537	-0.060673	-0.022626	0.356085	0.545417	0.230921	-0.722772
59870	-9.298228	0.656139	3.001200	0.038361	-0.071593	-0.020437	0.356149	0.545428	0.230934	-0.722728
59871	-9.279924	0.686503	3.000154	0.058379	-0.095276	-0.036353	0.356174	0.545451	0.230928	-0.722701
59872	-9.294021	0.672990	2.989528	0.056326	-0.075656	-0.026977	0.356172	0.545495	0.230966	-0.722656
59873	-9.299725	0.639981	2.992567	0.029329	-0.056020	-0.022594	0.356193	0.545542	0.231027	-0.722590
59874	-9.300416	0.639208	2.990585	0.029103	-0.054794	-0.022587	0.356208	0.545586	0.231043	-0.722544
59875	-9.309448	0.643822	2.970611	0.045618	-0.041687	-0.019780	0.356229	0.545626	0.231056	-0.722500
59876	-9.298885	0.671614	3.030383	0.025896	-0.105729	-0.010050	0.356245	0.545682	0.231075	-0.722443
59877	-9.305638	0.660532	2.957687	0.063662	-0.045780	-0.026321	0.356247	0.545719	0.231111	-0.722403
59878	-9.275920	0.676400	3.005817	0.039777	-0.098590	-0.039058	0.356262	0.545741	0.231090	-0.722386
59879	-9.310841	0.633318	3.043806	-0.012177	-0.088767	0.003095	0.356252	0.545776	0.231140	-0.722349
59880	-9.317753	0.621592	2.970616	0.025617	-0.028815	-0.013199	0.356232	0.545856	0.231198	-0.722280
59881	-9.299929	0.637138	2.963828	0.037539	-0.040575	-0.031284	0.356217	0.545929	0.231232	-0.722221
59882	-9.311865	0.670686	2.999424	0.040901	-0.086136	-0.007174	0.356195	0.546006	0.231292	-0.722154
59883	-9.307435	0.659203	2.979453	0.042829	-0.067546	-0.018115	0.356195	0.546078	0.231355	-0.722080
59884	-9.316836	0.662822	2.958412	0.059141	-0.054335	-0.015314	0.356166	0.546149	0.231437	-0.722014
59885	-9.295688	0.640296	2.974803	0.027702	-0.059430	-0.031841	0.356106	0.546218	0.231524	-0.721964
59886	-9.304872	0.615142	2.945410	0.027885	-0.022459	-0.033464	0.356057	0.546300	0.231623	-0.721894
59887	-9.293072	0.668322	2.963336	0.053932	-0.075693	-0.036156	0.356017	0.546385	0.231716	-0.721819
59888	-9.315262	0.602670	2.916940	0.036050	0.003701	-0.032885	0.355967	0.546451	0.231763	-0.721779
59889	-9.316136	0.615133	2.919086	0.043874	-0.007130	-0.030670	0.355966	0.546455	0.231823	-0.721757
59890	-9.308868	0.665011	2.952536	0.059544	-0.065745	-0.024589	0.355977	0.546443	0.231833	-0.721757
59891	-9.324643	0.624159	2.983210	0.011828	-0.056972	-0.002759	0.355965	0.546435	0.231854	-0.721763
59892	-9.320145	0.654696	2.977156	0.038341	-0.074293	-0.007066	0.355943	0.546448	0.231884	-0.721754
59893	-9.297906	0.590631	2.983004	-0.017532	-0.043620	-0.030254	0.355918	0.546482	0.231913	-0.721732
59894	-9.305368	0.663486	2.934970	0.069112	-0.055514	-0.033307	0.355897	0.546492	0.231930	-0.721729
59895	-9.310480	0.615970	2.935038	0.033875	-0.023839	-0.031216	0.355891	0.546491	0.231956	-0.721724
59896	-9.288945	0.622252	2.961833	0.018656	-0.053015	-0.043297	0.355892	0.546475	0.231972	-0.721731
59897	-9.308950	0.674875	2.985360	0.046964	-0.098713	-0.014095	0.355895	0.546471	0.231978	-0.721730
59898	-9.314669	0.669709	2.997446	0.036367	-0.103048	-0.005328	0.355863	0.546487	0.232022	-0.721720
59899	-9.308834	0.601316	2.963084	0.005764	-0.036567	-0.025222	0.355828	0.546482	0.232056	-0.721729
59900	-9.318007	0.632818	2.952006	0.038531	-0.047340	-0.017979	0.355815	0.546476	0.232085	-0.721732
59901	-9.286063	0.646684	2.952109	0.044108	-0.065549	-0.047552	0.355791	0.546499	0.232108	-0.721718
59902	-9.313753	0.633704	2.936231	0.048262	-0.039474	-0.026721	0.355769	0.546537	0.232146	-0.721689
59903	-9.292595	0.639764	2.962013	0.033042	-0.068590	-0.038776	0.355725	0.546560	0.232190	-0.721679
59904	-9.307441	0.667206	2.962989	0.055489	-0.084899	-0.022762	0.355695	0.546598	0.232278	-0.721636
59905	-9.329480	0.614919	2.921023	0.045560	-0.017538	-0.017417	0.355631	0.546653	0.232378	-0.721594
59906	-9.316700	0.611371	2.923881	0.038966	-0.022933	-0.028940	0.355579	0.546690	0.232444	-0.721570
59907	-9.304256	0.636346	2.935148	0.048767	-0.052098	-0.035974	0.355538	0.546722	0.232498	-0.721549
59908	-9.301665	0.611474	2.960743	0.013265	-0.056251	-0.032220	0.355492	0.546745	0.232542	-0.721540
59909	-9.305379	0.618497	2.927609	0.040150	-0.037620	-0.038206	0.355451	0.546778	0.232593	-0.721519
59910	-9.317183	0.637066	2.960078	0.035411	-0.071198	-0.016184	0.355395	0.546803	0.232637	-0.721513
59911	-9.312828	0.652957	2.949204	0.053688	-0.076595	-0.022684	0.355357	0.546835	0.232710	-0.721484
59912	-9.326701	0.623873	2.934140	0.043427	-0.044957	-0.015655	0.355304	0.546858	0.232772	-0.721472
59913	-9.310732	0.611614	2.968947	0.009792	-0.067635	-0.021171	0.355255	0.546884	0.232827	-0.721459
59914	-9.300739	0.617221	2.941162	0.030148	-0.055542	-0.038684	0.355221	0.546901	0.232886	-0.721444
59915	-9.301634	0.629181	2.943638	0.038058	-0.066279	-0.036419	0.355170	0.546923	0.232940	-0.721435
59916	-9.316008	0.627998	2.936662	0.044095	-0.058597	-0.024890	0.355097	0.546949	0.233021	-0.721425
59917	-9.308755	0.634428	2.957004	0.035353	-0.081268	-0.025378	0.355033	0.546975	0.233099	-0.721411
59918	-9.317917	0.636516	2.936697	0.051716	-0.068070	-0.022610	0.354925	0.547001	0.233194	-0.721415
59919	-9.318331	0.604941	2.926258	0.035120	-0.043001	-0.027129	0.354821	0.547049	0.233315	-0.721390
59920	-9.318982	0.587535	2.919913	0.026667	-0.029808	-0.029389	0.354729	0.547066	0.233411	-0.721391
59921	-9.326298	0.636877	2.947190	0.048660	-0.081805	-0.011550	0.354640	0.547087	0.233493	-0.721393
59922	-9.307211	0.594177	2.925391	0.027985	-0.045700	-0.038627	0.354531	0.547107	0.233568	-0.721407
59923	-9.294946	0.618024	2.936868	0.037803	-0.074981	-0.045594	0.354430	0.547123	0.233649	-0.721418
59924	-9.328687	0.627028	2.941733	0.047896	-0.078184	-0.011516	0.354300	0.547133	0.233771	-0.721435
59925	-9.318578	0.616529	2.909621	0.060256	-0.054096	-0.031310	0.354182	0.547136	0.233896	-0.721449
59926	-9.305523	0.597165	2.908760	0.045519	-0.047423	-0.045091	0.354013	0.547168	0.233993	-0.721477
59927	-9.317319	0.599519	2.937248	0.032592	-0.069043	-0.025275	0.353899	0.547151	0.234093	-0.721513
59928	-9.331221	0.582597	2.926892	0.030574	-0.049421	-0.016033	0.353751	0.547132	0.234178	-0.721573
59929	-9.306777	0.557224	2.896863	0.028506	-0.020059	-0.049635	0.353645	0.547117	0.234262	-0.721609
59930	-9.313228	0.578425	2.917273	0.034113	-0.048192	-0.036298	0.353560	0.547094	0.234290	-0.721660
59931	-9.318787	0.571713	2.930200	0.023473	-0.052483	-0.027525	0.353482	0.547043	0.234332	-0.721722
59932	-9.332590	0.570062	2.924997	0.029459	-0.044779	-0.016008	0.353416	0.547004	0.234357	-0.721776
59933	-9.326874	0.557712	2.908368	0.031508	-0.026193	-0.027058	0.353384	0.546936	0.234331	-0.721851
59934	-9.320881	0.546081	2.892485	0.033466	-0.007602	-0.038112	0.353362	0.546863	0.234264	-0.721939
59935	-9.304838	0.577267	2.943021	0.024242	-0.066172	-0.036714	0.353402	0.546748	0.234213	-0.722023
59936	-9.325681	0.568558	2.918009	0.038734	-0.034575	-0.024753	0.353434	0.546633	0.234112	-0.722127
59937	-9.304158	0.604101	2.955796	0.039906	-0.087558	-0.032106	0.353446	0.546552	0.234030	-0.722210
59938	-9.322764	0.600611	2.964947	0.035634	-0.085269	-0.011819	0.353453	0.546500	0.233985	-0.722260
59939	-9.321884	0.571674	2.957504	0.019068	-0.060104	-0.016403	0.353457	0.546464	0.233943	-0.722299
59940	-9.303650	0.601710	2.957883	0.039246	-0.083910	-0.032071	0.353465	0.546433	0.233929	-0.722323
59941	-9.297973	0.590544	2.940940	0.041100	-0.065337	-0.043132	0.353491	0.546401	0.233916	-0.722339
59942	-9.330358	0.573947	2.939280	0.034884	-0.044581	-0.013648	0.353505	0.546404	0.233925	-0.722327
59943	-9.312596	0.604042	2.938187	0.055117	-0.068365	-0.029307	0.353490	0.546443	0.233930	-0.722302
59944	-9.317563	0.571213	2.942110	0.028153	-0.048801	-0.025139	0.353513	0.546441	0.233942	-0.722290
59945	-9.318199	0.584744	2.945422	0.035988	-0.059542	-0.022824	0.353553	0.546447	0.233932	-0.722269
59946	-9.307006	0.563910	2.910653	0.040187	-0.023696	-0.044982	0.353580	0.546444	0.233922	-0.722261
59947	-9.331780	0.571253	2.935290	0.033539	-0.038717	-0.013619	0.353645	0.546436	0.233882	-0.722248
59948	-9.323457	0.566616	2.953516	0.016643	-0.049438	-0.016339	0.353692	0.546429	0.233813	-0.722253
59949	-9.323771	0.580983	2.957686	0.024629	-0.060185	-0.014018	0.353747	0.546400	0.233765	-0.722263
59950	-9.313473	0.603000	2.935617	0.053370	-0.060010	-0.029242	0.353795	0.546393	0.233708	-0.722263
59951	-9.302206	0.589332	2.985069	0.009333	-0.088225	-0.025905	0.353854	0.546389	0.233689	-0.722244
59952	-9.319020	0.599259	2.947957	0.042513	-0.063102	-0.020450	0.353907	0.546389	0.233676	-0.722222
59953	-9.319281	0.599255	2.947133	0.042364	-0.061994	-0.020443	0.353941	0.546412	0.233660	-0.722193
59954	-9.314355	0.602962	2.932827	0.052554	-0.055425	-0.029211	0.353968	0.546441	0.233668	-0.722155
59955	-9.298126	0.592631	2.968219	0.018955	-0.078109	-0.034640	0.354001	0.546456	0.233666	-0.722128
59956	-9.310238	0.620150	2.921293	0.070583	-0.059504	-0.035645	0.354035	0.546488	0.233675	-0.722084
59957	-9.339119	0.567031	2.942038	0.020915	-0.032304	-0.004794	0.354064	0.546509	0.233681	-0.722053
59958	-9.312923	0.592779	2.959557	0.024419	-0.068047	-0.023117	0.354130	0.546512	0.233672	-0.722020
59959	-9.332921	0.618131	2.974644	0.036405	-0.089542	0.001825	0.354155	0.546532	0.233644	-0.722002
59960	-9.299398	0.577314	2.959249	0.009435	-0.060247	-0.036925	0.354203	0.546530	0.233638	-0.721982
59961	-9.321929	0.597334	2.939138	0.040291	-0.052443	-0.020378	0.354252	0.546534	0.233613	-0.721963
59962	-9.308088	0.582035	2.939785	0.025617	-0.045882	-0.034198	0.354296	0.546534	0.233601	-0.721945
59963	-9.308678	0.596073	2.943169	0.033489	-0.056621	-0.031854	0.354350	0.546544	0.233574	-0.721920
59964	-9.300970	0.605236	2.964822	0.024723	-0.079383	-0.032216	0.354402	0.546553	0.233561	-0.721892
59965	-9.323219	0.610902	2.940396	0.047494	-0.059593	-0.018008	0.354408	0.546564	0.233566	-0.721879
59966	-9.288088	0.602905	2.967937	0.018085	-0.083619	-0.043685	0.354422	0.546588	0.233594	-0.721845
59967	-9.315546	0.590370	2.951775	0.022109	-0.057371	-0.023043	0.354438	0.546641	0.233612	-0.721791
59968	-9.291913	0.596165	2.928871	0.036378	-0.051932	-0.052086	0.354424	0.546688	0.233651	-0.721750
59969	-9.300994	0.599801	2.908319	0.052667	-0.038689	-0.049374	0.354413	0.546745	0.233717	-0.721691
59970	-9.297220	0.622828	2.980572	0.022781	-0.108106	-0.030162	0.354390	0.546811	0.233790	-0.721629
59971	-9.322797	0.621673	2.918452	0.064482	-0.059081	-0.024392	0.354322	0.546895	0.233912	-0.721558
59972	-9.314504	0.572097	2.921358	0.022943	-0.034222	-0.034144	0.354260	0.546973	0.234017	-0.721496
59973	-9.311127	0.602025	2.913059	0.049446	-0.051534	-0.038214	0.354209	0.547059	0.234111	-0.721426
59974	-9.327919	0.581981	2.865228	0.066045	-0.002436	-0.037518	0.354160	0.547142	0.234175	-0.721366
59975	-9.325241	0.632990	2.945180	0.052657	-0.095533	-0.013555	0.354112	0.547208	0.234236	-0.721319
59976	-9.305459	0.577599	2.918836	0.023821	-0.047872	-0.043248	0.354058	0.547257	0.234300	-0.721288
59977	-9.320327	0.591046	2.915312	0.038141	-0.052160	-0.029400	0.354033	0.547301	0.234366	-0.721246
59978	-9.334659	0.590624	2.908066	0.044154	-0.044423	-0.017912	0.354010	0.547333	0.234412	-0.721217
59979	-9.316199	0.591937	2.898877	0.047996	-0.044451	-0.038172	0.353997	0.547339	0.234444	-0.721209
59980	-9.326436	0.554643	2.916066	0.010568	-0.030257	-0.025325	0.353984	0.547340	0.234454	-0.721211
59981	-9.326712	0.553750	2.915353	0.010310	-0.028977	-0.025321	0.353998	0.547343	0.234431	-0.721210
59982	-9.315068	0.608449	2.936121	0.036667	-0.082032	-0.027319	0.353997	0.547341	0.234405	-0.721220
59983	-9.339727	0.601114	2.956172	0.021873	-0.085040	0.001745	0.354013	0.547358	0.234412	-0.721197
59984	-9.321184	0.603113	2.947134	0.025847	-0.085122	-0.018510	0.354004	0.547383	0.234430	-0.721176
59985	-9.328582	0.564945	2.915357	0.017710	-0.036253	-0.022934	0.354016	0.547408	0.234455	-0.721144
59986	-9.310971	0.595344	2.914157	0.038027	-0.060142	-0.038442	0.354028	0.547444	0.234454	-0.721110
59987	-9.343587	0.578949	2.911293	0.031740	-0.039320	-0.009072	0.354041	0.547464	0.234473	-0.721083
59988	-9.325402	0.595521	2.906441	0.043735	-0.051139	-0.026951	0.354083	0.547488	0.234440	-0.721055
59989	-9.325689	0.595540	2.905514	0.043487	-0.049991	-0.026944	0.354134	0.547502	0.234435	-0.721021
59990	-9.331331	0.591653	2.917747	0.032867	-0.054228	-0.018147	0.354175	0.547514	0.234409	-0.721000
59991	-9.312562	0.594633	2.909215	0.036693	-0.054249	-0.038403	0.354223	0.547536	0.234375	-0.720971
59992	-9.325932	0.582112	2.899142	0.034536	-0.034597	-0.029309	0.354296	0.547553	0.234336	-0.720934
59993	-9.311453	0.629164	2.951224	0.033732	-0.104987	-0.025116	0.354364	0.547565	0.234292	-0.720906
59994	-9.332118	0.593275	2.914898	0.031770	-0.049406	-0.018118	0.354425	0.547576	0.234270	-0.720875
59995	-9.324596	0.602646	2.936419	0.023045	-0.072125	-0.018399	0.354476	0.547599	0.234238	-0.720843
59996	-9.316951	0.619379	2.877881	0.070588	-0.042704	-0.042089	0.354527	0.547622	0.234233	-0.720802
59997	-9.321200	0.573268	2.878226	0.035340	-0.011288	-0.040471	0.354588	0.547614	0.234211	-0.720786
59998	-9.328460	0.625515	2.907158	0.057556	-0.063151	-0.022095	0.354625	0.547588	0.234196	-0.720792
59999	-9.325219	0.602464	2.934477	0.021912	-0.067470	-0.018363	0.354678	0.547588	0.234148	-0.720781
60000	-9.327185	0.583011	2.894926	0.032232	-0.025010	-0.029272	0.354720	0.547567	0.234128	-0.720783
60001	-9.346998	0.607984	2.911082	0.044256	-0.046435	-0.004207	0.354765	0.547515	0.234084	-0.720815
60002	-9.318629	0.577157	2.914544	0.015159	-0.034793	-0.031937	0.354808	0.547450	0.234067	-0.720849
60003	-9.308028	0.598597	2.893402	0.043976	-0.034691	-0.047118	0.354853	0.547392	0.234001	-0.720892
60004	-9.321682	0.613559	2.893479	0.058071	-0.038709	-0.033242	0.354901	0.547315	0.233928	-0.720951
60005	-9.318766	0.618445	2.930663	0.038982	-0.066911	-0.024702	0.354954	0.547222	0.233869	-0.721014
60006	-9.323613	0.614240	2.945489	0.028363	-0.071103	-0.015897	0.354988	0.547145	0.233786	-0.721082
60007	-9.295942	0.611533	2.957577	0.015639	-0.083305	-0.038814	0.355038	0.547059	0.233774	-0.721127
60008	-9.330998	0.618072	2.930076	0.044507	-0.056819	-0.013214	0.355069	0.546993	0.233686	-0.721191
60009	-9.316466	0.602700	2.932869	0.029756	-0.050368	-0.027081	0.355114	0.546919	0.233622	-0.721245
60010	-9.309755	0.653422	2.968272	0.045775	-0.108883	-0.020078	0.355131	0.546864	0.233609	-0.721282
60011	-9.294789	0.609074	2.961706	0.014634	-0.078749	-0.038775	0.355132	0.546851	0.233611	-0.721291
60012	-9.316387	0.600071	2.933661	0.029141	-0.047035	-0.027063	0.355141	0.546842	0.233604	-0.721296
60013	-9.316521	0.599214	2.933408	0.028869	-0.045802	-0.027056	0.355142	0.546820	0.233584	-0.721319
60014	-9.301054	0.616681	2.977949	0.011686	-0.092394	-0.027525	0.355152	0.546810	0.233558	-0.721330
60015	-9.328979	0.632023	2.970851	0.032174	-0.089830	-0.002175	0.355148	0.546814	0.233563	-0.721327
60016	-9.311863	0.600509	2.918603	0.038486	-0.036897	-0.035837	0.355156	0.546837	0.233586	-0.721298
60017	-9.313174	0.627811	2.925576	0.054692	-0.059455	-0.030979	0.355155	0.546838	0.233581	-0.721300
60018	-9.292116	0.635061	2.952342	0.039772	-0.088844	-0.042653	0.355151	0.546856	0.233579	-0.721288
60019	-9.324745	0.618201	2.949490	0.033466	-0.067836	-0.013361	0.355148	0.546881	0.233614	-0.721260
60020	-9.325384	0.617094	2.947701	0.033247	-0.066699	-0.013352	0.355147	0.546924	0.233659	-0.721213
60021	-9.320736	0.619745	2.932579	0.043418	-0.060138	-0.022145	0.355133	0.546968	0.233716	-0.721168
60022	-9.321491	0.618517	2.930436	0.043127	-0.058918	-0.022136	0.355107	0.547027	0.233739	-0.721129
60023	-9.313483	0.598335	2.942819	0.018114	-0.057840	-0.027214	0.355087	0.547060	0.233773	-0.721102
60024	-9.317457	0.620030	2.913572	0.053136	-0.051052	-0.030923	0.355067	0.547101	0.233798	-0.721073
60025	-9.347842	0.607868	2.945819	0.027952	-0.059407	0.006945	0.355045	0.547109	0.233862	-0.721057
60026	-9.329385	0.608995	2.936704	0.031967	-0.059483	-0.013301	0.355011	0.547126	0.233889	-0.721052
60027	-9.322676	0.630491	2.961770	0.031468	-0.094196	-0.011054	0.354984	0.547131	0.233948	-0.721042
60028	-9.306100	0.611666	2.913229	0.045897	-0.053154	-0.042344	0.354939	0.547138	0.234041	-0.721029
60029	-9.320678	0.624297	2.910938	0.060070	-0.057121	-0.028441	0.354890	0.547111	0.234069	-0.721065
60030	-9.306868	0.606672	2.911822	0.045363	-0.050674	-0.042328	0.354812	0.547086	0.234107	-0.721109
60031	-9.287080	0.578911	2.895862	0.032872	-0.027081	-0.067473	0.354756	0.547046	0.234122	-0.721163
60032	-9.318654	0.547007	2.890694	0.018248	0.005861	-0.040672	0.354738	0.546986	0.234099	-0.721224
60033	-9.318941	0.560092	2.895610	0.026176	-0.004812	-0.038220	0.354749	0.546935	0.234028	-0.721281
60034	-9.316183	0.626531	2.983070	0.021281	-0.109783	-0.011156	0.354757	0.546910	0.233982	-0.721311
60035	-9.295133	0.634134	3.010035	0.006446	-0.139230	-0.022769	0.354745	0.546954	0.233985	-0.721282
60036	-9.331568	0.639822	2.978195	0.035356	-0.112591	0.002772	0.354684	0.547067	0.234079	-0.721197
60037	-9.304832	0.607702	2.976496	0.006302	-0.101134	-0.025019	0.354620	0.547198	0.234220	-0.721082
60038	-9.329585	0.578120	2.904354	0.031340	-0.028149	-0.024486	0.354555	0.547353	0.234359	-0.720952
60039	-9.331235	0.576513	2.899369	0.031160	-0.027042	-0.024483	0.354528	0.547491	0.234476	-0.720822
60040	-9.339203	0.599778	2.915833	0.036879	-0.054901	-0.010741	0.354513	0.547636	0.234546	-0.720696
60041	-9.333290	0.560861	2.887327	0.022277	-0.012780	-0.026940	0.354564	0.547700	0.234606	-0.720603
60042	-9.326302	0.569970	2.907640	0.013571	-0.035461	-0.027100	0.354625	0.547744	0.234598	-0.720542
60043	-9.333275	0.594644	2.927086	0.019404	-0.063487	-0.013348	0.354694	0.547790	0.234592	-0.720475
60044	-9.347318	0.596194	2.920181	0.025235	-0.055653	-0.001901	0.354788	0.547833	0.234597	-0.720395
60045	-9.306359	0.579846	2.930971	-0.001880	-0.062704	-0.038681	0.354866	0.547866	0.234556	-0.720345
60046	-9.336508	0.591926	2.887813	0.037378	-0.030611	-0.021983	0.354972	0.547899	0.234491	-0.720288
60047	-9.335425	0.626643	2.930850	0.034729	-0.082537	-0.008366	0.355082	0.547886	0.234441	-0.720261
60048	-9.329450	0.617358	2.913654	0.036594	-0.064058	-0.019644	0.355165	0.547898	0.234387	-0.720228
60049	-9.316537	0.630804	2.922473	0.038336	-0.081457	-0.028592	0.355227	0.547896	0.234382	-0.720201
60050	-9.324904	0.635635	2.903415	0.054680	-0.068193	-0.025959	0.355275	0.547906	0.234365	-0.720175
60051	-9.343023	0.604508	2.902588	0.033822	-0.041986	-0.010666	0.355339	0.547890	0.234355	-0.720159
60052	-9.310007	0.592135	2.895890	0.023151	-0.037049	-0.044825	0.355389	0.547892	0.234346	-0.720135
60053	-9.329222	0.650416	2.954335	0.033031	-0.111284	-0.005953	0.355412	0.547890	0.234347	-0.720126
60054	-9.341491	0.608748	2.936155	0.014227	-0.067791	-0.001967	0.355454	0.547905	0.234341	-0.720095
60055	-9.311295	0.605012	2.897721	0.030725	-0.045443	-0.042323	0.355479	0.547902	0.234332	-0.720088
60056	-9.312507	0.632832	2.905349	0.046842	-0.067905	-0.037335	0.355530	0.547891	0.234309	-0.720079
60057	-9.319615	0.609106	2.878943	0.046702	-0.030938	-0.039694	0.355557	0.547858	0.234291	-0.720096
60058	-9.309847	0.622906	2.936861	0.019302	-0.083108	-0.031116	0.355584	0.547837	0.234274	-0.720105
60059	-9.318114	0.626994	2.918262	0.035708	-0.069845	-0.028492	0.355580	0.547824	0.234271	-0.720118
60060	-9.330770	0.598644	2.904663	0.025200	-0.038251	-0.022048	0.355580	0.547794	0.234277	-0.720139
60061	-9.330251	0.583331	2.900838	0.016817	-0.025421	-0.024542	0.355585	0.547746	0.234276	-0.720173
60062	-9.330066	0.582583	2.901585	0.016421	-0.024347	-0.024538	0.355644	0.547687	0.234239	-0.720200
60063	-9.321979	0.591341	2.925594	0.007967	-0.047132	-0.024644	0.355676	0.547582	0.234162	-0.720289
60064	-9.324619	0.614315	2.900162	0.042965	-0.040344	-0.028345	0.355736	0.547514	0.234043	-0.720350
60065	-9.314005	0.629130	2.960467	0.015567	-0.092376	-0.019726	0.355798	0.547385	0.233921	-0.720457
60066	-9.328338	0.610584	2.918637	0.031940	-0.043315	-0.019514	0.355842	0.547269	0.233824	-0.720555
60067	-9.329099	0.652339	2.933488	0.056530	-0.077726	-0.011985	0.355860	0.547139	0.233722	-0.720678
60068	-9.299455	0.607165	2.935014	0.019109	-0.054563	-0.042351	0.355878	0.547012	0.233667	-0.720783
60069	-9.323150	0.599290	2.958276	0.004221	-0.057429	-0.013282	0.355909	0.546896	0.233598	-0.720878
60070	-9.321397	0.631738	3.003774	0.001718	-0.109286	0.000479	0.355905	0.546809	0.233543	-0.720964
60071	-9.291259	0.640955	2.971292	0.026494	-0.098751	-0.037390	0.355864	0.546742	0.233522	-0.721041
60072	-9.320596	0.635705	2.925977	0.057360	-0.054851	-0.023271	0.355828	0.546684	0.233523	-0.721103
60073	-9.292655	0.617669	2.933669	0.036442	-0.055246	-0.048621	0.355793	0.546598	0.233498	-0.721194
60074	-9.311412	0.612407	2.942649	0.032181	-0.052725	-0.028373	0.355731	0.546503	0.233507	-0.721294
60075	-9.309361	0.629775	2.983582	0.021496	-0.092705	-0.017101	0.355700	0.546411	0.233441	-0.721400
60076	-9.323034	0.643083	2.984149	0.035713	-0.096600	-0.003148	0.355666	0.546300	0.233407	-0.721512
60077	-9.297162	0.619282	2.957064	0.033522	-0.067745	-0.037246	0.355597	0.546207	0.233411	-0.721615
60078	-9.290978	0.606377	2.941328	0.035431	-0.049241	-0.048585	0.355525	0.546118	0.233391	-0.721724
60079	-9.307595	0.606218	2.985304	0.012270	-0.076059	-0.019581	0.355453	0.546067	0.233401	-0.721795
60080	-9.310559	0.612060	2.954112	0.038999	-0.057320	-0.025803	0.355360	0.546010	0.233446	-0.721869
60081	-9.301408	0.576121	2.964364	0.005527	-0.044573	-0.033447	0.355272	0.545998	0.233459	-0.721918
60082	-9.322368	0.613005	2.983823	0.025974	-0.077467	-0.005606	0.355189	0.545959	0.233458	-0.721988
60083	-9.317176	0.614140	2.970761	0.036106	-0.070893	-0.014421	0.355091	0.545915	0.233500	-0.722056
60084	-9.317870	0.563632	2.923358	0.029801	-0.004772	-0.030791	0.354995	0.545883	0.233498	-0.722128
60085	-9.309326	0.604013	2.989011	0.019066	-0.080556	-0.016988	0.354903	0.545857	0.233487	-0.722196
60086	-9.291252	0.618544	2.984808	0.031285	-0.092621	-0.034677	0.354783	0.545853	0.233516	-0.722249
60087	-9.321595	0.604479	3.017417	0.006153	-0.100689	0.003226	0.354644	0.545861	0.233593	-0.722286
60088	-9.299010	0.574466	2.951624	0.022662	-0.042563	-0.039696	0.354526	0.545884	0.233660	-0.722305
60089	-9.295640	0.603330	2.944731	0.049302	-0.059570	-0.043430	0.354396	0.545906	0.233724	-0.722331
60090	-9.327643	0.569774	2.937759	0.034573	-0.026528	-0.016867	0.354270	0.545904	0.233773	-0.722379
60091	-9.325842	0.572056	2.972412	0.015653	-0.054726	-0.008068	0.354156	0.545882	0.233803	-0.722442
60092	-9.339020	0.556186	2.962981	0.013459	-0.035089	0.000797	0.354075	0.545840	0.233813	-0.722510
60093	-9.324242	0.594168	2.931922	0.060907	-0.041548	-0.020586	0.354035	0.545809	0.233794	-0.722560
60094	-9.335767	0.551481	2.915470	0.042103	0.001802	-0.016828	0.354028	0.545737	0.233748	-0.722632
60095	-9.288280	0.585360	2.962998	0.031588	-0.065042	-0.045962	0.354012	0.545673	0.233684	-0.722709
60096	-9.319676	0.615896	3.009682	0.031285	-0.108606	-0.000394	0.353978	0.545630	0.233618	-0.722780
60097	-9.309117	0.574876	2.936912	0.045848	-0.031999	-0.034524	0.353947	0.545584	0.233599	-0.722836
60098	-9.276489	0.575805	2.934869	0.043742	-0.039136	-0.066159	0.353914	0.545554	0.233562	-0.722886
60099	-9.299285	0.587107	2.995131	0.018492	-0.082986	-0.025708	0.353865	0.545532	0.233535	-0.722935
60100	-9.312357	0.572538	2.985763	0.016309	-0.063276	-0.016856	0.353822	0.545517	0.233514	-0.722975
60101	-9.329585	0.594935	2.952969	0.057546	-0.049612	-0.009149	0.353799	0.545482	0.233487	-0.723021
60102	-9.313915	0.550626	2.946934	0.026269	-0.019869	-0.028233	0.353783	0.545438	0.233453	-0.723073
60103	-9.303794	0.564543	3.005719	-0.000948	-0.071970	-0.019400	0.353772	0.545374	0.233363	-0.723155
60104	-9.293355	0.585913	2.984845	0.027960	-0.071927	-0.034493	0.353741	0.545324	0.233266	-0.723239
60105	-9.290090	0.576808	3.017485	0.000825	-0.088269	-0.028214	0.353750	0.545267	0.233191	-0.723303
60106	-9.291187	0.604651	3.026138	0.017065	-0.110702	-0.023064	0.353760	0.545244	0.233129	-0.723335
60107	-9.301144	0.541500	2.921828	0.037682	0.008579	-0.048462	0.353770	0.545187	0.233091	-0.723386
60108	-9.305881	0.584806	2.983308	0.033147	-0.060282	-0.023059	0.353807	0.545117	0.233001	-0.723449
60109	-9.323736	0.567598	2.988527	0.020478	-0.045754	-0.005394	0.353830	0.545062	0.232908	-0.723510
60110	-9.300375	0.602749	2.976760	0.051462	-0.064362	-0.029304	0.353886	0.545000	0.232848	-0.723548
60111	-9.278021	0.597072	3.001892	0.028529	-0.082204	-0.043248	0.353913	0.544922	0.232763	-0.723621
60112	-9.285950	0.601500	2.984662	0.044876	-0.068937	-0.040681	0.353970	0.544872	0.232743	-0.723637
60113	-9.304189	0.583813	2.988777	0.032257	-0.054420	-0.023022	0.353983	0.544847	0.232717	-0.723658
60114	-9.310244	0.593491	3.005729	0.029886	-0.070368	-0.011593	0.354002	0.544835	0.232679	-0.723670
60115	-9.304158	0.582927	2.989046	0.031822	-0.052077	-0.023008	0.354036	0.544786	0.232635	-0.723705
60116	-9.302408	0.601939	3.028900	0.021247	-0.092040	-0.011543	0.354066	0.544743	0.232619	-0.723727
60117	-9.302624	0.553467	2.982038	0.014910	-0.026194	-0.028170	0.354102	0.544701	0.232611	-0.723744
60118	-9.283543	0.556294	2.974694	0.018827	-0.026478	-0.048396	0.354156	0.544672	0.232545	-0.723760
60119	-9.297668	0.571148	2.973858	0.033092	-0.030302	-0.034412	0.354207	0.544623	0.232520	-0.723780
60120	-9.279329	0.581080	3.050417	-0.010673	-0.094611	-0.028027	0.354241	0.544600	0.232457	-0.723801
60121	-9.297285	0.618550	3.021436	0.038881	-0.092833	-0.017736	0.354263	0.544595	0.232450	-0.723796
60122	-9.290192	0.579595	2.995902	0.024222	-0.050922	-0.034351	0.354269	0.544605	0.232445	-0.723788
60123	-9.279151	0.572716	2.964998	0.036627	-0.027325	-0.054626	0.354278	0.544612	0.232436	-0.723780
60124	-9.311065	0.603669	3.009972	0.036265	-0.070790	-0.008915	0.354292	0.544617	0.232419	-0.723775
60125	-9.334922	0.581967	3.026284	0.013246	-0.061605	0.017566	0.354288	0.544613	0.232406	-0.723785
60126	-9.299258	0.629712	3.021972	0.046223	-0.098868	-0.015078	0.354308	0.544616	0.232395	-0.723777
60127	-9.300367	0.595142	2.978316	0.048170	-0.044877	-0.029178	0.354301	0.544591	0.232405	-0.723795
60128	-9.277962	0.574102	2.997794	0.016995	-0.050955	-0.045699	0.354296	0.544566	0.232430	-0.723809
60129	-9.292473	0.587741	2.996016	0.031163	-0.054715	-0.031704	0.354296	0.544555	0.232425	-0.723819
60130	-9.311560	0.583606	3.003587	0.026830	-0.051983	-0.011470	0.354283	0.544526	0.232404	-0.723853
60131	-9.299459	0.609650	3.016554	0.037032	-0.081305	-0.017626	0.354270	0.544504	0.232430	-0.723868
60132	-9.297678	0.565840	3.004198	0.012046	-0.044734	-0.025448	0.354251	0.544495	0.232448	-0.723878
60133	-9.289344	0.614502	2.989277	0.057517	-0.068394	-0.035299	0.354248	0.544472	0.232475	-0.723888
60134	-9.295728	0.575482	2.958847	0.048988	-0.019594	-0.040598	0.354236	0.544442	0.232479	-0.723915
60135	-9.299633	0.589605	3.011140	0.027977	-0.064814	-0.020201	0.354204	0.544415	0.232474	-0.723953
60136	-9.293726	0.577722	2.994077	0.029907	-0.046532	-0.031657	0.354179	0.544378	0.232490	-0.723988
60137	-9.310603	0.578635	3.036977	0.006761	-0.073126	-0.002489	0.354164	0.544369	0.232482	-0.724004
60138	-9.281160	0.588095	3.002786	0.031456	-0.062700	-0.040400	0.354130	0.544344	0.232482	-0.724040
60139	-9.294288	0.573014	2.993238	0.029113	-0.042789	-0.031638	0.354079	0.544329	0.232483	-0.724076
60140	-9.303439	0.590231	2.978595	0.053727	-0.041161	-0.026482	0.354061	0.544297	0.232469	-0.724113
60141	-9.276859	0.601313	2.993582	0.049389	-0.065455	-0.046599	0.354044	0.544239	0.232445	-0.724172
60142	-9.305573	0.574708	3.024464	0.015869	-0.061622	-0.011294	0.354027	0.544166	0.232428	-0.724241
60143	-9.287818	0.604462	3.025562	0.036395	-0.085618	-0.026252	0.354014	0.544102	0.232404	-0.724304
60144	-9.285445	0.560721	3.014761	0.011389	-0.049168	-0.034132	0.353994	0.544034	0.232382	-0.724371
60145	-9.286736	0.539856	2.976448	0.021578	-0.006885	-0.045720	0.353990	0.543969	0.232341	-0.724435
60146	-9.291597	0.583059	3.037923	0.017206	-0.075741	-0.020003	0.354005	0.543902	0.232256	-0.724505
60147	-9.307690	0.592324	3.002768	0.050203	-0.050111	-0.014957	0.354028	0.543827	0.232147	-0.724585
60148	-9.292755	0.577211	3.006018	0.035554	-0.043961	-0.028955	0.354065	0.543730	0.232076	-0.724663
60149	-9.279194	0.590148	3.017322	0.037336	-0.061382	-0.037679	0.354092	0.543640	0.231968	-0.724753
60150	-9.287528	0.554169	3.038254	-0.000179	-0.047261	-0.025244	0.354172	0.543511	0.231855	-0.724846
60151	-9.275899	0.610094	3.061811	0.026497	-0.100054	-0.026039	0.354232	0.543423	0.231739	-0.724920
60152	-9.275281	0.610340	3.063633	0.026268	-0.098838	-0.026026	0.354294	0.543354	0.231661	-0.724966
60153	-9.296203	0.601703	3.037043	0.040457	-0.066748	-0.014781	0.354334	0.543316	0.231607	-0.724992
60154	-9.286908	0.582946	3.052249	0.015420	-0.065987	-0.019929	0.354388	0.543268	0.231539	-0.725023
60155	-9.294253	0.573622	3.030773	0.023404	-0.040746	-0.020059	0.354448	0.543224	0.231483	-0.725045
60156	-9.280984	0.587434	3.040948	0.025248	-0.058328	-0.028768	0.354548	0.543173	0.231397	-0.725061
60157	-9.285876	0.584421	3.055105	0.014762	-0.062517	-0.019905	0.354629	0.543129	0.231316	-0.725081
60158	-9.260658	0.578136	3.030980	0.020866	-0.045867	-0.051626	0.354728	0.543099	0.231262	-0.725072
60159	-9.280060	0.589930	3.043285	0.024763	-0.054879	-0.028747	0.354824	0.543059	0.231188	-0.725079
60160	-9.290275	0.583236	3.070400	0.003649	-0.064214	-0.011025	0.354907	0.543026	0.231058	-0.725104
60161	-9.282322	0.600875	3.013759	0.051117	-0.034734	-0.035086	0.355011	0.542989	0.230957	-0.725114
60162	-9.268244	0.594344	3.099767	-0.011371	-0.092526	-0.022209	0.355131	0.542958	0.230875	-0.725104
60163	-9.256732	0.589210	3.070107	0.000869	-0.068880	-0.042576	0.355231	0.542947	0.230798	-0.725087
60164	-9.294451	0.638885	3.052715	0.054415	-0.076977	-0.009363	0.355328	0.542958	0.230747	-0.725048
60165	-9.265061	0.643543	3.097798	0.023225	-0.118882	-0.023041	0.355383	0.542990	0.230724	-0.725004
60166	-9.286883	0.634657	3.068645	0.037430	-0.086868	-0.011839	0.355415	0.543028	0.230784	-0.724941
60167	-9.262834	0.626524	3.041350	0.043601	-0.070211	-0.043572	0.355397	0.543106	0.230853	-0.724870
60168	-9.281302	0.593916	3.038719	0.022471	-0.043847	-0.028686	0.355393	0.543153	0.230914	-0.724817
60169	-9.308626	0.580113	3.022126	0.026309	-0.017106	-0.008642	0.355391	0.543192	0.230964	-0.724773
60170	-9.281897	0.577698	3.031228	0.013893	-0.029913	-0.031348	0.355410	0.543204	0.230976	-0.724751
60171	-9.302597	0.602368	3.045898	0.026134	-0.050638	-0.005781	0.355433	0.543214	0.230960	-0.724737
60172	-9.276338	0.614517	3.059595	0.021937	-0.075093	-0.025805	0.355464	0.543217	0.230961	-0.724719
60173	-9.283520	0.638140	3.079303	0.027953	-0.102665	-0.011577	0.355469	0.543249	0.230982	-0.724686
60174	-9.264765	0.578422	3.018349	0.017426	-0.026814	-0.051548	0.355474	0.543315	0.231050	-0.724612
60175	-9.285179	0.636098	3.074722	0.027446	-0.100315	-0.011552	0.355462	0.543369	0.231092	-0.724564
60176	-9.307365	0.625973	3.044467	0.041626	-0.068295	-0.000386	0.355441	0.543440	0.231195	-0.724488
60177	-9.288024	0.599249	3.025969	0.029009	-0.045209	-0.025957	0.355419	0.543507	0.231271	-0.724425
60178	-9.283649	0.601673	3.010258	0.039114	-0.038608	-0.034815	0.355401	0.543567	0.231328	-0.724370
60179	-9.304202	0.611039	3.019570	0.042973	-0.047606	-0.011910	0.355371	0.543608	0.231399	-0.724331
60180	-9.294488	0.562216	3.024182	0.001277	-0.023348	-0.022451	0.355337	0.543639	0.231462	-0.724305
60181	-9.277654	0.591849	3.022609	0.021816	-0.047291	-0.037279	0.355321	0.543660	0.231498	-0.724285
60182	-9.298645	0.615411	3.036780	0.033950	-0.068038	-0.011678	0.355297	0.543679	0.231533	-0.724272
60183	-9.285030	0.598811	3.036254	0.019243	-0.062095	-0.025708	0.355254	0.543734	0.231616	-0.724225
60184	-9.285972	0.596964	3.033735	0.019022	-0.060883	-0.025700	0.355208	0.543794	0.231675	-0.724184
60185	-9.287658	0.609110	3.035179	0.027100	-0.071390	-0.022995	0.355156	0.543841	0.231753	-0.724149
60186	-9.308051	0.570193	2.997710	0.024596	-0.015702	-0.017262	0.355121	0.543857	0.231804	-0.724137
60187	-9.304096	0.634149	3.034460	0.049362	-0.085531	-0.006233	0.355091	0.543858	0.231836	-0.724142
60188	-9.296108	0.579662	3.004887	0.026306	-0.032040	-0.025898	0.355055	0.543837	0.231891	-0.724158
60189	-9.284285	0.605176	3.017637	0.036462	-0.061231	-0.031826	0.355034	0.543812	0.231889	-0.724187
60190	-9.295658	0.562291	3.000614	0.017519	-0.017857	-0.028594	0.355022	0.543773	0.231867	-0.724229
60191	-9.287255	0.556597	3.019625	0.000839	-0.028823	-0.031061	0.355037	0.543708	0.231831	-0.724282
60192	-9.281975	0.607748	3.054085	0.017262	-0.086970	-0.022693	0.355056	0.543704	0.231786	-0.724291
60193	-9.273857	0.602640	3.072117	0.000389	-0.098087	-0.025150	0.355075	0.543707	0.231785	-0.724279
60194	-9.287105	0.588385	3.061804	-0.001926	-0.078166	-0.016513	0.355073	0.543727	0.231813	-0.724256
60195	-9.305806	0.624745	3.031165	0.047583	-0.076012	-0.006146	0.355056	0.543764	0.231850	-0.724225
60196	-9.285144	0.584467	3.010000	0.026694	-0.041190	-0.034487	0.355036	0.543796	0.231872	-0.724203
60197	-9.300124	0.598127	3.006976	0.040884	-0.044752	-0.020430	0.355013	0.543828	0.231888	-0.724186
60198	-9.305091	0.579210	3.015071	0.021964	-0.037193	-0.014270	0.355054	0.543819	0.231901	-0.724168
60199	-9.286373	0.581792	3.006725	0.026068	-0.037862	-0.034472	0.355071	0.543822	0.231907	-0.724156
60200	-9.271667	0.600098	3.050758	0.009469	-0.084782	-0.033946	0.355083	0.543821	0.231895	-0.724154
60201	-9.290963	0.596188	3.057591	0.004985	-0.081848	-0.013729	0.355069	0.543844	0.231890	-0.724146
60202	-9.293484	0.589664	3.021152	0.023319	-0.051344	-0.022859	0.355061	0.543850	0.231899	-0.724142
60203	-9.297636	0.611076	2.992409	0.058285	-0.044334	-0.026544	0.355039	0.543874	0.231927	-0.724126
60204	-9.273902	0.561964	3.003168	0.010454	-0.027067	-0.048506	0.355010	0.543884	0.231949	-0.724125
60205	-9.275058	0.574934	3.006180	0.018559	-0.037646	-0.045773	0.355019	0.543885	0.231941	-0.724123
60206	-9.300379	0.581139	3.030372	0.011932	-0.051792	-0.013957	0.355018	0.543877	0.231918	-0.724137
60207	-9.291041	0.595508	3.087586	-0.015020	-0.103939	-0.004515	0.355021	0.543889	0.231893	-0.724135
60208	-9.306262	0.630451	3.009108	0.063239	-0.067093	-0.012167	0.355007	0.543906	0.231921	-0.724119
60209	-9.270216	0.560609	2.985922	0.019506	-0.015782	-0.057366	0.354963	0.543914	0.231983	-0.724116
60210	-9.300425	0.547843	3.018424	-0.005820	-0.023362	-0.019407	0.354934	0.543937	0.231973	-0.724115
60211	-9.299604	0.566782	3.056495	-0.016268	-0.063294	-0.007497	0.354952	0.543968	0.231970	-0.724084
60212	-9.309041	0.585179	3.040863	0.008328	-0.061503	-0.002301	0.354966	0.543985	0.231948	-0.724072
60213	-9.299413	0.606788	3.017839	0.037359	-0.061537	-0.017308	0.354998	0.543985	0.231944	-0.724057
60214	-9.272061	0.557186	2.980831	0.018527	-0.009805	-0.057356	0.355024	0.543983	0.231931	-0.724050
60215	-9.285696	0.557811	2.975373	0.024338	-0.001575	-0.046032	0.355087	0.543956	0.231870	-0.724059
60216	-9.290486	0.588043	3.031985	0.011852	-0.058346	-0.022473	0.355156	0.543934	0.231799	-0.724064
60217	-9.308215	0.605043	3.078819	-0.002880	-0.096529	0.009672	0.355223	0.543945	0.231759	-0.724036
60218	-9.260389	0.667328	3.083011	0.032807	-0.152840	-0.031039	0.355236	0.544011	0.231787	-0.723972
60219	-9.282104	0.609850	3.005071	0.040521	-0.056094	-0.037462	0.355216	0.544111	0.231894	-0.723872
60220	-9.264841	0.578044	2.950384	0.046440	-0.003875	-0.072359	0.355197	0.544226	0.231973	-0.723769
60221	-9.300017	0.581644	3.032767	0.000503	-0.057818	-0.013557	0.355194	0.544331	0.232049	-0.723667
60222	-9.287420	0.613694	3.077426	-0.007796	-0.116436	-0.010151	0.355181	0.544465	0.232140	-0.723543
60223	-9.311370	0.584047	3.005057	0.016469	-0.043111	-0.011108	0.355145	0.544659	0.232299	-0.723364
60224	-9.316183	0.591082	2.967571	0.043145	-0.024353	-0.017552	0.355106	0.544834	0.232438	-0.723207
60225	-9.304315	0.588687	2.967934	0.036785	-0.030125	-0.028864	0.355061	0.544956	0.232562	-0.723097
60226	-9.310260	0.569052	2.973071	0.017807	-0.022429	-0.022739	0.355042	0.545055	0.232642	-0.723006
60227	-9.289424	0.596363	3.036864	-0.006985	-0.093204	-0.021729	0.355018	0.545152	0.232678	-0.722933
60228	-9.308639	0.632793	3.004254	0.042400	-0.090904	-0.011327	0.354991	0.545268	0.232760	-0.722833
60229	-9.303838	0.620897	2.983107	0.044293	-0.072696	-0.022968	0.354930	0.545388	0.232900	-0.722727
60230	-9.291895	0.617654	2.983996	0.037967	-0.078530	-0.034271	0.354839	0.545507	0.233051	-0.722633
60231	-9.303718	0.559223	2.958172	0.010487	-0.023362	-0.034036	0.354754	0.545641	0.233199	-0.722526
60232	-9.302709	0.548372	2.984837	-0.016583	-0.039687	-0.027571	0.354679	0.545785	0.233307	-0.722419
60233	-9.320545	0.589323	2.986307	0.014282	-0.066601	-0.007931	0.354616	0.545919	0.233440	-0.722306
60234	-9.312075	0.609248	2.959715	0.043090	-0.066556	-0.022919	0.354553	0.546039	0.233546	-0.722212
60235	-9.326054	0.560095	2.903415	0.042394	0.006228	-0.029182	0.354513	0.546113	0.233642	-0.722144
60236	-9.326789	0.558426	2.901374	0.042158	0.007478	-0.029182	0.354487	0.546123	0.233642	-0.722150
60237	-9.319770	0.600506	2.966674	0.031865	-0.068076	-0.014003	0.354497	0.546088	0.233620	-0.722179
60238	-9.323367	0.567569	2.972301	0.004561	-0.048676	-0.010673	0.354538	0.546034	0.233596	-0.722207
60239	-9.311305	0.561158	2.943219	0.016686	-0.025215	-0.031230	0.354604	0.545984	0.233526	-0.722235
60240	-9.329907	0.592072	2.995244	0.010212	-0.075018	0.003802	0.354701	0.545921	0.233434	-0.722264
60241	-9.306757	0.539900	2.973741	-0.019160	-0.028703	-0.027537	0.354820	0.545847	0.233337	-0.722294
60242	-9.288800	0.539545	2.932689	0.003360	-0.000061	-0.056994	0.354986	0.545792	0.233173	-0.722306
60243	-9.305916	0.646942	2.992045	0.049163	-0.103109	-0.016877	0.355131	0.545723	0.233006	-0.722341
60244	-9.320691	0.589584	2.985797	0.011283	-0.053226	-0.007846	0.355299	0.545664	0.232886	-0.722342
60245	-9.301878	0.642865	3.026829	0.021701	-0.118231	-0.010369	0.355472	0.545624	0.232763	-0.722326
60246	-9.297891	0.676383	3.022166	0.048584	-0.135236	-0.013652	0.355548	0.545615	0.232730	-0.722307
60247	-9.309068	0.601074	2.961312	0.031317	-0.039008	-0.025609	0.355599	0.545604	0.232732	-0.722289
60248	-9.288459	0.609568	2.988588	0.016756	-0.068858	-0.036509	0.355658	0.545607	0.232717	-0.722263
60249	-9.312314	0.554477	2.961429	-0.004590	-0.006753	-0.025112	0.355711	0.545601	0.232708	-0.722244
60250	-9.294194	0.605489	3.000747	0.005845	-0.071742	-0.027598	0.355774	0.545589	0.232671	-0.722234
60251	-9.281653	0.585137	2.966608	0.009476	-0.036523	-0.050986	0.355842	0.545586	0.232665	-0.722204
60252	-9.317103	0.624588	2.979632	0.035983	-0.061462	-0.011072	0.355887	0.545603	0.232654	-0.722173
60253	-9.271374	0.626147	2.981804	0.027787	-0.076006	-0.053843	0.355904	0.545639	0.232647	-0.722139
60254	-9.302667	0.682985	2.984554	0.073135	-0.107487	-0.019999	0.355868	0.545698	0.232689	-0.722099
60255	-9.302095	0.564492	2.963686	-0.004121	-0.017897	-0.033592	0.355812	0.545753	0.232785	-0.722055
60256	-9.332004	0.625664	3.000933	0.022523	-0.078500	0.009567	0.355773	0.545827	0.232851	-0.721996
60257	-9.289621	0.634228	2.969770	0.041173	-0.075575	-0.039693	0.355714	0.545915	0.232940	-0.721930
60258	-9.293612	0.585665	2.967833	0.005432	-0.044537	-0.039241	0.355650	0.545981	0.233053	-0.721876
60259	-9.284027	0.624661	2.981535	0.024016	-0.085461	-0.042067	0.355566	0.546091	0.233172	-0.721795
60260	-9.316232	0.557588	2.928269	0.010687	0.000737	-0.031189	0.355481	0.546205	0.233302	-0.721709
60261	-9.329414	0.561616	2.954403	-0.002036	-0.020288	-0.010572	0.355433	0.546295	0.233375	-0.721641
60262	-9.332849	0.568903	2.920431	0.024386	-0.001404	-0.017074	0.355442	0.546334	0.233397	-0.721600
60263	-9.321446	0.595827	2.932827	0.034609	-0.030491	-0.022707	0.355489	0.546324	0.233362	-0.721596
60264	-9.319535	0.567722	2.925297	0.017626	-0.005800	-0.028360	0.355545	0.546286	0.233277	-0.721624
60265	-9.306455	0.581699	2.936005	0.019632	-0.023362	-0.036815	0.355636	0.546213	0.233178	-0.721667
60266	-9.305802	0.582440	2.937930	0.019435	-0.022120	-0.036812	0.355723	0.546125	0.233064	-0.721727
60267	-9.317040	0.623159	3.013245	0.004849	-0.095698	-0.001162	0.355815	0.546043	0.232928	-0.721787
60268	-9.292630	0.611446	2.955451	0.029346	-0.050034	-0.042418	0.355904	0.545961	0.232847	-0.721832
60269	-9.310937	0.608513	2.965145	0.024783	-0.047006	-0.022228	0.356003	0.545848	0.232745	-0.721901
60270	-9.323570	0.576060	2.918944	0.032397	0.013897	-0.025972	0.356113	0.545744	0.232647	-0.721958
60271	-9.294698	0.595360	2.972007	0.009750	-0.040001	-0.036338	0.356231	0.545635	0.232490	-0.722032
60272	-9.314491	0.621613	2.990239	0.021824	-0.060345	-0.010466	0.356353	0.545532	0.232347	-0.722096
60273	-9.301739	0.650296	3.006317	0.032174	-0.089481	-0.016049	0.356469	0.545422	0.232215	-0.722164
60274	-9.293667	0.626751	2.987942	0.025567	-0.059591	-0.030630	0.356552	0.545327	0.232115	-0.722226
60275	-9.293038	0.626836	2.989879	0.025226	-0.058251	-0.030621	0.356607	0.545247	0.232034	-0.722286
60276	-9.289859	0.584582	2.979773	-0.000119	-0.021939	-0.039163	0.356678	0.545175	0.231953	-0.722331
60277	-9.296512	0.609278	3.002275	0.005917	-0.049358	-0.024555	0.356765	0.545102	0.231848	-0.722377
60278	-9.297749	0.637858	3.011649	0.022423	-0.071570	-0.018843	0.356824	0.545036	0.231779	-0.722420
60279	-9.308135	0.684519	3.006117	0.063685	-0.092985	-0.007894	0.356863	0.544968	0.231725	-0.722469
60280	-9.291663	0.640998	3.000783	0.032280	-0.063793	-0.027727	0.356878	0.544924	0.231676	-0.722511
60281	-9.270637	0.615281	2.986355	0.019509	-0.041046	-0.053613	0.356907	0.544852	0.231644	-0.722561
60282	-9.302139	0.597443	2.985354	0.012699	-0.019205	-0.025015	0.356905	0.544803	0.231627	-0.722605
60283	-9.280301	0.591229	3.009927	-0.010252	-0.037378	-0.038655	0.356943	0.544755	0.231587	-0.722635
60284	-9.281862	0.619007	3.018480	0.006229	-0.059591	-0.032924	0.356991	0.544707	0.231539	-0.722663
60285	-9.270055	0.646018	3.031908	0.016540	-0.088821	-0.038458	0.356993	0.544704	0.231522	-0.722670
60286	-9.311302	0.680852	3.057203	0.032623	-0.118938	0.010508	0.356984	0.544779	0.231557	-0.722606
60287	-9.279736	0.648081	3.009196	0.032360	-0.074056	-0.036070	0.356943	0.544834	0.231678	-0.722546
60288	-9.288283	0.636074	2.983247	0.040286	-0.048862	-0.036567	0.356882	0.544936	0.231826	-0.722452
60289	-9.280741	0.615003	2.993747	0.015201	-0.048292	-0.041795	0.356809	0.545046	0.231933	-0.722371
60290	-9.296741	0.627355	2.987909	0.029457	-0.051767	-0.027647	0.356744	0.545161	0.232092	-0.722265
60291	-9.295505	0.582692	2.971994	0.004044	-0.015569	-0.036265	0.356690	0.545263	0.232214	-0.722175
60292	-9.318430	0.585922	2.944384	0.026242	0.005162	-0.022635	0.356655	0.545349	0.232304	-0.722098
60293	-9.304160	0.589354	2.982494	0.001405	-0.029974	-0.024475	0.356644	0.545407	0.232343	-0.722047
60294	-9.304779	0.588475	2.980737	0.001133	-0.028754	-0.024471	0.356669	0.545426	0.232356	-0.722017
60295	-9.313507	0.626225	3.004078	0.015515	-0.067776	-0.006913	0.356676	0.545469	0.232349	-0.721983
60296	-9.296865	0.656916	3.002929	0.036304	-0.091782	-0.021310	0.356661	0.545493	0.232369	-0.721966
60297	-9.322099	0.648353	3.021434	0.021392	-0.093907	0.007785	0.356618	0.545560	0.232408	-0.721924
60298	-9.303035	0.635870	3.007639	0.017130	-0.082935	-0.015263	0.356574	0.545603	0.232490	-0.721887
60299	-9.256036	0.607400	3.000783	-0.007766	-0.074482	-0.063727	0.356497	0.545669	0.232585	-0.721844
60300	-9.319047	0.665164	3.039569	0.020827	-0.125918	0.011251	0.356396	0.545753	0.232679	-0.721800
60301	-9.307601	0.641807	3.002058	0.024572	-0.090852	-0.012338	0.356297	0.545844	0.232849	-0.721726
60302	-9.319525	0.562976	2.937444	0.007046	0.005126	-0.024992	0.356165	0.545946	0.232989	-0.721669
60303	-9.292143	0.618727	2.947544	0.038559	-0.049373	-0.044840	0.356048	0.546011	0.233102	-0.721640
60304	-9.297816	0.597508	2.953682	0.019522	-0.041765	-0.038819	0.355950	0.546065	0.233209	-0.721613
60305	-9.300953	0.622553	2.958388	0.035988	-0.063856	-0.033015	0.355826	0.546149	0.233320	-0.721575
60306	-9.286742	0.590533	2.952764	0.012928	-0.046513	-0.050065	0.355713	0.546219	0.233447	-0.721537
60307	-9.286635	0.647239	2.951570	0.056535	-0.086776	-0.047364	0.355555	0.546329	0.233606	-0.721481
60308	-9.311000	0.552424	2.992304	-0.037487	-0.053398	-0.017305	0.355369	0.546435	0.233819	-0.721423
60309	-9.297689	0.554304	2.913300	0.011865	-0.007320	-0.053517	0.355212	0.546544	0.233995	-0.721360
60310	-9.325858	0.571453	2.937147	0.013574	-0.032801	-0.018620	0.355095	0.546652	0.234129	-0.721293
60311	-9.314654	0.581447	2.943189	0.015655	-0.050411	-0.026961	0.354974	0.546692	0.234268	-0.721276
60312	-9.336716	0.621968	2.994151	0.017763	-0.111539	0.011431	0.354831	0.546794	0.234423	-0.721219
60313	-9.329657	0.579547	2.965406	0.002764	-0.070128	-0.006206	0.354692	0.546863	0.234618	-0.721172
60314	-9.326289	0.539967	2.870031	0.033064	0.018124	-0.039925	0.354569	0.546927	0.234797	-0.721125
60315	-9.312891	0.521820	2.868596	0.018437	0.023772	-0.054092	0.354491	0.546973	0.234910	-0.721092
60316	-9.306950	0.509348	2.850039	0.020098	0.041885	-0.065928	0.354446	0.546969	0.234928	-0.721111
60317	-9.326956	0.538143	2.900198	0.013848	-0.007523	-0.030428	0.354443	0.546948	0.234905	-0.721137
60318	-9.320219	0.546715	2.922276	0.005436	-0.030244	-0.029838	0.354429	0.546955	0.234885	-0.721144
60319	-9.322544	0.574086	2.929574	0.021962	-0.052384	-0.023991	0.354457	0.546940	0.234876	-0.721145
60320	-9.323796	0.587321	2.933036	0.030140	-0.062889	-0.021061	0.354456	0.546932	0.234883	-0.721149
60321	-9.326287	0.540482	2.933976	-0.005613	-0.031960	-0.020910	0.354499	0.546916	0.234847	-0.721152
60322	-9.321855	0.558305	2.924815	0.012865	-0.037166	-0.026897	0.354531	0.546902	0.234823	-0.721155
60323	-9.318296	0.535621	2.952664	-0.022620	-0.041854	-0.023229	0.354588	0.546870	0.234748	-0.721175
60324	-9.335104	0.559116	2.920000	0.018434	-0.027515	-0.015643	0.354650	0.546836	0.234685	-0.721191
60325	-9.301083	0.548657	2.915468	0.008055	-0.023844	-0.049979	0.354744	0.546775	0.234576	-0.721227
60326	-9.307154	0.559988	2.933772	0.005779	-0.039595	-0.038123	0.354852	0.546732	0.234462	-0.721243
60327	-9.306255	0.580990	2.974641	-0.004566	-0.079401	-0.025651	0.354979	0.546661	0.234359	-0.721268
60328	-9.322467	0.624894	2.981982	0.026356	-0.105982	-0.005589	0.355063	0.546633	0.234271	-0.721277
60329	-9.318150	0.569037	2.966609	-0.007390	-0.058111	-0.017328	0.355121	0.546621	0.234244	-0.721266
60330	-9.303506	0.629257	2.974143	0.030203	-0.105488	-0.025723	0.355190	0.546660	0.234199	-0.721216
60331	-9.304423	0.609665	2.932971	0.040078	-0.063413	-0.038197	0.355193	0.546725	0.234250	-0.721149
60332	-9.304341	0.594630	2.926175	0.031436	-0.050651	-0.041132	0.355180	0.546817	0.234321	-0.721063
60333	-9.337902	0.609953	2.963421	0.022778	-0.081263	0.002769	0.355143	0.546943	0.234437	-0.720948
60334	-9.331785	0.583881	2.938125	0.016187	-0.051524	-0.012035	0.355054	0.547083	0.234551	-0.720848
60335	-9.322317	0.589481	2.907454	0.036632	-0.039809	-0.029874	0.354999	0.547204	0.234716	-0.720730
60336	-9.321851	0.558815	2.894754	0.019572	-0.015320	-0.035767	0.354935	0.547344	0.234868	-0.720606
60337	-9.339059	0.585322	2.892351	0.042099	-0.030158	-0.018627	0.354878	0.547456	0.234976	-0.720514
60338	-9.334583	0.532772	2.908896	-0.010003	-0.011678	-0.020868	0.354838	0.547514	0.235032	-0.720471
60339	-9.331815	0.563982	2.901889	0.016934	-0.028523	-0.023882	0.354846	0.547542	0.235018	-0.720450
60340	-9.339888	0.587514	2.921722	0.023139	-0.055820	-0.009041	0.354846	0.547539	0.235008	-0.720456
60341	-9.332246	0.562471	2.900797	0.016467	-0.026071	-0.023874	0.354865	0.547503	0.234994	-0.720479
60342	-9.313006	0.584983	2.932960	0.010527	-0.067749	-0.031489	0.354901	0.547483	0.234955	-0.720488
60343	-9.324257	0.557041	2.919779	-0.000434	-0.036061	-0.026172	0.354921	0.547448	0.234904	-0.720522
60344	-9.338815	0.571161	2.918219	0.013841	-0.039365	-0.011975	0.354945	0.547426	0.234888	-0.720532
60345	-9.314109	0.578284	2.898245	0.028342	-0.034986	-0.041053	0.354991	0.547384	0.234846	-0.720555
60346	-9.324988	0.570196	2.925005	0.007378	-0.044221	-0.023194	0.355041	0.547326	0.234771	-0.720599
60347	-9.323293	0.556538	2.922952	-0.001319	-0.031381	-0.026156	0.355120	0.547233	0.234640	-0.720673
60348	-9.350602	0.552813	2.879191	0.028858	0.013564	-0.013296	0.355219	0.547101	0.234490	-0.720773
60349	-9.331142	0.590955	2.919044	0.031351	-0.039751	-0.017908	0.355328	0.546936	0.234310	-0.720903
60350	-9.324934	0.629558	2.953941	0.039882	-0.085915	-0.011282	0.355432	0.546748	0.234140	-0.721050
60351	-9.315749	0.605793	2.937763	0.033235	-0.056283	-0.026149	0.355504	0.546577	0.233998	-0.721190
60352	-9.285268	0.576677	2.945304	0.004207	-0.046367	-0.054542	0.355592	0.546412	0.233883	-0.721309
60353	-9.305286	0.601409	2.964181	0.016416	-0.066335	-0.028428	0.355658	0.546261	0.233750	-0.721434
60354	-9.307930	0.549735	2.933248	-0.000979	-0.006153	-0.038043	0.355727	0.546146	0.233635	-0.721525
60355	-9.291972	0.629543	2.983572	0.026696	-0.094308	-0.033671	0.355790	0.546035	0.233495	-0.721623
60356	-9.321871	0.579172	2.940764	0.021318	-0.019744	-0.020855	0.355854	0.545945	0.233386	-0.721694
60357	-9.318783	0.625756	2.941885	0.056655	-0.048274	-0.020832	0.355914	0.545841	0.233266	-0.721783
60358	-9.289489	0.630219	2.991152	0.026055	-0.090885	-0.033636	0.355962	0.545715	0.233189	-0.721879
60359	-9.323573	0.580880	2.996705	-0.008068	-0.050681	-0.002283	0.356037	0.545615	0.233089	-0.721950
60360	-9.299229	0.621983	3.021142	0.004875	-0.098913	-0.015748	0.356063	0.545560	0.233043	-0.721993
60361	-9.310869	0.574155	2.968881	0.003882	-0.026337	-0.023128	0.356089	0.545540	0.233021	-0.722003
60362	-9.297197	0.573579	2.974935	-0.002439	-0.032346	-0.034341	0.356145	0.545497	0.232932	-0.722036
60363	-9.306773	0.626036	3.004130	0.020554	-0.082818	-0.013429	0.356187	0.545464	0.232888	-0.722055
60364	-9.319967	0.645881	3.037834	0.016351	-0.115214	0.010441	0.356217	0.545454	0.232870	-0.722053
60365	-9.273448	0.613789	2.997707	0.009947	-0.077974	-0.047768	0.356235	0.545461	0.232901	-0.722029
60366	-9.298979	0.585482	2.977035	0.004918	-0.039031	-0.031328	0.356232	0.545514	0.232954	-0.721973
60367	-9.301063	0.578721	2.939757	0.023059	-0.008569	-0.040981	0.356219	0.545539	0.232977	-0.721954
60368	-9.291261	0.619003	2.955788	0.042007	-0.049479	-0.043186	0.356210	0.545533	0.233025	-0.721947
60369	-9.302502	0.628881	3.019758	0.011012	-0.099585	-0.012639	0.356176	0.545552	0.233074	-0.721933
60370	-9.293371	0.574341	2.989412	-0.012470	-0.046643	-0.033584	0.356118	0.545583	0.233163	-0.721910
60371	-9.309117	0.566742	2.946261	0.011667	-0.008924	-0.032039	0.356065	0.545613	0.233248	-0.721886
60372	-9.306273	0.616383	2.978387	0.028591	-0.066652	-0.022275	0.356034	0.545643	0.233314	-0.721857
60373	-9.311489	0.596122	2.985437	0.009551	-0.059041	-0.016339	0.355989	0.545674	0.233406	-0.721826
60374	-9.286490	0.606383	2.998211	0.005705	-0.083968	-0.035736	0.355916	0.545705	0.233538	-0.721797
60375	-9.327110	0.590978	2.974367	0.015099	-0.049431	-0.005118	0.355836	0.545803	0.233641	-0.721728
60376	-9.314798	0.587879	2.976734	0.008832	-0.055532	-0.016318	0.355763	0.545855	0.233763	-0.721686
60377	-9.295698	0.574402	2.962738	0.004556	-0.044754	-0.039472	0.355693	0.545899	0.233881	-0.721648
60378	-9.310204	0.572182	2.954508	0.010363	-0.036327	-0.028262	0.355638	0.545942	0.233980	-0.721611
60379	-9.288620	0.550762	2.972066	-0.020711	-0.043255	-0.044746	0.355580	0.546012	0.234082	-0.721554
60380	-9.311148	0.573249	2.983792	-0.008481	-0.063211	-0.018555	0.355535	0.546105	0.234187	-0.721471
60381	-9.306933	0.556061	2.928046	0.011594	-0.015922	-0.040212	0.355514	0.546199	0.234257	-0.721388
60382	-9.309099	0.568978	2.928903	0.019801	-0.026331	-0.037185	0.355501	0.546268	0.234311	-0.721324
60383	-9.322179	0.573791	2.956309	0.007159	-0.047112	-0.016273	0.355495	0.546309	0.234364	-0.721279
60384	-9.318417	0.590565	2.945464	0.025688	-0.052371	-0.022180	0.355507	0.546328	0.234420	-0.721240
60385	-9.305667	0.588941	2.948980	0.019451	-0.058469	-0.033374	0.355493	0.546402	0.234469	-0.721175
60386	-9.309884	0.555546	2.951353	-0.007963	-0.039226	-0.030486	0.355469	0.546472	0.234538	-0.721112
60387	-9.310907	0.554240	2.948372	-0.008200	-0.038003	-0.030481	0.355460	0.546554	0.234610	-0.721031
60388	-9.295215	0.584976	2.945730	0.012703	-0.062102	-0.044549	0.355448	0.546651	0.234659	-0.720947
60389	-9.325739	0.632398	2.977864	0.031257	-0.110383	-0.003312	0.355419	0.546761	0.234771	-0.720841
60390	-9.302358	0.563868	2.946748	-0.006747	-0.053238	-0.038627	0.355372	0.546905	0.234891	-0.720716
60391	-9.318603	0.557066	2.900836	0.017437	-0.015486	-0.037157	0.355321	0.547043	0.235007	-0.720599
60392	-9.312210	0.570194	2.954526	-0.009096	-0.067658	-0.026629	0.355269	0.547132	0.235138	-0.720514
60393	-9.300212	0.567843	2.955912	-0.015328	-0.073777	-0.037815	0.355207	0.547285	0.235238	-0.720396
60394	-9.331263	0.595522	2.947109	0.013263	-0.081246	-0.009332	0.355155	0.547461	0.235351	-0.720250
60395	-9.304797	0.559416	2.909919	0.002527	-0.042155	-0.047543	0.355097	0.547623	0.235484	-0.720113
60396	-9.330384	0.610578	2.927450	0.031527	-0.085270	-0.015210	0.355047	0.547786	0.235585	-0.719981
60397	-9.341035	0.572519	2.940142	-0.006319	-0.071334	-0.003405	0.354988	0.547943	0.235767	-0.719831
60398	-9.312075	0.661437	2.943284	0.052648	-0.143983	-0.025366	0.354862	0.548123	0.235946	-0.719697
60399	-9.354336	0.584983	2.912974	0.017958	-0.068147	0.001906	0.354717	0.548321	0.236169	-0.719544
60400	-9.323056	0.569997	2.900475	0.007649	-0.064825	-0.032465	0.354561	0.548523	0.236456	-0.719373
60401	-9.340934	0.554898	2.816290	0.050054	0.002135	-0.040793	0.354387	0.548735	0.236714	-0.719212
60402	-9.310689	0.598342	2.921762	0.010001	-0.117079	-0.036705	0.354208	0.548925	0.236977	-0.719068
60403	-9.327671	0.587896	2.873018	0.034074	-0.079251	-0.035272	0.354002	0.549120	0.237313	-0.718910
60404	-9.322802	0.497968	2.842016	-0.016679	-0.008538	-0.053624	0.353806	0.549315	0.237595	-0.718765
60405	-9.354083	0.527418	2.865797	-0.006527	-0.045178	-0.015354	0.353634	0.549540	0.237904	-0.718576
60406	-9.358904	0.531261	2.825972	0.019983	-0.026384	-0.022063	0.353481	0.549765	0.238211	-0.718377
60407	-9.340097	0.582122	2.844552	0.041354	-0.086145	-0.032165	0.353295	0.550026	0.238519	-0.718166
60408	-9.341990	0.587142	2.906038	0.004389	-0.143458	-0.012587	0.353031	0.550273	0.238939	-0.717967
60409	-9.380529	0.524960	2.862768	-0.011558	-0.073955	0.008704	0.352761	0.550551	0.239349	-0.717750
60410	-9.369161	0.478818	2.779564	0.002080	0.001551	-0.028189	0.352508	0.550827	0.239753	-0.717528
60411	-9.381788	0.485736	2.719884	0.044843	0.032923	-0.032679	0.352326	0.551038	0.240108	-0.717336
60412	-9.371347	0.474459	2.682868	0.056883	0.056029	-0.053658	0.352185	0.551181	0.240408	-0.717196
60413	-9.353552	0.478875	2.705773	0.042631	0.025805	-0.063996	0.352053	0.551280	0.240630	-0.717110
60414	-9.378562	0.452792	2.717323	0.019143	0.035580	-0.037992	0.351953	0.551348	0.240799	-0.717050
60415	-9.386629	0.459574	2.731409	0.016909	0.020039	-0.025966	0.351912	0.551353	0.240882	-0.717038
60416	-9.370701	0.429324	2.729077	-0.006200	0.037025	-0.043306	0.351931	0.551298	0.240868	-0.717076
60417	-9.383065	0.494953	2.762552	0.025291	-0.024910	-0.018948	0.351987	0.551227	0.240788	-0.717130
60418	-9.380651	0.486585	2.795997	-0.001717	-0.041437	-0.012215	0.352057	0.551139	0.240687	-0.717197
60419	-9.369399	0.514498	2.811761	0.008953	-0.070763	-0.017216	0.352105	0.551054	0.240602	-0.717267
60420	-9.367413	0.500543	2.809871	0.000249	-0.058006	-0.020294	0.352161	0.550969	0.240495	-0.717341
60421	-9.362363	0.518961	2.803115	0.018810	-0.063212	-0.026153	0.352207	0.550884	0.240379	-0.717423
60422	-9.386645	0.511313	2.824925	0.003783	-0.065029	0.002938	0.352277	0.550801	0.240284	-0.717484
60423	-9.359894	0.505394	2.802776	0.009881	-0.049284	-0.029228	0.352327	0.550753	0.240212	-0.717520
60424	-9.350253	0.547317	2.821585	0.028892	-0.090171	-0.031115	0.352385	0.550688	0.240138	-0.717566
60425	-9.354884	0.523301	2.795998	0.028096	-0.053338	-0.035077	0.352410	0.550646	0.240112	-0.717595
60426	-9.359169	0.504357	2.805383	0.009084	-0.045704	-0.029210	0.352408	0.550610	0.240067	-0.717639
60427	-9.353289	0.507729	2.793115	0.019152	-0.039331	-0.038160	0.352429	0.550563	0.240028	-0.717677
60428	-9.365955	0.512921	2.823498	0.006604	-0.060063	-0.017143	0.352447	0.550509	0.239972	-0.717728
60429	-9.363482	0.478927	2.781115	0.007814	-0.006511	-0.033185	0.352480	0.550465	0.239919	-0.717764
60430	-9.357410	0.483216	2.769346	0.017864	-0.000165	-0.042141	0.352557	0.550411	0.239825	-0.717799
60431	-9.356268	0.549420	2.808735	0.043421	-0.069317	-0.028827	0.352607	0.550363	0.239750	-0.717836
60432	-9.352622	0.526858	2.837582	0.008021	-0.074256	-0.025174	0.352647	0.550301	0.239671	-0.717891
60433	-9.357998	0.522646	2.851645	-0.002687	-0.078273	-0.016207	0.352710	0.550242	0.239621	-0.717921
60434	-9.383177	0.508988	2.836840	0.000545	-0.050810	0.003022	0.352757	0.550197	0.239583	-0.717946
60435	-9.338944	0.520733	2.810777	0.019436	-0.048880	-0.046176	0.352816	0.550168	0.239510	-0.717963
60436	-9.352104	0.521042	2.805703	0.025082	-0.040321	-0.035006	0.352852	0.550112	0.239456	-0.718006
60437	-9.338324	0.520379	2.812902	0.018821	-0.046514	-0.046163	0.352906	0.550035	0.239393	-0.718060
60438	-9.353064	0.559476	2.886775	0.004808	-0.119593	-0.009016	0.352925	0.549999	0.239341	-0.718095
60439	-9.363280	0.536342	2.908329	-0.024613	-0.117116	0.005802	0.352912	0.550006	0.239357	-0.718091
60440	-9.345631	0.527848	2.829456	0.016107	-0.059626	-0.034066	0.352902	0.550013	0.239375	-0.718085
60441	-9.358097	0.512684	2.818471	0.013353	-0.039604	-0.026020	0.352887	0.550028	0.239424	-0.718064
60442	-9.321682	0.532918	2.807123	0.030354	-0.054430	-0.063133	0.352872	0.550048	0.239451	-0.718047
60443	-9.339948	0.513486	2.808774	0.017209	-0.039439	-0.046129	0.352829	0.550068	0.239489	-0.718041
60444	-9.360487	0.527398	2.853623	0.002626	-0.076748	-0.012986	0.352801	0.550082	0.239531	-0.718029
60445	-9.360132	0.506125	2.812895	0.012175	-0.034698	-0.026000	0.352779	0.550099	0.239565	-0.718016
60446	-9.361957	0.518744	2.815619	0.020400	-0.045142	-0.022866	0.352764	0.550103	0.239586	-0.718013
60447	-9.367081	0.493883	2.788437	0.019589	-0.008336	-0.026929	0.352766	0.550091	0.239586	-0.718021
60448	-9.329802	0.519966	2.813718	0.018410	-0.052406	-0.054127	0.352749	0.550063	0.239572	-0.718055
60449	-9.351882	0.543305	2.828172	0.030635	-0.072032	-0.027735	0.352755	0.550060	0.239549	-0.718063
60450	-9.375070	0.525751	2.878994	-0.011145	-0.091461	0.008131	0.352749	0.550045	0.239569	-0.718071
60451	-9.341011	0.488617	2.798618	0.006731	-0.018214	-0.049229	0.352729	0.550039	0.239591	-0.718077
60452	-9.355528	0.507129	2.831591	0.002547	-0.050401	-0.025019	0.352741	0.550012	0.239588	-0.718093
60453	-9.344050	0.514170	2.806118	0.022956	-0.038935	-0.042943	0.352759	0.549963	0.239590	-0.718122
60454	-9.351145	0.523071	2.823226	0.020736	-0.054397	-0.030830	0.352771	0.549929	0.239553	-0.718154
60455	-9.348672	0.518941	2.890620	-0.024522	-0.100165	-0.014115	0.352773	0.549878	0.239556	-0.718191
60456	-9.366964	0.493830	2.858300	-0.019347	-0.055994	-0.007064	0.352776	0.549837	0.239603	-0.718205
60457	-9.344243	0.508921	2.806433	0.021833	-0.034173	-0.042923	0.352781	0.549846	0.239607	-0.718195
60458	-9.340629	0.520471	2.761548	0.058733	-0.010139	-0.058671	0.352776	0.549815	0.239608	-0.718220
60459	-9.351694	0.516524	2.822616	0.019438	-0.048505	-0.030796	0.352781	0.549786	0.239602	-0.718242
60460	-9.344130	0.510922	2.841249	0.002823	-0.059884	-0.032968	0.352775	0.549766	0.239602	-0.718261
60461	-9.372565	0.463945	2.830244	-0.021276	-0.014386	-0.011165	0.352774	0.549755	0.239609	-0.718267
60462	-9.349220	0.485192	2.814157	0.001662	-0.021840	-0.037088	0.352823	0.549729	0.239589	-0.718270
60463	-9.340106	0.527020	2.831737	0.020826	-0.062655	-0.038758	0.352866	0.549721	0.239529	-0.718275
60464	-9.349220	0.545422	2.816814	0.045364	-0.060448	-0.033417	0.352886	0.549709	0.239493	-0.718286
60465	-9.332567	0.521963	2.850194	0.003997	-0.072814	-0.040914	0.352908	0.549691	0.239492	-0.718289
60466	-9.365275	0.517237	2.850863	0.005220	-0.061905	-0.009653	0.352924	0.549665	0.239518	-0.718292
60467	-9.349181	0.487837	2.848619	-0.017962	-0.045054	-0.027114	0.352952	0.549656	0.239511	-0.718287
60468	-9.335466	0.522242	2.782055	0.048060	-0.022263	-0.057654	0.352986	0.549647	0.239499	-0.718282
60469	-9.334537	0.532929	2.852892	0.011272	-0.079523	-0.037712	0.353029	0.549619	0.239460	-0.718295
60470	-9.359868	0.518885	2.837391	0.014435	-0.051951	-0.018594	0.353045	0.549590	0.239437	-0.718318
60471	-9.365697	0.513746	2.850108	0.003738	-0.055839	-0.009616	0.353051	0.549573	0.239443	-0.718326
60472	-9.357321	0.488889	2.828874	-0.002990	-0.026445	-0.024925	0.353075	0.549580	0.239445	-0.718308
60473	-9.342758	0.534042	2.832926	0.026560	-0.062136	-0.035509	0.353088	0.549561	0.239462	-0.718310
60474	-9.347301	0.514781	2.841262	0.007500	-0.054496	-0.029703	0.353094	0.549560	0.239466	-0.718307
60475	-9.347573	0.514109	2.840488	0.007311	-0.053317	-0.029697	0.353119	0.549566	0.239456	-0.718293
60476	-9.355125	0.523373	2.856118	0.005100	-0.068832	-0.017539	0.353134	0.549588	0.239484	-0.718260
60477	-9.359941	0.504215	2.863534	-0.014018	-0.061248	-0.011738	0.353141	0.549619	0.239520	-0.718220
60478	-9.339007	0.533805	2.814335	0.035743	-0.051056	-0.044443	0.353143	0.549658	0.239558	-0.718177
60479	-9.339702	0.532877	2.812206	0.035383	-0.049838	-0.044435	0.353155	0.549718	0.239604	-0.718109
60480	-9.362501	0.495765	2.821640	0.003356	-0.028429	-0.021720	0.353140	0.549789	0.239654	-0.718046
60481	-9.358581	0.518428	2.845679	0.003645	-0.062860	-0.017498	0.353147	0.549844	0.239703	-0.717984
60482	-9.360821	0.531556	2.847162	0.011868	-0.073192	-0.014302	0.353143	0.549910	0.239744	-0.717922
60483	-9.352969	0.506622	2.824023	0.005022	-0.043789	-0.029648	0.353144	0.549974	0.239803	-0.717853
60484	-9.340862	0.499689	2.791786	0.017036	-0.020868	-0.050786	0.353136	0.550045	0.239876	-0.717778
60485	-9.328410	0.498219	2.794828	0.010772	-0.027075	-0.061910	0.353116	0.550126	0.239934	-0.717706
60486	-9.342323	0.503057	2.821487	-0.001764	-0.047744	-0.040759	0.353109	0.550207	0.239969	-0.717636
60487	-9.367241	0.534443	2.801513	0.037151	-0.049550	-0.021085	0.353079	0.550281	0.240083	-0.717555
60488	-9.366548	0.524058	2.829665	0.010124	-0.066075	-0.014249	0.353056	0.550372	0.240182	-0.717464
60489	-9.358976	0.498238	2.805554	0.003278	-0.036679	-0.029618	0.353012	0.550459	0.240291	-0.717383
60490	-9.355559	0.520193	2.828399	0.003662	-0.071131	-0.025356	0.352981	0.550565	0.240382	-0.717286
60491	-9.357159	0.512811	2.788978	0.021607	-0.040698	-0.035384	0.352923	0.550668	0.240514	-0.717191
60492	-9.337903	0.500329	2.773997	0.017320	-0.030307	-0.058683	0.352857	0.550784	0.240650	-0.717089
60493	-9.354220	0.512380	2.767403	0.031405	-0.033140	-0.044351	0.352789	0.550914	0.240767	-0.716983
60494	-9.370143	0.535299	2.831429	0.009188	-0.094572	-0.009928	0.352708	0.551045	0.240931	-0.716867
60495	-9.352501	0.476396	2.816538	-0.030886	-0.054796	-0.033875	0.352625	0.551210	0.241090	-0.716727
60496	-9.376914	0.487484	2.754500	0.017815	-0.015843	-0.027450	0.352564	0.551379	0.241229	-0.716581
60497	-9.387379	0.509444	2.769952	0.024135	-0.042851	-0.012043	0.352500	0.551503	0.241361	-0.716473
60498	-9.384365	0.530914	2.792003	0.024477	-0.077288	-0.007745	0.352432	0.551623	0.241491	-0.716370
60499	-9.363748	0.498797	2.737501	0.029959	-0.026211	-0.044325	0.352354	0.551739	0.241645	-0.716267
60500	-9.360275	0.459664	2.757449	-0.013894	-0.019753	-0.043912	0.352292	0.551808	0.241746	-0.716210
60501	-9.383587	0.476389	2.733637	0.016589	-0.009973	-0.027441	0.352238	0.551875	0.241788	-0.716171
60502	-9.373725	0.437397	2.707298	0.001260	0.030850	-0.046083	0.352243	0.551904	0.241785	-0.716147
60503	-9.363531	0.470720	2.756008	-0.006162	-0.027682	-0.040683	0.352277	0.551899	0.241702	-0.716162
60504	-9.372419	0.489762	2.741475	0.018352	-0.025416	-0.035325	0.352335	0.551878	0.241608	-0.716182
60505	-9.372086	0.495877	2.777594	-0.000130	-0.053480	-0.025243	0.352382	0.551851	0.241522	-0.716208
60506	-9.376084	0.478234	2.787417	-0.019240	-0.045873	-0.019481	0.352451	0.551805	0.241424	-0.716243
60507	-9.374522	0.514606	2.717103	0.052629	-0.015580	-0.038941	0.352557	0.551732	0.241272	-0.716299
60508	-9.380961	0.531510	2.771706	0.032280	-0.060236	-0.016636	0.352659	0.551643	0.241109	-0.716372
60509	-9.365189	0.523822	2.811663	-0.000546	-0.084277	-0.020879	0.352733	0.551564	0.241001	-0.716433
60510	-9.338184	0.513019	2.754691	0.023768	-0.039604	-0.063274	0.352800	0.551497	0.240886	-0.716489
60511	-9.364037	0.525139	2.815252	-0.001047	-0.081902	-0.020859	0.352864	0.551436	0.240775	-0.716542
60512	-9.357927	0.529504	2.803362	0.009054	-0.075652	-0.029834	0.352900	0.551415	0.240740	-0.716552
60513	-9.360720	0.491668	2.773406	-0.000322	-0.027355	-0.037420	0.352952	0.551372	0.240676	-0.716582
60514	-9.363498	0.520008	2.782057	0.016331	-0.049250	-0.030937	0.353016	0.551329	0.240600	-0.716609
60515	-9.351401	0.534053	2.792837	0.018621	-0.067067	-0.038793	0.353056	0.551290	0.240534	-0.716641
60516	-9.359697	0.502731	2.846635	-0.037518	-0.082328	-0.017188	0.353079	0.551250	0.240519	-0.716666
60517	-9.376396	0.524850	2.812625	0.003259	-0.067414	-0.009700	0.353093	0.551266	0.240500	-0.716653
60518	-9.344194	0.533670	2.845803	-0.016624	-0.105331	-0.030766	0.353109	0.551323	0.240530	-0.716591
60519	-9.352978	0.525901	2.753094	0.035793	-0.033098	-0.048881	0.353062	0.551428	0.240620	-0.716503
60520	-9.352616	0.510436	2.745492	0.027105	-0.020450	-0.052126	0.353031	0.551533	0.240699	-0.716410
60521	-9.371322	0.491450	2.744922	0.013899	-0.005475	-0.035286	0.353011	0.551632	0.240744	-0.716329
60522	-9.382723	0.534421	2.801333	0.010572	-0.073110	-0.006408	0.352993	0.551754	0.240777	-0.716233
60523	-9.386622	0.501719	2.802629	-0.016990	-0.054061	-0.003920	0.352984	0.551873	0.240834	-0.716127
