// General information: 
//  MT Manager version: 2021.0.0 
//  XDA version: 2021.0.0 build 5908 rev 109668 built on 2021-04-19
// Device information: 
//  DeviceId: 00B43DF2
//  ProductCode: MTW2-3A7G6
//  Firmware Version: 4.3.5
//  Hardware Version: 1.1.0
// Device settings: 
//  Filter Profile: human(46.1)
//  Option Flags: Orientation Smoother Disabled, Position/Velocity Smoother Disabled, Continuous Zero Rotation Update Disabled, AHS Disabled, ICC Disabled
// Coordinate system: ENU
PacketCounter	Acc_X	Acc_Y	Acc_Z	FreeAcc_E	FreeAcc_N	FreeAcc_U	Quat_q0	Quat_q1	Quat_q2	Quat_q3
59330	10.789463	-0.289932	-2.804852	0.354748	-1.097799	1.279218	-0.524506	0.462626	0.606451	0.378270
59331	10.812977	-0.486671	-3.083889	0.189193	-1.269535	1.368476	-0.520655	0.463978	0.610631	0.375197
59332	10.438816	-0.624190	-3.203422	0.054957	-1.363868	1.038860	-0.517531	0.465119	0.614153	0.372346
59333	9.993482	-0.618849	-3.163852	0.028285	-1.301532	0.606860	-0.514947	0.466187	0.617224	0.369504
59334	9.719751	-0.609418	-3.044178	-0.011242	-1.147970	0.326019	-0.512864	0.467157	0.619872	0.366734
59335	9.555158	-0.598689	-2.985047	-0.027036	-1.044455	0.161174	-0.511225	0.467955	0.622105	0.364215
59336	9.406209	-0.519398	-2.935010	0.029243	-0.940670	0.009472	-0.509936	0.468558	0.623926	0.362125
59337	9.089146	-0.587547	-2.836792	-0.061569	-0.885356	-0.314406	-0.508772	0.469069	0.625470	0.360435
59338	8.893566	-0.572785	-2.639521	-0.110306	-0.696523	-0.544829	-0.507471	0.469581	0.626888	0.359136
59339	8.877394	-0.634545	-2.511377	-0.223398	-0.559713	-0.584771	-0.505877	0.470147	0.628334	0.358114
59340	8.893144	-0.546107	-2.409625	-0.193476	-0.393567	-0.593143	-0.503911	0.470787	0.629883	0.357325
59341	9.032520	-0.369321	-2.345009	-0.082373	-0.202590	-0.475999	-0.501368	0.471611	0.631620	0.356749
59342	9.578929	-0.299462	-2.409858	-0.064202	-0.063354	0.068833	-0.498427	0.472585	0.633375	0.356470
59343	9.645457	-0.131293	-2.484486	0.069150	-0.013626	0.148205	-0.495347	0.473735	0.634897	0.356528
59344	9.502724	0.034967	-2.508066	0.197022	0.030339	0.013465	-0.492038	0.475262	0.636160	0.356826
59345	9.664499	0.107348	-2.600116	0.237646	0.058336	0.193031	-0.488515	0.477217	0.637127	0.357331
59346	9.748915	0.114408	-2.719477	0.231078	0.022145	0.306392	-0.485059	0.479582	0.637558	0.358104
59347	9.525274	-0.002310	-2.834042	0.130366	-0.127401	0.123567	-0.481652	0.482314	0.637570	0.359010
59348	9.545758	-0.289459	-3.039959	-0.122294	-0.345572	0.202900	-0.478339	0.485209	0.637367	0.359898
59349	9.507728	-0.377143	-3.120467	-0.209932	-0.406630	0.190652	-0.475317	0.488086	0.637041	0.360590
59350	9.379862	-0.408194	-3.285740	-0.211298	-0.557381	0.116513	-0.472579	0.490687	0.636762	0.361151
59351	9.354386	-0.458079	-3.428057	-0.244766	-0.666732	0.135243	-0.470019	0.492862	0.636744	0.361560
59352	9.480002	-0.381113	-3.559126	-0.170557	-0.693476	0.295374	-0.467765	0.494597	0.636891	0.361856
59353	9.405703	-0.511831	-3.579211	-0.308532	-0.732341	0.232627	-0.465941	0.495867	0.637166	0.361987
59354	9.401092	-0.740027	-3.471589	-0.571394	-0.662016	0.198070	-0.464653	0.496695	0.637605	0.361735
59355	9.326993	-0.789275	-3.431713	-0.631772	-0.634869	0.116571	-0.464054	0.496969	0.638201	0.361076
59356	9.251075	-0.631527	-3.399088	-0.483796	-0.569752	0.034968	-0.463945	0.496676	0.639030	0.360150
59357	9.130091	-0.418800	-3.349167	-0.282225	-0.493577	-0.095301	-0.464124	0.495876	0.640071	0.359173
59358	8.931094	-0.331824	-3.290708	-0.200249	-0.467583	-0.302453	-0.464349	0.494811	0.641289	0.358179
59359	9.227153	-0.231795	-3.282650	-0.134040	-0.337548	-0.023001	-0.464517	0.493662	0.642629	0.357140
59360	9.488642	-0.150611	-3.301686	-0.078001	-0.248094	0.231739	-0.464837	0.492442	0.643854	0.356201
59361	9.457499	-0.039402	-3.216597	0.005411	-0.145362	0.175865	-0.465239	0.491328	0.644844	0.355423
59362	9.331064	0.026396	-3.201979	0.072382	-0.149871	0.051107	-0.465626	0.490381	0.645629	0.354798
59363	9.305388	0.110931	-3.194968	0.150867	-0.127182	0.024560	-0.465864	0.489610	0.646267	0.354388
59364	9.289979	0.025023	-3.285487	0.088736	-0.236660	0.037941	-0.465940	0.489020	0.646842	0.354056
59365	9.059687	0.052335	-3.188968	0.103953	-0.205587	-0.210755	-0.465833	0.488577	0.647432	0.353729
59366	9.033881	0.174637	-3.132443	0.199742	-0.119776	-0.252383	-0.465341	0.488270	0.648175	0.353439
59367	9.413878	0.147734	-3.193635	0.143130	-0.057862	0.128055	-0.464660	0.488106	0.648899	0.353232
59368	9.471190	0.116787	-3.265295	0.113506	-0.103201	0.205080	-0.464042	0.488047	0.649421	0.353168
59369	9.348337	0.267606	-3.250826	0.253984	-0.075637	0.084820	-0.463439	0.488118	0.649779	0.353202
59370	9.321514	0.533757	-3.233779	0.496343	0.013931	0.055762	-0.462653	0.488475	0.649914	0.353493
59371	9.474585	0.524493	-3.254327	0.467151	0.044286	0.207956	-0.461748	0.489165	0.649660	0.354186
59372	9.462703	0.414701	-3.288242	0.362681	-0.019620	0.207060	-0.460919	0.490204	0.648927	0.355174
59373	9.367994	0.379086	-3.290239	0.334074	-0.064195	0.117718	-0.460256	0.491488	0.647761	0.356385
59374	9.068779	0.532233	-3.225282	0.493828	-0.061719	-0.185602	-0.459513	0.493208	0.646251	0.357706
59375	9.353805	0.518553	-3.216188	0.457740	0.021772	0.081574	-0.458694	0.495302	0.644401	0.359198
59376	9.205075	0.624867	-3.130114	0.562244	0.071722	-0.086425	-0.457970	0.497722	0.642059	0.360965
59377	9.385946	0.710112	-3.145226	0.647536	0.117346	0.089816	-0.457192	0.500535	0.639260	0.363023
59378	9.405277	1.167157	-3.128261	1.105174	0.223275	0.103769	-0.456415	0.503810	0.635777	0.365580
59379	9.653926	1.543894	-3.181380	1.488968	0.297431	0.355762	-0.455281	0.507848	0.631486	0.368829
59380	9.992227	1.817378	-3.270281	1.780989	0.320629	0.702398	-0.453917	0.512807	0.625993	0.372990
59381	9.840366	2.142699	-3.223853	2.138444	0.306233	0.538624	-0.452263	0.518916	0.619021	0.378150
59382	9.757982	2.441477	-3.224774	2.482043	0.232487	0.451927	-0.449918	0.526460	0.610445	0.384410
59383	9.816826	2.017847	-3.330978	2.125599	-0.035723	0.532178	-0.446917	0.535457	0.600074	0.391743
59384	9.722493	1.352917	-3.429434	1.528737	-0.361869	0.465876	-0.443630	0.545372	0.588125	0.399839
59385	9.538740	0.781676	-3.453016	1.010627	-0.605640	0.293372	-0.440241	0.555768	0.574935	0.408362
59386	9.423748	0.216546	-3.511376	0.492651	-0.834135	0.199510	-0.436939	0.566136	0.560860	0.417146
59387	9.277814	-0.509836	-3.486835	-0.197155	-0.958019	0.063462	-0.433852	0.576081	0.546387	0.425868
59388	8.959456	-0.861751	-3.416735	-0.524962	-1.047492	-0.256794	-0.431078	0.585161	0.532097	0.434316
59389	8.596838	-1.163543	-3.290008	-0.813269	-1.065594	-0.631928	-0.428122	0.593445	0.518579	0.442278
59390	8.486464	-1.858151	-3.169376	-1.481475	-0.956437	-0.734798	-0.425119	0.600827	0.506297	0.449382
59391	8.257246	-2.106668	-2.964302	-1.704538	-0.800285	-0.988783	-0.422284	0.607232	0.495606	0.455324
59392	8.460074	-2.008438	-2.757199	-1.541437	-0.581864	-0.840832	-0.419344	0.612733	0.486761	0.460188
59393	9.171083	-1.968414	-2.708723	-1.403542	-0.402822	-0.159275	-0.416586	0.617318	0.479413	0.464261
59394	9.552759	-1.985261	-2.661120	-1.354779	-0.288657	0.205259	-0.414407	0.620803	0.473200	0.467922
59395	9.576121	-1.580013	-2.596261	-0.934393	-0.326026	0.185295	-0.412835	0.623323	0.467943	0.471237
59396	9.565514	-1.310603	-2.460632	-0.641466	-0.287146	0.125995	-0.411647	0.625225	0.463368	0.474269
59397	9.609288	-1.311474	-2.389121	-0.618228	-0.246215	0.153422	-0.410935	0.626659	0.459242	0.477000
59398	9.396969	-1.359160	-2.311746	-0.667462	-0.237672	-0.066284	-0.410772	0.627701	0.455522	0.479330
59399	9.232420	-1.489351	-2.232928	-0.786692	-0.197382	-0.232304	-0.411032	0.628431	0.452435	0.481072
59400	9.172507	-1.486848	-2.137209	-0.758734	-0.151981	-0.309300	-0.411671	0.628738	0.450125	0.482289
59401	9.186570	-1.346392	-2.059034	-0.593445	-0.142040	-0.322006	-0.412464	0.628696	0.448618	0.483071
59402	9.567524	-1.244281	-2.132202	-0.456217	-0.204867	0.055538	-0.413319	0.628351	0.447699	0.483641
59403	9.480262	-1.134138	-2.081588	-0.347786	-0.225215	-0.049342	-0.414273	0.627651	0.447188	0.484205
59404	9.489586	-0.990874	-2.088764	-0.213340	-0.292872	-0.052274	-0.415177	0.626767	0.446998	0.484752
59405	9.512759	-1.037149	-2.036462	-0.247693	-0.252443	-0.035658	-0.416162	0.625839	0.446919	0.485179
59406	9.579175	-1.064012	-2.008431	-0.260551	-0.234242	0.026199	-0.417405	0.624907	0.446831	0.485393
59407	9.840079	-1.035039	-1.976534	-0.189335	-0.201450	0.273374	-0.418985	0.623879	0.446645	0.485525
59408	9.682132	-1.068696	-1.894339	-0.218818	-0.171970	0.106826	-0.420813	0.622674	0.446387	0.485729
59409	9.519451	-1.141927	-1.836670	-0.293442	-0.160086	-0.056385	-0.422743	0.621329	0.446195	0.485951
59410	9.643342	-1.256147	-1.807369	-0.378470	-0.127297	0.070579	-0.424769	0.619858	0.446123	0.486129
59411	9.419858	-1.217888	-1.723615	-0.349498	-0.127014	-0.166476	-0.426959	0.618214	0.446148	0.486282
59412	9.349787	-1.266331	-1.608955	-0.380397	-0.053416	-0.249049	-0.428966	0.616541	0.446487	0.486328
59413	9.488267	-1.111154	-1.504603	-0.193166	-0.004168	-0.143753	-0.430815	0.614860	0.447051	0.486305
59414	9.541933	-0.980857	-1.435243	-0.050924	0.012116	-0.113837	-0.432355	0.613316	0.447700	0.486290
59415	9.624993	-1.018114	-1.431620	-0.082917	0.010334	-0.029050	-0.433678	0.611905	0.448333	0.486305
59416	9.615659	-0.977833	-1.425658	-0.051167	-0.015161	-0.043006	-0.434874	0.610591	0.448908	0.486359
59417	9.600913	-1.030247	-1.416451	-0.109746	-0.015588	-0.053950	-0.435884	0.609404	0.449506	0.486390
59418	9.691721	-1.028663	-1.379662	-0.097289	0.014623	0.030146	-0.436813	0.608324	0.450099	0.486361
59419	9.677668	-0.992364	-1.429641	-0.080571	-0.056939	0.019717	-0.437618	0.607308	0.450688	0.486362
59420	9.733924	-0.966161	-1.458322	-0.062115	-0.095984	0.076517	-0.438290	0.606334	0.451269	0.486432
59421	9.719922	-0.945360	-1.498294	-0.060443	-0.153322	0.065991	-0.438990	0.605312	0.451802	0.486580
59422	9.519315	-0.770124	-1.453787	0.085246	-0.180469	-0.154319	-0.439573	0.604332	0.452371	0.486743
59423	9.424272	-0.656180	-1.430884	0.179535	-0.200844	-0.261650	-0.440003	0.603499	0.452937	0.486861
59424	9.514437	-0.534217	-1.435564	0.298050	-0.224222	-0.182961	-0.440128	0.602906	0.453465	0.486991
59425	9.724422	-0.628083	-1.492104	0.209851	-0.239058	0.040436	-0.440078	0.602507	0.453819	0.487201
59426	9.788568	-0.757718	-1.528441	0.074365	-0.244811	0.120130	-0.440078	0.602114	0.453993	0.487525
59427	9.733268	-0.761686	-1.537539	0.053931	-0.265579	0.066951	-0.440209	0.601656	0.454059	0.487911
59428	9.650494	-0.688176	-1.498748	0.115441	-0.260202	-0.026431	-0.440386	0.601164	0.454105	0.488314
59429	9.674737	-0.720908	-1.489462	0.079612	-0.251332	-0.000999	-0.440549	0.600682	0.454162	0.488708
59430	9.697319	-0.637663	-1.431829	0.166193	-0.218455	0.006650	-0.440771	0.600196	0.454171	0.489096
59431	9.717447	-0.668395	-1.435100	0.131035	-0.223976	0.029452	-0.441037	0.599726	0.454137	0.489465
59432	9.701978	-0.740042	-1.421254	0.057375	-0.210254	0.018309	-0.441451	0.599284	0.453970	0.489788
59433	9.649661	-0.764308	-1.365521	0.036882	-0.170745	-0.038526	-0.442058	0.598813	0.453778	0.489994
59434	9.633537	-0.859907	-1.338650	-0.051860	-0.142841	-0.049832	-0.442837	0.598306	0.453639	0.490037
59435	9.629586	-0.854090	-1.304239	-0.036538	-0.125291	-0.058592	-0.443730	0.597773	0.453633	0.489886
59436	9.540359	-0.700641	-1.254696	0.117397	-0.127706	-0.166263	-0.444590	0.597238	0.453735	0.489664
59437	9.541783	-0.734592	-1.269847	0.085607	-0.144935	-0.160257	-0.445245	0.596825	0.453944	0.489380
59438	9.695750	-0.817902	-1.361630	0.007931	-0.209257	0.010077	-0.445819	0.596451	0.454208	0.489068
59439	9.662554	-0.729437	-1.292564	0.105194	-0.165484	-0.038778	-0.446282	0.596090	0.454493	0.488820
59440	9.743505	-0.751395	-1.317506	0.088021	-0.181466	0.046097	-0.446626	0.595714	0.454753	0.488723
59441	9.784172	-0.841588	-1.316241	0.002881	-0.164246	0.094068	-0.446984	0.595339	0.454949	0.488669
59442	9.762761	-0.867903	-1.310020	-0.024266	-0.161686	0.074383	-0.447485	0.594953	0.455072	0.488567
59443	9.722576	-0.816912	-1.276711	0.028569	-0.149993	0.026139	-0.448034	0.594573	0.455133	0.488469
59444	9.683008	-0.873539	-1.254783	-0.025352	-0.130746	-0.010624	-0.448607	0.594182	0.455187	0.488369
59445	9.629668	-1.006140	-1.216333	-0.152601	-0.083751	-0.056050	-0.449256	0.593704	0.455314	0.488235
59446	9.586348	-1.245151	-1.207637	-0.388595	-0.046353	-0.078536	-0.450011	0.593096	0.455666	0.487949
59447	9.640458	-1.341663	-1.205867	-0.476468	-0.031927	-0.016537	-0.451017	0.592198	0.456380	0.487444
59448	9.564444	-1.263712	-1.155600	-0.401139	-0.011940	-0.104448	-0.452160	0.591048	0.457517	0.486715
59449	9.579038	-1.124161	-1.166688	-0.267921	-0.050314	-0.101429	-0.453312	0.589727	0.459062	0.485790
59450	9.583545	-1.060997	-1.151298	-0.208759	-0.046549	-0.104455	-0.454444	0.588325	0.460880	0.484709
59451	9.709305	-1.010482	-1.192171	-0.158802	-0.081314	0.019968	-0.455588	0.586856	0.462860	0.483529
59452	9.692862	-0.900880	-1.227563	-0.065292	-0.131981	-0.002062	-0.456746	0.585302	0.464903	0.482358
59453	9.779907	-0.784076	-1.197829	0.053504	-0.109154	0.070701	-0.457876	0.583691	0.466917	0.481292
59454	9.776813	-0.771541	-1.210997	0.053171	-0.123332	0.068093	-0.458957	0.582079	0.468827	0.480358
59455	9.697045	-0.999723	-1.217956	-0.190330	-0.109747	0.009088	-0.460239	0.580439	0.470614	0.479369
59456	9.565797	-0.904772	-1.249867	-0.119506	-0.170922	-0.125492	-0.461715	0.578700	0.472513	0.478181
59457	9.349590	-0.507020	-1.156700	0.257554	-0.149528	-0.382885	-0.462932	0.577075	0.474539	0.476959
59458	9.644595	-0.563936	-1.227295	0.212552	-0.177128	-0.077908	-0.463754	0.575649	0.476601	0.475828
59459	9.735844	-0.621104	-1.288263	0.147424	-0.213647	0.024216	-0.464461	0.574315	0.478505	0.474838
59460	9.801083	-0.900755	-1.347185	-0.140264	-0.230181	0.117812	-0.465224	0.572960	0.480275	0.473941
59461	9.701544	-1.170202	-1.334575	-0.424904	-0.200360	0.038695	-0.466302	0.571375	0.482110	0.472931
59462	9.527563	-0.781377	-1.249763	-0.056619	-0.172587	-0.173501	-0.467492	0.569568	0.484221	0.471777
59463	9.481892	-0.576762	-1.208755	0.133882	-0.150737	-0.238798	-0.468408	0.567840	0.486570	0.470533
59464	9.692234	-0.635865	-1.244038	0.075510	-0.148198	-0.021688	-0.469159	0.566167	0.489075	0.469202
59465	9.644996	-0.942456	-1.288011	-0.249934	-0.161259	-0.041063	-0.470049	0.564491	0.491660	0.467627
59466	9.597661	-1.496601	-1.331339	-0.817722	-0.160156	-0.043703	-0.471272	0.562621	0.494600	0.465544
59467	9.600657	-2.020347	-1.437930	-1.350286	-0.226850	0.008072	-0.473130	0.560222	0.498218	0.462686
59468	9.310556	-1.725848	-1.397355	-1.080984	-0.230567	-0.305010	-0.475600	0.556975	0.502885	0.459009
59469	9.289081	-0.920693	-1.246868	-0.289255	-0.097533	-0.400137	-0.477615	0.553207	0.508617	0.455142
59470	9.622771	-0.860469	-1.299484	-0.236204	-0.080399	-0.067723	-0.479300	0.549082	0.514876	0.451313
59471	9.675209	-1.158370	-1.478611	-0.566481	-0.218615	0.024431	-0.480966	0.544650	0.521464	0.447329
59472	9.713786	-1.258133	-1.617995	-0.697006	-0.325836	0.085106	-0.483028	0.539782	0.528329	0.442930
59473	9.453179	-0.417989	-1.585205	0.093115	-0.273228	-0.222763	-0.485219	0.534572	0.535361	0.438389
59474	9.375630	0.524015	-1.460251	0.981722	-0.067226	-0.360671	-0.486642	0.529653	0.542300	0.434232
59475	9.685336	0.834694	-1.432136	1.248852	0.087514	-0.066633	-0.487168	0.525433	0.548680	0.430741
59476	9.943497	0.655894	-1.505106	1.028591	0.100052	0.212290	-0.487176	0.521962	0.554111	0.427991
59477	9.921414	0.629637	-1.538032	0.954941	0.113304	0.200871	-0.487073	0.519188	0.558571	0.425678
59478	9.622275	1.492235	-1.370453	1.748881	0.367001	-0.143173	-0.486494	0.517477	0.561972	0.423945
59479	9.762799	2.223514	-1.214851	2.425133	0.668646	-0.045214	-0.484883	0.517419	0.563956	0.423225
59480	9.878984	2.822243	-1.219426	2.998944	0.785088	0.058295	-0.482147	0.519556	0.563927	0.423772
59481	9.692760	3.782481	-1.208387	3.948282	0.873905	-0.150167	-0.478036	0.524293	0.561486	0.425830
59482	9.402296	5.246598	-1.119842	5.416405	1.000252	-0.493599	-0.471637	0.532678	0.555975	0.429772
59483	9.227963	4.646048	-1.597872	4.891275	0.362381	-0.580296	-0.462689	0.545451	0.546686	0.435358
59484	9.375567	2.725035	-2.366345	3.049384	-0.510606	-0.254094	-0.452172	0.561384	0.534123	0.441702
59485	8.702597	1.773983	-2.804253	2.108041	-1.101473	-0.807756	-0.440743	0.579305	0.519008	0.448086
59486	8.670984	0.513360	-3.324035	0.849177	-1.520692	-0.676778	-0.428120	0.598552	0.502349	0.453977
59487	9.208947	-1.462050	-3.917907	-1.097230	-1.633648	0.107851	-0.415388	0.617512	0.485061	0.459180
59488	9.295681	-2.325780	-4.108606	-1.921882	-1.464839	0.329148	-0.403576	0.634596	0.468362	0.463735
59489	9.078550	-2.475324	-3.925516	-2.007571	-1.118533	0.120721	-0.392175	0.649615	0.452948	0.468015
59490	9.288689	-3.223628	-3.859914	-2.625783	-0.621089	0.399401	-0.381397	0.662357	0.439245	0.472106
59491	9.335982	-4.126937	-3.831492	-3.411604	-0.108228	0.541950	-0.371812	0.672626	0.427665	0.475849
59492	9.512124	-4.407252	-3.881257	-3.611469	0.153505	0.765602	-0.364222	0.680284	0.418557	0.478921
59493	9.310746	-3.864721	-3.681895	-3.048190	0.207159	0.475519	-0.358594	0.685678	0.411892	0.481250
59494	9.313334	-2.884388	-3.345796	-2.012334	0.192538	0.295003	-0.354378	0.689399	0.407331	0.482934
59495	9.379744	-1.961967	-3.070786	-1.050794	0.114897	0.194369	-0.351093	0.692103	0.404079	0.484198
59496	9.468666	-1.290497	-3.033831	-0.407587	-0.089614	0.204845	-0.348499	0.694318	0.401373	0.485150
59497	9.544341	-0.883798	-3.004826	-0.008007	-0.205788	0.230324	-0.346350	0.696408	0.398751	0.485854
59498	9.734620	-1.166828	-3.115725	-0.252529	-0.128077	0.470885	-0.344763	0.698327	0.396063	0.486428
59499	9.683277	-1.254889	-3.146066	-0.336893	-0.126552	0.439570	-0.343985	0.699798	0.393439	0.486994
59500	9.211948	-1.030050	-3.027706	-0.175223	-0.234454	-0.065776	-0.343536	0.700823	0.391114	0.487708
59501	9.057451	-0.939834	-2.882564	-0.062826	-0.191966	-0.263391	-0.342683	0.701677	0.389231	0.488586
59502	9.304039	-1.414547	-3.024331	-0.489584	-0.050029	0.060026	-0.341632	0.702328	0.387768	0.489549
59503	9.476340	-1.766961	-3.073509	-0.790189	0.103811	0.273662	-0.340940	0.702592	0.386771	0.490441
59504	9.268533	-1.778231	-3.035125	-0.838894	0.094498	0.064919	-0.340762	0.702359	0.386397	0.491193
59505	8.987932	-1.753870	-2.956513	-0.855772	0.087269	-0.228326	-0.340994	0.701805	0.386819	0.491492
59506	9.192280	-1.671102	-2.988796	-0.760609	0.057897	-0.033034	-0.341690	0.701042	0.388002	0.491164
59507	9.360003	-1.618762	-3.043407	-0.704969	0.015989	0.136942	-0.343019	0.699970	0.389761	0.490374
59508	9.317144	-1.970431	-3.073372	-1.037434	0.131378	0.139390	-0.345140	0.698445	0.392160	0.489145
59509	9.225772	-3.057923	-3.201753	-2.072924	0.465092	0.197485	-0.348437	0.696200	0.395636	0.487206
59510	9.471044	-4.322380	-3.431740	-3.242918	0.813532	0.626738	-0.353653	0.692549	0.401137	0.484143
59511	9.143784	-4.283494	-3.543380	-3.330590	0.531822	0.342891	-0.360931	0.686537	0.409539	0.480285
59512	8.048419	-2.817425	-3.301363	-2.150741	-0.171041	-0.926838	-0.368748	0.678479	0.421146	0.475740
59513	8.258158	-1.850957	-3.171967	-1.202064	-0.425822	-0.865166	-0.376124	0.669473	0.435007	0.470219
59514	9.181463	-1.668753	-3.402531	-0.967753	-0.518722	0.059266	-0.383557	0.659755	0.449713	0.464075
59515	9.793640	-2.241101	-3.726090	-1.530697	-0.545958	0.778828	-0.391870	0.649029	0.464618	0.457526
59516	9.411044	-1.842263	-3.868955	-1.254388	-0.940287	0.408486	-0.401605	0.636977	0.479645	0.450460
59517	9.056662	-0.034094	-3.527603	0.524243	-1.120695	-0.172279	-0.411205	0.624516	0.494650	0.442958
59518	9.577351	0.417371	-3.419460	1.044230	-0.945653	0.267383	-0.420169	0.612035	0.508859	0.435815
59519	9.857737	-0.142461	-3.495623	0.497054	-0.872550	0.599142	-0.428888	0.599361	0.521924	0.429438
59520	8.933828	0.332057	-3.400848	0.885448	-1.067028	-0.348718	-0.437884	0.586500	0.533871	0.423388
59521	7.612746	2.407345	-2.607431	2.872000	-0.678723	-1.948961	-0.444777	0.575106	0.545126	0.417450
59522	8.720998	2.352857	-2.349452	2.845786	-0.058817	-0.924005	-0.448825	0.566179	0.555157	0.412067
59523	9.787598	1.642310	-2.485731	2.137676	0.147288	0.191367	-0.451728	0.559030	0.563364	0.407490
59524	10.299481	0.854583	-2.657036	1.332328	0.130154	0.773964	-0.454355	0.553018	0.569830	0.403766
59525	10.438604	0.303487	-2.840237	0.769874	-0.029343	0.982215	-0.457558	0.547512	0.574645	0.400817
59526	9.389922	0.993237	-2.637838	1.408182	-0.048886	-0.110627	-0.461124	0.542757	0.578050	0.398294
59527	9.295829	1.040586	-2.544933	1.444195	0.019108	-0.226975	-0.463719	0.539255	0.580682	0.396204
59528	9.822635	0.778177	-2.610512	1.199626	0.057698	0.309667	-0.465826	0.536667	0.582384	0.394744
59529	9.789625	0.006644	-2.601257	0.439256	-0.046161	0.307007	-0.467867	0.534625	0.583250	0.393821
59530	9.592499	-0.249428	-2.579239	0.193843	-0.131515	0.120879	-0.470192	0.532717	0.583599	0.393122
59531	9.068029	0.339416	-2.460105	0.769513	-0.100458	-0.442835	-0.472212	0.530960	0.583741	0.392866
59532	9.022650	0.437344	-2.355532	0.856512	-0.022236	-0.516781	-0.473250	0.529730	0.583906	0.393032
59533	9.418048	0.105700	-2.391774	0.534166	-0.024866	-0.109832	-0.473700	0.528985	0.583876	0.393539
59534	9.733677	-0.475246	-2.486022	-0.029059	-0.136717	0.243707	-0.474128	0.528426	0.583625	0.394146
59535	9.753020	-0.818051	-2.510642	-0.364747	-0.223317	0.282409	-0.474935	0.527782	0.583258	0.394579
59536	9.541239	-0.836366	-2.487403	-0.381594	-0.275942	0.071649	-0.476044	0.527071	0.582931	0.394677
59537	9.416968	-0.787969	-2.381542	-0.339135	-0.217132	-0.075659	-0.477310	0.526255	0.582810	0.394415
59538	9.418502	-0.592024	-2.313974	-0.142961	-0.141652	-0.098131	-0.478596	0.525339	0.582924	0.393909
59539	9.573546	-0.454441	-2.311705	0.005236	-0.098911	0.045986	-0.479789	0.524374	0.583152	0.393406
59540	9.521588	-0.600043	-2.373946	-0.121614	-0.205469	0.015806	-0.480892	0.523331	0.583504	0.392925
59541	9.507419	-0.890998	-2.440173	-0.391616	-0.328678	0.029971	-0.482100	0.522134	0.584052	0.392223
59542	9.237157	-1.079713	-2.486291	-0.563695	-0.474199	-0.214258	-0.483552	0.520714	0.584943	0.390992
59543	9.274695	-0.640475	-2.473430	-0.120734	-0.390034	-0.201168	-0.485021	0.519059	0.586340	0.389279
59544	9.599375	-0.174254	-2.419995	0.339418	-0.188990	0.080938	-0.486301	0.517181	0.587995	0.387682
59545	9.564463	0.039231	-2.379999	0.542038	-0.122313	0.027847	-0.487507	0.515220	0.589511	0.386474
59546	9.822114	0.018091	-2.452307	0.531807	-0.141139	0.295988	-0.488494	0.513373	0.590853	0.385635
59547	9.624608	-0.153155	-2.402045	0.347204	-0.176946	0.100661	-0.489526	0.511595	0.591876	0.385120
59548	9.640372	-0.365565	-2.399731	0.133057	-0.224236	0.125175	-0.490555	0.509853	0.592784	0.384723
59549	9.382443	-0.398115	-2.317272	0.082112	-0.223938	-0.143067	-0.491732	0.508241	0.593513	0.384232
59550	9.299324	-0.315535	-2.295838	0.159143	-0.217992	-0.232760	-0.492748	0.506794	0.594350	0.383547
59551	9.440369	-0.118024	-2.246383	0.340719	-0.108687	-0.114604	-0.493504	0.505408	0.595251	0.383004
59552	9.511070	-0.225575	-2.269356	0.234847	-0.144210	-0.035911	-0.494147	0.504107	0.596036	0.382669
59553	9.586947	-0.377580	-2.285442	0.083105	-0.183550	0.048081	-0.494744	0.502872	0.596700	0.382487
59554	9.616900	-0.564027	-2.352764	-0.090061	-0.292899	0.099147	-0.495543	0.501560	0.597225	0.382357
59555	9.395042	-0.748806	-2.358346	-0.269991	-0.400879	-0.109302	-0.496523	0.500214	0.597685	0.382131
59556	9.379438	-0.793475	-2.358765	-0.312175	-0.430842	-0.123305	-0.497616	0.498766	0.598267	0.381691
59557	9.352705	-0.561264	-2.304595	-0.096098	-0.349258	-0.170694	-0.498638	0.497281	0.598997	0.381149
59558	9.706057	-0.582582	-2.288693	-0.124189	-0.278298	0.171909	-0.499559	0.495754	0.599739	0.380764
59559	9.850089	-0.726008	-2.256620	-0.273691	-0.267965	0.311389	-0.500735	0.494151	0.600248	0.380502
59560	9.714533	-0.928891	-2.186601	-0.484540	-0.300914	0.171841	-0.502170	0.492370	0.600606	0.380355
59561	9.583481	-1.091699	-2.134471	-0.651412	-0.347177	0.038501	-0.503779	0.490300	0.601040	0.380215
59562	9.480572	-1.212232	-2.081784	-0.778945	-0.380668	-0.069340	-0.505471	0.487922	0.601721	0.379951
59563	9.242564	-1.186309	-1.938994	-0.787236	-0.319126	-0.332690	-0.507137	0.485309	0.602769	0.379417
59564	9.439343	-1.169683	-1.925727	-0.782692	-0.293112	-0.144223	-0.508630	0.482497	0.604277	0.378606
59565	9.434859	-1.137663	-1.854879	-0.780671	-0.244666	-0.164783	-0.510063	0.479391	0.606115	0.377683
59566	9.315126	-1.033657	-1.804687	-0.710226	-0.216559	-0.297147	-0.511141	0.476008	0.608411	0.376812
59567	9.283150	-1.000266	-1.763263	-0.717869	-0.194562	-0.339927	-0.511877	0.472389	0.611140	0.375950
59568	9.410599	-0.703061	-1.754483	-0.475489	-0.095243	-0.226417	-0.512387	0.468712	0.614163	0.374930
59569	9.280972	-0.182492	-1.743014	-0.016842	0.033819	-0.367780	-0.512539	0.465334	0.617246	0.373866
59570	9.573456	-0.042262	-1.819564	0.084389	0.061058	-0.068322	-0.512350	0.462430	0.620216	0.372812
59571	9.549377	-0.043489	-1.821763	0.043288	0.062516	-0.091299	-0.512087	0.459926	0.622888	0.371814
59572	9.421031	0.032851	-1.772730	0.068919	0.118333	-0.227251	-0.511648	0.457721	0.625440	0.370855
59573	9.581547	0.308807	-1.735210	0.272197	0.283548	-0.078329	-0.511013	0.455826	0.627870	0.369957
59574	9.431891	0.467971	-1.675226	0.376196	0.378261	-0.236612	-0.510268	0.454291	0.630026	0.369207
59575	9.430780	0.534226	-1.767732	0.432571	0.333855	-0.218357	-0.509230	0.453206	0.632093	0.368439
59576	9.494246	0.602209	-1.910003	0.504344	0.262270	-0.126193	-0.508032	0.452585	0.633960	0.367648
59577	9.559097	0.578358	-1.983563	0.472945	0.231100	-0.047027	-0.506776	0.452521	0.635592	0.366640
59578	9.737002	0.746865	-2.066580	0.625320	0.280923	0.145610	-0.505595	0.452876	0.636874	0.365606
59579	9.778525	0.679017	-2.186416	0.583274	0.191795	0.211480	-0.504551	0.453524	0.637736	0.364743
59580	9.961614	0.488967	-2.358776	0.437245	0.039268	0.426642	-0.503677	0.454310	0.638258	0.364059
59581	10.092108	0.271386	-2.477472	0.258644	-0.089230	0.579005	-0.503230	0.455056	0.638419	0.363462
59582	9.745668	0.264133	-2.425952	0.270536	-0.100364	0.229711	-0.503289	0.455732	0.638207	0.362905
59583	9.307366	0.278933	-2.333803	0.302443	-0.092448	-0.218342	-0.503442	0.456453	0.637866	0.362386
59584	9.319416	0.146756	-2.261765	0.166833	-0.055753	-0.223231	-0.503423	0.457190	0.637650	0.361864
59585	9.575244	0.216414	-2.240223	0.216930	0.052744	0.020973	-0.503299	0.457837	0.637494	0.361493
59586	9.761046	0.205415	-2.261494	0.206649	0.078325	0.206580	-0.503116	0.458465	0.637233	0.361411
59587	9.694652	-0.095351	-2.183497	-0.090630	0.043567	0.124762	-0.503103	0.459095	0.636766	0.361454
59588	9.350793	-0.468313	-2.062284	-0.448347	-0.034573	-0.236287	-0.503175	0.459649	0.636447	0.361212
59589	9.153977	-0.225057	-2.089277	-0.186610	-0.013818	-0.422481	-0.503162	0.460121	0.636548	0.360448
59590	9.140916	-0.119682	-2.087225	-0.081428	0.040230	-0.436182	-0.502618	0.460747	0.637154	0.359336
59591	9.442847	-0.127121	-2.156321	-0.087859	0.073573	-0.126616	-0.501782	0.461415	0.638110	0.357946
59592	9.509256	-0.039837	-2.238712	0.013514	0.080215	-0.043726	-0.500881	0.462146	0.639126	0.356451
59593	9.524019	-0.022917	-2.364320	0.065180	0.015997	0.000203	-0.499897	0.462925	0.640194	0.354901
59594	9.549466	0.000228	-2.465853	0.114938	-0.019440	0.049309	-0.498895	0.463837	0.641183	0.353331
59595	9.671189	-0.015208	-2.584046	0.129367	-0.059983	0.196755	-0.498017	0.464829	0.641968	0.351839
59596	9.447892	-0.194124	-2.673886	0.008096	-0.212867	0.005892	-0.497282	0.465910	0.642548	0.350387
59597	9.416477	-0.447546	-2.796888	-0.183802	-0.376017	0.011650	-0.496640	0.466926	0.643131	0.348872
59598	9.492784	-0.509114	-2.908143	-0.204686	-0.441179	0.116702	-0.496140	0.467714	0.643761	0.347363
59599	9.597371	-0.552932	-2.999857	-0.216037	-0.479878	0.244020	-0.495905	0.468221	0.644345	0.345929
59600	9.632004	-0.458459	-3.039315	-0.107036	-0.450612	0.287241	-0.495946	0.468477	0.644791	0.344690
59601	9.730983	-0.410078	-3.086811	-0.041051	-0.435823	0.395003	-0.496302	0.468536	0.645016	0.343675
59602	9.667083	-0.308450	-3.006840	0.047840	-0.340082	0.310097	-0.497009	0.468405	0.644924	0.343005
59603	9.414832	-0.288179	-2.881952	0.058518	-0.289662	0.033144	-0.497886	0.468134	0.644591	0.342729
59604	9.027240	-0.410390	-2.778586	-0.051915	-0.344981	-0.365027	-0.498649	0.467853	0.644309	0.342532
59605	9.027385	-0.554932	-2.712682	-0.199879	-0.337821	-0.378378	-0.499057	0.467697	0.644311	0.342148
59606	9.154187	-0.593141	-2.699375	-0.241917	-0.302743	-0.258243	-0.499215	0.467622	0.644579	0.341515
59607	9.227887	-0.467367	-2.700331	-0.124414	-0.232535	-0.190081	-0.499142	0.467605	0.645061	0.340734
59608	9.311662	-0.406372	-2.709500	-0.069022	-0.183907	-0.108308	-0.498845	0.467712	0.645607	0.339988
59609	9.237106	-0.380298	-2.717784	-0.040164	-0.184350	-0.178401	-0.498335	0.467897	0.646217	0.339321
59610	9.443997	-0.370301	-2.829268	-0.013490	-0.208928	0.050735	-0.497653	0.468148	0.646822	0.338822
59611	9.451490	-0.336083	-2.881042	0.026763	-0.224880	0.071274	-0.496987	0.468392	0.647311	0.338529
59612	9.495714	-0.191700	-2.964119	0.177777	-0.225624	0.132604	-0.496282	0.468695	0.647660	0.338475
59613	9.512671	-0.138115	-2.882506	0.190080	-0.119158	0.125546	-0.495595	0.469065	0.647801	0.338701
59614	9.606760	-0.230690	-2.942701	0.107965	-0.174467	0.235221	-0.495080	0.469475	0.647668	0.339141
59615	9.597063	-0.404266	-2.955007	-0.055173	-0.245279	0.233999	-0.494797	0.469935	0.647328	0.339565
59616	9.390172	-0.438357	-2.872278	-0.099641	-0.238581	0.013330	-0.494770	0.470334	0.646893	0.339880
59617	9.288698	-0.346212	-2.827941	-0.018216	-0.197913	-0.098907	-0.494734	0.470577	0.646585	0.340182
59618	9.420139	-0.204098	-2.814411	0.102795	-0.106539	0.019894	-0.494605	0.470776	0.646368	0.340506
59619	9.476078	-0.108803	-2.748483	0.166561	-0.003720	0.053127	-0.494477	0.471011	0.646079	0.340914
59620	9.518908	-0.155301	-2.768097	0.126492	-0.030094	0.100899	-0.494438	0.471324	0.645638	0.341374
59621	9.531753	-0.175262	-2.761691	0.108400	-0.033420	0.111983	-0.494520	0.471748	0.645035	0.341809
59622	9.452290	-0.280866	-2.717113	0.006485	-0.055022	0.026230	-0.494691	0.472241	0.644327	0.342218
59623	9.249596	-0.416176	-2.670622	-0.114127	-0.116369	-0.177654	-0.494943	0.472739	0.643623	0.342489
59624	9.224203	-0.346378	-2.588664	-0.062597	-0.029521	-0.226120	-0.495124	0.473211	0.643094	0.342569
59625	9.318130	-0.321724	-2.624114	-0.024514	-0.029883	-0.126846	-0.495267	0.473638	0.642664	0.342579
59626	9.227401	-0.264507	-2.612595	0.038857	-0.023824	-0.219020	-0.495288	0.474069	0.642358	0.342527
59627	9.332869	-0.241982	-2.659340	0.074027	-0.026915	-0.105634	-0.495124	0.474560	0.642175	0.342428
59628	9.586538	-0.238109	-2.693433	0.078041	0.017220	0.147563	-0.494921	0.475134	0.641956	0.342335
59629	9.801868	-0.331080	-2.746953	0.000134	0.001011	0.372202	-0.494882	0.475660	0.641578	0.342370
59630	9.627177	-0.301513	-2.718043	0.037040	-0.009360	0.195296	-0.495040	0.476158	0.641028	0.342479
59631	9.432139	-0.248627	-2.716126	0.107566	-0.044793	0.005195	-0.495223	0.476719	0.640398	0.342613
59632	9.403019	-0.348954	-2.755565	0.037298	-0.121946	-0.008841	-0.495350	0.477395	0.639708	0.342777
59633	9.494051	-0.534754	-2.798445	-0.118388	-0.196955	0.096977	-0.495556	0.478072	0.638956	0.342938
59634	9.388412	-0.684245	-2.784528	-0.245737	-0.262793	-0.002764	-0.495958	0.478594	0.638180	0.343075
59635	9.316553	-0.752069	-2.790418	-0.291057	-0.314156	-0.067597	-0.496435	0.478889	0.637554	0.343138
59636	9.270980	-0.766904	-2.772432	-0.296482	-0.320949	-0.115540	-0.496954	0.478935	0.637132	0.343106
59637	9.291508	-0.632764	-2.708781	-0.180236	-0.222759	-0.117952	-0.497455	0.478764	0.636900	0.343048
59638	9.356877	-0.623643	-2.718089	-0.165093	-0.218569	-0.052921	-0.497911	0.478454	0.636801	0.343002
59639	9.474209	-0.558416	-2.683383	-0.115086	-0.143779	0.048300	-0.498357	0.478018	0.636787	0.342990
59640	9.363177	-0.470352	-2.658703	-0.031477	-0.131640	-0.068937	-0.498794	0.477584	0.636743	0.343040
59641	9.415213	-0.440815	-2.632527	-0.012627	-0.093175	-0.026886	-0.499073	0.477209	0.636758	0.343128
59642	9.470043	-0.348764	-2.608205	0.065347	-0.035634	0.015870	-0.499378	0.476910	0.636662	0.343278
59643	9.322733	-0.364881	-2.589709	0.051867	-0.070003	-0.130462	-0.499595	0.476724	0.636502	0.343518
59644	9.341907	-0.389145	-2.601733	0.031913	-0.090517	-0.107923	-0.499695	0.476619	0.636369	0.343765
59645	9.376923	-0.476117	-2.606619	-0.051138	-0.118506	-0.069424	-0.499741	0.476581	0.636234	0.343999
59646	9.489183	-0.516966	-2.661958	-0.077166	-0.157809	0.054785	-0.499869	0.476545	0.636063	0.344179
59647	9.399741	-0.669035	-2.638926	-0.222591	-0.212662	-0.031486	-0.500094	0.476465	0.635880	0.344301
59648	9.245095	-0.919813	-2.658591	-0.444667	-0.354034	-0.165778	-0.500382	0.476239	0.635847	0.344258
59649	9.426112	-1.164375	-2.708903	-0.664746	-0.435758	0.031790	-0.500881	0.475762	0.635973	0.343958
59650	9.910154	-0.953336	-2.654172	-0.498962	-0.205531	0.476794	-0.501636	0.474779	0.636231	0.343738
59651	10.370101	-0.169103	-2.487665	0.168097	0.283829	0.847852	-0.502662	0.473052	0.636155	0.344760
59652	9.714948	-0.127942	-2.478904	0.220171	0.088938	0.211525	-0.503628	0.471001	0.635684	0.347021
59653	8.989981	-0.075204	-2.404340	0.259153	-0.061638	-0.510269	-0.504112	0.469234	0.635139	0.349699
59654	8.507893	-0.083188	-2.296185	0.216305	-0.125133	-1.003543	-0.503848	0.468224	0.634828	0.351990
59655	8.949076	-0.097804	-2.336331	0.165240	-0.088653	-0.565054	-0.502922	0.467896	0.634827	0.353749
59656	9.264497	-0.056974	-2.415665	0.184661	-0.086123	-0.240435	-0.501822	0.467987	0.634879	0.355093
59657	9.371107	-0.052050	-2.465715	0.174718	-0.107796	-0.124658	-0.500637	0.468335	0.634983	0.356121
59658	9.395215	-0.076923	-2.543572	0.152095	-0.176964	-0.081744	-0.499441	0.468806	0.635172	0.356843
59659	9.450162	-0.061049	-2.617719	0.167351	-0.218604	-0.010346	-0.498305	0.469306	0.635405	0.357358
59660	9.450932	-0.069713	-2.646655	0.150294	-0.236362	-0.001915	-0.497196	0.469793	0.635716	0.357709
59661	9.436453	-0.051895	-2.694125	0.165864	-0.264709	-0.004016	-0.496090	0.470315	0.636048	0.357968
59662	9.513996	-0.233315	-2.733841	-0.016664	-0.324073	0.083731	-0.494988	0.470740	0.636463	0.358197
59663	9.563484	-0.139938	-2.714207	0.045694	-0.252481	0.126169	-0.493972	0.471043	0.636874	0.358471
59664	9.604736	-0.173078	-2.704729	-0.009090	-0.233672	0.164374	-0.493031	0.471258	0.637225	0.358860
59665	9.558262	-0.176076	-2.690509	-0.029824	-0.226533	0.115957	-0.492274	0.471360	0.637465	0.359340
59666	9.508654	-0.241892	-2.721113	-0.095019	-0.283987	0.076083	-0.491659	0.471396	0.637647	0.359810
59667	9.436906	-0.191701	-2.685322	-0.065084	-0.252621	-0.002752	-0.491211	0.471366	0.637780	0.360225
59668	9.417179	-0.109167	-2.664710	-0.002095	-0.213585	-0.027483	-0.490753	0.471332	0.637943	0.360605
59669	9.507701	-0.115643	-2.672970	-0.022770	-0.201504	0.062200	-0.490388	0.471276	0.638063	0.360965
59670	9.427349	-0.109807	-2.669463	-0.021117	-0.217056	-0.016492	-0.490102	0.471208	0.638151	0.361285
59671	9.509404	-0.125686	-2.652614	-0.054276	-0.188368	0.058609	-0.489930	0.471089	0.638216	0.361557
59672	9.491514	-0.168696	-2.664003	-0.095917	-0.218799	0.044144	-0.489870	0.470924	0.638278	0.361744
59673	9.455498	-0.189111	-2.655982	-0.118456	-0.228801	0.007193	-0.489898	0.470712	0.638383	0.361797
59674	9.405215	-0.159558	-2.638097	-0.093275	-0.217302	-0.046052	-0.490006	0.470485	0.638515	0.361713
59675	9.458106	-0.140655	-2.600322	-0.090123	-0.164892	-0.004430	-0.490193	0.470211	0.638694	0.361500
59676	9.490788	-0.107699	-2.623451	-0.053979	-0.168909	0.033008	-0.490379	0.469883	0.638922	0.361271
59677	9.432312	-0.058600	-2.640894	0.002023	-0.185070	-0.019220	-0.490555	0.469521	0.639154	0.361093
59678	9.416211	-0.019402	-2.625964	0.034535	-0.164168	-0.038591	-0.490633	0.469182	0.639414	0.360966
59679	9.422054	0.020297	-2.555601	0.048321	-0.086302	-0.050678	-0.490643	0.468924	0.639624	0.360916
59680	9.543591	0.027029	-2.581012	0.050249	-0.078695	0.073352	-0.490621	0.468808	0.639733	0.360904
59681	9.441084	-0.016124	-2.522126	-0.001559	-0.062112	-0.040708	-0.490594	0.468815	0.639738	0.360923
59682	9.519007	-0.066988	-2.496298	-0.063447	-0.034554	0.028160	-0.490571	0.468906	0.639695	0.360912
59683	9.651903	-0.193363	-2.526558	-0.182636	-0.068384	0.164391	-0.490688	0.469009	0.639581	0.360821
59684	9.508593	-0.168447	-2.497293	-0.151820	-0.069544	0.018401	-0.490938	0.469012	0.639416	0.360771
59685	9.358594	-0.096573	-2.475190	-0.075111	-0.066281	-0.132339	-0.491095	0.468898	0.639366	0.360793
59686	9.490940	0.012326	-2.462708	0.014015	0.007637	-0.007445	-0.491064	0.468747	0.639446	0.360889
59687	9.422411	-0.003456	-2.457171	-0.001458	-0.011221	-0.075162	-0.491006	0.468532	0.639526	0.361106
59688	9.431875	-0.030042	-2.452069	-0.033920	-0.015194	-0.067308	-0.490928	0.468331	0.639656	0.361242
59689	9.503848	0.030437	-2.433510	0.009033	0.036104	-0.002252	-0.490925	0.468177	0.639762	0.361259
59690	9.482738	0.056489	-2.462800	0.041929	0.011144	-0.015289	-0.490904	0.468071	0.639833	0.361299
59691	9.278624	0.036456	-2.430006	0.026764	-0.012624	-0.221116	-0.490747	0.468101	0.639936	0.361290
59692	9.246681	0.054921	-2.442863	0.047224	-0.020987	-0.248743	-0.490376	0.468279	0.640175	0.361141
59693	9.403058	0.074694	-2.516109	0.069851	-0.034976	-0.078841	-0.489819	0.468546	0.640483	0.361003
59694	9.431012	0.048632	-2.553286	0.046899	-0.058320	-0.042323	-0.489202	0.468884	0.640786	0.360864
59695	9.393697	-0.004187	-2.654019	0.022370	-0.162923	-0.052650	-0.488553	0.469290	0.641075	0.360700
59696	9.475561	0.001744	-2.661457	0.017569	-0.133209	0.028630	-0.487888	0.469785	0.641348	0.360471
59697	9.493420	0.005038	-2.704768	0.026173	-0.152659	0.057308	-0.487244	0.470225	0.641617	0.360291
59698	9.445697	-0.082940	-2.725874	-0.054155	-0.196492	0.016702	-0.486590	0.470621	0.641901	0.360152
59699	9.472010	-0.061020	-2.759161	-0.032381	-0.201004	0.051095	-0.486011	0.470958	0.642170	0.360013
59700	9.330784	-0.026549	-2.730953	-0.002456	-0.187706	-0.092240	-0.485426	0.471293	0.642440	0.359883
59701	9.477823	0.010603	-2.758907	0.022586	-0.153013	0.057311	-0.484830	0.471657	0.642701	0.359741
59702	9.385892	-0.008014	-2.774264	0.011370	-0.183474	-0.027098	-0.484276	0.472058	0.642906	0.359596
59703	9.399580	-0.021739	-2.774912	-0.007932	-0.172540	-0.013562	-0.483698	0.472441	0.643132	0.359468
59704	9.475458	-0.008571	-2.761747	-0.011002	-0.125678	0.056238	-0.483141	0.472840	0.643288	0.359413
59705	9.533211	-0.004679	-2.785037	-0.010639	-0.121933	0.118253	-0.482655	0.473193	0.643358	0.359476
59706	9.470569	-0.005719	-2.778472	-0.012793	-0.125852	0.056234	-0.482253	0.473511	0.643355	0.359602
59707	9.494397	0.036127	-2.789149	0.025082	-0.112596	0.082308	-0.481936	0.473853	0.643264	0.359739
59708	9.469341	0.056059	-2.785409	0.044429	-0.106526	0.057305	-0.481724	0.474243	0.643061	0.359873
59709	9.532199	0.059670	-2.835258	0.058408	-0.133710	0.131345	-0.481616	0.474647	0.642744	0.360050
59710	9.450802	0.038932	-2.822874	0.046116	-0.149792	0.049525	-0.481620	0.475106	0.642305	0.360223
59711	9.463251	-0.022822	-2.794737	-0.016108	-0.140621	0.053627	-0.481671	0.475522	0.641838	0.360439
59712	9.332938	0.094409	-2.754947	0.101546	-0.106574	-0.082287	-0.481751	0.475941	0.641312	0.360714
59713	9.367014	0.084727	-2.747747	0.093532	-0.097833	-0.051544	-0.481777	0.476423	0.640760	0.361025
59714	9.292464	-0.054056	-2.757906	-0.024216	-0.169490	-0.120962	-0.481787	0.476979	0.640189	0.361289
59715	9.186520	-0.175901	-2.777024	-0.120524	-0.249385	-0.217989	-0.481738	0.477570	0.639755	0.361343
59716	9.152829	-0.208214	-2.724275	-0.157652	-0.214164	-0.264463	-0.481588	0.478105	0.639545	0.361207
59717	9.287092	-0.123032	-2.818560	-0.056737	-0.233954	-0.109516	-0.481352	0.478543	0.639547	0.360939
59718	9.495723	-0.044677	-2.850161	0.013885	-0.176454	0.100074	-0.481137	0.478974	0.639578	0.360597
59719	9.521275	-0.035414	-2.841599	0.021943	-0.149971	0.122484	-0.480993	0.479371	0.639527	0.360354
59720	9.523700	-0.003664	-2.823475	0.050262	-0.117315	0.119916	-0.480846	0.479728	0.639402	0.360296
59721	9.592696	-0.037279	-2.835602	0.018939	-0.117543	0.189696	-0.480811	0.480030	0.639154	0.360381
59722	9.481043	-0.076927	-2.802825	-0.015871	-0.129259	0.073412	-0.480885	0.480301	0.638780	0.360583
59723	9.387273	-0.092800	-2.781958	-0.025066	-0.142555	-0.022496	-0.480999	0.480569	0.638382	0.360778
59724	9.453225	-0.097764	-2.741784	-0.039652	-0.093512	0.030081	-0.481185	0.480838	0.637961	0.360918
59725	9.503049	-0.107376	-2.774510	-0.037050	-0.118485	0.086906	-0.481410	0.481032	0.637522	0.361135
59726	9.438455	-0.204521	-2.746008	-0.126636	-0.143189	0.017383	-0.481715	0.481191	0.637037	0.361372
59727	9.482880	-0.303833	-2.768628	-0.211603	-0.188986	0.066692	-0.482118	0.481234	0.636573	0.361594
59728	9.498816	-0.303405	-2.730685	-0.214877	-0.160345	0.071861	-0.482653	0.481099	0.636155	0.361797
59729	9.415839	-0.205208	-2.679885	-0.121540	-0.120709	-0.022256	-0.483260	0.480785	0.635767	0.362085
59730	9.360986	-0.185066	-2.624652	-0.108620	-0.092494	-0.089996	-0.483754	0.480424	0.635484	0.362402
59731	9.388548	-0.205305	-2.618425	-0.129789	-0.098785	-0.065046	-0.484144	0.480004	0.635319	0.362727
59732	9.397798	-0.151534	-2.588237	-0.087210	-0.065503	-0.064424	-0.484464	0.479590	0.635217	0.363025
59733	9.415644	-0.090356	-2.582150	-0.032169	-0.048750	-0.049154	-0.484745	0.479216	0.635143	0.363274
59734	9.400965	-0.072731	-2.585287	-0.014597	-0.059785	-0.062643	-0.484967	0.478866	0.635087	0.363536
59735	9.392336	-0.100646	-2.582721	-0.042863	-0.075485	-0.071588	-0.485157	0.478573	0.635056	0.363722
59736	9.321828	-0.163750	-2.627349	-0.087678	-0.158682	-0.127989	-0.485325	0.478259	0.635091	0.363850
59737	9.445426	-0.039534	-2.610123	0.017761	-0.080913	-0.013528	-0.485461	0.478120	0.635107	0.363824
59738	9.440272	-0.092125	-2.626241	-0.026583	-0.114402	-0.014189	-0.485639	0.477993	0.635085	0.363793
59739	9.458443	-0.021130	-2.630939	0.042709	-0.096983	0.004298	-0.485753	0.477887	0.635047	0.363846
59740	9.518362	-0.081750	-2.641432	-0.016096	-0.112919	0.065068	-0.485891	0.477783	0.634940	0.363986
59741	9.455977	-0.082778	-2.671748	-0.003137	-0.162094	0.012500	-0.486089	0.477681	0.634778	0.364136
59742	9.498173	-0.158677	-2.634681	-0.086925	-0.145010	0.043956	-0.486326	0.477557	0.634604	0.364285
59743	9.365226	-0.159621	-2.597482	-0.086862	-0.149936	-0.094158	-0.486551	0.477399	0.634469	0.364427
59744	9.455051	-0.093565	-2.581758	-0.033280	-0.100572	-0.011616	-0.486724	0.477187	0.634419	0.364560
59745	9.545096	-0.074364	-2.571926	-0.024352	-0.070270	0.072840	-0.486905	0.476916	0.634376	0.364748
59746	9.449190	-0.097943	-2.546841	-0.047627	-0.084229	-0.026277	-0.487132	0.476665	0.634294	0.364917
59747	9.459332	-0.080856	-2.531313	-0.035472	-0.069325	-0.020497	-0.487369	0.476453	0.634201	0.365038
59748	9.429387	-0.037932	-2.552704	0.014944	-0.090630	-0.044237	-0.487610	0.476248	0.634102	0.365156
59749	9.421382	-0.078957	-2.582825	-0.013850	-0.137908	-0.044349	-0.487834	0.476092	0.634007	0.365225
59750	9.354784	-0.076587	-2.547157	-0.013969	-0.124650	-0.117837	-0.488077	0.476020	0.633880	0.365215
59751	9.352895	-0.078107	-2.592270	0.000070	-0.169990	-0.108373	-0.488186	0.476007	0.633812	0.365204
59752	9.458702	-0.157938	-2.638839	-0.069633	-0.211589	0.005960	-0.488232	0.475972	0.633801	0.365208
59753	9.532687	-0.247746	-2.635098	-0.161320	-0.217382	0.076901	-0.488341	0.475861	0.633800	0.365210
59754	9.471128	-0.143450	-2.576595	-0.073401	-0.151538	0.002267	-0.488491	0.475614	0.633827	0.365282
59755	9.537658	-0.063288	-2.586427	-0.000172	-0.127410	0.068825	-0.488622	0.475295	0.633848	0.365487
59756	9.659368	-0.118093	-2.605723	-0.058107	-0.139670	0.191524	-0.488823	0.474950	0.633797	0.365754
59757	9.541009	-0.047629	-2.538747	-0.001473	-0.096087	0.059957	-0.489190	0.474582	0.633624	0.366040
59758	9.474578	-0.015868	-2.518015	0.028254	-0.095883	-0.009714	-0.489547	0.474178	0.633447	0.366393
59759	9.421542	-0.003617	-2.449927	0.025686	-0.053899	-0.078006	-0.489910	0.473892	0.633204	0.366698
59760	9.460162	-0.004223	-2.472012	0.031189	-0.076112	-0.035226	-0.490230	0.473748	0.632913	0.366959
59761	9.441058	0.030151	-2.459595	0.064869	-0.069271	-0.056916	-0.490510	0.473625	0.632585	0.367309
59762	9.420504	0.258629	-2.423706	0.276973	0.014230	-0.085909	-0.490646	0.473638	0.632178	0.367811
59763	9.424068	0.235982	-2.393516	0.246246	0.027182	-0.089711	-0.490489	0.473899	0.631695	0.368512
59764	9.526972	-0.050078	-2.419262	-0.030007	-0.061035	0.016550	-0.490172	0.474374	0.631163	0.369234
59765	9.557496	-0.138857	-2.441423	-0.111947	-0.104436	0.051497	-0.489925	0.474937	0.630557	0.369874
59766	9.562574	-0.199148	-2.425886	-0.173022	-0.110049	0.052674	-0.489756	0.475466	0.629958	0.370438
59767	9.585160	-0.123882	-2.462839	-0.090090	-0.123289	0.083417	-0.489651	0.475916	0.629381	0.370980
59768	9.580868	-0.142916	-2.416517	-0.119085	-0.093235	0.068109	-0.489612	0.476174	0.628857	0.371587
59769	9.513619	-0.175868	-2.352871	-0.163212	-0.067669	-0.012450	-0.489663	0.476240	0.628410	0.372192
59770	9.494611	-0.186402	-2.347258	-0.174140	-0.080019	-0.032336	-0.489773	0.476170	0.628073	0.372705
59771	9.448841	-0.142382	-2.325038	-0.134395	-0.067544	-0.082115	-0.490003	0.476039	0.627793	0.373041
59772	9.327247	-0.072897	-2.308805	-0.062594	-0.069049	-0.204110	-0.490221	0.475880	0.627638	0.373219
59773	9.370215	-0.022263	-2.316572	-0.013768	-0.057687	-0.160516	-0.490331	0.475770	0.627600	0.373279
59774	9.510977	0.004717	-2.349460	0.012447	-0.051613	-0.015961	-0.490411	0.475731	0.627561	0.373290
59775	9.532044	-0.007487	-2.370970	0.006690	-0.071696	0.009544	-0.490527	0.475720	0.627498	0.373256
59776	9.555619	-0.006292	-2.395863	0.015185	-0.091080	0.038278	-0.490666	0.475684	0.627416	0.373257
59777	9.507960	0.080238	-2.373880	0.099534	-0.059321	-0.013217	-0.490860	0.475779	0.627240	0.373175
59778	9.517342	0.106189	-2.414639	0.140917	-0.088869	0.005347	-0.491015	0.476019	0.626984	0.373097
59779	9.576220	0.069784	-2.367062	0.097138	-0.041361	0.051424	-0.491171	0.476368	0.626615	0.373066
59780	9.528412	0.032386	-2.384914	0.077598	-0.080303	0.009075	-0.491354	0.476761	0.626140	0.373119
59781	9.423052	0.030421	-2.366849	0.086269	-0.090108	-0.097686	-0.491498	0.477212	0.625596	0.373267
59782	9.544040	0.011190	-2.380509	0.072601	-0.083303	0.023137	-0.491563	0.477730	0.625046	0.373441
59783	9.603925	-0.010212	-2.382819	0.058126	-0.080311	0.081930	-0.491693	0.478278	0.624405	0.373639
59784	9.580468	-0.070454	-2.404805	0.018253	-0.125597	0.064422	-0.491896	0.478878	0.623689	0.373800
59785	9.523675	-0.022254	-2.383799	0.075376	-0.109509	0.003915	-0.492145	0.479528	0.622892	0.373968
59786	9.519585	-0.045801	-2.469682	0.090403	-0.200683	0.019680	-0.492419	0.480332	0.621992	0.374072
59787	9.858963	-0.160214	-2.526621	-0.003350	-0.211674	0.363941	-0.492848	0.481258	0.620910	0.374115
59788	9.854762	-0.104578	-2.507730	0.071774	-0.188226	0.354678	-0.493655	0.482175	0.619451	0.374288
59789	10.043199	-0.225258	-2.528812	-0.016139	-0.215549	0.544175	-0.494830	0.482915	0.617657	0.374749
59790	9.993581	-0.215695	-2.503459	0.026236	-0.231677	0.489296	-0.496565	0.483418	0.615410	0.375500
59791	10.138426	-0.285128	-2.498693	-0.005400	-0.259976	0.629747	-0.498662	0.483658	0.612820	0.376647
59792	9.393197	-0.216006	-2.243322	0.065132	-0.216146	-0.155572	-0.501111	0.483653	0.609954	0.378053
59793	9.216516	-0.213021	-2.103965	0.078510	-0.178196	-0.358698	-0.503356	0.483605	0.607285	0.379426
59794	9.252124	-0.282912	-2.030439	0.027282	-0.171726	-0.337774	-0.505279	0.483638	0.604849	0.380717
59795	9.529092	-0.750083	-1.978236	-0.409543	-0.231576	-0.062918	-0.507186	0.483664	0.602576	0.381751
59796	9.391962	-0.938147	-1.780019	-0.602184	-0.159688	-0.227848	-0.509307	0.483520	0.600517	0.382354
59797	9.324235	-0.852256	-1.720991	-0.496119	-0.135785	-0.306653	-0.511446	0.483132	0.598836	0.382625
59798	9.382642	-0.566887	-1.763176	-0.178962	-0.131591	-0.251588	-0.513232	0.482555	0.597633	0.382842
59799	9.528244	-0.407984	-1.712154	-0.017798	-0.050302	-0.123394	-0.514583	0.481882	0.596733	0.383282
59800	9.585141	-0.909292	-1.683486	-0.495522	-0.167002	-0.052444	-0.515889	0.481181	0.595944	0.383632
59801	9.586212	-0.683392	-1.592643	-0.286364	-0.053937	-0.075439	-0.517244	0.480206	0.595408	0.383862
59802	9.444160	-0.586328	-1.618810	-0.177353	-0.108344	-0.215124	-0.518433	0.479010	0.595100	0.384232
59803	9.304332	-0.305286	-1.618346	0.095543	-0.085999	-0.364604	-0.519181	0.477896	0.595130	0.384561
59804	9.701371	-0.893003	-1.740734	-0.445150	-0.304348	0.069286	-0.519747	0.476986	0.595280	0.384693
59805	9.622607	-1.230600	-1.591683	-0.803610	-0.276989	-0.018820	-0.521084	0.475978	0.595351	0.384023
59806	9.712786	-0.396455	-1.476065	-0.017320	0.043172	0.019502	-0.522445	0.474609	0.595523	0.383600
59807	9.435565	0.056360	-1.479570	0.422215	0.091841	-0.271438	-0.523396	0.473052	0.595815	0.383775
59808	9.397098	-0.102164	-1.577367	0.282794	-0.067664	-0.288015	-0.523391	0.471846	0.596372	0.384401
59809	9.174225	-1.293586	-1.642369	-0.861808	-0.488266	-0.455550	-0.523464	0.471048	0.596982	0.384334
59810	9.243133	-1.835791	-1.697560	-1.371739	-0.673140	-0.360039	-0.524030	0.470239	0.598104	0.382806
59811	9.839626	-0.779975	-1.618843	-0.377109	-0.214422	0.180264	-0.524941	0.468798	0.599558	0.381046
59812	9.658739	0.220214	-1.509464	0.544572	0.138043	-0.050384	-0.525273	0.466797	0.601186	0.380479
59813	9.515643	0.124633	-1.534637	0.427622	0.061329	-0.182977	-0.524651	0.464787	0.602992	0.380940
59814	9.333881	-0.787655	-1.592948	-0.470426	-0.281357	-0.326981	-0.523749	0.463239	0.604838	0.381140
59815	9.318211	-1.417832	-1.630526	-1.093549	-0.490662	-0.322625	-0.523410	0.462012	0.606827	0.379933
59816	9.830789	-0.169813	-1.506179	0.034213	0.086312	0.133826	-0.523382	0.460660	0.608898	0.378294
59817	9.599930	0.821569	-1.465024	0.948702	0.398494	-0.121404	-0.522680	0.459236	0.610875	0.377808
59818	9.448918	0.749280	-1.543740	0.863101	0.294577	-0.252633	-0.520830	0.458277	0.612874	0.378290
59819	9.440266	-0.198321	-1.664133	-0.057504	-0.081886	-0.225351	-0.518543	0.457992	0.614749	0.378735
59820	9.357609	-1.097706	-1.745111	-0.930620	-0.408477	-0.284723	-0.516745	0.458077	0.616624	0.378041
59821	9.655411	-0.427022	-1.731120	-0.336033	-0.104478	-0.000345	-0.515405	0.458079	0.618588	0.376657
59822	9.759531	0.224680	-1.754993	0.259291	0.128110	0.101699	-0.513844	0.457875	0.620585	0.375751
59823	9.653068	0.386151	-1.777060	0.384568	0.173213	0.001109	-0.511691	0.457599	0.622610	0.375675
59824	9.310861	0.182698	-1.749515	0.149662	0.107651	-0.338934	-0.509064	0.457402	0.624682	0.376045
59825	8.924958	-0.056958	-1.827481	-0.088425	-0.073518	-0.703121	-0.506021	0.457450	0.626976	0.376275
59826	9.366063	-0.083703	-1.956067	-0.165110	-0.074036	-0.245918	-0.502720	0.457703	0.629524	0.376138
59827	10.082517	-0.079430	-2.148896	-0.217687	-0.063671	0.494071	-0.499741	0.457890	0.631876	0.375936
59828	10.045387	0.106587	-2.297517	-0.050197	-0.107076	0.491943	-0.497228	0.457884	0.633942	0.375797
59829	9.808809	0.429897	-2.287802	0.221854	-0.010124	0.266099	-0.494740	0.457774	0.635847	0.375997
59830	9.218928	0.535861	-2.201930	0.296317	0.014217	-0.323961	-0.491963	0.457761	0.637755	0.376425
59831	9.053875	0.540415	-2.241422	0.271893	-0.020794	-0.473846	-0.488896	0.457979	0.639724	0.376814
59832	9.484646	0.559088	-2.417531	0.240457	-0.047699	-0.011920	-0.485807	0.458413	0.641627	0.377046
59833	9.547554	0.815648	-2.573848	0.470716	-0.060275	0.097925	-0.482985	0.459042	0.643235	0.377167
59834	9.417222	0.983386	-2.672400	0.628428	-0.087966	0.005148	-0.480184	0.460093	0.644571	0.377183
59835	9.652819	1.029098	-2.793933	0.641727	-0.089385	0.268084	-0.477416	0.461629	0.645533	0.377175
59836	9.897370	0.758654	-2.912813	0.360068	-0.178060	0.524451	-0.475037	0.463539	0.645933	0.377150
59837	9.997278	0.559186	-2.959354	0.157046	-0.215960	0.624966	-0.473353	0.465558	0.645776	0.377049
59838	9.934025	0.618147	-2.926602	0.213296	-0.153558	0.558562	-0.472315	0.467508	0.645170	0.376976
59839	9.897453	0.738629	-2.905042	0.337660	-0.090049	0.522799	-0.471699	0.469332	0.644171	0.377189
59840	9.645233	0.775968	-2.881624	0.410857	-0.112664	0.274676	-0.471356	0.471117	0.642810	0.377713
59841	9.457163	0.738679	-2.815828	0.396215	-0.107548	0.073863	-0.471005	0.473068	0.641226	0.378403
59842	9.561801	0.563911	-2.826565	0.239037	-0.140315	0.170230	-0.470700	0.475170	0.639471	0.379119
59843	9.611999	0.272909	-2.822218	-0.023064	-0.202457	0.206710	-0.470683	0.477338	0.637527	0.379692
59844	9.612675	0.165180	-2.812949	-0.096941	-0.223687	0.201499	-0.471073	0.479457	0.635474	0.379978
59845	9.679305	0.192573	-2.807756	-0.038847	-0.199633	0.265408	-0.471794	0.481389	0.633406	0.380096
59846	9.782775	0.178548	-2.807248	-0.018611	-0.185705	0.364748	-0.472806	0.483076	0.631310	0.380184
59847	9.788923	0.153012	-2.718510	-0.018989	-0.122683	0.347091	-0.474179	0.484420	0.629140	0.380362
59848	9.564619	-0.012603	-2.540086	-0.156571	-0.073225	0.081958	-0.475862	0.485429	0.626945	0.380597
59849	9.308679	-0.251852	-2.382665	-0.361083	-0.070845	-0.207668	-0.477627	0.486156	0.624955	0.380731
59850	9.185851	-0.293972	-2.224122	-0.390294	0.014567	-0.364921	-0.479263	0.486574	0.623345	0.380781
59851	8.971505	-0.300180	-2.149362	-0.368564	0.012559	-0.589798	-0.480524	0.486760	0.622222	0.380790
59852	8.992897	-0.189313	-2.095664	-0.254982	0.081981	-0.580781	-0.481214	0.486829	0.621693	0.380694
59853	9.240583	-0.226787	-2.146666	-0.284845	0.078057	-0.327923	-0.481471	0.486847	0.621584	0.380523
59854	9.378559	-0.200572	-2.230581	-0.244437	0.039129	-0.173610	-0.481519	0.486833	0.621753	0.380205
59855	9.552006	0.100810	-2.298153	0.054502	0.095083	0.011796	-0.481435	0.486886	0.622021	0.379806
59856	9.788518	0.294484	-2.379695	0.249185	0.129106	0.261338	-0.481344	0.487142	0.622116	0.379437
59857	9.811956	0.403019	-2.447013	0.376063	0.104818	0.300292	-0.481393	0.487716	0.621795	0.379163
59858	9.651676	0.432347	-2.511982	0.443191	0.017314	0.160029	-0.481527	0.488627	0.621062	0.379023
59859	9.693147	0.334068	-2.676590	0.403012	-0.150647	0.239560	-0.481751	0.489784	0.619938	0.379083
59860	9.704739	0.297479	-2.717598	0.400073	-0.199443	0.259844	-0.482110	0.491128	0.618412	0.379381
59861	9.672522	0.150037	-2.665579	0.274100	-0.204022	0.215705	-0.482643	0.492566	0.616437	0.380053
59862	9.638750	-0.164105	-2.533378	-0.030156	-0.178303	0.153135	-0.483267	0.494034	0.614143	0.381066
59863	9.532436	-0.514534	-2.424761	-0.361939	-0.203920	0.027985	-0.483996	0.495329	0.611714	0.382365
59864	9.351494	-0.867101	-2.410995	-0.675874	-0.338621	-0.146064	-0.484810	0.496268	0.609458	0.383716
59865	9.028156	-1.049023	-2.343976	-0.836483	-0.415312	-0.472987	-0.485579	0.496741	0.607750	0.384839
59866	8.970935	-0.886672	-2.234264	-0.688221	-0.310610	-0.556034	-0.486053	0.496779	0.606869	0.385581
59867	9.186290	-0.710650	-2.188616	-0.531151	-0.195788	-0.359512	-0.486221	0.496497	0.606684	0.386024
59868	9.441598	-0.440040	-2.194164	-0.279351	-0.095184	-0.113994	-0.486257	0.495977	0.606929	0.386261
59869	9.586240	-0.169722	-2.188134	-0.031156	-0.004883	0.021525	-0.486211	0.495342	0.607379	0.386427
59870	9.702551	0.034430	-2.243924	0.164168	0.007574	0.144664	-0.486112	0.494727	0.607826	0.386635
59871	9.712153	0.139748	-2.289208	0.265719	-0.015338	0.163037	-0.486082	0.494260	0.608060	0.386903
59872	9.676811	0.198437	-2.291080	0.318323	-0.018648	0.128511	-0.486126	0.494034	0.607986	0.387254
59873	9.639500	0.157139	-2.309374	0.282160	-0.061377	0.096625	-0.486232	0.494106	0.607567	0.387684
59874	9.609760	-0.000761	-2.266042	0.124645	-0.070659	0.059592	-0.486502	0.494383	0.606845	0.388125
59875	9.547140	-0.070762	-2.249663	0.064890	-0.095032	-0.004497	-0.486867	0.494790	0.605942	0.388560
59876	9.524094	-0.235183	-2.270635	-0.078844	-0.166613	-0.020575	-0.487222	0.495214	0.605031	0.388993
59877	9.469826	-0.290379	-2.243853	-0.125810	-0.175835	-0.078725	-0.487584	0.495510	0.604228	0.389411
59878	9.445576	-0.283341	-2.269218	-0.104998	-0.215243	-0.097176	-0.487872	0.495645	0.603592	0.389864
59879	9.485990	-0.210164	-2.217841	-0.040692	-0.153740	-0.069911	-0.488097	0.495708	0.603046	0.390346
59880	9.645416	-0.225216	-2.254081	-0.049400	-0.169289	0.093600	-0.488320	0.495759	0.602511	0.390828
59881	9.619323	-0.239353	-2.180533	-0.073788	-0.119461	0.052588	-0.488623	0.495759	0.601970	0.391284
59882	9.624243	-0.281610	-2.131627	-0.120421	-0.093415	0.047634	-0.489006	0.495732	0.601400	0.391717
59883	9.647641	-0.320975	-2.121334	-0.156178	-0.100942	0.068885	-0.489454	0.495617	0.600852	0.392142
59884	9.641805	-0.366988	-2.096719	-0.199860	-0.103597	0.058717	-0.490049	0.495389	0.600322	0.392498
59885	9.631547	-0.394969	-2.054858	-0.227629	-0.088199	0.040511	-0.490812	0.495043	0.599836	0.392724
59886	9.536252	-0.565316	-2.041829	-0.383917	-0.147340	-0.052585	-0.491782	0.494591	0.599424	0.392710
59887	9.492057	-0.552117	-2.038873	-0.358206	-0.166691	-0.096471	-0.492865	0.493949	0.599257	0.392416
59888	9.420286	-0.394999	-1.964378	-0.207111	-0.090267	-0.184316	-0.493920	0.493150	0.599361	0.391935
59889	9.431699	-0.282756	-1.891410	-0.106434	-0.004058	-0.189644	-0.494724	0.492240	0.599783	0.391419
59890	9.520366	-0.232932	-1.909664	-0.053606	0.000143	-0.100037	-0.495427	0.491341	0.600283	0.390892
59891	9.601674	-0.312665	-1.975146	-0.118135	-0.068513	-0.005932	-0.496045	0.490482	0.600829	0.390347
59892	9.441955	-0.308542	-1.971828	-0.109895	-0.099024	-0.163235	-0.496624	0.489668	0.601398	0.389757
59893	9.449177	-0.340439	-1.969575	-0.142471	-0.103742	-0.156031	-0.497036	0.488834	0.602117	0.389169
59894	9.608076	-0.304456	-2.006213	-0.107035	-0.099549	0.006240	-0.497403	0.487934	0.602900	0.388615
59895	9.607895	-0.218914	-1.985457	-0.033546	-0.060911	0.000404	-0.497742	0.487025	0.603654	0.388152
59896	9.732607	-0.167217	-1.993184	0.009865	-0.033759	0.123265	-0.498140	0.486135	0.604312	0.387733
59897	9.706781	-0.155647	-1.980503	0.015226	-0.028135	0.095248	-0.498620	0.485254	0.604823	0.387422
59898	9.665852	-0.128153	-1.977281	0.039490	-0.033105	0.054029	-0.499092	0.484413	0.605230	0.387232
59899	9.521138	-0.183350	-1.967920	-0.015379	-0.072841	-0.088859	-0.499498	0.483585	0.605620	0.387132
59900	9.472213	-0.148366	-1.947074	0.010590	-0.060600	-0.141486	-0.499781	0.482849	0.606051	0.387013
59901	9.483705	-0.134116	-1.966403	0.022171	-0.077057	-0.126669	-0.499870	0.482194	0.606557	0.386919
59902	9.562142	-0.094080	-1.954392	0.046610	-0.043030	-0.052614	-0.499848	0.481564	0.607075	0.386921
59903	9.789599	-0.099793	-2.074360	0.051431	-0.117172	0.193951	-0.499789	0.480966	0.607545	0.387004
59904	9.650657	-0.100019	-2.047590	0.039457	-0.122744	0.052462	-0.499764	0.480394	0.607861	0.387249
59905	9.597625	-0.117708	-2.081843	0.022469	-0.176232	0.007229	-0.499743	0.479821	0.608134	0.387559
59906	9.583083	-0.091143	-2.089185	0.040418	-0.186936	-0.005960	-0.499704	0.479281	0.608349	0.387940
59907	9.632086	-0.101932	-2.067303	0.012637	-0.167905	0.037838	-0.499683	0.478743	0.608511	0.388375
59908	9.607154	-0.083236	-2.050397	0.018035	-0.162278	0.009827	-0.499723	0.478189	0.608579	0.388901
59909	9.625616	-0.061578	-2.048402	0.028086	-0.164391	0.027251	-0.499761	0.477619	0.608571	0.389565
59910	9.644423	-0.060456	-2.072549	0.023771	-0.198942	0.050062	-0.499821	0.477002	0.608497	0.390358
59911	9.698913	-0.027568	-2.064015	0.040123	-0.191582	0.101518	-0.499933	0.476317	0.608316	0.391332
59912	9.713492	-0.007804	-2.017560	0.036081	-0.163031	0.106718	-0.500106	0.475595	0.607990	0.392493
59913	9.809110	-0.010505	-1.994259	0.012870	-0.151756	0.195936	-0.500395	0.474843	0.607513	0.393773
59914	9.817473	-0.029666	-1.977271	-0.018233	-0.170880	0.200485	-0.500900	0.474056	0.606827	0.395134
59915	9.770688	-0.072385	-1.962659	-0.065112	-0.211831	0.150965	-0.501628	0.473240	0.605976	0.396493
59916	9.575124	-0.038682	-1.933030	-0.031107	-0.247075	-0.047496	-0.502475	0.472412	0.605049	0.397822
59917	9.640608	-0.116837	-1.888909	-0.120681	-0.251760	0.007948	-0.503299	0.471549	0.604161	0.399151
59918	9.802441	0.022919	-1.877597	0.004456	-0.222031	0.165503	-0.504245	0.470597	0.603177	0.400564
59919	9.695559	0.167969	-1.812365	0.134925	-0.187009	0.049532	-0.505234	0.469599	0.602038	0.402202
59920	9.754357	0.171589	-1.750071	0.121225	-0.167089	0.096744	-0.506222	0.468682	0.600672	0.404066
59921	9.719296	0.056351	-1.680614	-0.002958	-0.186779	0.049219	-0.507355	0.467820	0.599046	0.406052
59922	9.640959	0.104706	-1.586473	0.031111	-0.151464	-0.042744	-0.508532	0.467058	0.597300	0.408025
59923	9.718788	0.174919	-1.516748	0.086884	-0.112684	0.024255	-0.509668	0.466398	0.595461	0.410046
59924	9.633853	0.314097	-1.417823	0.211070	-0.051797	-0.072436	-0.510736	0.465851	0.593512	0.412159
59925	9.478356	0.367505	-1.209051	0.229890	0.087928	-0.253645	-0.511585	0.465526	0.591467	0.414407
59926	9.551584	0.240519	-1.133312	0.092819	0.091912	-0.191992	-0.512058	0.465568	0.589474	0.416609
59927	9.806662	0.056901	-1.145575	-0.086116	0.026806	0.060404	-0.512409	0.465942	0.587478	0.418575
59928	9.577027	0.122585	-0.998878	-0.034054	0.121646	-0.183764	-0.512731	0.466491	0.585493	0.420346
59929	9.547592	0.130060	-0.928222	-0.028600	0.158870	-0.220560	-0.512805	0.467300	0.583609	0.421975
59930	9.580536	0.207311	-0.814542	0.033679	0.266563	-0.199109	-0.512617	0.468349	0.581847	0.423470
59931	9.641878	0.220954	-0.770329	0.046678	0.302639	-0.142411	-0.512150	0.469621	0.580183	0.424908
59932	9.692750	0.209583	-0.803046	0.050025	0.263253	-0.088162	-0.511434	0.471126	0.578569	0.426302
59933	9.779300	0.145180	-0.830943	-0.000465	0.226776	0.000304	-0.510624	0.472831	0.576960	0.427565
59934	9.686703	0.219555	-0.791642	0.079425	0.267811	-0.095225	-0.509746	0.474687	0.575324	0.428758
59935	9.683020	0.204109	-0.804282	0.079871	0.253399	-0.097813	-0.508745	0.476773	0.573665	0.429855
59936	9.803298	0.094184	-0.850327	-0.008718	0.206400	0.025700	-0.507670	0.478988	0.572037	0.430831
59937	9.875468	-0.082622	-0.895774	-0.160330	0.146210	0.101292	-0.506733	0.481197	0.570354	0.431703
59938	9.870484	-0.198179	-0.937725	-0.248423	0.091787	0.100681	-0.506031	0.483231	0.568687	0.432453
59939	9.879612	-0.109054	-1.009081	-0.129651	0.041785	0.117987	-0.505499	0.485046	0.567117	0.433105
59940	9.651389	-0.104253	-1.004052	-0.104481	0.025888	-0.109250	-0.504949	0.486666	0.565704	0.433777
59941	9.663211	-0.094839	-1.039911	-0.077258	-0.003883	-0.093528	-0.504283	0.488112	0.564519	0.434468
59942	9.709338	-0.180773	-1.083582	-0.148159	-0.050802	-0.042655	-0.503571	0.489395	0.563557	0.435100
59943	9.784623	-0.252564	-1.092014	-0.212822	-0.056703	0.033459	-0.502974	0.490495	0.562751	0.435595
59944	9.879633	-0.346430	-1.119859	-0.296588	-0.083661	0.131470	-0.502631	0.491325	0.562066	0.435940
59945	9.916182	-0.305912	-1.146586	-0.245789	-0.100125	0.170722	-0.502625	0.491820	0.561469	0.436158
59946	9.765975	-0.138700	-1.117909	-0.075472	-0.068495	0.017512	-0.502788	0.492040	0.560987	0.436343
59947	9.671276	-0.057361	-1.086421	0.006118	-0.041660	-0.080504	-0.502876	0.492113	0.560672	0.436563
59948	9.748648	-0.128726	-1.132800	-0.057065	-0.093452	0.001789	-0.502920	0.492136	0.560480	0.436733
59949	9.843752	-0.203813	-1.169146	-0.125082	-0.133822	0.100654	-0.503164	0.492049	0.560322	0.436753
59950	9.744100	-0.230034	-1.162967	-0.146158	-0.148003	0.001059	-0.503666	0.491826	0.560159	0.436636
59951	9.632228	-0.222425	-1.123661	-0.135509	-0.125855	-0.114353	-0.504250	0.491632	0.560079	0.436281
59952	9.710041	-0.278298	-1.079687	-0.187558	-0.084981	-0.041011	-0.504903	0.491444	0.560145	0.435654
59953	9.855917	-0.295386	-1.058389	-0.195825	-0.051923	0.102224	-0.505718	0.491213	0.560253	0.434828
59954	9.866331	-0.268342	-1.059493	-0.154346	-0.049170	0.112672	-0.506652	0.490891	0.560377	0.433943
59955	9.799178	-0.255716	-1.096931	-0.121888	-0.094032	0.049808	-0.507644	0.490403	0.560557	0.433103
59956	9.696049	-0.242489	-1.092368	-0.097053	-0.102492	-0.053308	-0.508614	0.489809	0.560819	0.432298
59957	9.675530	-0.352258	-1.061903	-0.199089	-0.094902	-0.075185	-0.509582	0.489214	0.561162	0.431386
59958	9.714052	-0.470058	-1.094802	-0.298383	-0.143857	-0.031450	-0.510658	0.488561	0.561593	0.430291
59959	9.787307	-0.635087	-1.181563	-0.434263	-0.249313	0.053418	-0.511858	0.487747	0.562212	0.428977
59960	9.754320	-0.602070	-1.230448	-0.379842	-0.298093	0.025508	-0.513293	0.486626	0.563005	0.427493
59961	9.537124	-0.262881	-1.181162	-0.042905	-0.219192	-0.201699	-0.514678	0.485234	0.564039	0.426046
59962	9.685057	-0.293300	-1.189129	-0.065531	-0.218686	-0.053165	-0.515882	0.483772	0.565262	0.424629
59963	9.624205	-0.337249	-1.138126	-0.113536	-0.182375	-0.117934	-0.517150	0.482328	0.566553	0.423005
59964	9.776279	-0.522266	-1.140336	-0.287881	-0.200186	0.037480	-0.518537	0.480871	0.567946	0.421094
59965	9.797423	-0.732663	-1.193371	-0.472334	-0.286567	0.068871	-0.520306	0.479256	0.569446	0.418721
59966	9.572672	-0.580804	-1.157791	-0.313743	-0.242109	-0.160911	-0.522354	0.477431	0.571161	0.415911
59967	9.509446	-0.261935	-1.067337	-0.003134	-0.087916	-0.240352	-0.524341	0.475549	0.573087	0.412905
59968	9.607164	-0.098339	-1.031972	0.164061	0.004617	-0.151152	-0.526143	0.473780	0.575024	0.409944
59969	9.687462	-0.084605	-1.009940	0.186047	0.053052	-0.074279	-0.527777	0.472211	0.576796	0.407155
59970	9.612906	-0.211658	-1.049394	0.084504	-0.006327	-0.140730	-0.529242	0.470891	0.578398	0.404500
59971	9.583253	-0.277947	-1.110446	0.047393	-0.066703	-0.161659	-0.530425	0.469805	0.579957	0.401974
59972	9.604253	-0.316243	-1.131043	0.025648	-0.073669	-0.137213	-0.531305	0.468885	0.581493	0.399659
59973	9.713984	-0.279666	-1.143923	0.071073	-0.043475	-0.027941	-0.531894	0.468095	0.582976	0.397635
59974	9.924888	-0.301249	-1.241151	0.079335	-0.097706	0.193248	-0.532389	0.467382	0.584268	0.395912
59975	9.742804	-0.335399	-1.243322	0.048225	-0.113779	0.014076	-0.532826	0.466706	0.585379	0.394479
59976	9.679479	-0.349379	-1.298301	0.049349	-0.163536	-0.041773	-0.533090	0.466133	0.586432	0.393234
59977	9.624039	-0.427784	-1.300155	-0.028589	-0.178106	-0.093481	-0.533150	0.465586	0.587544	0.392139
59978	9.745989	-0.430849	-1.322993	-0.030697	-0.171006	0.030587	-0.533131	0.465019	0.588689	0.391118
59979	9.742274	-0.394255	-1.326887	-0.001690	-0.152050	0.026258	-0.533123	0.464396	0.589769	0.390242
59980	9.649034	-0.416804	-1.353617	-0.023954	-0.183644	-0.062018	-0.533120	0.463771	0.590833	0.389379
59981	9.738356	-0.304228	-1.397748	0.087918	-0.172374	0.028267	-0.533053	0.463128	0.591911	0.388597
59982	9.766314	-0.270878	-1.392905	0.108715	-0.144904	0.054512	-0.532994	0.462442	0.592921	0.387955
59983	9.808888	-0.252018	-1.372738	0.110412	-0.106999	0.093803	-0.532898	0.461791	0.593840	0.387457
59984	9.777451	-0.320421	-1.342631	0.025954	-0.095896	0.061218	-0.532851	0.461167	0.594602	0.387098
59985	9.761997	-0.367785	-1.396014	-0.014308	-0.159286	0.054183	-0.532863	0.460460	0.595326	0.386809
59986	9.673474	-0.289254	-1.398743	0.051876	-0.150492	-0.035627	-0.532843	0.459739	0.596026	0.386616
59987	9.670742	-0.161893	-1.375311	0.155055	-0.092102	-0.044964	-0.532719	0.459011	0.596763	0.386513
59988	9.761771	-0.122168	-1.367010	0.175215	-0.060975	0.043345	-0.532479	0.458332	0.597451	0.386589
59989	9.710452	-0.136220	-1.349165	0.141532	-0.055430	-0.009190	-0.532189	0.457751	0.598038	0.386767
59990	9.828224	-0.234738	-1.369742	0.036731	-0.089786	0.112828	-0.531923	0.457245	0.598480	0.387049
59991	9.785451	-0.305940	-1.372033	-0.042757	-0.121713	0.072376	-0.531779	0.456780	0.598780	0.387332
59992	9.692332	-0.277503	-1.327598	-0.036569	-0.088204	-0.026385	-0.531725	0.456340	0.599019	0.387556
59993	9.691632	-0.246125	-1.297999	-0.023423	-0.055892	-0.031612	-0.531657	0.455924	0.599254	0.387775
59994	9.697138	-0.163387	-1.186993	0.014701	0.070179	-0.042069	-0.531512	0.455532	0.599541	0.387991
59995	9.795039	-0.027565	-1.147794	0.121425	0.156092	0.047428	-0.531266	0.455218	0.599791	0.388309
59996	9.707290	-0.151207	-1.142948	-0.006504	0.111670	-0.037814	-0.530962	0.455097	0.599939	0.388638
59997	9.785188	-0.196439	-1.208587	-0.039802	0.047021	0.048620	-0.530626	0.455204	0.600038	0.388819
59998	9.922346	-0.093221	-1.290435	0.076187	0.019095	0.193346	-0.530406	0.455436	0.599966	0.388957
59999	9.778400	0.122699	-1.253086	0.273915	0.099451	0.042133	-0.530086	0.455827	0.599717	0.389319
60000	9.584664	0.038214	-1.286115	0.204174	0.020198	-0.144221	-0.529502	0.456485	0.599350	0.389908
60001	9.606860	-0.209584	-1.271003	-0.041760	-0.027982	-0.119979	-0.528674	0.457418	0.599013	0.390456
60002	9.779422	-0.468439	-1.277460	-0.295745	-0.074798	0.056222	-0.527811	0.458417	0.598724	0.390895
60003	9.741828	-0.465828	-1.308949	-0.286821	-0.097842	0.023048	-0.527047	0.459337	0.598449	0.391267
60004	9.664657	-0.331234	-1.287154	-0.165557	-0.038982	-0.058553	-0.526215	0.460206	0.598285	0.391616
60005	9.588555	-0.216695	-1.294293	-0.058395	-0.012672	-0.134932	-0.525211	0.461062	0.598217	0.392060
60006	9.613565	-0.089945	-1.291726	0.052227	0.041084	-0.112541	-0.523963	0.462031	0.598218	0.392588
60007	9.863455	-0.034576	-1.368653	0.108249	0.030771	0.144695	-0.522625	0.463078	0.598113	0.393298
60008	9.700119	-0.200160	-1.428316	-0.043717	-0.079587	-0.006354	-0.521345	0.464196	0.597870	0.394047
60009	9.567321	-0.220417	-1.427758	-0.071565	-0.089068	-0.137584	-0.519987	0.465349	0.597704	0.394733
60010	9.612733	-0.090275	-1.465461	0.049924	-0.068736	-0.088846	-0.518511	0.466498	0.597681	0.395353
60011	9.683950	0.124842	-1.448439	0.237135	0.031218	-0.023142	-0.516871	0.467777	0.597660	0.396019
60012	9.845434	0.287693	-1.501371	0.388670	0.063786	0.142928	-0.515138	0.469202	0.597495	0.396839
60013	9.866053	0.402629	-1.496579	0.485053	0.116641	0.161878	-0.513396	0.470883	0.596990	0.397864
60014	9.621877	0.556610	-1.511685	0.635484	0.118118	-0.078330	-0.511512	0.472991	0.596134	0.399074
60015	9.753942	0.516778	-1.568399	0.601214	0.088670	0.061368	-0.509462	0.475586	0.594919	0.400421
60016	9.616081	0.444418	-1.544896	0.529227	0.090528	-0.077960	-0.507332	0.478692	0.593348	0.401754
60017	9.697802	0.221652	-1.601634	0.328333	0.020177	0.013474	-0.505066	0.482245	0.591529	0.403041
60018	9.787784	-0.004336	-1.635952	0.124035	-0.021564	0.110071	-0.502919	0.486033	0.589453	0.404213
60019	9.432409	0.176441	-1.597854	0.316972	0.021754	-0.249551	-0.500760	0.490076	0.587185	0.405313
60020	9.608547	-0.067521	-1.654857	0.105192	-0.022250	-0.063042	-0.498379	0.494416	0.584870	0.406322
60021	9.544082	-0.348212	-1.725965	-0.134815	-0.117278	-0.109204	-0.496067	0.498899	0.582487	0.407095
60022	9.485219	-0.743705	-1.817933	-0.482224	-0.242659	-0.141303	-0.493889	0.503371	0.580257	0.407422
60023	9.401454	-0.692755	-1.821588	-0.404978	-0.203849	-0.222088	-0.491757	0.507602	0.578403	0.407389
60024	9.527111	-0.873293	-1.898524	-0.546809	-0.232135	-0.077201	-0.489590	0.511615	0.576859	0.407167
60025	9.610094	-0.896572	-2.046263	-0.525182	-0.309948	0.034788	-0.487594	0.515258	0.575588	0.406767
60026	9.527128	-0.570833	-2.104878	-0.174553	-0.283690	-0.044816	-0.485599	0.518816	0.574440	0.406254
60027	9.642045	-0.406938	-2.155381	0.018394	-0.237089	0.072832	-0.483664	0.522525	0.573058	0.405760
60028	9.802387	-0.611668	-2.330475	-0.131627	-0.351629	0.274472	-0.481784	0.526454	0.571337	0.405344
60029	10.386646	-0.577901	-2.384643	-0.046872	-0.237580	0.857085	-0.480381	0.530193	0.569081	0.405309
60030	10.292686	-0.335166	-2.281671	0.216767	-0.108340	0.732400	-0.479486	0.533568	0.566079	0.406144
60031	10.459102	-0.347646	-2.131787	0.229974	0.064195	0.864439	-0.479002	0.536496	0.562427	0.407929
60032	10.403163	-0.415515	-1.976675	0.181958	0.163488	0.781912	-0.479121	0.538927	0.558076	0.410551
60033	9.767465	-0.644626	-1.833772	-0.046435	0.101968	0.145659	-0.479756	0.541061	0.553291	0.413469
60034	9.667333	-1.039462	-1.862423	-0.399433	-0.033221	0.078993	-0.480730	0.543071	0.548459	0.416132
60035	9.445844	-0.929127	-1.800275	-0.262508	-0.063964	-0.155836	-0.481940	0.544773	0.543821	0.418586
60036	8.980943	-1.238727	-1.732284	-0.567453	-0.154525	-0.601475	-0.482751	0.546114	0.539781	0.421126
60037	8.863423	-1.680054	-1.711921	-0.996359	-0.220594	-0.687337	-0.483020	0.547002	0.536803	0.423465
60038	9.142150	-1.823200	-1.745385	-1.115286	-0.242724	-0.397460	-0.482892	0.547326	0.534964	0.425515
60039	9.463683	-1.763803	-1.717631	-1.047118	-0.185131	-0.092001	-0.482729	0.546901	0.534035	0.427409
60040	9.186004	-1.476407	-1.645930	-0.803367	-0.174607	-0.400167	-0.482616	0.545883	0.533876	0.429034
60041	9.034611	-0.805755	-1.449856	-0.182921	0.002065	-0.628899	-0.482152	0.544683	0.534498	0.430305
60042	9.235655	-0.481950	-1.439106	0.116309	0.051582	-0.454037	-0.481193	0.543690	0.535583	0.431283
60043	9.610502	-0.369070	-1.520321	0.216933	0.040544	-0.078186	-0.480128	0.542921	0.536805	0.431919
60044	9.894246	-0.293555	-1.640483	0.281238	-0.020173	0.216963	-0.479297	0.542359	0.537844	0.432255
60045	9.950549	-0.291924	-1.655723	0.264995	-0.017627	0.275400	-0.478861	0.541998	0.538568	0.432290
60046	9.880265	-0.292207	-1.622386	0.250658	0.009298	0.201015	-0.478899	0.541759	0.538976	0.432039
60047	9.689355	-0.466525	-1.636067	0.071154	-0.040309	0.024552	-0.479316	0.541649	0.539168	0.431473
60048	9.595961	-0.525649	-1.625515	0.017890	-0.045219	-0.065960	-0.479960	0.541573	0.539366	0.430605
60049	9.746814	-0.744630	-1.698472	-0.175084	-0.100078	0.106938	-0.480739	0.541386	0.539617	0.429657
60050	9.709796	-0.918150	-1.698469	-0.335151	-0.114798	0.080867	-0.481737	0.540949	0.539977	0.428636
60051	9.656078	-1.007974	-1.682081	-0.414369	-0.115372	0.031104	-0.482894	0.540244	0.540503	0.427558
60052	9.594730	-1.047062	-1.641246	-0.446147	-0.092555	-0.033054	-0.484217	0.539304	0.541227	0.426332
60053	9.577082	-1.008560	-1.639127	-0.396252	-0.097836	-0.052676	-0.485720	0.538144	0.542065	0.425022
60054	9.484224	-0.991046	-1.643246	-0.371813	-0.123156	-0.144208	-0.487197	0.536866	0.543086	0.423640
60055	9.553329	-1.024181	-1.693509	-0.389531	-0.169547	-0.065763	-0.488588	0.535350	0.544408	0.422259
60056	9.419433	-1.078581	-1.738643	-0.444663	-0.244247	-0.186964	-0.489829	0.533598	0.546132	0.420809
60057	9.428320	-0.972883	-1.766673	-0.339741	-0.262483	-0.180630	-0.490961	0.531661	0.548219	0.419226
60058	9.541324	-0.853755	-1.836705	-0.215985	-0.298117	-0.065702	-0.491951	0.529657	0.550576	0.417509
60059	9.725275	-0.907853	-1.864711	-0.266123	-0.293634	0.123372	-0.493062	0.527561	0.553002	0.415641
60060	9.740488	-0.944212	-1.923288	-0.300255	-0.347673	0.150076	-0.494470	0.525259	0.555456	0.413609
60061	9.609468	-0.942622	-1.878420	-0.313306	-0.324476	0.013574	-0.496059	0.522666	0.558039	0.411507
60062	9.308830	-0.860009	-1.880700	-0.248522	-0.366808	-0.287214	-0.497617	0.519846	0.560940	0.409247
60063	9.508101	-0.787381	-1.849749	-0.182491	-0.287621	-0.100351	-0.499006	0.516965	0.564173	0.406754
60064	9.786105	-0.673442	-1.821181	-0.076996	-0.187285	0.162134	-0.500440	0.513931	0.567447	0.404276
60065	9.741398	-0.807108	-1.857711	-0.217486	-0.244157	0.131679	-0.501995	0.510756	0.570689	0.401799
60066	9.700711	-0.835230	-1.893421	-0.252195	-0.287538	0.098930	-0.503691	0.507383	0.573985	0.399247
60067	9.454317	-0.743525	-1.842536	-0.188727	-0.263145	-0.157274	-0.505389	0.503879	0.577417	0.396583
60068	9.548025	-0.491807	-1.819604	0.041834	-0.173226	-0.082022	-0.506982	0.500322	0.580958	0.393873
60069	9.942296	-0.175044	-1.839619	0.343943	-0.054003	0.293886	-0.508418	0.496789	0.584324	0.391507
60070	9.701611	-0.015140	-1.786703	0.465611	-0.007917	0.041089	-0.509812	0.493424	0.587252	0.389562
60071	9.609447	0.108431	-1.784462	0.564207	0.006769	-0.054659	-0.510895	0.490419	0.589865	0.387988
60072	9.626551	-0.138267	-1.849957	0.318824	-0.106088	-0.014779	-0.511731	0.487868	0.592127	0.386655
60073	9.852041	-0.103564	-1.831115	0.331977	-0.039071	0.203034	-0.512606	0.485604	0.594084	0.385341
60074	9.822724	0.086163	-1.762658	0.487155	0.063988	0.155205	-0.513513	0.483586	0.595522	0.384451
60075	9.774416	0.127877	-1.743157	0.513844	0.076761	0.103169	-0.514393	0.481914	0.596469	0.383906
60076	9.577970	-0.070198	-1.777313	0.326522	-0.049060	-0.076556	-0.515183	0.480638	0.597032	0.383571
60077	9.577896	-0.365990	-1.856749	0.058283	-0.207221	-0.051990	-0.515789	0.479665	0.597550	0.383168
60078	9.682073	-0.392580	-1.852602	0.029964	-0.199543	0.050784	-0.516424	0.478695	0.597999	0.382824
60079	9.647386	-0.306414	-1.795033	0.097110	-0.137618	0.003611	-0.517009	0.477697	0.598447	0.382582
60080	9.848409	-0.163822	-1.765391	0.222584	-0.051069	0.191434	-0.517629	0.476661	0.598678	0.382674
60081	9.995528	-0.211555	-1.746149	0.168053	-0.039100	0.334951	-0.518399	0.475651	0.598611	0.382993
60082	9.824593	-0.197350	-1.674271	0.167219	-0.021394	0.154071	-0.519453	0.474759	0.598068	0.383520
60083	9.380959	-0.424268	-1.594163	-0.061033	-0.104771	-0.288561	-0.520527	0.474078	0.597387	0.383967
60084	9.553850	-0.421962	-1.549847	-0.062646	-0.059791	-0.125140	-0.521488	0.473399	0.596820	0.384382
60085	9.527641	-0.227409	-1.525038	0.124567	-0.014557	-0.161905	-0.522269	0.472724	0.596264	0.385015
60086	9.547575	-0.158094	-1.468435	0.178074	0.035562	-0.153264	-0.522769	0.472186	0.595675	0.385906
60087	9.627579	-0.237844	-1.523263	0.114678	-0.048937	-0.063246	-0.523085	0.471910	0.594973	0.386898
60088	9.836012	-0.300010	-1.547848	0.060764	-0.079363	0.148384	-0.523379	0.471825	0.594136	0.387890
60089	9.932137	-0.295100	-1.540422	0.065733	-0.080857	0.241983	-0.523745	0.471741	0.593116	0.389057
60090	9.916941	-0.265631	-1.554483	0.101802	-0.118780	0.227638	-0.524256	0.471589	0.591856	0.390468
60091	9.668065	-0.208599	-1.519631	0.153685	-0.141155	-0.025930	-0.524813	0.471438	0.590445	0.392036
60092	9.604262	-0.146658	-1.515814	0.217561	-0.166045	-0.092294	-0.525251	0.471429	0.588975	0.393667
60093	9.773403	-0.265719	-1.549743	0.115898	-0.240927	0.082773	-0.525727	0.471484	0.587369	0.395362
60094	9.751022	-0.431139	-1.528648	-0.041916	-0.302366	0.062117	-0.526392	0.471478	0.585645	0.397038
60095	9.670791	-0.688811	-1.491781	-0.289955	-0.380082	-0.014964	-0.527332	0.471298	0.583928	0.398532
60096	9.831990	-0.692195	-1.465084	-0.286396	-0.378062	0.140628	-0.528564	0.470758	0.582320	0.399888
60097	9.704045	-0.532708	-1.408657	-0.131583	-0.347883	0.000468	-0.530086	0.469901	0.580764	0.401142
60098	9.618102	-0.328553	-1.307646	0.054892	-0.260055	-0.104190	-0.531558	0.468914	0.579362	0.402376
60099	9.782280	-0.293523	-1.246653	0.086389	-0.224166	0.050140	-0.533022	0.467838	0.577992	0.403658
60100	9.971839	-0.233363	-1.175882	0.140842	-0.174686	0.228433	-0.534647	0.466698	0.576450	0.405032
60101	9.668279	-0.296473	-1.007318	0.050976	-0.113568	-0.088367	-0.536430	0.465597	0.574718	0.406400
60102	9.650140	-0.384795	-0.933977	-0.034827	-0.120588	-0.110648	-0.538173	0.464651	0.572974	0.407640
60103	9.668016	-0.491086	-0.886202	-0.129080	-0.150858	-0.093769	-0.539997	0.463738	0.571233	0.408710
60104	9.654978	-0.497652	-0.843751	-0.124890	-0.162404	-0.110318	-0.541733	0.462851	0.569626	0.409659
60105	9.738078	-0.512317	-0.783134	-0.132653	-0.147786	-0.031773	-0.543388	0.461952	0.568165	0.410510
60106	9.659081	-0.434775	-0.662663	-0.071320	-0.063572	-0.121625	-0.544919	0.460962	0.566834	0.411432
60107	9.766993	-0.406596	-0.539101	-0.060090	0.024818	-0.022606	-0.546261	0.459855	0.565634	0.412542
60108	9.783322	-0.397080	-0.436092	-0.068583	0.081782	-0.012194	-0.547478	0.458699	0.564490	0.413780
60109	9.625674	-0.323005	-0.361028	-0.014392	0.118464	-0.175578	-0.548530	0.457608	0.563430	0.415037
60110	9.556212	-0.353832	-0.301424	-0.058243	0.125585	-0.246184	-0.549337	0.456723	0.562521	0.416178
60111	9.498568	-0.343027	-0.257169	-0.059728	0.136144	-0.305614	-0.549885	0.456006	0.561837	0.417163
60112	9.700239	-0.335149	-0.249408	-0.052724	0.130337	-0.104476	-0.550140	0.455410	0.561418	0.418040
60113	9.652879	-0.210651	-0.188185	0.045930	0.197789	-0.157813	-0.550239	0.454883	0.561129	0.418871
60114	9.655899	-0.140344	-0.182525	0.104714	0.205155	-0.156792	-0.550118	0.454532	0.560959	0.419638
60115	9.638306	-0.023006	-0.122927	0.194630	0.280966	-0.179632	-0.549766	0.454419	0.560884	0.420320
60116	9.603524	-0.092077	-0.090774	0.110378	0.291125	-0.213341	-0.549224	0.454626	0.560818	0.420893
60117	9.688338	-0.146510	-0.122999	0.058767	0.253415	-0.125953	-0.548526	0.455042	0.560833	0.421334
60118	9.787744	-0.288601	-0.184024	-0.070050	0.172374	-0.020728	-0.547818	0.455582	0.560862	0.421633
60119	9.711044	-0.386466	-0.182827	-0.171922	0.157563	-0.095035	-0.547146	0.456168	0.560930	0.421781
60120	9.614784	-0.355646	-0.177627	-0.148928	0.178235	-0.192493	-0.546458	0.456783	0.561100	0.421780
60121	9.703180	-0.401642	-0.224831	-0.186442	0.141636	-0.101419	-0.545621	0.457450	0.561406	0.421736
60122	9.739968	-0.405235	-0.207012	-0.200070	0.178302	-0.065781	-0.544745	0.458135	0.561761	0.421652
60123	9.594718	-0.365656	-0.154266	-0.182957	0.252660	-0.214836	-0.543708	0.458964	0.562202	0.421499
60124	9.751972	-0.513987	-0.248386	-0.311486	0.160726	-0.050315	-0.542561	0.459880	0.562735	0.421268
60125	9.817912	-0.489285	-0.295945	-0.284098	0.152002	0.016580	-0.541410	0.460805	0.563339	0.420931
60126	9.623737	-0.390147	-0.351793	-0.187037	0.139943	-0.177459	-0.540038	0.461818	0.564084	0.420587
60127	9.554882	-0.347533	-0.467310	-0.134858	0.068246	-0.241275	-0.538295	0.462882	0.565089	0.420301
60128	9.573432	-0.148249	-0.548230	0.056277	0.074863	-0.222892	-0.536183	0.464004	0.566288	0.420149
60129	9.753432	-0.017323	-0.713188	0.193957	-0.001431	-0.035136	-0.533716	0.465245	0.567526	0.420248
60130	9.673063	-0.106579	-0.808988	0.096286	-0.076443	-0.106060	-0.531109	0.466628	0.568620	0.420539
60131	10.272236	-0.459747	-1.077197	-0.218357	-0.321939	0.518769	-0.528797	0.468121	0.569514	0.420582
60132	9.638487	-0.155744	-0.917389	0.027333	-0.111263	-0.130072	-0.527016	0.469690	0.570037	0.420362
60133	9.735333	-0.161863	-0.925544	0.012046	-0.071088	-0.032392	-0.525067	0.471418	0.570600	0.420103
60134	9.983770	-0.236689	-1.000636	-0.055195	-0.096613	0.223270	-0.523406	0.473065	0.570898	0.419917
60135	9.895226	-0.335151	-1.005390	-0.155293	-0.094216	0.137465	-0.521961	0.474652	0.571015	0.419766
60136	9.985058	-0.510969	-1.080758	-0.314255	-0.163536	0.237434	-0.520796	0.476071	0.571006	0.419620
60137	9.690249	-0.599218	-1.154896	-0.383904	-0.256169	-0.046383	-0.519859	0.477367	0.570979	0.419346
60138	9.602841	-0.604098	-1.201939	-0.376042	-0.285440	-0.127585	-0.519023	0.478574	0.571129	0.418799
60139	9.860281	-0.613589	-1.259658	-0.371264	-0.287854	0.135559	-0.518242	0.479623	0.571462	0.418113
60140	10.281892	-0.646075	-1.270413	-0.398528	-0.233346	0.557238	-0.517804	0.480285	0.571764	0.417482
60141	10.126651	-0.508272	-1.200532	-0.272058	-0.141619	0.392929	-0.517897	0.480474	0.571825	0.417067
60142	9.656541	-0.417663	-1.115711	-0.195075	-0.089236	-0.085303	-0.518030	0.480443	0.571949	0.416766
60143	9.678725	-0.310738	-1.163168	-0.079510	-0.108536	-0.060297	-0.518034	0.480398	0.572179	0.416497
60144	9.615155	-0.195693	-1.128192	0.024601	-0.052025	-0.129765	-0.517745	0.480506	0.572544	0.416232
60145	9.879513	-0.106087	-1.085704	0.098742	0.046235	0.126270	-0.517298	0.480655	0.572857	0.416183
60146	9.937308	-0.339907	-1.126954	-0.127277	-0.026151	0.193250	-0.517008	0.480828	0.572961	0.416200
60147	9.870646	-0.338212	-1.141344	-0.124724	-0.044095	0.128600	-0.516906	0.480898	0.572973	0.416230
60148	9.657919	-0.228606	-1.116709	-0.023956	-0.021236	-0.087788	-0.516708	0.480939	0.573065	0.416302
60149	9.594187	-0.083296	-1.109800	0.112177	0.009146	-0.154823	-0.516343	0.480997	0.573205	0.416494
60150	9.744514	0.035730	-1.214598	0.240572	-0.047804	0.004232	-0.515719	0.481189	0.573403	0.416773
60151	9.875635	-0.033926	-1.287854	0.176780	-0.111971	0.144425	-0.515112	0.481483	0.573442	0.417130
60152	9.727345	-0.096101	-1.290978	0.110663	-0.139305	-0.001192	-0.514592	0.481902	0.573355	0.417408
60153	9.804695	-0.154585	-1.347565	0.060812	-0.191471	0.083348	-0.514148	0.482387	0.573182	0.417633
60154	10.015341	-0.124523	-1.370624	0.093200	-0.180679	0.294728	-0.513915	0.482751	0.572889	0.417901
60155	9.835266	0.055004	-1.307326	0.258837	-0.108850	0.105263	-0.513772	0.483037	0.572410	0.418403
60156	9.661692	-0.023046	-1.213430	0.165484	-0.058125	-0.076647	-0.513564	0.483364	0.571888	0.418992
60157	9.803317	-0.132156	-1.153674	0.047476	-0.008642	0.059046	-0.513342	0.483816	0.571318	0.419522
60158	9.736125	-0.328523	-1.118922	-0.147439	-0.022616	-0.008107	-0.513293	0.484312	0.570681	0.419876
60159	9.669395	-0.549877	-1.115247	-0.356087	-0.069405	-0.070423	-0.513476	0.484828	0.570098	0.419849
60160	9.563708	-0.382159	-1.013592	-0.197961	0.048792	-0.189988	-0.513662	0.485253	0.569726	0.419634
60161	9.523709	-0.286024	-0.992132	-0.098895	0.085190	-0.234059	-0.513683	0.485557	0.569567	0.419473
60162	9.612650	-0.308259	-1.054054	-0.106510	0.036582	-0.138163	-0.513419	0.485858	0.569654	0.419329
60163	9.579404	-0.509322	-1.120995	-0.291626	-0.059748	-0.159067	-0.513151	0.486184	0.569852	0.419010
60164	9.696340	-0.479701	-1.202004	-0.246372	-0.106553	-0.034044	-0.512892	0.486531	0.570216	0.418429
60165	9.747266	-0.475558	-1.263947	-0.229399	-0.144936	0.023941	-0.512672	0.486784	0.570656	0.417804
60166	9.584569	-0.426245	-1.338570	-0.167763	-0.213760	-0.129528	-0.512401	0.486903	0.571213	0.417237
60167	9.638027	-0.496183	-1.414211	-0.226298	-0.278510	-0.065433	-0.512017	0.486950	0.571932	0.416667
60168	9.689113	-0.379423	-1.483673	-0.103659	-0.302358	-0.008506	-0.511718	0.486935	0.572689	0.416012
60169	9.866217	-0.076116	-1.385756	0.171463	-0.113433	0.148541	-0.511428	0.486938	0.573325	0.415489
60170	10.036588	0.194293	-1.325082	0.420654	0.027238	0.304081	-0.511173	0.486942	0.573577	0.415450
60171	9.984477	0.042665	-1.332727	0.268475	-0.014854	0.256844	-0.510986	0.486977	0.573386	0.415902
60172	9.810629	-0.258296	-1.317455	-0.031284	-0.085083	0.088960	-0.511058	0.487032	0.572904	0.416414
60173	9.595314	-0.637675	-1.360293	-0.391693	-0.232873	-0.111171	-0.511371	0.487112	0.572405	0.416622
60174	9.697708	-0.908119	-1.479553	-0.625516	-0.392388	0.011468	-0.511993	0.487088	0.572129	0.416265
60175	9.639868	-0.512665	-1.411334	-0.236470	-0.265667	-0.063060	-0.512832	0.486745	0.572091	0.415686
60176	9.359937	-0.201742	-1.242225	0.042975	-0.081512	-0.368972	-0.513144	0.486251	0.572463	0.415367
60177	9.773574	-0.274344	-1.275508	-0.026032	-0.076842	0.047249	-0.513200	0.485715	0.572959	0.415240
60178	9.895797	-0.222468	-1.239019	0.012442	-0.017587	0.162832	-0.513369	0.485281	0.573268	0.415112
60179	9.733548	-0.249710	-1.214664	-0.019930	-0.022249	-0.000510	-0.513704	0.484934	0.573376	0.414955
60180	9.713056	-0.288898	-1.186943	-0.061677	-0.008803	-0.023312	-0.514022	0.484682	0.573436	0.414773
60181	9.753320	-0.298992	-1.148970	-0.075661	0.027823	0.012295	-0.514378	0.484456	0.573436	0.414596
60182	9.499720	-0.379331	-1.108329	-0.158787	0.017820	-0.242346	-0.514656	0.484287	0.573463	0.414410
60183	9.576312	-0.555647	-1.199507	-0.312006	-0.095081	-0.151066	-0.514762	0.484174	0.573684	0.414105
60184	9.607146	-0.573474	-1.243303	-0.319686	-0.132910	-0.114643	-0.514838	0.484106	0.574008	0.413640
60185	9.639802	-0.657496	-1.317365	-0.386820	-0.210293	-0.071040	-0.514884	0.483960	0.574493	0.413080
60186	9.778740	-0.615439	-1.386726	-0.333167	-0.244580	0.074410	-0.514938	0.483647	0.575123	0.412502
60187	9.776739	-0.440474	-1.371818	-0.169140	-0.190511	0.066362	-0.515006	0.483097	0.575799	0.412118
60188	9.734275	-0.233832	-1.360237	0.021535	-0.140376	0.017920	-0.514850	0.482502	0.576540	0.411975
60189	9.697757	-0.201035	-1.294072	0.026743	-0.071332	-0.027203	-0.514539	0.481983	0.577211	0.412030
60190	9.638846	-0.158106	-1.205981	0.037047	0.018045	-0.097492	-0.514167	0.481629	0.577745	0.412161
60191	9.439306	-0.026091	-1.203001	0.151280	0.025422	-0.298233	-0.513493	0.481402	0.578258	0.412547
60192	9.668448	-0.020989	-1.283475	0.149974	-0.018205	-0.060572	-0.512496	0.481271	0.578793	0.413188
60193	9.603326	0.155589	-1.296865	0.302363	-0.000230	-0.125662	-0.511367	0.481295	0.579129	0.414087
60194	9.896638	0.096810	-1.409907	0.239512	-0.080043	0.181153	-0.510048	0.481638	0.579290	0.415090
60195	9.899064	-0.165389	-1.433174	-0.032182	-0.149386	0.189784	-0.508986	0.482237	0.579049	0.416033
60196	10.020141	0.007506	-1.359766	0.109170	-0.029434	0.298666	-0.508146	0.482838	0.578449	0.417194
60197	9.555246	0.339794	-1.269137	0.414027	0.054731	-0.176585	-0.507053	0.483572	0.577572	0.418885
60198	9.782848	0.786442	-1.260652	0.830150	0.162145	0.046133	-0.505349	0.484625	0.576401	0.421335
60199	9.884183	0.638833	-1.270780	0.666949	0.120478	0.150278	-0.503489	0.486327	0.574460	0.424241
60200	10.141407	0.583878	-1.236243	0.593627	0.154509	0.402059	-0.501727	0.488620	0.571735	0.427364
60201	10.392136	0.787912	-1.269894	0.797667	0.151875	0.654903	-0.500104	0.491244	0.568084	0.431109
60202	9.377488	0.747102	-1.140040	0.761597	0.108473	-0.367943	-0.498161	0.494464	0.563827	0.435248
60203	9.258256	0.558132	-1.175099	0.588127	0.000003	-0.482000	-0.495482	0.498411	0.559457	0.439423
60204	9.586005	-0.642246	-1.295982	-0.583890	-0.241456	-0.138789	-0.492797	0.502744	0.555028	0.443106
60205	10.192264	-0.933219	-1.287329	-0.862217	-0.195299	0.464898	-0.490885	0.506590	0.550863	0.446037
60206	9.865671	-0.526618	-1.139616	-0.445644	-0.059322	0.122367	-0.489744	0.509662	0.546760	0.448831
60207	9.142705	-0.201232	-1.006087	-0.112136	0.001671	-0.613277	-0.488249	0.512446	0.543342	0.451433
60208	9.405793	-0.209547	-1.075458	-0.106905	-0.046674	-0.344010	-0.486129	0.515105	0.540681	0.453882
60209	9.616856	-0.962187	-1.187540	-0.846256	-0.177347	-0.113597	-0.484323	0.517686	0.538327	0.455672
60210	9.662979	-1.052641	-1.127059	-0.926326	-0.105954	-0.071942	-0.483372	0.519916	0.536445	0.456361
60211	9.931399	-0.433158	-1.215031	-0.283206	-0.124856	0.197348	-0.482688	0.521570	0.535029	0.456860
60212	9.805409	-0.316626	-1.276161	-0.153806	-0.189863	0.077468	-0.482018	0.522776	0.533960	0.457439
60213	9.380843	-0.426520	-1.212155	-0.267191	-0.172772	-0.349591	-0.481262	0.523673	0.533397	0.457866
60214	9.660969	-0.588755	-1.246424	-0.423492	-0.171563	-0.064573	-0.480675	0.524381	0.533273	0.457816
60215	9.575881	-0.633690	-1.284008	-0.460526	-0.207352	-0.143529	-0.480739	0.524961	0.533308	0.457043
60216	10.235890	-0.542224	-1.374175	-0.340699	-0.206571	0.521577	-0.481295	0.525203	0.533511	0.455942
60217	10.055049	-0.357011	-1.377839	-0.137583	-0.219639	0.339292	-0.482429	0.525059	0.533590	0.454815
60218	9.806375	-0.335080	-1.340437	-0.100066	-0.213359	0.087741	-0.483714	0.524652	0.533728	0.453756
60219	9.294510	-0.184960	-1.194263	0.052677	-0.125150	-0.440926	-0.484995	0.524178	0.533971	0.452650
60220	9.424496	-0.317431	-1.276021	-0.057499	-0.196562	-0.299110	-0.485832	0.523871	0.534511	0.451469
60221	9.779089	-0.490819	-1.372009	-0.201277	-0.253948	0.069056	-0.486949	0.523586	0.535028	0.449981
60222	10.059684	-0.448713	-1.361482	-0.131100	-0.204179	0.345723	-0.488264	0.523238	0.535508	0.448388
60223	10.091961	-0.162879	-1.263516	0.174382	-0.087675	0.357490	-0.489826	0.522793	0.535657	0.447023
60224	9.626593	0.237682	-1.123107	0.575529	0.014248	-0.134998	-0.491164	0.522347	0.535532	0.446225
60225	9.309187	0.108452	-1.092357	0.450168	-0.006064	-0.449821	-0.491751	0.522251	0.535404	0.445845
60226	9.575573	-0.604863	-1.264715	-0.230885	-0.189478	-0.139646	-0.492030	0.522569	0.535331	0.445251
60227	9.873427	-1.446549	-1.462834	-1.028286	-0.397248	0.212366	-0.492895	0.522890	0.535392	0.443842
60228	9.832071	-1.515148	-1.441657	-1.066404	-0.380898	0.175367	-0.494733	0.522669	0.535776	0.441589
60229	9.758417	-0.834961	-1.390044	-0.359163	-0.290653	0.068736	-0.496836	0.521782	0.536676	0.439177
60230	9.875330	-0.962748	-1.412757	-0.454342	-0.312067	0.194363	-0.498917	0.520187	0.537980	0.437110
60231	9.484443	-1.889011	-1.452818	-1.368508	-0.486532	-0.141901	-0.501526	0.517936	0.539750	0.434607
60232	9.316033	-2.633992	-1.528299	-2.083097	-0.672653	-0.259145	-0.505056	0.514825	0.542545	0.430718
60233	9.637035	-2.377449	-1.607827	-1.771988	-0.716505	0.059309	-0.509544	0.510525	0.546524	0.425489
60234	9.447247	-1.206706	-1.472867	-0.605456	-0.486012	-0.206798	-0.514406	0.505091	0.551374	0.419829
60235	9.388111	-0.017968	-1.271385	0.547201	-0.128292	-0.355548	-0.518561	0.499145	0.556744	0.414710
60236	9.559974	0.252843	-1.233572	0.798598	-0.014694	-0.203281	-0.521657	0.493340	0.562065	0.410576
60237	9.715305	-0.036734	-1.257050	0.493530	-0.060178	-0.028957	-0.524080	0.487875	0.567114	0.407062
60238	9.894068	-0.054323	-1.200378	0.436593	0.020297	0.144488	-0.526333	0.482787	0.571710	0.403780
60239	9.898941	0.135137	-1.055725	0.561049	0.207102	0.125326	-0.528529	0.478242	0.575631	0.400737
60240	9.939063	0.280978	-0.902978	0.644487	0.396417	0.142550	-0.530610	0.474227	0.578885	0.398063
60241	9.838831	0.382184	-0.792312	0.695148	0.514968	0.027434	-0.532531	0.470763	0.581419	0.395910
60242	9.599348	0.141777	-0.801790	0.445829	0.414896	-0.198139	-0.533990	0.467885	0.583601	0.394142
60243	9.500948	-0.273103	-0.834712	0.037379	0.264633	-0.274978	-0.535027	0.465455	0.585740	0.392437
60244	9.547214	-0.374578	-0.875692	-0.065421	0.209670	-0.220598	-0.535716	0.463297	0.588061	0.390576
60245	9.864177	-0.167418	-0.861709	0.111750	0.329895	0.084342	-0.536096	0.461288	0.590479	0.388779
60246	9.884464	0.034118	-0.868174	0.283874	0.397344	0.097862	-0.536260	0.459516	0.592659	0.387331
60247	9.723482	0.052109	-0.885211	0.282916	0.380880	-0.060393	-0.536218	0.458096	0.594531	0.386199
60248	9.719977	-0.037515	-1.013236	0.213755	0.247689	-0.045451	-0.536010	0.457133	0.596071	0.385256
60249	9.732721	-0.239242	-1.175798	0.052123	0.051559	-0.006557	-0.535760	0.456478	0.597339	0.384416
60250	9.762734	-0.272755	-1.258491	0.030910	-0.019341	0.034537	-0.535526	0.455883	0.598429	0.383751
60251	9.697682	-0.215375	-1.275113	0.078106	-0.015982	-0.029490	-0.535245	0.455330	0.599384	0.383310
60252	9.756665	-0.174357	-1.342561	0.122982	-0.051755	0.036555	-0.534890	0.454880	0.600186	0.383085
60253	9.795249	-0.155993	-1.334510	0.124639	-0.028316	0.073455	-0.534580	0.454529	0.600731	0.383080
60254	9.905814	-0.042996	-1.360103	0.227790	-0.003471	0.183561	-0.534317	0.454316	0.600949	0.383357
60255	9.859403	-0.222568	-1.406694	0.063504	-0.111364	0.148222	-0.534170	0.454254	0.600788	0.383887
60256	9.706478	-0.356533	-1.376065	-0.074467	-0.148938	-0.004087	-0.534108	0.454350	0.600454	0.384383
60257	9.652016	-0.290797	-1.362408	-0.015261	-0.129956	-0.061534	-0.534068	0.454508	0.600082	0.384832
60258	9.560758	-0.058643	-1.286765	0.185221	-0.006250	-0.167329	-0.533837	0.454840	0.599711	0.385337
60259	9.756781	0.137037	-1.346674	0.386167	0.017029	0.029958	-0.533398	0.455472	0.599199	0.385995
60260	9.921098	0.361301	-1.384494	0.609876	0.065122	0.192279	-0.532789	0.456540	0.598321	0.386935
60261	10.026156	0.539215	-1.406489	0.790331	0.102855	0.294615	-0.532104	0.458152	0.596801	0.388318
60262	10.021945	0.466816	-1.396619	0.731572	0.079970	0.290095	-0.531369	0.460485	0.594486	0.390111
60263	9.864273	0.086813	-1.385213	0.387395	-0.048647	0.141091	-0.530697	0.463371	0.591440	0.392233
60264	9.700116	-0.291304	-1.344894	0.042703	-0.145724	-0.016633	-0.530061	0.466601	0.588046	0.394362
60265	9.626053	-0.291325	-1.289308	0.061325	-0.113322	-0.097166	-0.529417	0.469939	0.584539	0.396472
60266	9.560827	-0.297443	-1.252194	0.078421	-0.098235	-0.166445	-0.528536	0.473397	0.580978	0.398760
60267	9.818318	-0.595093	-1.352527	-0.155690	-0.243916	0.111981	-0.527448	0.476815	0.577456	0.401236
60268	9.766481	-1.051826	-1.427148	-0.559866	-0.434611	0.088063	-0.526464	0.479932	0.574053	0.403689
60269	9.651104	-1.059468	-1.379558	-0.559932	-0.413017	-0.030800	-0.525661	0.482551	0.570974	0.405973
60270	9.445390	-0.782187	-1.211577	-0.313348	-0.228449	-0.265713	-0.524880	0.484712	0.568260	0.408211
60271	9.622818	-0.580251	-1.182461	-0.108129	-0.152977	-0.101950	-0.523923	0.486619	0.565883	0.410467
60272	9.828387	-0.436834	-1.202004	0.046736	-0.136566	0.097507	-0.522979	0.488385	0.563560	0.412763
60273	9.728784	-0.202756	-1.160301	0.271706	-0.082379	-0.016974	-0.522098	0.490163	0.561130	0.415075
60274	9.473199	-0.053102	-1.054112	0.401018	0.001658	-0.289315	-0.521070	0.492282	0.558592	0.417277
60275	9.528357	0.041934	-1.041253	0.506448	0.023490	-0.240933	-0.519826	0.494861	0.555931	0.419326
60276	9.538722	0.164931	-1.004591	0.638337	0.073257	-0.241337	-0.518256	0.497981	0.553075	0.421347
60277	9.812067	-0.057601	-1.033726	0.452591	0.038807	0.043386	-0.516371	0.501615	0.549967	0.423414
60278	9.869711	-0.120548	-1.064965	0.421343	0.007704	0.106094	-0.514479	0.505537	0.546523	0.425507
60279	9.577949	-0.063365	-1.009124	0.486919	0.042334	-0.193930	-0.512358	0.509916	0.542795	0.427607
60280	9.419547	-0.319153	-0.949111	0.250924	0.064845	-0.343620	-0.509882	0.514840	0.538925	0.429557
60281	9.534571	-0.729896	-1.038385	-0.104625	-0.030282	-0.194633	-0.507249	0.520144	0.535020	0.431163
60282	9.616080	-1.105176	-1.224106	-0.415782	-0.205192	-0.067247	-0.504707	0.525382	0.531243	0.432465
60283	9.480702	-0.973400	-1.189487	-0.259398	-0.140173	-0.212742	-0.502185	0.530274	0.527751	0.433704
60284	9.435733	-0.961137	-1.237207	-0.217226	-0.156846	-0.251538	-0.499379	0.534890	0.524631	0.435058
60285	9.548562	-0.730527	-1.294135	0.043013	-0.151517	-0.150464	-0.496176	0.539319	0.521805	0.436651
60286	9.758032	-0.868883	-1.473222	-0.061034	-0.271203	0.090197	-0.492552	0.543734	0.519091	0.438509
60287	9.798465	-0.985347	-1.541582	-0.168204	-0.297920	0.149247	-0.488941	0.548013	0.516319	0.440492
60288	9.707599	-0.852426	-1.451646	-0.041588	-0.183264	0.037997	-0.485496	0.552196	0.513361	0.442531
60289	9.549466	-0.693098	-1.389717	0.108192	-0.113268	-0.139042	-0.481986	0.556320	0.510266	0.444777
60290	9.881102	-0.780352	-1.408823	0.051626	-0.062911	0.198468	-0.478425	0.560301	0.507031	0.447316
60291	9.847600	-1.041331	-1.391472	-0.209538	-0.024127	0.184876	-0.475100	0.564041	0.503593	0.450036
60292	9.570600	-1.177471	-1.348348	-0.366084	0.001560	-0.082999	-0.472078	0.567467	0.500165	0.452723
60293	9.569030	-1.417826	-1.354306	-0.604368	0.022610	-0.063590	-0.469092	0.570650	0.497069	0.455230
60294	9.743002	-1.787871	-1.390591	-0.958582	0.052000	0.143953	-0.466394	0.573443	0.494409	0.457383
60295	9.583785	-1.874124	-1.351023	-1.057189	0.095859	-0.011683	-0.464204	0.575654	0.492355	0.459046
60296	9.273333	-1.749947	-1.211525	-0.956924	0.202781	-0.348653	-0.462100	0.577373	0.491209	0.460238
60297	9.608435	-1.676873	-1.280815	-0.869537	0.200371	-0.015847	-0.459875	0.578662	0.490993	0.461076
60298	9.699947	-1.552436	-1.295745	-0.757621	0.217767	0.064380	-0.457855	0.579490	0.491376	0.461638
60299	9.777955	-1.341084	-1.410857	-0.572451	0.126676	0.139878	-0.456054	0.579993	0.492211	0.461900
60300	9.694012	-0.949846	-1.535436	-0.226380	-0.014393	0.045409	-0.454392	0.580224	0.493341	0.462042
60301	9.526673	-0.658503	-1.612609	0.015837	-0.111350	-0.128740	-0.452654	0.580440	0.494639	0.462090
60302	9.559680	-0.563915	-1.765255	0.073415	-0.232086	-0.078100	-0.450909	0.580693	0.495987	0.462033
60303	9.785224	-0.482750	-1.923374	0.134358	-0.327270	0.165175	-0.449351	0.580937	0.497206	0.461933
60304	9.924377	-0.514755	-2.077788	0.080163	-0.425654	0.330673	-0.448194	0.581126	0.498102	0.461855
60305	9.955967	-0.710301	-2.164561	-0.132476	-0.468256	0.388994	-0.447645	0.581134	0.498666	0.461768
60306	9.577732	-1.014916	-2.077295	-0.462519	-0.405671	0.020911	-0.447699	0.580868	0.499141	0.461537
60307	9.715586	-1.104323	-2.039248	-0.539805	-0.336393	0.155568	-0.448171	0.580258	0.499864	0.461063
60308	9.579238	-0.605263	-1.805370	-0.038644	-0.177764	-0.047729	-0.448786	0.579256	0.500788	0.460722
60309	9.629529	-0.266970	-1.665740	0.299705	-0.067004	-0.041329	-0.448992	0.578094	0.501834	0.460843
60310	9.801250	-0.415686	-1.604378	0.148731	0.030245	0.126541	-0.448958	0.577091	0.502695	0.461195
60311	9.832028	-0.615268	-1.600890	-0.065255	0.050701	0.167460	-0.449096	0.576273	0.503266	0.461460
60312	9.668649	-0.794710	-1.489713	-0.256354	0.143121	-0.002113	-0.449426	0.575687	0.503642	0.461460
60313	9.653148	-0.791794	-1.446550	-0.254394	0.177873	-0.024616	-0.449857	0.575229	0.503975	0.461247
60314	9.547932	-0.726562	-1.389323	-0.194260	0.208533	-0.141085	-0.450156	0.574770	0.504351	0.461118
60315	9.557228	-0.629290	-1.397023	-0.103221	0.191608	-0.135864	-0.450236	0.574278	0.504736	0.461230
60316	9.558503	-0.562613	-1.474643	-0.052865	0.107312	-0.125492	-0.450059	0.573825	0.505072	0.461599
60317	9.621852	-0.760780	-1.594364	-0.270054	0.012418	-0.033745	-0.449675	0.573336	0.505400	0.462223
60318	9.745321	-1.133121	-1.714071	-0.661879	-0.061198	0.124687	-0.449399	0.572551	0.505886	0.462931
60319	9.715311	-1.045478	-1.755603	-0.602606	-0.122015	0.096115	-0.449441	0.571329	0.506752	0.463452
60320	9.720582	-0.846704	-1.637437	-0.422161	-0.029535	0.072082	-0.449602	0.569781	0.508015	0.463820
60321	9.895611	-1.204160	-1.683749	-0.800637	-0.032297	0.265307	-0.450113	0.567818	0.509631	0.463959
60322	9.992536	-1.855437	-1.778944	-1.478446	-0.085220	0.398330	-0.451583	0.565016	0.511903	0.463449
60323	9.404674	-1.424084	-1.703394	-1.096037	-0.155864	-0.213116	-0.453908	0.561175	0.515238	0.462147
60324	8.782910	-0.543587	-1.487028	-0.262189	-0.099407	-0.892624	-0.456015	0.556770	0.519865	0.460214
60325	8.999783	-0.083915	-1.479411	0.166478	-0.069479	-0.693528	-0.457587	0.552272	0.525383	0.457802
60326	9.495913	0.023847	-1.694273	0.240139	-0.183106	-0.171522	-0.458904	0.547875	0.531196	0.455050
60327	9.662249	-0.439615	-1.978643	-0.261747	-0.405711	0.048046	-0.460487	0.543421	0.537093	0.451858
60328	9.138447	0.064009	-2.062990	0.205694	-0.541703	-0.462000	-0.462459	0.538925	0.543058	0.448083
60329	9.115854	0.745224	-1.979155	0.861657	-0.402531	-0.503207	-0.463861	0.534976	0.549074	0.444018
60330	9.550934	0.780237	-2.073310	0.879370	-0.360762	-0.054413	-0.464917	0.531625	0.554614	0.440034
60331	9.661551	0.572667	-2.185270	0.660039	-0.403718	0.079229	-0.465877	0.528782	0.559469	0.436283
60332	9.360560	-0.024076	-2.293684	0.063117	-0.552137	-0.191220	-0.466818	0.526279	0.563911	0.432569
60333	9.149771	0.114465	-2.287150	0.195929	-0.524018	-0.397315	-0.467483	0.523957	0.568470	0.428684
60334	9.214850	0.516860	-2.205904	0.575334	-0.338642	-0.346929	-0.467486	0.521808	0.573081	0.425150
60335	9.330157	0.529370	-2.226467	0.563164	-0.271930	-0.226358	-0.466887	0.519874	0.577553	0.422114
60336	9.317344	0.028929	-2.330866	0.047741	-0.368922	-0.215399	-0.466056	0.518235	0.581725	0.419309
60337	9.281119	-0.664082	-2.393287	-0.657742	-0.459280	-0.238549	-0.465395	0.516660	0.585995	0.416029
60338	9.676491	-0.251806	-2.518424	-0.266656	-0.383921	0.178382	-0.465017	0.514861	0.590464	0.412347
60339	9.957780	0.254014	-2.476721	0.196874	-0.149956	0.448620	-0.464680	0.512900	0.594737	0.409016
60340	9.989358	0.123031	-2.361718	0.025567	0.003436	0.452752	-0.464619	0.510864	0.598395	0.406290
60341	9.655993	-0.560436	-2.306147	-0.662973	-0.086431	0.108175	-0.464974	0.508728	0.601703	0.403668
60342	9.747970	-0.629132	-2.360390	-0.737864	-0.101458	0.209057	-0.465945	0.506357	0.605018	0.400564
60343	9.902887	0.543049	-2.210402	0.377958	0.305809	0.336771	-0.467158	0.503869	0.608095	0.397618
60344	10.048406	1.020807	-2.078246	0.806167	0.578054	0.451206	-0.467931	0.501778	0.610496	0.395669
60345	9.852748	0.017749	-2.031737	-0.187666	0.401152	0.237624	-0.468642	0.500142	0.612143	0.394352
60346	9.404828	-0.658916	-1.998320	-0.833571	0.201240	-0.213578	-0.469675	0.498717	0.613662	0.392562
60347	9.615508	-0.472819	-2.080017	-0.642070	0.220063	0.013162	-0.470821	0.497344	0.615401	0.390203
60348	9.907804	-0.072036	-2.135347	-0.251951	0.331909	0.314297	-0.471921	0.495612	0.617235	0.388176
60349	9.886521	0.199108	-2.119751	0.006473	0.406637	0.292306	-0.472791	0.493640	0.619046	0.386743
60350	9.825717	0.208823	-2.031430	-0.009103	0.479156	0.211551	-0.473629	0.491749	0.620554	0.385710
60351	9.664152	-0.082119	-1.951403	-0.307220	0.449872	0.031792	-0.474492	0.490121	0.621903	0.384545
60352	9.551311	-0.129775	-1.946445	-0.349031	0.418277	-0.079433	-0.475513	0.488636	0.623260	0.382974
60353	9.416073	-0.005269	-1.935149	-0.220559	0.432484	-0.212085	-0.476408	0.487161	0.624825	0.381186
60354	9.497381	0.308591	-2.030943	0.098718	0.448536	-0.106542	-0.477164	0.485656	0.626493	0.379420
60355	9.590672	0.695453	-1.999747	0.454604	0.609622	-0.020583	-0.477621	0.484376	0.628039	0.377922
60356	9.598881	0.672998	-1.970675	0.418911	0.649269	-0.020959	-0.477771	0.483620	0.629220	0.376735
60357	9.783994	0.234725	-2.026324	-0.010042	0.547239	0.166693	-0.477703	0.483288	0.630087	0.375797
60358	9.934067	-0.239157	-2.058400	-0.473492	0.446914	0.314304	-0.477774	0.483015	0.630761	0.374925
60359	9.634248	-0.495694	-2.061386	-0.697028	0.313815	0.022425	-0.478145	0.482463	0.631462	0.373981
60360	9.624768	-0.467470	-2.147772	-0.648447	0.243622	0.035550	-0.478532	0.481475	0.632502	0.373002
60361	9.755833	-0.151084	-2.203657	-0.345746	0.310550	0.179270	-0.478957	0.480105	0.633770	0.372068
60362	9.961471	0.122916	-2.319368	-0.078691	0.325814	0.410478	-0.479505	0.478517	0.634933	0.371426
60363	10.098291	0.146378	-2.394432	-0.058821	0.286110	0.562517	-0.480243	0.476819	0.635762	0.371238
60364	10.120055	0.008094	-2.412199	-0.197504	0.214296	0.586797	-0.481373	0.474955	0.636189	0.371431
60365	9.442858	-0.179339	-2.315268	-0.349643	0.057917	-0.094946	-0.482791	0.473084	0.636399	0.371620
60366	9.344026	-0.246663	-2.244073	-0.423677	0.051725	-0.209288	-0.484260	0.471207	0.636786	0.371428
60367	9.540990	-0.078060	-2.249241	-0.273852	0.115312	-0.014355	-0.485816	0.469307	0.637272	0.370969
60368	9.589138	0.074207	-2.201569	-0.140308	0.189902	0.023378	-0.487441	0.467386	0.637699	0.370529
60369	9.559470	0.128065	-2.183848	-0.085777	0.189184	-0.008308	-0.489067	0.465480	0.638038	0.370202
60370	9.675457	-0.017319	-2.213511	-0.221144	0.115761	0.109611	-0.490699	0.463514	0.638313	0.370036
60371	9.559043	-0.185144	-2.228965	-0.360317	-0.006906	-0.002086	-0.492498	0.461486	0.638538	0.369790
60372	9.337478	-0.085001	-2.194132	-0.247951	-0.024049	-0.223746	-0.494313	0.459404	0.638859	0.369408
60373	9.063382	0.226882	-2.179536	0.072369	0.000029	-0.488447	-0.495761	0.457316	0.639423	0.369081
60374	9.021045	0.447723	-2.165450	0.277152	0.055209	-0.528885	-0.496493	0.455553	0.640256	0.368835
60375	9.115293	0.504368	-2.210449	0.323696	0.043697	-0.425338	-0.496569	0.454257	0.641223	0.368650
60376	9.250351	0.388567	-2.348920	0.228190	-0.091626	-0.264027	-0.496278	0.453416	0.642199	0.368378
60377	9.281677	0.233613	-2.475580	0.103863	-0.242693	-0.207330	-0.495884	0.452990	0.643125	0.367818
60378	9.325231	0.176135	-2.616580	0.078834	-0.365961	-0.132953	-0.495409	0.452793	0.644086	0.367018
60379	9.168947	0.156578	-2.714955	0.096949	-0.475466	-0.261270	-0.494812	0.452689	0.645127	0.366121
60380	9.022390	0.168122	-2.812489	0.140763	-0.567728	-0.378723	-0.493890	0.452636	0.646412	0.365164
60381	9.311764	0.134950	-2.971637	0.113299	-0.630752	-0.058356	-0.492713	0.452631	0.647870	0.364176
60382	9.386449	0.248901	-3.001922	0.203807	-0.571461	0.026555	-0.491621	0.452567	0.649305	0.363172
60383	9.276067	0.340748	-3.025236	0.291209	-0.554923	-0.069960	-0.490528	0.452537	0.650702	0.362185
60384	9.397498	0.383913	-3.046466	0.308480	-0.499889	0.056261	-0.489476	0.452580	0.652025	0.361176
60385	9.432827	0.409441	-3.023494	0.306346	-0.430601	0.087213	-0.488519	0.452698	0.653183	0.360230
60386	9.218133	0.483291	-3.005981	0.380453	-0.410852	-0.120947	-0.487527	0.452915	0.654200	0.359456
60387	9.267549	0.520081	-3.038954	0.405653	-0.387481	-0.061873	-0.486324	0.453364	0.655173	0.358745
60388	9.226399	0.551963	-3.047499	0.427765	-0.362568	-0.096525	-0.484935	0.454095	0.656036	0.358123
60389	9.405134	0.413787	-3.112208	0.282115	-0.390376	0.090923	-0.483416	0.455080	0.656776	0.357570
60390	9.376953	0.247700	-3.137667	0.124748	-0.441979	0.067726	-0.482118	0.456199	0.657261	0.357005
60391	9.623776	0.202677	-3.236415	0.077202	-0.452912	0.332329	-0.481028	0.457288	0.657630	0.356404
60392	9.607004	0.153290	-3.249844	0.034461	-0.457714	0.319872	-0.480307	0.458259	0.657786	0.355839
60393	9.361458	0.133884	-3.198734	0.030965	-0.458078	0.070424	-0.479810	0.459114	0.657844	0.355298
60394	9.222474	0.202850	-3.198256	0.114329	-0.450861	-0.060372	-0.479261	0.459877	0.657990	0.354784
60395	9.213013	0.226351	-3.169946	0.128052	-0.400613	-0.076030	-0.478581	0.460583	0.658199	0.354399
60396	9.413428	0.158517	-3.163530	0.034087	-0.345079	0.113309	-0.477718	0.461285	0.658486	0.354116
60397	9.561710	0.036440	-3.120032	-0.118438	-0.287778	0.240439	-0.476930	0.461942	0.658686	0.353950
60398	9.614261	-0.033460	-3.067025	-0.212041	-0.233945	0.274040	-0.476376	0.462457	0.658769	0.353869
60399	9.685283	0.032381	-2.959546	-0.194308	-0.087365	0.312493	-0.476055	0.462745	0.658775	0.353913
60400	9.723698	0.082760	-2.872655	-0.179810	0.018152	0.325193	-0.476049	0.462740	0.658613	0.354228
60401	9.496550	0.180638	-2.697380	-0.114626	0.137620	0.059539	-0.476380	0.462489	0.658214	0.354852
60402	8.992687	0.246932	-2.552816	-0.036969	0.140112	-0.462541	-0.476728	0.462179	0.657807	0.355543
60403	8.629896	0.476415	-2.400786	0.173075	0.244902	-0.847426	-0.476569	0.462099	0.657661	0.356130
60404	8.807846	0.567911	-2.475484	0.251721	0.252388	-0.652905	-0.475692	0.462404	0.657830	0.356594
60405	9.042539	0.544764	-2.603137	0.224844	0.200208	-0.391970	-0.474378	0.463020	0.658130	0.356991
60406	9.418057	0.579680	-2.871663	0.275112	0.083042	0.046300	-0.472889	0.463883	0.658411	0.357328
60407	9.805410	0.544032	-3.100791	0.247075	-0.016522	0.482728	-0.471696	0.464863	0.658358	0.357730
60408	9.887866	0.335080	-3.251888	0.076288	-0.186828	0.599624	-0.470990	0.465910	0.657893	0.358153
60409	9.775469	0.145449	-3.330886	-0.064821	-0.344640	0.509753	-0.470783	0.466843	0.657159	0.358557
60410	9.567976	-0.008465	-3.275809	-0.193811	-0.401426	0.290700	-0.470960	0.467499	0.656353	0.358945
60411	9.396083	-0.078506	-3.164505	-0.260956	-0.376244	0.091703	-0.471436	0.467824	0.655615	0.359246
60412	9.214431	-0.044940	-2.963089	-0.253526	-0.242253	-0.139804	-0.472101	0.467864	0.655007	0.359431
60413	9.192632	-0.050805	-2.787157	-0.294739	-0.100239	-0.211731	-0.472799	0.467784	0.654576	0.359402
60414	9.289515	0.009610	-2.619875	-0.284367	0.089043	-0.165402	-0.473448	0.467678	0.654298	0.359191
60415	9.119355	0.070198	-2.487351	-0.235576	0.178738	-0.364565	-0.473955	0.467550	0.654176	0.358910
60416	9.066444	-0.010250	-2.513043	-0.292960	0.117006	-0.409689	-0.474045	0.467509	0.654352	0.358525
60417	9.199069	0.037475	-2.630991	-0.229239	0.067665	-0.247687	-0.473723	0.467477	0.654861	0.358062
60418	9.269122	0.098431	-2.711012	-0.162928	0.046765	-0.156232	-0.473126	0.467486	0.655577	0.357530
60419	9.288798	0.183987	-2.808197	-0.066583	0.008457	-0.107172	-0.472337	0.467519	0.656396	0.357026
60420	9.412803	0.260340	-2.926149	0.012473	-0.021921	0.047855	-0.471467	0.467586	0.657196	0.356618
60421	9.597793	0.302968	-3.068003	0.058626	-0.069629	0.267677	-0.470701	0.467618	0.657853	0.356375
60422	9.558128	0.224558	-3.134110	-0.003908	-0.151909	0.247520	-0.470139	0.467640	0.658328	0.356212
60423	9.406694	0.079244	-3.175862	-0.120257	-0.267288	0.111644	-0.469780	0.467575	0.658749	0.355991
60424	9.369022	0.117364	-3.138974	-0.096730	-0.224888	0.065853	-0.469585	0.467327	0.659208	0.355725
60425	9.259031	0.345909	-3.028696	0.094666	-0.078351	-0.065524	-0.469439	0.466947	0.659684	0.355533
60426	9.432077	0.432661	-3.005250	0.142093	0.020878	0.094995	-0.469306	0.466614	0.660048	0.355472
60427	9.460979	0.460121	-2.959345	0.145653	0.079113	0.109615	-0.469277	0.466386	0.660189	0.355548
60428	9.478040	0.381501	-2.901221	0.050162	0.108972	0.106057	-0.469364	0.466329	0.660101	0.355671
60429	9.395528	0.329147	-2.860176	0.000918	0.102489	0.013522	-0.469591	0.466346	0.659862	0.355790
60430	9.350210	0.287623	-2.856925	-0.029414	0.075441	-0.031858	-0.469790	0.466430	0.659625	0.355860
60431	9.312491	0.222133	-2.821145	-0.092403	0.073667	-0.080436	-0.470000	0.466525	0.659401	0.355871
60432	9.340733	0.148925	-2.820098	-0.160419	0.057633	-0.055876	-0.470170	0.466621	0.659258	0.355785
60433	9.284137	0.123644	-2.818864	-0.172978	0.035302	-0.110867	-0.470326	0.466720	0.659160	0.355633
60434	9.186891	0.128156	-2.854257	-0.142852	-0.020183	-0.192845	-0.470348	0.466825	0.659172	0.355442
60435	9.258302	0.110729	-2.909904	-0.150131	-0.052054	-0.108528	-0.470243	0.466930	0.659297	0.355212
60436	9.315107	0.124545	-2.982444	-0.123333	-0.091810	-0.032194	-0.470062	0.466978	0.659510	0.354994
60437	9.294194	0.090858	-3.006359	-0.147244	-0.123646	-0.045829	-0.469940	0.466985	0.659740	0.354718
60438	9.429416	0.126863	-3.107758	-0.100029	-0.160274	0.114671	-0.469888	0.466948	0.659997	0.354358
60439	9.501685	0.227181	-3.136059	-0.005555	-0.128894	0.194902	-0.469885	0.466826	0.660215	0.354115
60440	9.509413	0.268297	-3.149692	0.035422	-0.124356	0.207530	-0.469924	0.466631	0.660360	0.354049
60441	9.342477	0.199012	-3.131251	-0.016723	-0.178236	0.040950	-0.470048	0.466401	0.660397	0.354120
60442	9.328686	0.057445	-3.094102	-0.160741	-0.197560	0.012601	-0.470220	0.466140	0.660442	0.354151
60443	9.383899	0.053281	-3.116979	-0.162842	-0.208901	0.071937	-0.470587	0.465840	0.660444	0.354055
60444	9.416893	0.145585	-3.076885	-0.085892	-0.139554	0.093847	-0.471133	0.465509	0.660385	0.353874
60445	9.278575	0.212402	-3.024616	-0.014561	-0.115889	-0.051964	-0.471695	0.465154	0.660292	0.353767
60446	9.315271	0.142731	-3.004597	-0.084973	-0.117825	-0.024882	-0.472198	0.464783	0.660221	0.353714
60447	9.341882	0.135671	-2.940945	-0.109418	-0.062822	-0.018689	-0.472645	0.464412	0.660179	0.353685
60448	9.428806	0.085363	-2.933637	-0.165822	-0.056907	0.060770	-0.473101	0.464033	0.660096	0.353726
60449	9.445326	0.088792	-2.897582	-0.171512	-0.028738	0.065966	-0.473635	0.463586	0.659977	0.353820
60450	9.294153	0.155216	-2.869181	-0.095292	-0.033448	-0.085028	-0.474138	0.463161	0.659858	0.353925
60451	9.203184	0.229853	-2.826188	-0.023831	-0.003439	-0.182620	-0.474472	0.462872	0.659797	0.353968
60452	9.206080	0.312022	-2.805196	0.047772	0.039144	-0.183847	-0.474504	0.462748	0.659849	0.353990
60453	9.350643	0.263535	-2.820686	-0.012422	0.048129	-0.042438	-0.474378	0.462760	0.659908	0.354033
60454	9.469992	0.145814	-2.878420	-0.122452	-0.009363	0.085405	-0.474276	0.462808	0.659923	0.354080
60455	9.463941	0.108016	-2.901870	-0.150111	-0.044436	0.085504	-0.474343	0.462857	0.659842	0.354077
60456	9.469808	0.124482	-2.939173	-0.122037	-0.073060	0.102517	-0.474473	0.462810	0.659757	0.354122
60457	9.384694	0.123821	-2.940583	-0.110413	-0.101629	0.021555	-0.474682	0.462653	0.659658	0.354232
60458	9.374779	0.102561	-2.907902	-0.137732	-0.087720	0.001905	-0.474940	0.462424	0.659566	0.354357
60459	9.300037	0.118811	-2.897445	-0.114590	-0.100458	-0.072217	-0.475296	0.462128	0.659456	0.354469
60460	9.343117	0.197206	-2.857424	-0.055552	-0.035783	-0.040624	-0.475664	0.461784	0.659352	0.354618
60461	9.413797	0.306853	-2.853028	0.040057	0.013188	0.028640	-0.476009	0.461464	0.659205	0.354844
60462	9.471936	0.288719	-2.817621	0.006470	0.044384	0.073561	-0.476318	0.461177	0.659020	0.355145
60463	9.431420	0.231330	-2.823722	-0.038927	-0.001779	0.035007	-0.476681	0.460989	0.658709	0.355481
60464	9.351339	0.111840	-2.797994	-0.146297	-0.049702	-0.052312	-0.477085	0.460810	0.658402	0.355739
60465	9.372461	0.166949	-2.790325	-0.093887	-0.029243	-0.032752	-0.477540	0.460621	0.658137	0.355865
60466	9.244110	0.183361	-2.751952	-0.069332	-0.030814	-0.166203	-0.477972	0.460410	0.657961	0.355883
60467	9.350980	0.193478	-2.783812	-0.057622	-0.034305	-0.054441	-0.478312	0.460205	0.657911	0.355784
60468	9.550936	0.170920	-2.808113	-0.090188	-0.015976	0.143552	-0.478689	0.459978	0.657869	0.355648
60469	9.677634	0.186754	-2.799774	-0.085910	0.023125	0.263139	-0.479293	0.459676	0.657683	0.355568
60470	9.558913	0.242031	-2.770257	-0.019571	0.026473	0.142442	-0.480060	0.459344	0.657337	0.355604
60471	9.576330	0.256674	-2.779338	0.006042	0.012096	0.162104	-0.480906	0.458999	0.656831	0.355841
60472	9.609691	0.350839	-2.772247	0.100159	0.037509	0.194465	-0.481828	0.458605	0.656163	0.356333
60473	9.699789	0.410003	-2.795507	0.163660	0.031119	0.288849	-0.482799	0.458159	0.655275	0.357226
60474	9.176146	0.717756	-2.690113	0.488888	0.063199	-0.236132	-0.483711	0.457777	0.654125	0.358587
60475	9.269837	0.861179	-2.719921	0.625833	0.068281	-0.134204	-0.484041	0.457652	0.652902	0.360525
60476	9.687431	0.659508	-2.806892	0.413858	-0.015714	0.286235	-0.484222	0.457890	0.651349	0.362781
60477	9.778813	0.348255	-2.797006	0.109910	-0.128176	0.362824	-0.484707	0.458454	0.649325	0.365044
60478	9.667229	0.210037	-2.783823	0.002494	-0.231482	0.246900	-0.485705	0.459173	0.646936	0.367050
60479	9.357487	0.081472	-2.745753	-0.072948	-0.353284	-0.067022	-0.486981	0.459983	0.644409	0.368786
60480	9.382230	0.149627	-2.781918	0.029709	-0.401980	-0.033883	-0.488312	0.460765	0.641992	0.370262
60481	9.324073	0.270582	-2.742650	0.169523	-0.380787	-0.098792	-0.489555	0.461614	0.639646	0.371619
60482	9.168032	0.360586	-2.676908	0.279184	-0.361148	-0.265952	-0.490461	0.462670	0.637439	0.372901
60483	9.183865	0.560303	-2.644511	0.483528	-0.296980	-0.256085	-0.491002	0.463957	0.635267	0.374296
60484	9.299776	0.531236	-2.706634	0.483394	-0.365276	-0.131431	-0.491199	0.465458	0.633038	0.375944
60485	9.469448	0.256659	-2.842282	0.262485	-0.559808	0.058104	-0.491318	0.467202	0.630687	0.377575
60486	9.339825	-0.055420	-2.913821	0.013222	-0.763524	-0.058584	-0.491501	0.469074	0.628320	0.378960
60487	9.107847	-0.099533	-2.932568	0.015198	-0.858113	-0.282415	-0.491729	0.470865	0.626172	0.379996
60488	9.196280	0.058068	-2.939137	0.182562	-0.814745	-0.194149	-0.491798	0.472533	0.624289	0.380933
60489	9.427510	0.240896	-3.024875	0.383502	-0.809302	0.050566	-0.491866	0.474119	0.622467	0.381855
60490	9.385989	0.388985	-3.020005	0.547309	-0.787762	0.008125	-0.491998	0.475831	0.620442	0.382851
60491	9.496883	0.061227	-3.096067	0.264739	-0.935319	0.128902	-0.492141	0.477680	0.618286	0.383851
60492	9.482652	-0.194964	-3.046820	0.029743	-0.971773	0.101772	-0.492579	0.479309	0.616087	0.384794
60493	9.381658	-0.299984	-2.970674	-0.059326	-0.966029	-0.015056	-0.493321	0.480483	0.614008	0.385700
60494	9.345935	-0.022171	-2.899321	0.221148	-0.861459	-0.067847	-0.494286	0.481392	0.612000	0.386522
60495	9.368955	0.197841	-2.796441	0.436947	-0.732102	-0.070536	-0.495261	0.482338	0.609947	0.387339
60496	9.762984	0.323243	-2.802244	0.571513	-0.657711	0.312211	-0.496150	0.483327	0.607786	0.388365
60497	9.974878	0.288784	-2.698543	0.533381	-0.562076	0.495711	-0.497166	0.484181	0.605295	0.389889
60498	9.807198	0.031639	-2.640547	0.303844	-0.645687	0.318704	-0.498437	0.484875	0.602506	0.391719
60499	9.461126	-0.267661	-2.398240	-0.000538	-0.598391	-0.067036	-0.500012	0.485501	0.599598	0.393394
60500	9.463211	-0.335209	-2.149855	-0.085798	-0.423755	-0.112204	-0.501762	0.486093	0.596830	0.394643
60501	9.663487	-0.193812	-1.923325	0.038269	-0.187871	0.040363	-0.503780	0.486469	0.594071	0.395771
60502	9.614979	-0.041981	-1.802684	0.203464	-0.099687	-0.032732	-0.505895	0.486721	0.591240	0.396998
60503	9.310578	-0.208170	-1.656411	0.054493	-0.097195	-0.354297	-0.507802	0.487115	0.588476	0.398186
60504	9.473809	-0.436346	-1.560892	-0.150865	-0.070843	-0.202703	-0.509436	0.487733	0.585901	0.399139
60505	9.629865	-0.574659	-1.486299	-0.262599	-0.042187	-0.055505	-0.511109	0.488310	0.583384	0.399979
60506	9.435877	-0.433044	-1.347039	-0.115750	0.054071	-0.272180	-0.512630	0.488773	0.581072	0.400831
60507	9.622693	-0.463675	-1.243668	-0.133946	0.140301	-0.100832	-0.513899	0.489166	0.578967	0.401775
60508	9.610972	-0.635115	-1.180621	-0.284275	0.131005	-0.113725	-0.515202	0.489588	0.576895	0.402569
60509	9.790369	-0.865128	-1.166583	-0.477362	0.092471	0.072861	-0.516621	0.489973	0.574920	0.403108
60510	9.993479	-1.012396	-1.021125	-0.612189	0.199714	0.263144	-0.518367	0.490066	0.573018	0.403462
60511	9.775652	-1.166557	-0.686420	-0.795381	0.424310	0.014948	-0.520703	0.489766	0.571009	0.403665
60512	9.276831	-1.142898	-0.356999	-0.812580	0.639876	-0.516275	-0.523069	0.489083	0.569412	0.403691
60513	9.698017	-0.804227	-0.248877	-0.463862	0.826736	-0.124477	-0.524979	0.488160	0.568286	0.403916
60514	9.811964	-0.692977	-0.151773	-0.352878	0.918926	-0.024490	-0.526593	0.487227	0.567272	0.404366
60515	10.250790	-0.775091	-0.071527	-0.420962	0.992976	0.410873	-0.528134	0.486297	0.566165	0.405026
60516	10.065988	-1.029997	0.129862	-0.698242	1.067995	0.225910	-0.530188	0.485313	0.564574	0.405743
