// General information: 
//  MT Manager version: 2021.0.0 
//  XDA version: 2021.0.0 build 5908 rev 109668 built on 2021-04-19
// Device information: 
//  DeviceId: 00B43DFB
//  ProductCode: MTW2-3A7G6
//  Firmware Version: 4.3.5
//  Hardware Version: 1.1.0
// Device settings: 
//  Filter Profile: human(46.1)
//  Option Flags: Orientation Smoother Disabled, Position/Velocity Smoother Disabled, Continuous Zero Rotation Update Disabled, AHS Disabled, ICC Disabled
// Coordinate system: ENU
PacketCounter	Acc_X	Acc_Y	Acc_Z	FreeAcc_E	FreeAcc_N	FreeAcc_U	Quat_q0	Quat_q1	Quat_q2	Quat_q3
59330	-10.328911	0.515169	2.156962	0.232050	-0.537009	0.735389	0.158511	0.616332	0.132298	-0.759939
59331	-10.696609	0.577407	2.380919	0.112440	-0.607099	1.143506	0.159532	0.616535	0.130005	-0.759956
59332	-10.888750	0.660295	2.682192	-0.104612	-0.729852	1.396732	0.160776	0.616726	0.127534	-0.759957
59333	-10.682327	0.529824	2.764138	-0.283744	-0.602345	1.214083	0.162534	0.616773	0.125583	-0.759870
59334	-10.258855	0.326352	2.759488	-0.451517	-0.401917	0.798618	0.165049	0.616681	0.124691	-0.759550
59335	-9.746649	-0.072537	2.686343	-0.650184	-0.018689	0.276697	0.168694	0.616338	0.125254	-0.758935
59336	-9.394558	-0.597595	2.421826	-0.699064	0.553454	-0.133583	0.173123	0.615588	0.127350	-0.758196
59337	-9.200239	-1.109816	2.072298	-0.641329	1.149625	-0.408563	0.177502	0.614512	0.130235	-0.757567
59338	-9.280668	-1.367155	1.852298	-0.542767	1.485515	-0.382439	0.180908	0.613303	0.132704	-0.757312
59339	-9.399011	-1.341211	1.701241	-0.370085	1.543481	-0.298742	0.183044	0.612081	0.134136	-0.757535
59340	-9.520563	-1.106134	1.564634	-0.109084	1.413160	-0.205202	0.183737	0.611038	0.134228	-0.758193
59341	-9.598767	-0.774151	1.532630	0.100531	1.151758	-0.130339	0.182972	0.610308	0.132804	-0.759216
59342	-9.607702	-0.273272	1.641940	0.245509	0.674816	-0.088343	0.181087	0.609935	0.130082	-0.760438
59343	-9.664287	0.263669	1.896561	0.276274	0.113208	0.034937	0.178623	0.609941	0.126595	-0.761603
59344	-9.628759	0.663344	2.132326	0.234251	-0.324526	0.063526	0.176337	0.610049	0.123083	-0.762624
59345	-9.556214	0.858492	2.309435	0.141949	-0.554964	0.039395	0.174649	0.610250	0.119953	-0.763351
59346	-9.532646	0.870481	2.441412	0.018785	-0.593011	0.048219	0.173635	0.610446	0.117310	-0.763836
59347	-9.537179	0.798378	2.506590	-0.074377	-0.523030	0.066534	0.173174	0.610579	0.115030	-0.764181
59348	-9.544912	0.696704	2.523299	-0.134037	-0.405910	0.075436	0.172994	0.610614	0.113001	-0.764496
59349	-9.555342	0.571656	2.504552	-0.168571	-0.253436	0.077278	0.172807	0.610601	0.110994	-0.764843
59350	-9.620196	0.552517	2.494450	-0.157996	-0.194124	0.137840	0.172496	0.610661	0.108853	-0.765172
59351	-9.673374	0.611392	2.555726	-0.183871	-0.234677	0.206831	0.172147	0.610721	0.106755	-0.765499
59352	-9.701717	0.631850	2.567587	-0.185512	-0.227051	0.238632	0.171867	0.610810	0.104946	-0.765740
59353	-9.704216	0.626811	2.553609	-0.179671	-0.194816	0.237952	0.171702	0.610965	0.103572	-0.765842
59354	-9.639614	0.599658	2.592797	-0.244310	-0.177969	0.182961	0.171598	0.611186	0.102760	-0.765798
59355	-9.536657	0.543173	2.638445	-0.333945	-0.150880	0.090341	0.171526	0.611465	0.102575	-0.765616
59356	-9.389451	0.492222	2.720557	-0.462614	-0.157590	-0.036867	0.171486	0.611759	0.102979	-0.765336
59357	-9.355677	0.494277	2.632575	-0.393855	-0.144167	-0.090160	0.171501	0.611985	0.103921	-0.765024
59358	-9.323804	0.474824	2.520076	-0.308346	-0.107172	-0.148166	0.171565	0.612117	0.105188	-0.764732
59359	-9.318194	0.463489	2.386470	-0.194101	-0.068112	-0.184787	0.171719	0.612210	0.106555	-0.764433
59360	-9.376119	0.507235	2.259104	-0.051243	-0.072587	-0.155331	0.171937	0.612243	0.107895	-0.764169
59361	-9.484492	0.532951	2.166283	0.063892	-0.064355	-0.069784	0.172048	0.612253	0.108995	-0.763980
59362	-9.630449	0.616530	2.146935	0.142701	-0.128397	0.071549	0.171879	0.612305	0.109582	-0.763892
59363	-9.617784	0.679953	2.149627	0.162124	-0.198508	0.062499	0.171366	0.612474	0.109599	-0.763870
59364	-9.577669	0.763483	2.242532	0.099853	-0.320931	0.047871	0.170522	0.612809	0.109139	-0.763856
59365	-9.682356	0.946516	2.317857	0.116214	-0.507372	0.174576	0.169677	0.613222	0.108482	-0.763807
59366	-9.675335	1.115019	2.464074	0.039803	-0.719436	0.207684	0.169117	0.613604	0.108057	-0.763684
59367	-9.702171	0.947545	2.542983	-0.100419	-0.594272	0.243827	0.168874	0.614042	0.108046	-0.763387
59368	-9.722393	0.779604	2.515589	-0.146054	-0.433119	0.249716	0.168854	0.614415	0.108381	-0.763044
59369	-9.637944	0.772100	2.536222	-0.190444	-0.453589	0.171124	0.169014	0.614671	0.109119	-0.762697
59370	-9.666366	0.705878	2.511832	-0.193761	-0.392714	0.190032	0.169377	0.614880	0.110209	-0.762291
59371	-9.725305	0.619076	2.449182	-0.162681	-0.297516	0.229638	0.169943	0.614920	0.111635	-0.761925
59372	-9.774833	0.484510	2.347142	-0.113842	-0.145965	0.249961	0.170571	0.614849	0.113169	-0.761616
59373	-9.747939	0.419382	2.217597	-0.025408	-0.056212	0.192917	0.171228	0.614682	0.114673	-0.761379
59374	-9.642477	0.309060	2.130330	-0.006459	0.050912	0.067016	0.171825	0.614477	0.116128	-0.761189
59375	-9.583353	0.270232	2.054611	0.039199	0.094549	-0.008371	0.172238	0.614297	0.117390	-0.761048
59376	-9.532385	0.196328	2.003063	0.051588	0.164236	-0.071665	0.172597	0.614009	0.118436	-0.761036
59377	-9.466847	0.179040	1.904499	0.127788	0.202302	-0.157476	0.172766	0.613694	0.119106	-0.761148
59378	-9.467666	0.214187	1.834622	0.213168	0.193729	-0.170829	0.172802	0.613313	0.119338	-0.761410
59379	-9.583053	0.293415	1.818187	0.291111	0.142537	-0.059651	0.172549	0.612950	0.119009	-0.761811
59380	-9.781631	0.398173	1.780113	0.416377	0.091329	0.128435	0.171947	0.612497	0.118047	-0.762460
59381	-9.982673	0.595553	1.830235	0.501506	-0.072055	0.341202	0.171177	0.612083	0.116463	-0.763210
59382	-10.121905	0.674387	1.954970	0.458986	-0.154211	0.506962	0.170347	0.611677	0.114238	-0.764057
59383	-10.161143	0.708950	2.003447	0.445268	-0.170686	0.557354	0.169555	0.611388	0.111662	-0.764845
59384	-10.136277	0.715491	2.136735	0.330498	-0.197007	0.563899	0.168888	0.611007	0.109137	-0.765661
59385	-9.957430	0.506382	2.239056	0.130868	-0.032373	0.405039	0.168262	0.610624	0.106826	-0.766429
59386	-9.764828	0.292196	2.342585	-0.073415	0.132771	0.232304	0.167547	0.610250	0.104593	-0.767191
59387	-9.569380	0.295592	2.376245	-0.130908	0.119008	0.050152	0.166673	0.609842	0.102500	-0.767989
59388	-9.336113	0.394349	2.358917	-0.112702	0.024539	-0.175797	0.165746	0.609371	0.100800	-0.768788
59389	-9.345061	0.476030	2.347135	-0.056176	-0.031723	-0.165842	0.164866	0.608855	0.099621	-0.769539
59390	-9.496965	0.489481	2.246603	0.086922	0.019017	-0.041750	0.164146	0.608209	0.098903	-0.770296
59391	-9.618386	0.433294	2.169340	0.180096	0.117816	0.054470	0.163307	0.607527	0.098340	-0.771085
59392	-9.567207	0.365046	2.190450	0.145138	0.169460	0.006323	0.162172	0.606887	0.097482	-0.771936
59393	-9.450907	0.424899	2.313943	0.048553	0.058258	-0.073655	0.160395	0.606451	0.096172	-0.772814
59394	-9.401390	0.693183	2.476518	0.000618	-0.252580	-0.069178	0.157884	0.606254	0.094365	-0.773708
59395	-9.400302	1.050882	2.717372	-0.084578	-0.668491	0.005668	0.154889	0.606262	0.092346	-0.774550
59396	-9.466230	1.375157	2.906543	-0.128801	-1.030639	0.130639	0.151937	0.606412	0.090627	-0.775220
59397	-9.486550	1.611343	2.983842	-0.116298	-1.284601	0.178841	0.149516	0.606573	0.089602	-0.775684
59398	-9.427996	1.789858	3.036023	-0.117659	-1.491393	0.140705	0.148019	0.606646	0.089616	-0.775912
59399	-9.310168	1.706616	3.031530	-0.164766	-1.445818	0.019116	0.147691	0.606663	0.090791	-0.775825
59400	-9.241178	1.420425	2.992178	-0.234459	-1.196077	-0.071821	0.148340	0.606607	0.092910	-0.775494
59401	-9.149016	1.068370	2.869139	-0.254886	-0.862759	-0.207039	0.149634	0.606489	0.095595	-0.775011
59402	-9.180686	0.763186	2.719854	-0.211313	-0.551461	-0.225392	0.151201	0.606376	0.098556	-0.774425
59403	-9.327111	0.661707	2.615295	-0.116209	-0.432669	-0.113622	0.152693	0.606282	0.101448	-0.773831
59404	-9.456220	0.595967	2.590464	-0.087035	-0.375419	0.002464	0.153993	0.606249	0.104133	-0.773243
59405	-9.514088	0.487511	2.465415	-0.000357	-0.250394	0.024541	0.155158	0.606295	0.106542	-0.772646
59406	-9.529609	0.480838	2.447008	0.015546	-0.259588	0.034384	0.156294	0.606337	0.108857	-0.772061
59407	-9.438051	0.411306	2.445096	-0.030644	-0.226811	-0.057071	0.157603	0.606415	0.111233	-0.771394
59408	-9.464880	0.275898	2.491958	-0.121921	-0.136928	-0.023088	0.159094	0.606498	0.113664	-0.770668
59409	-9.499123	0.160963	2.455988	-0.130727	-0.035108	-0.000819	0.160624	0.606555	0.116094	-0.769943
59410	-9.517813	0.052541	2.432834	-0.152547	0.055439	0.009931	0.162068	0.606584	0.118337	-0.769276
59411	-9.510909	0.000107	2.392638	-0.143020	0.100007	-0.006994	0.163382	0.606601	0.120358	-0.768671
59412	-9.527296	-0.021199	2.337153	-0.102014	0.126183	-0.004234	0.164556	0.606565	0.122198	-0.768159
59413	-9.534633	0.021196	2.331464	-0.080648	0.076050	0.002255	0.165602	0.606477	0.123819	-0.767743
59414	-9.559064	0.048310	2.322438	-0.057354	0.045865	0.024301	0.166520	0.606365	0.125148	-0.767418
59415	-9.546115	0.118231	2.306661	-0.018454	-0.021104	0.008829	0.167359	0.606291	0.126164	-0.767128
59416	-9.557321	0.230860	2.320763	0.015749	-0.133159	0.024163	0.168128	0.606245	0.126979	-0.766861
59417	-9.607265	0.284157	2.306359	0.059442	-0.173058	0.069928	0.168917	0.606170	0.127626	-0.766640
59418	-9.609297	0.264048	2.268005	0.084717	-0.137689	0.062839	0.169845	0.606055	0.128114	-0.766444
59419	-9.591932	0.279837	2.262412	0.091338	-0.145853	0.044916	0.170818	0.605935	0.128374	-0.766280
59420	-9.562836	0.197780	2.265020	0.047204	-0.065553	0.016388	0.171776	0.605834	0.128372	-0.766146
59421	-9.567861	0.178633	2.269307	0.033568	-0.036418	0.022106	0.172573	0.605790	0.128053	-0.766055
59422	-9.517867	0.217925	2.271960	0.033609	-0.064015	-0.025255	0.173273	0.605771	0.127595	-0.765988
59423	-9.527183	0.263013	2.291994	0.032808	-0.096802	-0.010690	0.174001	0.605740	0.127146	-0.765922
59424	-9.576867	0.238926	2.268887	0.049857	-0.045642	0.031942	0.174695	0.605718	0.126795	-0.765840
59425	-9.621888	0.158731	2.242558	0.045706	0.055645	0.068092	0.175312	0.605688	0.126490	-0.765773
59426	-9.679197	0.190777	2.286848	0.028326	0.026857	0.134744	0.175751	0.605710	0.126096	-0.765720
59427	-9.638764	0.262419	2.318335	0.019022	-0.045314	0.104313	0.176104	0.605723	0.125747	-0.765686
59428	-9.621369	0.280893	2.312059	0.025641	-0.053489	0.086390	0.176345	0.605797	0.125458	-0.765619
59429	-9.658314	0.328201	2.307240	0.053606	-0.084201	0.122308	0.176548	0.605887	0.125249	-0.765536
59430	-9.660339	0.400730	2.301666	0.086082	-0.143021	0.124743	0.176788	0.605941	0.125147	-0.765454
59431	-9.629060	0.412738	2.294067	0.088045	-0.150679	0.092939	0.177096	0.606044	0.125098	-0.765309
59432	-9.614404	0.421797	2.304482	0.075211	-0.161974	0.081423	0.177365	0.606182	0.125123	-0.765133
59433	-9.607872	0.383416	2.290386	0.065277	-0.120542	0.070899	0.177678	0.606342	0.125207	-0.764921
59434	-9.544824	0.326755	2.265757	0.045081	-0.065249	0.002495	0.177965	0.606522	0.125254	-0.764703
59435	-9.497717	0.356541	2.293462	0.017299	-0.107771	-0.036093	0.178187	0.606757	0.125265	-0.764463
59436	-9.498257	0.367313	2.300133	0.009117	-0.119588	-0.033728	0.178313	0.607018	0.125260	-0.764228
59437	-9.465977	0.398153	2.325689	-0.014009	-0.162630	-0.058436	0.178361	0.607303	0.125315	-0.763980
59438	-9.526697	0.395001	2.290231	0.021516	-0.141137	-0.007651	0.178283	0.607575	0.125426	-0.763764
59439	-9.649307	0.471053	2.312367	0.052349	-0.210340	0.118630	0.178059	0.607856	0.125663	-0.763555
59440	-9.698570	0.480640	2.399685	-0.016929	-0.256661	0.186593	0.177799	0.608163	0.125911	-0.763329
59441	-9.665689	0.420204	2.369406	-0.027821	-0.202406	0.145950	0.177564	0.608467	0.126222	-0.763090
59442	-9.699401	0.478731	2.342009	0.022336	-0.250467	0.173769	0.177448	0.608720	0.126733	-0.762831
59443	-9.584608	0.454202	2.320703	0.004704	-0.243231	0.056329	0.177527	0.608865	0.127378	-0.762589
59444	-9.595757	0.329447	2.347277	-0.071780	-0.149771	0.070085	0.177696	0.608975	0.128130	-0.762336
59445	-9.546140	0.261566	2.287984	-0.059531	-0.080081	0.006789	0.177740	0.609070	0.128784	-0.762140
59446	-9.574748	0.257319	2.249013	-0.022227	-0.066224	0.025767	0.177612	0.609138	0.129194	-0.762046
59447	-9.540099	0.284014	2.258689	-0.025902	-0.106148	-0.005349	0.177385	0.609166	0.129509	-0.762023
59448	-9.548219	0.230681	2.232726	-0.022829	-0.053448	-0.004355	0.177014	0.609203	0.129656	-0.762054
59449	-9.578924	0.304607	2.238321	0.010617	-0.125098	0.028191	0.176541	0.609257	0.129609	-0.762129
59450	-9.633359	0.403150	2.215970	0.083923	-0.203329	0.078029	0.176101	0.609275	0.129481	-0.762238
59451	-9.636817	0.380529	2.210547	0.081370	-0.182890	0.079708	0.175716	0.609284	0.129324	-0.762347
59452	-9.636877	0.378270	2.210672	0.081548	-0.182917	0.079706	0.175375	0.609304	0.129188	-0.762432
59453	-9.639754	0.363997	2.217548	0.070634	-0.174272	0.083752	0.175037	0.609352	0.129026	-0.762499
59454	-9.577023	0.321464	2.288400	-0.021927	-0.172421	0.037657	0.174754	0.609380	0.128848	-0.762572
59455	-9.592944	0.325586	2.320121	-0.044896	-0.187886	0.060317	0.174485	0.609415	0.128679	-0.762633
59456	-9.562100	0.324810	2.301816	-0.034593	-0.183759	0.026147	0.174232	0.609429	0.128527	-0.762706
59457	-9.578233	0.305203	2.263295	-0.004685	-0.148918	0.032921	0.173979	0.609433	0.128337	-0.762792
59458	-9.558842	0.319623	2.237811	0.021367	-0.153976	0.008578	0.173762	0.609405	0.128204	-0.762887
59459	-9.601394	0.406033	2.224596	0.078932	-0.223018	0.048575	0.173554	0.609383	0.128095	-0.762970
59460	-9.656674	0.420613	2.202225	0.117204	-0.221991	0.097663	0.173410	0.609344	0.128052	-0.763041
59461	-9.628337	0.406819	2.192217	0.116411	-0.209192	0.067539	0.173293	0.609298	0.128018	-0.763110
59462	-9.593181	0.361247	2.217050	0.069322	-0.181663	0.038055	0.173168	0.609315	0.127896	-0.763145
59463	-9.561955	0.386153	2.269318	0.026745	-0.227843	0.019773	0.173014	0.609361	0.127678	-0.763180
59464	-9.595714	0.447895	2.270260	0.057470	-0.279027	0.053987	0.172900	0.609394	0.127447	-0.763218
59465	-9.627773	0.436362	2.262756	0.064233	-0.259628	0.083421	0.172856	0.609474	0.127206	-0.763205
59466	-9.676349	0.423079	2.274110	0.056215	-0.243872	0.133150	0.172901	0.609524	0.127022	-0.763185
59467	-9.666527	0.389883	2.243531	0.065696	-0.199327	0.116217	0.172990	0.609585	0.126858	-0.763143
59468	-9.599574	0.362763	2.273771	0.012008	-0.191232	0.057304	0.173088	0.609665	0.126748	-0.763075
59469	-9.545115	0.342624	2.282532	-0.017572	-0.180525	0.005850	0.173191	0.609761	0.126708	-0.762982
59470	-9.540732	0.290239	2.277184	-0.038633	-0.130440	-0.000609	0.173364	0.609876	0.126779	-0.762839
59471	-9.591966	0.253431	2.247641	-0.021588	-0.079297	0.042016	0.173464	0.610032	0.126786	-0.762691
59472	-9.702410	0.302071	2.222060	0.038086	-0.100804	0.144920	0.173438	0.610237	0.126657	-0.762554
59473	-9.627545	0.317865	2.239881	0.009312	-0.130516	0.076225	0.173209	0.610459	0.126446	-0.762463
59474	-9.559415	0.364685	2.222571	0.026830	-0.174951	0.006880	0.173015	0.610632	0.126371	-0.762381
59475	-9.571377	0.482718	2.268319	0.033312	-0.301940	0.030953	0.172906	0.610839	0.126422	-0.762231
59476	-9.694808	0.409151	2.327581	-0.030940	-0.248050	0.162875	0.172834	0.611072	0.126448	-0.762057
59477	-9.684715	0.370832	2.259131	0.006332	-0.188577	0.137151	0.172799	0.611327	0.126384	-0.761871
59478	-9.673213	0.443649	2.262271	0.025810	-0.258676	0.128046	0.172816	0.611526	0.126444	-0.761697
59479	-9.605512	0.513847	2.313778	-0.009531	-0.353428	0.074600	0.172969	0.611767	0.126736	-0.761420
59480	-9.676960	0.387185	2.331808	-0.070124	-0.241614	0.145600	0.173299	0.611947	0.127161	-0.761130
59481	-9.678008	0.296593	2.292183	-0.077223	-0.147469	0.136092	0.173474	0.612118	0.127528	-0.760891
59482	-9.650248	0.320730	2.371692	-0.147594	-0.208590	0.126617	0.173534	0.612292	0.127751	-0.760700
59483	-9.704756	0.435851	2.368359	-0.090941	-0.310404	0.181149	0.173573	0.612494	0.128019	-0.760483
59484	-9.832856	0.564746	2.393512	-0.038737	-0.429731	0.313848	0.173728	0.612573	0.128518	-0.760300
59485	-9.886267	0.587932	2.359660	0.010652	-0.437367	0.358867	0.174151	0.612512	0.129189	-0.760139
59486	-9.795928	0.505543	2.349418	-0.030068	-0.372382	0.266795	0.174986	0.612321	0.130094	-0.759946
59487	-9.688963	0.419349	2.309050	-0.047665	-0.291948	0.152054	0.176168	0.612027	0.131208	-0.759719
59488	-9.540591	0.225107	2.246065	-0.097645	-0.107122	-0.009762	0.177577	0.611582	0.132392	-0.759543
59489	-9.525104	0.054216	2.228874	-0.152846	0.054986	-0.031479	0.178924	0.611096	0.133250	-0.759468
59490	-9.634832	0.164080	2.200412	-0.052444	-0.013489	0.071430	0.180128	0.610492	0.133742	-0.759583
59491	-9.752808	0.296430	2.148931	0.083168	-0.088013	0.177726	0.181194	0.609789	0.134093	-0.759833
59492	-9.752186	0.330415	2.066174	0.185233	-0.072891	0.159460	0.182240	0.608912	0.134511	-0.760212
59493	-9.718868	0.173282	2.087879	0.108657	0.066133	0.128613	0.183214	0.607980	0.134931	-0.760648
59494	-9.719634	0.084739	2.157981	0.026520	0.127275	0.143135	0.183882	0.607101	0.134971	-0.761183
59495	-9.574966	0.138039	2.262593	-0.051608	0.031967	0.026755	0.184220	0.606236	0.134554	-0.761864
59496	-9.441149	0.193315	2.301928	-0.069482	-0.033992	-0.093351	0.184315	0.605403	0.133831	-0.762630
59497	-9.382658	0.228100	2.273496	-0.022252	-0.043539	-0.155946	0.184295	0.604572	0.133046	-0.763431
59498	-9.459373	0.344061	2.275169	0.060478	-0.122783	-0.078432	0.184197	0.603815	0.132167	-0.764206
59499	-9.518651	0.414004	2.351193	0.053360	-0.193070	-0.001263	0.184193	0.603064	0.131262	-0.764956
59500	-9.573616	0.398756	2.273861	0.141765	-0.121242	0.033567	0.184363	0.602332	0.130365	-0.765644
59501	-9.539545	0.324262	2.273808	0.116952	-0.037874	-0.001311	0.184594	0.601652	0.129399	-0.766287
59502	-9.466193	0.312122	2.335813	0.054881	-0.041603	-0.057819	0.184710	0.601069	0.128415	-0.766882
59503	-9.423870	0.298593	2.413845	-0.017288	-0.049505	-0.080146	0.184573	0.600613	0.127453	-0.767432
59504	-9.451742	0.300521	2.432873	-0.018860	-0.041920	-0.048340	0.184099	0.600363	0.126467	-0.767905
59505	-9.517430	0.423589	2.499546	-0.004717	-0.162327	0.035270	0.183424	0.600227	0.125542	-0.768324
59506	-9.433031	0.546614	2.533587	0.004320	-0.291755	-0.034406	0.182890	0.600136	0.124816	-0.768641
59507	-9.445881	0.625097	2.513217	0.060956	-0.347953	-0.024588	0.182706	0.600067	0.124457	-0.768797
59508	-9.470989	0.562815	2.453350	0.093708	-0.260386	-0.016835	0.182874	0.599994	0.124382	-0.768826
59509	-9.407532	0.421833	2.377750	0.085502	-0.107806	-0.101129	0.183099	0.600077	0.124384	-0.768707
59510	-9.281615	0.303273	2.332180	0.044641	0.002777	-0.237855	0.183333	0.600210	0.124446	-0.768537
59511	-9.251462	0.229460	2.266129	0.058682	0.092414	-0.285591	0.183385	0.600539	0.124425	-0.768271
59512	-9.319867	0.134170	2.299834	-0.007521	0.171916	-0.213858	0.182962	0.601145	0.124103	-0.767951
59513	-9.503476	0.207123	2.276825	0.067262	0.136015	-0.039262	0.182092	0.602017	0.123399	-0.767588
59514	-9.689572	0.368107	2.405854	0.046563	-0.042022	0.177683	0.181298	0.602568	0.122946	-0.767415
59515	-9.457247	0.175360	2.315214	-0.009428	0.128556	-0.075447	0.180205	0.602928	0.123048	-0.767374
59516	-9.835281	-0.000662	2.304461	0.001420	0.320482	0.283873	0.178518	0.603463	0.123203	-0.767323
59517	-9.543552	-0.247837	2.435093	-0.277960	0.429978	0.026433	0.176123	0.603901	0.123141	-0.767542
59518	-9.618159	0.114375	2.697906	-0.344639	-0.020941	0.171375	0.172625	0.604651	0.122050	-0.767920
59519	-9.848085	0.280528	2.851464	-0.367967	-0.224163	0.434686	0.169546	0.605242	0.120494	-0.768386
59520	-9.815198	0.192952	3.066227	-0.603071	-0.236254	0.451697	0.166450	0.605676	0.118312	-0.769060
59521	-10.214384	0.456271	3.107743	-0.446194	-0.447831	0.855032	0.163262	0.605575	0.116115	-0.770157
59522	-9.988640	0.577290	3.107683	-0.418177	-0.583676	0.639498	0.160334	0.604160	0.114597	-0.772109
59523	-9.907748	0.433128	3.176594	-0.498668	-0.484617	0.577595	0.158085	0.602036	0.113759	-0.774352
59524	-10.035088	0.072453	3.276058	-0.622658	-0.167439	0.724127	0.156871	0.599037	0.113243	-0.776995
59525	-10.685740	-0.501216	3.657829	-0.933499	0.307473	1.450040	0.154534	0.595600	0.112345	-0.780229
59526	-11.476412	-0.673150	4.515799	-1.433024	0.262317	2.452246	0.150626	0.590467	0.110653	-0.785122
59527	-11.065444	-0.950628	5.393801	-2.224468	0.197369	2.330177	0.147486	0.583421	0.109713	-0.791095
59528	-10.648814	-1.717975	5.402641	-2.387655	0.896372	1.978317	0.144549	0.575718	0.109002	-0.797354
59529	-10.237569	-1.856669	5.554552	-2.430965	0.977240	1.686716	0.139878	0.566567	0.106438	-0.805051
59530	-10.481472	-1.493174	5.883894	-2.211136	0.627952	2.079213	0.133466	0.555967	0.102193	-0.814029
59531	-10.709777	-0.980825	6.430561	-2.082909	0.103286	2.542472	0.126323	0.543540	0.096381	-0.824208
59532	-10.743627	-0.455463	6.460830	-1.527740	-0.270404	2.635262	0.119023	0.529635	0.089647	-0.835035
59533	-10.553133	-0.434697	6.262653	-0.981393	-0.116918	2.425833	0.112025	0.513618	0.082798	-0.846635
59534	-10.098226	-0.886202	5.955617	-0.561647	0.484519	1.920033	0.104917	0.496145	0.075709	-0.858546
59535	-10.277628	-1.127527	6.242352	-0.258792	0.824233	2.232852	0.096426	0.477688	0.066179	-0.870710
59536	-10.161548	-0.694973	6.793722	-0.117380	0.471048	2.419554	0.087061	0.457566	0.054401	-0.883229
59537	-9.776102	-0.224448	6.840748	0.293759	0.173839	2.115054	0.077698	0.436391	0.041974	-0.895413
59538	-9.622349	0.170542	6.818008	0.855573	-0.020185	1.949157	0.068849	0.414363	0.029340	-0.907030
59539	-9.230333	0.336849	6.779946	1.219463	-0.024630	1.578673	0.061003	0.391551	0.017352	-0.917968
59540	-8.723451	0.473884	6.938968	1.326885	-0.036689	1.263533	0.054006	0.368425	0.005558	-0.928071
59541	-8.634206	0.605931	7.297910	1.575883	-0.003973	1.397315	0.047713	0.345123	-0.006421	-0.937322
59542	-8.520491	0.984762	7.655535	1.840394	-0.200013	1.532750	0.041586	0.321285	-0.018832	-0.945881
59543	-7.571107	1.196030	7.644856	1.652688	-0.307692	0.880468	0.036419	0.296959	-0.029926	-0.953726
59544	-6.931856	0.809878	7.368304	1.771992	0.175458	0.177593	0.031931	0.273412	-0.040315	-0.960521
59545	-6.910534	1.018867	7.537168	2.150238	0.137610	0.234107	0.027047	0.250082	-0.051798	-0.966460
59546	-6.427746	1.608338	7.832621	2.064613	-0.293297	0.231397	0.022465	0.227043	-0.062860	-0.971594
59547	-5.960568	1.882557	7.966027	2.041745	-0.431985	0.094679	0.018317	0.204132	-0.072436	-0.976088
59548	-4.920710	1.948465	7.711027	1.614714	-0.472726	-0.613543	0.014481	0.181852	-0.080923	-0.979883
59549	-4.709110	1.979788	7.728391	1.795892	-0.407005	-0.734149	0.011327	0.160972	-0.088033	-0.982960
59550	-4.375960	1.891067	7.722693	1.848091	-0.247392	-0.931437	0.008520	0.140258	-0.094585	-0.985550
59551	-3.457766	1.725168	7.842640	1.281349	-0.021162	-1.164732	0.005898	0.120717	-0.100237	-0.987596
59552	-3.111276	1.847434	8.038079	1.222287	-0.035913	-1.083466	0.003504	0.102099	-0.105911	-0.989114
59553	-2.793584	2.180501	8.225041	1.183592	-0.252376	-0.939318	0.001252	0.084043	-0.111155	-0.990242
59554	-2.376321	2.469693	8.165925	1.079092	-0.489074	-1.036725	-0.001332	0.066767	-0.115417	-0.991070
59555	-1.817057	2.497996	8.118664	0.811632	-0.492272	-1.178621	-0.003294	0.050561	-0.117594	-0.991768
59556	-1.471910	2.102388	7.959501	0.750622	-0.129024	-1.484724	-0.005084	0.035346	-0.118801	-0.992276
59557	-1.084993	2.277768	8.044466	0.598693	-0.260692	-1.407472	-0.007000	0.020686	-0.120658	-0.992454
59558	-0.589634	2.355019	8.169238	0.328410	-0.284753	-1.301687	-0.008638	0.007178	-0.121413	-0.992539
59559	-0.646056	2.114189	8.202218	0.606430	-0.034550	-1.339740	-0.010150	-0.005606	-0.122388	-0.992415
59560	-0.322398	2.241781	8.217729	0.489581	-0.126578	-1.303795	-0.011715	-0.018020	-0.124452	-0.991993
59561	0.247232	2.376882	8.297060	0.120160	-0.186221	-1.181375	-0.013034	-0.029440	-0.126872	-0.991396
59562	0.513018	2.461519	8.303809	0.038615	-0.211060	-1.139359	-0.014215	-0.039894	-0.129949	-0.990616
59563	0.767149	2.489446	8.461994	-0.025598	-0.129613	-0.959956	-0.015356	-0.050014	-0.133449	-0.989674
59564	0.881199	2.680138	8.688786	0.053938	-0.184080	-0.679501	-0.016237	-0.059467	-0.137018	-0.988649
59565	0.865861	2.930392	8.961195	0.266953	-0.287389	-0.353120	-0.017114	-0.068464	-0.140305	-0.987590
59566	1.274441	3.099038	8.954681	0.024262	-0.369537	-0.258898	-0.018088	-0.077197	-0.143319	-0.986495
59567	1.837763	3.162960	8.843899	-0.392832	-0.383374	-0.257954	-0.018722	-0.085297	-0.145058	-0.985562
59568	1.597216	2.987092	8.698621	-0.036862	-0.243711	-0.481151	-0.019183	-0.092523	-0.146197	-0.984732
59569	1.594531	3.047422	8.650636	0.084149	-0.298517	-0.508638	-0.019640	-0.099274	-0.146852	-0.983968
59570	2.001322	2.489980	8.575184	-0.210201	0.241628	-0.667439	-0.019903	-0.105123	-0.146421	-0.983420
59571	1.843758	2.427462	8.415518	0.010400	0.245724	-0.865524	-0.020136	-0.110390	-0.146995	-0.982752
59572	1.941273	2.714605	8.178269	-0.052822	-0.078135	-0.980232	-0.020432	-0.114882	-0.147725	-0.982121
59573	2.199346	2.636757	8.101468	-0.254907	0.002932	-1.017339	-0.020602	-0.117985	-0.148077	-0.981697
59574	2.000202	2.559165	8.119895	-0.006794	0.071824	-1.067549	-0.020658	-0.120609	-0.148206	-0.981357
59575	2.173707	2.520983	8.229753	-0.109159	0.152355	-0.937217	-0.020715	-0.122474	-0.147956	-0.981163
59576	1.970536	2.521193	8.418646	0.158960	0.188218	-0.809782	-0.020834	-0.123424	-0.147835	-0.981059
59577	2.280807	2.669661	8.484886	-0.107606	0.085565	-0.630992	-0.020973	-0.124518	-0.147475	-0.980972
59578	2.175859	2.618325	8.426478	-0.009818	0.106543	-0.725110	-0.021050	-0.124624	-0.147484	-0.980956
59579	1.605841	2.950344	8.945942	0.667392	-0.101890	-0.280776	-0.021094	-0.124163	-0.147725	-0.980977
59580	1.948519	2.992069	9.369350	0.433797	0.015679	0.204572	-0.021356	-0.123909	-0.148266	-0.980922
59581	2.234520	2.875788	9.794810	0.255918	0.281934	0.630327	-0.021552	-0.123497	-0.148588	-0.980921
59582	1.708065	2.657111	9.791743	0.757685	0.469739	0.437245	-0.021872	-0.123081	-0.150303	-0.980705
59583	1.862315	2.671034	9.823182	0.606847	0.517540	0.505320	-0.022096	-0.122541	-0.152341	-0.980453
59584	2.006710	2.911065	9.822744	0.458398	0.352877	0.610964	-0.021994	-0.122211	-0.155260	-0.980038
59585	2.021269	3.633873	9.917142	0.459658	-0.239205	0.928420	-0.021824	-0.121779	-0.158363	-0.979599
59586	1.782445	4.028130	10.097759	0.728170	-0.527109	1.167273	-0.021758	-0.121397	-0.159749	-0.979423
59587	1.727475	3.348446	9.901430	0.729019	0.062773	0.756095	-0.022183	-0.121186	-0.159442	-0.979490
59588	1.839864	2.562408	9.539248	0.531293	0.690888	0.196741	-0.022874	-0.121257	-0.158486	-0.979620
59589	1.924152	2.419861	9.223693	0.374585	0.738268	-0.119948	-0.023486	-0.121425	-0.159695	-0.979389
59590	1.933595	2.955930	9.408804	0.410530	0.326905	0.223561	-0.023806	-0.121514	-0.162137	-0.978968
59591	1.724905	3.232765	9.460581	0.627754	0.117897	0.312549	-0.024320	-0.121708	-0.164933	-0.978465
59592	1.924466	3.459206	9.334798	0.405610	-0.069218	0.318388	-0.025133	-0.121876	-0.166855	-0.978097
59593	2.189355	3.334835	9.079240	0.088115	0.021789	0.103900	-0.026014	-0.121968	-0.168044	-0.977859
59594	2.054183	3.286034	9.148495	0.234542	0.102986	0.119431	-0.026745	-0.121817	-0.169176	-0.977663
59595	1.716053	3.430763	9.202257	0.570318	-0.021828	0.140739	-0.027553	-0.121729	-0.170397	-0.977439
59596	1.866864	3.417313	9.068216	0.384517	-0.017786	0.048730	-0.028454	-0.121322	-0.171173	-0.977329
59597	1.867481	3.227228	9.003582	0.359407	0.156996	-0.075485	-0.029302	-0.120798	-0.172036	-0.977217
59598	2.168172	3.393476	9.228914	0.108992	0.128144	0.255139	-0.029983	-0.120253	-0.173210	-0.977056
59599	2.004530	3.445465	9.307229	0.271910	0.114074	0.307929	-0.030561	-0.119481	-0.174305	-0.976938
59600	1.804931	3.392638	9.216574	0.429726	0.136591	0.162764	-0.031236	-0.118882	-0.175431	-0.976788
59601	1.820600	3.226103	9.241604	0.410519	0.325584	0.129897	-0.031847	-0.118245	-0.176477	-0.976657
59602	1.979675	3.479452	9.323479	0.259305	0.163486	0.329249	-0.032495	-0.117747	-0.178244	-0.976375
59603	2.040534	3.742510	9.278633	0.172363	-0.052603	0.396650	-0.032959	-0.117074	-0.180072	-0.976105
59604	1.779555	3.951919	9.454628	0.450110	-0.177315	0.576745	-0.033299	-0.116392	-0.181662	-0.975881
59605	1.842923	3.963450	9.494031	0.384316	-0.137942	0.631217	-0.033732	-0.115764	-0.182773	-0.975733
59606	1.969543	3.711222	9.267248	0.198612	0.048637	0.360430	-0.034200	-0.115040	-0.183346	-0.975695
59607	1.812437	3.613181	9.213940	0.325164	0.117094	0.243018	-0.034607	-0.114278	-0.183971	-0.975652
59608	1.670244	3.578988	9.215278	0.449946	0.147560	0.202100	-0.035143	-0.113670	-0.184598	-0.975586
59609	1.813825	3.752337	9.342030	0.322983	0.061291	0.411569	-0.035633	-0.113120	-0.185173	-0.975523
59610	1.870172	4.000225	9.331418	0.245253	-0.155815	0.506724	-0.035984	-0.112403	-0.185482	-0.975534
59611	1.735266	4.148675	9.353354	0.361260	-0.301557	0.554878	-0.036211	-0.111659	-0.185002	-0.975703
59612	1.771911	3.763585	9.426299	0.334320	0.067664	0.485026	-0.036337	-0.110716	-0.183697	-0.976052
59613	1.514720	3.425455	9.375611	0.563203	0.315416	0.262702	-0.036271	-0.109840	-0.183082	-0.976269
59614	1.604360	3.690259	9.474742	0.476477	0.108926	0.469521	-0.036055	-0.109293	-0.183126	-0.976330
59615	1.789958	3.874052	9.523421	0.292584	-0.021784	0.619076	-0.035709	-0.108866	-0.183319	-0.976354
59616	1.574140	3.988776	9.656516	0.521975	-0.106156	0.739697	-0.035264	-0.108430	-0.183028	-0.976473
59617	1.630125	3.782235	9.446955	0.419542	0.006282	0.484472	-0.034789	-0.108099	-0.182309	-0.976662
59618	1.789489	3.582549	9.407406	0.255727	0.179919	0.406825	-0.034152	-0.107806	-0.181663	-0.976837
59619	1.554027	3.554806	9.466215	0.495386	0.190864	0.403918	-0.033500	-0.107583	-0.181364	-0.976939
59620	1.559581	3.566246	9.478105	0.491333	0.178649	0.420179	-0.032906	-0.107536	-0.181129	-0.977009
59621	1.700179	3.572586	9.446052	0.349211	0.170509	0.421122	-0.032263	-0.107621	-0.180930	-0.977057
59622	1.595141	3.461970	9.458759	0.461244	0.262817	0.371418	-0.031638	-0.107774	-0.180800	-0.977085
59623	1.451494	3.380003	9.470561	0.611160	0.328497	0.323453	-0.031038	-0.107978	-0.180982	-0.977048
59624	1.558150	3.430048	9.287868	0.473029	0.237070	0.196187	-0.030506	-0.108293	-0.181744	-0.976888
59625	1.766131	3.649469	9.304321	0.278632	0.074734	0.332507	-0.030014	-0.108620	-0.182581	-0.976711
59626	1.708406	3.863660	9.142822	0.302926	-0.177438	0.252821	-0.029542	-0.108838	-0.182803	-0.976660
59627	1.633302	3.802522	9.092470	0.370121	-0.151159	0.169297	-0.029130	-0.108891	-0.182126	-0.976793
59628	1.567418	3.365256	9.213687	0.468819	0.275873	0.105874	-0.028889	-0.108842	-0.181237	-0.976971
59629	1.625674	3.100534	9.312943	0.437317	0.554403	0.111446	-0.028757	-0.108776	-0.181310	-0.976969
59630	1.707053	3.395948	9.347628	0.361104	0.311717	0.266848	-0.028605	-0.108749	-0.182459	-0.976762
59631	1.774024	3.990666	9.352412	0.289258	-0.209494	0.502960	-0.028405	-0.108731	-0.183638	-0.976549
59632	1.771876	4.119190	9.426805	0.306280	-0.289887	0.617753	-0.028138	-0.108613	-0.183706	-0.976557
59633	1.734877	3.741174	9.323112	0.321693	0.014989	0.376664	-0.027851	-0.108359	-0.183119	-0.976704
59634	1.565618	3.448218	9.230264	0.466455	0.230726	0.150662	-0.027611	-0.108184	-0.183000	-0.976752
59635	1.656612	3.389210	9.171644	0.363343	0.274413	0.094020	-0.027295	-0.108042	-0.183278	-0.976725
59636	1.594786	3.564856	9.394729	0.470462	0.194341	0.348678	-0.026929	-0.108018	-0.183953	-0.976611
59637	1.606462	3.609666	9.409968	0.462572	0.169818	0.381188	-0.026620	-0.107948	-0.184345	-0.976553
59638	1.613863	3.637593	9.319503	0.435846	0.119809	0.310822	-0.026301	-0.107945	-0.184745	-0.976486
59639	1.727035	3.791411	9.270059	0.315226	-0.024413	0.345633	-0.026028	-0.108036	-0.184984	-0.976438
59640	1.818287	3.776445	9.240210	0.220319	-0.014525	0.331298	-0.025725	-0.107895	-0.184647	-0.976526
59641	1.648882	3.704009	9.328250	0.401887	0.060125	0.350462	-0.025337	-0.107582	-0.184152	-0.976664
59642	1.508895	3.491246	9.270663	0.523401	0.214815	0.191844	-0.025056	-0.107389	-0.183723	-0.976773
59643	1.642749	3.303585	9.207171	0.377288	0.371729	0.092047	-0.024791	-0.107201	-0.183538	-0.976835
59644	1.622805	3.448996	9.272700	0.407925	0.262131	0.201149	-0.024483	-0.107088	-0.184138	-0.976743
59645	1.719654	3.654419	9.280935	0.313138	0.094824	0.303670	-0.024183	-0.106992	-0.184774	-0.976640
59646	1.793521	3.754457	9.201436	0.223142	-0.009412	0.283312	-0.023903	-0.106937	-0.185253	-0.976562
59647	1.846672	3.809149	9.073966	0.142413	-0.096703	0.198659	-0.023565	-0.106763	-0.185318	-0.976578
59648	2.004996	3.839710	8.826402	-0.066395	-0.203199	0.017015	-0.023266	-0.106770	-0.185109	-0.976623
59649	2.220807	3.417541	8.440266	-0.359587	0.058696	-0.446958	-0.022968	-0.106578	-0.184474	-0.976772
59650	1.899978	3.535348	8.684862	0.001226	0.005432	-0.245274	-0.022460	-0.106138	-0.184673	-0.976794
59651	0.735524	4.023499	9.686096	1.336612	-0.174131	0.614828	-0.021946	-0.104830	-0.185348	-0.976819
59652	1.244912	3.537887	10.079699	0.897308	0.469185	0.894386	-0.021901	-0.103474	-0.185387	-0.976957
59653	2.225579	3.077777	9.508255	-0.208045	0.775315	0.394582	-0.021348	-0.102034	-0.186050	-0.976995
59654	1.511872	3.999973	9.538463	0.468380	-0.099066	0.629459	-0.020242	-0.100587	-0.188081	-0.976779
59655	1.091123	4.662166	9.697726	0.891812	-0.667086	0.945188	-0.019285	-0.099525	-0.187935	-0.976936
59656	1.333953	4.229645	9.392857	0.575740	-0.392888	0.551140	-0.018783	-0.098755	-0.185021	-0.977580
59657	1.521256	3.388101	9.231789	0.343640	0.271770	0.128482	-0.018417	-0.098046	-0.180935	-0.978422
59658	1.439440	2.659838	9.148836	0.392765	0.841194	-0.221770	-0.018060	-0.097430	-0.177605	-0.979101
59659	1.179009	2.558305	9.371354	0.680311	0.952197	-0.097353	-0.017871	-0.096934	-0.176512	-0.979351
59660	1.228872	2.856814	9.435556	0.634780	0.691120	0.077743	-0.017921	-0.096501	-0.176823	-0.979336
59661	1.404876	3.202394	9.437640	0.456463	0.393463	0.233946	-0.018144	-0.096320	-0.177734	-0.979185
59662	1.376522	3.620003	9.569619	0.505849	0.064059	0.498318	-0.018461	-0.096144	-0.178406	-0.979074
59663	1.390203	4.058059	9.778492	0.528330	-0.265356	0.848920	-0.018869	-0.096030	-0.178223	-0.979111
59664	1.605345	3.816691	9.575331	0.272951	-0.111575	0.615362	-0.019301	-0.095853	-0.176866	-0.979366
59665	1.537613	3.329744	9.410113	0.303416	0.255125	0.279115	-0.019564	-0.095716	-0.175645	-0.979594
59666	1.476270	3.156213	9.294403	0.338725	0.358083	0.101142	-0.019828	-0.095670	-0.175350	-0.979646
59667	1.424512	3.299887	9.356918	0.399519	0.242721	0.199898	-0.020140	-0.095648	-0.175735	-0.979573
59668	1.488551	3.398167	9.312228	0.327004	0.149233	0.204883	-0.020486	-0.095686	-0.176218	-0.979475
59669	1.584894	3.403742	9.325426	0.234854	0.166343	0.236098	-0.020849	-0.095709	-0.176733	-0.979372
59670	1.559716	3.411961	9.382774	0.269656	0.187736	0.286950	-0.021212	-0.095666	-0.177246	-0.979276
59671	1.537850	3.508470	9.325495	0.277648	0.085885	0.264750	-0.021642	-0.095635	-0.177645	-0.979198
59672	1.653583	3.516532	9.340804	0.166000	0.099987	0.302321	-0.022119	-0.095689	-0.177909	-0.979134
59673	1.537828	3.424688	9.360443	0.282817	0.191337	0.266732	-0.022528	-0.095623	-0.178323	-0.979055
59674	1.547374	3.519548	9.308709	0.260250	0.095186	0.254926	-0.022906	-0.095554	-0.178806	-0.978965
59675	1.513647	3.534538	9.250790	0.278963	0.070610	0.201222	-0.023313	-0.095413	-0.179480	-0.978846
59676	1.638106	3.611766	9.320771	0.165146	0.046809	0.315271	-0.023710	-0.095187	-0.180083	-0.978748
59677	1.516955	3.538114	9.270061	0.268740	0.099302	0.220824	-0.023970	-0.094859	-0.180544	-0.978688
59678	1.350735	3.637837	9.397336	0.448398	0.049542	0.344317	-0.024191	-0.094535	-0.181175	-0.978598
59679	1.480318	3.626128	9.376828	0.311788	0.074013	0.344200	-0.024473	-0.094344	-0.181505	-0.978548
59680	1.541320	3.561157	9.287028	0.229999	0.113235	0.249155	-0.024684	-0.094054	-0.181685	-0.978537
59681	1.480336	3.643950	9.309433	0.286290	0.043929	0.289362	-0.024804	-0.093704	-0.181943	-0.978520
59682	1.430436	3.733861	9.266710	0.318279	-0.055467	0.274701	-0.024943	-0.093328	-0.182011	-0.978540
59683	1.436645	3.607998	9.241768	0.300942	0.052635	0.207219	-0.025119	-0.092937	-0.181847	-0.978603
59684	1.431191	3.686655	9.210823	0.291330	-0.032304	0.206947	-0.025307	-0.092593	-0.181952	-0.978611
59685	1.383218	3.800582	9.382934	0.360582	-0.080789	0.398121	-0.025463	-0.092121	-0.181835	-0.978673
59686	1.403072	3.631468	9.490516	0.354042	0.114220	0.438540	-0.025609	-0.091673	-0.181693	-0.978738
59687	1.477011	3.430967	9.363719	0.250993	0.262115	0.262065	-0.025667	-0.091184	-0.181833	-0.978756
59688	1.467790	3.518465	9.377549	0.252580	0.196045	0.305127	-0.025565	-0.090757	-0.182777	-0.978623
59689	1.359964	3.776180	9.416241	0.354770	-0.019911	0.417090	-0.025363	-0.090373	-0.183665	-0.978497
59690	1.308975	3.831819	9.403030	0.394496	-0.067167	0.417321	-0.025205	-0.089933	-0.184077	-0.978464
59691	1.318635	3.654751	9.384489	0.375808	0.094177	0.336920	-0.025127	-0.089474	-0.183925	-0.978537
59692	1.341086	3.507193	9.339736	0.338269	0.212094	0.245650	-0.025099	-0.088983	-0.183589	-0.978646
59693	1.277684	3.644312	9.450866	0.409822	0.115467	0.387855	-0.025107	-0.088595	-0.183525	-0.978693
59694	1.396027	3.670105	9.398161	0.276395	0.079136	0.368733	-0.025025	-0.088280	-0.183291	-0.978767
59695	1.393545	3.691035	9.422915	0.276504	0.066300	0.398883	-0.024888	-0.087920	-0.183330	-0.978796
59696	1.370192	3.703145	9.480154	0.302703	0.075861	0.452138	-0.024737	-0.087537	-0.183504	-0.978801
59697	1.266520	3.771994	9.547989	0.409001	0.031322	0.523068	-0.024638	-0.087193	-0.183658	-0.978805
59698	1.375656	3.539782	9.439805	0.281426	0.217241	0.356187	-0.024590	-0.087078	-0.183532	-0.978841
59699	1.354120	3.458310	9.422401	0.298124	0.286276	0.306816	-0.024436	-0.086896	-0.183792	-0.978812
59700	1.224840	3.717927	9.501516	0.433347	0.071592	0.454205	-0.024263	-0.086773	-0.184352	-0.978722
59701	1.426476	3.737324	9.449188	0.223146	0.056114	0.445804	-0.024101	-0.086597	-0.184333	-0.978745
59702	1.336344	3.587477	9.432115	0.308021	0.178604	0.360504	-0.023913	-0.086435	-0.184037	-0.978819
59703	1.276214	3.459636	9.378108	0.358375	0.266958	0.254438	-0.023783	-0.086464	-0.183743	-0.978875
59704	1.288655	3.505828	9.328415	0.336795	0.203560	0.228026	-0.023691	-0.086424	-0.183705	-0.978888
59705	1.310420	3.637628	9.453851	0.335983	0.127136	0.394947	-0.023647	-0.086463	-0.183672	-0.978892
59706	1.409955	3.513615	9.442088	0.238237	0.243775	0.354432	-0.023609	-0.086477	-0.183503	-0.978923
59707	1.301379	3.487132	9.417603	0.341484	0.250427	0.304901	-0.023467	-0.086475	-0.183614	-0.978906
59708	1.289482	3.694375	9.457252	0.359285	0.076172	0.415504	-0.023318	-0.086590	-0.184008	-0.978826
59709	1.364345	3.707601	9.464066	0.289023	0.075934	0.438507	-0.023163	-0.086641	-0.184001	-0.978826
59710	1.382702	3.649987	9.442156	0.269344	0.118488	0.400147	-0.023027	-0.086708	-0.183594	-0.978900
59711	1.307325	3.536761	9.410939	0.339997	0.196954	0.317917	-0.022999	-0.086710	-0.183065	-0.978999
59712	1.274744	3.429636	9.368306	0.367076	0.270004	0.234446	-0.022957	-0.086855	-0.182745	-0.979047
59713	1.290166	3.345379	9.356801	0.353303	0.344766	0.195416	-0.022992	-0.086953	-0.183004	-0.978989
59714	1.289731	3.483142	9.363107	0.355918	0.225373	0.251407	-0.023066	-0.087126	-0.183381	-0.978902
59715	1.357687	3.641066	9.404522	0.298126	0.104729	0.358147	-0.023252	-0.087338	-0.183585	-0.978840
59716	1.386035	3.655981	9.450412	0.280602	0.108805	0.410179	-0.023389	-0.087419	-0.183291	-0.978885
59717	1.326164	3.702728	9.371334	0.326482	0.025600	0.345243	-0.023486	-0.087578	-0.182930	-0.978936
59718	1.393025	3.591518	9.299299	0.250774	0.097160	0.249328	-0.023531	-0.087641	-0.182189	-0.979067
59719	1.263117	3.259460	9.156608	0.357024	0.331634	-0.023635	-0.023616	-0.087616	-0.181589	-0.979179
59720	1.188088	3.438248	9.422445	0.475903	0.249261	0.273291	-0.023832	-0.087684	-0.181692	-0.979148
59721	1.450044	3.572431	9.476165	0.225538	0.164504	0.413977	-0.024065	-0.087641	-0.181615	-0.979161
59722	1.374457	3.493326	9.464233	0.296974	0.230070	0.361940	-0.024238	-0.087554	-0.181868	-0.979117
59723	1.366426	3.579205	9.411714	0.293474	0.136849	0.343755	-0.024242	-0.087576	-0.182194	-0.979055
59724	1.379993	3.606657	9.274212	0.255344	0.067965	0.229900	-0.024199	-0.087560	-0.182330	-0.979032
59725	1.293525	3.609323	9.274267	0.339779	0.058669	0.216946	-0.024161	-0.087502	-0.182198	-0.979063
59726	1.324837	3.490374	9.264470	0.307868	0.163220	0.169641	-0.024145	-0.087461	-0.181828	-0.979135
59727	1.366358	3.253047	9.241391	0.264344	0.375380	0.068698	-0.024183	-0.087317	-0.181818	-0.979149
59728	1.300190	3.371413	9.422981	0.356864	0.328983	0.267685	-0.024238	-0.087122	-0.182232	-0.979088
59729	1.387839	3.606989	9.406260	0.260910	0.121582	0.352514	-0.024325	-0.086975	-0.182863	-0.978982
59730	1.420657	3.880163	9.443958	0.229362	-0.103158	0.492603	-0.024330	-0.086897	-0.183497	-0.978870
59731	1.361310	3.906473	9.438987	0.285762	-0.127174	0.488300	-0.024263	-0.086865	-0.183528	-0.978868
59732	1.413520	3.761374	9.380072	0.224551	-0.011636	0.389330	-0.024136	-0.086722	-0.183287	-0.978929
59733	1.285485	3.502553	9.401781	0.355512	0.221915	0.293657	-0.024060	-0.086584	-0.183070	-0.978984
59734	1.365027	3.276530	9.381837	0.273086	0.428189	0.205291	-0.024065	-0.086331	-0.182992	-0.979021
59735	1.230788	3.306310	9.299405	0.385974	0.365453	0.119227	-0.024034	-0.086140	-0.183569	-0.978930
59736	1.288325	3.797266	9.394760	0.337764	-0.040001	0.396368	-0.023940	-0.086130	-0.184179	-0.978819
59737	1.418401	3.922246	9.365157	0.202075	-0.154414	0.436086	-0.023822	-0.086024	-0.183797	-0.978903
59738	1.381290	3.689192	9.343563	0.235435	0.036775	0.324543	-0.023656	-0.085870	-0.182766	-0.979113
59739	1.373539	3.406160	9.363423	0.246215	0.285937	0.238174	-0.023417	-0.085603	-0.181803	-0.979322
59740	1.138471	3.200091	9.424014	0.485894	0.466919	0.182043	-0.023269	-0.085343	-0.181362	-0.979430
59741	1.281758	3.322462	9.495185	0.352934	0.387221	0.314784	-0.023194	-0.085312	-0.181609	-0.979389
59742	1.278697	3.538874	9.517898	0.356931	0.201652	0.413798	-0.023091	-0.085281	-0.182151	-0.979293
59743	1.452012	3.875006	9.488811	0.177779	-0.102916	0.537160	-0.022983	-0.085354	-0.182154	-0.979289
59744	1.357038	3.725776	9.405161	0.258481	-0.007783	0.390897	-0.022847	-0.085247	-0.181525	-0.979418
59745	1.240778	3.578440	9.429517	0.377040	0.115635	0.341376	-0.022649	-0.085142	-0.180845	-0.979558
59746	1.280982	3.354802	9.351718	0.325304	0.288512	0.195368	-0.022518	-0.085089	-0.180482	-0.979632
59747	1.271208	3.345289	9.369682	0.337557	0.299516	0.207003	-0.022459	-0.085063	-0.180510	-0.979631
59748	1.371262	3.477181	9.476755	0.257160	0.224038	0.368850	-0.022450	-0.085183	-0.180683	-0.979588
59749	1.426342	3.429377	9.361100	0.184841	0.234787	0.253890	-0.022440	-0.085195	-0.180820	-0.979562
59750	1.249943	3.464484	9.315882	0.350420	0.176090	0.197151	-0.022469	-0.085195	-0.180999	-0.979529
59751	1.428500	3.601921	9.322158	0.173586	0.063564	0.281019	-0.022441	-0.085153	-0.180818	-0.979566
59752	1.409116	3.465926	9.326551	0.193990	0.185122	0.232755	-0.022432	-0.085096	-0.180483	-0.979633
59753	1.330592	3.270569	9.312814	0.269876	0.348777	0.137243	-0.022444	-0.085034	-0.180056	-0.979717
59754	1.186634	3.323205	9.298879	0.405498	0.283050	0.120912	-0.022504	-0.084801	-0.180375	-0.979677
59755	1.329775	3.523631	9.371343	0.269439	0.137886	0.282595	-0.022626	-0.084527	-0.180564	-0.979663
59756	1.455873	3.473658	9.367800	0.138703	0.195068	0.281085	-0.022702	-0.084167	-0.180596	-0.979687
59757	1.348839	3.601795	9.394902	0.238917	0.077305	0.335880	-0.022737	-0.083728	-0.180550	-0.979732
59758	1.375061	3.648506	9.334639	0.192998	0.011506	0.301683	-0.022671	-0.083260	-0.180311	-0.979817
59759	1.301442	3.394240	9.380463	0.267927	0.255966	0.240689	-0.022562	-0.082823	-0.180225	-0.979872
59760	1.259874	3.206564	9.340535	0.295797	0.414872	0.129913	-0.022476	-0.082336	-0.180428	-0.979878
59761	1.086223	3.197438	9.460974	0.478545	0.462180	0.210829	-0.022448	-0.081888	-0.181088	-0.979795
59762	1.159224	3.606227	9.613042	0.420912	0.158532	0.509954	-0.022557	-0.081723	-0.182120	-0.979615
59763	1.475533	3.829504	9.626857	0.105656	-0.007076	0.651894	-0.022642	-0.081606	-0.182402	-0.979570
59764	1.258937	3.714657	9.604151	0.314090	0.078583	0.556425	-0.022650	-0.081451	-0.182384	-0.979586
59765	1.182987	3.553121	9.577568	0.384159	0.209948	0.461663	-0.022742	-0.081382	-0.182027	-0.979656
59766	1.187838	3.383166	9.520224	0.371024	0.343078	0.347828	-0.022962	-0.081401	-0.181896	-0.979674
59767	1.238161	3.357989	9.539295	0.326070	0.378038	0.363660	-0.023179	-0.081553	-0.182100	-0.979618
59768	1.324800	3.410367	9.564680	0.247619	0.353353	0.418765	-0.023414	-0.081782	-0.182694	-0.979483
59769	1.288363	3.596480	9.495845	0.273963	0.168104	0.417770	-0.023628	-0.082044	-0.183557	-0.979294
59770	1.338214	3.750615	9.390800	0.210012	0.005716	0.385396	-0.023864	-0.082327	-0.184116	-0.979160
59771	1.378291	3.778886	9.416864	0.179111	-0.001456	0.425716	-0.024084	-0.082562	-0.184170	-0.979125
59772	1.296481	3.710137	9.365308	0.255355	0.035625	0.340563	-0.024276	-0.082738	-0.183915	-0.979153
59773	1.281592	3.651273	9.385875	0.277531	0.090990	0.335397	-0.024490	-0.082961	-0.183607	-0.979186
59774	1.324835	3.444537	9.285424	0.224408	0.244019	0.173764	-0.024703	-0.083154	-0.183276	-0.979227
59775	1.327696	3.485293	9.299710	0.226609	0.210447	0.202252	-0.024914	-0.083364	-0.183482	-0.979165
59776	1.330468	3.615078	9.293075	0.223804	0.091422	0.244237	-0.025128	-0.083546	-0.183625	-0.979117
59777	1.465123	3.628413	9.197832	0.076571	0.057350	0.182457	-0.025233	-0.083617	-0.183650	-0.979104
59778	1.436478	3.527094	9.042573	0.077693	0.093234	-0.001609	-0.025200	-0.083337	-0.183609	-0.979136
59779	1.286298	3.437173	8.975300	0.208178	0.139556	-0.119292	-0.025151	-0.082829	-0.183538	-0.979194
59780	1.375854	3.482680	9.056024	0.121153	0.130794	-0.014636	-0.025134	-0.082117	-0.183332	-0.979293
59781	1.368571	3.329152	8.882773	0.084255	0.206534	-0.230928	-0.025149	-0.081012	-0.183101	-0.979428
59782	1.310545	3.317238	8.659251	0.080452	0.129423	-0.448877	-0.025055	-0.079569	-0.182967	-0.979573
59783	1.224113	3.188154	8.593989	0.127336	0.218020	-0.568468	-0.024965	-0.077716	-0.182941	-0.979729
59784	1.076769	3.267621	8.625720	0.237316	0.144463	-0.530312	-0.025066	-0.075323	-0.182940	-0.979914
59785	1.141880	3.339076	8.591260	0.117721	0.066576	-0.525893	-0.025290	-0.072511	-0.182420	-0.980217
59786	1.340079	3.178611	8.409009	-0.157123	0.153918	-0.726315	-0.025537	-0.069383	-0.181590	-0.980591
59787	1.343164	2.954655	8.250185	-0.240896	0.298290	-0.955361	-0.025453	-0.065456	-0.181520	-0.980876
59788	1.109849	2.969486	8.221182	-0.088722	0.268484	-1.006047	-0.024965	-0.060736	-0.182837	-0.980948
59789	-0.011125	3.017832	8.623980	0.986612	0.324927	-0.735210	-0.025005	-0.055533	-0.185229	-0.980806
59790	0.724132	3.924320	8.604953	0.136447	-0.428585	-0.338158	-0.025690	-0.050568	-0.187206	-0.980682
59791	1.059613	3.384671	8.580749	-0.289427	0.100587	-0.532981	-0.025865	-0.044068	-0.186555	-0.981115
59792	0.377937	3.163635	8.864735	0.302884	0.371462	-0.405032	-0.026186	-0.037579	-0.187672	-0.981163
59793	0.527365	3.009264	8.671115	0.016728	0.480549	-0.631768	-0.026374	-0.030265	-0.189230	-0.981112
59794	0.571376	3.479812	8.200114	-0.213267	-0.081422	-0.889490	-0.026275	-0.022301	-0.192515	-0.980689
59795	-0.212863	3.970284	8.418622	0.414835	-0.432968	-0.521843	-0.025898	-0.013632	-0.195789	-0.980209
59796	-0.619580	4.476350	8.702701	0.652256	-0.756121	-0.057731	-0.025387	-0.004989	-0.197596	-0.979942
59797	-0.495219	4.088589	8.293508	0.377137	-0.527734	-0.575744	-0.025121	0.004252	-0.197787	-0.979914
59798	0.240698	3.276091	7.917772	-0.490697	0.102546	-1.255368	-0.024567	0.015251	-0.196729	-0.980032
59799	-0.842327	2.153507	7.978925	0.449135	1.112660	-1.592795	-0.023893	0.028504	-0.197053	-0.979687
59800	-3.147427	2.840794	8.258549	2.476340	0.557173	-0.883376	-0.025109	0.040714	-0.200884	-0.978447
59801	-1.244123	5.062007	8.237997	0.219332	-1.345613	-0.160062	-0.026763	0.051965	-0.204369	-0.977147
59802	-0.469788	4.235151	7.796535	-0.679591	-0.738478	-0.984854	-0.026908	0.066308	-0.200751	-0.977025
59803	-1.308872	2.959775	7.152292	0.081005	0.113598	-1.963868	-0.026540	0.082624	-0.199156	-0.976118
59804	-3.617273	1.966467	8.233543	1.990560	1.412215	-0.937029	-0.025399	0.100382	-0.198014	-0.974715
59805	-4.769690	2.460325	7.705791	2.888168	0.796245	-0.913221	-0.027669	0.114048	-0.203228	-0.972073
59806	-2.111459	5.786639	8.446129	-0.472478	-1.806374	0.472467	-0.030524	0.129106	-0.209111	-0.968851
59807	-2.182651	5.432374	7.942540	-0.578271	-1.657240	-0.103555	-0.030963	0.147939	-0.205323	-0.966953
59808	-3.751794	3.528504	7.537914	0.898440	-0.140511	-0.729331	-0.029833	0.169220	-0.200393	-0.964529
59809	-5.890473	1.708529	8.225173	2.553487	1.792664	-0.039034	-0.028574	0.187342	-0.196951	-0.961924
59810	-4.708290	2.524867	7.963624	1.104250	0.940128	-0.333718	-0.031157	0.202992	-0.199496	-0.958136
59811	-3.604276	5.655256	8.598157	-0.950682	-1.650720	0.923150	-0.033740	0.221642	-0.200373	-0.953723
59812	-5.149048	5.691400	7.406765	0.508249	-2.172228	0.616712	-0.033291	0.242834	-0.191786	-0.950337
59813	-5.455341	3.639958	6.194012	1.257283	-0.867815	-0.922843	-0.029938	0.264953	-0.180462	-0.946751
59814	-7.341100	0.939221	7.351227	2.313765	2.018192	0.155667	-0.024616	0.286060	-0.168350	-0.942986
59815	-7.653500	0.977768	7.446785	2.093227	1.972188	0.516983	-0.024814	0.304004	-0.166597	-0.937663
59816	-6.454240	4.174554	8.664104	-0.488409	-0.699794	1.737335	-0.025644	0.324268	-0.164987	-0.931113
59817	-7.258640	4.690958	6.898093	0.646538	-1.786701	1.079879	-0.023985	0.345838	-0.155846	-0.924950
59818	-6.591737	3.560003	5.744781	0.625519	-1.243549	-0.475900	-0.018944	0.368079	-0.143792	-0.918413
59819	-8.392880	0.570312	6.421884	1.473776	1.813110	0.508407	-0.011198	0.389436	-0.130791	-0.911651
59820	-8.804316	-0.200269	6.591417	1.269564	2.569726	0.806682	-0.007840	0.407744	-0.126719	-0.904227
59821	-8.812161	2.540135	7.295654	-0.043696	0.102454	1.904837	-0.006895	0.427078	-0.126391	-0.895311
59822	-9.288762	4.891352	6.726090	-0.088945	-2.261058	2.447273	-0.005158	0.446370	-0.122635	-0.886390
59823	-8.163853	4.501694	5.696267	-0.328098	-2.316910	0.858438	0.001404	0.465373	-0.111156	-0.878106
59824	-9.305378	1.705240	6.115547	-0.135607	0.463303	1.441021	0.011054	0.484016	-0.097177	-0.869576
59825	-9.615385	-0.024402	6.199354	-0.364649	2.079645	1.430584	0.019706	0.501231	-0.087211	-0.860682
59826	-11.241405	0.417344	5.988005	0.092305	1.748866	2.809035	0.026424	0.519328	-0.080987	-0.850319
59827	-11.637085	2.336123	5.070371	0.509163	-0.233576	3.081396	0.030452	0.534734	-0.075915	-0.841052
59828	-9.583664	3.221267	4.552233	-0.320980	-1.516103	1.166077	0.037370	0.550403	-0.064589	-0.831558
59829	-10.563659	0.698806	5.921090	-1.546224	1.006394	2.175391	0.049774	0.565029	-0.046210	-0.822271
59830	-9.428771	-2.255413	5.455530	-2.027290	3.510632	0.545622	0.060855	0.578696	-0.029027	-0.812751
59831	-10.001070	-1.150302	4.787172	-1.574453	2.304293	0.978859	0.065260	0.592721	-0.019920	-0.802513
59832	-9.566711	1.179987	4.136207	-1.256849	-0.170292	0.599066	0.068994	0.605103	-0.011829	-0.793064
59833	-10.117457	1.616738	4.288046	-1.520690	-0.678397	1.168319	0.074280	0.616468	-0.002182	-0.783865
59834	-10.441511	0.483672	4.303575	-1.849217	0.346266	1.333356	0.079112	0.624891	0.005837	-0.776671
59835	-10.425556	-0.256777	4.103824	-1.975642	1.013833	1.172057	0.081282	0.632093	0.008468	-0.770571
59836	-10.585815	0.250645	4.447270	-2.404458	0.471506	1.407572	0.081206	0.637983	0.007762	-0.765717
59837	-10.370481	0.896812	4.679786	-2.732627	-0.216072	1.265953	0.081087	0.642238	0.007175	-0.762170
59838	-10.093135	0.690689	4.262658	-2.499677	-0.020457	0.876984	0.082352	0.645364	0.009799	-0.759360
59839	-10.046812	0.945882	3.650528	-1.949281	-0.267860	0.736586	0.084710	0.648020	0.015019	-0.756749
59840	-10.251840	1.307565	3.250332	-1.528969	-0.639183	0.893730	0.089125	0.649912	0.022992	-0.754415
59841	-10.427611	0.519009	2.849522	-1.264308	0.110877	0.934987	0.096136	0.650233	0.033580	-0.752879
59842	-10.522870	-0.258328	1.882442	-0.468756	0.957844	0.827023	0.102041	0.650145	0.042585	-0.751722
59843	-10.652474	-0.373864	2.055964	-0.654293	0.974849	0.979116	0.106454	0.649537	0.050531	-0.751143
59844	-10.482346	-0.135913	1.664372	-0.235212	0.738030	0.773520	0.108942	0.648406	0.056757	-0.751318
59845	-10.181495	0.551827	1.736955	-0.156275	-0.028322	0.529405	0.110413	0.647110	0.061137	-0.751878
59846	-9.754626	0.341011	1.313243	0.180938	0.199369	0.032155	0.111405	0.645430	0.064292	-0.752911
59847	-9.276975	0.664470	1.609533	-0.046603	-0.244533	-0.376999	0.111145	0.643631	0.065366	-0.754396
59848	-9.255050	0.755864	1.678307	-0.043173	-0.359212	-0.383326	0.110586	0.641523	0.065596	-0.756252
59849	-9.251017	0.804591	1.740636	-0.031651	-0.421836	-0.374511	0.109458	0.638896	0.065063	-0.758682
59850	-9.107302	0.739737	1.619794	0.112529	-0.338933	-0.539826	0.108131	0.636123	0.064192	-0.761272
59851	-9.242365	0.760909	1.701249	0.128456	-0.360233	-0.392075	0.106061	0.633577	0.062383	-0.763833
59852	-9.455770	1.103194	2.017432	0.007807	-0.733669	-0.109082	0.103647	0.631004	0.059881	-0.766489
59853	-9.659991	1.428818	2.238297	-0.028393	-1.063521	0.148972	0.101692	0.628401	0.057530	-0.769065
59854	-9.835946	1.524672	2.446859	-0.109372	-1.165372	0.370001	0.101098	0.625812	0.056192	-0.771350
59855	-9.800017	1.191994	2.375415	-0.060205	-0.809381	0.308812	0.101931	0.623484	0.056118	-0.773129
59856	-9.646415	0.730619	2.204552	0.023710	-0.322084	0.104098	0.103729	0.621388	0.057111	-0.774503
59857	-9.612668	0.296120	2.024191	0.134547	0.148494	0.013203	0.105752	0.619638	0.058292	-0.775543
59858	-9.722725	0.360880	2.191713	0.048524	0.073169	0.160146	0.107175	0.618243	0.058690	-0.776431
59859	-9.572959	0.361767	2.318761	-0.072007	0.047135	0.043354	0.108902	0.616801	0.059153	-0.777302
59860	-9.570945	0.110577	2.245734	-0.034723	0.325869	0.013352	0.110612	0.615579	0.059405	-0.778009
59861	-9.423302	-0.139014	2.179214	-0.039297	0.590457	-0.157811	0.111736	0.614404	0.058899	-0.778815
59862	-9.333922	-0.068514	2.195513	-0.034767	0.534552	-0.238763	0.112011	0.613471	0.057573	-0.779610
59863	-9.442177	0.207539	2.379123	-0.098390	0.261747	-0.077199	0.111728	0.612703	0.056028	-0.780367
59864	-9.512509	0.510156	2.513072	-0.118219	-0.033403	0.038631	0.111393	0.611880	0.054795	-0.781148
59865	-9.465968	0.586344	2.553560	-0.128551	-0.105768	0.007764	0.111448	0.610981	0.054190	-0.781886
59866	-9.429910	0.494712	2.537922	-0.123773	-0.007789	-0.035491	0.111582	0.610209	0.054031	-0.782480
59867	-9.458302	0.478899	2.573539	-0.137225	0.008107	0.000213	0.111943	0.609514	0.054179	-0.782960
59868	-9.478682	0.412413	2.551413	-0.112262	0.083032	0.011044	0.112409	0.608914	0.054462	-0.783340
59869	-9.555854	0.372805	2.545062	-0.086716	0.132035	0.082044	0.112738	0.608562	0.054863	-0.783538
59870	-9.532199	0.503700	2.575762	-0.080804	-0.003102	0.073896	0.112901	0.608139	0.054843	-0.783845
59871	-9.374607	0.528849	2.510829	-0.042055	-0.026707	-0.093392	0.112971	0.607841	0.054670	-0.784078
59872	-9.394781	0.500711	2.564869	-0.090541	-0.004215	-0.061638	0.112902	0.607747	0.054303	-0.784186
59873	-9.475427	0.644230	2.595436	-0.064650	-0.135029	0.031733	0.112726	0.607684	0.053737	-0.784299
59874	-9.510685	0.612587	2.615107	-0.080545	-0.098648	0.069162	0.112815	0.607555	0.053505	-0.784402
59875	-9.436765	0.434511	2.628006	-0.151017	0.066520	-0.008580	0.113003	0.607532	0.053525	-0.784391
59876	-9.391058	0.455418	2.682148	-0.209835	0.030098	-0.037804	0.113049	0.607694	0.053561	-0.784257
59877	-9.386070	0.580726	2.688474	-0.190906	-0.093991	-0.034233	0.113237	0.607821	0.053721	-0.784120
59878	-9.408770	0.612689	2.602824	-0.101447	-0.104796	-0.032413	0.113359	0.608021	0.053847	-0.783939
59879	-9.516706	0.598273	2.602394	-0.084172	-0.080471	0.070860	0.113598	0.608212	0.054150	-0.783736
59880	-9.534506	0.490015	2.535560	-0.048914	0.038957	0.065170	0.114012	0.608470	0.054518	-0.783450
59881	-9.561786	0.446803	2.606165	-0.128000	0.067396	0.106917	0.114242	0.608848	0.054638	-0.783114
59882	-9.523570	0.437285	2.661777	-0.200277	0.060297	0.083317	0.114391	0.609132	0.054643	-0.782871
59883	-9.421820	0.450798	2.712633	-0.276765	0.026487	-0.001725	0.114305	0.609493	0.054316	-0.782625
59884	-9.395819	0.527169	2.680572	-0.243406	-0.040762	-0.030874	0.114315	0.609861	0.054108	-0.782352
59885	-9.438952	0.557673	2.692660	-0.247473	-0.066531	0.015311	0.114327	0.610271	0.053977	-0.782039
59886	-9.472223	0.555157	2.692653	-0.249846	-0.059473	0.047111	0.114504	0.610590	0.053993	-0.781763
59887	-9.488174	0.469015	2.645651	-0.231692	0.036601	0.045805	0.114770	0.610965	0.054103	-0.781423
59888	-9.384964	0.461613	2.558526	-0.184455	0.052176	-0.076161	0.115032	0.611334	0.054116	-0.781095
59889	-9.337055	0.578432	2.506373	-0.130981	-0.052535	-0.128827	0.115108	0.611983	0.053838	-0.780595
59890	-9.342066	0.693451	2.614892	-0.221003	-0.182117	-0.091026	0.115284	0.612597	0.053384	-0.780118
59891	-9.247152	0.566875	2.533710	-0.212497	-0.045747	-0.210418	0.115636	0.613249	0.053101	-0.779573
59892	-9.472598	0.584358	2.516211	-0.159809	-0.026713	0.004473	0.115738	0.613950	0.052647	-0.779037
59893	-9.608507	0.715346	2.606727	-0.201454	-0.150531	0.165633	0.115619	0.614551	0.051911	-0.778630
59894	-9.598401	0.740362	2.678421	-0.281964	-0.182280	0.174235	0.115544	0.615170	0.051095	-0.778206
59895	-9.680549	0.895768	2.669088	-0.236432	-0.310307	0.261399	0.115572	0.615856	0.050249	-0.777714
59896	-9.545463	1.104515	2.687901	-0.251540	-0.522779	0.148438	0.116099	0.616449	0.050022	-0.777180
59897	-9.553375	0.967664	2.547793	-0.166742	-0.353068	0.114150	0.117303	0.617098	0.050558	-0.776450
59898	-9.529179	0.702154	2.472088	-0.181721	-0.078015	0.054954	0.118904	0.617695	0.051340	-0.775680
59899	-9.471393	0.506810	2.276593	-0.076165	0.153419	-0.059861	0.120342	0.618442	0.051810	-0.774831
59900	-9.553649	0.527196	2.334011	-0.132577	0.138233	0.034191	0.121297	0.619346	0.051881	-0.773955
59901	-9.568399	0.480560	2.283666	-0.120474	0.202167	0.033372	0.122055	0.620396	0.051979	-0.772988
59902	-9.554112	0.594295	2.244409	-0.088715	0.102137	0.018550	0.122570	0.621656	0.052027	-0.771889
59903	-9.578864	0.585038	2.210833	-0.086869	0.121548	0.034255	0.123185	0.622875	0.052367	-0.770785
59904	-9.586573	0.398226	2.090942	-0.050572	0.327192	0.001757	0.123550	0.624128	0.052678	-0.769691
59905	-9.655426	0.309879	2.044886	-0.049710	0.427248	0.052389	0.123239	0.625555	0.052407	-0.768600
59906	-9.642496	0.513533	2.249658	-0.229797	0.181490	0.097740	0.122268	0.626915	0.051165	-0.767730
59907	-9.581664	0.726775	2.431031	-0.392511	-0.068224	0.091231	0.121223	0.628134	0.049720	-0.766995
59908	-9.630763	0.802128	2.531006	-0.489566	-0.149364	0.164233	0.120157	0.629219	0.048134	-0.766374
59909	-9.675406	0.946968	2.577983	-0.516030	-0.284048	0.227692	0.119214	0.630007	0.046598	-0.765968
59910	-9.629308	1.086607	2.475167	-0.407800	-0.392435	0.172823	0.118638	0.630310	0.045522	-0.765874
59911	-9.557542	0.957635	2.196004	-0.192402	-0.208745	0.036450	0.118208	0.630629	0.044717	-0.765725
59912	-9.682040	0.994613	2.293681	-0.263678	-0.240545	0.180546	0.117738	0.630902	0.043512	-0.765642
59913	-9.564272	0.851275	2.148338	-0.183533	-0.071387	0.024818	0.117289	0.630948	0.042089	-0.765752
59914	-9.598471	0.798874	2.056530	-0.106198	0.020328	0.035481	0.116119	0.631206	0.039883	-0.765836
59915	-9.602489	0.902080	1.963842	-0.000629	-0.040227	0.029901	0.114506	0.631466	0.037065	-0.766006
59916	-9.689921	1.196156	2.047749	-0.009818	-0.304087	0.158570	0.112601	0.631654	0.033356	-0.766304
59917	-9.592858	1.181372	1.908610	0.095877	-0.239374	0.035902	0.111030	0.631753	0.029300	-0.766618
59918	-9.444030	1.142335	1.948813	0.011670	-0.185466	-0.104043	0.109349	0.632152	0.024836	-0.766687
59919	-9.516343	0.817276	2.094220	-0.193847	0.160711	-0.037673	0.108286	0.632595	0.021089	-0.766586
59920	-9.428332	0.621444	2.083604	-0.249692	0.382982	-0.147705	0.106680	0.633101	0.017127	-0.766492
59921	-9.653783	0.719055	2.513834	-0.621012	0.290100	0.165388	0.104717	0.633479	0.013418	-0.766524
59922	-9.737084	0.648882	2.850269	-0.949117	0.353607	0.303139	0.103063	0.633421	0.010534	-0.766840
59923	-9.502361	0.541465	2.526133	-0.692100	0.494133	-0.002173	0.101911	0.633385	0.008657	-0.767048
59924	-9.396281	0.542432	2.069743	-0.267621	0.550856	-0.195354	0.100820	0.633525	0.007541	-0.767089
59925	-9.486263	0.792159	1.992863	-0.137620	0.326877	-0.093509	0.099549	0.633565	0.007104	-0.767225
59926	-9.468053	0.862556	2.118477	-0.249806	0.227882	-0.078129	0.098237	0.633548	0.006908	-0.767410
59927	-9.427392	0.695080	2.124508	-0.289128	0.374269	-0.135461	0.096648	0.633805	0.006310	-0.767405
59928	-9.569974	1.004402	2.356183	-0.447890	0.053075	0.083847	0.094351	0.634160	0.004905	-0.767408
59929	-9.688836	1.376588	2.606283	-0.623276	-0.331821	0.289919	0.092087	0.634416	0.003487	-0.767479
59930	-9.645116	1.615178	2.642288	-0.632939	-0.583955	0.280733	0.090721	0.634174	0.003159	-0.767843
59931	-9.616908	1.397810	2.432373	-0.452739	-0.366275	0.188115	0.090721	0.633711	0.004648	-0.768217
59932	-9.549336	0.909481	2.070519	-0.167368	0.123763	-0.001437	0.090942	0.633329	0.006507	-0.768494
59933	-9.664767	0.706168	1.977520	-0.076019	0.326886	0.071862	0.090526	0.633181	0.007600	-0.768654
59934	-9.671315	0.753108	2.167142	-0.244984	0.239049	0.121135	0.089511	0.632923	0.007953	-0.768982
59935	-9.623728	0.866011	2.392880	-0.447980	0.077200	0.131422	0.088101	0.632665	0.008029	-0.769356
59936	-9.635192	1.019491	2.539676	-0.556592	-0.108718	0.187542	0.086733	0.632302	0.008317	-0.769807
59937	-9.686953	1.245932	2.485382	-0.448310	-0.342402	0.249531	0.085656	0.631762	0.009231	-0.770360
59938	-9.557881	1.311496	2.281050	-0.244415	-0.430005	0.088398	0.085398	0.631039	0.011454	-0.770951
59939	-9.648451	1.086528	2.264077	-0.220661	-0.234174	0.152025	0.085684	0.630419	0.014361	-0.771378
59940	-9.750055	0.957288	2.398580	-0.328386	-0.152861	0.267083	0.086308	0.629655	0.017485	-0.771868
59941	-9.733201	0.776063	2.307813	-0.245362	-0.002871	0.217422	0.087171	0.628725	0.020569	-0.772452
59942	-9.667180	0.592488	2.155888	-0.116801	0.157831	0.107727	0.087938	0.628057	0.023262	-0.772833
59943	-9.874271	0.846758	2.380423	-0.232028	-0.131184	0.376203	0.087654	0.627279	0.024846	-0.773447
59944	-9.808090	1.052597	2.468609	-0.270009	-0.384794	0.345042	0.087921	0.626263	0.027413	-0.774153
59945	-9.695360	0.551640	2.420859	-0.296266	0.064875	0.190944	0.088917	0.624972	0.030978	-0.774948
59946	-9.519228	0.313148	2.309540	-0.236139	0.257515	-0.018533	0.089456	0.624103	0.034179	-0.775452
59947	-9.588290	0.605875	2.806795	-0.620824	-0.141256	0.176052	0.089427	0.622927	0.036504	-0.776294
59948	-9.569061	0.854527	2.863434	-0.596969	-0.432815	0.184935	0.090179	0.621434	0.039531	-0.777255
59949	-9.732811	0.523946	2.820293	-0.535213	-0.123410	0.319152	0.091754	0.619496	0.043203	-0.778421
59950	-9.651767	0.289542	2.456502	-0.198442	0.130580	0.148143	0.092647	0.617544	0.045960	-0.779707
59951	-9.695181	0.917040	2.540696	-0.097304	-0.514824	0.238080	0.092618	0.615729	0.046905	-0.781088
59952	-9.619487	1.425152	2.818845	-0.229035	-1.076859	0.252061	0.093202	0.613736	0.047885	-0.782527
59953	-9.532248	1.442499	3.315264	-0.659506	-1.195227	0.290364	0.095430	0.611317	0.049827	-0.784030
59954	-9.472590	0.862880	3.247358	-0.663248	-0.622381	0.196920	0.098994	0.608760	0.052751	-0.785385
59955	-9.281103	1.054187	2.538174	0.057358	-0.683015	-0.157505	0.102430	0.606999	0.055221	-0.786137
59956	-9.298778	1.997964	1.923845	0.895824	-1.463466	-0.261986	0.106704	0.605509	0.058502	-0.786480
59957	-9.005771	1.834730	1.478721	1.249572	-1.228300	-0.670125	0.114065	0.604186	0.065819	-0.785886
59958	-9.229834	0.463248	1.282852	1.156331	0.163954	-0.556006	0.122895	0.603753	0.075115	-0.784052
59959	-9.395440	-0.830096	1.758222	0.366274	1.282874	-0.311395	0.130654	0.603770	0.082919	-0.781995
59960	-9.441461	-1.554884	1.971816	-0.083179	1.902073	-0.230311	0.135821	0.604068	0.087312	-0.780404
59961	-9.370463	-1.670580	2.062486	-0.252474	1.980017	-0.280322	0.136854	0.604629	0.086888	-0.779837
59962	-9.343111	-0.805560	1.753589	0.277202	1.265030	-0.360676	0.134815	0.605993	0.083589	-0.779494
59963	-9.508845	0.276466	1.821787	0.558684	0.253362	-0.146403	0.131511	0.607607	0.079036	-0.779277
59964	-9.603277	0.985506	2.765973	-0.117356	-0.655469	0.207353	0.129052	0.608831	0.075592	-0.779074
59965	-9.510439	0.770803	3.507404	-0.914223	-0.644011	0.291465	0.128569	0.609408	0.074480	-0.778810
59966	-9.444828	0.216713	3.829124	-1.398634	-0.199280	0.282759	0.128966	0.609627	0.074438	-0.778577
59967	-9.561552	0.029678	3.594260	-1.214132	0.059266	0.329563	0.129278	0.609833	0.074369	-0.778370
59968	-9.554394	0.429516	3.256688	-0.788617	-0.229134	0.257194	0.129329	0.609734	0.074125	-0.778462
59969	-9.480376	0.624116	3.075027	-0.570543	-0.371877	0.150194	0.129653	0.609046	0.074450	-0.778916
59970	-9.463231	0.299132	2.855440	-0.442583	-0.003878	0.066574	0.130144	0.608009	0.075093	-0.779583
59971	-9.598593	0.021753	3.046251	-0.643810	0.228962	0.234507	0.129867	0.606958	0.074592	-0.780496
59972	-9.796529	0.153545	3.357179	-0.817088	0.057512	0.511803	0.128668	0.605560	0.072814	-0.781946
59973	-9.983075	0.325710	3.749269	-1.044177	-0.163631	0.803692	0.126905	0.603664	0.070498	-0.783910
59974	-10.020328	0.323581	3.808224	-1.028643	-0.146344	0.861311	0.125216	0.601060	0.068797	-0.786330
59975	-9.806210	0.248626	3.603098	-0.830012	-0.026807	0.604392	0.123765	0.597698	0.067623	-0.789219
59976	-9.721048	0.105323	3.491925	-0.692773	0.145810	0.492718	0.122735	0.593926	0.066814	-0.792290
59977	-9.782211	-0.127299	3.668542	-0.799848	0.353495	0.598861	0.121331	0.589917	0.065383	-0.795614
59978	-9.951779	0.068720	4.234969	-1.110973	0.075399	0.945395	0.119011	0.585524	0.063189	-0.799378
59979	-10.025795	0.351076	4.472788	-1.103726	-0.211394	1.113471	0.116502	0.580282	0.060977	-0.803730
59980	-10.073528	0.333144	4.452052	-0.920524	-0.152564	1.166143	0.114193	0.574243	0.059250	-0.808514
59981	-9.762653	0.020945	4.410495	-0.884065	0.150631	0.862294	0.112069	0.567426	0.057782	-0.813714
59982	-9.699316	-0.205995	4.624356	-0.971539	0.347098	0.884812	0.109167	0.560509	0.055622	-0.819035
59983	-9.653003	-0.045680	5.056711	-1.148822	0.134940	1.022964	0.105736	0.553036	0.052709	-0.824738
59984	-9.569424	0.085790	5.174112	-1.046320	0.021776	1.015666	0.101970	0.544801	0.049417	-0.830874
59985	-9.633964	0.206832	5.153552	-0.752131	-0.033546	1.088855	0.098298	0.535979	0.045999	-0.837226
59986	-9.491205	0.236038	5.011995	-0.438308	-0.001601	0.913977	0.094698	0.526277	0.042604	-0.843949
59987	-9.283564	0.340935	5.299896	-0.510534	-0.122042	0.869478	0.091182	0.516264	0.038993	-0.850668
59988	-9.256076	-0.043880	5.567106	-0.569852	0.269852	0.969968	0.087845	0.505684	0.035396	-0.857505
59989	-9.255678	-0.183319	5.913027	-0.614564	0.426320	1.146242	0.083741	0.494432	0.030680	-0.864629
59990	-9.089113	-0.004846	6.085922	-0.518411	0.294076	1.109169	0.079089	0.482503	0.024933	-0.871960
59991	-9.105145	0.296264	6.292936	-0.330688	0.072864	1.253881	0.073883	0.470128	0.018310	-0.879310
59992	-9.075511	0.624419	6.563202	-0.203683	-0.176852	1.401042	0.069273	0.456863	0.011927	-0.886756
59993	-8.765136	0.372830	6.625106	-0.132128	0.133887	1.178816	0.065252	0.443134	0.006133	-0.894056
59994	-8.416407	0.327701	6.910342	-0.231647	0.224755	1.076803	0.061523	0.428700	-0.000059	-0.901350
59995	-8.145300	0.526354	7.036026	-0.129563	0.110673	0.961731	0.057558	0.413744	-0.007480	-0.908541
59996	-8.072982	0.950665	7.381667	-0.043070	-0.190879	1.165245	0.053603	0.398248	-0.015682	-0.915576
59997	-7.908912	1.199331	7.434803	0.186031	-0.315182	1.101497	0.049978	0.382526	-0.023397	-0.922295
59998	-7.860731	1.453453	7.581839	0.428900	-0.440716	1.187182	0.047254	0.366389	-0.030257	-0.928768
59999	-7.818330	1.320799	7.866591	0.570532	-0.186436	1.339912	0.045197	0.349896	-0.036182	-0.934998
60000	-7.562127	1.023203	8.308851	0.461020	0.208381	1.456723	0.043621	0.333027	-0.041357	-0.940999
60001	-7.009863	0.635055	8.254218	0.444563	0.633795	1.006757	0.041954	0.315647	-0.046606	-0.946802
60002	-6.496446	0.771504	8.260197	0.427210	0.553960	0.700497	0.039697	0.298103	-0.053084	-0.952229
60003	-6.249142	1.365948	8.302405	0.604646	0.066181	0.649833	0.037387	0.280412	-0.060146	-0.957264
60004	-5.988655	1.994557	8.471602	0.691196	-0.443327	0.719321	0.035561	0.262685	-0.066439	-0.961934
60005	-5.698055	2.070573	8.507503	0.795854	-0.451269	0.593274	0.034764	0.245232	-0.069994	-0.966309
60006	-5.512401	2.024448	8.596735	0.953982	-0.355253	0.547876	0.034285	0.227913	-0.072409	-0.970380
60007	-5.219557	1.797517	8.819510	0.948353	-0.094472	0.547777	0.034188	0.210711	-0.073590	-0.974175
60008	-4.953073	1.410631	8.810011	1.055772	0.283034	0.332939	0.033830	0.193527	-0.074550	-0.977673
60009	-4.342369	1.398626	8.801474	0.843163	0.260581	0.060994	0.033301	0.176434	-0.076040	-0.980806
60010	-3.808067	1.297910	8.528326	0.763980	0.304400	-0.419416	0.032783	0.159809	-0.077896	-0.983524
60011	-3.782004	1.432577	8.579071	1.038497	0.219048	-0.388159	0.032010	0.143596	-0.080567	-0.985832
60012	-3.538556	1.767599	8.799010	1.062813	-0.044474	-0.224755	0.031128	0.127307	-0.083694	-0.987836
60013	-2.794315	1.773423	8.856018	0.632042	-0.051189	-0.380150	0.030134	0.111549	-0.086075	-0.989566
60014	-2.518051	2.010985	8.873774	0.656778	-0.256349	-0.398625	0.029082	0.096329	-0.088672	-0.990965
60015	-2.005914	1.917995	8.777709	0.445031	-0.178389	-0.619504	0.028178	0.081586	-0.090455	-0.992153
60016	-2.067314	1.586312	8.784059	0.754127	0.188964	-0.683629	0.027168	0.067285	-0.092529	-0.993063
60017	-1.611943	1.741802	8.743482	0.572269	0.049067	-0.771390	0.026144	0.052965	-0.095910	-0.993636
60018	-1.225524	1.762056	8.810878	0.429977	0.082611	-0.755017	0.025360	0.039422	-0.099419	-0.993941
60019	-1.100901	2.051180	8.863529	0.553391	-0.120308	-0.666356	0.024431	0.026085	-0.104033	-0.993932
60020	-0.710876	2.134137	9.072487	0.390209	-0.094629	-0.474395	0.023426	0.013421	-0.108190	-0.993764
60021	-0.283434	1.909679	8.937234	0.182757	0.149526	-0.672601	0.022484	0.001227	-0.111881	-0.993466
60022	0.011200	1.911802	8.875696	0.100985	0.197630	-0.736358	0.021620	-0.010301	-0.116195	-0.992938
60023	0.084536	2.100218	8.735149	0.233388	0.064805	-0.831683	0.020711	-0.021310	-0.120931	-0.992216
60024	0.288949	2.187627	8.743985	0.222695	0.060248	-0.797708	0.019836	-0.031812	-0.125188	-0.991424
60025	0.752537	1.953883	8.523693	-0.085321	0.296518	-1.041192	0.018937	-0.041750	-0.129474	-0.990523
60026	1.126712	1.754092	8.282607	-0.325210	0.499815	-1.292724	0.017944	-0.050754	-0.134227	-0.989487
60027	1.213123	1.699196	8.074108	-0.292444	0.585058	-1.498835	0.016978	-0.058781	-0.139579	-0.988319
60028	1.329042	1.861643	7.912318	-0.295823	0.478030	-1.595694	0.016007	-0.065703	-0.145216	-0.987086
60029	1.347231	2.268768	8.008898	-0.179770	0.210832	-1.384956	0.015096	-0.071282	-0.150248	-0.985960
60030	1.678930	2.606702	7.757522	-0.444514	-0.106521	-1.471045	0.014210	-0.075602	-0.154646	-0.984971
60031	1.900205	2.552019	7.814060	-0.605360	0.024514	-1.397477	0.013361	-0.077925	-0.157222	-0.984393
60032	1.092732	2.445717	8.035476	0.243728	0.236797	-1.349302	0.012644	-0.078743	-0.159061	-0.984042
60033	1.170728	3.022969	8.327613	0.253843	-0.181592	-0.881812	0.011591	-0.079840	-0.161080	-0.983638
60034	1.424561	3.190256	8.618311	0.066092	-0.216447	-0.515852	0.009837	-0.080414	-0.161985	-0.983462
60035	1.325044	2.953836	8.775950	0.182548	0.075083	-0.460725	0.007844	-0.081004	-0.162655	-0.983321
60036	1.233310	3.007574	9.043801	0.318418	0.131116	-0.208613	0.006029	-0.081139	-0.163897	-0.983116
60037	1.457286	3.557060	9.692277	0.216611	-0.123149	0.611039	0.004561	-0.081118	-0.167206	-0.982569
60038	1.836770	3.954606	9.628755	-0.165062	-0.443106	0.746743	0.003386	-0.080437	-0.170229	-0.982110
60039	1.550208	4.536702	9.586650	0.110856	-0.955037	0.862708	0.002927	-0.079420	-0.172275	-0.981838
60040	1.326033	4.461087	9.909687	0.353967	-0.759502	1.103326	0.002706	-0.078166	-0.171921	-0.982001
60041	1.072243	3.557401	9.994733	0.562001	0.085484	0.835135	0.002455	-0.077113	-0.169750	-0.982462
60042	1.217268	2.652033	9.690764	0.324849	0.799461	0.271021	0.002131	-0.076381	-0.168350	-0.982761
60043	1.376710	2.439275	9.456666	0.114415	0.923910	0.006027	0.001809	-0.076018	-0.169706	-0.982557
60044	1.521139	2.996066	9.322201	-0.035680	0.406096	0.088178	0.001728	-0.075955	-0.173161	-0.981959
60045	1.494703	3.697782	9.397307	0.021056	-0.149342	0.394846	0.001780	-0.075748	-0.177325	-0.981231
60046	1.401359	3.731402	9.354651	0.103458	-0.125575	0.354411	0.001977	-0.075351	-0.180198	-0.980738
60047	1.028974	3.011287	9.417486	0.450607	0.619636	0.098335	0.002223	-0.074884	-0.183159	-0.980225
60048	1.173844	3.169702	9.041699	0.253065	0.421494	-0.172428	0.002401	-0.074726	-0.188591	-0.979206
60049	1.432390	3.893725	8.877516	-0.002611	-0.189005	-0.015439	0.002847	-0.074562	-0.194953	-0.977970
60050	1.700486	4.523835	8.889712	-0.240286	-0.621745	0.283725	0.003647	-0.074552	-0.202276	-0.976480
60051	1.488858	4.413494	9.170852	0.007165	-0.274219	0.469507	0.004914	-0.074054	-0.208520	-0.975198
60052	1.098869	3.773722	8.951056	0.335108	0.345881	-0.048659	0.006095	-0.073862	-0.215744	-0.973633
60053	1.244656	4.262824	8.949245	0.215128	0.070166	0.175091	0.007108	-0.073751	-0.224888	-0.971564
60054	1.625212	5.199353	8.947040	-0.112979	-0.577424	0.645565	0.008164	-0.073511	-0.233644	-0.969505
60055	1.609667	5.255610	9.014646	-0.083925	-0.435769	0.736143	0.009087	-0.073118	-0.240017	-0.967968
60056	1.386325	4.575378	8.883094	0.080070	0.222741	0.272365	0.010294	-0.072577	-0.245502	-0.966621
60057	1.335357	4.402808	8.451518	0.057308	0.283294	-0.194410	0.011781	-0.071853	-0.251813	-0.965033
60058	1.257809	4.742506	8.199029	0.112976	-0.008166	-0.258467	0.013541	-0.070827	-0.258836	-0.963226
60059	1.197667	4.964891	8.017200	0.151589	-0.156213	-0.309473	0.015359	-0.069500	-0.265903	-0.961369
60060	1.226907	5.239884	8.242931	0.154944	-0.134476	0.029251	0.016869	-0.068252	-0.273031	-0.959433
60061	1.377820	5.262067	8.309375	-0.003925	0.016388	0.118669	0.018462	-0.066563	-0.279210	-0.957742
60062	1.194707	5.373488	8.446317	0.178641	0.129133	0.266583	0.020114	-0.064956	-0.286038	-0.955803
60063	1.111553	5.371025	8.431545	0.237814	0.264114	0.239496	0.021551	-0.063532	-0.292853	-0.953801
60064	1.275572	5.731179	8.436218	0.087602	0.120867	0.464412	0.022607	-0.062600	-0.300501	-0.951456
60065	1.503438	5.873144	8.469897	-0.133470	0.197256	0.600463	0.023897	-0.061862	-0.309120	-0.948708
60066	1.466877	5.896529	8.504034	-0.098867	0.397380	0.630873	0.025682	-0.061099	-0.318894	-0.945470
60067	0.777925	5.581360	8.253443	0.523740	0.714595	0.141569	0.027580	-0.060204	-0.329152	-0.941952
60068	0.909873	6.740876	7.604490	0.435157	-0.354211	0.374296	0.028945	-0.059862	-0.341658	-0.937469
60069	1.509695	7.837966	8.229226	0.010434	-0.530657	1.639207	0.030327	-0.059947	-0.352179	-0.933518
60070	1.583617	7.443476	8.137314	-0.097155	-0.085795	1.327772	0.032011	-0.059971	-0.359413	-0.930699
60071	1.313337	6.158707	7.719304	0.009380	0.738408	0.121854	0.033601	-0.059723	-0.366228	-0.927999
60072	0.887739	5.458727	7.348607	0.327890	1.164758	-0.695633	0.035007	-0.059731	-0.375729	-0.924140
60073	1.049960	6.357697	6.901415	0.237670	0.423642	-0.383412	0.036241	-0.060241	-0.387773	-0.919070
60074	1.335240	7.657190	7.288612	0.146956	0.049420	0.841400	0.037348	-0.060473	-0.399048	-0.914171
60075	1.279563	7.542953	7.364777	0.201136	0.405246	0.797021	0.038003	-0.060418	-0.406931	-0.910666
60076	1.297368	6.574170	6.659390	0.011100	0.679527	-0.390013	0.038498	-0.059981	-0.413813	-0.907568
60077	1.190111	6.060391	6.040471	-0.001510	0.689142	-1.201341	0.038842	-0.059132	-0.421526	-0.904052
60078	0.877170	5.878996	5.892267	0.257140	0.850675	-1.490500	0.038613	-0.057932	-0.430391	-0.899953
60079	0.814377	5.998482	5.894163	0.306190	0.954838	-1.423554	0.037587	-0.056486	-0.440610	-0.895131
60080	1.046460	6.720159	5.901228	0.125492	0.733123	-0.839281	0.036353	-0.054797	-0.452510	-0.889331
60081	0.959440	8.099243	5.601008	0.306799	-0.062646	0.075963	0.035244	-0.052730	-0.464537	-0.883280
60082	1.043252	9.032953	5.539528	0.269956	-0.397628	0.823748	0.034028	-0.050220	-0.473650	-0.878622
60083	0.848588	8.996585	5.541106	0.400151	-0.189875	0.778070	0.032991	-0.047696	-0.480008	-0.875345
60084	1.063177	9.137807	5.817931	0.161566	0.110930	1.070234	0.031798	-0.045784	-0.485628	-0.872387
60085	1.201205	9.297990	5.970870	0.000835	0.269619	1.299166	0.030802	-0.044111	-0.489187	-0.870518
60086	0.989700	9.417401	6.043370	0.187736	0.354172	1.413533	0.030317	-0.042753	-0.492115	-0.868951
60087	0.895714	9.642920	6.014797	0.274261	0.264868	1.581194	0.029916	-0.041901	-0.493065	-0.868468
60088	0.862297	9.202258	5.692203	0.232975	0.215268	1.037456	0.029675	-0.041089	-0.492470	-0.868852
60089	0.860899	9.054510	5.591452	0.203852	0.185847	0.860339	0.029649	-0.040691	-0.491661	-0.869330
60090	0.890998	9.166945	5.647025	0.182558	0.150297	0.988223	0.029827	-0.040573	-0.490419	-0.870031
60091	0.759077	8.732249	5.795077	0.282136	0.462216	0.681018	0.029985	-0.040731	-0.488394	-0.871156
60092	0.735005	8.167207	5.526714	0.250736	0.483712	0.061072	0.030238	-0.041173	-0.486894	-0.871966
60093	0.713971	8.191029	5.524766	0.283678	0.443704	0.079146	0.030346	-0.041641	-0.486045	-0.872414
60094	0.753372	8.372209	5.763671	0.281169	0.532277	0.361738	0.030233	-0.042232	-0.485092	-0.872919
60095	0.932553	8.628079	5.670452	0.133666	0.287818	0.549099	0.030003	-0.042954	-0.483534	-0.873756
60096	0.986400	8.750284	5.765559	0.110179	0.259501	0.708834	0.030000	-0.043858	-0.481314	-0.874936
60097	0.870171	9.176448	6.064820	0.304216	0.224942	1.214676	0.030318	-0.045245	-0.478308	-0.876502
60098	1.205933	9.048785	6.179907	-0.002640	0.283295	1.207485	0.030829	-0.046790	-0.472930	-0.879317
60099	1.053562	8.244309	5.914519	0.091372	0.359612	0.381451	0.031412	-0.048364	-0.466264	-0.882764
60100	0.951304	8.485049	6.296467	0.277748	0.385849	0.785340	0.032300	-0.050170	-0.459445	-0.886200
60101	0.988487	8.741054	6.327248	0.316567	0.085772	1.018113	0.033475	-0.052138	-0.451338	-0.890199
60102	1.186316	8.668674	6.104206	0.151443	-0.264301	0.851149	0.034706	-0.054302	-0.441904	-0.894744
60103	1.311348	7.934835	5.731742	-0.027622	-0.348618	0.056817	0.035757	-0.056314	-0.431193	-0.899790
60104	1.328096	7.549808	6.216619	-0.008438	0.040815	0.056641	0.036972	-0.058182	-0.420758	-0.904550
60105	1.094866	7.294953	6.594978	0.268044	0.280830	0.074385	0.038384	-0.060160	-0.411010	-0.908834
60106	1.079554	7.196985	6.407098	0.303002	-0.001037	-0.121574	0.039661	-0.061851	-0.401578	-0.912872
60107	1.104039	7.007912	6.706816	0.320655	0.162262	-0.056695	0.040624	-0.063543	-0.393438	-0.916252
60108	1.199725	7.036092	7.237790	0.314919	0.365341	0.340971	0.041611	-0.065272	-0.386394	-0.919080
60109	1.396814	7.563000	7.274815	0.234110	-0.124141	0.770368	0.042813	-0.066962	-0.380375	-0.921411
60110	1.617743	7.380746	7.520854	0.062044	0.015639	0.847933	0.043898	-0.068958	-0.372567	-0.924398
60111	1.559328	6.740128	7.532269	0.083411	0.288736	0.409918	0.044783	-0.070766	-0.362824	-0.928087
60112	1.512306	6.835689	7.616524	0.197355	0.060191	0.530340	0.045501	-0.072775	-0.352601	-0.931830
60113	1.556831	6.352282	7.940253	0.171165	0.397944	0.464948	0.045810	-0.075131	-0.341085	-0.935905
60114	1.541143	5.252296	8.050889	0.096064	1.062387	-0.136133	0.045608	-0.077173	-0.329294	-0.939963
60115	1.439241	5.507996	7.845912	0.241621	0.513519	-0.135812	0.045501	-0.078161	-0.318892	-0.943466
60116	1.366065	6.534790	7.970389	0.490057	-0.465028	0.561975	0.045021	-0.079218	-0.305893	-0.947696
60117	1.769162	6.387042	8.372532	0.151968	-0.458898	0.853950	0.044156	-0.081114	-0.288302	-0.953075
60118	2.284306	4.775107	8.543088	-0.501255	0.550317	0.209067	0.042892	-0.083410	-0.268063	-0.958825
60119	2.285230	4.434326	8.681393	-0.488383	0.533850	0.173232	0.042334	-0.084527	-0.251067	-0.963342
60120	1.820573	5.715412	7.906598	0.037390	-1.276632	0.028797	0.042733	-0.084677	-0.235210	-0.967306
60121	1.561510	7.148930	7.826368	0.462701	-2.944593	0.477902	0.043670	-0.084381	-0.214925	-0.971998
60122	1.812737	6.369955	8.384183	0.208992	-2.522035	0.566251	0.044266	-0.084626	-0.187286	-0.977652
60123	2.015968	3.301980	9.087640	-0.232375	-0.044720	0.059599	0.044401	-0.085013	-0.155043	-0.983241
60124	1.841106	0.080041	8.841078	-0.440906	2.364406	-1.109064	0.044346	-0.084842	-0.126078	-0.987390
60125	1.757548	-0.097959	8.395423	-0.438720	2.054840	-1.496317	0.045463	-0.083740	-0.112180	-0.989109
60126	1.733548	2.709868	9.691426	0.063950	-0.575024	0.382130	0.047674	-0.080675	-0.103119	-0.990245
60127	1.628047	4.691756	10.796515	0.512630	-2.589953	1.773397	0.049670	-0.078088	-0.082852	-0.992255
60128	1.906887	4.448440	10.395531	0.118235	-3.037284	1.242097	0.051283	-0.075100	-0.051212	-0.994539
60129	1.114360	2.888141	9.873371	0.609086	-2.229753	0.270385	0.052384	-0.071145	-0.011993	-0.996017
60130	0.557526	-0.253537	8.956393	0.672799	0.114048	-0.864424	0.052531	-0.068941	0.033218	-0.995683
60131	1.097622	-3.126553	8.170878	-0.236836	2.182400	-1.275840	0.052963	-0.068233	0.075685	-0.993384
60132	1.046913	-5.303163	7.534823	-0.470393	3.808164	-1.371996	0.054155	-0.065709	0.104780	-0.990843
60133	0.573378	-5.684061	8.515885	0.071110	3.682055	-0.242427	0.054992	-0.062610	0.116468	-0.989692
60134	1.165264	-3.602404	9.646279	-0.219802	1.192557	0.478786	0.055993	-0.059089	0.120087	-0.989420
60135	1.098952	-0.577738	9.948983	0.088099	-1.851973	0.040484	0.056851	-0.053376	0.122018	-0.989460
60136	0.248867	0.934827	10.944138	1.109557	-3.588949	0.511633	0.057679	-0.049647	0.134471	-0.987991
60137	0.642942	-0.954893	9.655508	0.364610	-1.874290	-0.279189	0.058598	-0.049446	0.159711	-0.984182
60138	0.839585	-4.138594	8.011403	-0.309969	1.135811	-0.834270	0.059911	-0.049713	0.184453	-0.979753
60139	0.666465	-7.059339	8.021929	-0.412067	3.489242	0.300528	0.061319	-0.049418	0.198634	-0.976905
60140	0.614256	-5.925380	8.528587	-0.209778	2.102262	0.373598	0.062746	-0.047183	0.200107	-0.976624
60141	0.286367	-4.399891	9.287074	0.316073	0.459116	0.452785	0.064048	-0.045674	0.198935	-0.976850
60142	0.414179	-3.172967	9.160921	0.271006	-0.622853	-0.132799	0.065484	-0.044068	0.198818	-0.976853
60143	0.303874	-3.326748	9.076883	0.328294	-0.467632	-0.157504	0.066927	-0.043215	0.202081	-0.976123
60144	0.308951	-4.662441	9.364740	0.193193	0.562547	0.636129	0.068317	-0.043073	0.206038	-0.975206
60145	0.341281	-5.670341	9.391734	0.039394	1.414566	1.071767	0.069527	-0.042884	0.206385	-0.975055
60146	0.797962	-4.148536	9.264675	-0.263042	0.041659	0.366211	0.070518	-0.042146	0.203141	-0.975697
60147	-0.029819	-3.201629	9.391774	0.658529	-0.692426	0.063723	0.071536	-0.041221	0.201493	-0.976004
60148	0.161839	-3.854328	9.460207	0.387568	-0.158501	0.395255	0.072410	-0.041530	0.203448	-0.975521
60149	0.530531	-5.137831	9.210747	-0.160596	1.016235	0.697216	0.072925	-0.041609	0.204305	-0.975300
60150	0.501165	-4.159261	8.995749	-0.042976	0.236507	0.107796	0.073081	-0.040776	0.201260	-0.975956
60151	0.039193	-3.762794	9.402031	0.489876	-0.160022	0.301295	0.073163	-0.040340	0.199651	-0.976299
60152	0.246100	-4.116380	9.430518	0.236090	0.149702	0.476219	0.073314	-0.040296	0.198228	-0.976579
60153	0.363390	-4.417505	9.579487	0.094567	0.391285	0.734857	0.073276	-0.040375	0.195743	-0.977080
60154	0.270438	-3.800490	9.447544	0.241965	-0.039602	0.371231	0.073139	-0.039898	0.191577	-0.977935
60155	0.229680	-3.676249	9.464888	0.290103	-0.062860	0.339297	0.073390	-0.040136	0.186950	-0.978802
60156	0.378831	-4.124673	8.777514	0.015226	0.682201	-0.131045	0.073764	-0.041198	0.180539	-0.979932
60157	0.307148	-4.979452	8.254436	-0.075079	1.832930	-0.344008	0.073971	-0.042485	0.169643	-0.981807
60158	0.682586	-5.072270	8.949894	-0.386399	1.902098	0.312437	0.074251	-0.043457	0.153875	-0.984338
60159	0.767396	-2.201043	8.805525	-0.137410	-0.412867	-0.715033	0.074715	-0.042019	0.131552	-0.987596
60160	-0.056102	-0.472052	10.616014	1.044609	-1.979401	0.574907	0.075292	-0.041482	0.112176	-0.989963
60161	0.107420	-2.840606	10.163593	0.534594	0.682181	0.705088	0.074689	-0.046773	0.102684	-0.990803
60162	0.621911	-5.503282	8.658002	-0.429204	3.728350	-0.245048	0.074020	-0.050794	0.086856	-0.992168
60163	1.509279	-3.352688	8.045381	-1.072629	2.000668	-1.264570	0.073588	-0.050349	0.056978	-0.994386
60164	1.465097	2.610514	9.021656	-0.191392	-3.375249	-0.931272	0.073366	-0.043258	0.019514	-0.996175
60165	-0.109253	6.327928	12.010013	2.029840	-6.420172	1.974806	0.072416	-0.040528	0.006357	-0.996530
60166	-0.195745	0.954036	10.850947	1.280437	-1.079797	0.951926	0.070094	-0.047211	0.020002	-0.996222
60167	0.965142	-4.310121	9.914222	-0.513340	3.764570	0.353905	0.067712	-0.054273	0.028964	-0.995807
60168	1.337095	-5.738707	8.110223	-1.159892	5.232351	-1.341079	0.065902	-0.056738	0.016701	-0.996072
60169	1.190218	-2.313857	8.595090	-0.528881	2.226822	-1.130463	0.065035	-0.055138	-0.014756	-0.996249
60170	1.049193	2.649270	9.921468	0.314413	-1.970787	0.312600	0.064449	-0.051528	-0.052337	-0.995215
60171	1.061363	5.550403	11.029842	0.714899	-4.093329	1.862243	0.062969	-0.050935	-0.072225	-0.994095
60172	1.170626	4.075404	9.961868	0.295494	-2.494216	0.718516	0.061650	-0.052278	-0.081424	-0.993396
60173	0.900075	2.471840	9.965004	0.363558	-0.713440	0.462426	0.060111	-0.053579	-0.089322	-0.992742
60174	0.936583	0.830905	10.162185	0.163454	1.073379	0.368515	0.058285	-0.056231	-0.095942	-0.992087
60175	1.120199	-0.059531	9.691413	-0.134865	2.010112	-0.267087	0.056316	-0.058763	-0.107581	-0.990859
60176	1.107442	1.118655	9.485558	0.028021	1.116986	-0.263121	0.054602	-0.060341	-0.126169	-0.988665
60177	1.043698	3.204336	9.767273	0.385945	-0.412673	0.503414	0.052950	-0.061774	-0.146748	-0.985822
60178	1.645763	4.924604	10.445436	0.077176	-1.530865	1.750633	0.051282	-0.062708	-0.159354	-0.983892
60179	2.043154	5.529567	10.486898	-0.239968	-1.942637	2.057187	0.050028	-0.062943	-0.161612	-0.983574
60180	1.770593	4.919409	9.526349	-0.157781	-1.668595	0.924044	0.048995	-0.062309	-0.158451	-0.984180
60181	1.240769	3.405501	9.207483	0.141257	-0.401417	0.073272	0.047945	-0.061805	-0.151932	-0.985291
60182	1.091211	1.816575	8.886514	0.071271	0.891224	-0.720919	0.047094	-0.061747	-0.145351	-0.986328
60183	1.143271	1.227079	8.795782	-0.057909	1.349272	-0.960872	0.046554	-0.061224	-0.143991	-0.986586
60184	1.344557	1.929020	8.979926	-0.174282	0.731886	-0.560566	0.046079	-0.060275	-0.146610	-0.986280
60185	1.370795	2.458121	8.695871	-0.198490	0.195282	-0.676950	0.045325	-0.058700	-0.149855	-0.985923
60186	1.301097	2.970280	8.717863	-0.109620	-0.229204	-0.514746	0.044644	-0.056607	-0.152116	-0.985730
60187	1.292098	2.863386	8.632936	-0.169904	-0.131348	-0.628478	0.043863	-0.053590	-0.152409	-0.985888
60188	1.141120	2.446540	8.554803	-0.138872	0.248810	-0.846604	0.043090	-0.049224	-0.152250	-0.986175
60189	0.666644	2.312852	8.215415	0.206877	0.306759	-1.259956	0.042415	-0.044218	-0.153154	-0.986301
60190	0.256368	2.492726	8.401170	0.559091	0.244702	-1.067065	0.041426	-0.039514	-0.155161	-0.986229
60191	0.323819	2.672936	8.563788	0.431125	0.156306	-0.847378	0.039321	-0.034748	-0.157572	-0.986112
60192	1.060402	2.541424	8.557876	-0.412981	0.267418	-0.836196	0.036880	-0.029098	-0.159663	-0.986053
60193	1.009909	1.829717	7.884075	-0.567326	0.762520	-1.711964	0.034376	-0.021668	-0.162069	-0.985942
60194	-0.328665	1.671094	7.773062	0.613489	1.024819	-1.945556	0.032134	-0.012404	-0.168525	-0.985095
60195	-1.105005	2.244452	7.537504	1.274199	0.581418	-1.995592	0.028898	-0.003582	-0.179117	-0.983397
60196	-0.030840	4.071386	7.861727	0.147685	-0.878903	-1.004549	0.026060	0.005263	-0.191361	-0.981160
60197	0.208929	5.405108	8.323770	-0.230450	-1.758085	-0.045716	0.023849	0.015965	-0.199914	-0.979393
60198	-0.498019	4.776994	8.545651	0.205749	-0.942763	-0.057734	0.021982	0.028731	-0.203327	-0.978442
60199	-1.964252	2.957604	8.527786	1.364648	0.844732	-0.716105	0.019264	0.041834	-0.205673	-0.977536
60200	-1.210969	3.515094	7.565431	0.481626	-0.018896	-1.397185	0.014304	0.053794	-0.212838	-0.975501
60201	-0.359244	5.330284	8.569585	-0.723338	-1.189240	0.188994	0.010954	0.067747	-0.217083	-0.973738
60202	-1.473082	5.102202	8.418732	0.108291	-0.938767	0.095747	0.008981	0.082764	-0.218100	-0.972369
60203	-2.390485	3.766217	8.593859	0.699470	0.399819	-0.164093	0.007699	0.099464	-0.217693	-0.970905
60204	-4.341393	2.354633	7.946618	2.473315	1.512750	-0.917327	0.004829	0.115379	-0.217662	-0.969168
60205	-2.695221	4.330690	7.465643	0.611324	-0.512844	-0.806559	-0.001091	0.129439	-0.224920	-0.965741
60206	-1.815579	6.545780	8.957823	-1.070797	-1.823052	1.228365	-0.004341	0.145540	-0.225617	-0.963274
60207	-2.610324	5.480969	7.794836	-0.253025	-1.378120	-0.033063	-0.005302	0.163150	-0.219961	-0.961754
60208	-3.078466	3.450562	7.329971	0.167664	0.159574	-1.149733	-0.004722	0.183464	-0.210875	-0.960130
60209	-6.025458	1.692206	7.164353	2.770930	1.772351	-0.887190	-0.004541	0.203526	-0.202497	-0.957889
60210	-6.304710	2.826407	6.456160	2.844466	0.442427	-0.805851	-0.008474	0.221017	-0.204663	-0.953516
60211	-5.300323	5.905760	8.666845	0.283090	-1.529638	1.834113	-0.011729	0.239992	-0.205810	-0.948635
60212	-5.098261	5.678202	8.026342	-0.022993	-1.644706	1.138752	-0.011990	0.260359	-0.198178	-0.944878
60213	-4.909072	2.953406	7.322445	0.089881	0.413489	-0.525907	-0.010233	0.282202	-0.186139	-0.941068
60214	-7.172984	0.350617	7.015236	2.056097	2.771461	-0.386111	-0.008764	0.303883	-0.176744	-0.936130
60215	-8.186302	1.287758	6.455932	2.651335	1.766926	0.196646	-0.012758	0.322718	-0.179448	-0.929241
60216	-7.393013	5.078596	7.593067	0.350767	-1.379413	1.851590	-0.017780	0.342111	-0.183945	-0.921308
60217	-7.180422	6.404443	7.623437	-0.544054	-2.633068	2.164032	-0.018666	0.362746	-0.177301	-0.914675
60218	-6.968542	4.317232	7.049310	-0.441661	-1.099431	0.932785	-0.015507	0.384544	-0.160776	-0.908866
60219	-8.205731	1.092013	6.403667	0.894924	1.588239	0.491662	-0.009819	0.407598	-0.139861	-0.902334
60220	-10.209875	0.310554	6.447165	1.758518	2.313854	1.910240	-0.007179	0.428927	-0.127465	-0.894272
60221	-8.286335	2.399168	6.128988	0.029092	-0.098976	0.768326	-0.006852	0.447251	-0.120990	-0.886161
60222	-8.736161	3.905896	6.613580	-0.706947	-1.530282	1.696245	-0.003557	0.466684	-0.111186	-0.877400
60223	-9.191447	3.549355	7.310364	-1.428231	-1.222355	2.310162	0.003979	0.485939	-0.094165	-0.868896
60224	-9.883693	1.088554	6.982973	-1.056313	0.866920	2.259239	0.014952	0.505502	-0.071192	-0.859753
60225	-10.318265	-0.747436	5.680402	-0.167898	2.240568	1.772171	0.025065	0.524795	-0.050290	-0.849372
60226	-11.038471	-0.500294	5.355297	-0.138563	1.780312	2.334565	0.033000	0.544049	-0.034350	-0.837700
60227	-10.244126	1.270416	4.848250	-0.479253	-0.270114	1.577719	0.039744	0.560536	-0.021916	-0.826885
60228	-8.737072	2.892320	5.362650	-1.812064	-2.219430	0.445897	0.049492	0.575919	-0.006432	-0.815982
60229	-9.817499	1.653484	5.394327	-1.894918	-1.148923	1.290773	0.063736	0.591440	0.013876	-0.803706
60230	-10.278051	-1.385293	4.797308	-1.932457	1.681632	1.322308	0.076809	0.604143	0.032395	-0.792504
60231	-11.039214	-2.941972	4.531108	-2.138017	3.089808	1.888427	0.084460	0.614745	0.043886	-0.782961
60232	-10.859984	-0.759926	4.255313	-1.863139	0.845545	1.695166	0.087278	0.624210	0.047745	-0.774896
60233	-10.043672	1.103279	3.133876	-0.869252	-0.892024	0.692412	0.088647	0.633544	0.048391	-0.767086
60234	-10.219472	1.798794	3.525288	-1.317620	-1.659292	0.939396	0.090850	0.641727	0.050375	-0.759865
60235	-10.480700	0.896396	3.785279	-1.898266	-0.858540	1.170650	0.096190	0.647571	0.056284	-0.753811
60236	-10.528865	0.278166	3.317452	-1.719895	-0.213164	1.093030	0.100733	0.652041	0.060484	-0.749024
60237	-10.275445	0.177203	3.044971	-1.633320	-0.110448	0.780094	0.104826	0.655591	0.064051	-0.745057
60238	-10.157914	-0.041476	2.556318	-1.321038	0.175012	0.576890	0.108125	0.658172	0.067362	-0.742011
60239	-9.989251	0.224029	2.660579	-1.440702	-0.149131	0.425274	0.110433	0.659905	0.070319	-0.739855
60240	-9.943656	0.870451	2.798369	-1.452624	-0.841558	0.416995	0.112685	0.660803	0.073276	-0.738425
60241	-9.831705	1.040803	2.368446	-1.017177	-0.933955	0.259465	0.116227	0.660772	0.077491	-0.737473
60242	-9.928084	0.727574	2.071561	-0.803688	-0.569041	0.307483	0.119571	0.660445	0.080920	-0.736863
60243	-10.376637	0.628369	2.060544	-0.762938	-0.450871	0.748084	0.123736	0.659364	0.084745	-0.736713
60244	-10.184304	0.005115	1.430364	-0.336332	0.306426	0.461500	0.127786	0.657687	0.088442	-0.737086
60245	-9.679714	0.138917	1.316108	-0.210678	0.181607	-0.046887	0.130265	0.656269	0.090145	-0.737710
60246	-9.412272	0.680579	1.382514	-0.105737	-0.359860	-0.282492	0.132514	0.654733	0.091333	-0.738528
60247	-9.396406	0.762156	1.347565	-0.015581	-0.411253	-0.298500	0.134767	0.653131	0.092493	-0.739393
60248	-9.581303	0.302681	1.350696	-0.108577	0.053726	-0.132679	0.137314	0.651406	0.094111	-0.740242
60249	-9.671074	-0.152607	1.318470	-0.177581	0.520748	-0.066486	0.139536	0.649470	0.094901	-0.741426
60250	-9.561521	-0.145346	1.371421	-0.197004	0.517583	-0.168122	0.140004	0.647666	0.093379	-0.743107
60251	-9.664878	0.239824	1.694806	-0.315704	0.099715	-0.003011	0.139496	0.645620	0.090784	-0.745301
60252	-9.389818	0.112435	1.573612	-0.223029	0.275038	-0.297869	0.139070	0.643309	0.088266	-0.747678
60253	-9.714651	-0.090024	1.680255	-0.287914	0.507322	0.029321	0.138231	0.641240	0.085347	-0.749946
60254	-9.921494	-0.115783	1.882764	-0.394834	0.534278	0.264630	0.136993	0.638715	0.082381	-0.752655
60255	-9.842485	-0.319790	1.792822	-0.309269	0.784217	0.161265	0.135318	0.635925	0.079772	-0.755595
60256	-9.826813	-0.530017	1.742328	-0.245454	1.024982	0.125693	0.132585	0.633218	0.076873	-0.758648
60257	-9.742333	-0.308604	1.730585	-0.097337	0.828726	0.051708	0.129039	0.630437	0.073594	-0.761894
60258	-9.479844	-0.234827	1.734330	-0.041904	0.744274	-0.201535	0.125062	0.627947	0.070307	-0.764918
60259	-9.826984	0.178600	2.101433	-0.140565	0.301965	0.232520	0.120215	0.625942	0.065877	-0.767727
60260	-9.909829	0.685862	2.358931	-0.168780	-0.220580	0.393295	0.115968	0.623530	0.061583	-0.770694
60261	-9.601434	0.713423	2.142027	0.051752	-0.203711	0.048357	0.112681	0.620955	0.057992	-0.773534
60262	-9.426830	0.498721	2.355793	-0.176502	-0.039192	-0.084860	0.109471	0.618869	0.054565	-0.775912
60263	-9.483340	0.320521	2.537003	-0.326026	0.122959	0.003178	0.106136	0.617147	0.050999	-0.777987
60264	-9.542292	0.685166	2.602091	-0.248760	-0.213209	0.096304	0.102374	0.615557	0.046651	-0.780021
60265	-9.376091	1.456812	2.534002	-0.019945	-0.939146	-0.036595	0.098664	0.613931	0.041964	-0.782044
60266	-9.485794	1.543099	2.883108	-0.282981	-1.041993	0.162671	0.095410	0.612642	0.037586	-0.783680
60267	-9.792260	1.214799	3.023842	-0.381598	-0.676563	0.478287	0.093559	0.611202	0.034272	-0.785178
60268	-9.707780	0.753376	2.890396	-0.322178	-0.174416	0.337607	0.092876	0.609486	0.031819	-0.786695
60269	-9.508637	0.600153	2.747223	-0.214446	0.018078	0.100682	0.091783	0.607334	0.028487	-0.788612
60270	-9.399826	0.726216	2.782687	-0.204730	-0.077558	0.014784	0.089438	0.605418	0.024136	-0.790498
60271	-9.573911	0.839193	3.367370	-0.653058	-0.204490	0.347750	0.086704	0.603344	0.019693	-0.792509
60272	-9.455326	0.579685	3.340431	-0.648664	0.081497	0.210785	0.085029	0.601326	0.016940	-0.794286
60273	-9.517037	0.464419	3.143127	-0.411776	0.255006	0.208993	0.083296	0.599354	0.014465	-0.796007
60274	-9.376037	0.589075	3.381942	-0.604717	0.112191	0.153054	0.080234	0.597046	0.011260	-0.798105
60275	-9.141686	0.530862	2.869390	-0.131680	0.213546	-0.219854	0.076031	0.594850	0.008086	-0.800192
60276	-9.373100	0.484377	3.196555	-0.336731	0.252593	0.093385	0.070804	0.593485	0.005043	-0.801709
60277	-9.862339	0.407444	3.557910	-0.513489	0.332266	0.661864	0.066513	0.592400	0.003907	-0.802884
60278	-9.890849	0.676239	3.443269	-0.325212	0.047952	0.677020	0.063483	0.590597	0.003800	-0.804456
60279	-9.435500	0.918363	3.124491	-0.078419	-0.239986	0.165812	0.060785	0.588396	0.003487	-0.806277
60280	-8.943504	0.418187	3.328073	-0.413852	0.173251	-0.271426	0.057208	0.586328	0.002636	-0.808047
60281	-9.538381	-0.194569	3.893796	-0.775847	0.762681	0.434080	0.053748	0.584866	0.003392	-0.809340
60282	-9.675323	0.385086	3.662391	-0.418928	0.164844	0.529955	0.051098	0.583196	0.004431	-0.810711
60283	-9.160931	0.942999	2.710985	0.415061	-0.397459	-0.229844	0.048956	0.580936	0.003284	-0.812469
60284	-9.214865	0.823724	2.658812	0.503918	-0.275159	-0.203740	0.047491	0.580405	0.002228	-0.812939
60285	-9.703106	0.316933	3.588056	-0.269761	0.200990	0.531948	0.049350	0.582048	0.005067	-0.811640
60286	-9.815337	-0.004034	3.034939	0.223384	0.538176	0.444605	0.052755	0.583292	0.008731	-0.810500
60287	-9.398000	0.380995	2.634887	0.466563	0.144312	-0.057098	0.053397	0.585023	0.008846	-0.809209
60288	-9.195020	0.938599	2.673113	0.392667	-0.415362	-0.208099	0.052971	0.585352	0.007027	-0.809017
60289	-8.192104	1.132264	2.762797	0.009608	-0.672252	-1.119380	0.052253	0.585302	0.005299	-0.809113
60290	-9.047209	1.314191	3.237516	-0.166940	-0.800919	-0.148774	0.051600	0.585632	0.003865	-0.808924
60291	-8.986043	1.779393	2.836788	0.240597	-1.221029	-0.304079	0.051034	0.584221	0.001505	-0.809987
60292	-8.409567	2.120310	2.907926	0.042289	-1.581760	-0.803319	0.050955	0.583240	-0.000402	-0.810700
60293	-9.096121	1.888359	3.898090	-0.687709	-1.321877	0.151251	0.052192	0.583132	-0.000970	-0.810699
60294	-9.056288	0.852609	3.644189	-0.526136	-0.258582	-0.031092	0.054618	0.581966	-0.000695	-0.811377
60295	-8.741176	0.768759	3.435345	-0.411381	-0.166812	-0.399740	0.056298	0.581032	-0.001239	-0.811930
60296	-9.007406	1.137768	3.903132	-0.722116	-0.508115	0.030209	0.057148	0.580539	-0.002431	-0.812221
60297	-9.490078	1.401759	3.529884	-0.174009	-0.670025	0.385705	0.058348	0.579293	-0.003687	-0.813020
60298	-9.162443	1.746604	3.300149	0.005343	-0.991369	0.031538	0.059642	0.577179	-0.005434	-0.814419
60299	-8.712357	1.135140	3.451951	-0.305529	-0.408963	-0.386711	0.061492	0.576550	-0.005122	-0.814729
60300	-9.414867	0.248427	3.723885	-0.410295	0.537050	0.292360	0.063656	0.576983	-0.003680	-0.814264
60301	-9.439271	-0.090543	3.566583	-0.295160	0.901592	0.233629	0.064581	0.577046	-0.005027	-0.814139
60302	-9.096859	0.143384	3.865011	-0.670837	0.648290	0.028110	0.064184	0.577316	-0.007516	-0.813960
60303	-9.391062	0.302777	4.149576	-0.832730	0.538273	0.410789	0.064243	0.577292	-0.008878	-0.813958
60304	-9.298675	0.128684	3.904549	-0.644324	0.735323	0.225815	0.064493	0.576964	-0.009783	-0.814161
60305	-9.258461	0.546749	3.773189	-0.490036	0.337845	0.182346	0.064480	0.576694	-0.010431	-0.814345
60306	-9.148251	0.743931	3.708137	-0.437917	0.134088	0.075914	0.064562	0.576191	-0.009829	-0.814702
60307	-8.946955	0.632508	3.526535	-0.331657	0.213947	-0.183113	0.064586	0.575867	-0.008219	-0.814947
60308	-9.063703	0.499406	3.315890	-0.100813	0.341957	-0.155148	0.064073	0.575804	-0.006481	-0.815047
60309	-9.151435	0.544180	3.447766	-0.191261	0.265419	-0.023670	0.062269	0.576040	-0.005534	-0.815028
60310	-9.121008	0.639345	3.417015	-0.170181	0.134232	-0.054078	0.059577	0.576597	-0.005230	-0.814837
60311	-9.214843	0.915114	3.329299	-0.047038	-0.164126	0.026300	0.056915	0.577413	-0.004484	-0.814454
60312	-9.124725	1.176919	3.153687	0.091060	-0.471384	-0.098743	0.054234	0.578413	-0.003158	-0.813933
60313	-8.983478	1.636861	3.268491	-0.048367	-1.004928	-0.166308	0.051676	0.579459	-0.001092	-0.813361
60314	-9.096520	1.839238	3.233969	0.019858	-1.259215	-0.065810	0.050052	0.580123	0.001929	-0.812987
60315	-9.062301	1.821978	3.169617	0.061947	-1.300881	-0.127905	0.049780	0.580512	0.005067	-0.812713
60316	-9.253354	1.383812	3.280786	-0.014871	-0.899640	0.061187	0.050607	0.580428	0.007666	-0.812701
60317	-9.110789	1.133011	3.153626	0.048807	-0.684699	-0.129493	0.051738	0.580034	0.010612	-0.812878
60318	-9.232976	1.414803	3.224391	0.052091	-0.993139	0.018747	0.053463	0.580533	0.013738	-0.812363
60319	-9.402535	1.732750	3.650613	-0.271440	-1.345076	0.329015	0.055892	0.581176	0.015170	-0.811714
60320	-9.653805	1.483215	3.815477	-0.377500	-1.071902	0.611426	0.058608	0.581178	0.014721	-0.811529
60321	-9.196713	1.880533	2.799190	0.479716	-1.370402	-0.125424	0.063500	0.581368	0.015442	-0.811012
60322	-8.859181	2.668145	2.623067	0.618634	-2.097360	-0.447741	0.071167	0.583324	0.015659	-0.808964
60323	-8.962791	2.637050	3.835413	-0.530751	-2.081593	0.055445	0.080479	0.585682	0.014434	-0.806407
60324	-9.125547	1.428989	4.650741	-1.439680	-0.837271	0.393770	0.090852	0.585096	0.012529	-0.805761
60325	-8.339863	0.461121	3.069854	-0.338517	0.314050	-0.925837	0.103726	0.584616	0.015365	-0.804506
60326	-9.335876	0.513994	2.597592	0.362852	0.554565	-0.131254	0.117275	0.586530	0.021158	-0.801113
60327	-9.739434	1.378675	2.695159	0.523447	-0.159513	0.371670	0.131038	0.586246	0.026888	-0.799013
60328	-8.629145	1.403474	1.384912	1.429722	-0.044277	-1.077518	0.144983	0.586205	0.034232	-0.796349
60329	-9.401421	0.936209	2.408108	0.522826	0.389579	-0.084561	0.157386	0.587964	0.040980	-0.792369
60330	-9.721874	-0.326903	3.172695	-0.548472	1.485213	0.295743	0.170154	0.588756	0.049206	-0.788665
60331	-9.709770	-2.364170	2.739109	-0.919875	3.494875	-0.101364	0.179967	0.589884	0.056799	-0.785126
60332	-9.736961	-3.333752	2.011776	-0.711064	4.576445	-0.404247	0.183335	0.592595	0.061275	-0.781962
60333	-9.896479	-3.317219	1.785816	-0.570779	4.601814	-0.292734	0.182099	0.596884	0.064146	-0.778752
60334	-10.077200	-3.258568	1.783809	-0.597176	4.492382	-0.075625	0.177389	0.601963	0.066472	-0.775729
60335	-10.630160	-2.374972	2.856248	-1.225975	3.316288	0.878235	0.169891	0.607303	0.068634	-0.773052
60336	-10.909562	-1.972528	3.116217	-1.332945	2.747703	1.290942	0.160696	0.611905	0.071508	-0.771126
60337	-10.917885	-1.544070	2.650822	-0.804531	2.296906	1.263620	0.148816	0.616591	0.073483	-0.769591
60338	-10.606318	-0.181904	2.491296	-0.335607	0.810476	1.048276	0.134812	0.621397	0.073630	-0.768290
60339	-10.167847	1.195295	2.503723	-0.093588	-0.751236	0.699494	0.121166	0.625577	0.073425	-0.767190
60340	-9.930581	2.034346	2.714062	-0.189401	-1.813731	0.521358	0.109214	0.629209	0.074037	-0.765955
60341	-9.712404	2.109490	2.572776	-0.152929	-2.033889	0.248983	0.099309	0.632092	0.075922	-0.764744
60342	-9.418546	2.311621	2.772331	-0.409722	-2.443617	-0.035302	0.091046	0.634500	0.078261	-0.763541
60343	-9.258342	2.187327	2.818860	-0.560243	-2.473951	-0.220433	0.085582	0.636459	0.082267	-0.762121
60344	-9.233734	1.668673	2.817677	-0.718206	-2.089511	-0.267920	0.082180	0.638225	0.086661	-0.760530
60345	-9.412162	1.558571	2.874400	-0.797862	-2.095005	-0.104255	0.079935	0.639813	0.090642	-0.758969
60346	-9.548447	1.318231	2.531741	-0.526096	-1.861633	-0.036319	0.079478	0.640891	0.094539	-0.757631
60347	-9.617893	1.146214	2.150411	-0.204069	-1.657780	-0.032508	0.079853	0.641497	0.097287	-0.756730
60348	-9.546085	1.262010	2.330697	-0.368111	-1.839320	-0.084690	0.081121	0.641845	0.098918	-0.756088
60349	-9.619164	1.254559	2.319407	-0.347759	-1.823745	-0.012949	0.083872	0.641668	0.099560	-0.755854
60350	-9.505405	1.265799	2.304234	-0.341314	-1.791283	-0.120474	0.087862	0.641117	0.099099	-0.755929
60351	-9.437334	1.190071	2.386410	-0.435807	-1.672629	-0.159382	0.092818	0.640137	0.097907	-0.756322
60352	-9.566852	1.115998	2.675232	-0.684180	-1.584990	0.033415	0.098656	0.638490	0.096058	-0.757212
60353	-9.641385	1.011051	2.912514	-0.883069	-1.433307	0.168573	0.105606	0.635881	0.093891	-0.758740
60354	-9.825624	1.437830	3.026981	-0.780731	-1.727917	0.393931	0.113494	0.632475	0.090728	-0.760830
60355	-9.964559	1.965073	3.369457	-0.851887	-2.148881	0.635284	0.122490	0.628563	0.086837	-0.763128
60356	-10.469559	2.108781	3.896645	-1.114529	-2.193798	1.286064	0.132600	0.623626	0.082775	-0.765935
60357	-10.586455	2.438512	3.742003	-0.724205	-2.217068	1.437869	0.143748	0.617869	0.078063	-0.769078
60358	-10.406069	3.037853	3.880102	-0.563204	-2.581796	1.393496	0.155780	0.611730	0.072548	-0.772176
60359	-10.539532	3.388686	3.947170	-0.327307	-2.621920	1.639519	0.170343	0.604635	0.068471	-0.775056
60360	-10.560965	2.877040	4.144006	-0.493965	-1.895237	1.725803	0.187383	0.596297	0.065839	-0.777807
60361	-10.624632	2.209763	4.194355	-0.573034	-0.965142	1.766887	0.205049	0.586777	0.063193	-0.780803
60362	-10.463048	2.242501	4.201168	-0.404597	-0.703408	1.653889	0.222288	0.576565	0.059403	-0.783985
60363	-10.531975	2.241571	4.330156	-0.303365	-0.369483	1.782741	0.239337	0.565715	0.054395	-0.787226
60364	-10.515962	2.613423	4.395534	-0.005330	-0.334099	1.875230	0.255289	0.554547	0.047256	-0.790615
60365	-10.408670	3.356355	4.767942	0.196537	-0.720969	2.093596	0.271870	0.542110	0.039688	-0.794121
60366	-10.238425	3.322243	5.252452	-0.037972	-0.481376	2.153763	0.289036	0.528773	0.032324	-0.797378
60367	-10.292915	3.443470	5.641196	-0.035676	-0.235383	2.416134	0.306152	0.514478	0.024847	-0.800604
60368	-10.306351	3.946948	5.983926	0.211795	-0.271039	2.735660	0.323183	0.499535	0.016634	-0.803580
60369	-9.903531	4.120299	6.109666	0.370046	-0.147015	2.524142	0.341035	0.483062	0.009098	-0.806389
60370	-9.601802	4.008187	6.135735	0.488264	0.272042	2.252443	0.358942	0.466151	0.001805	-0.808617
60371	-9.271491	4.007243	6.123091	0.683773	0.575927	1.963784	0.376888	0.448493	-0.004403	-0.810426
60372	-9.126941	4.072926	6.436520	0.744037	0.818084	2.022372	0.394929	0.430029	-0.010074	-0.811791
60373	-8.643829	3.767721	6.482797	0.656333	1.171175	1.550026	0.412293	0.411321	-0.015961	-0.812757
60374	-8.164514	3.736798	6.489831	0.745512	1.315830	1.161426	0.428657	0.392756	-0.022485	-0.813321
60375	-7.703850	3.599352	6.560609	0.707899	1.485073	0.799552	0.444363	0.374138	-0.028495	-0.813480
60376	-7.508129	3.765043	6.994458	0.724489	1.541587	0.983048	0.458986	0.355711	-0.035606	-0.813347
60377	-6.670741	4.029347	7.362418	0.660760	1.067626	0.833596	0.473093	0.336842	-0.041977	-0.812993
60378	-6.528314	3.439603	7.317195	0.457344	1.683085	0.430944	0.486836	0.317622	-0.046984	-0.812342
60379	-6.156888	3.355431	7.504453	0.406426	1.753816	0.297967	0.499570	0.298660	-0.053088	-0.811427
60380	-5.635762	3.388056	7.356518	0.562398	1.698301	-0.109919	0.511737	0.280176	-0.059501	-0.809991
60381	-4.822035	3.296780	7.265763	0.473022	1.403951	-0.609162	0.522831	0.262479	-0.066296	-0.808305
60382	-4.410309	3.434176	7.591407	0.479986	1.255433	-0.482344	0.533501	0.244916	-0.072368	-0.806322
60383	-4.032826	3.127334	7.676307	0.257913	1.346397	-0.697877	0.543466	0.227737	-0.077948	-0.804179
60384	-3.498584	2.855657	8.031993	-0.111598	1.218375	-0.680259	0.552498	0.210985	-0.083411	-0.802044
60385	-3.080626	2.473891	7.911309	-0.336578	1.263755	-1.067360	0.560669	0.194861	-0.089015	-0.799848
60386	-2.798737	2.708043	8.139381	-0.161501	1.168839	-0.867533	0.567916	0.179892	-0.095593	-0.797478
60387	-2.435553	2.992030	8.256897	0.074846	0.995468	-0.754199	0.574716	0.165253	-0.101816	-0.795001
60388	-2.006430	2.971326	8.194312	0.101726	0.857270	-0.910500	0.581087	0.150796	-0.107501	-0.792491
60389	-1.491258	3.112543	8.483873	0.119201	0.572686	-0.672728	0.587032	0.136995	-0.112963	-0.789851
60390	-0.969823	3.436854	8.541036	0.389659	0.225717	-0.566471	0.592618	0.123658	-0.117930	-0.787150
60391	-0.639220	3.400503	8.515428	0.436230	0.143391	-0.632962	0.598055	0.109793	-0.120836	-0.784649
60392	-0.762970	2.523418	8.600927	-0.180669	0.692002	-0.845604	0.603030	0.095838	-0.122520	-0.782406
60393	-0.684416	1.879001	8.890510	-0.706264	0.981524	-0.780923	0.607418	0.082264	-0.124733	-0.780203
60394	-0.043301	1.727504	8.725741	-0.815099	0.569597	-0.973478	0.611245	0.070443	-0.128951	-0.777682
60395	0.306886	2.154553	8.517661	-0.345573	0.304342	-1.033667	0.614688	0.060416	-0.134418	-0.774881
60396	0.393599	2.057466	8.301116	-0.321217	0.393817	-1.266616	0.617662	0.050879	-0.139415	-0.772313
60397	0.721682	1.933589	8.255159	-0.427078	0.261169	-1.318335	0.620255	0.041852	-0.144024	-0.769928
60398	1.097783	1.932019	8.210891	-0.427072	0.040854	-1.317374	0.622788	0.033397	-0.147484	-0.767638
60399	1.371963	1.898173	7.955160	-0.378624	-0.141481	-1.529872	0.625165	0.025839	-0.149429	-0.765619
60400	1.239387	1.925338	7.878423	-0.225354	0.062403	-1.611666	0.627314	0.019085	-0.150247	-0.763897
60401	1.045183	1.628845	7.833318	-0.370319	0.365013	-1.760669	0.628981	0.012257	-0.149832	-0.762747
60402	1.115740	1.474201	8.226939	-0.527669	0.468056	-1.410172	0.630115	0.006241	-0.149218	-0.762004
60403	1.531125	1.453820	8.651390	-0.626725	0.218772	-0.932213	0.630705	0.000221	-0.147904	-0.761797
60404	1.702877	1.220665	8.497287	-0.768402	0.093570	-1.095236	0.630844	-0.004092	-0.146119	-0.762016
60405	1.486182	1.241662	8.487146	-0.638983	0.322015	-1.136867	0.630567	-0.007317	-0.145527	-0.762334
60406	1.923086	1.279117	8.543517	-0.656310	-0.062314	-0.987086	0.629981	-0.010297	-0.145114	-0.762863
60407	2.081886	1.049010	9.017872	-0.960739	-0.037502	-0.548123	0.628880	-0.012240	-0.145456	-0.763677
60408	1.934427	1.035564	9.251016	-0.978044	0.192223	-0.357420	0.627502	-0.012988	-0.147051	-0.764492
60409	2.236377	1.507973	9.089114	-0.592445	-0.183888	-0.352125	0.626183	-0.011914	-0.149898	-0.765038
60410	2.167395	2.556201	9.277427	0.326369	-0.225459	0.043498	0.625009	-0.009291	-0.153440	-0.765333
60411	2.071347	3.475729	9.941917	1.039852	-0.114800	0.869925	0.623626	-0.007974	-0.155056	-0.766149
60412	2.077323	2.898461	10.095705	0.445586	0.015145	0.885012	0.621988	-0.009045	-0.154109	-0.767659
60413	2.120950	1.982254	9.893642	-0.376233	0.077777	0.490915	0.620396	-0.010236	-0.152779	-0.769196
60414	2.105683	1.635668	9.562302	-0.629793	0.068890	0.094156	0.618827	-0.010429	-0.152671	-0.770478
60415	2.174059	2.072186	9.861771	-0.298114	0.002306	0.491974	0.617334	-0.009772	-0.153992	-0.771420
60416	2.421364	2.878705	9.718164	0.407244	-0.410441	0.592035	0.615936	-0.009232	-0.155282	-0.772286
60417	2.134270	3.120852	9.581583	0.711079	-0.216052	0.461028	0.614581	-0.009041	-0.155493	-0.773324
60418	1.863882	2.738943	9.616371	0.409136	0.117399	0.349461	0.613299	-0.009695	-0.154795	-0.774473
60419	1.899504	2.142448	9.522844	-0.138438	0.172420	0.128834	0.612123	-0.010140	-0.154311	-0.775494
60420	1.969384	2.104215	9.691903	-0.226012	0.155654	0.294926	0.610948	-0.009754	-0.154891	-0.776309
60421	1.970958	2.547252	9.791032	0.152156	0.093876	0.492913	0.609763	-0.008922	-0.156169	-0.776994
60422	1.900038	2.904636	9.709491	0.504373	0.071278	0.485943	0.608767	-0.008933	-0.156491	-0.777710
60423	1.942154	2.892936	9.724508	0.483461	0.035201	0.505844	0.607877	-0.009510	-0.155829	-0.778532
60424	1.903761	2.668914	9.831131	0.284866	0.134184	0.545849	0.606946	-0.010460	-0.154324	-0.779546
60425	1.999000	2.340589	9.513704	0.036441	0.017397	0.186472	0.606227	-0.011412	-0.152641	-0.780422
60426	1.884501	2.362372	9.530622	0.110501	0.109598	0.184344	0.605590	-0.011908	-0.151546	-0.781123
60427	1.979537	2.322059	9.564150	0.059483	0.025967	0.226200	0.604889	-0.012464	-0.150654	-0.781829
60428	2.034478	2.078889	9.469459	-0.152791	-0.005231	0.092268	0.604091	-0.013016	-0.149716	-0.782618
60429	2.018204	2.032624	9.444112	-0.176751	0.006258	0.054666	0.603372	-0.013185	-0.149284	-0.783252
60430	1.932087	2.242961	9.507486	0.031622	0.051622	0.144845	0.602731	-0.012691	-0.149609	-0.783691
60431	1.980024	2.550124	9.767636	0.251407	0.000391	0.471626	0.602138	-0.012130	-0.150078	-0.784066
60432	2.005545	2.583583	9.518936	0.305194	-0.096278	0.247374	0.601666	-0.011770	-0.150132	-0.784423
60433	2.041544	2.634860	9.725017	0.307498	-0.097572	0.462635	0.601337	-0.011733	-0.149643	-0.784769
60434	2.026096	2.609664	9.843725	0.280198	-0.059242	0.566728	0.601072	-0.012179	-0.148556	-0.785172
60435	2.048376	2.489934	9.730492	0.201130	-0.096652	0.435640	0.600820	-0.012638	-0.147144	-0.785624
60436	1.980888	2.256175	9.650496	0.036012	-0.016875	0.293977	0.600589	-0.013155	-0.145668	-0.786066
60437	2.024501	1.992875	9.637042	-0.202143	-0.016438	0.232289	0.600288	-0.013432	-0.144523	-0.786503
60438	1.885814	1.696538	9.507434	-0.412083	0.139261	0.017705	0.599965	-0.013412	-0.143890	-0.786866
60439	2.039565	2.063341	9.602294	-0.120217	-0.079386	0.217292	0.599689	-0.013108	-0.143565	-0.787141
60440	1.858037	2.460646	9.689794	0.293602	0.005294	0.351609	0.599457	-0.012796	-0.142884	-0.787446
60441	1.705082	2.414986	9.758502	0.291105	0.159215	0.378372	0.599133	-0.012875	-0.141729	-0.787900
60442	1.877571	2.002249	9.811195	-0.138278	0.090417	0.373895	0.598914	-0.013259	-0.140386	-0.788301
60443	1.873344	1.999679	9.789132	-0.120475	0.073576	0.351725	0.598750	-0.013236	-0.139538	-0.788576
60444	1.860602	2.282505	9.705905	0.170756	-0.017341	0.328653	0.598535	-0.013042	-0.138830	-0.788868
60445	1.710160	2.372020	9.779606	0.293262	0.105066	0.389997	0.598287	-0.012964	-0.138040	-0.789196
60446	1.812269	2.054998	9.721061	-0.017085	0.059893	0.286939	0.598037	-0.013179	-0.137224	-0.789523
60447	1.840117	1.844007	9.769246	-0.226418	0.087848	0.295012	0.597757	-0.012970	-0.136997	-0.789779
60448	1.943402	2.169074	9.904754	0.028054	-0.063502	0.511121	0.597573	-0.012629	-0.137010	-0.789921
60449	1.942769	2.397538	9.772185	0.257580	-0.155425	0.430732	0.597412	-0.012198	-0.136975	-0.790055
60450	1.828240	2.317433	9.787412	0.211166	-0.032698	0.407915	0.597306	-0.012112	-0.136423	-0.790233
60451	1.629988	2.079898	9.804059	0.045692	0.207261	0.339029	0.597206	-0.012100	-0.135951	-0.790390
60452	1.564553	1.994533	9.812723	-0.015721	0.286215	0.318125	0.596984	-0.011973	-0.135856	-0.790575
60453	1.792732	1.818574	9.844093	-0.254215	0.119536	0.353352	0.596688	-0.011847	-0.135816	-0.790808
60454	1.713676	1.898484	9.658444	-0.135439	0.130000	0.176868	0.596478	-0.011392	-0.136165	-0.790913
60455	1.790565	2.141564	9.661739	0.058545	-0.002235	0.244060	0.596233	-0.010851	-0.136615	-0.791028
60456	1.739572	2.289370	9.673034	0.198940	0.009825	0.276674	0.596001	-0.010391	-0.136783	-0.791180
60457	1.590202	2.333690	9.707610	0.272963	0.141940	0.292652	0.595782	-0.010158	-0.136561	-0.791386
60458	1.615262	2.021519	9.699337	-0.028946	0.188585	0.224062	0.595502	-0.010020	-0.136334	-0.791637
60459	1.769539	1.924551	9.888052	-0.198801	0.107932	0.412652	0.595207	-0.009674	-0.136588	-0.791820
60460	1.749833	2.152858	9.812484	0.020014	0.051221	0.384297	0.594924	-0.008976	-0.137130	-0.791947
60461	1.638206	2.481648	9.744526	0.354331	0.058360	0.369115	0.594636	-0.008306	-0.137787	-0.792057
60462	1.710661	2.533866	9.772710	0.370923	-0.018693	0.420336	0.594382	-0.008389	-0.137390	-0.792315
60463	1.623850	2.273775	9.681022	0.172516	0.101304	0.261492	0.594240	-0.008572	-0.136833	-0.792516
60464	1.677597	1.847931	9.665715	-0.236704	0.149366	0.166134	0.593901	-0.008555	-0.136511	-0.792826
60465	1.723768	1.450492	9.587360	-0.618023	0.185456	0.014642	0.593479	-0.007993	-0.136739	-0.793108
60466	1.571581	1.739761	9.707576	-0.343740	0.283986	0.164022	0.592994	-0.006794	-0.138173	-0.793234
60467	1.711985	2.409530	9.933999	0.175007	0.039181	0.550170	0.592452	-0.005829	-0.139374	-0.793436
60468	1.609597	2.529004	9.813646	0.322614	0.076956	0.443252	0.591829	-0.005853	-0.139032	-0.793961
60469	1.561391	2.380388	9.799820	0.219437	0.144285	0.388859	0.591123	-0.006903	-0.137222	-0.794793
60470	1.465535	1.817611	9.665221	-0.207487	0.323497	0.123097	0.590296	-0.008715	-0.133741	-0.795983
60471	1.402734	1.063361	9.536405	-0.807212	0.517115	-0.162722	0.589076	-0.010768	-0.129743	-0.797521
60472	1.483913	0.591193	9.652382	-1.214957	0.551136	-0.120455	0.587242	-0.012612	-0.125071	-0.799591
60473	1.233743	0.491271	9.861263	-1.168406	0.801687	0.036114	0.584584	-0.014766	-0.119203	-0.802393
60474	0.868861	0.560662	10.043511	-0.899320	1.088170	0.184648	0.581328	-0.017084	-0.112309	-0.805700
60475	0.714664	-0.003764	10.118605	-1.258454	1.333204	0.163963	0.577494	-0.019921	-0.104663	-0.809413
60476	0.891365	-0.638216	9.703865	-1.755515	1.219960	-0.284010	0.572521	-0.021872	-0.099046	-0.813591
60477	0.913729	-0.346214	9.906033	-1.437233	1.102085	-0.024746	0.566477	-0.022080	-0.095863	-0.818185
60478	0.603349	-0.277325	10.091431	-1.239851	1.369313	0.130427	0.559436	-0.021847	-0.093463	-0.823298
60479	0.382630	0.191730	10.521979	-0.734788	1.460506	0.590302	0.551382	-0.021193	-0.092528	-0.828835
60480	0.659747	-0.049586	10.532116	-1.056351	1.297098	0.606758	0.542232	-0.021058	-0.092310	-0.834877
60481	0.824270	-0.251444	10.188448	-1.292501	1.191630	0.259869	0.531904	-0.020114	-0.093865	-0.841346
60482	0.380945	-0.100199	9.942890	-0.993010	1.527029	-0.030168	0.520387	-0.017625	-0.097747	-0.848135
60483	0.691455	0.240255	10.584713	-0.942055	1.279886	0.677588	0.507813	-0.016123	-0.100888	-0.855387
60484	0.736045	0.593787	10.552033	-0.704507	1.125263	0.698104	0.494339	-0.014948	-0.103902	-0.862908
60485	0.416095	1.344293	10.467729	0.049922	1.061434	0.695592	0.480171	-0.013548	-0.107836	-0.870416
60486	0.166948	1.488731	10.208145	0.267754	1.185695	0.432919	0.464978	-0.012670	-0.112003	-0.878117
60487	0.144566	1.222330	10.207070	0.022221	1.394723	0.373246	0.448565	-0.012478	-0.115706	-0.886141
60488	0.098568	1.180693	10.234907	-0.014722	1.515123	0.378528	0.431411	-0.012156	-0.119887	-0.894071
60489	0.159640	1.011260	10.156695	-0.207978	1.620417	0.263868	0.413511	-0.011830	-0.124763	-0.901833
60490	-0.001153	1.504389	9.899069	0.243560	1.457112	0.090402	0.394887	-0.011140	-0.131724	-0.909169
60491	0.055764	2.538443	9.781610	0.884173	0.800425	0.222400	0.375735	-0.010452	-0.139159	-0.916160
60492	-0.285918	3.185495	9.991804	1.471928	0.714417	0.550111	0.356163	-0.010356	-0.145479	-0.922972
60493	0.043081	3.126309	9.904357	1.127557	0.555502	0.497095	0.336114	-0.011297	-0.150256	-0.929690
60494	0.198489	2.887236	9.702115	0.825941	0.609380	0.259690	0.315541	-0.012612	-0.154386	-0.936184
60495	0.078376	3.293604	9.533918	1.130464	0.354403	0.204584	0.294472	-0.014023	-0.158609	-0.942302
60496	0.071606	3.264594	9.341444	1.085141	0.336877	0.017576	0.272763	-0.015515	-0.161816	-0.948248
60497	-0.521641	3.367130	9.466222	1.589805	0.602361	0.103387	0.250608	-0.016633	-0.165863	-0.953629
60498	-0.497273	3.704621	9.436350	1.681977	0.308819	0.191887	0.228208	-0.018115	-0.170330	-0.958426
60499	-0.318953	3.888229	9.010901	1.560154	-0.060244	-0.118449	0.205505	-0.019557	-0.174365	-0.962799
60500	-0.394049	4.074281	9.400269	1.617708	-0.048041	0.311558	0.182934	-0.020975	-0.178515	-0.966554
60501	-0.059447	4.363241	9.331837	1.334312	-0.413570	0.393802	0.160276	-0.022943	-0.183411	-0.969611
60502	-0.292042	4.482432	9.062402	1.509194	-0.508316	0.175691	0.137871	-0.024379	-0.188404	-0.972060
60503	-0.827426	4.958330	9.048577	2.057782	-0.766427	0.302824	0.115619	-0.026074	-0.193965	-0.973822
60504	-0.525393	5.581767	9.171795	1.802672	-1.319715	0.702136	0.093458	-0.028208	-0.198156	-0.975297
60505	-0.081557	5.393016	9.409248	1.225464	-1.132790	0.903624	0.071400	-0.030321	-0.199243	-0.976875
60506	-0.341351	4.766908	9.885764	1.316061	-0.377745	1.081942	0.050220	-0.032229	-0.198844	-0.978213
60507	-1.132198	4.006623	9.329316	1.939473	0.096288	0.217243	0.029399	-0.034185	-0.198149	-0.979134
60508	-1.290094	3.987039	8.838248	2.024471	-0.139290	-0.244137	0.008184	-0.036281	-0.199230	-0.979247
60509	-0.478096	4.728849	9.181464	1.202379	-0.721092	0.430543	-0.013179	-0.038758	-0.200002	-0.978940
60510	1.273703	4.915151	9.518827	-0.582890	-0.688354	0.937902	-0.033275	-0.041314	-0.198785	-0.978606
60511	0.351476	5.038342	9.470392	0.259917	-0.884081	0.880638	-0.051791	-0.043400	-0.198678	-0.977733
60512	-0.804215	6.113815	9.420969	1.224264	-2.028363	1.194862	-0.069515	-0.045416	-0.198929	-0.976490
60513	-0.983986	5.453860	9.314837	1.368514	-1.554620	0.826291	-0.086682	-0.047290	-0.195697	-0.975681
60514	0.533305	4.430968	8.894238	-0.091603	-0.570502	0.121654	-0.102924	-0.048988	-0.192667	-0.974621
60515	0.421761	4.051261	9.051642	0.070300	-0.195845	0.110991	-0.117759	-0.050984	-0.193669	-0.972639
60516	-0.014811	5.077479	8.962259	0.243239	-1.194996	0.415471	-0.130915	-0.053390	-0.197471	-0.970060
60517	-0.260764	6.181995	8.858757	0.178581	-2.193648	0.766440	-0.142468	-0.056086	-0.201027	-0.967546
60518	0.804697	6.144118	8.705421	-0.887704	-1.839684	0.675849	-0.152955	-0.058254	-0.201274	-0.965764
60519	0.809396	5.235466	8.811006	-0.658528	-0.988942	0.399429	-0.161954	-0.059889	-0.200089	-0.964442
60520	0.402781	5.128373	8.514428	-0.325748	-1.147359	0.063309	-0.169822	-0.061151	-0.198836	-0.963268
