// General information: 
//  MT Manager version: 2021.0.0 
//  XDA version: 2021.0.0 build 5908 rev 109668 built on 2021-04-19
// Device information: 
//  DeviceId: 00B43DFD
//  ProductCode: MTW2-3A7G6
//  Firmware Version: 4.3.5
//  Hardware Version: 1.1.0
// Device settings: 
//  Filter Profile: human(46.1)
//  Option Flags: Orientation Smoother Disabled, Position/Velocity Smoother Disabled, Continuous Zero Rotation Update Disabled, AHS Disabled, ICC Disabled
// Coordinate system: ENU
PacketCounter	Acc_X	Acc_Y	Acc_Z	FreeAcc_E	FreeAcc_N	FreeAcc_U	Quat_q0	Quat_q1	Quat_q2	Quat_q3
59330	-9.451488	0.318383	3.210790	0.271047	1.593268	0.042700	-0.762990	-0.175507	-0.510354	0.355784
59331	-9.865663	0.201839	3.297640	0.084518	1.545792	0.475606	-0.765143	-0.177431	-0.510031	0.350634
59332	-10.107073	0.024003	3.431677	-0.085233	1.338905	0.776398	-0.767091	-0.180363	-0.509650	0.345394
59333	-10.112567	-0.253029	3.478614	-0.330662	1.017262	0.830769	-0.768746	-0.184069	-0.509263	0.340295
59334	-9.940824	-0.496950	3.547165	-0.489882	0.637051	0.723066	-0.770074	-0.188052	-0.508972	0.335513
59335	-9.696148	-0.792046	3.518482	-0.719362	0.263661	0.504009	-0.771093	-0.191802	-0.508807	0.331275
59336	-9.361103	-0.974488	3.521145	-0.808746	-0.062285	0.203285	-0.771797	-0.194827	-0.508827	0.327822
59337	-9.137626	-1.121199	3.543369	-0.872213	-0.319402	0.007986	-0.772174	-0.197181	-0.508945	0.325332
59338	-9.045492	-1.136266	3.577392	-0.859275	-0.431519	-0.066662	-0.772283	-0.199210	-0.508861	0.323966
59339	-9.103814	-0.943103	3.673525	-0.697151	-0.375653	0.017695	-0.772222	-0.201292	-0.508304	0.323700
59340	-9.131326	-0.558238	3.763993	-0.397485	-0.179190	0.070135	-0.772073	-0.203452	-0.507362	0.324182
59341	-9.056843	-0.228091	3.770179	-0.165226	0.007816	-0.001203	-0.772034	-0.205480	-0.506307	0.324645
59342	-9.035757	-0.064933	3.689923	-0.122290	0.147604	-0.054213	-0.772170	-0.207365	-0.505401	0.324536
59343	-8.915793	-0.116677	3.623661	-0.195489	0.093657	-0.190381	-0.772445	-0.209121	-0.504833	0.323637
59344	-8.953771	-0.332625	3.543797	-0.435020	-0.030017	-0.187261	-0.772638	-0.210995	-0.504691	0.322178
59345	-8.984097	-0.616140	3.507082	-0.689351	-0.241208	-0.176317	-0.772578	-0.213298	-0.504756	0.320699
59346	-8.974984	-0.791041	3.526209	-0.817974	-0.430992	-0.181742	-0.772158	-0.216275	-0.504785	0.319672
59347	-8.940343	-0.922162	3.613383	-0.865200	-0.646708	-0.186186	-0.771314	-0.219991	-0.504722	0.319271
59348	-8.944482	-0.910283	3.726164	-0.805475	-0.773423	-0.144733	-0.770090	-0.224274	-0.504626	0.319400
59349	-8.993581	-0.769045	3.965743	-0.585275	-0.889622	-0.011226	-0.768662	-0.228861	-0.504567	0.319676
59350	-9.233421	-0.706207	4.168553	-0.500046	-0.993289	0.281592	-0.767262	-0.233420	-0.504503	0.319844
59351	-9.442844	-0.748002	4.315645	-0.520283	-1.140237	0.520769	-0.766010	-0.237715	-0.504280	0.320035
59352	-9.638595	-0.769681	4.441730	-0.536189	-1.257831	0.739749	-0.764827	-0.241533	-0.504048	0.320369
59353	-9.740759	-0.891933	4.471288	-0.655023	-1.388882	0.832129	-0.763667	-0.244644	-0.503891	0.321022
59354	-9.832423	-0.927746	4.505646	-0.696877	-1.452164	0.922470	-0.762567	-0.246919	-0.503819	0.322007
59355	-9.907297	-0.943344	4.494720	-0.737373	-1.454392	0.984903	-0.761698	-0.247963	-0.503825	0.323250
59356	-9.941803	-0.863611	4.487405	-0.681753	-1.379641	1.020309	-0.761172	-0.247422	-0.503954	0.324700
59357	-9.916437	-0.635889	4.459299	-0.497651	-1.176741	1.003630	-0.761065	-0.245034	-0.504287	0.326242
59358	-9.810247	-0.484211	4.400910	-0.352659	-0.992333	0.898689	-0.761485	-0.240699	-0.504820	0.327659
59359	-9.724949	-0.493311	4.183043	-0.419637	-0.771062	0.748751	-0.762331	-0.234659	-0.505541	0.328960
59360	-9.615352	-0.596713	3.950593	-0.551921	-0.590568	0.568219	-0.763310	-0.227537	-0.506297	0.330526
59361	-9.582437	-0.498539	3.802112	-0.499968	-0.299460	0.491977	-0.764185	-0.219910	-0.507011	0.332568
59362	-9.581355	-0.360523	3.665276	-0.418091	0.028228	0.443475	-0.764888	-0.212077	-0.507661	0.335038
59363	-9.445944	-0.206030	3.605523	-0.240852	0.279240	0.293251	-0.765343	-0.204348	-0.508293	0.337832
59364	-9.321771	-0.130141	3.515450	-0.143661	0.494204	0.137383	-0.765472	-0.197028	-0.508972	0.340853
59365	-9.172722	-0.063561	3.468080	-0.021375	0.655003	-0.028041	-0.765320	-0.190341	-0.509703	0.343888
59366	-8.975356	0.058817	3.505149	0.204252	0.767476	-0.209851	-0.764911	-0.184408	-0.510551	0.346759
59367	-8.930578	0.184132	3.634757	0.454836	0.856909	-0.217985	-0.764275	-0.179094	-0.511665	0.349297
59368	-8.962025	0.301275	3.733081	0.661523	0.975791	-0.171432	-0.763640	-0.174027	-0.512943	0.351366
59369	-9.008174	0.338883	3.765607	0.761561	1.082509	-0.133372	-0.763222	-0.168909	-0.514159	0.352991
59370	-8.978006	0.364274	3.714207	0.807497	1.206252	-0.198912	-0.763085	-0.163661	-0.515168	0.354286
59371	-8.794889	0.296906	3.594785	0.766262	1.249819	-0.420629	-0.763129	-0.158519	-0.515985	0.355338
59372	-8.661074	0.284882	3.496127	0.759442	1.328593	-0.594456	-0.763226	-0.153884	-0.516678	0.356160
59373	-8.562580	0.253905	3.382575	0.714348	1.404211	-0.738461	-0.763315	-0.149911	-0.517289	0.356776
59374	-8.431364	0.261350	3.294898	0.714911	1.465193	-0.904578	-0.763340	-0.146577	-0.517924	0.357187
59375	-8.275790	0.291235	3.203287	0.730028	1.521450	-1.095654	-0.763262	-0.143817	-0.518730	0.357304
59376	-8.067511	0.257230	3.156465	0.740455	1.471509	-1.303841	-0.763041	-0.141679	-0.519806	0.357068
59377	-7.915138	0.206646	3.114120	0.729127	1.413208	-1.454396	-0.762752	-0.140388	-0.521091	0.356321
59378	-7.915227	0.088835	3.150587	0.691151	1.302222	-1.421538	-0.762406	-0.140276	-0.522438	0.355131
59379	-8.092694	-0.107723	3.249382	0.600060	1.147010	-1.187958	-0.761975	-0.141727	-0.523546	0.353846
59380	-8.224460	-0.096090	3.388318	0.678752	1.075903	-1.008534	-0.761508	-0.144712	-0.524240	0.352614
59381	-8.298074	0.025537	3.523966	0.830889	1.042719	-0.896473	-0.761044	-0.148879	-0.524659	0.351256
59382	-8.329261	0.092130	3.641116	0.932354	0.948715	-0.819760	-0.760638	-0.153636	-0.525162	0.349328
59383	-8.509545	-0.051089	3.682136	0.801088	0.790744	-0.609151	-0.760287	-0.158825	-0.525929	0.346607
59384	-8.790607	-0.237627	3.762210	0.641132	0.595946	-0.288091	-0.760020	-0.164417	-0.526800	0.343247
59385	-8.911381	-0.535363	3.845673	0.431032	0.247738	-0.104971	-0.759821	-0.170487	-0.527543	0.339565
59386	-8.954432	-0.776899	3.855805	0.218523	-0.053775	-0.035155	-0.759481	-0.177239	-0.528132	0.335933
59387	-9.030532	-0.941127	3.884214	0.059512	-0.310805	0.057526	-0.758969	-0.184572	-0.528540	0.332484
59388	-9.081739	-1.054410	3.922240	-0.056813	-0.550747	0.120340	-0.758301	-0.192166	-0.528775	0.329316
59389	-9.150207	-1.104919	4.033411	-0.085560	-0.787798	0.216547	-0.757539	-0.199608	-0.528923	0.326393
59390	-9.244386	-0.788275	4.523868	0.397446	-1.003302	0.452739	-0.756868	-0.206108	-0.529365	0.323177
59391	-9.468522	-0.863042	4.825270	0.459223	-1.330354	0.756078	-0.756576	-0.210746	-0.530466	0.319036
59392	-9.630792	-1.373565	4.814309	0.032670	-1.763296	0.897355	-0.756517	-0.214131	-0.531810	0.314654
59393	-9.856595	-1.741360	4.642766	-0.408543	-1.960878	1.037534	-0.756512	-0.217022	-0.532799	0.310994
59394	-10.068135	-1.886827	4.452521	-0.706214	-1.973571	1.158100	-0.756515	-0.219590	-0.533108	0.308645
59395	-10.177280	-1.847590	4.189212	-0.907051	-1.801993	1.163194	-0.756548	-0.221798	-0.532565	0.307922
59396	-10.131711	-1.439076	4.092189	-0.701518	-1.483314	1.085758	-0.756598	-0.223198	-0.531719	0.308247
59397	-10.077850	-1.225277	4.061248	-0.575871	-1.323564	1.025884	-0.756653	-0.223342	-0.531152	0.308986
59398	-10.007791	-1.067040	3.999103	-0.490345	-1.166399	0.943068	-0.756746	-0.222362	-0.530934	0.309838
59399	-9.857366	-0.862741	4.012277	-0.289861	-1.030548	0.811066	-0.757009	-0.220285	-0.531029	0.310515
59400	-9.854465	-0.753769	4.020512	-0.182793	-0.910823	0.816509	-0.757493	-0.216855	-0.531587	0.310795
59401	-9.919995	-0.680713	3.922057	-0.177581	-0.712454	0.850917	-0.758257	-0.212109	-0.532354	0.310895
59402	-9.930604	-0.578718	3.809764	-0.141728	-0.477780	0.827651	-0.759307	-0.206060	-0.533223	0.310910
59403	-9.814616	-0.571265	3.626543	-0.187100	-0.278928	0.660651	-0.760581	-0.198948	-0.534116	0.310897
59404	-9.602988	-0.593898	3.467090	-0.214034	-0.132156	0.411115	-0.761923	-0.191151	-0.535011	0.310962
59405	-9.456496	-0.661520	3.310155	-0.286305	-0.001632	0.224079	-0.763210	-0.183252	-0.535809	0.311188
59406	-9.369186	-0.693145	3.175800	-0.335787	0.152450	0.097435	-0.764305	-0.175797	-0.536425	0.311740
59407	-9.326574	-0.621049	3.142100	-0.260286	0.328290	0.039560	-0.765179	-0.169023	-0.536775	0.312738
59408	-9.239360	-0.578108	3.071498	-0.226758	0.486703	-0.073862	-0.765837	-0.162962	-0.536807	0.314286
59409	-9.143118	-0.420847	3.018303	-0.108982	0.710477	-0.201948	-0.766263	-0.157667	-0.536633	0.316239
59410	-8.979859	-0.294524	2.978374	0.008195	0.872751	-0.387571	-0.766501	-0.153080	-0.536360	0.318371
59411	-8.855911	-0.157506	2.957389	0.134589	1.032151	-0.532919	-0.766585	-0.149098	-0.536160	0.320388
59412	-8.722591	-0.062916	2.949731	0.243223	1.135669	-0.678184	-0.766566	-0.145644	-0.536115	0.322095
59413	-8.632474	-0.055687	3.001401	0.327222	1.139447	-0.750379	-0.766443	-0.142839	-0.536270	0.323383
59414	-8.676743	0.019116	3.077405	0.442075	1.210474	-0.696995	-0.766324	-0.140706	-0.536519	0.324186
59415	-8.663166	0.024886	3.139482	0.509021	1.204463	-0.691419	-0.766314	-0.139163	-0.536797	0.324415
59416	-8.689595	0.005930	3.122049	0.487403	1.226690	-0.674091	-0.766467	-0.138046	-0.537065	0.324086
59417	-8.639546	-0.082876	3.080639	0.413214	1.173227	-0.724687	-0.766730	-0.137345	-0.537349	0.323291
59418	-8.600406	-0.188959	3.055858	0.334728	1.090407	-0.755098	-0.766985	-0.137088	-0.537770	0.322095
59419	-8.589897	-0.322336	3.075363	0.264101	0.959006	-0.737524	-0.767142	-0.137531	-0.538352	0.320554
59420	-8.638795	-0.423121	3.099136	0.204268	0.854951	-0.667215	-0.767146	-0.138762	-0.539089	0.318771
59421	-8.721589	-0.508608	3.200061	0.204188	0.716551	-0.538539	-0.766999	-0.140544	-0.540009	0.316780
59422	-8.832166	-0.617914	3.313697	0.192615	0.551109	-0.377198	-0.766815	-0.142643	-0.541025	0.314548
59423	-8.901696	-0.681842	3.454301	0.238407	0.382681	-0.250594	-0.766614	-0.144943	-0.542152	0.312034
59424	-8.982172	-0.752525	3.561697	0.253082	0.224153	-0.126787	-0.766454	-0.147287	-0.543387	0.309168
59425	-9.055777	-0.850286	3.662522	0.246950	0.041539	-0.010598	-0.766390	-0.149557	-0.544649	0.306002
59426	-9.152902	-0.952158	3.712345	0.194998	-0.111114	0.107639	-0.766452	-0.151640	-0.545931	0.302515
59427	-9.274535	-1.028091	3.670739	0.086731	-0.184327	0.212599	-0.766706	-0.153163	-0.547253	0.298694
59428	-9.365572	-1.143236	3.600777	-0.058877	-0.276419	0.282177	-0.767119	-0.154068	-0.548593	0.294680
59429	-9.397402	-1.334744	3.566432	-0.209367	-0.459242	0.314362	-0.767559	-0.154567	-0.549923	0.290770
59430	-9.399833	-1.476471	3.540860	-0.312762	-0.610951	0.316637	-0.767914	-0.154989	-0.551133	0.287296
59431	-9.425617	-1.499803	3.478806	-0.376126	-0.637047	0.318763	-0.768175	-0.155514	-0.552075	0.284492
59432	-9.398834	-1.476925	3.500690	-0.339081	-0.679799	0.296565	-0.768363	-0.156219	-0.552663	0.282449
59433	-9.385669	-1.333508	3.539390	-0.223398	-0.624593	0.284649	-0.768556	-0.156997	-0.552893	0.281040
59434	-9.291470	-1.202161	3.513841	-0.150135	-0.555922	0.176910	-0.768794	-0.157760	-0.552863	0.280019
59435	-9.238823	-1.104481	3.520628	-0.083724	-0.515750	0.121974	-0.769030	-0.158416	-0.552770	0.279182
59436	-9.194967	-1.068628	3.495690	-0.080957	-0.501388	0.069178	-0.769263	-0.159033	-0.552637	0.278452
59437	-9.219670	-1.003648	3.555234	-0.012188	-0.492585	0.107318	-0.769469	-0.159724	-0.552452	0.277853
59438	-9.281380	-0.856853	3.552520	0.049392	-0.373815	0.155081	-0.769734	-0.160320	-0.552202	0.277272
59439	-9.302947	-0.750485	3.556649	0.100242	-0.297794	0.170251	-0.770107	-0.160622	-0.551934	0.276595
59440	-9.236191	-0.684901	3.546116	0.138326	-0.263919	0.100055	-0.770501	-0.160457	-0.551903	0.275653
59441	-9.221751	-0.821865	3.479144	0.005111	-0.344468	0.071740	-0.770830	-0.159913	-0.552177	0.274499
59442	-9.331877	-0.831262	3.498194	-0.009690	-0.339652	0.182152	-0.771121	-0.159227	-0.552528	0.273372
59443	-9.402761	-0.849271	3.482365	-0.045746	-0.328084	0.244664	-0.771434	-0.158329	-0.552805	0.272447
59444	-9.382993	-0.863503	3.397406	-0.112439	-0.291494	0.198854	-0.771780	-0.157399	-0.552852	0.271912
59445	-9.329383	-0.806979	3.384441	-0.077126	-0.241275	0.141149	-0.772137	-0.156614	-0.552651	0.271761
59446	-9.285170	-0.671356	3.335711	-0.027046	-0.103548	0.075720	-0.772465	-0.155940	-0.552347	0.271834
59447	-9.236600	-0.512385	3.312453	0.058565	0.038228	0.013032	-0.772710	-0.155189	-0.552206	0.271854
59448	-9.273736	-0.460763	3.292103	0.066626	0.112585	0.037962	-0.772908	-0.154176	-0.552348	0.271578
59449	-9.225713	-0.457808	3.270421	0.069357	0.127040	-0.014828	-0.773100	-0.152899	-0.552720	0.270997
59450	-9.237106	-0.643888	3.217380	-0.075366	0.019457	-0.010433	-0.773251	-0.151696	-0.553144	0.270376
59451	-9.252823	-0.730960	3.231448	-0.111801	-0.045741	0.014657	-0.773348	-0.150885	-0.553380	0.270068
59452	-9.233954	-0.739266	3.222496	-0.116122	-0.044366	-0.005474	-0.773419	-0.150543	-0.553280	0.270262
59453	-9.099739	-0.595053	3.238777	0.011651	0.037785	-0.135526	-0.773428	-0.150526	-0.553010	0.270798
59454	-9.038479	-0.451736	3.237167	0.107547	0.145528	-0.203073	-0.773393	-0.150514	-0.552841	0.271249
59455	-9.041883	-0.410840	3.289332	0.171695	0.155847	-0.185104	-0.773379	-0.150328	-0.552872	0.271328
59456	-9.124403	-0.509579	3.277412	0.087027	0.106061	-0.105113	-0.773433	-0.149991	-0.552999	0.271101
59457	-9.213933	-0.616491	3.235951	-0.028758	0.066215	-0.027863	-0.773585	-0.149781	-0.552956	0.270872
59458	-9.153208	-0.708147	3.200045	-0.100185	-0.003344	-0.090911	-0.773739	-0.149943	-0.552701	0.270862
59459	-9.115783	-0.675510	3.222159	-0.061703	-0.000286	-0.120820	-0.773778	-0.150446	-0.552401	0.271084
59460	-9.111407	-0.603354	3.287089	0.026112	0.017858	-0.107754	-0.773737	-0.150993	-0.552193	0.271320
59461	-9.194108	-0.640621	3.294840	-0.014112	0.000025	-0.025053	-0.773712	-0.151448	-0.552004	0.271522
59462	-9.304264	-0.685763	3.298993	-0.068819	-0.013160	0.082667	-0.773753	-0.151789	-0.551711	0.271813
59463	-9.304187	-0.623863	3.243251	-0.081992	0.067899	0.059720	-0.773822	-0.152127	-0.551281	0.272297
59464	-9.287957	-0.617692	3.252662	-0.074376	0.065469	0.047215	-0.773816	-0.152603	-0.550892	0.272836
59465	-9.260088	-0.634892	3.222493	-0.106993	0.060463	0.011857	-0.773689	-0.153266	-0.550579	0.273453
59466	-9.265710	-0.553620	3.327708	0.016592	0.067235	0.047775	-0.773488	-0.154003	-0.550333	0.274105
59467	-9.233972	-0.442902	3.355303	0.108442	0.130148	0.020509	-0.773360	-0.154474	-0.550160	0.274547
59468	-9.224960	-0.376146	3.310431	0.114480	0.205059	-0.007323	-0.773360	-0.154529	-0.550095	0.274648
59469	-9.251982	-0.477250	3.252793	0.003934	0.163435	0.004689	-0.773384	-0.154316	-0.550186	0.274517
59470	-9.180946	-0.486715	3.285669	0.043553	0.119979	-0.050209	-0.773284	-0.154232	-0.550417	0.274382
59471	-9.151225	-0.465410	3.328484	0.101428	0.101490	-0.064881	-0.773089	-0.154384	-0.550786	0.274105
59472	-9.213170	-0.487073	3.421227	0.150129	0.039914	0.026032	-0.772946	-0.154611	-0.551141	0.273667
59473	-9.312835	-0.528535	3.418494	0.102697	0.024370	0.121255	-0.772970	-0.154606	-0.551368	0.273143
59474	-9.368032	-0.568656	3.352625	0.014638	0.037109	0.153350	-0.773189	-0.154409	-0.551396	0.272579
59475	-9.233832	-0.687933	3.279520	-0.084382	-0.054511	0.009841	-0.773449	-0.154296	-0.551307	0.272085
59476	-9.091795	-0.819967	3.257119	-0.149321	-0.187728	-0.123293	-0.773435	-0.154571	-0.551341	0.271899
59477	-9.113854	-0.689798	3.370447	0.011474	-0.146717	-0.072236	-0.773138	-0.155027	-0.551592	0.271975
59478	-9.251545	-0.574417	3.455696	0.118708	-0.073133	0.078896	-0.772854	-0.155202	-0.551904	0.272048
59479	-9.279597	-0.504111	3.503113	0.196461	-0.036399	0.116911	-0.772788	-0.154900	-0.552100	0.272011
59480	-9.155228	-0.536654	3.448665	0.167103	-0.057933	-0.016351	-0.772952	-0.154420	-0.552026	0.271970
59481	-9.095059	-0.525403	3.371017	0.126523	-0.014351	-0.099620	-0.773172	-0.154044	-0.551858	0.271896
59482	-9.188511	-0.459783	3.397976	0.160547	0.051771	-0.006673	-0.773388	-0.153793	-0.551706	0.271733
59483	-9.166483	-0.463675	3.376264	0.144264	0.056930	-0.034420	-0.773565	-0.153509	-0.551743	0.271316
59484	-9.167536	-0.526709	3.376679	0.107619	0.007100	-0.029463	-0.773775	-0.152889	-0.551969	0.270606
59485	-9.197740	-0.576891	3.349749	0.053435	-0.006350	-0.007120	-0.774126	-0.151652	-0.552262	0.269697
59486	-9.137720	-0.631792	3.176257	-0.094009	0.040517	-0.118607	-0.774657	-0.149795	-0.552517	0.268687
59487	-9.089061	-0.666686	3.042594	-0.201269	0.089996	-0.207260	-0.775206	-0.147721	-0.552780	0.267709
59488	-9.015519	-0.646599	2.869689	-0.300043	0.198228	-0.336220	-0.775604	-0.145846	-0.553113	0.266895
59489	-8.985533	-0.524606	2.799031	-0.269258	0.342083	-0.396741	-0.775821	-0.144285	-0.553575	0.266155
59490	-8.940466	-0.531279	2.789204	-0.259099	0.338799	-0.441886	-0.775779	-0.143247	-0.554233	0.265469
59491	-8.958917	-0.598243	2.850249	-0.240585	0.256041	-0.398838	-0.775495	-0.142855	-0.555022	0.264858
59492	-9.143019	-0.620998	2.920147	-0.228987	0.237151	-0.200248	-0.775110	-0.143055	-0.555761	0.264330
59493	-9.335542	-0.590998	3.053911	-0.141613	0.224874	0.023843	-0.774763	-0.143523	-0.556334	0.263887
59494	-9.436378	-0.602305	3.082395	-0.141472	0.209559	0.129406	-0.774456	-0.144034	-0.556828	0.263466
59495	-9.438209	-0.716969	3.113324	-0.176483	0.082338	0.149675	-0.774104	-0.144804	-0.557296	0.263088
59496	-9.505278	-0.829430	3.235156	-0.154183	-0.078439	0.260769	-0.773590	-0.145942	-0.557786	0.262935
59497	-9.575789	-0.890697	3.312844	-0.137958	-0.175790	0.356581	-0.772954	-0.147346	-0.558204	0.263134
59498	-9.650346	-0.874045	3.403342	-0.068329	-0.213291	0.455013	-0.772290	-0.148710	-0.558504	0.263680
59499	-9.593610	-0.803205	3.468754	0.044072	-0.218420	0.417908	-0.771628	-0.149724	-0.558783	0.264451
59500	-9.485390	-0.777658	3.480687	0.102434	-0.237135	0.317753	-0.771014	-0.150326	-0.559095	0.265241
59501	-9.337909	-0.795634	3.497958	0.149963	-0.298554	0.184995	-0.770412	-0.150767	-0.559405	0.266084
59502	-9.277920	-0.762951	3.589684	0.265366	-0.335400	0.155502	-0.769755	-0.151243	-0.559658	0.267180
59503	-9.282607	-0.533459	3.712027	0.502990	-0.211249	0.183956	-0.769274	-0.151542	-0.559718	0.268269
59504	-9.317253	-0.369950	3.691193	0.580606	-0.051466	0.198967	-0.769074	-0.151357	-0.559634	0.269122
59505	-9.215637	-0.272796	3.539873	0.545145	0.098073	0.047650	-0.769195	-0.150631	-0.559480	0.269502
59506	-9.162100	-0.368210	3.393777	0.388981	0.101660	-0.043567	-0.769394	-0.149757	-0.559470	0.269443
59507	-9.170071	-0.486543	3.344019	0.281217	0.043786	-0.043942	-0.769493	-0.149292	-0.559563	0.269226
59508	-9.222072	-0.511608	3.397403	0.298672	0.007535	0.024052	-0.769411	-0.149434	-0.559707	0.269080
59509	-9.263549	-0.392176	3.602118	0.522155	-0.002165	0.120577	-0.769237	-0.149675	-0.560009	0.268816
59510	-9.376146	-0.117009	3.748685	0.777302	0.162605	0.254477	-0.769326	-0.149192	-0.560496	0.267814
59511	-9.489676	-0.009552	3.720381	0.798102	0.294393	0.344656	-0.769947	-0.147274	-0.561154	0.265704
59512	-9.491059	-0.095142	3.523665	0.597943	0.342770	0.288323	-0.771096	-0.144122	-0.561887	0.262531
59513	-9.261389	-0.628923	3.287032	0.162534	-0.010686	0.033475	-0.772289	-0.140903	-0.562649	0.259117
59514	-9.355465	-0.947027	3.329245	0.001454	-0.266756	0.158987	-0.773020	-0.139096	-0.563238	0.256624
59515	-9.451830	-0.908792	3.527416	0.159007	-0.316923	0.310550	-0.773420	-0.138810	-0.563252	0.255540
59516	-9.339956	-0.610583	3.946853	0.677380	-0.313114	0.317877	-0.773636	-0.139197	-0.562818	0.255631
59517	-9.129389	-0.241320	4.484200	1.353185	-0.328825	0.265645	-0.773505	-0.139519	-0.562526	0.256494
59518	-9.059270	0.237460	4.834152	1.914601	-0.123504	0.277646	-0.773228	-0.139789	-0.562358	0.257549
59519	-9.065956	0.619920	5.217263	2.429776	0.004414	0.380048	-0.773338	-0.139786	-0.561908	0.258201
59520	-9.066789	0.675906	5.159194	2.397208	0.091610	0.362071	-0.774264	-0.139509	-0.560693	0.258217
59521	-9.067548	0.555471	5.005665	2.164628	0.088808	0.330874	-0.776157	-0.139126	-0.558361	0.257793
59522	-8.911659	0.213430	5.062338	1.991576	-0.240537	0.240461	-0.778316	-0.139230	-0.555444	0.257530
59523	-8.856409	-0.109411	5.325617	1.959721	-0.645505	0.314131	-0.780144	-0.140609	-0.552329	0.257947
59524	-8.498713	-0.338939	6.215293	2.551064	-1.387686	0.313459	-0.780864	-0.143452	-0.549769	0.259667
59525	-9.594914	0.331687	7.377317	3.494318	-1.210553	1.716439	-0.780690	-0.147848	-0.547382	0.262751
59526	-10.396766	1.211737	8.169932	4.328871	-0.768548	2.716400	-0.781162	-0.151785	-0.544093	0.265915
59527	-10.593390	1.633086	9.150777	5.168862	-0.928430	3.265652	-0.782928	-0.153914	-0.539722	0.268394
59528	-9.814318	1.269777	9.863284	5.578536	-1.782336	2.872694	-0.785440	-0.154467	-0.535023	0.270140
59529	-9.696100	1.574761	10.847024	6.407656	-2.062132	3.181154	-0.787769	-0.155067	-0.530606	0.271719
59530	-9.975056	2.719240	11.636339	7.465844	-1.461376	3.767572	-0.790800	-0.155444	-0.525893	0.271864
59531	-10.545091	3.317904	11.812718	7.605920	-0.859782	4.440478	-0.795949	-0.154601	-0.519798	0.269025
59532	-11.372144	2.913605	11.672556	6.733813	-0.765426	5.290954	-0.803807	-0.152350	-0.511065	0.263622
59533	-12.049177	2.284294	11.491612	5.610956	-0.821886	6.007417	-0.813787	-0.149551	-0.498938	0.257770
59534	-12.710978	2.153921	11.226544	4.558496	-0.393500	6.657565	-0.825636	-0.146538	-0.482872	0.252362
59535	-12.756249	2.339443	10.859616	3.687739	0.222324	6.692461	-0.839142	-0.143069	-0.462817	0.247330
59536	-12.625651	2.484722	10.143322	2.523735	0.962094	6.346070	-0.853611	-0.138113	-0.440186	0.241889
59537	-12.424914	2.785940	9.723775	1.651653	1.716359	6.028505	-0.868538	-0.130425	-0.416183	0.235421
59538	-12.397896	2.681814	8.939550	0.238546	2.366288	5.519778	-0.883490	-0.119422	-0.392040	0.226911
59539	-12.318873	1.716351	8.315528	-1.426422	2.158554	4.921118	-0.898015	-0.106687	-0.367606	0.216917
59540	-11.896434	0.583407	7.899625	-2.726887	1.526865	4.131713	-0.911208	-0.094633	-0.343435	0.206874
59541	-11.731352	0.176283	7.825600	-3.555525	1.406175	3.760409	-0.922663	-0.084948	-0.319900	0.197839
59542	-11.588266	0.539234	8.002402	-3.893356	1.845896	3.603908	-0.932985	-0.077223	-0.296314	0.189141
59543	-11.249783	1.125899	8.073690	-4.054222	2.442796	3.247156	-0.942570	-0.069036	-0.272582	0.180261
59544	-10.949428	1.023177	7.847080	-4.633531	2.495960	2.627979	-0.951510	-0.058905	-0.248857	0.170962
59545	-10.566385	0.398419	7.477095	-5.327620	2.061707	1.808046	-0.959607	-0.047266	-0.225264	0.161794
59546	-10.143579	-0.286869	7.081518	-5.915501	1.532082	0.946029	-0.966628	-0.035817	-0.202015	0.153420
59547	-9.306418	-0.710145	6.758333	-5.926114	1.082661	0.009379	-0.972526	-0.025508	-0.179388	0.146157
59548	-8.619235	-0.652642	6.628524	-5.764680	1.087507	-0.635535	-0.977370	-0.016153	-0.157698	0.140066
59549	-7.848827	-0.596165	6.714311	-5.403483	1.045808	-1.052945	-0.981358	-0.007365	-0.136667	0.134920
59550	-7.296452	-0.201907	6.888969	-5.097490	1.390561	-1.280222	-0.984651	0.001278	-0.116042	0.130368
59551	-6.594093	0.090550	6.830470	-4.717830	1.621639	-1.735349	-0.987369	0.010851	-0.095533	0.125930
59552	-5.725065	-0.066994	6.670221	-4.274734	1.392957	-2.259739	-0.989420	0.021682	-0.075723	0.121839
59553	-5.288679	-0.640821	6.407285	-4.312595	0.868294	-2.736548	-0.990868	0.033012	-0.056406	0.117935
59554	-4.170765	-0.838441	6.085914	-3.561379	0.529087	-3.319126	-0.991726	0.043380	-0.038197	0.114621
59555	-3.429937	-0.949152	5.881251	-3.094711	0.354361	-3.685163	-0.992111	0.052816	-0.021244	0.111689
59556	-3.068940	-0.911783	5.708126	-2.932315	0.396322	-3.975506	-0.992156	0.061144	-0.004930	0.108924
59557	-2.362141	-1.220837	5.673255	-2.487637	0.028861	-4.062632	-0.991906	0.068342	0.011395	0.106401
59558	-1.654118	-1.418728	5.407444	-2.005706	-0.273315	-4.345601	-0.991469	0.073604	0.027100	0.104103
59559	-1.050139	-1.391351	5.378780	-1.561627	-0.318654	-4.387963	-0.990923	0.077348	0.041285	0.101905
59560	-0.655200	-1.388447	5.391403	-1.310875	-0.350255	-4.373776	-0.990364	0.079926	0.053457	0.099666
59561	-0.720135	-1.452942	5.634987	-1.528890	-0.329025	-4.161524	-0.989737	0.081830	0.064425	0.097844
59562	-0.630131	-1.372141	6.133623	-1.603258	-0.153086	-3.704857	-0.988874	0.083610	0.075803	0.096909
59563	-0.253226	-1.220473	6.499555	-1.399006	0.028742	-3.344496	-0.987658	0.086099	0.088287	0.096565
59564	0.596325	-1.543913	6.155859	-0.748472	-0.448414	-3.498393	-0.986200	0.088943	0.100962	0.096462
59565	1.179042	-1.813991	5.882121	-0.343961	-0.818846	-3.608701	-0.984795	0.090679	0.112655	0.096253
59566	1.620188	-1.921037	5.478272	0.007282	-1.050003	-3.877779	-0.983633	0.090911	0.122870	0.095411
59567	1.653840	-1.754014	5.230959	0.024477	-0.932471	-4.129036	-0.982730	0.090263	0.131296	0.094108
59568	1.588377	-1.561505	5.352383	-0.110840	-0.706670	-4.059683	-0.981927	0.089815	0.138477	0.092607
59569	2.063536	-1.876242	5.212981	0.236487	-1.105565	-4.009666	-0.981162	0.089891	0.144680	0.091154
59570	2.253386	-1.692487	5.010379	0.445630	-0.986165	-4.166912	-0.980501	0.089916	0.149990	0.089642
59571	2.333585	-1.821980	4.607834	0.556070	-1.188751	-4.495278	-0.979833	0.090946	0.154446	0.088327
59572	2.754026	-2.116771	4.258962	0.954314	-1.587926	-4.638539	-0.979301	0.092003	0.157611	0.087543
59573	2.634914	-2.366699	4.358216	0.741179	-1.782714	-4.539108	-0.979040	0.091886	0.159580	0.087015
59574	2.570513	-2.191845	4.576428	0.636570	-1.566432	-4.381624	-0.979032	0.089980	0.161096	0.086304
59575	2.731415	-2.175295	4.720185	0.738121	-1.567322	-4.202760	-0.979226	0.087029	0.161781	0.085842
59576	3.256685	-2.165782	5.328850	1.050459	-1.557245	-3.475141	-0.979696	0.082511	0.161225	0.085990
59577	3.015548	-1.376649	5.847061	0.836303	-0.724367	-3.183040	-0.980395	0.077049	0.159517	0.086279
59578	3.005543	-0.796798	6.445020	0.787601	-0.126862	-2.701461	-0.981185	0.072024	0.157057	0.086144
59579	3.255461	-0.712630	7.007095	0.916011	-0.059655	-2.108013	-0.982087	0.067731	0.153500	0.085762
59580	3.286261	-0.413466	7.826700	0.835585	0.286818	-1.360098	-0.983162	0.063987	0.148391	0.085314
59581	3.041185	-0.228313	8.559085	0.535038	0.548254	-0.758921	-0.984340	0.061135	0.142019	0.084663
59582	3.051110	-0.303082	9.149643	0.498443	0.497945	-0.188813	-0.985597	0.058553	0.134941	0.083437
59583	2.944122	-0.737410	9.640370	0.337647	0.087472	0.288024	-0.986959	0.055121	0.127434	0.081455
59584	2.432212	-1.184971	10.327126	-0.249870	-0.298202	0.855717	-0.988351	0.048745	0.120978	0.078420
59585	1.813853	-0.745073	11.090248	-0.833130	0.127627	1.417796	-0.989569	0.039113	0.116717	0.074843
59586	2.015978	0.173191	11.615774	-0.551660	0.822350	1.936137	-0.990437	0.028816	0.114481	0.071396
59587	2.385965	0.788928	11.785108	-0.111207	1.176625	2.179145	-0.991082	0.020568	0.112548	0.068305
59588	2.424632	0.710087	11.447001	0.022049	0.920991	1.873495	-0.991660	0.015295	0.110164	0.065125
59589	2.055718	0.346096	11.185710	-0.277379	0.508046	1.550862	-0.992228	0.012611	0.107303	0.061727
59590	1.711517	0.129064	11.153809	-0.569512	0.292056	1.454227	-0.992754	0.011580	0.104312	0.058517
59591	1.596600	-0.009822	11.044790	-0.621383	0.154987	1.328512	-0.993120	0.011805	0.102388	0.055587
59592	1.667532	-0.339064	10.800944	-0.510290	-0.170554	1.108230	-0.993322	0.012986	0.101663	0.052984
59593	1.744887	-0.739415	10.349713	-0.382067	-0.562630	0.687090	-0.993391	0.014214	0.101994	0.050693
59594	1.839687	-0.833384	10.026315	-0.239696	-0.652449	0.391370	-0.993434	0.014985	0.102383	0.048814
59595	1.927933	-0.799203	9.816315	-0.108723	-0.616107	0.203512	-0.993509	0.015713	0.102282	0.047241
59596	1.930932	-0.567901	9.875256	-0.082748	-0.363314	0.258696	-0.993637	0.016836	0.101450	0.045938
59597	1.726497	-0.407159	10.229717	-0.313759	-0.138329	0.564012	-0.993752	0.018858	0.100388	0.044981
59598	1.691582	-0.542174	10.508051	-0.398029	-0.204176	0.835038	-0.993736	0.021885	0.100249	0.044277
59599	1.523163	-0.578460	10.405231	-0.550527	-0.156633	0.703740	-0.993574	0.025814	0.101110	0.043828
59600	1.665123	-1.046251	9.903205	-0.381130	-0.576814	0.260150	-0.993283	0.030048	0.102778	0.043852
59601	2.078106	-1.364741	9.582292	0.021223	-0.869977	0.048526	-0.992943	0.033569	0.104678	0.044490
59602	2.198524	-1.547804	9.511869	0.102290	-1.017593	0.018831	-0.992699	0.035102	0.106065	0.045463
59603	2.052602	-1.027214	9.693924	-0.052073	-0.463451	0.138340	-0.992561	0.034755	0.107153	0.046190
59604	1.844254	-0.610012	9.836292	-0.266863	-0.028559	0.209984	-0.992426	0.034294	0.108352	0.046637
59605	2.004365	-0.588204	9.873506	-0.145636	-0.019937	0.278293	-0.992217	0.034480	0.109997	0.047081
59606	2.041294	-0.580543	9.773624	-0.121245	-0.011898	0.187946	-0.991976	0.035341	0.111633	0.047678
59607	2.160800	-0.396536	9.629557	0.016813	0.175606	0.062706	-0.991743	0.037139	0.112801	0.048395
59608	2.228689	-0.567645	9.444511	0.088752	0.030865	-0.092659	-0.991520	0.040170	0.113392	0.049169
59609	2.244834	-0.846345	9.140316	0.133126	-0.212664	-0.366119	-0.991304	0.043673	0.113718	0.049769
59610	2.220020	-1.077589	8.974359	0.118041	-0.391783	-0.514244	-0.991113	0.047136	0.113746	0.050350
59611	2.183997	-1.271657	8.990100	0.060600	-0.527132	-0.489214	-0.990990	0.049457	0.113596	0.050883
59612	2.065532	-1.255903	8.900302	-0.032582	-0.482644	-0.602635	-0.990926	0.050232	0.113679	0.051172
59613	2.348759	-0.985179	8.844033	0.284151	-0.243274	-0.616806	-0.990940	0.049858	0.113616	0.051410
59614	2.207790	-0.945854	8.848611	0.155133	-0.203016	-0.647449	-0.991027	0.049007	0.113114	0.051671
59615	2.296068	-0.878277	9.054804	0.217334	-0.145438	-0.433759	-0.991205	0.047516	0.112132	0.051788
59616	2.271035	-0.660724	9.287781	0.189557	0.062775	-0.230569	-0.991451	0.045616	0.110744	0.051775
59617	2.108839	-0.443060	9.538533	0.028390	0.281722	-0.037883	-0.991689	0.043836	0.109474	0.051454
59618	2.010360	-0.562386	9.632799	-0.081551	0.147360	0.042269	-0.991871	0.042142	0.108727	0.050936
59619	1.985328	-0.456783	9.768577	-0.112544	0.233900	0.162673	-0.991995	0.040487	0.108378	0.050607
59620	2.051959	-0.294587	9.774705	-0.025487	0.360494	0.172878	-0.992077	0.039276	0.108006	0.050746
59621	2.006100	-0.155435	9.880457	-0.072106	0.497900	0.258009	-0.992078	0.039166	0.107874	0.051093
59622	1.921711	-0.293865	9.732873	-0.140966	0.366117	0.104680	-0.991968	0.040373	0.108221	0.051550
59623	1.948516	-0.486547	9.527165	-0.098931	0.184555	-0.078399	-0.991828	0.042309	0.108480	0.052140
59624	2.235167	-0.663795	9.345394	0.197287	0.000759	-0.182840	-0.991725	0.044227	0.108332	0.052825
59625	2.271182	-0.539274	9.321608	0.259993	0.150204	-0.207938	-0.991690	0.045853	0.107698	0.053386
59626	2.236647	-0.589415	9.191957	0.261733	0.119164	-0.338550	-0.991689	0.047392	0.106897	0.053659
59627	2.028385	-0.865311	9.010699	0.077493	-0.130236	-0.537300	-0.991711	0.048321	0.106312	0.053600
59628	1.970473	-0.936500	8.934559	0.037230	-0.194254	-0.617742	-0.991754	0.048371	0.105963	0.053451
59629	2.115018	-0.932667	8.956212	0.180552	-0.207894	-0.567090	-0.991828	0.047715	0.105600	0.053380
59630	2.133215	-0.722311	9.134747	0.198177	0.001589	-0.406486	-0.991962	0.046794	0.104732	0.053407
59631	2.145928	-0.459497	9.469923	0.196817	0.278361	-0.097787	-0.992143	0.046187	0.103279	0.053415
59632	1.936340	-0.455837	9.585313	0.001253	0.308634	-0.028002	-0.992312	0.046433	0.101600	0.053280
59633	1.844254	-0.764789	9.592214	-0.096787	0.017164	-0.015390	-0.992432	0.046807	0.100434	0.052915
59634	1.869138	-0.920857	9.428230	-0.041077	-0.153380	-0.158261	-0.992526	0.046744	0.099774	0.052456
59635	2.077026	-0.901329	9.445496	0.173326	-0.158426	-0.102452	-0.992633	0.046150	0.099169	0.052111
59636	1.993201	-0.731184	9.560446	0.104260	0.016636	-0.019913	-0.992773	0.045453	0.098217	0.051853
59637	1.924138	-0.636463	9.576229	0.064065	0.106011	-0.025136	-0.992921	0.044915	0.097137	0.051521
59638	1.907368	-0.691548	9.616372	0.056616	0.047172	0.015101	-0.993069	0.044531	0.095931	0.051259
59639	1.845067	-0.610984	9.729270	0.009000	0.138890	0.107839	-0.993201	0.044538	0.094648	0.051094
59640	1.858178	-0.638565	9.714615	0.043501	0.113016	0.097894	-0.993279	0.045022	0.093748	0.050798
59641	1.786197	-0.975228	9.504523	-0.010037	-0.223045	-0.095299	-0.993337	0.045680	0.093027	0.050415
59642	1.876693	-1.164036	9.411617	0.091434	-0.423155	-0.155149	-0.993454	0.045488	0.092056	0.050051
59643	1.830545	-0.876281	9.647890	0.058878	-0.121303	0.045420	-0.993626	0.044690	0.090763	0.049727
59644	1.794924	-0.616985	9.828062	0.046544	0.143575	0.195828	-0.993775	0.044313	0.089481	0.049402
59645	1.684273	-0.588780	9.908565	-0.047144	0.188266	0.253363	-0.993885	0.044677	0.088280	0.049028
59646	1.837044	-0.517830	9.801122	0.151385	0.249427	0.168277	-0.993952	0.045823	0.087226	0.048500
59647	1.831508	-0.441736	9.551421	0.213946	0.337417	-0.085440	-0.993932	0.048331	0.086489	0.047788
59648	2.077564	-0.248445	9.215358	0.544229	0.541545	-0.394050	-0.993799	0.052824	0.086008	0.046642
59649	1.738945	0.096768	8.385452	0.387294	0.942807	-1.309267	-0.993385	0.061768	0.086083	0.044282
59650	-0.592126	-0.803471	6.715235	-1.731777	0.204758	-3.251740	-0.992253	0.077676	0.087974	0.040748
59651	1.543024	-3.860993	5.802507	0.214714	-2.885531	-3.287342	-0.990770	0.094226	0.089206	0.039224
59652	2.470751	-4.958297	6.107627	0.995758	-3.787495	-2.556386	-0.990195	0.103613	0.084625	0.040220
59653	2.319777	-3.847907	7.826693	0.788317	-2.279904	-1.116491	-0.990863	0.103440	0.075937	0.041528
59654	1.661370	-1.705210	10.000925	0.218576	0.245700	0.462249	-0.992012	0.098692	0.066565	0.041726
59655	0.777627	-0.616450	11.517126	-0.555456	1.561426	1.627555	-0.992933	0.093989	0.059565	0.041264
59656	0.510272	-0.437196	12.127506	-0.747429	1.775291	2.179667	-0.993426	0.090965	0.056040	0.041114
59657	1.006676	-0.640511	12.284434	-0.238030	1.509958	2.434523	-0.993614	0.089377	0.055148	0.041246
59658	1.381182	-0.909912	11.949501	0.151854	1.127975	2.196924	-0.993715	0.088505	0.055006	0.040897
59659	1.453084	-1.546740	11.477767	0.212209	0.388145	1.851241	-0.993884	0.087083	0.054937	0.039918
59660	1.325115	-1.948436	11.224376	0.079394	-0.092058	1.655693	-0.994217	0.083998	0.054524	0.038772
59661	1.156977	-1.669428	11.305326	-0.061792	0.120872	1.672810	-0.994654	0.079469	0.054050	0.037775
59662	1.015404	-0.906413	11.417796	-0.142796	0.805976	1.656755	-0.994991	0.075781	0.053757	0.036895
59663	1.037996	-0.800976	11.064557	-0.079921	0.801661	1.300112	-0.995093	0.074712	0.054016	0.035928
59664	0.878470	-1.633112	10.561507	-0.269682	-0.090603	0.906604	-0.995037	0.075096	0.055029	0.035135
59665	0.791954	-2.082357	10.104103	-0.373143	-0.595521	0.510215	-0.994986	0.074701	0.056738	0.034678
59666	0.952017	-1.792107	9.856263	-0.205283	-0.371670	0.241337	-0.994970	0.073378	0.058841	0.034471
59667	1.114266	-1.430459	9.687474	-0.039730	-0.070332	0.042681	-0.994920	0.072429	0.060804	0.034514
59668	1.180458	-1.404210	9.507130	0.011253	-0.086175	-0.130582	-0.994839	0.072056	0.062509	0.034574
59669	1.146159	-1.497891	9.317233	-0.039329	-0.208488	-0.308840	-0.994762	0.071838	0.063983	0.034561
59670	1.033233	-1.442363	9.446682	-0.188630	-0.131020	-0.203578	-0.994678	0.071666	0.065291	0.034888
59671	1.006342	-1.274043	9.578536	-0.248349	0.056644	-0.100877	-0.994522	0.071843	0.067098	0.035530
59672	1.197557	-1.359744	9.429643	-0.087748	-0.054647	-0.211106	-0.994317	0.072257	0.069343	0.036120
59673	1.299923	-1.392035	9.257755	-0.009558	-0.109644	-0.361691	-0.994126	0.072597	0.071442	0.036590
59674	1.432085	-1.370023	9.070214	0.112437	-0.116943	-0.529896	-0.993979	0.072883	0.072995	0.036962
59675	1.590795	-1.378757	9.089062	0.243842	-0.126949	-0.487075	-0.993886	0.073201	0.073784	0.037256
59676	1.463460	-1.387058	9.142159	0.101184	-0.112974	-0.452040	-0.993843	0.073540	0.073954	0.037403
59677	1.373404	-1.397247	9.246171	-0.003576	-0.095390	-0.361703	-0.993818	0.073896	0.073896	0.037470
59678	1.329567	-1.499234	9.415205	-0.079797	-0.163304	-0.188318	-0.993786	0.074045	0.074117	0.037598
59679	1.330400	-1.405478	9.538479	-0.094528	-0.050984	-0.080454	-0.993745	0.074037	0.074596	0.037739
59680	1.246412	-1.509710	9.464831	-0.190849	-0.158940	-0.150696	-0.993668	0.074035	0.075599	0.037776
59681	1.281363	-1.646185	9.292079	-0.166774	-0.319841	-0.296155	-0.993549	0.074145	0.076915	0.038044
59682	1.492978	-1.601128	9.299337	0.020460	-0.285872	-0.263443	-0.993429	0.074226	0.078075	0.038645
59683	1.660688	-1.540864	9.245433	0.181346	-0.243781	-0.298600	-0.993351	0.074367	0.078625	0.039271
59684	1.639502	-1.410948	9.328381	0.153794	-0.096818	-0.238534	-0.993289	0.074833	0.078646	0.039907
59685	1.527217	-1.415304	9.376159	0.034709	-0.074795	-0.208468	-0.993198	0.075661	0.078682	0.040530
59686	1.481404	-1.679562	9.286361	-0.026534	-0.331751	-0.265897	-0.993094	0.076368	0.079078	0.040984
59687	1.528346	-1.805918	9.232344	0.003758	-0.463761	-0.293326	-0.993031	0.076113	0.079842	0.041484
59688	1.635996	-1.533403	9.303142	0.108555	-0.204609	-0.245946	-0.993023	0.075054	0.080659	0.042029
59689	1.686997	-1.233453	9.401372	0.160159	0.086493	-0.183564	-0.993018	0.074490	0.081030	0.042440
59690	1.776089	-1.372910	9.449546	0.226405	-0.056568	-0.102959	-0.993032	0.074470	0.080683	0.042801
59691	1.630038	-1.489314	9.554809	0.067641	-0.144801	-0.007389	-0.993080	0.074596	0.079772	0.043166
59692	1.406165	-1.453334	9.790974	-0.167438	-0.055646	0.183387	-0.993115	0.074724	0.078998	0.043559
59693	1.219943	-1.508356	9.972082	-0.375896	-0.066890	0.339162	-0.993080	0.074812	0.079075	0.044065
59694	1.466739	-1.358564	9.923013	-0.122118	0.053651	0.308843	-0.992988	0.074670	0.080003	0.044698
59695	1.669118	-1.212971	9.756497	0.094155	0.155000	0.157947	-0.992862	0.074702	0.081141	0.045386
59696	1.751040	-1.162906	9.541683	0.191581	0.170558	-0.045580	-0.992727	0.075237	0.081956	0.045997
59697	1.602426	-1.364896	9.409332	0.031058	-0.024867	-0.170870	-0.992601	0.075970	0.082463	0.046603
59698	1.575732	-1.335713	9.407606	-0.002986	0.016642	-0.180979	-0.992491	0.076404	0.083062	0.047177
59699	1.626466	-1.356517	9.339445	0.041007	-0.012299	-0.236211	-0.992380	0.076643	0.083854	0.047701
59700	1.708492	-1.397228	9.298951	0.109418	-0.064149	-0.256246	-0.992316	0.076553	0.084450	0.048128
59701	1.733328	-1.249570	9.354190	0.131867	0.082570	-0.218809	-0.992305	0.076128	0.084755	0.048489
59702	1.693945	-1.092041	9.450044	0.089581	0.249533	-0.153751	-0.992289	0.075918	0.085006	0.048712
59703	1.735587	-1.167235	9.383241	0.128101	0.160913	-0.201360	-0.992258	0.076057	0.085199	0.048781
59704	1.739876	-1.315431	9.317803	0.125612	0.008365	-0.243825	-0.992246	0.076327	0.085080	0.048823
59705	1.699610	-1.376080	9.380572	0.072603	-0.036164	-0.180927	-0.992264	0.076282	0.084907	0.048831
59706	1.618149	-1.346594	9.445206	-0.013751	0.006411	-0.135735	-0.992286	0.075958	0.085038	0.048660
59707	1.653816	-1.327002	9.410900	0.024560	0.009946	-0.165907	-0.992312	0.075455	0.085336	0.048395
59708	1.684106	-1.320169	9.375710	0.058504	-0.000504	-0.196057	-0.992365	0.074955	0.085235	0.048248
59709	1.757907	-1.333583	9.453752	0.121298	-0.019738	-0.105628	-0.992454	0.074232	0.084909	0.048116
59710	1.695240	-1.192474	9.517440	0.072695	0.118457	-0.073173	-0.992572	0.073351	0.084411	0.047913
59711	1.564603	-1.113888	9.586340	-0.048085	0.202464	-0.038060	-0.992679	0.072733	0.083883	0.047555
59712	1.572482	-1.192540	9.656484	-0.050273	0.126771	0.042460	-0.992738	0.072542	0.083484	0.047312
59713	1.540657	-1.303980	9.646848	-0.084802	0.014982	0.042679	-0.992778	0.072420	0.083180	0.047195
59714	1.578344	-1.229145	9.632465	-0.036214	0.076703	0.024951	-0.992815	0.071841	0.083321	0.047059
59715	1.710318	-1.136500	9.604297	0.102641	0.140924	0.007136	-0.992849	0.071135	0.083641	0.046841
59716	1.710088	-1.069784	9.525494	0.116058	0.182790	-0.078368	-0.992890	0.070492	0.083834	0.046612
59717	1.680684	-1.073915	9.593991	0.076172	0.180211	-0.015526	-0.992952	0.069990	0.083628	0.046413
59718	1.639138	-1.103689	9.627879	0.029922	0.148860	0.014717	-0.993017	0.069416	0.083534	0.046044
59719	1.629635	-1.132805	9.592257	0.019576	0.106164	-0.017858	-0.993035	0.068913	0.083985	0.045585
59720	1.808130	-1.165925	9.452223	0.204924	0.032885	-0.120930	-0.993041	0.068611	0.084402	0.045158
59721	1.788937	-1.272282	9.395746	0.179903	-0.081996	-0.165928	-0.993067	0.068436	0.084459	0.044727
59722	1.737069	-1.288797	9.425756	0.126006	-0.095634	-0.143239	-0.993152	0.067957	0.084101	0.044256
59723	1.641634	-1.251709	9.505865	0.032503	-0.050781	-0.085429	-0.993262	0.067332	0.083568	0.043751
59724	1.517894	-1.185212	9.637727	-0.092971	0.034854	0.015061	-0.993330	0.067147	0.083127	0.043315
59725	1.420299	-1.310338	9.540983	-0.179559	-0.091586	-0.080064	-0.993327	0.067621	0.082939	0.043021
59726	1.450747	-1.502504	9.457683	-0.152551	-0.284122	-0.132504	-0.993292	0.068264	0.082909	0.042853
59727	1.537987	-1.571970	9.395421	-0.062229	-0.358285	-0.170168	-0.993275	0.068615	0.082808	0.042893
59728	1.546505	-1.532067	9.398934	-0.048745	-0.316270	-0.170256	-0.993275	0.068582	0.082703	0.043137
59729	1.630546	-1.287472	9.510873	0.042404	-0.068105	-0.077878	-0.993282	0.068407	0.082559	0.043531
59730	1.624583	-1.196582	9.541345	0.042656	0.024131	-0.060460	-0.993273	0.068433	0.082448	0.043908
59731	1.654695	-1.198518	9.505252	0.076564	0.013658	-0.090639	-0.993260	0.068324	0.082619	0.044049
59732	1.672951	-1.171835	9.354083	0.117052	0.016200	-0.238928	-0.993252	0.068295	0.082732	0.044069
59733	1.702829	-1.352185	9.272493	0.144017	-0.176337	-0.291378	-0.993289	0.068259	0.082298	0.044104
59734	1.635591	-1.336084	9.427083	0.069851	-0.137290	-0.153163	-0.993388	0.068000	0.081298	0.044112
59735	1.575456	-1.455995	9.619780	-0.009985	-0.234459	0.040588	-0.993517	0.067331	0.080234	0.044184
59736	1.487600	-1.314469	9.928734	-0.108872	-0.064559	0.311761	-0.993654	0.066217	0.079304	0.044471
59737	1.420195	-1.082146	10.085501	-0.162164	0.167465	0.426987	-0.993754	0.065084	0.078842	0.044733
59738	1.448901	-0.939599	10.130877	-0.124752	0.294190	0.459347	-0.993763	0.064519	0.079054	0.044972
59739	1.559567	-0.886329	9.981101	0.003189	0.315448	0.323420	-0.993691	0.064813	0.079586	0.045216
59740	1.793270	-1.142953	9.815626	0.225119	0.031127	0.228080	-0.993624	0.065513	0.079718	0.045425
59741	1.704565	-1.278395	9.749631	0.136105	-0.094479	0.165674	-0.993626	0.065838	0.079375	0.045533
59742	1.630697	-1.306749	9.740258	0.068187	-0.119139	0.148263	-0.993675	0.065421	0.079071	0.045586
59743	1.642257	-1.139453	9.843068	0.085669	0.044628	0.230817	-0.993749	0.064445	0.078899	0.045655
59744	1.617848	-0.883318	9.930731	0.077019	0.293228	0.283111	-0.993814	0.063647	0.078770	0.045588
59745	1.564222	-0.849934	9.958304	0.024278	0.325306	0.298227	-0.993826	0.063549	0.078804	0.045403
59746	1.602285	-1.020359	9.878679	0.055559	0.146737	0.245748	-0.993806	0.063938	0.078861	0.045203
59747	1.532347	-1.310119	9.835497	-0.036371	-0.131346	0.226382	-0.993784	0.064336	0.078907	0.045023
59748	1.386536	-1.279444	9.824043	-0.177532	-0.087098	0.188922	-0.993777	0.064275	0.079127	0.044883
59749	1.373428	-1.028632	9.750813	-0.162516	0.153695	0.085428	-0.993725	0.064439	0.079676	0.044823
59750	1.400085	-1.165065	9.423171	-0.115459	-0.015157	-0.215805	-0.993594	0.065362	0.080544	0.044860
59751	1.591570	-1.377824	9.125106	0.081214	-0.261352	-0.451912	-0.993458	0.066387	0.081259	0.045065
59752	1.681416	-1.475527	9.025959	0.165012	-0.364344	-0.522246	-0.993386	0.066871	0.081570	0.045376
59753	1.595389	-1.352756	9.006347	0.092785	-0.234250	-0.570067	-0.993372	0.066930	0.081526	0.045669
59754	1.587247	-1.167592	9.145878	0.085568	-0.031972	-0.457402	-0.993380	0.066922	0.081214	0.046059
59755	1.520002	-1.056448	9.216864	0.025584	0.094549	-0.412290	-0.993370	0.067194	0.080917	0.046404
59756	1.505408	-1.097425	9.101407	0.026913	0.047945	-0.522738	-0.993315	0.067892	0.080915	0.046568
59757	1.455960	-1.331035	9.000836	-0.030981	-0.179579	-0.600017	-0.993253	0.068617	0.080945	0.046770
59758	1.674461	-1.330626	9.020998	0.183602	-0.185023	-0.545280	-0.993236	0.068982	0.080628	0.047140
59759	1.789065	-1.144302	9.244048	0.295300	0.026368	-0.332462	-0.993278	0.069369	0.079629	0.047383
59760	1.647300	-1.048419	9.500623	0.154270	0.178762	-0.116360	-0.993345	0.070162	0.078003	0.047529
59761	1.532156	-1.242414	9.643077	0.035365	0.032390	0.029954	-0.993418	0.071101	0.076113	0.047675
59762	1.338603	-1.416855	9.832235	-0.167369	-0.087624	0.209110	-0.993510	0.071174	0.074778	0.047747
59763	1.409934	-1.216124	9.983116	-0.079382	0.115634	0.341610	-0.993614	0.070170	0.074384	0.047693
59764	1.535535	-0.882413	10.024551	0.076892	0.419974	0.358144	-0.993684	0.069223	0.074393	0.047609
59765	1.650794	-0.864330	9.978204	0.201030	0.411883	0.327662	-0.993714	0.069221	0.074108	0.047433
59766	1.500009	-1.087578	9.872959	0.052363	0.197374	0.230541	-0.993712	0.070002	0.073539	0.047204
59767	1.375245	-1.460872	9.807718	-0.089998	-0.157076	0.196508	-0.993716	0.070485	0.073123	0.047037
59768	1.395810	-1.378753	9.835717	-0.058514	-0.074607	0.216349	-0.993776	0.069939	0.072920	0.046917
59769	1.475114	-0.990360	9.953249	0.048352	0.306778	0.293126	-0.993849	0.069317	0.072689	0.046644
59770	1.508552	-1.076835	9.842392	0.091667	0.200987	0.200263	-0.993857	0.069705	0.072478	0.046211
59771	1.401865	-1.540556	9.480991	-0.009913	-0.289897	-0.109926	-0.993849	0.070166	0.072433	0.045766
59772	1.281775	-1.657433	9.542532	-0.147111	-0.384718	-0.051525	-0.993882	0.069856	0.072452	0.045499
59773	1.372941	-1.306451	9.661520	-0.036973	-0.035040	0.032827	-0.993917	0.069529	0.072392	0.045333
59774	1.352279	-1.316354	9.622312	-0.050707	-0.046045	-0.007299	-0.993896	0.070113	0.072232	0.045145
59775	1.253248	-1.599120	9.484625	-0.155107	-0.320512	-0.119437	-0.993833	0.071176	0.072121	0.045044
59776	1.241946	-1.622183	9.382577	-0.152265	-0.336871	-0.217378	-0.993760	0.072221	0.071987	0.045209
59777	1.200972	-1.602540	9.221387	-0.167241	-0.317153	-0.383167	-0.993670	0.073380	0.071879	0.045486
59778	1.088162	-1.624675	9.060157	-0.262113	-0.333821	-0.553641	-0.993551	0.074375	0.072226	0.045909
59779	1.315936	-1.647639	8.668663	0.000760	-0.417158	-0.901006	-0.993402	0.075242	0.072951	0.046578
59780	1.395726	-1.661355	8.407839	0.101362	-0.464658	-1.142409	-0.993289	0.075842	0.073308	0.047443
59781	1.390479	-1.613277	8.215009	0.124163	-0.441560	-1.338487	-0.993257	0.075961	0.073017	0.048353
59782	1.254303	-1.425005	8.136526	0.026456	-0.257614	-1.461646	-0.993262	0.075919	0.072344	0.049319
59783	1.297272	-1.404653	7.971443	0.104886	-0.267185	-1.620163	-0.993271	0.076165	0.071279	0.050301
59784	1.055980	-1.398577	7.725629	-0.081094	-0.270995	-1.895846	-0.993270	0.077016	0.069664	0.051277
59785	0.839857	-1.660828	7.435687	-0.260132	-0.537990	-2.170964	-0.993238	0.078563	0.067499	0.052432
59786	0.601697	-1.901204	7.325220	-0.475754	-0.746847	-2.272715	-0.993189	0.080248	0.064831	0.054156
59787	0.884862	-1.540161	7.296147	-0.109174	-0.401215	-2.314973	-0.993119	0.082156	0.061461	0.056454
59788	0.770038	-1.120975	7.222567	-0.109311	0.043740	-2.464172	-0.992949	0.085525	0.057221	0.058846
59789	0.394678	-1.072927	7.069219	-0.393394	0.163078	-2.664357	-0.992608	0.090801	0.052504	0.061055
59790	0.133377	-1.324897	6.778923	-0.588883	-0.021963	-2.929486	-0.992043	0.098032	0.047478	0.063139
59791	0.557714	-2.475515	6.338822	-0.223456	-1.181008	-3.091526	-0.991329	0.105612	0.042235	0.065791
59792	0.740625	-3.271447	6.451962	-0.094245	-1.880504	-2.788945	-0.990941	0.109265	0.036002	0.069288
59793	0.563592	-2.998760	6.921570	-0.178958	-1.483884	-2.397581	-0.991038	0.107787	0.029146	0.073319
59794	0.486094	-1.398856	7.570427	0.059710	0.162022	-2.100803	-0.991382	0.103885	0.021226	0.076933
59795	-0.436634	-0.608727	7.641733	-0.607529	1.031433	-2.228304	-0.991481	0.102785	0.012646	0.078995
59796	-1.234084	-1.639148	7.226891	-1.434006	0.077448	-2.438808	-0.991232	0.104921	0.004659	0.080179
59797	-0.956085	-2.778274	7.031834	-1.229583	-1.076296	-2.369024	-0.990837	0.107362	-0.003321	0.081886
59798	-0.667614	-2.920707	7.313311	-0.840047	-1.181773	-2.043701	-0.990419	0.108146	-0.012401	0.084978
59799	-1.596942	-1.631923	7.577831	-1.393825	0.282141	-2.027265	-0.989946	0.108602	-0.021824	0.087954
59800	-2.633168	-1.276087	7.061889	-2.251340	0.734012	-2.544729	-0.989202	0.112138	-0.030435	0.089325
59801	-3.010169	-2.567293	5.988334	-2.820590	-0.594213	-3.239878	-0.988149	0.118722	-0.037521	0.089773
59802	-2.353969	-3.962115	5.363646	-2.382250	-2.114385	-3.499119	-0.987038	0.123668	-0.045438	0.091640
59803	-1.927321	-3.562609	5.688902	-1.752343	-1.696853	-3.269066	-0.985951	0.124360	-0.056743	0.095992
59804	-3.067731	-0.995825	6.305260	-2.165363	1.135906	-3.166162	-0.984612	0.124064	-0.071230	0.100363
59805	-4.123216	-0.182860	6.235994	-2.848157	2.164177	-3.245972	-0.982549	0.129507	-0.085979	0.102142
59806	-3.695484	-2.095889	5.553506	-2.708686	0.185607	-3.369512	-0.979949	0.137403	-0.101140	0.102910
59807	-3.557290	-3.925983	5.329166	-2.735148	-1.539216	-2.985390	-0.977134	0.142447	-0.118067	0.104778
59808	-4.385356	-4.182614	5.691862	-3.230258	-1.457226	-2.292143	-0.974573	0.140222	-0.137062	0.108444
59809	-5.502001	-2.074573	6.794083	-3.283110	1.019794	-1.511760	-0.972009	0.133086	-0.157454	0.112670
59810	-6.804538	-0.079072	7.396851	-3.564687	3.291240	-1.011181	-0.968880	0.127818	-0.178058	0.115023
59811	-7.673863	-0.064386	7.153146	-4.071251	3.447148	-0.780046	-0.965226	0.128128	-0.197036	0.114452
59812	-7.354347	-1.610375	6.509151	-3.966055	1.783096	-0.861263	-0.961104	0.130958	-0.215385	0.112862
59813	-6.760109	-2.646613	6.130582	-3.429537	0.583641	-0.971146	-0.956415	0.132957	-0.235021	0.111167
59814	-7.140031	-2.296675	6.691834	-3.025169	1.117139	-0.293399	-0.950638	0.132297	-0.258018	0.110508
59815	-8.625117	-1.253299	7.294959	-3.308216	2.586342	0.747567	-0.944067	0.130653	-0.282310	0.109398
59816	-10.353888	-1.261773	6.926081	-4.387571	2.935505	1.539387	-0.937615	0.129913	-0.304624	0.105853
59817	-9.305745	-3.175006	6.331011	-3.643617	0.646743	1.279752	-0.931273	0.127699	-0.325655	0.101843
59818	-8.732994	-4.561708	6.484534	-2.763794	-0.928341	1.615313	-0.924273	0.120837	-0.347824	0.100678
59819	-9.498360	-4.031028	7.563899	-1.991501	-0.274026	2.820703	-0.915832	0.106966	-0.372656	0.104583
59820	-11.931179	-1.186487	8.866246	-1.755223	2.923117	4.702248	-0.906840	0.090141	-0.396793	0.109868
59821	-12.839409	-0.351257	8.979046	-1.447260	3.595970	5.370224	-0.898913	0.075653	-0.416640	0.112445
59822	-11.341865	-1.640764	8.620569	-0.391120	1.583034	4.433528	-0.891695	0.063123	-0.433535	0.113768
59823	-10.863904	-2.754577	8.701052	0.284977	0.043247	4.372075	-0.883531	0.049860	-0.450832	0.116781
59824	-10.508956	-1.876824	9.611999	1.898997	0.408519	4.418865	-0.873291	0.034804	-0.470177	0.122821
59825	-11.349007	0.175132	9.986059	2.748001	2.173304	4.892115	-0.862772	0.021301	-0.488737	0.127701
59826	-12.550674	1.310034	9.699617	2.732601	3.237847	5.527992	-0.854105	0.013606	-0.504058	0.127456
59827	-11.720087	-0.284377	9.203861	2.829386	1.336911	4.759287	-0.846812	0.011174	-0.517149	0.123859
59828	-10.398442	-2.239534	9.061983	3.297326	-0.984923	3.729944	-0.838764	0.008346	-0.530834	0.120919
59829	-10.251451	-2.647950	8.872402	3.523860	-1.575778	3.450143	-0.829625	0.002080	-0.545248	0.120096
59830	-10.731951	-1.773554	8.787563	3.842360	-0.860398	3.604418	-0.820965	-0.005884	-0.558168	0.120131
59831	-11.036983	-1.920738	8.808060	4.072749	-1.190178	3.791321	-0.813703	-0.012514	-0.568673	0.119755
59832	-10.275421	-3.011500	9.708248	5.205194	-2.732369	3.390848	-0.806586	-0.018032	-0.578230	0.121425
59833	-10.220475	-2.082836	10.651775	6.562190	-2.181793	3.394297	-0.799420	-0.023222	-0.587046	0.125563
59834	-9.906461	-0.950326	10.572865	7.058057	-1.263199	2.813063	-0.794015	-0.026079	-0.593605	0.128428
59835	-9.609261	-1.011079	9.814041	6.560548	-1.281780	2.228512	-0.791278	-0.025989	-0.597354	0.127951
59836	-9.807272	-2.132547	8.256525	4.851567	-2.015917	2.074230	-0.791329	-0.024122	-0.597916	0.125356
59837	-9.623217	-4.116435	6.951078	3.203884	-3.688474	1.763101	-0.792930	-0.023004	-0.596058	0.124285
59838	-9.332018	-4.528253	7.051040	3.213898	-4.151546	1.577820	-0.793318	-0.025815	-0.594409	0.129063
59839	-9.162579	-2.827826	7.381041	3.891472	-2.643754	1.336100	-0.792275	-0.031567	-0.593367	0.138634
59840	-8.990489	-0.630457	7.482787	4.546892	-0.654901	0.962972	-0.791291	-0.037092	-0.592095	0.148007
59841	-8.984337	0.031766	7.060604	4.303740	0.031609	0.772588	-0.791769	-0.039585	-0.589959	0.153239
59842	-9.456373	-0.658848	6.144344	3.071350	-0.294877	1.054192	-0.794130	-0.039054	-0.586435	0.154682
59843	-9.531676	-1.936987	5.123854	1.629417	-1.186806	0.994412	-0.797946	-0.036870	-0.581290	0.154999
59844	-9.259234	-2.493500	4.928561	1.236842	-1.649587	0.769795	-0.801197	-0.035170	-0.576180	0.157678
59845	-9.203725	-1.526386	4.876043	1.375458	-0.650803	0.603509	-0.803636	-0.034436	-0.571303	0.163087
59846	-9.027021	-0.113819	4.504494	1.412436	0.821954	0.143135	-0.806390	-0.033114	-0.565993	0.168198
59847	-8.863472	0.455656	4.006320	1.076062	1.535937	-0.257565	-0.810144	-0.030048	-0.560053	0.170602
59848	-8.547583	0.038024	3.323095	0.299386	1.327160	-0.743379	-0.814815	-0.025272	-0.553634	0.170081
59849	-8.210963	-0.639759	2.728999	-0.467033	0.824361	-1.188471	-0.819701	-0.020280	-0.547201	0.168079
59850	-7.963560	-1.185184	2.388092	-0.972652	0.380375	-1.479982	-0.823979	-0.016407	-0.541439	0.166233
59851	-7.855851	-1.386509	2.438389	-1.047409	0.188673	-1.539284	-0.827039	-0.014838	-0.536930	0.165806
59852	-8.009431	-1.128466	2.601933	-0.957482	0.453089	-1.382263	-0.828938	-0.015994	-0.533687	0.166683
59853	-8.250440	-0.731939	2.786949	-0.821206	0.841525	-1.153021	-0.830073	-0.018956	-0.531464	0.167827
59854	-8.479164	-0.596216	2.994844	-0.725074	0.951394	-0.880183	-0.830849	-0.022908	-0.529864	0.168552
59855	-8.906303	-0.573010	3.243307	-0.698007	0.976120	-0.393070	-0.831559	-0.027076	-0.528565	0.168510
59856	-9.178013	-0.693459	3.436083	-0.706636	0.827297	-0.048503	-0.832264	-0.030871	-0.527406	0.168008
59857	-9.307779	-0.884095	3.609519	-0.701132	0.581661	0.168031	-0.832930	-0.034205	-0.526305	0.167513
59858	-9.115845	-1.026644	3.737208	-0.595387	0.319254	0.069755	-0.833438	-0.037404	-0.525319	0.167397
59859	-8.928035	-1.084057	3.778839	-0.536384	0.162826	-0.073584	-0.833856	-0.040803	-0.524319	0.167659
59860	-8.876029	-0.995029	3.843272	-0.462964	0.171011	-0.101825	-0.834266	-0.044329	-0.523261	0.168025
59861	-8.902174	-0.855808	3.901248	-0.407929	0.246374	-0.067252	-0.834655	-0.047571	-0.522291	0.168225
59862	-8.866341	-0.877174	3.929756	-0.402823	0.168261	-0.084704	-0.834978	-0.050157	-0.521563	0.168132
59863	-8.849727	-0.893452	3.965958	-0.388459	0.102725	-0.082159	-0.835078	-0.052201	-0.521298	0.167832
59864	-8.859555	-0.978850	3.993041	-0.405422	-0.014386	-0.054123	-0.834976	-0.053792	-0.521409	0.167493
59865	-8.874233	-0.938097	4.071688	-0.328437	-0.022278	-0.009512	-0.834639	-0.055197	-0.521877	0.167256
59866	-8.943107	-0.833416	4.170518	-0.227190	0.039250	0.087503	-0.834227	-0.056312	-0.522483	0.167052
59867	-9.054382	-0.722575	4.235904	-0.167106	0.128789	0.207407	-0.833895	-0.057089	-0.523033	0.166723
59868	-9.132499	-0.759600	4.264434	-0.178958	0.086981	0.293020	-0.833768	-0.057570	-0.523319	0.166295
59869	-9.102370	-0.907514	4.205079	-0.266978	-0.054683	0.251364	-0.833757	-0.058118	-0.523356	0.166043
59870	-9.005467	-0.989352	4.183876	-0.278212	-0.158779	0.161251	-0.833732	-0.059050	-0.523239	0.166210
59871	-8.915671	-0.952551	4.133717	-0.279338	-0.143493	0.055723	-0.833661	-0.060394	-0.523014	0.166786
59872	-8.745749	-0.876995	4.148307	-0.180996	-0.128199	-0.095873	-0.833523	-0.061881	-0.522824	0.167529
59873	-8.681368	-0.810102	4.180736	-0.108206	-0.104603	-0.144270	-0.833234	-0.063353	-0.522877	0.168247
59874	-8.680959	-0.790879	4.292056	-0.004204	-0.136047	-0.097353	-0.832816	-0.064753	-0.523184	0.168829
59875	-8.734699	-0.792540	4.337016	0.018817	-0.157950	-0.029668	-0.832357	-0.066075	-0.523609	0.169261
59876	-8.849420	-0.799487	4.405670	0.037602	-0.178241	0.103367	-0.831937	-0.067219	-0.524001	0.169661
59877	-8.870504	-0.747486	4.364757	0.019498	-0.126631	0.100902	-0.831624	-0.067977	-0.524279	0.170035
59878	-8.834285	-0.709765	4.375132	0.061736	-0.108920	0.070351	-0.831367	-0.068298	-0.524551	0.170325
59879	-8.791033	-0.644652	4.443379	0.167943	-0.080048	0.056802	-0.831067	-0.068353	-0.524976	0.170460
59880	-8.809990	-0.619551	4.402575	0.145553	-0.042444	0.054401	-0.830788	-0.068272	-0.525480	0.170300
59881	-8.946440	-0.631866	4.396986	0.094056	-0.025975	0.175406	-0.830620	-0.068078	-0.525887	0.169939
59882	-8.922018	-0.723029	4.337116	0.027443	-0.097585	0.133441	-0.830552	-0.067606	-0.526157	0.169623
59883	-8.730618	-0.686308	4.275106	0.068162	-0.080247	-0.067938	-0.830454	-0.066968	-0.526497	0.169299
59884	-8.664147	-0.554912	4.343686	0.209961	0.014206	-0.107087	-0.830259	-0.066056	-0.527133	0.168634
59885	-8.793651	-0.621684	4.292491	0.109386	-0.000375	-0.008184	-0.830057	-0.064869	-0.527940	0.167563
59886	-8.883327	-0.830886	4.261668	-0.007743	-0.163156	0.073615	-0.829929	-0.063764	-0.528609	0.166510
59887	-8.867877	-0.956171	4.153080	-0.126267	-0.249576	0.022115	-0.829826	-0.063217	-0.529024	0.165910
59888	-8.662250	-0.040930	4.385337	0.477514	0.499623	-0.128175	-0.829645	-0.062525	-0.529654	0.165063
59889	-8.137167	1.255250	4.729662	1.438168	1.521288	-0.551151	-0.829194	-0.058818	-0.532044	0.160958
59890	-8.030973	1.255394	4.572736	1.387216	1.582041	-0.726727	-0.828320	-0.050430	-0.537018	0.151506
59891	-8.678529	0.127877	4.208081	0.563173	0.779679	-0.215033	-0.827130	-0.038896	-0.543407	0.138030
59892	-9.181293	-1.216044	3.769394	-0.250658	-0.286793	0.179124	-0.825852	-0.026601	-0.549500	0.123734
59893	-9.466494	-2.067457	3.396369	-0.743640	-0.977441	0.381135	-0.824688	-0.015602	-0.554318	0.111257
59894	-9.359764	-1.947284	3.286585	-0.653798	-0.852305	0.239370	-0.823684	-0.006896	-0.557872	0.101367
59895	-8.752536	-0.613472	3.412902	0.001317	0.353559	-0.404941	-0.822491	0.000817	-0.561268	0.092125
59896	-8.397278	0.312757	3.484614	0.406027	1.223605	-0.807577	-0.820253	0.010427	-0.566238	0.080320
59897	-8.514916	0.672652	3.463288	0.478642	1.630722	-0.753919	-0.816487	0.023337	-0.573258	0.064644
59898	-8.867575	-0.265901	3.048688	0.033865	0.803271	-0.466564	-0.811145	0.039408	-0.581708	0.045891
59899	-9.313634	-0.995980	2.866836	-0.094994	0.171101	-0.019251	-0.804603	0.056855	-0.590513	0.025988
59900	-9.533143	-0.622154	2.662737	-0.136696	0.598133	0.085675	-0.797407	0.075144	-0.598723	0.005168
59901	-9.149420	0.516505	2.532353	-0.062945	1.721777	-0.462773	-0.788693	0.096182	-0.606931	-0.018635
59902	-8.898410	1.136966	2.131313	-0.338050	2.294019	-0.888635	-0.776993	0.122281	-0.615697	-0.047401
59903	-9.355581	0.161071	1.076464	-1.045379	1.164317	-0.525169	-0.761603	0.153348	-0.624478	-0.080453
59904	-9.870456	-0.296590	0.411102	-1.331873	0.565289	-0.036198	-0.742934	0.187512	-0.631990	-0.116092
59905	-9.700471	0.335397	-0.310282	-1.882303	0.808873	-0.320489	-0.720789	0.224057	-0.637794	-0.153238
59906	-9.489943	0.790265	-1.233899	-2.539879	0.641155	-0.575149	-0.693062	0.265711	-0.641553	-0.193578
59907	-9.899440	0.483539	-2.129895	-2.669621	-0.219916	-0.036713	-0.659176	0.311802	-0.641782	-0.237451
59908	-10.639749	-1.812054	-3.339568	-1.236898	-2.612442	1.106148	-0.622542	0.356481	-0.637796	-0.280319
59909	-10.851833	-1.526910	-3.254939	-0.610480	-2.204756	1.385720	-0.585606	0.397943	-0.629819	-0.319430
59910	-10.502029	-1.775182	-3.224464	0.318218	-2.106859	1.107922	-0.549231	0.436834	-0.617908	-0.354558
59911	-10.746070	-2.379306	-3.140327	1.499922	-1.884227	1.375072	-0.515848	0.470321	-0.603728	-0.384983
59912	-10.142481	-2.214767	-3.160483	1.775323	-1.618950	0.768900	-0.486618	0.498692	-0.588218	-0.410497
59913	-9.725058	-2.270995	-2.964525	2.168263	-1.205058	0.304426	-0.461704	0.522507	-0.573302	-0.430280
59914	-9.804488	-2.040905	-2.553449	2.169843	-0.485318	0.280006	-0.440782	0.542158	-0.559671	-0.445583
59915	-9.828911	-1.199131	-2.155670	1.437162	0.136983	0.217535	-0.423249	0.558336	-0.547271	-0.457838
59916	-9.836315	-0.231515	-1.797602	0.503801	0.575526	0.159892	-0.407925	0.572167	-0.535269	-0.468730
59917	-9.846395	-0.331796	-1.981454	0.644875	0.487013	0.204012	-0.394698	0.584412	-0.523505	-0.478141
59918	-9.739992	-0.297126	-2.032960	0.623141	0.462796	0.111326	-0.384497	0.594453	-0.512754	-0.485665
59919	-9.570704	-0.031073	-2.133164	0.372378	0.309213	-0.019046	-0.376496	0.602750	-0.503319	-0.491542
59920	-9.471872	0.584158	-1.985460	-0.273237	0.307057	-0.126063	-0.369608	0.610074	-0.494877	-0.496283
59921	-9.633099	0.464578	-1.812195	-0.218438	0.536240	-0.016709	-0.363072	0.616625	-0.486913	-0.500868
59922	-9.703325	0.151977	-2.005156	0.118018	0.449529	0.085911	-0.357660	0.621939	-0.479632	-0.505197
59923	-9.490997	-0.246391	-2.237885	0.559274	0.283299	-0.078481	-0.354629	0.625626	-0.473825	-0.508253
59924	-9.406381	0.105193	-2.085340	0.160917	0.282089	-0.182830	-0.353067	0.628438	-0.469291	-0.510075
59925	-9.495968	0.010065	-2.137398	0.235934	0.259904	-0.085477	-0.352955	0.630238	-0.465846	-0.511087
59926	-9.569489	0.084869	-2.196702	0.151674	0.163801	0.003512	-0.354258	0.630789	-0.463400	-0.511729
59927	-9.554802	-0.070003	-2.331335	0.317424	0.036814	0.017463	-0.356745	0.630148	-0.461866	-0.512178
59928	-9.628250	-0.311001	-2.570131	0.593305	-0.153830	0.138662	-0.360928	0.628253	-0.461482	-0.511922
59929	-9.527927	-0.548210	-2.886339	0.888802	-0.473890	0.106867	-0.367194	0.624907	-0.462661	-0.510494
59930	-9.397120	-0.538788	-2.832403	0.832104	-0.533792	-0.033077	-0.373527	0.621233	-0.465022	-0.508235
59931	-9.806013	-0.852714	-2.769268	1.053113	-0.369107	0.351371	-0.379787	0.617581	-0.468044	-0.505262
59932	-9.835680	-0.370836	-2.446043	0.453803	-0.247280	0.316167	-0.386520	0.614055	-0.471137	-0.501565
59933	-10.107321	-0.482831	-2.389611	0.477028	-0.176070	0.572012	-0.394279	0.609840	-0.473979	-0.497979
59934	-10.114196	-0.644138	-2.543513	0.602827	-0.382536	0.611799	-0.404448	0.604033	-0.476886	-0.494112
59935	-10.374759	-2.178165	-3.246182	2.134653	-0.863073	1.032120	-0.419517	0.594768	-0.481245	-0.488528
59936	-10.590703	-3.793101	-4.394537	3.722510	-2.003699	1.499558	-0.442923	0.579133	-0.489589	-0.478253
59937	-9.720931	-0.962587	-4.057650	0.625764	-2.549562	0.433124	-0.472209	0.558101	-0.501653	-0.462477
59938	-9.369105	-0.379742	-3.564523	-0.307651	-2.374372	-0.071800	-0.499588	0.537560	-0.514155	-0.443944
59939	-9.518943	-0.074446	-3.115170	-0.945076	-2.025984	-0.049862	-0.525071	0.517066	-0.526777	-0.423615
59940	-9.883422	-0.215994	-3.141468	-1.168622	-2.093100	0.278951	-0.549223	0.495896	-0.539259	-0.402045
59941	-9.395528	0.698397	-2.131515	-2.085188	-0.989919	-0.433169	-0.570679	0.474863	-0.550798	-0.381382
59942	-9.637148	-1.283685	-2.406903	-0.511716	-1.773452	0.031240	-0.590300	0.453473	-0.561813	-0.360936
59943	-9.823517	-2.407748	-2.344603	0.262813	-2.175997	0.335346	-0.610004	0.430895	-0.572800	-0.337822
59944	-10.576734	-4.047212	-2.485492	1.209516	-3.071011	1.300719	-0.631665	0.405879	-0.583428	-0.309634
59945	-10.562320	-3.277644	-2.619238	-0.059704	-2.989855	1.150506	-0.656956	0.375492	-0.593244	-0.274727
59946	-10.555263	-2.232819	-2.299877	-1.311037	-2.194784	0.916866	-0.683025	0.342190	-0.600694	-0.235692
59947	-10.643017	-2.527678	-2.469754	-1.869274	-2.482616	0.960544	-0.709836	0.304952	-0.604817	-0.193220
59948	-11.645004	-4.435524	-3.485872	-2.521603	-4.419297	2.079625	-0.738645	0.261032	-0.604299	-0.145222
59949	-11.839980	-5.453483	-4.978711	-4.683183	-5.841914	1.950853	-0.770639	0.204924	-0.597302	-0.085748
59950	-11.618180	-3.223155	-6.044205	-7.994462	-3.507114	0.451632	-0.800903	0.137861	-0.582528	-0.014464
59951	-10.711211	0.707588	-5.528179	-8.827739	1.649740	-1.756860	-0.822717	0.067573	-0.560850	0.063389
59952	-10.051828	2.379696	-3.775581	-6.857302	4.627125	-2.575504	-0.832863	0.001925	-0.535295	0.140690
59953	-9.636401	2.577534	-2.325371	-4.871235	5.506206	-2.686759	-0.832843	-0.057614	-0.507490	0.213322
59954	-8.393492	4.688042	-0.453505	-1.275972	6.916653	-3.246779	-0.825348	-0.111660	-0.478764	0.277700
59955	-7.395659	6.420185	1.802715	2.466384	6.802386	-2.974978	-0.813464	-0.156438	-0.453612	0.328693
59956	-6.455341	7.708567	4.162671	5.683958	5.503064	-2.344248	-0.801086	-0.189302	-0.436050	0.363711
59957	-6.441030	7.521095	5.730856	6.657385	3.804411	-1.322738	-0.791527	-0.209078	-0.428227	0.382613
59958	-6.812591	6.229823	6.237718	5.874495	2.470763	-0.674171	-0.786000	-0.217166	-0.429447	0.388096
59959	-7.641238	3.731244	6.051556	3.608746	1.298256	-0.105886	-0.783668	-0.216763	-0.437093	0.384484
59960	-9.263597	-0.453251	5.357661	-0.449804	-0.181384	0.887139	-0.782524	-0.213026	-0.445805	0.378858
59961	-10.040497	-2.557985	4.726501	-2.567272	-0.803392	1.253384	-0.780566	-0.213540	-0.448575	0.379338
59962	-9.868338	-1.271942	4.885663	-1.413680	-0.191345	1.179867	-0.777939	-0.218882	-0.444936	0.385918
59963	-8.793490	0.623406	4.850852	0.338371	0.553095	0.228427	-0.775161	-0.225944	-0.438678	0.394507
59964	-7.832244	2.239528	5.187085	2.044618	0.838999	-0.411595	-0.772400	-0.232391	-0.433876	0.401428
59965	-7.594552	3.573131	5.514887	3.352079	1.205361	-0.422863	-0.770168	-0.235744	-0.433318	0.404353
59966	-7.497581	4.631967	5.526934	4.295048	1.713174	-0.494257	-0.769462	-0.234496	-0.437505	0.401907
59967	-6.764275	6.432745	5.656947	6.111598	2.394455	-1.092041	-0.771320	-0.227632	-0.447318	0.391352
59968	-6.404960	5.724509	5.419337	5.590819	2.181752	-1.618838	-0.775166	-0.213909	-0.464922	0.370417
59969	-6.930174	3.862732	5.078827	3.921312	1.620682	-1.402296	-0.778692	-0.197451	-0.487284	0.342354
59970	-7.827467	2.015373	4.996055	2.472881	0.781335	-0.671577	-0.780499	-0.180751	-0.511522	0.310637
59971	-8.979297	1.006887	4.883379	1.677413	0.387647	0.312338	-0.780696	-0.165866	-0.534006	0.278997
59972	-9.438968	2.128943	5.218707	2.757058	1.132926	0.768996	-0.780783	-0.150338	-0.554039	0.246614
59973	-10.078874	1.307075	4.896090	2.113733	0.734956	1.244020	-0.781228	-0.130913	-0.572190	0.212471
59974	-10.612033	-1.003249	4.773445	1.065150	-1.162569	1.759243	-0.781244	-0.110130	-0.587491	0.179955
59975	-11.417678	-2.614805	4.965600	0.756245	-2.624985	2.612387	-0.781109	-0.092101	-0.598230	0.153319
59976	-11.739414	-3.022341	5.119519	0.991583	-3.031810	2.953597	-0.782032	-0.078883	-0.603415	0.134510
59977	-11.591671	-2.609213	5.313179	1.468227	-2.688326	2.837280	-0.784893	-0.070428	-0.603193	0.123051
59978	-10.736701	-2.222176	5.352867	1.780160	-2.375898	2.021713	-0.789333	-0.066232	-0.598974	0.117461
59979	-10.287004	-1.246815	5.712016	2.347380	-1.540698	1.681550	-0.794321	-0.065464	-0.592811	0.115514
59980	-10.188324	-0.857847	6.053294	2.610793	-1.253417	1.710759	-0.799017	-0.067008	-0.586314	0.115403
59981	-10.558819	-0.880494	6.527091	2.738257	-1.380578	2.247941	-0.803403	-0.070912	-0.579490	0.117077
59982	-10.703968	-0.284927	7.019174	3.083480	-0.978342	2.574986	-0.807795	-0.076916	-0.571811	0.120766
59983	-10.563866	0.635229	7.438651	3.518991	-0.299228	2.631299	-0.812760	-0.083019	-0.562946	0.124984
59984	-10.398756	1.780950	7.929070	4.083236	0.585854	2.723367	-0.818605	-0.086735	-0.553233	0.127655
59985	-10.400457	1.908477	8.067757	3.947306	0.674186	2.870203	-0.825535	-0.086832	-0.542898	0.127333
59986	-10.593303	1.662673	8.186585	3.574361	0.499037	3.186013	-0.833348	-0.084143	-0.531979	0.124296
59987	-10.909240	1.064724	8.077097	2.811621	0.105953	3.508516	-0.841853	-0.079843	-0.520166	0.119735
59988	-11.217493	0.784763	7.796748	1.954618	0.077894	3.729599	-0.851105	-0.074728	-0.506815	0.114779
59989	-11.053221	0.690208	7.416419	1.235582	0.203415	3.456294	-0.860862	-0.068937	-0.492040	0.109818
59990	-10.667429	0.891922	7.195463	0.828787	0.554299	3.046171	-0.870659	-0.062105	-0.476666	0.104333
59991	-10.409876	0.626071	7.153934	0.415797	0.433502	2.818934	-0.879820	-0.054058	-0.461928	0.098070
59992	-10.403059	0.488487	7.425070	0.190363	0.411143	2.969057	-0.888074	-0.045487	-0.448189	0.091551
59993	-10.686245	0.381972	7.524705	-0.316393	0.489136	3.249017	-0.895818	-0.036376	-0.434765	0.084655
59994	-10.890133	0.034561	7.496014	-0.934907	0.341364	3.369837	-0.903567	-0.027040	-0.420437	0.077902
59995	-11.063717	-0.420955	7.378036	-1.648500	0.081722	3.388629	-0.911565	-0.018178	-0.404458	0.071649
59996	-10.697537	-0.601134	7.101571	-2.106850	0.031623	2.866827	-0.919684	-0.009909	-0.386864	0.066485
59997	-10.132931	-0.483019	6.966718	-2.272310	0.228251	2.279010	-0.927442	-0.002008	-0.368795	0.061952
59998	-9.959785	-0.353918	6.914201	-2.627174	0.469005	2.018953	-0.934607	0.006312	-0.350961	0.057411
59999	-9.273965	-0.914337	6.822214	-2.660298	-0.033011	1.425269	-0.940987	0.014959	-0.333930	0.053010
60000	-9.181424	-1.307189	7.062723	-2.853355	-0.314595	1.484915	-0.946521	0.022564	-0.318017	0.049543
60001	-8.997257	-1.263969	7.310601	-2.914733	-0.177422	1.476855	-0.951533	0.029183	-0.302527	0.047016
60002	-8.505522	-1.143628	7.465850	-2.772579	0.004214	1.218695	-0.956244	0.035665	-0.286835	0.045282
60003	-8.503975	-0.988899	7.601313	-3.046357	0.281535	1.219194	-0.960792	0.042470	-0.270450	0.043953
60004	-7.959791	-1.300689	7.417380	-3.071991	0.022745	0.704752	-0.965244	0.049039	-0.253109	0.042830
60005	-7.468730	-1.495389	7.336886	-3.065190	-0.122455	0.307829	-0.969463	0.054528	-0.235324	0.042309
60006	-7.084576	-1.255821	7.427917	-3.029384	0.168118	0.072898	-0.973362	0.058661	-0.217567	0.042294
60007	-6.509151	-1.285741	7.283292	-2.922432	0.130600	-0.405227	-0.976929	0.061878	-0.199958	0.042387
60008	-5.944503	-1.567834	7.172778	-2.791740	-0.172639	-0.789864	-0.980157	0.063802	-0.182774	0.042613
60009	-5.666194	-1.920678	7.217053	-2.846945	-0.523283	-0.896788	-0.983100	0.063556	-0.166040	0.043644
60010	-5.353793	-1.377074	7.502109	-2.723770	0.005706	-0.901245	-0.985811	0.061453	-0.149488	0.045320
60011	-4.849251	-0.782113	7.646303	-2.456548	0.537001	-1.079875	-0.988243	0.059385	-0.132822	0.046988
60012	-4.177158	-0.888527	7.534572	-2.140953	0.334901	-1.427883	-0.990367	0.058093	-0.116148	0.048041
60013	-3.843671	-1.704869	7.311165	-2.217861	-0.544832	-1.694124	-0.992247	0.056095	-0.099568	0.048832
60014	-3.682924	-2.141104	7.418124	-2.349858	-1.024819	-1.651958	-0.993954	0.051143	-0.083224	0.050129
60015	-3.487652	-1.328189	7.657100	-2.315067	-0.301221	-1.621160	-0.995443	0.043793	-0.067084	0.051714
60016	-2.852003	-0.542631	7.743206	-1.867696	0.314194	-1.763356	-0.996621	0.036433	-0.051190	0.052910
60017	-2.305797	-0.271928	7.739064	-1.554423	0.434620	-1.896061	-0.997447	0.030834	-0.036002	0.053401
60018	-2.082167	-0.331469	7.706344	-1.577124	0.288389	-1.985943	-0.997960	0.027126	-0.021774	0.053532
60019	-2.059660	-0.847742	7.506754	-1.837841	-0.276638	-2.206504	-0.998229	0.024183	-0.008123	0.053744
60020	-1.822262	-1.078095	7.213627	-1.841208	-0.582530	-2.547287	-0.998300	0.020379	0.005728	0.054296
60021	-1.204931	-0.924035	6.959361	-1.413209	-0.558158	-2.853821	-0.998165	0.015108	0.019885	0.055170
60022	-0.787862	-0.428619	6.633230	-1.130736	-0.185063	-3.218159	-0.997800	0.009121	0.034092	0.056116
60023	-0.183543	0.055306	6.414472	-0.648757	0.159858	-3.430465	-0.997235	0.003463	0.047735	0.056849
60024	0.131877	0.199535	6.121188	-0.461902	0.210221	-3.708071	-0.996536	-0.001168	0.060319	0.057239
60025	0.442000	0.314582	5.729090	-0.244304	0.251039	-4.068778	-0.995761	-0.004273	0.071895	0.057216
60026	0.464614	0.587808	5.215315	-0.245927	0.509275	-4.574372	-0.994923	-0.004677	0.082784	0.057033
60027	0.958252	0.437314	4.625901	0.210516	0.325411	-5.084328	-0.994046	-0.001301	0.092890	0.056935
60028	0.764433	-0.158634	3.833518	0.012897	-0.200129	-5.905711	-0.993112	0.005676	0.102207	0.057013
60029	0.853735	-1.445372	3.114822	0.028828	-1.445850	-6.583421	-0.992025	0.013717	0.111177	0.057771
60030	1.812282	-2.129076	2.954871	0.854775	-2.195634	-6.496559	-0.991013	0.018703	0.118228	0.059710
60031	2.355036	-1.816072	3.123735	1.331090	-1.923252	-6.188991	-0.990318	0.020013	0.122379	0.062387
60032	2.529034	-1.337504	3.719110	1.392238	-1.449360	-5.572679	-0.990046	0.018562	0.123311	0.065265
60033	2.663568	-0.854399	4.715723	1.351312	-0.973848	-4.588897	-0.990184	0.015124	0.121039	0.068245
60034	2.225802	-0.321491	5.991529	0.743338	-0.389873	-3.468332	-0.990589	0.011081	0.116371	0.071191
60035	1.577198	0.182141	7.272075	-0.030692	0.182415	-2.371663	-0.990980	0.007953	0.111154	0.074426
60036	1.861386	0.128692	8.343046	0.084840	0.061999	-1.264241	-0.991233	0.005512	0.106397	0.078147
60037	2.435296	-0.036142	9.396336	0.481435	-0.233555	-0.120649	-0.991440	0.002168	0.101626	0.081935
60038	2.384648	0.859828	10.503750	0.456734	0.574377	0.967571	-0.991691	-0.002730	0.096546	0.084979
60039	2.081094	1.773528	11.107488	0.303183	1.418161	1.534027	-0.991980	-0.006704	0.092113	0.086287
60040	1.904731	1.831751	11.288986	0.194758	1.436376	1.690479	-0.992285	-0.008042	0.088732	0.086212
60041	1.673139	1.473664	11.524092	-0.063770	1.117272	1.871621	-0.992521	-0.006692	0.086299	0.086080
60042	1.834154	1.737884	11.922060	0.137194	1.411441	2.291347	-0.992745	-0.002343	0.083758	0.086240
60043	1.905556	1.561994	11.796773	0.278847	1.368877	2.157255	-0.993017	0.005838	0.080645	0.085906
60044	1.553955	1.026876	11.525855	-0.022246	1.120773	1.808479	-0.993211	0.017340	0.077723	0.084793
60045	0.925009	0.530656	11.019235	-0.566234	1.004770	1.197384	-0.993121	0.031988	0.075753	0.083366
60046	1.264379	-0.117923	10.349881	-0.189837	0.599312	0.595326	-0.992628	0.049031	0.074504	0.082062
60047	1.914888	0.089870	10.016060	0.592091	1.037597	0.314298	-0.991769	0.068443	0.072230	0.080572
60048	2.087714	-0.020343	9.740082	0.879816	1.286746	0.024961	-0.990361	0.091905	0.067671	0.078480
60049	1.756620	-0.748674	9.409835	0.611831	1.044031	-0.288852	-0.988142	0.118610	0.061653	0.075532
60050	1.405454	-1.258611	8.931114	0.386782	1.001724	-0.749265	-0.984852	0.147824	0.055192	0.071887
60051	1.398548	-1.202541	8.647358	0.576937	1.523945	-1.124057	-0.979988	0.181043	0.047773	0.067562
60052	1.151281	-2.562091	7.861440	0.359538	0.608494	-1.496579	-0.973178	0.217846	0.039130	0.062739
60053	1.102479	-3.746332	7.387266	0.369031	-0.020955	-1.467226	-0.964501	0.256119	0.029221	0.057337
60054	0.613927	-4.973758	6.962887	-0.034104	-0.587617	-1.256465	-0.954223	0.294017	0.018204	0.051776
60055	0.377379	-5.280722	6.752061	-0.058399	-0.274621	-1.239576	-0.942390	0.331283	0.006509	0.045937
60056	0.133271	-6.057045	6.316909	-0.123374	-0.453153	-1.075265	-0.928585	0.368856	-0.006156	0.040465
60057	-0.078398	-5.952977	5.846862	-0.080813	0.005961	-1.471313	-0.912505	0.407090	-0.019578	0.035057
60058	-0.314294	-6.428463	4.985313	-0.127636	-0.225738	-1.678812	-0.893015	0.447756	-0.033941	0.029773
60059	-0.180382	-5.581851	4.306342	0.233788	0.440373	-2.781399	-0.868910	0.491840	-0.050022	0.024228
60060	-1.081914	-6.801926	2.928146	-0.526516	-0.492471	-2.368286	-0.837458	0.541903	-0.068162	0.018944
60061	-2.148450	-9.544980	1.191177	-1.369421	-2.049303	-0.277087	-0.800541	0.593011	-0.085269	0.014201
60062	-2.671307	-10.500939	-0.010045	-1.634809	-2.179144	0.667513	-0.762212	0.639642	-0.098938	0.010111
60063	-2.845314	-9.147695	-1.048714	-1.823574	-1.746556	-0.517942	-0.722345	0.682977	-0.108259	0.006390
60064	-1.729259	-9.494475	-2.375474	-0.654718	-2.169702	-0.141653	-0.680646	0.723512	-0.115101	0.001678
60065	-1.551218	-9.982276	-3.257999	-0.272442	-1.943280	0.613421	-0.639754	0.758882	-0.121643	-0.004008
60066	-1.772287	-10.884667	-4.026708	-0.141311	-1.410006	1.836898	-0.601511	0.788562	-0.127526	-0.009616
60067	-2.131862	-9.614295	-4.326156	-0.532195	-0.930972	0.886529	-0.566480	0.813310	-0.131950	-0.014704
60068	-2.038235	-7.220136	-4.623378	-0.825876	-1.189882	-1.122655	-0.531070	0.836295	-0.134922	-0.019272
60069	-1.865657	-7.679543	-5.505814	-0.455198	-1.066194	-0.254174	-0.492887	0.858856	-0.137123	-0.025023
60070	-1.665712	-8.541411	-6.535348	0.103302	-0.736291	1.041773	-0.456450	0.878040	-0.140161	-0.032466
60071	-1.635959	-8.070466	-6.873560	0.242479	-0.441774	0.899102	-0.421821	0.894392	-0.143453	-0.039392
60072	-1.890820	-5.242794	-7.001763	-0.601090	-1.438119	-1.002852	-0.384625	0.910321	-0.146268	-0.044557
60073	-1.381979	-2.655629	-7.406950	-0.715130	-2.848404	-2.386631	-0.337619	0.928069	-0.149211	-0.049365
60074	-2.360516	-3.708530	-9.340177	-1.102599	-2.151799	0.217074	-0.281673	0.945614	-0.153004	-0.055358
60075	-2.519019	-6.323817	-10.901896	-0.042749	0.391988	3.026603	-0.225794	0.959526	-0.156064	-0.063008
60076	-3.085661	-6.641429	-11.318190	-0.071582	1.979017	3.516303	-0.177257	0.969036	-0.156715	-0.070641
60077	-2.441242	-4.396370	-10.712641	0.051763	1.138904	1.963022	-0.135628	0.975761	-0.153997	-0.076025
60078	-1.282101	-2.862682	-10.958917	0.874226	0.234030	1.547627	-0.098386	0.980629	-0.150036	-0.078588
60079	-0.855245	-1.303262	-10.633794	0.890815	-0.492796	0.884354	-0.064534	0.983797	-0.147531	-0.078827
60080	-1.072024	-1.328025	-10.558236	0.766709	0.278505	0.849896	-0.035096	0.985417	-0.147420	-0.077387
60081	-1.503016	-2.427362	-10.446119	0.707965	2.023893	0.801162	-0.011800	0.986086	-0.147842	-0.075081
60082	-2.149414	-1.718271	-10.304716	-0.116142	1.963948	0.669606	0.004979	0.986361	-0.147167	-0.073543
60083	-1.825506	0.037541	-10.117876	-0.321279	0.510756	0.450560	0.019421	0.986588	-0.144556	-0.073278
60084	-1.078103	1.683119	-9.831295	-0.075596	-0.985738	0.170489	0.035474	0.986638	-0.141264	-0.073023
60085	-0.884578	0.460216	-10.266625	0.553328	0.464582	0.476506	0.050883	0.986223	-0.139506	-0.072889
60086	-1.180747	-1.082834	-11.106948	0.844414	2.339007	1.130073	0.059356	0.985793	-0.139143	-0.072995
60087	-1.554470	-0.481886	-11.166789	0.355650	1.981789	1.290994	0.060667	0.985812	-0.138218	-0.073421
60088	-1.414867	1.877930	-10.790019	-0.179618	-0.335163	1.223995	0.060861	0.986059	-0.136092	-0.073909
60089	-1.092675	2.570735	-10.710051	-0.041773	-1.048803	1.205718	0.065388	0.986062	-0.133727	-0.074313
60090	-1.218560	1.553494	-11.471731	0.245623	0.138522	1.824253	0.070015	0.985894	-0.132325	-0.074845
60091	-1.276470	0.722317	-11.600604	0.435380	1.030029	1.826666	0.071345	0.985910	-0.131485	-0.074853
60092	-1.020287	1.075033	-11.406467	0.547013	0.583171	1.661824	0.068380	0.986263	-0.131002	-0.073812
60093	-0.941040	1.686039	-10.883739	0.340683	-0.167984	1.234416	0.063249	0.986762	-0.131066	-0.071564
60094	-1.114269	1.517136	-10.413713	0.077496	-0.107513	0.768902	0.058535	0.987174	-0.131673	-0.068731
60095	-1.338969	0.947447	-10.170411	-0.101358	0.372245	0.481844	0.052448	0.987604	-0.132382	-0.066051
60096	-1.392407	0.068519	-9.991948	-0.019891	1.064912	0.219505	0.042892	0.988134	-0.132810	-0.064134
60097	-1.487364	-0.623647	-10.060256	0.014337	1.513744	0.262523	0.027260	0.988749	-0.132878	-0.063060
60098	-1.387134	-1.142822	-10.128295	0.188959	1.615160	0.343646	0.005317	0.989208	-0.132410	-0.062498
60099	-1.668465	-1.736501	-10.299240	0.021486	1.743404	0.618172	-0.023402	0.989135	-0.131009	-0.062458
60100	-1.325495	-0.164058	-9.578733	-0.210816	-0.424196	-0.154586	-0.055719	0.987974	-0.129474	-0.063551
60101	-2.046886	-1.872067	-9.626690	-0.489163	0.746268	0.164000	-0.088852	0.985497	-0.128302	-0.066633
60102	-3.095461	-5.074514	-10.485455	-0.563971	3.072414	1.825129	-0.128987	0.980997	-0.125587	-0.072348
60103	-3.651931	-7.166856	-11.542961	-0.422706	3.639004	3.763613	-0.182898	0.972534	-0.119338	-0.080527
60104	-3.523912	-7.671897	-12.830430	-0.045328	1.733247	5.434725	-0.252000	0.957452	-0.108903	-0.089005
60105	-3.240505	-7.859833	-13.417605	0.221729	-0.880533	6.026857	-0.331551	0.934177	-0.093195	-0.093288
60106	-3.115438	-7.046910	-13.210407	-0.116075	-4.089344	4.899950	-0.417334	0.900983	-0.073942	-0.092708
60107	-1.996361	-4.151458	-10.731314	-0.129730	-6.379818	-0.051945	-0.499004	0.860271	-0.055246	-0.088748
60108	-2.003750	-5.601454	-9.305367	-0.206918	-6.115908	-0.635261	-0.571973	0.815099	-0.039463	-0.083085
60109	-1.981324	-6.332172	-7.208781	-0.430480	-5.367584	-1.641556	-0.638153	0.765521	-0.026606	-0.077660
60110	-2.078941	-7.163058	-5.088570	-0.737298	-4.437179	-1.994822	-0.697156	0.713186	-0.014759	-0.071566
60111	-0.375988	-4.052315	-1.543459	0.188694	-1.757448	-5.839367	-0.747053	0.661693	-0.004727	-0.063648
60112	-0.279969	-4.053397	2.233006	-0.055615	1.482978	-5.422493	-0.779871	0.623747	0.001933	-0.052319
60113	-0.518934	-7.017571	3.457528	-0.236585	1.513766	-2.125299	-0.801692	0.596374	0.007200	-0.039708
60114	-2.017326	-9.941305	3.360433	-1.747736	-0.109507	0.727072	-0.819896	0.571591	0.014200	-0.029206
60115	-2.234200	-11.737154	2.170531	-2.117670	-2.635320	1.847137	-0.841185	0.539648	0.026796	-0.021690
60116	-1.379482	-11.395191	1.580320	-1.551822	-3.971399	0.955233	-0.866159	0.497604	0.044115	-0.014586
60117	0.528062	-9.331694	1.696280	0.060805	-3.763197	-1.097326	-0.893195	0.445300	0.062317	-0.005163
60118	0.828333	-6.326230	2.482686	0.143936	-2.228597	-3.346149	-0.918386	0.387638	0.079129	0.006567
60119	0.953370	-4.552079	2.765742	0.148700	-1.520088	-4.625786	-0.939790	0.327770	0.094939	0.018673
60120	1.675665	-3.426103	3.526582	0.671224	-0.804884	-4.728747	-0.957117	0.266845	0.108713	0.030053
60121	2.876110	-1.932517	5.272105	1.533914	0.657831	-3.733039	-0.970669	0.205113	0.118271	0.041746
60122	2.135052	0.394132	7.150562	0.593056	2.765319	-2.900653	-0.979966	0.146195	0.124414	0.053058
60123	2.169417	2.097274	8.404431	0.451419	3.917672	-1.805729	-0.984995	0.094044	0.130864	0.061766
60124	1.470240	-0.883101	7.763901	-0.670387	0.155522	-1.894562	-0.986761	0.046838	0.139663	0.067846
60125	0.459198	-4.990276	6.074267	-1.980920	-4.665437	-3.791675	-0.985447	-0.008408	0.152843	0.073915
60126	0.848512	-3.729092	4.864001	-1.263544	-4.127545	-5.387643	-0.978898	-0.080018	0.167922	0.084600
60127	2.960673	6.920750	7.214448	1.136182	4.491774	-0.484464	-0.966251	-0.156087	0.179291	0.099247
60128	4.737939	13.335994	9.919149	2.310005	7.677513	5.486215	-0.952822	-0.211996	0.186345	0.111637
60129	4.645506	10.115066	10.205782	1.359217	3.340244	4.848377	-0.942702	-0.246210	0.192942	0.116045
60130	1.012377	0.823801	7.495310	-2.203726	-3.016100	-3.186701	-0.930904	-0.279015	0.204980	0.116414
60131	0.541997	1.939847	7.114073	-2.572300	-2.248668	-3.258289	-0.914658	-0.318090	0.216892	0.123195
60132	2.366221	7.672757	6.880551	-0.668041	0.886317	0.699036	-0.894355	-0.359169	0.230294	0.134504
60133	3.648782	12.702289	7.297168	0.168779	2.693310	5.037162	-0.876044	-0.389912	0.244830	0.143435
60134	3.567562	10.484891	6.431744	-0.030524	1.069337	2.948537	-0.863018	-0.406605	0.260616	0.148158
60135	2.442702	6.285257	5.045757	-0.734988	-0.516467	-1.439553	-0.850173	-0.420674	0.278187	0.151166
60136	1.659018	4.809192	3.375071	-0.689283	-0.198585	-3.750711	-0.834184	-0.438451	0.295438	0.156890
60137	3.045970	8.110671	2.666102	0.569616	1.042220	-0.827680	-0.815107	-0.459969	0.310802	0.165622
60138	5.277226	12.754696	2.687328	1.831907	1.642641	4.031129	-0.798586	-0.477422	0.322725	0.173717
60139	5.863738	12.707671	2.447274	2.130615	0.959644	4.201041	-0.789870	-0.484564	0.331166	0.177853
60140	4.402622	9.008985	1.848239	1.452745	0.316444	0.274332	-0.785328	-0.487481	0.337778	0.177562
60141	2.395255	5.231560	1.069919	0.632738	0.216487	-3.998719	-0.778203	-0.495167	0.343969	0.175769
60142	2.547483	6.136721	0.834396	0.711631	0.521926	-3.174918	-0.765689	-0.510888	0.349279	0.175263
60143	4.201737	11.554661	1.685914	0.589307	0.826247	2.554802	-0.753083	-0.527384	0.351699	0.176183
60144	4.983110	14.025373	2.233739	0.319329	0.550162	5.224668	-0.748087	-0.534299	0.351979	0.176069
60145	4.398821	10.987726	1.846636	0.465780	-0.010997	2.156954	-0.749108	-0.533697	0.352467	0.172546
60146	2.671896	7.058823	1.246341	0.104872	0.086866	-2.164133	-0.749593	-0.533684	0.354106	0.167034
60147	1.983179	7.400971	1.369177	-0.578729	0.551816	-2.070478	-0.746521	-0.537908	0.355883	0.163427
60148	2.590435	9.445343	1.719098	-0.752766	0.609213	0.083853	-0.743419	-0.541760	0.356608	0.163263
60149	3.277586	9.780411	1.593521	-0.257839	0.329460	0.616273	-0.742454	-0.542401	0.357028	0.164606
60150	3.408501	9.113694	1.417119	0.066397	0.120400	0.019229	-0.742755	-0.541530	0.356941	0.166294
60151	3.413999	9.657805	1.416299	0.027900	0.320492	0.523212	-0.743668	-0.540159	0.356241	0.168163
60152	3.622871	10.501236	1.433619	0.094994	0.523055	1.375391	-0.746012	-0.536676	0.355941	0.169559
60153	3.782951	9.721390	1.086666	0.599326	0.473012	0.647367	-0.749443	-0.531517	0.356521	0.169465
60154	4.255641	11.119793	1.496642	0.512966	0.574901	2.162421	-0.754545	-0.524894	0.355900	0.168769
60155	4.734182	12.746451	1.657189	0.666174	1.080728	3.825658	-0.764034	-0.513335	0.353018	0.167682
60156	5.749587	13.982110	1.508424	1.623942	1.619197	5.204550	-0.780604	-0.493097	0.347055	0.164517
60157	7.003170	16.394472	1.460850	2.912304	3.092738	7.556098	-0.808449	-0.458060	0.333609	0.159048
60158	6.092824	14.308596	0.038250	4.202951	4.999634	4.287031	-0.846859	-0.404914	0.310043	0.150826
60159	4.737359	9.188731	-1.425657	4.880122	4.828382	-1.968950	-0.887598	-0.339742	0.278631	0.138242
60160	2.074214	2.202939	-0.220615	2.017878	0.992950	-7.781301	-0.922058	-0.276062	0.240846	0.124863
60161	0.003911	0.530364	3.348291	-1.501826	-0.961861	-6.932674	-0.946431	-0.225024	0.201346	0.114422
60162	-0.906001	3.591562	7.493382	-3.238271	0.838735	-2.157041	-0.964184	-0.178543	0.163996	0.107594
60163	-0.225909	3.218863	8.787510	-2.480837	0.671229	-0.816555	-0.977167	-0.127534	0.134939	0.103306
60164	-0.462517	1.183973	9.190960	-2.620971	-0.404393	-0.926182	-0.985426	-0.075482	0.115243	0.099786
60165	-0.535026	-1.600874	8.910416	-2.763737	-2.216893	-1.468265	-0.989469	-0.028647	0.103761	0.096768
60166	0.079568	-1.805541	8.856489	-1.987303	-1.819174	-1.186938	-0.990637	0.010145	0.098045	0.094459
60167	1.358885	-1.135615	8.443085	-0.416978	-0.789703	-1.233937	-0.990168	0.044374	0.094712	0.092888
60168	2.886275	-1.332618	7.730299	1.258275	-0.772551	-1.587123	-0.988687	0.077040	0.090081	0.091913
60169	2.986001	-2.393225	8.001069	1.255049	-1.271987	-1.126768	-0.986750	0.106293	0.081786	0.091311
60170	2.187632	-3.746691	8.158265	0.385872	-1.973165	-0.794809	-0.985006	0.128509	0.071732	0.090017
60171	1.632760	-2.454847	9.284341	0.196983	-0.014982	-0.074130	-0.983636	0.145119	0.060907	0.087698
60172	1.024426	-2.802042	9.674174	-0.248671	0.167045	0.306009	-0.982059	0.160535	0.049541	0.085644
60173	1.011749	-2.320478	10.181417	0.057433	1.087454	0.621356	-0.980001	0.176577	0.038300	0.083373
60174	0.585135	-3.139816	9.575149	-0.239596	0.530555	0.263496	-0.976939	0.195748	0.029117	0.080160
60175	0.134260	-5.565816	8.691843	-0.875327	-1.587526	0.348241	-0.973641	0.213519	0.022308	0.077046
60176	-0.170367	-6.856475	8.465311	-1.228858	-2.502991	0.719189	-0.971337	0.224743	0.017303	0.075471
60177	-0.212209	-5.955520	8.350309	-1.035584	-1.571037	0.271894	-0.970057	0.230591	0.014487	0.074883
60178	0.205705	-5.102091	7.913206	-0.448682	-0.972948	-0.456197	-0.969106	0.234816	0.013035	0.074333
60179	0.390075	-5.719715	7.608131	-0.333890	-1.618233	-0.430760	-0.968528	0.237312	0.011786	0.074143
60180	-0.097806	-6.013358	7.490346	-0.847441	-1.846939	-0.424080	-0.968740	0.236337	0.011322	0.074564
60181	-0.253965	-6.039706	7.534038	-1.018748	-1.886951	-0.394360	-0.969909	0.231015	0.012112	0.075907
60182	-0.010790	-4.755841	7.690525	-0.622656	-0.846924	-0.831876	-0.971774	0.222213	0.014014	0.077977
60183	0.600632	-2.512689	7.776605	0.282978	0.954491	-1.678978	-0.973341	0.214400	0.016344	0.079833
60184	1.167538	-1.492866	7.708439	0.974986	1.676816	-2.115322	-0.973650	0.212613	0.017060	0.080685
60185	0.713547	-2.403170	7.287728	0.379024	0.769143	-2.153718	-0.972869	0.216316	0.015848	0.080513
60186	-0.164848	-3.533063	6.730712	-0.649861	-0.269716	-2.241927	-0.971654	0.222071	0.014174	0.079827
60187	-0.192266	-4.524962	5.970043	-0.823176	-1.397278	-2.496731	-0.970612	0.226770	0.013485	0.079411
60188	-0.221764	-4.772831	5.316312	-0.897549	-1.853171	-2.967807	-0.970234	0.228313	0.014010	0.079513
60189	-0.338252	-4.942224	4.728364	-1.064634	-2.250740	-3.433191	-0.970803	0.225532	0.015563	0.080218
60190	0.076078	-3.971126	4.894137	-0.522050	-1.436436	-3.697811	-0.972102	0.219053	0.016564	0.082210
60191	0.703993	-3.203232	5.150276	0.211841	-0.830241	-3.767309	-0.973616	0.211091	0.015181	0.085335
60192	0.371809	-2.443023	5.672836	0.036931	0.018769	-3.625200	-0.975025	0.203346	0.011100	0.088616
60193	-0.258120	-2.316264	6.195301	-0.501957	0.352248	-3.222054	-0.976111	0.197013	0.005342	0.091460
60194	-1.141890	-1.651103	6.637930	-1.167078	1.210095	-3.084763	-0.976788	0.192817	-0.000693	0.093305
60195	-2.072562	-0.709765	6.398371	-1.852142	2.127923	-3.666175	-0.976516	0.194165	-0.005271	0.093214
60196	-0.164151	-2.460538	5.620568	-0.272292	-0.071280	-3.681449	-0.975435	0.199665	-0.009988	0.092521
60197	-0.508993	-3.729369	5.286222	-0.781983	-1.231566	-3.489521	-0.974682	0.203150	-0.016522	0.091932
60198	-0.923193	-4.149260	5.242427	-1.171745	-1.541361	-3.347241	-0.974790	0.201854	-0.025015	0.091726
60199	-2.895683	-2.628004	5.744045	-2.694466	0.365753	-3.418165	-0.975333	0.198124	-0.034548	0.090987
60200	-3.687515	-1.660609	6.114036	-3.154765	1.498123	-3.367653	-0.975305	0.197463	-0.043424	0.088903
60201	-2.001369	-2.548666	5.746022	-1.569687	0.229593	-3.409566	-0.974465	0.199836	-0.052758	0.087746
60202	-1.390892	-3.506966	5.487252	-1.018234	-0.835448	-3.285311	-0.973353	0.201431	-0.064796	0.088381
60203	-2.156815	-3.383550	5.881075	-1.506853	-0.424588	-2.867689	-0.972441	0.200032	-0.079923	0.089211
60204	-4.589474	-2.017930	6.637549	-3.298709	1.569622	-2.340018	-0.971492	0.197774	-0.096446	0.088246
60205	-5.567748	-1.702081	6.831432	-3.907200	2.107332	-2.011924	-0.970063	0.198184	-0.111877	0.084764
60206	-4.996514	-3.103126	6.369083	-3.398838	0.535813	-1.855655	-0.968220	0.199690	-0.127092	0.080759
60207	-4.673930	-4.126806	5.859845	-3.088269	-0.657240	-1.860456	-0.966209	0.199848	-0.143221	0.077390
60208	-4.565755	-4.710900	6.287229	-2.620565	-1.094699	-1.181724	-0.964034	0.196674	-0.161746	0.076132
60209	-6.670188	-3.309630	7.498988	-3.696923	0.974682	0.038566	-0.961654	0.190803	-0.181815	0.075888
60210	-7.878232	-2.307538	7.925148	-4.165405	2.196414	0.579930	-0.959026	0.184712	-0.201249	0.075162
60211	-7.827893	-2.339211	7.753031	-3.796115	1.987610	0.602714	-0.956255	0.179110	-0.219458	0.073035
60212	-6.809731	-3.257001	7.012585	-2.913891	0.569950	0.052862	-0.953225	0.173838	-0.237091	0.070221
60213	-6.131391	-4.380441	7.337119	-1.852545	-0.658983	0.518567	-0.949519	0.166572	-0.256650	0.069271
60214	-8.322564	-2.865510	8.454584	-2.623691	1.376511	2.025852	-0.945015	0.156771	-0.278329	0.070018
60215	-10.516649	-1.185951	8.637536	-3.738143	3.290540	2.906605	-0.940277	0.148222	-0.298744	0.068276
60216	-10.515045	-1.608585	8.188775	-3.512567	2.593557	2.880708	-0.935636	0.143138	-0.316447	0.062915
60217	-9.435318	-4.220797	7.352634	-2.789985	-0.476110	2.551405	-0.930580	0.139027	-0.333855	0.056863
60218	-7.561650	-6.407422	7.859303	-0.592082	-3.006724	2.458805	-0.924189	0.130761	-0.354402	0.056353
60219	-9.810449	-3.645077	9.124642	-0.804446	0.115997	4.047029	-0.916412	0.118047	-0.377406	0.061794
60220	-11.393869	0.337723	9.653934	-0.774424	4.135475	4.518638	-0.908369	0.108771	-0.398568	0.064643
60221	-12.062013	0.780416	9.153417	-0.962926	4.466555	4.643580	-0.901144	0.106920	-0.415868	0.059675
60222	-10.822582	-2.690230	7.868917	-0.723536	0.580196	3.803731	-0.894368	0.109114	-0.430929	0.050000
60223	-9.263011	-6.443798	8.002706	0.865125	-3.415916	3.563638	-0.885702	0.107289	-0.449362	0.045769
60224	-10.685702	-4.801993	9.317906	1.658958	-1.512554	4.985716	-0.875872	0.099207	-0.469617	0.049656
60225	-10.724317	-1.402149	9.620704	2.487771	1.659426	4.349170	-0.866067	0.090496	-0.488482	0.055891
60226	-10.186386	1.189563	9.634500	3.350115	3.948677	3.270307	-0.857501	0.086886	-0.503850	0.057246
60227	-9.467063	0.398477	8.629589	3.212599	2.897810	2.250729	-0.850257	0.088659	-0.516329	0.051051
60228	-9.674855	-1.982672	8.032957	2.936745	0.525954	2.562693	-0.843220	0.090967	-0.528234	0.040913
60229	-9.849000	-3.780867	8.025775	3.276618	-1.275626	2.967469	-0.835811	0.089790	-0.540653	0.032438
60230	-10.237591	-3.628980	8.055134	3.521921	-1.191533	3.188286	-0.828680	0.085431	-0.552476	0.027590
60231	-10.036348	-3.006439	7.919886	3.767443	-0.777895	2.744526	-0.822839	0.079843	-0.562074	0.025172
60232	-9.103030	-2.678876	7.627398	4.049030	-0.761624	1.643263	-0.818536	0.074154	-0.569195	0.022743
60233	-8.052263	-3.248402	7.790017	4.760390	-1.584333	0.718201	-0.814541	0.068493	-0.575703	0.019948
60234	-8.190099	-3.350473	8.262506	5.329519	-1.776846	0.911402	-0.810017	0.062507	-0.582791	0.017865
60235	-8.939446	-2.512595	8.619177	5.574185	-0.987847	1.521535	-0.805641	0.057356	-0.589421	0.015330
60236	-9.328997	-2.298270	8.413934	5.416536	-0.879312	1.719492	-0.802212	0.053772	-0.594510	0.011028
60237	-9.684752	-2.313333	7.860674	4.902412	-1.004094	1.844621	-0.800524	0.051691	-0.597050	0.004548
60238	-10.387401	-2.648394	7.551977	4.474109	-1.393398	2.434139	-0.801082	0.051366	-0.596330	-0.004314
60239	-10.301069	-3.636358	8.418742	5.363399	-2.333321	2.677284	-0.804013	0.055012	-0.591860	-0.015419
60240	-9.685059	-5.063624	6.274362	3.555128	-3.986243	1.601284	-0.807830	0.058409	-0.585997	-0.024626
60241	-9.436644	-3.913454	4.947088	2.166671	-3.027663	0.910040	-0.811417	0.059382	-0.580685	-0.029679
60242	-9.324182	-2.521042	3.922941	0.985170	-1.806823	0.407374	-0.814000	0.059254	-0.577004	-0.030995
60243	-9.502010	-1.831425	3.480959	0.358912	-1.183648	0.396585	-0.815696	0.059360	-0.574633	-0.030224
60244	-8.817494	-2.462214	3.184940	0.326481	-1.850911	-0.303645	-0.816861	0.058783	-0.573151	-0.027924
60245	-8.124976	-2.268673	3.458973	0.766410	-1.631715	-0.875310	-0.816769	0.057048	-0.573618	-0.024426
60246	-8.130494	-1.227767	3.828635	1.020269	-0.544979	-0.816427	-0.815410	0.056179	-0.575754	-0.021407
60247	-8.428410	-0.406746	4.091051	1.138824	0.339182	-0.510655	-0.813410	0.058345	-0.578390	-0.020619
60248	-9.354909	-0.305100	4.113790	0.902024	0.538385	0.357193	-0.811725	0.064020	-0.580078	-0.022675
60249	-9.899050	-0.718931	3.629658	0.334586	0.172835	0.748563	-0.811397	0.072009	-0.579411	-0.027063
60250	-9.789936	-1.526698	2.903835	-0.236192	-0.655386	0.488771	-0.812327	0.080366	-0.576739	-0.032234
60251	-9.703443	-2.278071	2.308263	-0.708220	-1.435230	0.292385	-0.814121	0.087496	-0.572917	-0.036301
60252	-9.369978	-2.765580	1.993369	-0.878196	-1.937848	-0.071465	-0.816283	0.092259	-0.568965	-0.038066
60253	-8.920221	-2.702068	2.113718	-0.686315	-1.828412	-0.457221	-0.817884	0.095638	-0.566117	-0.037824
60254	-8.943646	-2.423772	2.485792	-0.435376	-1.425990	-0.335385	-0.818129	0.098844	-0.565315	-0.036257
60255	-9.306423	-2.623487	2.955314	-0.087742	-1.428329	0.196178	-0.816669	0.103339	-0.566717	-0.034701
60256	-10.430154	-3.463113	3.381664	0.108591	-1.973397	1.514660	-0.814483	0.109491	-0.568799	-0.033107
60257	-11.304879	-4.415189	3.693333	0.316580	-2.600071	2.599833	-0.812801	0.117302	-0.569795	-0.030478
60258	-11.481866	-4.511957	3.782574	0.369622	-2.428143	2.854616	-0.812077	0.126980	-0.568951	-0.026508
60259	-11.552385	-4.853629	3.361999	-0.017462	-2.573516	2.902952	-0.812204	0.137839	-0.566438	-0.021734
60260	-11.417821	-4.928200	3.068005	-0.296216	-2.431885	2.759338	-0.812403	0.149621	-0.563334	-0.016419
60261	-11.583319	-5.942144	2.540217	-0.713351	-3.175571	3.045391	-0.811876	0.162541	-0.560660	-0.009878
60262	-11.957307	-6.687766	2.265637	-1.023394	-3.489643	3.588570	-0.810658	0.176219	-0.558373	-0.000290
60263	-11.913331	-6.681841	2.086082	-1.261474	-3.052527	3.603396	-0.808867	0.190731	-0.556036	0.013404
60264	-10.942035	-5.793936	2.237545	-1.020276	-1.865687	2.587136	-0.805809	0.206105	-0.554342	0.029961
60265	-10.948800	-5.868098	2.420580	-0.902736	-1.300629	2.742549	-0.801157	0.221944	-0.553777	0.047115
60266	-11.355899	-6.865367	2.598375	-0.769765	-1.402158	3.613028	-0.796148	0.236401	-0.553149	0.065492
60267	-11.441934	-6.743806	2.898562	-0.614711	-0.542759	3.755357	-0.791461	0.249560	-0.551284	0.086001
60268	-10.920702	-5.821744	3.005499	-0.539699	0.693223	2.890996	-0.786777	0.262831	-0.548044	0.107469
60269	-10.385876	-5.032801	3.035370	-0.481185	1.719576	1.985241	-0.781161	0.277650	-0.544432	0.127640
60270	-10.405465	-5.825562	2.945228	-0.522967	1.659633	2.345640	-0.773768	0.295077	-0.541578	0.144587
60271	-10.138728	-6.672756	2.703878	-0.546401	1.409102	2.528751	-0.764534	0.314247	-0.539678	0.159640
60272	-9.873651	-7.417377	2.232506	-0.749378	1.209143	2.654401	-0.753669	0.334145	-0.538417	0.174466
60273	-9.623529	-7.842850	1.704186	-1.027715	1.256641	2.611195	-0.742236	0.352700	-0.536985	0.190620
60274	-9.370334	-7.431852	1.557375	-1.048454	1.970155	2.038333	-0.731070	0.368914	-0.534884	0.208177
60275	-9.698560	-7.587472	1.774148	-0.884290	2.777803	2.280684	-0.720066	0.383590	-0.532673	0.224997
60276	-9.535963	-7.465328	1.927719	-0.640698	3.357399	1.963163	-0.709281	0.397825	-0.529761	0.240849
60277	-8.832294	-7.058338	1.835785	-0.472371	3.585876	1.054135	-0.696628	0.414561	-0.526445	0.256330
60278	-7.328193	-7.181294	1.370283	-0.359458	2.749500	0.158917	-0.681863	0.432697	-0.523069	0.272463
60279	-6.756297	-7.153160	0.946915	-0.505967	2.707119	-0.320469	-0.666730	0.448937	-0.519940	0.289117
60280	-7.163669	-7.194655	0.884930	-0.596392	3.522393	-0.269172	-0.652566	0.462337	-0.516600	0.305821
60281	-6.539645	-6.186341	0.950715	-0.373581	3.822230	-1.616567	-0.639180	0.474878	-0.512285	0.321721
60282	-4.730519	-5.383746	0.783186	-0.060486	2.786858	-3.164780	-0.624144	0.488261	-0.508486	0.336879
60283	-5.437272	-6.259775	0.662104	-0.208275	3.475834	-2.259527	-0.609345	0.499816	-0.506285	0.350083
60284	-5.396372	-6.546137	0.601654	-0.147832	3.656299	-2.135727	-0.597002	0.508891	-0.504029	0.361350
60285	-4.019794	-5.439721	0.570945	0.108934	2.853155	-3.655023	-0.584066	0.518350	-0.500604	0.373599
60286	-2.113769	-4.322786	0.340850	0.240492	1.399208	-5.202744	-0.570068	0.528137	-0.496421	0.386859
60287	-1.198801	-3.665291	0.557055	0.610501	0.815706	-6.052083	-0.556222	0.535466	-0.494278	0.399478
60288	-0.916369	-3.462259	0.817559	0.930169	0.723824	-6.333409	-0.543533	0.541397	-0.493730	0.409503
60289	-0.437034	-4.181610	0.741867	1.030324	0.277739	-5.678966	-0.532344	0.546946	-0.493270	0.417306
60290	0.393643	-4.945060	0.282609	0.798220	-0.561687	-4.940824	-0.524623	0.550906	-0.491590	0.423807
60291	1.290126	-4.741509	0.305988	0.932205	-1.361726	-5.174115	-0.519864	0.552531	-0.490227	0.429101
60292	1.778069	-5.605524	0.162602	0.928301	-1.837269	-4.301569	-0.515618	0.552813	-0.490941	0.433028
60293	1.520052	-6.875975	-0.167666	0.673988	-1.614861	-2.989520	-0.512196	0.551606	-0.492811	0.436490
60294	1.278633	-7.609950	-0.315460	0.545248	-1.387957	-2.234960	-0.509976	0.548994	-0.494865	0.440044
60295	0.861048	-7.642053	-0.038747	0.742763	-0.940714	-2.216166	-0.508694	0.546115	-0.496463	0.443299
60296	0.578939	-8.082064	0.114468	0.876162	-0.653352	-1.783151	-0.507847	0.544115	-0.497595	0.445453
60297	-0.283344	-9.282480	-0.045658	0.711087	0.167044	-0.554545	-0.508566	0.543042	-0.497392	0.446170
60298	-0.636853	-10.200558	-0.326091	0.433739	0.468131	0.392985	-0.511237	0.542587	-0.495153	0.446162
60299	-0.273003	-10.063607	-0.625501	0.100166	0.073179	0.273252	-0.514329	0.542775	-0.491449	0.446474
60300	0.723793	-9.418894	-0.620787	0.112356	-0.895516	-0.388779	-0.515853	0.543237	-0.488576	0.447306
60301	0.618899	-9.045273	-0.357979	0.315417	-0.743324	-0.775202	-0.515333	0.543220	-0.488781	0.447702
60302	-0.555828	-9.913148	-0.241090	0.383462	0.419011	0.102687	-0.513856	0.542852	-0.491746	0.446598
60303	-1.052863	-10.447074	-0.240391	0.429674	0.884101	0.643937	-0.512015	0.543033	-0.494621	0.445317
60304	-1.174477	-10.229620	-0.219413	0.470810	1.007223	0.426278	-0.510748	0.543823	-0.495329	0.445020
60305	-0.629218	-8.925793	-0.058824	0.590512	0.517672	-0.899080	-0.510806	0.544612	-0.493847	0.445635
60306	0.313007	-7.380450	0.005529	0.620331	-0.375502	-2.461280	-0.511089	0.545369	-0.492374	0.446013
60307	1.059911	-6.297426	-0.066958	0.546917	-1.112796	-3.547863	-0.511245	0.545669	-0.492839	0.444953
60308	1.453703	-5.685472	-0.216775	0.413471	-1.538929	-4.160664	-0.511609	0.544833	-0.495973	0.442068
60309	1.407644	-5.200853	-0.217477	0.397463	-1.540227	-4.660329	-0.512800	0.542330	-0.501550	0.437450
60310	1.561782	-4.287987	-0.092549	0.482044	-1.726966	-5.615174	-0.514850	0.538168	-0.508606	0.432000
60311	1.424062	-2.864248	0.169667	0.601466	-1.564575	-7.083119	-0.517824	0.532343	-0.516428	0.426346
60312	1.037937	-1.629928	0.516566	0.781341	-1.112554	-8.345616	-0.522565	0.524671	-0.524668	0.419964
60313	0.263438	-0.836920	0.927337	1.032399	-0.263937	-9.109694	-0.530297	0.514701	-0.533427	0.411491
60314	-1.437336	-1.567169	1.150070	1.189088	1.285512	-8.146161	-0.542112	0.501801	-0.543095	0.399197
60315	-2.981588	-2.663145	1.291196	1.305711	2.487180	-6.689596	-0.559049	0.485675	-0.552227	0.382922
60316	-3.333201	-2.766042	1.427473	1.382240	2.622138	-6.347709	-0.578088	0.468069	-0.560048	0.364789
60317	-3.670592	-2.147743	1.638840	1.445730	2.950551	-6.655261	-0.596767	0.449917	-0.566766	0.346727
60318	-4.795778	-1.945355	1.741629	1.349998	3.864781	-6.200628	-0.615342	0.429553	-0.573972	0.327711
60319	-7.181416	-2.896316	1.807384	1.146368	5.271503	-3.973918	-0.635439	0.404200	-0.582762	0.305333
60320	-10.279154	-4.078960	2.097724	1.017309	6.769162	-0.882160	-0.657577	0.374664	-0.591090	0.278985
60321	-11.844224	-4.019609	2.522618	1.035627	7.276600	0.612132	-0.678929	0.345973	-0.596478	0.252135
60322	-12.434185	-3.626349	2.938015	1.096032	7.154917	1.318580	-0.697734	0.321225	-0.598754	0.226882
60323	-14.501545	-3.866019	3.171894	0.690307	7.570244	3.506624	-0.715706	0.298257	-0.598393	0.201824
60324	-16.160526	-4.690317	3.139274	-0.012361	6.926041	5.835928	-0.735130	0.273043	-0.595384	0.174781
60325	-15.593226	-4.701030	3.117802	-0.370238	5.314089	5.885090	-0.754292	0.245351	-0.590915	0.147193
60326	-15.495490	-3.976789	3.361883	-0.573797	4.617093	5.853182	-0.770496	0.216565	-0.587362	0.120169
60327	-15.872405	-3.623040	3.598884	-0.779072	3.819575	6.393954	-0.783014	0.187069	-0.585826	0.093283
60328	-16.709898	-4.227918	3.951200	-0.827781	2.243116	7.703425	-0.792269	0.156364	-0.585970	0.067084
60329	-17.673265	-5.031608	4.279893	-0.846784	0.343564	9.027562	-0.799239	0.125136	-0.586259	0.043103
60330	-18.162405	-5.450321	4.343052	-1.001807	-1.419667	9.558624	-0.805019	0.094838	-0.585202	0.022100
60331	-17.424780	-5.049597	4.266024	-1.016146	-2.457879	8.629806	-0.810265	0.069132	-0.581963	0.003312
60332	-16.318002	-5.290739	3.606232	-1.441708	-3.904025	7.213191	-0.815130	0.049591	-0.576984	-0.013898
60333	-14.903670	-5.530585	2.737763	-1.941712	-5.043933	5.384355	-0.819724	0.035892	-0.570873	-0.029479
60334	-13.268041	-5.746359	2.021038	-2.164088	-5.849346	3.386860	-0.823543	0.026597	-0.565015	-0.042756
60335	-11.974731	-5.679235	1.712380	-2.069510	-6.113994	1.888083	-0.825800	0.020487	-0.561104	-0.052888
60336	-11.056313	-5.445485	1.689285	-1.796298	-6.043449	0.910947	-0.826177	0.016076	-0.560100	-0.058825
60337	-10.650767	-4.825693	1.927811	-1.471021	-5.496714	0.582695	-0.824924	0.012036	-0.561863	-0.060552
60338	-10.584005	-3.939853	2.263157	-1.185808	-4.647942	0.658968	-0.822773	0.007510	-0.565255	-0.058948
60339	-10.319676	-2.734145	2.787623	-0.664859	-3.423109	0.655450	-0.820113	0.002900	-0.569490	-0.055567
60340	-10.118231	-1.813635	3.110210	-0.296110	-2.491006	0.629907	-0.817212	-0.000866	-0.573964	-0.052232
60341	-9.672807	-1.401961	3.194550	-0.011449	-2.054252	0.262680	-0.814343	-0.003527	-0.578206	-0.050117
60342	-9.582688	-1.425304	3.144657	0.061093	-2.089500	0.156158	-0.811741	-0.005498	-0.581904	-0.049329
60343	-9.634252	-1.550739	3.091683	0.079352	-2.245750	0.173903	-0.809733	-0.007363	-0.584663	-0.049472
60344	-9.359233	-1.567246	2.951211	0.084229	-2.279152	-0.140085	-0.808435	-0.009437	-0.586353	-0.050336
60345	-9.045255	-1.507621	2.826248	0.090765	-2.237269	-0.481910	-0.807566	-0.010796	-0.587351	-0.052348
60346	-8.978870	-1.968826	2.621054	-0.025757	-2.737545	-0.654559	-0.806950	-0.011425	-0.587941	-0.055008
60347	-9.339371	-2.434949	2.539849	-0.154160	-3.277031	-0.387147	-0.806594	-0.011993	-0.588199	-0.057310
60348	-9.549235	-2.607382	2.567614	-0.164517	-3.499838	-0.205244	-0.806480	-0.012809	-0.588217	-0.058538
60349	-9.488080	-2.652732	2.541183	-0.168432	-3.559154	-0.282614	-0.806544	-0.013788	-0.588124	-0.058361
60350	-9.502512	-2.298196	2.696332	-0.059034	-3.207727	-0.192052	-0.806649	-0.014494	-0.588068	-0.057310
60351	-9.401673	-2.287120	2.780512	0.042964	-3.173930	-0.258740	-0.806679	-0.014432	-0.588151	-0.056026
60352	-9.576045	-2.600751	2.987432	0.207417	-3.473470	-0.051479	-0.806605	-0.013786	-0.588424	-0.054357
60353	-10.099055	-3.003196	3.192241	0.267593	-3.878765	0.487012	-0.806752	-0.012849	-0.588523	-0.051259
60354	-10.377180	-3.408845	3.388412	0.368707	-4.235807	0.803746	-0.807384	-0.011738	-0.588103	-0.046139
60355	-10.643812	-3.709945	3.537444	0.382530	-4.462865	1.119046	-0.808740	-0.010900	-0.586775	-0.038925
60356	-10.227541	-4.416101	3.826241	0.713753	-5.022852	0.817638	-0.810338	-0.010397	-0.585097	-0.030098
60357	-10.551692	-4.724025	4.348553	0.998713	-5.229810	1.332417	-0.811625	-0.010576	-0.583755	-0.019598
60358	-11.065069	-4.855666	4.665689	1.004469	-5.253785	1.984208	-0.812969	-0.010599	-0.582158	-0.007775
60359	-11.439301	-5.359762	4.919679	0.956658	-5.613042	2.490170	-0.814754	-0.010470	-0.579687	0.005419
60360	-12.203351	-6.054132	5.008277	0.542882	-6.113001	3.339565	-0.817459	-0.010310	-0.575514	0.020918
60361	-12.830509	-6.561723	4.870289	-0.166143	-6.337228	4.014344	-0.821431	-0.011045	-0.568790	0.040093
60362	-12.661531	-5.421642	5.040275	-0.290740	-4.904171	4.005781	-0.826191	-0.012289	-0.559846	0.061881
60363	-12.440766	-4.803982	5.088000	-0.532096	-3.956387	3.890417	-0.830831	-0.011753	-0.550092	0.083545
60364	-12.573290	-5.115588	5.055660	-1.071703	-3.835182	4.113180	-0.835001	-0.009354	-0.540164	0.104450
60365	-13.452829	-6.031700	5.160958	-1.915733	-4.124339	5.129726	-0.838822	-0.006623	-0.529500	0.126345
60366	-14.153504	-7.185320	5.162669	-2.964830	-4.512091	5.979422	-0.842565	-0.004887	-0.516579	0.152333
60367	-14.073563	-6.013911	5.801797	-2.656857	-2.829561	6.085508	-0.845612	-0.004604	-0.501160	0.183730
60368	-13.890524	-4.016354	6.431789	-1.951093	-0.392964	5.884954	-0.847593	-0.002426	-0.484465	0.216502
60369	-13.148402	-3.239530	6.739490	-1.515410	0.745111	5.216719	-0.848606	0.002906	-0.467542	0.247516
60370	-12.695425	-4.126988	6.852339	-1.962824	0.531699	5.052105	-0.848502	0.009903	-0.450803	0.276990
60371	-13.169884	-4.847519	6.876857	-2.847498	0.972949	5.520457	-0.847417	0.015737	-0.432447	0.307613
60372	-12.946673	-4.351827	7.033441	-2.759556	2.084063	5.153540	-0.845438	0.020135	-0.411339	0.340042
60373	-12.282915	-3.321695	7.291858	-2.070066	3.256228	4.333654	-0.842403	0.023686	-0.388073	0.373089
60374	-11.537367	-2.164657	7.609072	-1.137041	4.286876	3.452719	-0.838661	0.027547	-0.363664	0.404520
60375	-10.510092	-1.496593	8.017401	-0.263804	4.577932	2.673873	-0.834347	0.032425	-0.339980	0.432697
60376	-9.617010	-1.380928	8.310994	0.146262	4.493977	2.154709	-0.829582	0.038705	-0.318282	0.457157
60377	-9.338475	-1.440948	8.566955	0.205272	4.720370	2.033158	-0.824389	0.046753	-0.298662	0.478538
60378	-8.985496	-1.774591	8.628065	0.005973	4.770923	1.829564	-0.818931	0.056528	-0.280220	0.497628
60379	-8.628843	-2.277543	8.568147	-0.382536	4.764507	1.597034	-0.813320	0.067172	-0.261939	0.515157
60380	-7.853072	-2.942704	8.494555	-0.797942	4.324042	1.283529	-0.807471	0.076902	-0.242721	0.532131
60381	-7.392373	-2.744558	8.548059	-0.594445	4.492562	0.896534	-0.801259	0.084784	-0.221988	0.549106
60382	-7.386561	-2.442986	8.307631	-0.596441	5.106266	0.340716	-0.795016	0.091660	-0.199374	0.565507
60383	-6.528477	-2.417893	7.991989	-0.646367	4.791322	-0.381850	-0.788991	0.097514	-0.174466	0.580987
60384	-5.413137	-1.867628	7.744909	-0.166479	4.321796	-1.207489	-0.782799	0.102174	-0.148734	0.595538
60385	-4.623373	-1.193570	7.748390	0.436639	4.097228	-1.698152	-0.776333	0.106474	-0.123724	0.608820
60386	-3.688704	-0.813589	7.708404	0.801767	3.588557	-2.056612	-0.769713	0.110868	-0.100358	0.620628
60387	-3.083031	-0.821616	7.779544	0.772605	3.277971	-2.108773	-0.763009	0.115032	-0.078626	0.631191
60388	-2.493324	-0.712877	7.897218	0.852764	2.985060	-2.102617	-0.756593	0.118388	-0.058097	0.640450
60389	-2.373704	-0.639697	7.729376	0.737252	3.102675	-2.355514	-0.750611	0.121277	-0.037784	0.648420
60390	-1.755379	-0.404898	7.486022	0.842140	2.723263	-2.660512	-0.744862	0.124229	-0.017374	0.655321
60391	-1.157871	-0.287701	7.251328	0.830182	2.329697	-2.892976	-0.739412	0.126840	0.002474	0.661192
60392	-0.859452	-0.001848	7.149426	0.967695	2.246502	-3.040367	-0.734272	0.128923	0.021681	0.666148
60393	-0.665106	0.543081	7.108639	1.363837	2.277999	-3.163172	-0.729410	0.131026	0.039988	0.670220
60394	-0.325512	0.935977	6.778974	1.609813	2.073326	-3.484775	-0.725019	0.134359	0.057120	0.673076
60395	0.121484	0.828906	6.164931	1.374048	1.643454	-3.971781	-0.721138	0.139227	0.072960	0.674724
60396	0.409353	0.504087	5.530680	0.938483	1.325692	-4.486393	-0.717650	0.144872	0.087860	0.675479
60397	0.468982	0.292492	4.815768	0.616242	1.173296	-5.150186	-0.714334	0.150526	0.102233	0.675735
60398	0.525780	0.378119	3.934434	0.602166	0.938587	-5.984576	-0.710867	0.156377	0.116361	0.675777
60399	0.947126	0.790433	3.219713	0.964684	0.397983	-6.526574	-0.707087	0.162789	0.130050	0.675733
60400	1.590616	0.929470	2.674408	1.086211	-0.318180	-6.768889	-0.703177	0.169565	0.142223	0.675694
60401	2.333289	0.385064	2.351997	0.541509	-1.068922	-6.700125	-0.699690	0.175437	0.152239	0.675632
60402	2.584978	-0.160786	2.403475	-0.019854	-1.223232	-6.497933	-0.696942	0.178668	0.160618	0.675686
60403	3.268992	-0.312921	2.884339	-0.177573	-1.566090	-5.736026	-0.694927	0.178519	0.167403	0.676154
60404	3.564733	-0.273778	3.638179	-0.178574	-1.449616	-4.925458	-0.693468	0.174993	0.172348	0.677330
60405	3.626633	0.096469	4.640259	0.116343	-1.030458	-4.014600	-0.692316	0.169197	0.175946	0.679054
60406	3.673861	0.749687	5.822363	0.663844	-0.538752	-2.940469	-0.691287	0.162561	0.178235	0.681123
60407	3.655674	1.674018	6.908559	1.472541	-0.055698	-1.956341	-0.689879	0.157045	0.178957	0.683651
60408	3.711583	2.501587	7.571069	2.217324	0.152052	-1.302997	-0.687735	0.154229	0.178457	0.686576
60409	4.382593	2.441014	7.762262	2.123190	-0.408182	-0.826936	-0.685800	0.153772	0.177112	0.688958
60410	4.598563	1.874904	7.782620	1.559575	-0.624082	-0.734725	-0.685111	0.154054	0.175629	0.689960
60411	4.626639	1.387773	7.856911	1.084734	-0.636429	-0.675892	-0.685676	0.153793	0.174454	0.689756
60412	4.688118	0.908103	7.834699	0.614465	-0.726508	-0.686892	-0.686921	0.152452	0.173403	0.689079
60413	4.695105	0.703945	8.075424	0.399192	-0.668241	-0.477491	-0.688506	0.149659	0.172227	0.688404
60414	4.422540	0.920475	8.516232	0.587682	-0.290297	-0.194878	-0.690219	0.146013	0.170559	0.687887
60415	4.249905	1.142495	9.015340	0.783804	0.011208	0.188735	-0.691702	0.143335	0.168128	0.687558
60416	4.178513	0.928788	9.216625	0.579551	0.096034	0.332429	-0.692893	0.142455	0.165380	0.687208
60417	4.141520	0.519092	9.262336	0.207225	0.101872	0.344032	-0.694054	0.142910	0.162939	0.686525
60418	3.915969	0.022514	9.189193	-0.245827	0.247552	0.170035	-0.695264	0.143617	0.161398	0.685516
60419	4.034854	-0.146457	9.048771	-0.381889	0.069642	0.088375	-0.696357	0.143909	0.160849	0.684474
60420	4.174102	-0.163822	8.890326	-0.380601	-0.128942	0.001913	-0.697320	0.143695	0.160571	0.683603
60421	4.137379	-0.155741	8.942146	-0.371583	-0.085870	0.034072	-0.698206	0.142932	0.160228	0.682939
60422	3.950547	-0.111890	9.185713	-0.342859	0.165390	0.179895	-0.699018	0.141672	0.159838	0.682462
60423	3.895862	0.094236	9.478156	-0.156877	0.316381	0.429251	-0.699666	0.140365	0.159473	0.682154
60424	3.957241	0.364189	9.638931	0.101591	0.311363	0.608161	-0.700235	0.139470	0.158973	0.681870
60425	3.897409	0.431070	9.560062	0.177658	0.320257	0.513795	-0.700942	0.139589	0.158055	0.681332
60426	3.912155	0.216351	9.441962	-0.004699	0.244935	0.407013	-0.701529	0.140687	0.156747	0.680805
60427	3.806909	-0.113087	9.176154	-0.289881	0.224480	0.115685	-0.701893	0.142246	0.155615	0.680365
60428	4.056146	-0.225374	8.984930	-0.356803	-0.077306	0.041181	-0.702160	0.143464	0.154923	0.679991
60429	4.127472	-0.224967	8.892224	-0.331465	-0.175808	-0.013836	-0.702378	0.143925	0.154491	0.679767
60430	3.919771	0.020845	8.996666	-0.087233	0.063082	0.000235	-0.702694	0.143726	0.154377	0.679509
60431	3.805741	0.282235	8.999817	0.175105	0.175491	-0.040351	-0.703201	0.143896	0.154121	0.679006
60432	3.829123	0.078153	8.874912	-0.007205	0.100222	-0.147172	-0.703480	0.145168	0.153489	0.678589
60433	3.948849	-0.436915	8.728344	-0.488837	-0.078468	-0.235469	-0.703559	0.146422	0.152925	0.678365
60434	3.986767	-0.396914	8.679332	-0.431195	-0.124496	-0.263802	-0.703606	0.146779	0.152844	0.678258
60435	4.017223	-0.012294	8.645798	-0.043548	-0.150432	-0.280451	-0.703742	0.146561	0.152903	0.678150
60436	4.081993	0.172835	8.665305	0.144342	-0.199283	-0.235658	-0.703913	0.146450	0.152473	0.678094
60437	4.207911	-0.029244	8.631707	-0.044505	-0.347020	-0.216266	-0.704223	0.146263	0.151550	0.678019
60438	3.991713	-0.036354	8.792044	-0.052481	-0.102414	-0.157541	-0.704554	0.145787	0.150597	0.677990
60439	3.702192	0.083344	8.953109	0.062206	0.215866	-0.126572	-0.704829	0.145612	0.149879	0.677901
60440	3.655317	0.006307	8.876113	-0.006346	0.217204	-0.215837	-0.705161	0.145784	0.149487	0.677605
60441	4.032544	-0.249965	8.715552	-0.238988	-0.206915	-0.211396	-0.705382	0.145712	0.149171	0.677460
60442	3.877621	-0.221466	8.787353	-0.217769	-0.046247	-0.207846	-0.705657	0.144881	0.148811	0.677431
60443	3.771442	0.170454	8.945712	0.162884	0.112638	-0.104992	-0.705945	0.144034	0.148311	0.677421
60444	3.817091	0.208795	8.944607	0.207924	0.055285	-0.087799	-0.706175	0.143972	0.147324	0.677411
60445	3.959158	-0.132250	8.868685	-0.111823	-0.134355	-0.101076	-0.706385	0.143943	0.146234	0.677433
60446	4.007891	-0.351115	8.963871	-0.324305	-0.168943	0.005852	-0.706674	0.143022	0.145689	0.677445
60447	4.043533	-0.114132	9.289148	-0.105752	-0.086591	0.318091	-0.707068	0.141231	0.145869	0.677370
60448	3.957189	0.319417	9.572864	0.294214	0.098866	0.546110	-0.707470	0.139576	0.145993	0.677267
60449	3.902047	0.598753	9.581098	0.559346	0.150270	0.533639	-0.707872	0.139261	0.145786	0.676956
60450	4.107430	0.265456	9.294184	0.258026	-0.167206	0.347463	-0.708243	0.140468	0.144747	0.676542
60451	4.035100	-0.418982	9.170396	-0.394280	-0.180624	0.205575	-0.708668	0.141331	0.143578	0.676166
60452	3.886220	-0.669649	9.107318	-0.634482	-0.089287	0.091040	-0.709207	0.140756	0.143144	0.675813
60453	3.716460	-0.242271	9.277120	-0.228230	0.138389	0.180532	-0.709664	0.139426	0.143526	0.675528
60454	3.788610	0.130696	9.306417	0.128976	0.090806	0.234956	-0.709957	0.138599	0.143867	0.675317
60455	3.788913	0.127264	9.284653	0.120016	0.077411	0.215096	-0.710157	0.138589	0.143734	0.675137
60456	3.688638	-0.080965	9.248047	-0.081793	0.144067	0.142789	-0.710269	0.139177	0.143098	0.675034
60457	3.661037	-0.083990	9.161130	-0.063964	0.138058	0.052066	-0.710221	0.140179	0.142358	0.675034
60458	3.665753	-0.107589	8.990502	-0.057199	0.073684	-0.103431	-0.710082	0.141653	0.141472	0.675058
60459	3.916142	-0.241537	8.773886	-0.145332	-0.237858	-0.205513	-0.709924	0.143137	0.140604	0.675092
60460	3.925920	-0.447156	8.734992	-0.327274	-0.266728	-0.234869	-0.709823	0.143733	0.140030	0.675192
60461	3.754202	-0.332216	8.908090	-0.219004	-0.036980	-0.142676	-0.709844	0.143336	0.140267	0.675204
60462	3.677609	0.315956	9.081921	0.413981	0.131780	-0.018957	-0.709782	0.143062	0.140703	0.675237
60463	3.727346	0.511694	9.062818	0.614545	0.094168	-0.019677	-0.709727	0.143966	0.140500	0.675145
60464	3.988409	0.133088	8.838121	0.275641	-0.242717	-0.122357	-0.709796	0.145466	0.139462	0.674966
60465	3.797699	-0.118678	8.789771	0.050289	-0.094587	-0.237454	-0.709933	0.146754	0.138066	0.674831
60466	3.746878	-0.147249	8.872884	0.052718	-0.019276	-0.180158	-0.709921	0.147742	0.136727	0.674900
60467	3.687279	0.158609	9.029689	0.383610	0.107091	-0.066007	-0.709769	0.148595	0.135646	0.675091
60468	3.622727	0.525047	8.997880	0.770789	0.171453	-0.130843	-0.709589	0.149663	0.134859	0.675201
60469	3.472402	0.957336	8.887991	1.220774	0.293962	-0.305129	-0.709224	0.151266	0.134103	0.675378
60470	3.522819	1.232052	8.612229	1.528564	0.165164	-0.553381	-0.708808	0.153427	0.133165	0.675513
60471	3.394886	1.420812	8.449980	1.745262	0.242212	-0.766065	-0.708384	0.155572	0.132278	0.675642
60472	3.196546	1.683209	8.344247	2.024686	0.409059	-0.957700	-0.707950	0.157278	0.131998	0.675757
60473	2.903704	2.515565	8.284409	2.854215	0.704484	-1.166988	-0.707408	0.158531	0.132555	0.675922
60474	3.324383	3.224894	8.081148	3.582548	0.285957	-1.219670	-0.706888	0.159668	0.133520	0.676009
60475	3.911523	3.622451	7.933887	3.999834	-0.277091	-1.135519	-0.707018	0.159615	0.134505	0.675690
60476	3.831008	3.771927	8.089756	4.125937	-0.127836	-1.020168	-0.708411	0.157260	0.135540	0.674576
60477	3.211629	4.216887	8.467051	4.493869	0.609154	-0.912055	-0.710984	0.152980	0.137270	0.672500
60478	2.845960	4.768873	8.758066	4.950137	1.096205	-0.766194	-0.714337	0.148064	0.139643	0.669552
60479	3.054163	5.276898	8.962207	5.384777	1.045211	-0.463594	-0.718330	0.143571	0.142299	0.665688
60480	3.029931	5.213008	9.009991	5.238081	1.128762	-0.388068	-0.723210	0.139316	0.144679	0.660777
60481	2.531384	5.250214	9.173304	5.145530	1.712110	-0.393916	-0.729149	0.134781	0.147059	0.654637
60482	2.344768	5.330960	9.156320	5.117627	1.960023	-0.446679	-0.736148	0.130312	0.149402	0.647135
60483	2.402632	6.045631	9.285545	5.743885	2.144733	-0.275912	-0.744086	0.126560	0.150686	0.638445
60484	2.432408	5.867942	9.288933	5.518987	2.202344	-0.256385	-0.753325	0.123824	0.150035	0.628219
60485	1.824573	5.228916	9.506092	4.740731	2.828202	-0.296272	-0.764074	0.121342	0.148035	0.616078
60486	1.023526	4.506382	9.703012	3.814462	3.567787	-0.419959	-0.775773	0.118888	0.145865	0.602299
60487	0.537848	4.130892	10.024086	3.235417	4.112585	-0.301993	-0.788055	0.116592	0.144024	0.587054
60488	0.524179	3.578315	9.967153	2.619148	4.029489	-0.361476	-0.800748	0.114850	0.142171	0.570438
60489	0.399640	3.075721	10.188304	1.998507	4.116020	-0.195781	-0.813776	0.113048	0.139631	0.552713
60490	-0.184789	2.648613	10.508045	1.270648	4.608739	-0.085795	-0.826996	0.111232	0.136550	0.533909
60491	-0.590082	2.235627	10.762923	0.597933	4.875070	0.039308	-0.840353	0.109592	0.133410	0.513807
60492	-0.880641	1.425071	10.892194	-0.386320	4.768393	0.114952	-0.853648	0.108043	0.130586	0.492504
60493	-1.344757	0.860804	11.140132	-1.263993	4.876568	0.250653	-0.866625	0.106031	0.128449	0.470340
60494	-1.504207	0.383541	10.900643	-1.871299	4.577868	0.024603	-0.879080	0.104267	0.127254	0.447384
60495	-1.294684	-0.396106	10.693901	-2.497041	3.785531	-0.033914	-0.891141	0.102449	0.126338	0.423568
60496	-1.670234	-1.137193	10.861286	-3.443795	3.472762	0.093162	-0.902674	0.099334	0.125057	0.399590
60497	-2.252210	-1.040495	11.097201	-3.907156	3.774851	0.176338	-0.913566	0.095158	0.123795	0.375523
60498	-2.202791	-1.086291	10.867183	-3.995277	3.401073	0.015454	-0.923743	0.091576	0.122567	0.351127
60499	-2.205398	-1.644348	10.673843	-4.432375	2.695450	-0.087385	-0.933178	0.088773	0.121178	0.326517
60500	-1.718848	-2.071614	10.759542	-4.389541	1.850645	0.203086	-0.941652	0.085778	0.119389	0.302787
60501	-2.330657	-1.532131	11.443361	-4.700304	2.523896	0.687844	-0.949257	0.082531	0.117516	0.279803
60502	-2.739801	-1.346319	11.390419	-4.977107	2.624248	0.550570	-0.956267	0.080526	0.116448	0.255946
60503	-2.681395	-2.093407	10.851214	-5.259124	1.603682	0.141517	-0.962571	0.079563	0.116462	0.231437
60504	-1.732188	-3.210174	10.422927	-4.871812	-0.106663	0.096534	-0.968081	0.077399	0.116764	0.207833
60505	-1.235487	-3.027997	10.469135	-4.322040	-0.374299	0.260633	-0.973064	0.071739	0.116640	0.185460
60506	-1.600376	-2.126866	10.864259	-4.365998	0.363440	0.478811	-0.977689	0.064349	0.116364	0.162615
60507	-2.298120	-2.070207	11.069200	-5.026422	0.339131	0.517130	-0.981744	0.057399	0.116154	0.139257
