// General information: 
//  MT Manager version: 2021.0.0 
//  XDA version: 2021.0.0 build 5908 rev 109668 built on 2021-04-19
// Device information: 
//  DeviceId: 00B43DF1
//  ProductCode: MTW2-3A7G6
//  Firmware Version: 4.3.5
//  Hardware Version: 1.1.0
// Device settings: 
//  Filter Profile: human(46.1)
//  Option Flags: Orientation Smoother Disabled, Position/Velocity Smoother Disabled, Continuous Zero Rotation Update Disabled, AHS Disabled, ICC Disabled
// Coordinate system: ENU
PacketCounter	Acc_X	Acc_Y	Acc_Z	FreeAcc_E	FreeAcc_N	FreeAcc_U	Quat_q0	Quat_q1	Quat_q2	Quat_q3
59330	0.044205	9.607092	5.445614	-0.480628	-0.367601	1.213945	0.114697	0.090733	-0.485044	-0.862174
59331	-0.094569	9.650746	5.508308	-0.378854	-0.263858	1.290197	0.115419	0.091862	-0.486328	-0.861235
59332	-0.168243	9.403037	5.529780	-0.357432	-0.069290	1.091038	0.116492	0.092959	-0.487619	-0.860242
59333	-0.234574	8.949816	5.452523	-0.333754	0.146063	0.663541	0.117910	0.093962	-0.489144	-0.859073
59334	-0.363592	8.638551	5.228631	-0.189789	0.195012	0.287863	0.119453	0.094775	-0.490960	-0.857734
59335	-0.417796	8.412423	5.026156	-0.110733	0.200309	-0.006919	0.120893	0.095404	-0.492869	-0.856366
59336	-0.408219	8.298319	4.893947	-0.099812	0.187570	-0.172450	0.122131	0.096072	-0.494658	-0.855084
59337	-0.520933	8.227727	4.835536	0.009045	0.246008	-0.258182	0.123068	0.096757	-0.496135	-0.854015
59338	-0.591624	8.309762	4.771948	0.095483	0.208540	-0.214720	0.123597	0.097294	-0.497417	-0.853132
59339	-0.552798	8.365823	4.782621	0.053354	0.205837	-0.162777	0.123686	0.097594	-0.498533	-0.852433
59340	-0.508850	8.587492	4.790192	0.026091	0.118072	0.032881	0.123345	0.097665	-0.499566	-0.851869
59341	-0.372938	8.705795	4.821337	-0.105632	0.065505	0.145212	0.122665	0.097428	-0.500352	-0.851533
59342	-0.281942	8.792131	4.825703	-0.188832	0.016640	0.218889	0.121733	0.097016	-0.501127	-0.851258
59343	-0.268771	8.818033	4.868491	-0.214905	0.050912	0.261207	0.120657	0.096439	-0.501834	-0.851061
59344	-0.254111	8.747981	4.885857	-0.244546	0.107956	0.206887	0.119497	0.095834	-0.502612	-0.850833
59345	-0.271674	8.677542	4.821516	-0.220154	0.108562	0.115066	0.118241	0.095167	-0.503493	-0.850563
59346	-0.289898	8.685390	4.741100	-0.182856	0.061589	0.084828	0.116911	0.094471	-0.504467	-0.850247
59347	-0.276182	8.767272	4.738076	-0.191183	0.037361	0.154895	0.115511	0.093742	-0.505502	-0.849904
59348	-0.236918	8.807133	4.700249	-0.219424	-0.004025	0.170591	0.114110	0.093098	-0.506491	-0.849575
59349	-0.200173	8.929368	4.634786	-0.230240	-0.106868	0.246660	0.112767	0.092466	-0.507378	-0.849294
59350	-0.143909	9.027706	4.608523	-0.273217	-0.173476	0.319139	0.111562	0.091940	-0.508145	-0.849052
59351	-0.014287	9.085457	4.646375	-0.407181	-0.191522	0.382019	0.110511	0.091423	-0.508710	-0.848907
59352	0.041952	9.155880	4.600054	-0.445336	-0.269048	0.420674	0.109675	0.091010	-0.509089	-0.848833
59353	0.073331	9.126566	4.501763	-0.453012	-0.342380	0.348169	0.109147	0.090655	-0.509256	-0.848839
59354	0.048293	9.041323	4.416385	-0.413198	-0.365770	0.234591	0.108969	0.090443	-0.509400	-0.848797
59355	0.058764	8.928072	4.399172	-0.427106	-0.329766	0.125898	0.109086	0.090363	-0.509442	-0.848766
59356	0.003731	8.831048	4.425994	-0.388019	-0.248912	0.054648	0.109504	0.090511	-0.509243	-0.848816
59357	-0.109457	8.660401	4.507960	-0.314981	-0.076468	-0.054042	0.110117	0.090808	-0.508825	-0.848955
59358	-0.212294	8.492828	4.513682	-0.231622	0.024912	-0.195399	0.110801	0.091196	-0.508376	-0.849094
59359	-0.337671	8.493769	4.557212	-0.122100	0.089171	-0.168858	0.111434	0.091565	-0.508005	-0.849193
59360	-0.367139	8.569039	4.595585	-0.097633	0.089694	-0.083091	0.111890	0.091975	-0.507731	-0.849253
59361	-0.391874	8.650538	4.585892	-0.065741	0.047748	-0.014260	0.112187	0.092329	-0.507604	-0.849251
59362	-0.331646	8.772084	4.636107	-0.128929	0.016084	0.113846	0.112418	0.092695	-0.507578	-0.849196
59363	-0.194693	8.898284	4.525522	-0.221256	-0.173147	0.168233	0.112715	0.093096	-0.507659	-0.849065
59364	-0.277261	8.904486	4.492229	-0.137067	-0.176078	0.162135	0.113097	0.093580	-0.507890	-0.848822
59365	-0.315428	9.056389	4.468660	-0.084194	-0.247080	0.287731	0.113480	0.094001	-0.508180	-0.848551
59366	-0.226699	9.102843	4.479975	-0.171529	-0.279072	0.330094	0.113972	0.094484	-0.508291	-0.848365
59367	-0.255045	9.061572	4.459404	-0.145870	-0.266724	0.285382	0.114623	0.095054	-0.508322	-0.848195
59368	-0.263639	9.038809	4.463020	-0.143652	-0.248864	0.267271	0.115388	0.095665	-0.508343	-0.848010
59369	-0.344123	8.991334	4.472656	-0.077220	-0.193302	0.233397	0.116250	0.096384	-0.508358	-0.847802
59370	-0.373235	8.992615	4.519837	-0.065676	-0.145197	0.257564	0.117146	0.097075	-0.508202	-0.847693
59371	-0.480620	8.936331	4.514671	0.030306	-0.094319	0.210358	0.118077	0.097812	-0.507951	-0.847630
59372	-0.529680	8.900420	4.581504	0.051749	-0.010074	0.211555	0.118989	0.098505	-0.507743	-0.847546
59373	-0.550591	8.791672	4.602486	0.053508	0.059929	0.125777	0.119830	0.099041	-0.507482	-0.847522
59374	-0.550880	8.688494	4.593824	0.045642	0.096736	0.030340	0.120598	0.099533	-0.507324	-0.847450
59375	-0.630210	8.592232	4.634230	0.098797	0.196890	-0.032545	0.121267	0.099955	-0.507160	-0.847403
59376	-0.766342	8.374237	4.590494	0.218291	0.300268	-0.239289	0.121736	0.100243	-0.507111	-0.847331
59377	-0.870927	8.309249	4.607428	0.305213	0.378900	-0.284109	0.121934	0.100349	-0.507295	-0.847180
59378	-0.929556	8.330321	4.608220	0.361428	0.395374	-0.262449	0.121781	0.100296	-0.507742	-0.846940
59379	-0.970806	8.569875	4.665149	0.406087	0.358065	-0.022095	0.121282	0.100043	-0.508293	-0.846712
59380	-0.939993	8.781480	4.757567	0.368779	0.341537	0.206283	0.120534	0.099645	-0.508875	-0.846516
59381	-0.901473	9.022926	4.829806	0.334109	0.293480	0.451576	0.119509	0.098954	-0.509543	-0.846340
59382	-0.922670	9.132517	4.704478	0.404023	0.158165	0.492555	0.118281	0.097906	-0.510260	-0.846203
59383	-0.889122	9.247237	4.723570	0.382984	0.126473	0.601310	0.116853	0.096578	-0.511068	-0.846066
59384	-0.810480	9.173362	4.651237	0.330807	0.087674	0.498680	0.115277	0.094882	-0.511747	-0.846064
59385	-0.702520	9.096961	4.533147	0.267393	0.000962	0.371915	0.113657	0.092940	-0.512397	-0.846105
59386	-0.598081	8.954556	4.437226	0.197099	-0.037402	0.196832	0.112021	0.090837	-0.512967	-0.846206
59387	-0.602252	8.776014	4.410054	0.210239	0.028316	0.025233	0.110408	0.088637	-0.513452	-0.846357
59388	-0.457093	8.645087	4.336935	0.097858	-0.009973	-0.130448	0.108821	0.086462	-0.513855	-0.846543
59389	-0.453908	8.660320	4.283416	0.128708	-0.060725	-0.141361	0.107345	0.084507	-0.513927	-0.846886
59390	-0.415787	8.661441	4.351530	0.092036	-0.013372	-0.111111	0.105690	0.082439	-0.514120	-0.847180
59391	-0.356968	8.725630	4.422128	0.040703	0.008802	-0.024046	0.103928	0.080278	-0.514720	-0.847241
59392	-0.203198	8.814206	4.223326	-0.033004	-0.230086	-0.039564	0.102281	0.078099	-0.515321	-0.847280
59393	-0.006134	9.071082	4.182824	-0.172910	-0.417061	0.166125	0.100780	0.075987	-0.515935	-0.847278
59394	0.199256	9.171161	4.143182	-0.335928	-0.537599	0.232907	0.099652	0.074153	-0.516204	-0.847410
59395	0.316620	9.125854	4.165499	-0.442384	-0.522909	0.200488	0.098969	0.072721	-0.516291	-0.847562
59396	0.327237	9.096105	4.185501	-0.444715	-0.491188	0.183591	0.098782	0.071683	-0.516449	-0.847576
59397	0.346819	9.165114	4.275797	-0.463235	-0.444253	0.286326	0.099064	0.070968	-0.516536	-0.847550
59398	0.341404	9.144657	4.255297	-0.439509	-0.449581	0.259728	0.099849	0.070507	-0.516453	-0.847546
59399	0.336850	9.090905	4.351862	-0.445751	-0.343006	0.256094	0.100958	0.070294	-0.516201	-0.847586
59400	0.328770	9.006620	4.313572	-0.421513	-0.342475	0.164247	0.102335	0.070335	-0.515751	-0.847692
59401	0.347622	8.973503	4.234946	-0.410647	-0.410434	0.099035	0.103969	0.070710	-0.515100	-0.847857
59402	0.158328	8.904686	4.235351	-0.222863	-0.344212	0.040664	0.105696	0.071312	-0.514415	-0.848009
59403	0.211806	9.019180	4.313986	-0.271755	-0.356455	0.177307	0.107463	0.072110	-0.513521	-0.848262
59404	0.227358	8.972230	4.475520	-0.322950	-0.221173	0.208771	0.109384	0.073121	-0.512462	-0.848570
59405	0.196070	8.771611	4.528860	-0.321809	-0.099126	0.055279	0.111500	0.074266	-0.511440	-0.848812
59406	0.091213	8.702516	4.558592	-0.230412	-0.034381	0.009154	0.113711	0.075418	-0.510452	-0.849012
59407	0.051878	8.670538	4.581816	-0.197077	-0.006500	-0.007839	0.115916	0.076606	-0.509627	-0.849103
59408	0.039095	8.676138	4.633061	-0.193533	0.023150	0.021139	0.118052	0.077824	-0.508820	-0.849182
59409	-0.048110	8.592533	4.679757	-0.129816	0.110230	-0.029792	0.120108	0.079062	-0.508003	-0.849268
59410	-0.025212	8.603583	4.682628	-0.150031	0.087365	-0.018856	0.122044	0.080249	-0.507294	-0.849305
59411	-0.042315	8.597884	4.677068	-0.132705	0.078289	-0.026135	0.123887	0.081447	-0.506651	-0.849307
59412	-0.118678	8.605704	4.692841	-0.063950	0.099398	-0.010596	0.125590	0.082616	-0.506005	-0.849330
59413	-0.123647	8.642561	4.687504	-0.054870	0.068924	0.019610	0.127115	0.083734	-0.505422	-0.849340
59414	-0.155571	8.662646	4.689578	-0.025275	0.061527	0.038878	0.128432	0.084785	-0.504905	-0.849345
59415	-0.155965	8.623846	4.744263	-0.049164	0.116437	0.030437	0.129559	0.085766	-0.504474	-0.849332
59416	-0.170127	8.645212	4.726680	-0.033707	0.089723	0.041294	0.130522	0.086787	-0.504161	-0.849267
59417	-0.192108	8.620794	4.766274	-0.034438	0.136184	0.038842	0.131307	0.087682	-0.503963	-0.849171
59418	-0.252098	8.639187	4.741931	0.024692	0.124098	0.044747	0.131899	0.088457	-0.503869	-0.849055
59419	-0.212765	8.680982	4.742511	-0.014412	0.092888	0.081113	0.132261	0.089072	-0.503892	-0.848920
59420	-0.198733	8.753641	4.722658	-0.019700	0.040188	0.135540	0.132461	0.089617	-0.503971	-0.848785
59421	-0.219332	8.725367	4.689967	-0.002147	0.034030	0.095631	0.132535	0.090091	-0.504074	-0.848662
59422	-0.226508	8.738717	4.659457	0.007173	0.006478	0.093216	0.132469	0.090535	-0.504173	-0.848566
59423	-0.241032	8.758106	4.648006	0.018117	-0.006348	0.105282	0.132330	0.090964	-0.504236	-0.848505
59424	-0.241601	8.824201	4.626697	0.025346	-0.054447	0.153636	0.132137	0.091300	-0.504214	-0.848512
59425	-0.268674	8.866191	4.628593	0.048572	-0.065586	0.192249	0.131891	0.091591	-0.504132	-0.848567
59426	-0.276522	8.859449	4.643406	0.044353	-0.051483	0.193455	0.131632	0.091807	-0.503994	-0.848666
59427	-0.245529	8.792276	4.681472	-0.010478	-0.003696	0.151270	0.131381	0.092015	-0.503855	-0.848765
59428	-0.233164	8.724764	4.654786	-0.028382	-0.003098	0.078829	0.131166	0.092221	-0.503756	-0.848835
59429	-0.265831	8.754823	4.717164	-0.017067	0.042143	0.135536	0.131009	0.092454	-0.503633	-0.848907
59430	-0.250830	8.800521	4.676145	-0.017601	-0.021519	0.156146	0.130850	0.092595	-0.503476	-0.849009
59431	-0.236361	8.780826	4.703793	-0.044988	0.001028	0.151369	0.130725	0.092724	-0.503275	-0.849133
59432	-0.234270	8.730963	4.702400	-0.055130	0.017191	0.106679	0.130628	0.092809	-0.503115	-0.849234
59433	-0.224514	8.699463	4.708162	-0.071641	0.029602	0.081343	0.130545	0.092868	-0.502995	-0.849311
59434	-0.213239	8.697199	4.646562	-0.065586	-0.027406	0.049981	0.130483	0.092913	-0.502858	-0.849397
59435	-0.195461	8.749498	4.673076	-0.084394	-0.038437	0.108047	0.130396	0.092937	-0.502705	-0.849498
59436	-0.171103	8.781980	4.629614	-0.091068	-0.102943	0.115398	0.130341	0.092995	-0.502373	-0.849697
59437	-0.135039	8.783217	4.591759	-0.114544	-0.155257	0.097417	0.130358	0.093151	-0.501952	-0.849926
59438	-0.283882	8.720578	4.555237	0.027844	-0.118386	0.029287	0.130413	0.093378	-0.501599	-0.850101
59439	-0.255921	8.891077	4.653901	-0.008847	-0.131724	0.225146	0.130429	0.093654	-0.501254	-0.850272
59440	-0.216895	8.857183	4.745206	-0.079304	-0.062828	0.237361	0.130581	0.093921	-0.500753	-0.850514
59441	-0.229059	8.732554	4.733481	-0.081034	-0.022394	0.122540	0.130797	0.094190	-0.500277	-0.850731
59442	-0.292653	8.698959	4.775556	-0.038112	0.038700	0.115077	0.131084	0.094459	-0.499873	-0.850895
59443	-0.309077	8.653455	4.779524	-0.029620	0.060296	0.077568	0.131326	0.094657	-0.499530	-0.851036
59444	-0.298598	8.602175	4.748027	-0.036904	0.047832	0.017200	0.131543	0.094877	-0.499238	-0.851150
59445	-0.307620	8.653398	4.744304	-0.021662	0.018237	0.060688	0.131734	0.095110	-0.498989	-0.851240
59446	-0.278143	8.650613	4.749143	-0.052541	0.008422	0.059597	0.131869	0.095312	-0.498726	-0.851351
59447	-0.222628	8.671220	4.733418	-0.099405	-0.038347	0.068279	0.132043	0.095608	-0.498422	-0.851469
59448	-0.268466	8.656726	4.796766	-0.079868	0.028292	0.087452	0.132174	0.095969	-0.498093	-0.851600
59449	-0.314581	8.630461	4.805898	-0.046583	0.056178	0.070386	0.132236	0.096334	-0.497843	-0.851696
59450	-0.333256	8.670698	4.778862	-0.020464	0.016449	0.093316	0.132238	0.096650	-0.497702	-0.851742
59451	-0.339516	8.699557	4.793683	-0.020391	0.013778	0.125942	0.132151	0.096931	-0.497587	-0.851791
59452	-0.364836	8.680758	4.770610	0.003262	0.008452	0.099290	0.132064	0.097170	-0.497471	-0.851845
59453	-0.343203	8.662119	4.763698	-0.021269	0.002379	0.078847	0.131972	0.097305	-0.497461	-0.851850
59454	-0.314051	8.691794	4.777491	-0.052350	-0.010329	0.110391	0.131853	0.097421	-0.497452	-0.851860
59455	-0.330270	8.691670	4.761324	-0.035055	-0.019398	0.103099	0.131733	0.097521	-0.497414	-0.851889
59456	-0.333955	8.649236	4.775519	-0.043601	0.011480	0.072876	0.131601	0.097585	-0.497345	-0.851943
59457	-0.330188	8.612846	4.744192	-0.044761	-0.000147	0.025782	0.131429	0.097664	-0.497330	-0.851969
59458	-0.391508	8.684829	4.710830	0.029339	-0.042008	0.075125	0.131236	0.097726	-0.497339	-0.851986
59459	-0.375419	8.732571	4.748423	0.006048	-0.039121	0.134407	0.130970	0.097714	-0.497352	-0.852021
59460	-0.391312	8.762219	4.745823	0.023154	-0.051080	0.159740	0.130737	0.097727	-0.497314	-0.852077
59461	-0.374246	8.749324	4.758292	0.000263	-0.042417	0.153770	0.130475	0.097621	-0.497239	-0.852174
59462	-0.317270	8.718341	4.779614	-0.064459	-0.030767	0.134661	0.130251	0.097547	-0.497206	-0.852236
59463	-0.312303	8.711596	4.762264	-0.065825	-0.045281	0.120198	0.130068	0.097537	-0.497137	-0.852305
59464	-0.308587	8.710542	4.812227	-0.085438	-0.007146	0.143162	0.129838	0.097457	-0.497058	-0.852395
59465	-0.329546	8.763136	4.790077	-0.053162	-0.046001	0.179361	0.129589	0.097384	-0.496951	-0.852504
59466	-0.351032	8.803263	4.795556	-0.029898	-0.057097	0.217959	0.129351	0.097278	-0.496791	-0.852646
59467	-0.332282	8.771209	4.770322	-0.043571	-0.073323	0.176968	0.129127	0.097145	-0.496616	-0.852796
59468	-0.308896	8.708879	4.860369	-0.099715	0.017783	0.164933	0.128953	0.097072	-0.496420	-0.852945
59469	-0.256291	8.682697	4.742625	-0.117269	-0.088911	0.083057	0.128781	0.097015	-0.496197	-0.853107
59470	-0.271310	8.692234	4.704212	-0.090947	-0.125746	0.073367	0.128549	0.096998	-0.495981	-0.853270
59471	-0.341012	8.803166	4.774734	-0.033616	-0.103065	0.207210	0.128295	0.096952	-0.495783	-0.853429
59472	-0.403300	8.830510	4.759719	0.031667	-0.114255	0.226308	0.128021	0.096961	-0.495548	-0.853605
59473	-0.302714	8.618697	4.799415	-0.102882	-0.019562	0.056304	0.127864	0.097024	-0.495349	-0.853737
59474	-0.319407	8.474287	4.783902	-0.102910	0.038404	-0.076712	0.127693	0.097180	-0.495369	-0.853733
59475	-0.325208	8.749459	4.811251	-0.077014	-0.067673	0.177128	0.127505	0.097345	-0.495367	-0.853743
59476	-0.349868	8.772479	4.854710	-0.067289	-0.037103	0.219316	0.127360	0.097417	-0.495245	-0.853828
59477	-0.332409	8.747162	4.814934	-0.076458	-0.067220	0.177136	0.127286	0.097453	-0.495072	-0.853935
59478	-0.321007	8.613692	4.886716	-0.124255	0.048096	0.094934	0.127316	0.097418	-0.494976	-0.853990
59479	-0.344194	8.577309	4.775746	-0.071526	-0.020055	0.010292	0.127397	0.097305	-0.494913	-0.854028
59480	-0.380639	8.702599	4.768466	-0.016408	-0.073071	0.117709	0.127509	0.097119	-0.494982	-0.853992
59481	-0.350857	8.720521	4.840935	-0.059372	-0.029361	0.167335	0.127607	0.096856	-0.495036	-0.853976
59482	-0.259091	8.661926	4.798070	-0.135207	-0.062816	0.091622	0.127796	0.096604	-0.495195	-0.853884
59483	-0.279732	8.727871	4.858927	-0.119493	-0.034246	0.179695	0.128173	0.096410	-0.495199	-0.853847
59484	-0.397549	8.744060	4.948022	-0.023669	0.068981	0.241875	0.128724	0.096147	-0.495040	-0.853886
59485	-0.504163	8.723787	4.927540	0.093439	0.093778	0.218352	0.129319	0.095677	-0.494810	-0.853982
59486	-0.509898	8.630998	4.989113	0.085630	0.188495	0.167417	0.129798	0.094904	-0.494665	-0.854080
59487	-0.440170	8.520883	5.058110	0.004823	0.276140	0.102320	0.130108	0.093882	-0.494686	-0.854134
59488	-0.368872	8.366116	5.068129	-0.066615	0.341740	-0.030426	0.130349	0.092934	-0.495085	-0.853969
59489	-0.433215	8.366421	4.929561	0.051102	0.262161	-0.096007	0.130470	0.091964	-0.495769	-0.853659
59490	-0.411677	8.482347	4.838226	0.087160	0.145580	-0.040315	0.130373	0.090863	-0.496738	-0.853228
59491	-0.421715	8.824989	4.801208	0.166744	-0.022643	0.241243	0.130281	0.089816	-0.497379	-0.852979
59492	-0.305744	8.815954	4.822544	0.064514	-0.024790	0.240504	0.130312	0.088876	-0.497720	-0.852874
59493	-0.278109	8.644415	4.822109	0.030549	0.054566	0.089437	0.130478	0.088080	-0.497983	-0.852778
59494	-0.204120	8.521000	4.889656	-0.060962	0.155209	0.012281	0.130537	0.087149	-0.498507	-0.852558
59495	-0.099863	8.698640	4.798363	-0.097170	-0.020401	0.121633	0.130499	0.086312	-0.499188	-0.852251
59496	-0.006870	8.739178	4.723815	-0.149129	-0.114287	0.119704	0.130433	0.085664	-0.499797	-0.851969
59497	-0.004402	8.637049	4.746144	-0.164774	-0.035213	0.041049	0.130329	0.085166	-0.500373	-0.851697
59498	-0.050530	8.553661	4.792929	-0.141448	0.069521	-0.008863	0.130135	0.084798	-0.500931	-0.851435
59499	-0.116090	8.620645	4.760648	-0.059301	0.046186	0.035516	0.129825	0.084416	-0.501621	-0.851114
59500	-0.083209	8.699063	4.779833	-0.084339	0.031509	0.113002	0.129402	0.083973	-0.502331	-0.850804
59501	-0.037051	8.806622	4.666942	-0.081062	-0.109854	0.153237	0.128873	0.083404	-0.503094	-0.850489
59502	0.048285	8.942340	4.535654	-0.106232	-0.292752	0.209435	0.128405	0.082911	-0.503679	-0.850262
59503	0.104310	8.897511	4.538946	-0.164644	-0.277418	0.171026	0.128081	0.082527	-0.503942	-0.850192
59504	0.118690	8.738432	4.592445	-0.212353	-0.159309	0.056170	0.127914	0.082293	-0.504169	-0.850105
59505	0.095126	8.723918	4.676975	-0.214335	-0.069466	0.083733	0.127853	0.082213	-0.504411	-0.849979
59506	0.115260	8.719850	4.669974	-0.232716	-0.074708	0.076599	0.127861	0.082241	-0.504603	-0.849861
59507	0.122105	8.747051	4.739734	-0.256971	-0.025531	0.133378	0.127861	0.082384	-0.504873	-0.849687
59508	0.060040	8.792207	4.689024	-0.182621	-0.064478	0.150040	0.127868	0.082694	-0.505083	-0.849531
59509	0.021329	8.829114	4.523864	-0.101348	-0.204080	0.105333	0.127868	0.083006	-0.505246	-0.849404
59510	0.048763	8.824985	4.532837	-0.136741	-0.200024	0.105510	0.127706	0.083272	-0.505412	-0.849303
59511	0.100657	8.844269	4.601990	-0.210819	-0.166343	0.154128	0.127500	0.083722	-0.505367	-0.849316
59512	0.106434	8.689495	4.695427	-0.273907	-0.024203	0.061018	0.127474	0.084557	-0.505161	-0.849360
59513	-0.012605	8.667036	4.783816	-0.201070	0.090336	0.084482	0.127315	0.085231	-0.504972	-0.849429
59514	0.121338	8.962802	4.771414	-0.298437	-0.101960	0.336867	0.127007	0.085706	-0.504699	-0.849590
59515	-0.027188	9.045330	4.582490	-0.105762	-0.269794	0.323086	0.127057	0.086761	-0.503588	-0.850134
59516	-0.179613	9.110424	4.956408	-0.065874	0.032115	0.559999	0.127013	0.087154	-0.502449	-0.850774
59517	0.063866	8.843605	4.901046	-0.322723	0.002470	0.293223	0.127537	0.088360	-0.501038	-0.851403
59518	-0.154170	8.455178	4.643065	-0.101860	0.005619	-0.165854	0.128044	0.089457	-0.499977	-0.851836
59519	-0.312123	8.525438	4.386059	0.121512	-0.210326	-0.223162	0.128309	0.090266	-0.499304	-0.852106
59520	-0.522465	8.528673	4.779995	0.199627	0.169196	-0.025395	0.128405	0.090935	-0.498979	-0.852210
59521	-0.332875	8.620731	5.662607	-0.230074	0.790429	0.473965	0.128537	0.091289	-0.498660	-0.852340
59522	-0.140265	8.749166	5.336990	-0.309988	0.382378	0.424923	0.129452	0.092610	-0.497422	-0.852782
59523	-0.544318	8.851494	5.022022	0.172768	0.172838	0.375842	0.129909	0.093126	-0.496061	-0.853449
59524	-0.261063	9.403834	4.861173	0.023510	-0.342179	0.770956	0.130032	0.093372	-0.494574	-0.854266
59525	-0.330209	9.421635	5.349085	-0.055454	0.027692	1.026356	0.130828	0.094801	-0.492380	-0.855254
59526	-0.556599	8.258465	5.038044	0.087006	0.343108	-0.129282	0.132126	0.097123	-0.489654	-0.856358
59527	-0.726172	7.902383	4.687538	0.285018	0.247341	-0.603697	0.132842	0.099155	-0.488939	-0.856423
59528	-0.819091	8.577935	4.938658	0.362723	0.149720	0.111436	0.133119	0.100218	-0.488993	-0.856225
59529	-0.518985	8.897005	4.820958	0.145949	-0.200984	0.316773	0.133287	0.100686	-0.488725	-0.856297
59530	-0.618639	8.590863	4.697923	0.236524	-0.128380	-0.005359	0.133590	0.100890	-0.488239	-0.856503
59531	-0.632624	8.095483	4.810291	0.156022	0.201991	-0.378134	0.133958	0.100605	-0.488203	-0.856500
59532	-0.631131	8.173722	4.985593	0.121324	0.316689	-0.223676	0.134129	0.099720	-0.489074	-0.856079
59533	-0.536892	8.395112	4.877383	0.106664	0.115146	-0.090017	0.134231	0.098879	-0.490232	-0.855498
59534	-0.365177	8.651769	4.863549	-0.005632	-0.047324	0.118990	0.134284	0.097897	-0.491465	-0.854895
59535	-0.307768	8.793510	4.875434	-0.027979	-0.096253	0.246152	0.134316	0.096480	-0.492497	-0.854457
59536	-0.259861	8.696627	4.840911	-0.055020	-0.065239	0.143510	0.134406	0.095062	-0.493796	-0.853852
59537	-0.474652	8.551550	4.835158	0.149259	0.104545	0.020913	0.134500	0.093700	-0.495459	-0.853024
59538	-0.343096	8.676353	4.807665	0.069221	0.024472	0.112274	0.134286	0.091941	-0.497497	-0.852063
59539	-0.207573	8.702352	4.598718	0.025935	-0.152531	0.030991	0.134014	0.090160	-0.499830	-0.850930
59540	-0.255258	8.834793	4.732511	0.070445	-0.029809	0.212739	0.133581	0.088056	-0.502389	-0.849710
59541	-0.227260	8.843827	4.872403	0.028764	0.135956	0.286101	0.133044	0.085709	-0.505084	-0.848436
59542	-0.128294	8.871162	4.555694	0.056345	-0.106894	0.159940	0.132391	0.083012	-0.507879	-0.847137
59543	0.005198	8.917208	4.352465	0.020908	-0.268262	0.106366	0.131811	0.080334	-0.511125	-0.845532
59544	0.230232	9.072112	4.454454	-0.173131	-0.238939	0.292295	0.131473	0.077842	-0.514580	-0.843720
59545	0.377981	9.315802	4.238105	-0.192874	-0.487553	0.415361	0.131474	0.075344	-0.518008	-0.841846
59546	0.309342	9.197637	4.089243	-0.077008	-0.466240	0.246655	0.132435	0.073901	-0.520718	-0.840150
59547	0.122892	9.169017	4.013204	0.141616	-0.390006	0.188266	0.133781	0.072638	-0.523734	-0.838170
59548	0.230952	9.341827	4.129185	0.061420	-0.310274	0.398700	0.135194	0.070905	-0.527227	-0.835899
59549	0.398603	9.490763	4.375358	-0.109360	-0.123913	0.644335	0.136997	0.069572	-0.530112	-0.833890
59550	0.367643	9.152558	4.041278	-0.006296	-0.206635	0.196975	0.138863	0.067986	-0.531782	-0.832648
59551	0.326912	8.883836	3.876348	0.072645	-0.184994	-0.116518	0.140907	0.066655	-0.533434	-0.831355
59552	0.382983	8.941423	3.909635	0.059136	-0.148756	-0.047698	0.142847	0.064953	-0.535091	-0.830093
59553	0.482606	9.015352	4.080631	-0.021885	-0.017129	0.094882	0.144664	0.062715	-0.536220	-0.829221
59554	0.796895	9.118849	3.998598	-0.231630	-0.184501	0.171760	0.146256	0.060590	-0.537771	-0.828095
59555	0.781204	9.247388	4.019678	-0.156992	-0.170847	0.298111	0.148174	0.059293	-0.538712	-0.827235
59556	0.929797	8.938759	3.966406	-0.298442	-0.129951	0.005266	0.149996	0.057853	-0.538718	-0.827005
59557	0.835701	8.726536	3.881578	-0.186943	-0.089159	-0.227570	0.151923	0.056865	-0.538633	-0.826777
59558	0.893611	8.722014	4.054616	-0.255253	0.052693	-0.156395	0.153828	0.056172	-0.538735	-0.826406
59559	0.865944	8.713547	4.007982	-0.191499	0.029599	-0.184495	0.155692	0.055898	-0.538592	-0.826168
59560	0.947963	8.846469	4.022542	-0.226264	-0.023836	-0.051147	0.157267	0.055727	-0.539055	-0.825579
59561	0.984814	9.026694	4.234394	-0.265703	0.096436	0.202363	0.158749	0.055682	-0.539319	-0.825126
59562	1.102170	8.842188	4.065058	-0.351533	-0.020177	-0.024953	0.159985	0.055505	-0.538935	-0.825150
59563	1.300088	8.724432	3.797763	-0.476141	-0.275382	-0.224862	0.160954	0.055503	-0.539083	-0.824865
59564	1.277880	8.885058	3.925233	-0.455425	-0.207956	-0.028311	0.162240	0.056683	-0.539473	-0.824278
59565	1.105300	8.935329	3.980541	-0.306820	-0.117720	0.025935	0.163664	0.058307	-0.539367	-0.823952
59566	0.996600	8.938082	3.911084	-0.194903	-0.140052	-0.008531	0.164738	0.059499	-0.539723	-0.823420
59567	1.083028	8.941090	4.014658	-0.313632	-0.074714	0.042746	0.165654	0.060615	-0.539888	-0.823047
59568	1.030718	8.978931	3.906742	-0.238096	-0.157032	0.029307	0.166452	0.061924	-0.540414	-0.822443
59569	0.819801	9.020348	4.198887	-0.130795	0.159815	0.168632	0.167329	0.063324	-0.540412	-0.822159
59570	0.903184	8.608644	4.011654	-0.246552	0.113751	-0.276224	0.167600	0.063584	-0.540395	-0.822095
59571	1.063957	8.771343	4.016017	-0.370325	0.013497	-0.114260	0.167702	0.064038	-0.541301	-0.821443
59572	0.759788	8.902329	4.325860	-0.163539	0.355803	0.106408	0.168230	0.065275	-0.541668	-0.820996
59573	0.594560	8.881889	4.258568	-0.006217	0.365691	0.048503	0.168414	0.065868	-0.541670	-0.820909
59574	0.689890	8.713566	3.988172	-0.054209	0.155511	-0.206410	0.168175	0.065837	-0.541633	-0.820985
59575	0.701254	8.816486	4.050400	-0.069537	0.171412	-0.086759	0.168095	0.066484	-0.541965	-0.820730
59576	0.606038	8.960424	4.168570	0.001170	0.257234	0.085155	0.167927	0.067113	-0.541833	-0.820800
59577	0.756211	8.683746	3.850976	-0.110567	0.020542	-0.283960	0.167394	0.067412	-0.541688	-0.820981
59578	0.594996	8.969064	4.123471	-0.003408	0.210571	0.074512	0.167450	0.069152	-0.541878	-0.820699
59579	0.402511	9.153119	4.373754	0.111994	0.427478	0.330094	0.167449	0.070454	-0.541700	-0.820706
59580	0.701025	8.995819	4.029975	-0.108354	0.069028	0.068627	0.167185	0.070924	-0.541242	-0.821022
59581	0.657571	8.813818	4.002624	-0.110407	0.114699	-0.111585	0.167323	0.072418	-0.541032	-0.821001
59582	0.294699	9.112778	4.187644	0.206413	0.298486	0.213986	0.167418	0.073789	-0.541466	-0.820573
59583	0.205258	9.227552	4.304635	0.260240	0.396439	0.360554	0.167256	0.074063	-0.541632	-0.820473
59584	0.540580	9.023169	3.771986	0.071131	-0.111865	-0.018806	0.166943	0.073638	-0.541565	-0.820618
59585	0.604625	9.061706	3.784431	0.015199	-0.133655	0.025194	0.167011	0.073789	-0.541986	-0.820313
59586	0.474962	9.284296	3.904219	0.140139	-0.051727	0.269195	0.167061	0.073715	-0.542417	-0.820025
59587	0.544198	9.238895	3.713996	0.128032	-0.215965	0.156468	0.167064	0.073312	-0.542714	-0.819864
59588	0.621210	9.204235	3.652646	0.073418	-0.275609	0.105191	0.167030	0.072896	-0.543102	-0.819651
59589	0.597393	9.189430	3.869428	0.030720	-0.063525	0.175805	0.167063	0.072550	-0.543542	-0.819383
59590	0.483576	8.970333	3.937338	0.079749	0.122470	-0.005447	0.166697	0.071741	-0.543918	-0.819279
59591	0.760343	9.117811	3.709704	-0.075682	-0.211485	0.057674	0.166298	0.071163	-0.544654	-0.818922
59592	0.726956	9.190133	3.796570	-0.054596	-0.135555	0.156244	0.166084	0.070742	-0.545075	-0.818721
59593	0.772207	9.126566	3.892267	-0.134033	-0.036099	0.138241	0.165879	0.070180	-0.545486	-0.818538
59594	0.731249	8.974182	3.844745	-0.106755	0.002010	-0.022830	0.165581	0.069642	-0.546105	-0.818231
59595	0.751397	9.111987	3.845233	-0.097747	-0.036674	0.105367	0.165332	0.069321	-0.546788	-0.817853
59596	0.639322	9.098254	4.008903	-0.045816	0.162149	0.148731	0.165296	0.069317	-0.547147	-0.817620
59597	0.736557	8.998778	3.925558	-0.131456	0.098001	0.031277	0.165120	0.069072	-0.547529	-0.817420
59598	0.824901	9.005146	3.860099	-0.194115	0.017089	0.017648	0.164902	0.068971	-0.547962	-0.817183
59599	0.805670	8.960023	3.880031	-0.194856	0.066334	-0.017618	0.164571	0.068991	-0.548439	-0.816928
59600	0.758886	9.056381	3.942563	-0.158511	0.115409	0.091821	0.164345	0.069229	-0.548991	-0.816582
59601	0.787927	9.050198	3.849971	-0.166741	0.038934	0.052395	0.164029	0.069274	-0.549612	-0.816224
59602	0.833911	9.141439	3.835287	-0.194999	-0.007911	0.133801	0.163910	0.069501	-0.550166	-0.815855
59603	0.746719	9.090717	3.787433	-0.115285	0.008696	0.063040	0.163836	0.069692	-0.550629	-0.815542
59604	0.744149	9.277209	3.770485	-0.078585	-0.055029	0.228612	0.163723	0.069818	-0.551294	-0.815105
59605	0.791518	9.433998	3.700022	-0.078096	-0.173165	0.350033	0.163591	0.069955	-0.551722	-0.814829
59606	0.855466	9.380920	3.587073	-0.119103	-0.271708	0.262657	0.163428	0.070116	-0.551787	-0.814804
59607	0.801369	9.295893	3.697693	-0.122002	-0.129993	0.222101	0.163390	0.070385	-0.551599	-0.814916
59608	0.725398	9.252838	3.638651	-0.045733	-0.145737	0.155144	0.163363	0.070709	-0.551455	-0.814991
59609	0.706406	9.257335	3.716827	-0.055637	-0.074275	0.187485	0.163272	0.070945	-0.551491	-0.814964
59610	0.712883	9.173647	3.738486	-0.087481	-0.032320	0.118656	0.163189	0.071088	-0.551294	-0.815102
59611	0.627949	9.099870	3.822029	-0.050198	0.091682	0.076647	0.163166	0.071335	-0.551257	-0.815109
59612	0.595311	9.085805	3.940591	-0.061183	0.209379	0.106330	0.163109	0.071453	-0.551155	-0.815180
59613	0.650218	9.197646	3.918603	-0.086642	0.131113	0.204808	0.163033	0.071475	-0.551080	-0.815244
59614	0.776193	9.155004	3.795028	-0.174739	-0.014441	0.126531	0.163020	0.071519	-0.550525	-0.815618
59615	0.715950	9.048004	3.691645	-0.108023	-0.057909	-0.015127	0.163170	0.071901	-0.550259	-0.815733
59616	0.493250	9.207047	3.907062	0.060321	0.148875	0.199922	0.163287	0.072325	-0.550050	-0.815814
59617	0.556075	9.211418	3.872213	0.011834	0.087327	0.194595	0.163260	0.072253	-0.549637	-0.816103
59618	0.690356	9.040047	3.803485	-0.121910	0.027895	0.018380	0.163372	0.072276	-0.549169	-0.816394
59619	0.680777	9.151315	3.801796	-0.089555	-0.016350	0.119854	0.163562	0.072369	-0.548879	-0.816543
59620	0.667002	9.147256	3.794526	-0.072293	-0.025425	0.112520	0.163851	0.072438	-0.548355	-0.816831
59621	0.612556	8.994390	3.787790	-0.043442	0.027376	-0.034192	0.164123	0.072479	-0.547745	-0.817182
59622	0.565011	9.037442	3.794467	0.011136	0.026502	0.005243	0.164323	0.072443	-0.547529	-0.817289
59623	0.534817	9.192470	3.941477	0.027634	0.108096	0.202817	0.164607	0.072424	-0.547301	-0.817387
59624	0.583225	9.139270	3.687459	0.056762	-0.117418	0.058824	0.164673	0.071941	-0.546975	-0.817634
59625	0.730552	9.118497	3.726831	-0.089110	-0.134254	0.063749	0.164856	0.071815	-0.546659	-0.817819
59626	0.693454	9.118025	3.779468	-0.065027	-0.081397	0.081391	0.165050	0.071671	-0.546360	-0.817993
59627	0.666937	9.098092	3.907356	-0.076010	0.036308	0.111042	0.165426	0.071591	-0.545714	-0.818355
59628	0.673437	9.115509	3.849986	-0.053148	-0.032885	0.105201	0.165752	0.071397	-0.545290	-0.818589
59629	0.669163	9.228181	3.845375	-0.020764	-0.077101	0.206676	0.166172	0.071512	-0.545351	-0.818453
59630	0.630656	9.203520	3.868146	0.007882	-0.035363	0.190500	0.166484	0.071376	-0.545159	-0.818529
59631	0.755642	9.095299	3.842726	-0.116356	-0.067115	0.089027	0.166814	0.071345	-0.545009	-0.818564
59632	0.627659	9.052482	3.966112	-0.038345	0.097434	0.089861	0.167124	0.071330	-0.544814	-0.818633
59633	0.685622	9.066926	3.884458	-0.060809	-0.001198	0.074908	0.167378	0.071295	-0.544738	-0.818634
59634	0.646737	9.109154	3.852633	-0.003397	-0.030735	0.098759	0.167771	0.071400	-0.544623	-0.818621
59635	0.661015	9.035869	3.941558	-0.053414	0.063960	0.067232	0.168049	0.071235	-0.544396	-0.818729
59636	0.754207	8.997910	3.860552	-0.117736	-0.029012	0.006700	0.168286	0.071170	-0.544305	-0.818747
59637	0.634236	9.098665	3.906219	0.002532	0.017106	0.109319	0.168617	0.071328	-0.544187	-0.818743
59638	0.681619	9.168882	3.950726	-0.039200	0.011986	0.194288	0.168875	0.071352	-0.544021	-0.818799
59639	0.762836	9.148731	3.799742	-0.068458	-0.145836	0.121762	0.169141	0.071294	-0.543699	-0.818963
59640	0.668829	9.013904	3.896227	-0.033982	0.012328	0.029928	0.169583	0.071578	-0.543432	-0.819024
59641	0.644562	9.029148	3.919201	-0.013332	0.032848	0.051381	0.169801	0.071541	-0.543380	-0.819016
59642	0.671365	9.069614	3.873698	-0.013711	-0.030701	0.072303	0.170086	0.071618	-0.543318	-0.818991
59643	0.684492	9.059262	3.920107	-0.039475	0.006610	0.081977	0.170262	0.071553	-0.543162	-0.819064
59644	0.744107	9.041637	3.891536	-0.086238	-0.037400	0.058488	0.170482	0.071559	-0.542919	-0.819179
59645	0.727321	8.987564	3.830022	-0.059893	-0.068751	-0.016461	0.170606	0.071537	-0.542854	-0.819198
59646	0.772847	9.118685	3.940957	-0.109003	-0.036783	0.150526	0.170796	0.071671	-0.542709	-0.819243
59647	0.932989	9.065192	3.844469	-0.237354	-0.164706	0.073901	0.170795	0.071594	-0.542395	-0.819458
59648	1.219208	8.987968	3.879374	-0.526516	-0.224571	0.035759	0.170854	0.071618	-0.541540	-0.820008
59649	1.528125	8.682243	3.580995	-0.782225	-0.507683	-0.343242	0.170728	0.071901	-0.540637	-0.820606
59650	1.489519	8.670547	3.548610	-0.754214	-0.526994	-0.371127	0.171603	0.074368	-0.541006	-0.819960
59651	-0.445862	9.372596	4.693737	0.776384	0.940147	0.607889	0.174158	0.078999	-0.542117	-0.818253
59652	-0.830451	9.738742	4.797144	1.142987	1.076374	0.961368	0.174267	0.078271	-0.543114	-0.817638
59653	0.812394	9.103972	3.545710	-0.079582	-0.383032	-0.016707	0.173604	0.075987	-0.543047	-0.818039
59654	0.696085	8.851087	3.608632	-0.030907	-0.194556	-0.230950	0.174149	0.076676	-0.543302	-0.817689
59655	0.328379	9.269317	3.960506	0.276867	0.111223	0.268217	0.174268	0.076665	-0.543811	-0.817327
59656	0.665765	9.301630	3.540757	0.109135	-0.381845	0.154398	0.174146	0.076087	-0.543719	-0.817468
59657	0.790756	9.194499	3.675926	-0.066634	-0.281213	0.116714	0.174050	0.076092	-0.543254	-0.817797
59658	0.742023	9.027198	3.628342	-0.041358	-0.258136	-0.058846	0.173717	0.076247	-0.542809	-0.818149
59659	0.447102	9.133585	3.868907	0.169727	0.012517	0.115139	0.173442	0.076692	-0.542597	-0.818306
59660	0.440298	9.227751	3.938451	0.167125	0.033239	0.228608	0.172927	0.076570	-0.542200	-0.818689
59661	0.658046	9.030635	3.697691	0.001919	-0.199291	-0.034212	0.172372	0.076376	-0.541641	-0.819195
59662	0.690487	9.067352	3.843387	-0.071409	-0.107167	0.058922	0.171960	0.076616	-0.541614	-0.819276
59663	0.468725	9.116961	4.143894	0.042325	0.210953	0.210497	0.171736	0.076825	-0.541343	-0.819483
59664	0.558877	8.899653	3.959709	-0.027100	0.087190	-0.056298	0.171429	0.076633	-0.541022	-0.819777
59665	0.627053	8.935751	3.935597	-0.075613	0.022895	-0.028848	0.171143	0.076567	-0.540907	-0.819919
59666	0.724977	9.030381	3.976622	-0.162632	-0.014356	0.079746	0.170798	0.076496	-0.540813	-0.820060
59667	0.669148	8.983005	4.007043	-0.132306	0.044912	0.045254	0.170617	0.076627	-0.540641	-0.820199
59668	0.654298	8.933057	3.993284	-0.125806	0.051530	-0.006799	0.170365	0.076542	-0.540489	-0.820359
59669	0.772318	8.996143	3.899522	-0.195332	-0.096836	0.020206	0.170102	0.076550	-0.540523	-0.820390
59670	0.664862	9.106352	3.991812	-0.107249	-0.017183	0.151772	0.169972	0.076772	-0.540547	-0.820381
59671	0.742976	9.065744	3.967562	-0.183470	-0.053744	0.109244	0.169766	0.076765	-0.540475	-0.820471
59672	0.715314	9.000177	3.882532	-0.146423	-0.095370	0.013725	0.169581	0.076878	-0.540474	-0.820500
59673	0.633560	9.041103	3.967026	-0.093998	-0.006441	0.080309	0.169389	0.077075	-0.540628	-0.820420
59674	0.701605	9.049375	3.986243	-0.166806	-0.016113	0.099198	0.169129	0.077154	-0.540705	-0.820415
59675	0.732877	9.066299	3.929511	-0.179622	-0.081489	0.093726	0.168991	0.077373	-0.540795	-0.820363
59676	0.600243	9.053189	3.961787	-0.074528	-0.000230	0.087350	0.168929	0.077665	-0.540824	-0.820330
59677	0.609528	8.989772	3.921973	-0.088441	-0.013931	0.013878	0.168750	0.077861	-0.541023	-0.820217
59678	0.547919	9.108331	3.998525	-0.039429	0.037219	0.149600	0.168617	0.078153	-0.541307	-0.820029
59679	0.615559	9.142330	3.883464	-0.065318	-0.093770	0.138661	0.168374	0.078199	-0.541529	-0.819928
59680	0.632377	9.087942	3.876549	-0.094505	-0.083351	0.086926	0.168242	0.078474	-0.541688	-0.819823
59681	0.584895	9.145149	3.904658	-0.055142	-0.060020	0.148014	0.168037	0.078728	-0.541796	-0.819770
59682	0.610743	9.184110	3.824815	-0.052681	-0.152238	0.153463	0.167795	0.078907	-0.541781	-0.819812
59683	0.646574	9.063200	3.742130	-0.088727	-0.198355	0.011566	0.167581	0.079262	-0.541555	-0.819971
59684	0.577412	9.170088	3.852235	-0.048736	-0.119411	0.149591	0.167479	0.079899	-0.541623	-0.819885
59685	0.451281	9.159844	3.994025	0.012256	0.051764	0.190102	0.167360	0.080228	-0.541627	-0.819875
59686	0.538668	8.956443	3.978159	-0.107018	0.075162	0.001419	0.167355	0.080506	-0.541478	-0.819947
59687	0.516830	8.978978	3.937576	-0.074504	0.039245	0.004979	0.167341	0.080824	-0.541603	-0.819836
59688	0.492317	9.063719	3.960312	-0.049299	0.040487	0.090513	0.167279	0.081112	-0.541768	-0.819711
59689	0.513442	9.095312	3.843155	-0.031570	-0.075858	0.074243	0.167244	0.081389	-0.541969	-0.819558
59690	0.464891	9.138693	3.911528	-0.005756	-0.010854	0.138781	0.167251	0.081656	-0.542130	-0.819423
59691	0.507377	9.178905	3.845322	-0.020274	-0.093756	0.151601	0.167159	0.081680	-0.542338	-0.819302
59692	0.571477	9.158230	3.790032	-0.068776	-0.152609	0.113847	0.167193	0.081848	-0.542589	-0.819112
59693	0.454675	9.179406	3.940171	-0.007770	0.015866	0.186956	0.167328	0.082091	-0.542661	-0.819013
59694	0.459885	9.096724	3.896446	-0.015491	0.005780	0.094073	0.167402	0.082186	-0.542636	-0.819004
59695	0.512593	9.117478	3.905012	-0.065072	-0.012265	0.118873	0.167408	0.082314	-0.542773	-0.818900
59696	0.564302	9.237859	3.804334	-0.061471	-0.156122	0.192376	0.167439	0.082456	-0.542997	-0.818730
59697	0.443717	9.201347	3.920802	0.004027	0.003892	0.199023	0.167641	0.082683	-0.542985	-0.818674
59698	0.533720	9.020008	3.882219	-0.100030	0.000394	0.021285	0.167729	0.082631	-0.542934	-0.818695
59699	0.560594	9.088152	3.859136	-0.104872	-0.051937	0.076095	0.167939	0.082831	-0.543060	-0.818548
59700	0.454963	9.194286	3.960830	-0.021218	0.041716	0.208683	0.168120	0.082911	-0.543244	-0.818381
59701	0.472455	9.134961	3.907488	-0.030658	0.014094	0.134073	0.168220	0.082878	-0.543371	-0.818280
59702	0.523184	9.014229	3.884142	-0.091077	0.019815	0.016245	0.168283	0.082813	-0.543431	-0.818233
59703	0.619663	9.037795	3.833192	-0.159967	-0.064781	0.022418	0.168365	0.082924	-0.543625	-0.818076
59704	0.526764	9.131678	3.885918	-0.075219	-0.014642	0.125094	0.168611	0.083154	-0.543666	-0.817975
59705	0.499351	9.122439	3.879092	-0.050054	-0.005252	0.112688	0.168818	0.083275	-0.543750	-0.817864
59706	0.468273	9.073378	3.888856	-0.033952	0.034606	0.069940	0.168999	0.083409	-0.543878	-0.817728
59707	0.488049	9.067199	3.883176	-0.052400	0.029345	0.062926	0.169029	0.083403	-0.544143	-0.817546
59708	0.493894	9.126880	3.912185	-0.056616	0.038078	0.129365	0.169054	0.083335	-0.544420	-0.817363
59709	0.548569	9.163139	3.812819	-0.068327	-0.073526	0.126707	0.169081	0.083288	-0.544709	-0.817170
59710	0.523009	9.150592	3.816519	-0.047679	-0.050253	0.115449	0.169198	0.083235	-0.544922	-0.817009
59711	0.532258	9.064417	3.783364	-0.059975	-0.046488	0.023727	0.169261	0.083110	-0.545192	-0.816829
59712	0.527850	9.162468	3.886844	-0.069755	0.016973	0.153849	0.169380	0.083000	-0.545398	-0.816677
59713	0.521620	9.159346	3.773512	-0.025425	-0.072717	0.106948	0.169483	0.082890	-0.545537	-0.816575
59714	0.555503	9.147861	3.800563	-0.065381	-0.054773	0.108449	0.169586	0.082778	-0.545620	-0.816509
59715	0.540201	9.160858	3.786538	-0.041907	-0.062902	0.114311	0.169644	0.082661	-0.545722	-0.816441
59716	0.502626	9.167607	3.817413	-0.013305	-0.023863	0.130630	0.169714	0.082541	-0.545638	-0.816494
59717	0.519822	9.197127	3.848444	-0.029993	-0.016991	0.170633	0.169759	0.082354	-0.545381	-0.816676
59718	0.502586	8.994042	3.836664	-0.043515	0.041053	-0.021784	0.169768	0.082235	-0.544937	-0.816982
59719	0.553827	9.151539	3.931166	-0.089499	0.041915	0.162366	0.169730	0.082153	-0.544713	-0.817148
59720	0.493585	9.178159	3.864809	-0.004337	-0.007105	0.158216	0.169785	0.082027	-0.544491	-0.817297
59721	0.500583	9.042740	3.935200	-0.054558	0.092901	0.061315	0.169876	0.081842	-0.544254	-0.817454
59722	0.509850	8.974826	3.948535	-0.075890	0.121727	0.004532	0.169904	0.081658	-0.544207	-0.817498
59723	0.533171	8.958168	3.868235	-0.071776	0.049714	-0.040857	0.169912	0.081522	-0.544228	-0.817496
59724	0.556790	9.056586	3.900205	-0.083880	0.037336	0.063290	0.169899	0.081384	-0.544415	-0.817388
59725	0.560222	9.079253	3.936004	-0.092643	0.062672	0.098230	0.169941	0.081253	-0.544499	-0.817337
59726	0.568593	9.082904	3.985033	-0.112188	0.100957	0.121101	0.169943	0.081003	-0.544398	-0.817428
59727	0.638340	9.016078	3.752767	-0.111114	-0.102627	-0.027110	0.169910	0.080851	-0.544430	-0.817428
59728	0.538980	9.126066	3.905026	-0.047173	0.029166	0.128225	0.169980	0.080959	-0.544517	-0.817346
59729	0.585574	9.185792	3.880658	-0.070699	-0.028622	0.176074	0.170020	0.080828	-0.544498	-0.817363
59730	0.594395	9.145070	3.916689	-0.096529	0.011406	0.153085	0.170225	0.080969	-0.544325	-0.817421
59731	0.555487	9.121116	3.831855	-0.036378	-0.041383	0.096067	0.170318	0.080941	-0.544269	-0.817442
59732	0.625584	9.171905	3.869285	-0.102884	-0.052762	0.160938	0.170485	0.081025	-0.544273	-0.817396
59733	0.582980	9.143366	3.903240	-0.078851	0.002849	0.145729	0.170664	0.081049	-0.544285	-0.817349
59734	0.584139	9.104111	3.813336	-0.056105	-0.060970	0.074715	0.170756	0.080938	-0.544275	-0.817347
59735	0.578916	9.134285	3.869381	-0.063148	-0.020788	0.124012	0.170908	0.081138	-0.544280	-0.817292
59736	0.477483	9.055177	3.882895	0.010635	0.055774	0.051281	0.170942	0.081169	-0.544267	-0.817291
59737	0.591435	9.085756	3.886462	-0.090480	0.004653	0.086663	0.170992	0.081238	-0.544165	-0.817341
59738	0.571550	9.114529	3.928806	-0.080552	0.035516	0.128594	0.171034	0.081324	-0.544000	-0.817433
59739	0.551145	9.051113	3.894672	-0.063450	0.031800	0.055941	0.171059	0.081474	-0.543858	-0.817508
59740	0.524726	9.092920	3.940936	-0.047263	0.063622	0.111083	0.171099	0.081585	-0.543719	-0.817581
59741	0.536340	9.080039	3.893234	-0.045968	0.020321	0.081226	0.171130	0.081694	-0.543671	-0.817596
59742	0.557915	9.112026	3.874979	-0.055337	-0.015388	0.104593	0.171121	0.081782	-0.543659	-0.817597
59743	0.571186	9.142853	3.903190	-0.072010	-0.008491	0.144604	0.171129	0.081856	-0.543533	-0.817671
59744	0.522478	9.135427	3.915917	-0.032678	0.020289	0.140299	0.171185	0.081920	-0.543414	-0.817732
59745	0.507678	9.049793	3.905313	-0.030863	0.043371	0.056716	0.171210	0.081876	-0.543273	-0.817825
59746	0.574262	9.110216	3.853474	-0.064002	-0.047699	0.095325	0.171218	0.081928	-0.543350	-0.817767
59747	0.610034	9.147664	3.836571	-0.085796	-0.087980	0.124921	0.171313	0.082081	-0.543326	-0.817748
59748	0.590639	9.065638	3.919154	-0.111058	0.015744	0.080837	0.171454	0.082248	-0.543091	-0.817858
59749	0.570438	9.002258	3.884894	-0.093951	0.011995	0.008183	0.171489	0.082378	-0.543005	-0.817894
59750	0.575426	9.174410	3.928054	-0.082622	-0.014018	0.183487	0.171566	0.082657	-0.542973	-0.817871
59751	0.522138	9.077833	3.958598	-0.063229	0.060795	0.104090	0.171608	0.082769	-0.542610	-0.818092
59752	0.605518	8.977397	3.863737	-0.127822	-0.027043	-0.021278	0.171622	0.082856	-0.542130	-0.818398
59753	0.485394	9.018941	3.891114	-0.019861	0.020190	0.021786	0.171594	0.083175	-0.542060	-0.818418
59754	0.413405	9.288094	4.054716	0.039364	0.091603	0.329816	0.171539	0.083397	-0.541995	-0.818450
59755	0.534166	9.031015	3.984125	-0.097956	0.068224	0.071824	0.171507	0.083302	-0.541485	-0.818804
59756	0.658556	8.866751	3.884695	-0.210815	-0.015078	-0.112216	0.171548	0.083523	-0.541255	-0.818925
59757	0.497484	9.030170	4.053071	-0.090578	0.130723	0.096579	0.171643	0.083961	-0.541359	-0.818791
59758	0.389332	8.973637	4.040513	-0.001517	0.180418	0.034695	0.171643	0.084115	-0.541302	-0.818814
59759	0.522570	8.989850	3.962233	-0.098749	0.057000	0.024831	0.171565	0.084247	-0.541361	-0.818777
59760	0.509986	9.105248	3.952612	-0.066014	0.013131	0.126338	0.171501	0.084465	-0.541363	-0.818767
59761	0.539491	9.069266	3.848204	-0.069916	-0.074721	0.053459	0.171484	0.084695	-0.541440	-0.818696
59762	0.482621	9.151415	3.885114	-0.017925	-0.049343	0.140839	0.171548	0.084929	-0.541490	-0.818625
59763	0.437104	9.048497	3.892106	-0.000296	0.010601	0.047066	0.171559	0.085076	-0.541534	-0.818578
59764	0.445461	9.156542	3.879265	0.013740	-0.038775	0.141593	0.171482	0.085141	-0.541740	-0.818452
59765	0.474556	9.261537	3.850452	0.013596	-0.107553	0.228004	0.171405	0.085167	-0.541872	-0.818377
59766	0.482134	9.186369	3.947575	-0.041110	0.000908	0.197482	0.171463	0.085273	-0.541905	-0.818332
59767	0.462188	9.035371	3.926770	-0.044013	0.043132	0.049729	0.171496	0.085243	-0.541855	-0.818362
59768	0.495235	9.069249	3.861060	-0.046040	-0.035188	0.056505	0.171411	0.085126	-0.542101	-0.818229
59769	0.467773	9.131610	3.889345	-0.019001	-0.016275	0.123685	0.171308	0.085054	-0.542383	-0.818071
59770	0.529761	9.123626	3.838813	-0.061301	-0.074259	0.099346	0.171140	0.084827	-0.542626	-0.817968
59771	0.579198	9.153566	3.863060	-0.109095	-0.077428	0.138623	0.171071	0.084733	-0.542817	-0.817866
59772	0.518199	9.037452	3.831708	-0.063819	-0.037104	0.016890	0.171007	0.084637	-0.542975	-0.817785
59773	0.474233	9.159576	3.912139	-0.026958	0.009823	0.158608	0.170995	0.084600	-0.543127	-0.817690
59774	0.627655	9.074839	3.861458	-0.167409	-0.059248	0.067899	0.170908	0.084437	-0.543206	-0.817672
59775	0.589227	9.166238	3.887465	-0.123310	-0.052290	0.160354	0.171038	0.084573	-0.543273	-0.817587
59776	0.442301	9.102083	3.947422	-0.019479	0.077866	0.118035	0.171140	0.084619	-0.543290	-0.817549
59777	0.469050	9.027618	3.956353	-0.059591	0.101074	0.054271	0.171124	0.084464	-0.543232	-0.817607
59778	0.562423	9.031154	3.965171	-0.146536	0.072009	0.065268	0.171023	0.084346	-0.543251	-0.817628
59779	0.534647	9.056866	3.895194	-0.092521	0.012908	0.060331	0.170951	0.084304	-0.543203	-0.817679
59780	0.481071	9.137168	3.936069	-0.040496	0.038333	0.147674	0.170885	0.084190	-0.543086	-0.817783
59781	0.495241	9.060358	3.932975	-0.063652	0.052214	0.076542	0.170766	0.083908	-0.542786	-0.818035
59782	0.551218	9.006423	3.913127	-0.115090	0.024628	0.021853	0.170624	0.083740	-0.542368	-0.818359
59783	0.508678	9.050522	3.872450	-0.053056	-0.018667	0.044462	0.170466	0.083785	-0.542054	-0.818596
59784	0.575425	9.154551	3.794754	-0.072477	-0.154007	0.112437	0.170247	0.083944	-0.541823	-0.818778
59785	0.517597	9.099041	3.906697	-0.071076	-0.028989	0.102796	0.170138	0.084460	-0.541132	-0.819204
59786	0.481051	8.902925	3.915482	-0.083194	0.043568	-0.075355	0.169792	0.084854	-0.540469	-0.819673
59787	0.342532	8.923723	3.941231	0.030969	0.094450	-0.051870	0.169211	0.085367	-0.540006	-0.820045
59788	0.284679	8.948048	4.341417	-0.056522	0.437801	0.127212	0.168341	0.085905	-0.539717	-0.820358
59789	0.700732	9.033430	3.987631	-0.326686	-0.063492	0.080962	0.167149	0.086225	-0.539330	-0.820823
59790	0.642225	9.064370	3.848468	-0.243863	-0.188435	0.050927	0.166830	0.087980	-0.538743	-0.821086
59791	0.255543	8.968329	4.191272	-0.045157	0.259857	0.086468	0.166681	0.089980	-0.537735	-0.821561
59792	0.078722	8.885727	4.351106	0.025331	0.469718	0.070284	0.166218	0.091108	-0.537183	-0.821891
59793	0.287424	8.953951	4.038687	-0.069823	0.088088	0.013512	0.165437	0.091566	-0.537046	-0.822088
59794	0.305339	8.929828	4.063821	-0.116043	0.105038	0.001851	0.164808	0.092384	-0.536966	-0.822175
59795	0.346823	8.793595	3.790216	-0.104654	-0.103848	-0.231896	0.163710	0.092894	-0.536606	-0.822571
59796	0.535327	9.069466	3.928236	-0.305634	-0.163647	0.079357	0.162620	0.094247	-0.536924	-0.822426
59797	0.106605	9.479930	3.805472	0.168492	-0.266788	0.398209	0.161848	0.095622	-0.536465	-0.822719
59798	-0.239400	9.414081	4.072925	0.364935	0.102972	0.440465	0.161043	0.096217	-0.536422	-0.822836
59799	0.466386	9.553229	5.039265	-0.609432	0.608386	0.963876	0.160002	0.096409	-0.536477	-0.822981
59800	1.241034	9.372964	3.225741	-0.756702	-1.190665	0.077076	0.158632	0.096185	-0.533969	-0.824901
59801	0.309901	8.154083	2.434199	0.160982	-1.113537	-1.372053	0.159426	0.100315	-0.532278	-0.825349
59802	-0.989096	9.012226	4.366456	0.791251	0.679587	0.196119	0.159735	0.103535	-0.533414	-0.824157
59803	-0.577053	9.311400	5.059563	0.189645	1.010358	0.750339	0.158333	0.102370	-0.533539	-0.824492
59804	1.142597	9.181216	5.020974	-1.406584	0.377928	0.612720	0.155587	0.100872	-0.533200	-0.825418
59805	1.242711	8.694137	2.194683	-0.628040	-1.911485	-0.986569	0.153827	0.101862	-0.530419	-0.827416
59806	-0.572262	8.756325	2.919245	0.780978	-0.693597	-0.624035	0.155279	0.107517	-0.529765	-0.826848
59807	-1.324772	9.512783	4.848435	0.873673	0.914927	0.871645	0.155363	0.108488	-0.529528	-0.826857
59808	-0.258215	9.835596	5.541063	-0.315713	0.976322	1.432584	0.153182	0.106867	-0.530218	-0.827033
59809	1.026735	8.791390	4.242375	-1.200734	-0.224921	-0.073711	0.150005	0.105549	-0.527065	-0.829795
59810	1.347427	8.334844	1.287809	-0.570280	-2.712250	-1.734203	0.147360	0.104962	-0.525093	-0.831592
59811	-0.310329	8.735854	2.659298	0.538376	-1.162301	-0.766019	0.149089	0.110053	-0.522958	-0.831971
59812	-1.915012	9.464455	5.645060	1.053560	1.596092	1.207844	0.150370	0.113135	-0.521284	-0.832377
59813	-0.817023	9.691994	5.921113	-0.028531	1.281402	1.501844	0.147466	0.109777	-0.519605	-0.834394
59814	1.053598	8.956945	5.005223	-1.532989	0.093504	0.386836	0.144542	0.109163	-0.518148	-0.835891
59815	0.976987	8.656328	1.906453	-0.469166	-2.394768	-1.235648	0.142289	0.109301	-0.515067	-0.838160
59816	-0.794656	8.915107	2.979851	0.836913	-1.056886	-0.476090	0.143778	0.113119	-0.510866	-0.839969
59817	-1.896308	8.819072	4.995544	1.169789	0.959766	0.387169	0.143654	0.111819	-0.506910	-0.842557
59818	-0.373061	8.912124	5.381318	-0.313615	0.614998	0.581852	0.140362	0.106872	-0.504686	-0.845085
59819	0.815631	8.773245	5.674753	-1.515253	0.457948	0.547430	0.137536	0.106900	-0.503308	-0.846367
59820	0.214878	8.388664	2.956362	-0.143376	-1.454044	-1.036548	0.134923	0.107939	-0.500304	-0.848435
59821	-0.678986	9.182315	4.367038	0.311700	-0.445483	0.363279	0.134355	0.109410	-0.495677	-0.851048
59822	-1.127649	9.021454	5.242732	0.434235	0.389119	0.666031	0.133709	0.108847	-0.491415	-0.853689
59823	-0.352318	8.888184	4.268301	0.028949	-0.695669	0.028901	0.131468	0.106620	-0.487805	-0.856385
59824	-0.502942	8.484984	4.685950	0.002015	-0.198623	-0.108773	0.130056	0.106886	-0.484099	-0.858667
59825	-1.035785	7.640278	4.119172	0.591439	-0.142895	-1.092392	0.127683	0.104855	-0.480773	-0.861139
59826	-0.175201	8.755540	6.518150	-0.800762	0.884111	1.038730	0.125435	0.102384	-0.478774	-0.862878
59827	-0.367768	8.843479	5.524085	-0.297421	0.062720	0.616377	0.125168	0.103409	-0.477480	-0.863512
59828	-0.288301	8.815226	4.872389	-0.192046	-0.491191	0.249784	0.124698	0.103865	-0.477147	-0.863709
59829	-0.446925	8.736907	4.620603	0.015911	-0.608910	0.062140	0.124604	0.104300	-0.477025	-0.863737
59830	-0.746205	8.505179	4.528174	0.298993	-0.467195	-0.164290	0.124298	0.103763	-0.477433	-0.863621
59831	-0.814238	8.863443	5.365925	0.162836	0.031078	0.579096	0.124370	0.102945	-0.476027	-0.864484
59832	-0.812754	8.868528	5.562964	0.127276	0.134630	0.686033	0.124420	0.102052	-0.473007	-0.866239
59833	-0.820888	7.785645	5.411904	0.076444	0.507815	-0.309283	0.124163	0.101525	-0.469845	-0.868056
59834	-1.247776	7.700476	5.633536	0.416754	0.813742	-0.233801	0.122778	0.100800	-0.468702	-0.868955
59835	-0.719868	7.865340	5.506583	-0.017739	0.452721	-0.195050	0.120145	0.098766	-0.469456	-0.869150
59836	-0.332607	8.148806	5.460641	-0.338912	0.178254	-0.005270	0.117619	0.097607	-0.471838	-0.868336
59837	-0.391331	8.341783	5.212194	-0.205382	-0.043529	0.029107	0.115343	0.096871	-0.475301	-0.866834
59838	-0.378426	8.683470	5.120133	-0.172927	-0.222332	0.271049	0.113407	0.095957	-0.478986	-0.865161
59839	-0.403636	8.844139	5.289687	-0.192114	-0.092266	0.498318	0.112554	0.095531	-0.481451	-0.863951
59840	-0.512392	8.567085	5.300178	-0.128843	0.132193	0.272708	0.112561	0.095846	-0.482894	-0.863109
59841	-0.683021	8.463690	5.191602	0.043576	0.184005	0.138060	0.112501	0.096049	-0.484880	-0.861980
59842	-0.742875	8.757315	5.358739	0.072473	0.243413	0.477779	0.112209	0.095986	-0.487497	-0.860548
59843	-0.703242	8.783165	5.245452	0.059571	0.180600	0.439968	0.112140	0.096003	-0.489580	-0.859372
59844	-0.849244	8.776420	5.301524	0.182274	0.311114	0.469473	0.112162	0.095387	-0.490793	-0.858745
59845	-0.874864	8.356312	5.321729	0.169044	0.567344	0.115234	0.112222	0.094638	-0.491860	-0.858210
59846	-0.908212	8.349508	5.205651	0.241530	0.518978	0.051901	0.111842	0.093658	-0.493823	-0.857239
59847	-0.631551	8.477604	5.120367	0.020058	0.349865	0.105167	0.111221	0.092628	-0.495722	-0.856335
59848	-0.490221	8.430278	4.882526	-0.048900	0.170843	-0.059877	0.110730	0.091813	-0.497093	-0.855691
59849	-0.338553	8.507868	4.744895	-0.144906	0.001107	-0.066333	0.110336	0.091221	-0.497991	-0.855283
59850	-0.258733	8.723357	4.500948	-0.134635	-0.309900	0.000989	0.110319	0.091307	-0.498650	-0.854892
59851	-0.324128	8.884841	4.585137	-0.081997	-0.292068	0.186158	0.110641	0.091628	-0.498467	-0.854923
59852	-0.380620	8.756788	4.750524	-0.084751	-0.089515	0.156187	0.111288	0.092034	-0.497511	-0.855352
59853	-0.392966	8.652172	4.723143	-0.072505	-0.076977	0.051966	0.111925	0.092326	-0.496759	-0.855674
59854	-0.409535	8.740915	4.825229	-0.072795	-0.040861	0.179668	0.112481	0.092557	-0.496395	-0.855788
59855	-0.309119	8.868333	4.837104	-0.158068	-0.123925	0.291772	0.113168	0.092951	-0.496355	-0.855678
59856	-0.366151	8.847545	4.846561	-0.106320	-0.090577	0.281012	0.114053	0.093283	-0.496152	-0.855642
59857	-0.479975	8.806620	4.864375	-0.003096	-0.024116	0.259477	0.114944	0.093603	-0.496062	-0.855540
59858	-0.515770	8.800853	5.061937	-0.019433	0.148687	0.352043	0.115810	0.093765	-0.495573	-0.855689
59859	-0.402825	8.479961	4.824968	-0.087304	0.066221	-0.048451	0.116501	0.093820	-0.495334	-0.855727
59860	-0.346311	8.527142	4.945360	-0.163623	0.126370	0.048647	0.117038	0.093710	-0.495389	-0.855634
59861	-0.396994	8.516283	4.778082	-0.062374	0.012124	-0.039729	0.117640	0.093592	-0.495518	-0.855490
59862	-0.468320	8.636582	4.654097	0.062757	-0.120763	0.008308	0.118131	0.093158	-0.495717	-0.855355
59863	-0.428415	8.798821	4.696415	0.041725	-0.171289	0.168696	0.118671	0.092820	-0.495641	-0.855360
59864	-0.436725	8.753074	4.731975	0.046961	-0.121273	0.146313	0.119166	0.092417	-0.495206	-0.855587
59865	-0.387625	8.718447	4.776995	-0.003809	-0.090486	0.135832	0.119602	0.092069	-0.494742	-0.855832
59866	-0.378507	8.648388	4.771507	-0.008401	-0.071221	0.071644	0.120102	0.091886	-0.494436	-0.855959
59867	-0.421325	8.811729	4.790185	0.054370	-0.124721	0.224814	0.120622	0.091730	-0.494240	-0.856016
59868	-0.315219	8.786898	4.770340	-0.034445	-0.166131	0.189126	0.121035	0.091436	-0.493844	-0.856217
59869	-0.307080	8.673577	4.857366	-0.070754	-0.049670	0.132751	0.121433	0.091297	-0.493482	-0.856384
59870	-0.340002	8.603704	4.880540	-0.046970	0.008467	0.084621	0.121692	0.091079	-0.493348	-0.856448
59871	-0.302008	8.609766	4.869127	-0.073329	-0.015296	0.082870	0.121911	0.090891	-0.493394	-0.856411
59872	-0.292281	8.680951	4.918537	-0.083396	-0.009876	0.168760	0.122150	0.090769	-0.493416	-0.856377
59873	-0.378653	8.606948	4.887117	0.003678	0.024834	0.092170	0.122400	0.090648	-0.493228	-0.856462
59874	-0.328460	8.594480	4.853453	-0.030745	-0.014806	0.062930	0.122627	0.090470	-0.493095	-0.856525
59875	-0.310999	8.605464	4.845789	-0.038382	-0.033016	0.068094	0.122824	0.090278	-0.493027	-0.856556
59876	-0.294691	8.694613	4.825810	-0.032085	-0.098013	0.135224	0.123026	0.090080	-0.492935	-0.856601
59877	-0.329490	8.697398	4.848745	0.001092	-0.072782	0.150160	0.123254	0.089874	-0.492686	-0.856733
59878	-0.324918	8.651931	4.867585	-0.007882	-0.042211	0.119735	0.123496	0.089739	-0.492376	-0.856891
59879	-0.333438	8.581555	4.923275	-0.018026	0.034572	0.086372	0.123692	0.089540	-0.492126	-0.857027
59880	-0.331107	8.657226	4.915793	-0.003827	-0.011973	0.148339	0.123911	0.089454	-0.492003	-0.857075
59881	-0.301286	8.619581	4.950046	-0.042185	0.023365	0.131586	0.124079	0.089306	-0.491894	-0.857128
59882	-0.317016	8.581677	4.967921	-0.032440	0.059488	0.108065	0.124188	0.089129	-0.491804	-0.857183
59883	-0.260499	8.564635	4.913610	-0.068639	0.004956	0.064542	0.124265	0.088911	-0.491768	-0.857215
59884	-0.238263	8.635922	4.901241	-0.073158	-0.047142	0.119609	0.124343	0.088733	-0.491677	-0.857274
59885	-0.261915	8.632947	4.952162	-0.061468	0.001306	0.143040	0.124429	0.088608	-0.491543	-0.857351
59886	-0.265274	8.547858	4.932097	-0.059977	0.024098	0.059376	0.124462	0.088471	-0.491408	-0.857438
59887	-0.184571	8.576373	4.965538	-0.138790	0.010874	0.098187	0.124467	0.088236	-0.491296	-0.857526
59888	-0.247381	8.557254	4.927129	-0.067355	0.006122	0.064550	0.124435	0.088102	-0.491255	-0.857568
59889	-0.187015	8.611684	4.921138	-0.113847	-0.043201	0.106932	0.124269	0.087830	-0.491307	-0.857590
59890	-0.191679	8.611854	4.874593	-0.093874	-0.081068	0.084132	0.124193	0.087683	-0.491175	-0.857691
59891	-0.276495	8.574279	4.813183	0.000633	-0.091594	0.023626	0.124092	0.087637	-0.490976	-0.857825
59892	-0.292075	8.640144	4.963109	-0.017671	0.000184	0.155739	0.123842	0.087534	-0.490821	-0.857960
59893	-0.203263	8.643728	4.987462	-0.109082	-0.015041	0.168194	0.123769	0.087625	-0.490434	-0.858183
59894	-0.270909	8.557990	5.086945	-0.082966	0.119063	0.145652	0.123828	0.087697	-0.489995	-0.858418
59895	-0.232316	8.502038	5.021095	-0.106938	0.071622	0.063215	0.123967	0.087714	-0.489635	-0.858601
59896	-0.245787	8.560218	4.958824	-0.066881	-0.009452	0.082923	0.124122	0.087659	-0.489434	-0.858699
59897	-0.257822	8.569088	4.999841	-0.063076	0.020560	0.111513	0.124302	0.087657	-0.489322	-0.858737
59898	-0.334811	8.603543	4.986130	0.021152	0.015265	0.136879	0.124422	0.087526	-0.489325	-0.858731
59899	-0.266802	8.623312	4.947086	-0.027288	-0.046391	0.132334	0.124518	0.087427	-0.489328	-0.858726
59900	-0.238289	8.576571	4.924256	-0.052253	-0.050177	0.079603	0.124580	0.087397	-0.489375	-0.858693
59901	-0.257577	8.573206	4.870723	-0.019864	-0.083493	0.050517	0.124646	0.087493	-0.489591	-0.858550
59902	-0.244605	8.659849	4.857974	-0.018044	-0.134562	0.118792	0.124665	0.087392	-0.489835	-0.858419
59903	-0.230969	8.741473	5.006860	-0.061154	-0.051862	0.263468	0.124818	0.087422	-0.489931	-0.858339
59904	-0.287326	8.563733	4.967346	-0.019477	0.021980	0.091541	0.124968	0.087557	-0.490082	-0.858217
59905	-0.372970	8.579419	5.099906	0.025934	0.154014	0.173812	0.125055	0.087615	-0.490331	-0.858056
59906	-0.332756	8.572682	5.009886	0.011203	0.076238	0.121830	0.125112	0.087620	-0.490517	-0.857941
59907	-0.345757	8.545483	4.976060	0.028214	0.069684	0.081773	0.125157	0.087752	-0.490692	-0.857821
59908	-0.378895	8.553008	4.959959	0.064149	0.066152	0.081261	0.125051	0.087650	-0.490814	-0.857777
59909	-0.305915	8.523883	4.992919	-0.017796	0.086794	0.070204	0.124937	0.087551	-0.490866	-0.857774
59910	-0.265812	8.503789	4.930370	-0.041599	0.036780	0.020448	0.124871	0.087534	-0.491179	-0.857606
59911	-0.253261	8.591720	4.915088	-0.039764	-0.014277	0.088732	0.124806	0.087523	-0.491562	-0.857397
59912	-0.198928	8.619807	4.919923	-0.089181	-0.032267	0.113908	0.124707	0.087285	-0.491896	-0.857244
59913	-0.103249	8.618468	4.880454	-0.167190	-0.086621	0.090445	0.124801	0.087138	-0.492114	-0.857120
59914	-0.119981	8.700873	5.028195	-0.179120	0.006232	0.235706	0.124904	0.086989	-0.492347	-0.856987
59915	-0.235057	8.638603	5.095712	-0.094093	0.128242	0.218349	0.125217	0.087110	-0.492200	-0.857013
59916	-0.374577	8.425303	5.144139	0.001346	0.311156	0.061085	0.125247	0.086846	-0.492150	-0.857064
59917	-0.279598	8.535922	5.097158	-0.057916	0.193654	0.131170	0.125046	0.086505	-0.492453	-0.856954
59918	-0.229156	8.550879	4.776578	-0.011388	-0.088370	-0.015861	0.124668	0.085979	-0.492573	-0.856993
59919	-0.036015	8.823885	5.000605	-0.216818	-0.089867	0.326998	0.124205	0.085325	-0.492734	-0.857033
59920	-0.085587	8.727452	4.834526	-0.131455	-0.172371	0.162350	0.124211	0.085276	-0.491994	-0.857463
59921	-0.326723	8.474117	4.811061	0.075112	-0.009590	-0.062919	0.124019	0.085134	-0.491680	-0.857684
59922	-0.342448	8.575951	4.961755	0.061635	0.065857	0.100692	0.123677	0.085077	-0.491658	-0.857752
59923	-0.222960	8.689773	4.755673	0.016158	-0.195556	0.093865	0.123212	0.084935	-0.491686	-0.857817
59924	-0.079015	8.895637	4.920510	-0.143333	-0.206067	0.350334	0.122917	0.085072	-0.491390	-0.858015
59925	-0.158609	8.754026	4.787540	-0.053072	-0.238834	0.163222	0.122895	0.085475	-0.490430	-0.858528
59926	-0.135711	8.773676	4.820198	-0.083742	-0.251250	0.195306	0.122703	0.085619	-0.489440	-0.859105
59927	-0.348866	8.704998	4.982276	0.064373	-0.050405	0.222998	0.122639	0.086105	-0.487935	-0.859922
59928	-0.380623	8.529092	4.977969	0.068685	0.009682	0.069902	0.122268	0.086508	-0.486744	-0.860608
59929	-0.306127	8.576535	5.057939	-0.026815	0.003281	0.148871	0.121921	0.087125	-0.485767	-0.861147
59930	-0.381580	8.499258	5.104471	0.011065	0.080814	0.108599	0.121554	0.087815	-0.485054	-0.861531
59931	-0.426472	8.574454	4.991715	0.081708	-0.051220	0.117621	0.120991	0.088290	-0.484533	-0.861855
59932	-0.271854	8.591361	5.007328	-0.079861	-0.105147	0.134235	0.120382	0.088713	-0.484190	-0.862090
59933	-0.292169	8.556132	5.031650	-0.082575	-0.073604	0.116965	0.119890	0.089146	-0.483683	-0.862398
59934	-0.273145	8.535360	5.146290	-0.144982	0.011182	0.156771	0.119538	0.089634	-0.483182	-0.862677
59935	-0.331866	8.478240	5.094397	-0.092541	0.003364	0.083523	0.119278	0.090271	-0.482811	-0.862854
59936	-0.372541	8.456113	5.105751	-0.071992	0.026591	0.072019	0.119073	0.090965	-0.482512	-0.862977
59937	-0.499107	8.471158	5.051989	0.052250	0.006213	0.063012	0.118908	0.091684	-0.482344	-0.863017
59938	-0.456440	8.574894	5.022408	0.019654	-0.087248	0.134861	0.118759	0.092253	-0.482213	-0.863051
59939	-0.484472	8.617954	5.211819	-0.012120	0.046329	0.270198	0.118721	0.092894	-0.481829	-0.863202
59940	-0.584198	8.482675	5.151198	0.074350	0.085991	0.128086	0.118693	0.093515	-0.481510	-0.863316
59941	-0.607421	8.476111	5.219514	0.069106	0.143806	0.158836	0.118496	0.093746	-0.481216	-0.863482
59942	-0.516589	8.521257	5.281036	-0.032689	0.136404	0.224660	0.118242	0.093736	-0.480935	-0.863675
59943	-0.525513	8.549051	5.106830	0.027847	-0.023937	0.159313	0.118141	0.093688	-0.480569	-0.863897
59944	-0.385250	8.564696	5.318328	-0.162619	0.090321	0.274554	0.118214	0.093748	-0.480297	-0.864032
59945	-0.485557	8.375010	5.132297	-0.037239	0.058743	0.021548	0.118426	0.094089	-0.479945	-0.864162
59946	-0.530705	8.452602	5.076349	0.027919	-0.015700	0.061340	0.118590	0.094284	-0.479971	-0.864104
59947	-0.453499	8.474151	5.054177	-0.037459	-0.068047	0.064335	0.118824	0.094377	-0.479870	-0.864117
59948	-0.420495	8.484237	5.109329	-0.081724	-0.038797	0.099737	0.119097	0.094391	-0.479877	-0.864074
59949	-0.453426	8.523190	5.247223	-0.081371	0.061235	0.205962	0.119463	0.094356	-0.479640	-0.864159
59950	-0.452454	8.434208	5.306169	-0.102473	0.150820	0.160414	0.119816	0.094078	-0.479511	-0.864212
59951	-0.377354	8.387735	5.185724	-0.138004	0.055006	0.054741	0.120351	0.094004	-0.479551	-0.864124
59952	-0.543962	8.490061	5.218846	0.029538	0.085500	0.167553	0.120961	0.093883	-0.479805	-0.863911
59953	-0.502332	8.520957	5.162183	0.016789	0.020064	0.162606	0.121444	0.093643	-0.480132	-0.863687
59954	-0.550673	8.465251	5.241723	0.041259	0.136730	0.158218	0.121810	0.093322	-0.480500	-0.863466
59955	-0.533305	8.435541	5.201879	0.039484	0.124558	0.111285	0.122210	0.093089	-0.480908	-0.863207
59956	-0.286202	8.448436	5.165060	-0.175528	0.025085	0.092077	0.122559	0.092600	-0.481419	-0.862925
59957	-0.211734	8.572517	4.923749	-0.155923	-0.244880	0.071234	0.123213	0.092661	-0.481672	-0.862685
59958	-0.365561	8.643749	5.036207	-0.027987	-0.135604	0.196920	0.123851	0.092668	-0.481858	-0.862489
59959	-0.383414	8.545686	4.982843	-0.003639	-0.118761	0.086321	0.124403	0.092766	-0.482001	-0.862319
59960	-0.466312	8.521132	5.115409	0.037056	0.029778	0.136799	0.124758	0.092808	-0.482040	-0.862241
59961	-0.410027	8.402400	5.121658	-0.031447	0.077343	0.035808	0.124921	0.092872	-0.481984	-0.862242
59962	-0.383530	8.322514	5.165330	-0.079184	0.142893	-0.011398	0.124939	0.092952	-0.481888	-0.862284
59963	-0.411813	8.583368	5.168906	-0.022195	0.020135	0.215298	0.124867	0.093056	-0.481642	-0.862421
59964	-0.287141	8.554267	5.378398	-0.204994	0.155355	0.292704	0.124791	0.093141	-0.481017	-0.862771
59965	-0.296712	8.477148	5.192690	-0.154282	0.030248	0.131625	0.124803	0.093533	-0.480218	-0.863172
59966	-0.372032	8.310214	5.108688	-0.082366	0.052861	-0.051173	0.124660	0.093715	-0.479569	-0.863534
59967	-0.306178	8.358102	5.131783	-0.145700	0.012921	-0.001194	0.124431	0.093591	-0.478999	-0.863897
59968	-0.314508	8.471502	5.267649	-0.162347	0.056220	0.166484	0.124389	0.093733	-0.478580	-0.864119
59969	-0.310018	8.630108	5.185156	-0.123847	-0.108318	0.258738	0.124506	0.093975	-0.477567	-0.864637
59970	-0.317498	8.506042	4.949550	-0.064579	-0.256230	0.030164	0.124701	0.094345	-0.476458	-0.865180
59971	-0.408748	8.400252	5.017242	-0.011023	-0.141859	-0.020663	0.124826	0.094624	-0.475564	-0.865623
59972	-0.450684	8.397319	5.231295	-0.033306	0.027652	0.090981	0.124891	0.094765	-0.474970	-0.865925
59973	-0.363723	8.495937	5.472576	-0.174858	0.135278	0.297380	0.125063	0.095087	-0.474853	-0.865929
59974	-0.431424	8.794123	5.731546	-0.155211	0.203635	0.690063	0.125482	0.095938	-0.474383	-0.866032
59975	-0.459864	8.372243	5.146437	-0.018238	-0.054538	0.025422	0.125899	0.096629	-0.473416	-0.866423
59976	-0.482468	8.428489	5.091622	0.021899	-0.135555	0.045201	0.126269	0.097156	-0.472957	-0.866561
59977	-0.456850	8.435728	5.219752	-0.040225	-0.053241	0.117649	0.126680	0.097349	-0.472631	-0.866658
59978	-0.429761	8.622621	5.471521	-0.115944	0.038410	0.407729	0.127194	0.097679	-0.472528	-0.866601
59979	-0.342808	8.755151	5.577786	-0.216884	0.023584	0.571641	0.127956	0.098528	-0.472250	-0.866544
59980	-0.427012	8.317167	5.388559	-0.142223	0.115750	0.105000	0.128841	0.099360	-0.471501	-0.866726
59981	-0.446704	8.130507	4.896761	-0.005061	-0.177316	-0.312610	0.129744	0.100153	-0.471589	-0.866452
59982	-0.580762	8.387518	5.187042	0.064873	-0.029571	0.065979	0.130765	0.100579	-0.471933	-0.866062
59983	-0.512433	8.511158	5.240853	0.003908	-0.059547	0.195577	0.131724	0.100567	-0.472501	-0.865608
59984	-0.473381	8.654899	5.253942	-0.012301	-0.121033	0.322423	0.132884	0.100839	-0.472934	-0.865163
59985	-0.491470	8.556196	5.457069	-0.065897	0.106955	0.346735	0.134091	0.101169	-0.473093	-0.864851
59986	-0.555346	8.206300	5.033438	0.081008	-0.020622	-0.170060	0.135253	0.101564	-0.473338	-0.864489
59987	-0.582377	8.341493	5.171622	0.084989	0.043250	0.018702	0.136323	0.101781	-0.474080	-0.863889
59988	-0.505479	8.487076	5.297980	0.000103	0.062831	0.204826	0.137214	0.101503	-0.474747	-0.863415
59989	-0.424720	8.545139	5.265179	-0.048043	-0.001340	0.233185	0.138230	0.101398	-0.475396	-0.862907
59990	-0.432808	8.510434	5.163249	-0.005362	-0.042593	0.150850	0.139289	0.101356	-0.476136	-0.862334
59991	-0.502833	8.474580	5.103387	0.079925	-0.025434	0.092302	0.140412	0.101498	-0.477093	-0.861606
59992	-0.461086	8.250985	5.073539	0.021719	0.080230	-0.116032	0.141315	0.101422	-0.478695	-0.860578
59993	-0.512753	8.397518	5.196431	0.052322	0.168161	0.074318	0.142196	0.101586	-0.480889	-0.859189
59994	-0.609572	8.409094	5.046730	0.191417	0.126032	0.010815	0.142792	0.101311	-0.482905	-0.857991
59995	-0.359379	8.559725	4.983877	0.001714	-0.035425	0.098701	0.143059	0.100734	-0.485088	-0.856783
59996	-0.146615	8.745477	4.872697	-0.132362	-0.241243	0.195917	0.143453	0.100389	-0.486916	-0.855720
59997	-0.237952	8.781670	4.905372	-0.050224	-0.156483	0.247624	0.143949	0.100185	-0.488785	-0.854594
59998	-0.371151	8.781545	4.770611	0.115471	-0.174588	0.185714	0.144619	0.100396	-0.490623	-0.853402
59999	-0.410423	8.743986	4.962966	0.080876	0.056527	0.249463	0.145286	0.100597	-0.492448	-0.852213
60000	-0.307110	8.709819	5.048204	-0.053145	0.151327	0.257750	0.145824	0.100722	-0.494460	-0.850941
60001	-0.083104	8.600894	4.549344	-0.122758	-0.230662	-0.085906	0.146132	0.100485	-0.496926	-0.849478
60002	-0.109582	8.881716	4.602871	-0.078268	-0.252877	0.187963	0.146798	0.100685	-0.499070	-0.848081
60003	-0.171668	8.963456	4.617799	-0.017913	-0.208480	0.269631	0.147774	0.101075	-0.500840	-0.846821
60004	-0.199146	8.791783	4.558253	-0.000017	-0.126713	0.091684	0.148814	0.101219	-0.502596	-0.845581
60005	-0.138842	8.812567	4.666052	-0.089937	-0.022161	0.159467	0.150083	0.101652	-0.504633	-0.844090
60006	-0.098654	8.939041	4.481809	-0.047358	-0.195553	0.185419	0.151285	0.101615	-0.506453	-0.842789
60007	-0.152800	8.938092	4.574209	-0.025388	-0.052523	0.228858	0.152998	0.102198	-0.508274	-0.841311
60008	-0.117492	9.044673	4.380948	0.023254	-0.222404	0.235318	0.154765	0.102621	-0.510141	-0.839805
60009	-0.136483	8.867502	4.387042	0.016913	-0.088619	0.081203	0.156577	0.102828	-0.511731	-0.838475
60010	-0.198993	8.822512	4.350834	0.088531	-0.029806	0.025866	0.158261	0.102773	-0.513634	-0.837001
60011	0.086644	8.901754	4.367830	-0.157992	-0.100668	0.101507	0.159438	0.102006	-0.516004	-0.835413
60012	0.153623	9.132939	4.221159	-0.120603	-0.284935	0.244965	0.160859	0.101649	-0.518129	-0.833867
60013	0.217276	9.003208	4.160291	-0.168073	-0.258258	0.102850	0.162713	0.101689	-0.519650	-0.832555
60014	0.117859	8.875215	4.156283	-0.084049	-0.128848	-0.012984	0.164630	0.101709	-0.521319	-0.831131
60015	0.153195	8.826268	4.269869	-0.152477	0.018549	-0.007869	0.166390	0.101545	-0.523143	-0.829653
60016	0.111947	8.981400	4.280697	-0.082453	0.030299	0.136913	0.168231	0.101708	-0.524869	-0.828170
60017	0.125529	8.871604	4.042537	-0.019834	-0.087972	-0.063075	0.169966	0.101573	-0.526320	-0.826911
60018	0.188196	8.900002	3.969602	-0.037127	-0.139518	-0.066809	0.171433	0.101534	-0.528246	-0.825383
60019	0.225785	9.100683	4.169326	-0.103221	-0.011754	0.199589	0.172898	0.101727	-0.530270	-0.823755
60020	0.228875	9.102992	4.095803	-0.075455	-0.031219	0.171584	0.174419	0.101936	-0.531561	-0.822575
60021	0.224395	8.946844	3.976134	-0.049161	-0.038423	-0.019729	0.175766	0.101960	-0.532709	-0.821542
60022	0.352591	9.002535	4.025682	-0.167777	-0.036387	0.053746	0.176966	0.102001	-0.533928	-0.820487
60023	0.443932	8.970466	4.090427	-0.275802	0.021303	0.052471	0.178206	0.102275	-0.534805	-0.819614
60024	0.368300	8.934891	3.970042	-0.166390	-0.013592	-0.029986	0.179466	0.102700	-0.535564	-0.818789
60025	0.374577	8.901328	3.970234	-0.175532	0.016882	-0.060479	0.180438	0.102868	-0.536305	-0.818069
60026	0.558414	8.832641	4.026007	-0.372744	0.032705	-0.096924	0.181205	0.102900	-0.537038	-0.817415
60027	0.485287	8.798514	4.079478	-0.331413	0.140051	-0.108977	0.181896	0.103200	-0.537894	-0.816660
60028	0.416440	8.835863	4.127372	-0.280406	0.214733	-0.057876	0.182558	0.103363	-0.538541	-0.816065
60029	0.198931	8.727634	4.096414	-0.089398	0.332877	-0.175626	0.183329	0.103479	-0.539131	-0.815488
60030	-0.184585	8.799605	4.275895	0.209491	0.637356	-0.050503	0.183972	0.103312	-0.539965	-0.814812
60031	-0.286095	8.784940	4.205139	0.336714	0.651801	-0.096624	0.183812	0.101776	-0.541238	-0.814197
60032	0.220285	9.061145	3.991111	0.027733	0.196557	0.088945	0.183210	0.099661	-0.542313	-0.813879
60033	0.465959	9.178357	3.810002	-0.090188	-0.077219	0.135244	0.183040	0.098708	-0.542806	-0.813704
60034	0.547802	9.148101	3.618410	-0.092327	-0.255505	0.036522	0.182699	0.098133	-0.542870	-0.813808
60035	0.450635	9.131423	3.707046	-0.042835	-0.132172	0.051837	0.182612	0.098786	-0.543140	-0.813568
60036	0.045183	9.291139	4.110281	0.196781	0.325710	0.339992	0.182502	0.099430	-0.543408	-0.813335
60037	0.225977	9.267181	3.901690	0.097900	0.084675	0.244059	0.181954	0.098975	-0.543421	-0.813505
60038	0.391113	9.244050	3.775286	-0.010978	-0.084830	0.179855	0.181747	0.098991	-0.543276	-0.813646
60039	0.158213	9.152212	3.738669	0.195432	0.006574	0.073031	0.181689	0.099166	-0.543189	-0.813696
60040	-0.001034	9.144837	3.809779	0.311741	0.136314	0.088156	0.181366	0.098897	-0.543524	-0.813577
60041	0.256003	9.296138	3.789240	0.116420	-0.030992	0.228604	0.180894	0.098041	-0.543745	-0.813638
60042	0.463745	9.207566	3.768601	-0.072624	-0.101678	0.146281	0.180586	0.097192	-0.543593	-0.813909
60043	0.474638	9.075641	3.766213	-0.095107	-0.068466	0.024139	0.180308	0.096436	-0.543252	-0.814289
60044	0.478860	8.983739	3.790179	-0.115470	-0.022751	-0.051106	0.179910	0.095731	-0.543200	-0.814495
60045	0.494134	8.969795	3.911112	-0.169988	0.080545	-0.016626	0.179553	0.095265	-0.543417	-0.814484
60046	0.216483	8.937869	4.224093	-0.030763	0.475401	0.063970	0.179281	0.094904	-0.543787	-0.814338
60047	0.362514	9.056397	4.196093	-0.125098	0.359402	0.167899	0.178678	0.093732	-0.543957	-0.814493
60048	0.647855	9.189655	3.744206	-0.188500	-0.183481	0.128105	0.178176	0.092524	-0.543806	-0.814842
60049	0.640758	9.054673	3.835098	-0.225527	-0.064864	0.038737	0.178049	0.091859	-0.543199	-0.815350
60050	0.438178	8.934678	3.979140	-0.099910	0.166679	-0.024111	0.177974	0.091198	-0.542643	-0.815811
60051	0.472079	8.949489	4.128065	-0.166497	0.263004	0.049372	0.177928	0.090488	-0.542009	-0.816321
60052	0.684156	8.957143	3.837355	-0.246013	-0.079833	-0.047603	0.177599	0.089596	-0.541749	-0.816663
60053	0.775613	9.271813	3.629399	-0.191737	-0.402864	0.164364	0.177611	0.089505	-0.541833	-0.816615
60054	0.611192	9.341487	3.823193	-0.095342	-0.196018	0.297023	0.178016	0.090013	-0.541821	-0.816479
60055	0.407323	9.313550	3.843472	0.077807	-0.090808	0.270273	0.178277	0.090215	-0.541648	-0.816515
60056	0.284519	9.102407	3.814252	0.161958	-0.000436	0.059346	0.178314	0.090157	-0.541291	-0.816750
60057	0.421896	9.090254	3.941387	-0.006213	0.049455	0.104104	0.178173	0.089844	-0.540883	-0.817085
60058	0.498111	9.164483	3.909720	-0.044907	-0.044866	0.163170	0.178017	0.089513	-0.540275	-0.817558
60059	0.621904	9.197564	3.867783	-0.133811	-0.152515	0.182337	0.177925	0.089483	-0.539872	-0.817847
60060	0.620562	9.207905	3.836360	-0.119948	-0.193924	0.179122	0.177980	0.089786	-0.539323	-0.818164
60061	0.541351	9.052436	3.915371	-0.107440	-0.057162	0.064303	0.178076	0.090342	-0.538572	-0.818577
60062	0.612747	9.080602	3.936601	-0.177004	-0.098059	0.101374	0.177967	0.090528	-0.537596	-0.819221
60063	0.981687	9.058134	3.790481	-0.466968	-0.388599	0.036783	0.177957	0.090636	-0.536077	-0.820206
60064	0.711829	8.973447	3.798799	-0.240060	-0.276689	-0.049181	0.178852	0.092127	-0.534895	-0.820617
60065	0.142997	9.026896	3.957029	0.227886	0.039445	0.041746	0.179741	0.093511	-0.533980	-0.820862
60066	0.146589	9.092524	4.405219	0.074885	0.372604	0.284686	0.180131	0.094010	-0.533130	-0.821272
60067	0.596233	9.130662	4.447950	-0.340190	0.185355	0.353851	0.180260	0.094024	-0.531443	-0.822334
60068	0.960518	9.145160	3.812100	-0.438112	-0.539075	0.117367	0.180617	0.094215	-0.529762	-0.823319
60069	0.605346	8.951830	3.874496	-0.170815	-0.315251	-0.046179	0.182189	0.096174	-0.527676	-0.824085
60070	-0.017577	8.920231	4.099897	0.306724	0.100262	-0.000665	0.183515	0.097654	-0.526301	-0.824496
60071	0.098560	9.149437	4.542667	0.089235	0.307632	0.397850	0.184177	0.097840	-0.525019	-0.825143
60072	0.554462	8.949622	4.382258	-0.287973	0.017107	0.163470	0.184489	0.097027	-0.522163	-0.826980
60073	0.774992	8.515299	3.848766	-0.361321	-0.407397	-0.451750	0.185509	0.097364	-0.519579	-0.828339
60074	0.219396	8.724949	4.279422	0.031527	0.064410	-0.092546	0.187466	0.099813	-0.519024	-0.827954
60075	-0.184853	9.109897	4.656713	0.326935	0.385335	0.407586	0.188858	0.101090	-0.518447	-0.827844
60076	-0.024515	8.994794	4.302875	0.300149	0.056360	0.153670	0.188784	0.099595	-0.517379	-0.828710
60077	0.418142	8.907373	4.037508	0.003445	-0.335415	-0.029794	0.188780	0.098568	-0.516255	-0.829534
60078	0.297834	8.795274	4.583324	-0.096501	0.177806	0.107564	0.189841	0.099387	-0.514671	-0.830179
60079	0.177677	8.652905	4.727549	-0.059847	0.364995	0.042113	0.190530	0.099322	-0.512740	-0.831223
60080	0.343011	8.491064	4.081219	0.012127	-0.196334	-0.387540	0.190154	0.097947	-0.511857	-0.832016
60081	0.554097	8.867264	4.190257	-0.128928	-0.349653	0.003359	0.190317	0.098108	-0.512318	-0.831676
60082	-0.046168	8.948030	4.773971	0.209376	0.354846	0.320939	0.190863	0.099376	-0.512576	-0.831241
60083	0.230702	9.130221	4.625564	0.046917	0.046657	0.424774	0.190144	0.098477	-0.512560	-0.831523
60084	0.683891	8.893650	4.009010	-0.181711	-0.563084	-0.051193	0.189720	0.097980	-0.511717	-0.832197
60085	0.448137	8.907299	4.345162	-0.093177	-0.206034	0.105481	0.190023	0.099366	-0.511749	-0.831944
60086	0.002327	9.010689	4.595631	0.224000	0.145725	0.298738	0.189937	0.100086	-0.512008	-0.831718
60087	0.194961	9.179655	4.525407	0.102954	-0.057764	0.423008	0.189555	0.099912	-0.512103	-0.831768
60088	0.275125	9.041221	4.353399	0.062777	-0.179051	0.224018	0.189352	0.099929	-0.511877	-0.831950
60089	0.241723	8.960591	4.447339	0.038714	-0.060770	0.193523	0.189307	0.100213	-0.511794	-0.831978
60090	0.205786	8.940129	4.415840	0.074278	-0.061849	0.160204	0.189112	0.100237	-0.512067	-0.831852
60091	0.291770	8.914748	4.364828	0.006753	-0.126773	0.116737	0.188979	0.100276	-0.512100	-0.831857
60092	0.351760	8.858925	4.508257	-0.113099	-0.012507	0.132951	0.188857	0.100215	-0.512147	-0.831862
60093	0.319633	8.897402	4.454355	-0.057195	-0.056566	0.142247	0.188909	0.100307	-0.512264	-0.831768
60094	0.259525	9.024002	4.498659	0.006719	-0.045567	0.273728	0.189054	0.100434	-0.512146	-0.831792
60095	0.359625	8.831928	4.163925	-0.000038	-0.285767	-0.045964	0.189016	0.100233	-0.512054	-0.831881
60096	0.269512	8.949167	4.438242	0.002823	-0.070184	0.179974	0.189199	0.100842	-0.512253	-0.831644
60097	0.130566	8.974867	4.477910	0.114335	0.009962	0.217456	0.189100	0.100902	-0.512068	-0.831773
60098	0.278010	8.810442	4.563695	-0.084900	0.076625	0.112805	0.188810	0.100741	-0.511734	-0.832064
60099	0.323715	8.742382	4.482387	-0.111093	0.013808	0.016519	0.188589	0.100749	-0.511737	-0.832111
60100	0.197628	9.049385	4.510925	0.051989	-0.031685	0.300430	0.188381	0.101002	-0.511935	-0.832006
60101	0.139610	8.956197	4.417163	0.114313	-0.047764	0.173750	0.187978	0.101009	-0.511759	-0.832205
60102	0.308937	8.954706	4.604246	-0.110626	0.026726	0.260461	0.187514	0.100939	-0.511458	-0.832502
60103	0.463177	8.951306	4.390955	-0.173898	-0.218231	0.164438	0.187200	0.100785	-0.511176	-0.832765
60104	0.366387	9.136147	4.417346	-0.058456	-0.239999	0.338930	0.187154	0.101056	-0.510721	-0.833022
60105	0.245919	8.736132	4.430697	-0.037495	-0.035934	-0.014279	0.186962	0.101218	-0.509626	-0.833715
60106	0.370872	8.845262	4.443537	-0.136195	-0.137913	0.091031	0.186595	0.101469	-0.509465	-0.833866
60107	0.248840	9.076824	4.413561	0.022555	-0.208511	0.281181	0.186738	0.102385	-0.509510	-0.833694
60108	0.092084	9.126684	4.461989	0.146819	-0.126182	0.344907	0.186901	0.102924	-0.509343	-0.833693
60109	0.046374	8.856371	4.447195	0.135644	-0.017950	0.096715	0.186956	0.103060	-0.508760	-0.834020
60110	0.305848	8.877213	4.355677	-0.059964	-0.219378	0.077644	0.186701	0.102824	-0.508518	-0.834254
60111	0.358147	8.881814	4.272724	-0.076363	-0.314750	0.044602	0.186874	0.103160	-0.508407	-0.834242
60112	0.220215	8.895206	4.437588	-0.013211	-0.130407	0.129555	0.187226	0.103681	-0.508358	-0.834128
60113	0.156895	8.811664	4.588502	-0.030356	0.050100	0.123155	0.187556	0.103849	-0.508135	-0.834169
60114	0.229648	8.827186	4.495099	-0.054596	-0.063695	0.095432	0.187679	0.103520	-0.508154	-0.834170
60115	0.228389	8.744633	4.571730	-0.092916	0.035059	0.057045	0.187967	0.103364	-0.508225	-0.834081
60116	0.138605	8.701891	4.280683	0.090326	-0.138889	-0.115321	0.188035	0.103193	-0.508613	-0.833851
60117	0.243508	8.891480	4.462313	-0.033545	-0.105851	0.138072	0.188252	0.103454	-0.508846	-0.833627
60118	0.130029	8.650584	4.503842	0.006062	0.076891	-0.059322	0.188266	0.103036	-0.508834	-0.833683
60119	0.172000	8.555512	4.474533	-0.030511	0.087988	-0.156649	0.187532	0.101453	-0.510019	-0.833318
60120	0.285138	8.808329	4.745654	-0.163590	0.187899	0.193662	0.186748	0.099504	-0.511317	-0.832934
60121	0.488983	8.868682	4.720619	-0.311049	0.089887	0.240768	0.186047	0.097974	-0.512604	-0.832481
60122	0.452406	8.734861	4.453071	-0.196632	-0.039585	0.000164	0.185853	0.097008	-0.512947	-0.832426
60123	0.349932	8.331630	4.478330	-0.184933	0.192077	-0.351036	0.185788	0.096303	-0.513121	-0.832415
60124	0.210984	8.555678	4.268656	0.074474	0.006679	-0.249221	0.185048	0.094667	-0.514531	-0.831897
60125	0.339180	9.026581	4.698662	-0.078279	0.157134	0.367717	0.184144	0.092333	-0.516199	-0.831327
60126	0.455748	9.060853	4.655953	-0.132686	0.091969	0.383315	0.183124	0.089423	-0.516885	-0.831444
60127	0.629249	8.906086	4.266012	-0.158585	-0.217652	0.078751	0.182129	0.086957	-0.517770	-0.831374
60128	0.527865	8.925306	4.184950	-0.009625	-0.228847	0.056507	0.181551	0.084937	-0.518681	-0.831141
60129	0.499547	8.913257	4.516106	-0.070708	0.081057	0.191274	0.181433	0.082981	-0.519060	-0.831127
60130	0.374793	8.672130	4.660645	-0.026907	0.354846	0.033186	0.181509	0.081383	-0.519183	-0.831192
60131	0.526367	8.546103	4.924907	-0.256319	0.572654	0.044999	0.181321	0.080005	-0.519371	-0.831250
60132	0.591582	8.722319	4.866238	-0.242964	0.443306	0.179985	0.181235	0.079119	-0.520128	-0.830879
60133	0.645499	8.614877	4.599406	-0.212531	0.253145	-0.031174	0.181286	0.077825	-0.520158	-0.830972
60134	0.767098	8.558692	4.313500	-0.223982	-0.000278	-0.200419	0.181197	0.076450	-0.520784	-0.830727
60135	0.769786	8.736504	4.401396	-0.199400	0.023753	-0.001929	0.181317	0.075432	-0.521650	-0.830250
60136	0.655070	8.815872	4.442166	-0.076554	0.088796	0.080128	0.181483	0.074737	-0.522054	-0.830023
60137	0.677237	8.826357	4.377971	-0.064515	0.032408	0.062768	0.181459	0.074162	-0.522355	-0.829891
60138	0.799040	9.031881	4.545363	-0.177317	0.052757	0.328291	0.181483	0.073793	-0.522380	-0.829903
60139	0.837106	8.762331	4.448276	-0.236439	0.054953	0.046695	0.181603	0.073791	-0.521851	-0.830209
60140	0.906409	8.589947	4.540710	-0.365676	0.160177	-0.062435	0.181914	0.074054	-0.521281	-0.830475
60141	0.628940	8.688754	4.321985	-0.023420	0.042513	-0.088121	0.182291	0.074867	-0.521670	-0.830076
60142	0.367994	9.197823	4.523348	0.254181	0.124383	0.439919	0.182477	0.075548	-0.522054	-0.829732
60143	0.630995	9.152785	4.175571	0.109769	-0.249316	0.263661	0.182107	0.075148	-0.521921	-0.829933
60144	0.920118	8.927646	4.213846	-0.218189	-0.251113	0.096667	0.182228	0.075535	-0.521312	-0.830254
60145	0.519754	8.729451	4.574206	-0.014427	0.267228	0.052665	0.182765	0.076474	-0.520711	-0.830427
60146	0.437039	8.724580	4.358912	0.124755	0.119962	-0.051568	0.182667	0.076435	-0.521274	-0.830099
60147	0.716843	9.120584	4.340212	-0.040078	-0.146836	0.312192	0.182545	0.076255	-0.521556	-0.829965
60148	0.709949	9.064512	4.025700	0.052393	-0.380260	0.123525	0.182613	0.076616	-0.521822	-0.829750
60149	0.447501	9.026302	4.384628	0.164126	0.034690	0.230778	0.183013	0.077213	-0.521390	-0.829878
60150	0.466849	8.763257	4.347013	0.099511	0.094539	-0.020328	0.183013	0.077010	-0.521607	-0.829760
60151	0.768945	9.003293	4.270562	-0.098398	-0.170672	0.179782	0.182898	0.076717	-0.522065	-0.829524
60152	0.636386	9.041042	4.380852	-0.004638	-0.037246	0.253885	0.183163	0.077098	-0.521940	-0.829509
60153	0.462199	8.955324	4.365762	0.140998	0.048634	0.159729	0.183316	0.077077	-0.521869	-0.829522
60154	0.628409	8.962501	4.400787	-0.018585	0.009595	0.191702	0.183529	0.077003	-0.521776	-0.829541
60155	0.439496	8.902459	4.570512	0.090611	0.245726	0.200699	0.183892	0.077022	-0.521545	-0.829604
60156	0.627981	8.806419	4.539313	-0.086229	0.179204	0.112693	0.184068	0.076538	-0.521299	-0.829764
60157	0.819921	8.805143	4.342897	-0.191198	-0.065641	0.037323	0.184647	0.076718	-0.520855	-0.829897
60158	0.544196	8.508634	4.324916	0.003916	0.128549	-0.253329	0.185177	0.077216	-0.520099	-0.830207
60159	0.835830	8.761594	4.251680	-0.183013	-0.149427	-0.041039	0.185067	0.077105	-0.520367	-0.830074
60160	0.850319	8.867565	4.215412	-0.165223	-0.226721	0.038594	0.185733	0.078139	-0.520086	-0.830005
60161	0.530129	9.211488	4.621801	0.059262	0.105232	0.506178	0.186716	0.079655	-0.520310	-0.829499
60162	0.280820	8.930193	4.698666	0.190362	0.366789	0.273633	0.187506	0.080365	-0.519212	-0.829941
60163	0.498502	8.366264	4.051677	0.082787	-0.057672	-0.504155	0.187236	0.079976	-0.518776	-0.830312
60164	0.976465	9.112524	4.093130	-0.201252	-0.498052	0.210122	0.186840	0.079968	-0.519578	-0.829900
60165	0.970154	9.115118	4.088854	-0.201010	-0.497802	0.210140	0.187123	0.080737	-0.519090	-0.830068
60166	0.628647	8.965928	4.398556	-0.041019	-0.057660	0.193575	0.187864	0.082719	-0.518776	-0.829901
60167	0.186130	8.538654	4.569775	0.188076	0.413345	-0.136955	0.188254	0.084303	-0.518070	-0.830094
60168	0.227744	8.613305	4.671208	0.115468	0.442906	-0.022306	0.187727	0.084790	-0.518240	-0.830058
60169	0.581394	9.018756	4.501728	-0.068198	0.004435	0.283692	0.187190	0.084579	-0.518442	-0.830075
60170	0.783717	9.037824	4.418771	-0.222937	-0.153531	0.274371	0.187359	0.084831	-0.518281	-0.830111
60171	0.855399	8.651009	4.275527	-0.327442	-0.156965	-0.131782	0.187899	0.085443	-0.517941	-0.830139
60172	0.699280	8.552661	4.232710	-0.202482	-0.091746	-0.246947	0.188433	0.086793	-0.518315	-0.829644
60173	0.565001	8.945736	4.408120	-0.073603	-0.034867	0.175819	0.188648	0.088030	-0.518941	-0.829074
60174	0.642331	9.048427	4.336003	-0.115345	-0.161337	0.239585	0.188813	0.089107	-0.518905	-0.828943
60175	0.460393	8.912558	4.421560	-0.024917	0.029962	0.146946	0.189244	0.090384	-0.518567	-0.828918
60176	0.282185	8.861236	4.506894	0.081824	0.189945	0.130674	0.189377	0.091189	-0.518728	-0.828699
60177	0.455051	9.049972	4.294268	0.032803	-0.125811	0.213922	0.189248	0.091186	-0.518982	-0.828570
60178	0.633411	8.785080	4.272386	-0.181274	-0.115898	-0.025664	0.189411	0.091461	-0.518716	-0.828669
60179	0.430362	8.775683	4.433280	-0.060759	0.105154	0.027893	0.189536	0.091962	-0.519096	-0.828346
60180	0.356048	8.818977	4.462812	-0.000542	0.152306	0.076428	0.189439	0.091990	-0.519537	-0.828090
60181	0.459123	8.806716	4.443744	-0.095556	0.107048	0.061284	0.189321	0.092245	-0.519904	-0.827858
60182	0.409958	8.788634	4.392429	-0.043146	0.096550	0.020440	0.188997	0.092376	-0.520070	-0.827813
60183	0.621787	8.778855	4.313709	-0.215219	-0.049765	-0.014004	0.188278	0.092143	-0.520286	-0.827867
60184	0.749485	8.793618	4.204968	-0.297167	-0.197868	-0.043157	0.187657	0.092394	-0.520295	-0.827974
60185	0.574013	8.830374	4.229375	-0.149938	-0.121300	-0.006801	0.187132	0.092843	-0.520416	-0.827967
60186	0.455190	9.074816	4.414920	-0.071949	-0.009635	0.289080	0.186628	0.093541	-0.520871	-0.827716
60187	0.094021	9.125561	4.500273	0.221009	0.189460	0.358467	0.186165	0.094120	-0.520709	-0.827857
60188	0.195974	8.936465	4.567861	0.052232	0.268251	0.221727	0.185322	0.094358	-0.520533	-0.828129
60189	0.405832	8.761375	4.249520	-0.074642	-0.029621	-0.067006	0.184104	0.094677	-0.519741	-0.828861
60190	0.444609	8.803935	4.171821	-0.098441	-0.145812	-0.061792	0.183187	0.096426	-0.519394	-0.829080
60191	0.321756	9.172060	4.219037	0.039562	-0.219240	0.285864	0.182367	0.097742	-0.518684	-0.829552
60192	0.272869	8.817732	4.136333	0.021436	-0.151917	-0.070383	0.181663	0.098545	-0.517912	-0.830093
60193	-0.228440	8.965737	4.572552	0.332197	0.343791	0.242970	0.181140	0.099571	-0.518190	-0.829911
60194	0.026413	9.191803	5.279995	-0.128358	0.725963	0.762035	0.180141	0.099917	-0.517637	-0.830432
60195	0.886497	8.433152	3.925595	-0.585373	-0.472611	-0.498825	0.178092	0.099506	-0.515770	-0.832083
60196	0.341206	8.456761	3.844800	-0.081624	-0.367339	-0.524318	0.177353	0.102661	-0.514725	-0.832505
60197	-0.721065	9.062195	4.697657	0.646781	0.498533	0.387519	0.176542	0.105039	-0.514662	-0.832420
60198	-0.205033	9.281743	5.526433	-0.114389	0.871286	0.955879	0.174868	0.104795	-0.514597	-0.832844
60199	1.216449	8.862968	4.416636	-1.094938	-0.466894	0.092948	0.172734	0.103664	-0.512958	-0.834440
60200	1.019567	8.678337	3.030171	-0.471245	-1.485945	-0.696510	0.172326	0.106361	-0.511824	-0.834881
60201	-0.794882	8.656957	4.092563	0.754351	0.086501	-0.234231	0.173295	0.111319	-0.510323	-0.834953
60202	-1.328363	8.818855	4.805492	0.964823	0.800086	0.240096	0.171665	0.111526	-0.510769	-0.834990
60203	0.229765	9.224278	5.470921	-0.641227	0.550629	0.881082	0.168840	0.109527	-0.511442	-0.835419
60204	1.643781	9.017528	4.407549	-1.589911	-0.806325	0.200616	0.166500	0.108869	-0.510083	-0.836804
60205	0.659728	8.873603	2.937885	-0.209991	-1.608938	-0.583714	0.166825	0.113036	-0.507418	-0.837806
60206	-1.371423	8.429380	4.027163	1.120080	0.222543	-0.439937	0.167965	0.119392	-0.505445	-0.837890
60207	-1.522719	8.809042	4.498686	1.092677	0.480680	0.123663	0.165223	0.118621	-0.506013	-0.838201
60208	0.104664	9.083429	4.814319	-0.474296	-0.026643	0.457250	0.160906	0.115378	-0.507103	-0.838835
60209	0.621056	9.411335	5.314129	-1.106412	0.038173	0.956388	0.157993	0.117020	-0.506926	-0.839268
60210	-0.342323	9.036185	3.545001	0.313120	-0.897631	-0.146627	0.155331	0.118590	-0.505653	-0.840312
60211	-0.766150	8.781853	3.873186	0.514712	-0.394267	-0.205971	0.153316	0.119000	-0.504644	-0.841230
60212	-0.792460	8.460741	4.412781	0.294509	0.154674	-0.243262	0.151315	0.117856	-0.502740	-0.842892
60213	-0.426641	8.681718	4.651041	-0.080654	0.072186	0.045030	0.147825	0.114583	-0.501741	-0.844556
60214	0.307974	8.798798	5.140959	-0.898920	0.121992	0.342123	0.144688	0.112550	-0.500936	-0.845849
60215	-0.112143	8.406743	4.397107	-0.301573	-0.188142	-0.331445	0.143085	0.112159	-0.499170	-0.847216
60216	-0.387719	8.950292	4.888376	-0.148222	0.040140	0.391756	0.142042	0.112295	-0.499212	-0.847349
60217	-0.272550	9.159615	4.412335	-0.051503	-0.527137	0.344097	0.140792	0.109635	-0.495692	-0.849969
60218	0.059491	8.517528	3.468231	-0.087555	-1.187749	-0.693394	0.139064	0.106309	-0.492523	-0.852514
60219	-0.411190	8.997553	4.735816	0.045482	-0.295202	0.358996	0.138417	0.104587	-0.489126	-0.854786
60220	-0.484540	9.538375	7.185383	-0.585103	1.397265	2.042705	0.138418	0.105437	-0.488071	-0.855284
60221	-0.559517	8.541153	4.542477	0.209781	-0.297308	-0.129450	0.137485	0.104123	-0.483457	-0.858211
60222	-0.028438	7.994625	4.238258	-0.249767	-0.538142	-0.783549	0.137451	0.104774	-0.480369	-0.859870
60223	-0.661734	7.937500	4.032291	0.410246	-0.528542	-0.910272	0.137168	0.104501	-0.476619	-0.862032
60224	-0.501573	8.168858	4.441280	0.182345	-0.431783	-0.512854	0.135877	0.102470	-0.474872	-0.863443
60225	-0.827030	8.234918	4.739866	0.439297	-0.147878	-0.286452	0.134697	0.099399	-0.474052	-0.864437
60226	-0.486634	8.789264	6.480944	-0.293443	0.854800	1.081048	0.132956	0.096095	-0.475994	-0.864013
60227	-0.241474	9.840423	7.185439	-0.574885	0.839652	2.331744	0.132359	0.096112	-0.476817	-0.863649
60228	-0.403896	8.749308	4.371187	0.261879	-0.809578	-0.060932	0.131652	0.096122	-0.475727	-0.864356
60229	-0.266955	7.833572	4.760745	-0.109690	-0.099767	-0.643239	0.130898	0.096086	-0.474967	-0.864893
60230	-0.742398	7.351472	4.515370	0.345568	0.103591	-1.160885	0.129336	0.095178	-0.476172	-0.864566
60231	-0.835641	8.160551	4.976845	0.404612	0.130960	-0.227245	0.126817	0.093137	-0.479318	-0.863422
60232	-0.224107	8.756641	5.435257	-0.223262	0.072604	0.493403	0.124109	0.090308	-0.482291	-0.862460
60233	-0.050089	9.142099	5.523509	-0.358038	-0.029754	0.862521	0.121860	0.088427	-0.485569	-0.861135
60234	-0.400764	9.258257	5.526222	-0.007535	0.076863	0.976612	0.120102	0.086883	-0.487205	-0.860615
60235	-0.640404	8.667623	5.216704	0.244843	0.208640	0.318862	0.118661	0.085125	-0.487856	-0.860622
60236	-0.580034	8.324801	5.430150	0.107863	0.548978	0.127746	0.117436	0.083161	-0.488658	-0.860527
60237	-0.284734	8.366684	4.935251	-0.019491	0.060282	-0.094917	0.116487	0.081302	-0.490076	-0.860027
60238	-0.027511	8.570934	5.101068	-0.267132	0.053203	0.157684	0.116161	0.079950	-0.491159	-0.859580
60239	0.019079	8.684675	5.021512	-0.265193	-0.058485	0.215560	0.116724	0.079649	-0.491905	-0.859105
60240	-0.195170	8.792662	5.060364	-0.047009	-0.011028	0.333935	0.117765	0.079660	-0.491555	-0.859162
60241	-0.313265	8.603475	4.738889	0.135427	-0.159007	0.012350	0.119006	0.080017	-0.490989	-0.859281
60242	-0.317782	8.414947	4.840278	0.102489	0.008696	-0.100324	0.119729	0.079492	-0.490486	-0.859517
60243	-0.102790	8.652805	5.300599	-0.179928	0.208758	0.331374	0.120716	0.079534	-0.490494	-0.859370
60244	-0.225236	8.674909	5.251059	-0.036936	0.194216	0.328284	0.121788	0.079465	-0.490373	-0.859295
60245	-0.174700	8.493067	5.073765	-0.054764	0.129579	0.081047	0.122897	0.079724	-0.490959	-0.858778
60246	-0.270397	8.499246	5.165368	0.018448	0.242556	0.133777	0.123962	0.079877	-0.491208	-0.858468
60247	-0.235990	8.298325	5.011636	0.003851	0.210200	-0.117834	0.124889	0.080179	-0.491425	-0.858181
60248	-0.267318	8.366692	5.097621	0.018444	0.269365	-0.015453	0.125672	0.080783	-0.492102	-0.857622
60249	-0.202072	8.382568	4.993650	-0.016716	0.168171	-0.054806	0.126415	0.081135	-0.492338	-0.857345
60250	-0.186865	8.454246	5.087713	-0.045602	0.212623	0.053757	0.127310	0.081442	-0.492442	-0.857123
60251	-0.210120	8.373811	5.148130	-0.048439	0.307481	0.014378	0.128216	0.081850	-0.492113	-0.857138
60252	-0.090099	8.290420	4.931092	-0.112650	0.130050	-0.167728	0.128775	0.081970	-0.492121	-0.857039
60253	-0.169522	8.455981	5.024139	-0.039462	0.155509	0.023398	0.129334	0.082398	-0.492331	-0.856792
60254	-0.238092	8.651594	5.145902	0.017307	0.188073	0.254656	0.129681	0.082651	-0.492446	-0.856649
60255	-0.130189	8.764867	5.003796	-0.033043	-0.015670	0.280700	0.130178	0.083148	-0.492310	-0.856604
60256	-0.269344	8.889214	5.269018	0.040459	0.176142	0.522715	0.130874	0.083828	-0.491492	-0.856901
60257	-0.175896	8.673866	4.960354	0.006260	-0.026005	0.180872	0.131464	0.084364	-0.490278	-0.857454
60258	-0.198794	8.682192	4.924221	0.037087	-0.076782	0.170329	0.131913	0.085117	-0.489300	-0.857869
60259	-0.249344	8.581577	5.079718	0.024306	0.089767	0.162304	0.131977	0.085448	-0.488078	-0.858522
60260	-0.271903	8.434424	5.210305	-0.014160	0.251768	0.101802	0.131668	0.085668	-0.487344	-0.858965
60261	-0.187824	8.362389	5.089954	-0.075494	0.148266	-0.022653	0.131199	0.085867	-0.486977	-0.859225
60262	-0.140551	8.623563	4.962212	-0.055767	-0.104176	0.136944	0.130605	0.086085	-0.486946	-0.859311
60263	-0.137817	8.594539	5.034900	-0.090640	-0.039051	0.148515	0.130125	0.086282	-0.486495	-0.859620
60264	-0.159051	8.535327	5.136073	-0.109917	0.062900	0.149255	0.129672	0.086181	-0.485658	-0.860171
60265	-0.204521	8.611583	4.862077	0.018001	-0.198725	0.076760	0.129361	0.086399	-0.485258	-0.860422
60266	-0.297075	8.831246	5.281119	0.016770	0.049338	0.481323	0.128980	0.086281	-0.484542	-0.860894
60267	-0.283220	8.576014	5.071991	0.027086	-0.015761	0.154877	0.128718	0.086319	-0.483923	-0.861278
60268	-0.392886	8.528550	5.260698	0.072975	0.180559	0.213654	0.128478	0.086181	-0.483336	-0.861657
60269	-0.351169	8.375020	5.027482	0.077772	0.046349	-0.038658	0.128225	0.086128	-0.483286	-0.861728
60270	-0.303872	8.554552	5.022695	0.057923	-0.063831	0.111663	0.127991	0.086030	-0.483143	-0.861852
60271	-0.317572	8.565692	4.984904	0.084192	-0.100726	0.102148	0.127684	0.085762	-0.482904	-0.862059
60272	-0.302221	8.550849	4.884004	0.098431	-0.183838	0.037103	0.127289	0.085348	-0.482861	-0.862182
60273	-0.256059	8.642907	5.080812	0.016690	-0.084598	0.215902	0.126805	0.084816	-0.482890	-0.862290
60274	-0.035820	8.667202	4.883045	-0.130365	-0.327220	0.129230	0.126416	0.084295	-0.482657	-0.862529
60275	-0.016331	8.736820	4.731962	-0.094219	-0.499272	0.110296	0.126414	0.084262	-0.482123	-0.862831
60276	-0.196270	8.741092	4.844925	0.047684	-0.364708	0.176468	0.126425	0.084387	-0.481807	-0.862994
60277	-0.159545	8.752885	4.866699	0.006332	-0.364169	0.196835	0.126400	0.084490	-0.482130	-0.862807
60278	-0.202749	8.617681	5.116336	-0.041054	-0.071519	0.211065	0.126441	0.084473	-0.482641	-0.862517
60279	-0.228795	8.473466	5.039972	-0.016742	-0.035997	0.048939	0.126466	0.084429	-0.483716	-0.861914
60280	-0.151153	8.474938	4.797025	-0.027453	-0.231079	-0.075920	0.126383	0.084346	-0.485070	-0.861173
60281	-0.020575	8.713892	4.767499	-0.116792	-0.382262	0.112107	0.126453	0.084475	-0.486432	-0.860382
60282	-0.319926	8.686137	4.989518	0.098134	-0.071424	0.208882	0.126930	0.084880	-0.487230	-0.859820
60283	-0.226246	8.535148	4.474353	0.125703	-0.419748	-0.183167	0.126919	0.084784	-0.488895	-0.858886
60284	-0.149744	8.985638	4.542678	0.089829	-0.570702	0.240480	0.126968	0.084783	-0.490332	-0.858059
60285	-0.378400	9.006477	5.046446	0.172141	-0.069271	0.516492	0.127054	0.084323	-0.491264	-0.857558
60286	-0.437246	8.730144	5.302342	0.131055	0.311955	0.405282	0.127043	0.083377	-0.491951	-0.857259
60287	-0.559266	8.404548	5.282765	0.222568	0.502593	0.114782	0.127000	0.082555	-0.492362	-0.857109
60288	-0.428226	8.469891	5.213346	0.138509	0.381023	0.134023	0.126762	0.081648	-0.492468	-0.857170
60289	-0.249833	8.298975	5.043148	0.006891	0.262585	-0.101884	0.126669	0.080706	-0.491751	-0.857684
60290	-0.137429	8.293349	5.052080	-0.081688	0.218331	-0.103538	0.126558	0.079378	-0.490474	-0.858555
60291	-0.164988	8.439580	5.072477	-0.014500	0.137679	0.034361	0.126586	0.078260	-0.488423	-0.859823
60292	-0.088840	8.399388	5.219297	-0.107891	0.212469	0.073753	0.126378	0.077319	-0.486540	-0.861005
60293	-0.133969	8.437329	4.974593	0.021383	-0.031914	-0.017207	0.126292	0.076834	-0.484902	-0.861984
60294	-0.008063	8.581428	5.150766	-0.111580	-0.029176	0.195208	0.126067	0.076248	-0.483552	-0.862827
60295	0.055990	8.578706	5.008078	-0.124482	-0.197616	0.118249	0.126134	0.075991	-0.481816	-0.863811
60296	0.010053	8.405416	5.279917	-0.161433	0.084519	0.111791	0.126241	0.075398	-0.479959	-0.864880
60297	0.048317	8.393752	4.914936	-0.091952	-0.248690	-0.089331	0.126319	0.075027	-0.478923	-0.865475
60298	0.207665	8.790859	4.864116	-0.169228	-0.543875	0.220134	0.126311	0.075049	-0.479304	-0.865263
60299	0.227556	8.766950	4.825673	-0.183712	-0.560975	0.179803	0.126594	0.075278	-0.479613	-0.865031
60300	0.045732	8.463273	5.236163	-0.163699	-0.010280	0.138170	0.127080	0.075772	-0.480235	-0.864571
60301	-0.076993	8.106923	5.113668	-0.073901	0.123492	-0.228483	0.127403	0.076245	-0.481249	-0.863918
60302	-0.140905	8.262974	5.215177	-0.028389	0.171293	-0.042097	0.127512	0.076948	-0.482474	-0.863156
60303	-0.388691	8.372733	5.275455	0.195047	0.266355	0.085550	0.127334	0.077252	-0.483722	-0.862457
60304	-0.112322	8.300191	5.224912	-0.072175	0.200985	-0.006573	0.126941	0.076973	-0.484554	-0.862072
60305	-0.019959	8.492231	5.169759	-0.120308	0.051805	0.128520	0.126632	0.076763	-0.485387	-0.861668
60306	0.085275	8.627140	5.022827	-0.164117	-0.150774	0.167990	0.126401	0.076498	-0.485932	-0.861418
60307	-0.089553	8.666601	5.001446	0.013745	-0.124980	0.193143	0.126353	0.076445	-0.486358	-0.861189
60308	-0.212437	8.698270	5.127141	0.101732	0.005457	0.285938	0.126313	0.076471	-0.486515	-0.861104
60309	0.029465	8.683029	5.176266	-0.146459	-0.014726	0.295128	0.126185	0.076537	-0.486703	-0.861011
60310	-0.057953	8.549369	5.237535	-0.103228	0.129323	0.212254	0.126384	0.077079	-0.486772	-0.860894
60311	-0.003193	8.429317	5.216453	-0.174580	0.160817	0.097329	0.126523	0.077477	-0.487294	-0.860543
60312	0.082798	8.486428	5.209537	-0.256176	0.115490	0.141538	0.126866	0.078167	-0.488028	-0.860014
60313	-0.022165	8.401801	5.161522	-0.168704	0.166865	0.045086	0.127250	0.079093	-0.488967	-0.859339
60314	-0.125683	8.534483	5.087707	-0.048013	0.092731	0.123459	0.127707	0.080136	-0.489830	-0.858683
60315	-0.306809	8.541057	4.954735	0.145142	0.052389	0.065032	0.128105	0.081108	-0.490543	-0.858125
60316	-0.303257	8.669744	4.932604	0.152885	-0.014073	0.165460	0.128284	0.081664	-0.491148	-0.857699
60317	-0.296764	8.630731	5.029543	0.104322	0.092710	0.180030	0.128576	0.082410	-0.491463	-0.857404
60318	-0.362316	8.571152	5.121618	0.123908	0.223275	0.175390	0.128676	0.082846	-0.491717	-0.857201
60319	-0.320969	8.486323	5.088687	0.074525	0.229290	0.084651	0.128706	0.083227	-0.491957	-0.857022
60320	-0.412277	8.615543	5.060931	0.180206	0.179575	0.184604	0.128539	0.083391	-0.492383	-0.856786
60321	-0.453752	8.672379	4.898294	0.267633	0.040661	0.154059	0.128273	0.083326	-0.492863	-0.856556
60322	-0.143982	8.664130	4.715459	0.019409	-0.187717	0.050771	0.127792	0.082994	-0.493630	-0.856219
60323	0.281666	8.701995	4.651300	-0.366706	-0.375727	0.044442	0.127557	0.083069	-0.494063	-0.855997
60324	0.314030	8.718392	4.588855	-0.385783	-0.442401	0.027131	0.127672	0.083768	-0.493935	-0.855985
60325	0.058799	8.858699	4.423898	-0.085856	-0.578852	0.072068	0.127879	0.084352	-0.493098	-0.856379
60326	-0.279533	8.849782	4.655825	0.167975	-0.302650	0.184993	0.128113	0.084818	-0.491933	-0.856969
60327	-0.194629	8.805187	4.778685	0.049382	-0.234688	0.204669	0.127998	0.084686	-0.490609	-0.857758
60328	0.074025	8.751845	4.686819	-0.185960	-0.397339	0.105679	0.128061	0.085095	-0.489278	-0.858467
60329	-0.055052	8.641541	4.696161	-0.084311	-0.326414	0.016833	0.128315	0.085857	-0.488011	-0.859074
60330	-0.176838	8.884221	4.597600	0.086872	-0.513644	0.178667	0.128358	0.086325	-0.486994	-0.859598
60331	-0.189619	9.056114	4.545089	0.134909	-0.661034	0.299274	0.128270	0.086506	-0.485905	-0.860209
60332	-0.081604	9.166261	4.462223	0.069710	-0.840334	0.347400	0.128195	0.086720	-0.484919	-0.860755
60333	-0.088077	9.057819	4.532383	0.041510	-0.752377	0.288129	0.128082	0.086849	-0.483822	-0.861376
60334	-0.061505	8.947077	4.752504	-0.057763	-0.554073	0.303135	0.127968	0.086797	-0.482588	-0.862090
60335	-0.185941	8.951072	4.895134	0.028377	-0.438583	0.381687	0.128261	0.086813	-0.480610	-0.863149
60336	-0.363106	8.942699	5.283220	0.102227	-0.119403	0.579188	0.128840	0.086618	-0.477845	-0.864616
60337	-0.486369	8.590723	5.304896	0.185528	0.052537	0.293819	0.129367	0.086190	-0.475084	-0.866101
60338	-0.326789	8.280124	5.386032	-0.011527	0.174344	0.068905	0.129635	0.085637	-0.473017	-0.867246
60339	-0.330477	8.198764	5.762448	-0.103521	0.474628	0.202230	0.129788	0.084924	-0.471020	-0.868380
60340	-0.442540	7.949922	5.874618	-0.048628	0.688775	0.058045	0.130023	0.084837	-0.469431	-0.869213
60341	-0.454909	8.115306	5.864250	-0.003244	0.570354	0.193771	0.130112	0.084799	-0.468465	-0.869725
60342	-0.231036	8.063395	5.962995	-0.248225	0.582420	0.198713	0.130236	0.085076	-0.467270	-0.870321
60343	0.036183	7.733470	5.726781	-0.487270	0.456656	-0.212800	0.130445	0.085691	-0.465895	-0.870966
60344	-0.105780	7.750091	5.658167	-0.341633	0.413273	-0.231331	0.130900	0.087031	-0.465104	-0.871188
60345	-0.342675	7.998071	5.655893	-0.097382	0.339038	-0.017218	0.131339	0.088355	-0.464581	-0.871268
60346	-0.429882	7.924899	5.845113	-0.093642	0.538005	0.028852	0.131608	0.089340	-0.463710	-0.871591
60347	-0.436169	7.979360	5.891130	-0.104625	0.529347	0.100670	0.131730	0.090148	-0.463046	-0.871842
60348	-0.454260	7.817203	5.933168	-0.132109	0.636683	-0.009900	0.131781	0.090742	-0.462197	-0.872223
60349	-0.528992	7.778918	5.925300	-0.070194	0.659530	-0.042291	0.131645	0.090995	-0.461743	-0.872458
60350	-0.477072	7.880567	5.907223	-0.101823	0.566715	0.030822	0.131363	0.090939	-0.461550	-0.872608
60351	-0.332692	7.988396	5.978003	-0.242607	0.511658	0.154309	0.130979	0.090732	-0.461169	-0.872889
60352	-0.319139	8.060712	6.034190	-0.259462	0.499647	0.245711	0.130662	0.090663	-0.460454	-0.873321
60353	-0.321978	8.052182	5.976315	-0.236973	0.432641	0.208000	0.130563	0.090512	-0.458772	-0.874237
60354	-0.343330	7.845543	5.733730	-0.165070	0.323879	-0.096011	0.130322	0.089770	-0.456983	-0.875285
60355	-0.242503	7.636700	5.494335	-0.209890	0.192645	-0.406066	0.130089	0.089219	-0.456226	-0.875771
60356	-0.258795	7.651333	5.779068	-0.267489	0.408615	-0.233075	0.129953	0.089097	-0.456716	-0.875548
60357	-0.283513	8.016055	6.223738	-0.320164	0.583389	0.317935	0.130487	0.089517	-0.457958	-0.874777
60358	-0.325636	8.296535	5.861252	-0.143011	0.191374	0.347807	0.131772	0.090055	-0.459160	-0.873898
60359	-0.389474	8.171364	5.738060	-0.066466	0.213559	0.177213	0.133452	0.090527	-0.460367	-0.872959
60360	-0.371386	8.088492	5.799349	-0.114304	0.339735	0.140473	0.135286	0.091171	-0.462335	-0.871569
60361	-0.166988	8.022018	5.593274	-0.259359	0.196865	-0.037252	0.137286	0.091679	-0.464445	-0.870079
60362	-0.088900	8.117600	5.638480	-0.333331	0.211767	0.063523	0.139707	0.092529	-0.466946	-0.868264
60363	-0.196934	8.197729	5.540125	-0.196234	0.193975	0.079631	0.142496	0.093785	-0.469864	-0.866099
60364	-0.409778	8.108372	5.433676	0.010432	0.302185	-0.048134	0.145375	0.095278	-0.473093	-0.863696
60365	-0.336882	8.124095	5.496915	-0.092062	0.404741	-0.006698	0.148097	0.096831	-0.477058	-0.860876
60366	-0.167013	8.301772	5.311539	-0.183739	0.201321	0.040473	0.150833	0.098405	-0.480848	-0.858109
60367	-0.035091	8.250158	5.089829	-0.264685	0.093916	-0.122844	0.153683	0.100232	-0.484855	-0.855132
60368	-0.299344	8.677968	5.105911	0.022016	0.098826	0.259839	0.156684	0.102250	-0.489255	-0.851836
60369	-0.297766	8.619870	5.005464	0.019174	0.151735	0.158327	0.159684	0.104134	-0.493582	-0.848548
60370	-0.076811	8.825661	4.606378	-0.038983	-0.236862	0.140109	0.162741	0.106041	-0.498288	-0.844973
60371	0.038066	9.013099	4.381948	-0.057384	-0.432535	0.199675	0.165943	0.108002	-0.502825	-0.841407
60372	-0.063029	9.151206	4.646620	-0.055562	-0.125269	0.449852	0.169335	0.109980	-0.507241	-0.837816
60373	-0.058332	9.129151	4.279607	0.053694	-0.307701	0.265079	0.172736	0.111505	-0.511207	-0.834504
60374	-0.050940	9.374138	4.212006	0.106802	-0.365773	0.457271	0.176306	0.112970	-0.514809	-0.831340
60375	-0.147013	9.243977	4.211829	0.171226	-0.181669	0.343557	0.179944	0.114050	-0.517800	-0.828551
60376	0.096939	9.264721	3.915391	0.074818	-0.452690	0.235381	0.183413	0.114685	-0.520539	-0.825982
60377	0.188245	9.380971	3.852542	0.052924	-0.511987	0.317206	0.186996	0.115195	-0.522987	-0.823557
60378	-0.059155	9.522462	4.194757	0.190791	-0.115250	0.590524	0.190518	0.115342	-0.524437	-0.821806
60379	0.133786	9.186992	3.817124	0.137850	-0.346557	0.129639	0.193784	0.114723	-0.524607	-0.821020
60380	0.088196	9.201866	3.838803	0.216435	-0.291216	0.151583	0.196823	0.113909	-0.524910	-0.820216
60381	0.136826	9.189015	3.760354	0.251228	-0.353698	0.107418	0.199594	0.112330	-0.524683	-0.819910
60382	0.178661	9.230434	3.979973	0.192571	-0.196666	0.237037	0.202190	0.110441	-0.524382	-0.819722
60383	0.311645	9.072444	3.718458	0.207239	-0.405468	-0.013423	0.204529	0.108064	-0.523740	-0.819870
60384	0.383041	9.010972	3.867615	0.135259	-0.290490	-0.004539	0.206671	0.105684	-0.523185	-0.819997
60385	0.402763	9.020674	3.767805	0.221312	-0.383220	-0.038487	0.208658	0.103412	-0.522402	-0.820283
60386	0.707586	9.248388	3.854716	0.031248	-0.541198	0.217166	0.210309	0.100966	-0.521172	-0.820948
60387	0.475371	9.106276	4.054396	0.187410	-0.238409	0.162086	0.211915	0.098876	-0.519702	-0.821721
60388	0.602723	8.865421	4.167145	0.031442	-0.138799	0.000745	0.213303	0.096545	-0.518055	-0.822679
60389	0.587250	8.990679	4.240903	0.107289	-0.139411	0.143777	0.214501	0.094187	-0.516672	-0.823510
60390	0.695752	8.995897	4.185738	0.089554	-0.252261	0.130085	0.215556	0.091921	-0.515506	-0.824221
60391	0.770189	9.046317	4.301257	0.046740	-0.227032	0.231010	0.216561	0.089676	-0.514261	-0.824982
60392	0.716573	8.938618	4.143137	0.178425	-0.310286	0.058968	0.217690	0.087697	-0.512775	-0.825822
60393	0.789158	8.687346	4.125643	0.103105	-0.287655	-0.167997	0.218517	0.085717	-0.511132	-0.826830
60394	0.858062	8.687815	4.106076	0.090458	-0.353158	-0.172083	0.219096	0.084173	-0.510340	-0.827324
60395	0.980232	8.862584	4.364852	-0.032535	-0.274636	0.111103	0.219366	0.082604	-0.509697	-0.827807
60396	0.980718	8.769233	4.491954	-0.074007	-0.147277	0.087396	0.219647	0.081160	-0.508856	-0.828392
60397	0.952428	8.802839	4.518210	-0.023287	-0.133231	0.126779	0.219847	0.080115	-0.508603	-0.828596
60398	0.967934	8.796070	4.754419	-0.103984	0.049251	0.232161	0.219996	0.079128	-0.508138	-0.828937
60399	0.851463	8.377470	4.700817	-0.079393	0.210110	-0.171412	0.220075	0.078195	-0.507546	-0.829367
60400	0.821624	8.226494	4.560389	-0.028844	0.164041	-0.372366	0.219936	0.077267	-0.507513	-0.829511
60401	0.728513	8.496818	4.833195	0.050320	0.319259	-0.015651	0.219715	0.076101	-0.507007	-0.829987
60402	0.802121	8.410516	4.713556	0.024313	0.211639	-0.140441	0.219264	0.074687	-0.506232	-0.830707
60403	0.938532	8.476944	4.655321	-0.037561	0.064670	-0.096422	0.218919	0.073659	-0.505542	-0.831310
60404	0.865914	8.651575	4.716182	0.074615	0.058322	0.078362	0.218575	0.072663	-0.504274	-0.832258
60405	1.014435	8.551434	4.589574	-0.023285	-0.103240	-0.055181	0.218291	0.071895	-0.502437	-0.833509
60406	1.133448	8.638439	4.818504	-0.168115	-0.041154	0.141973	0.217873	0.071419	-0.500996	-0.834526
60407	1.193343	8.673382	4.833997	-0.213928	-0.090070	0.185576	0.217523	0.071657	-0.500651	-0.834804
60408	1.126578	8.645144	5.017653	-0.230319	0.086063	0.243358	0.217215	0.071888	-0.500099	-0.835195
60409	0.965261	8.586461	5.057587	-0.123214	0.202115	0.196418	0.216821	0.072237	-0.499953	-0.835355
60410	0.905592	8.779250	5.157071	-0.055217	0.225088	0.406755	0.216226	0.072218	-0.499813	-0.835595
60411	0.887312	8.839464	4.910246	0.059009	0.005031	0.337704	0.215745	0.072191	-0.499678	-0.835801
60412	0.999564	8.800718	4.702292	0.016958	-0.200667	0.213416	0.215299	0.071968	-0.499505	-0.836039
60413	1.016229	8.768511	4.842340	-0.054430	-0.087827	0.254938	0.214846	0.071717	-0.499274	-0.836315
60414	1.007741	8.658774	4.813619	-0.067075	-0.068482	0.144805	0.214225	0.071311	-0.499094	-0.836617
60415	1.026280	8.837603	4.723912	-0.001845	-0.224948	0.258123	0.213636	0.071022	-0.499046	-0.836821
60416	1.008077	8.807491	4.698905	0.014658	-0.231923	0.217956	0.213258	0.070849	-0.498586	-0.837206
60417	0.974725	8.728674	4.779597	-0.005381	-0.127837	0.185713	0.212890	0.070786	-0.498494	-0.837359
60418	0.850852	8.597908	4.899420	0.025681	0.072773	0.119399	0.212531	0.070781	-0.498478	-0.837460
60419	0.806485	8.585291	4.890084	0.062869	0.086584	0.099886	0.211978	0.070580	-0.498367	-0.837684
60420	0.903810	8.567206	4.949703	-0.049817	0.094468	0.122203	0.211449	0.070310	-0.498086	-0.838007
60421	0.923228	8.695377	4.905009	-0.015776	-0.008837	0.213314	0.211000	0.070128	-0.497891	-0.838252
60422	0.851793	8.657760	4.968405	0.017366	0.080102	0.205331	0.210528	0.069898	-0.497471	-0.838639
60423	0.808019	8.559481	4.877578	0.059936	0.057443	0.071718	0.209989	0.069684	-0.497239	-0.838929
60424	0.821304	8.518825	4.866876	0.040743	0.054104	0.032454	0.209436	0.069332	-0.497058	-0.839204
60425	0.907474	8.560597	4.850929	-0.019269	-0.014402	0.068520	0.208829	0.068972	-0.497168	-0.839319
60426	0.930950	8.541848	4.960114	-0.081525	0.070672	0.108045	0.208324	0.068683	-0.497076	-0.839523
60427	0.944958	8.565875	4.876544	-0.060367	-0.013571	0.089030	0.207873	0.068479	-0.497163	-0.839600
60428	0.937138	8.603027	4.861734	-0.038067	-0.038689	0.113229	0.207480	0.068206	-0.497049	-0.839787
60429	0.944417	8.549225	4.955802	-0.088621	0.053024	0.113564	0.207135	0.067930	-0.496893	-0.839987
60430	0.976100	8.460433	4.874273	-0.114149	0.006550	-0.000595	0.206935	0.067853	-0.496700	-0.840157
60431	0.956747	8.538520	4.913147	-0.087418	0.009477	0.084432	0.206767	0.067797	-0.496567	-0.840281
60432	0.946480	8.520669	4.906598	-0.081349	0.013044	0.064840	0.206575	0.067756	-0.496486	-0.840379
60433	0.954518	8.574504	4.868948	-0.062227	-0.044355	0.093575	0.206464	0.067742	-0.496500	-0.840400
60434	0.916010	8.656293	4.920109	-0.021263	-0.021816	0.186163	0.206426	0.067681	-0.496432	-0.840454
60435	0.926626	8.677073	4.919482	-0.022317	-0.038763	0.204774	0.206418	0.067505	-0.496179	-0.840620
60436	1.015526	8.619952	4.895278	-0.105647	-0.077672	0.151318	0.206368	0.067218	-0.495834	-0.840858
60437	1.062250	8.663309	4.794928	-0.099981	-0.198718	0.143374	0.206433	0.067192	-0.495911	-0.840799
60438	0.970921	8.632380	4.818952	-0.033072	-0.128513	0.120357	0.206578	0.067269	-0.495786	-0.840831
60439	0.920865	8.621721	4.957239	-0.035757	0.006010	0.175054	0.206725	0.067444	-0.495690	-0.840837
60440	0.906108	8.638818	4.984895	-0.027154	0.022553	0.202208	0.206889	0.067629	-0.495367	-0.840973
60441	1.003357	8.481049	4.849687	-0.113527	-0.069176	0.007532	0.207025	0.067635	-0.494945	-0.841187
60442	0.991973	8.536163	4.948217	-0.117372	-0.015208	0.103003	0.207147	0.067674	-0.494704	-0.841296
60443	0.936156	8.518487	4.936460	-0.067874	0.003111	0.076955	0.207241	0.067816	-0.494666	-0.841283
60444	0.910623	8.491031	4.938159	-0.054061	0.025074	0.051830	0.207373	0.067964	-0.494563	-0.841300
60445	0.950499	8.587770	4.910870	-0.054358	-0.057335	0.125302	0.207503	0.068073	-0.494387	-0.841362
60446	0.982689	8.588268	4.902256	-0.080678	-0.081205	0.124266	0.207641	0.068226	-0.494274	-0.841382
60447	0.894961	8.646829	4.921652	0.007679	-0.055649	0.176712	0.207797	0.068411	-0.494183	-0.841382
60448	0.891862	8.607830	4.971470	-0.016857	-0.001071	0.167562	0.207939	0.068497	-0.493985	-0.841456
60449	0.931996	8.553638	4.938036	-0.056767	-0.025249	0.107680	0.208146	0.068631	-0.493874	-0.841459
60450	0.971065	8.596801	4.916014	-0.073308	-0.078986	0.137364	0.208325	0.068829	-0.493846	-0.841415
60451	0.838659	8.648731	4.988871	0.034359	0.013556	0.206861	0.208528	0.069139	-0.493882	-0.841318
60452	0.814479	8.562914	4.929829	0.049554	0.010749	0.101319	0.208619	0.069262	-0.493706	-0.841389
60453	0.936768	8.555820	4.946622	-0.068198	-0.028753	0.114204	0.208633	0.069302	-0.493514	-0.841495
60454	0.898976	8.529720	4.932928	-0.037504	-0.016160	0.081573	0.208697	0.069457	-0.493418	-0.841523
60455	0.879033	8.561130	4.962753	-0.022418	0.001603	0.121801	0.208683	0.069583	-0.493425	-0.841511
60456	0.854249	8.542319	4.947220	-0.004043	0.009680	0.095684	0.208646	0.069808	-0.493667	-0.841360
60457	0.844481	8.551435	5.080048	-0.039109	0.116798	0.168891	0.208595	0.069829	-0.493502	-0.841468
60458	0.880858	8.451344	4.991751	-0.071176	0.069030	0.041696	0.208570	0.069893	-0.493363	-0.841550
60459	0.840380	8.530456	4.928848	0.007025	-0.000138	0.075103	0.208631	0.070049	-0.493299	-0.841559
60460	0.767874	8.566758	4.855753	0.104644	-0.044294	0.063769	0.208714	0.070235	-0.493297	-0.841525
60461	0.863458	8.537504	4.938852	-0.017167	-0.008665	0.088142	0.208639	0.070128	-0.493064	-0.841689
60462	0.897303	8.561335	4.957311	-0.047412	-0.020748	0.120784	0.208652	0.070297	-0.493097	-0.841652
60463	0.831638	8.545869	4.973109	-0.000594	0.026545	0.109742	0.208604	0.070423	-0.493136	-0.841631
60464	0.827557	8.589064	4.990859	0.006755	0.025920	0.155503	0.208526	0.070472	-0.493290	-0.841555
60465	0.903349	8.609896	4.977187	-0.051935	-0.025382	0.173072	0.208449	0.070397	-0.493211	-0.841627
60466	0.913140	8.501592	4.881745	-0.059392	-0.064147	0.032854	0.208523	0.070552	-0.492962	-0.841742
60467	0.933104	8.549872	4.912891	-0.076669	-0.073802	0.091663	0.208683	0.070966	-0.492744	-0.841795
60468	0.824549	8.517084	4.971549	-0.012461	0.025383	0.083579	0.208888	0.071539	-0.492353	-0.841924
60469	0.785309	8.352122	5.089661	-0.069071	0.198480	-0.002737	0.208996	0.072102	-0.492155	-0.841966
60470	0.762424	8.452246	4.966759	0.008636	0.068070	0.020202	0.209025	0.072949	-0.492579	-0.841637
60471	0.752962	8.583877	5.030894	0.013376	0.075079	0.164984	0.209198	0.074178	-0.493079	-0.841194
60472	0.698132	8.771697	4.886604	0.132657	-0.077009	0.251369	0.209480	0.076209	-0.494618	-0.840038
60473	0.420995	8.793573	4.583610	0.455484	-0.176275	0.100683	0.209414	0.077554	-0.496379	-0.838892
60474	0.456440	8.733913	4.748650	0.323624	-0.005461	0.133891	0.208600	0.078035	-0.497622	-0.838313
60475	0.800876	8.598378	4.754778	-0.046380	-0.074549	0.044983	0.207396	0.078340	-0.498511	-0.838055
60476	0.674743	8.500344	4.804326	0.002779	0.070447	-0.025570	0.206430	0.078906	-0.499078	-0.837903
60477	0.612631	8.667591	4.896646	0.048952	0.119144	0.160421	0.205047	0.079097	-0.500521	-0.837364
60478	0.630402	8.719876	4.724567	0.081933	-0.021854	0.124510	0.203339	0.079107	-0.502034	-0.836874
60479	0.634484	8.609763	4.559331	0.082924	-0.086351	-0.050328	0.201212	0.078811	-0.503491	-0.836540
60480	0.863540	8.618311	4.471652	-0.118251	-0.228469	-0.068442	0.198970	0.078704	-0.505318	-0.835985
60481	0.736036	8.968714	4.860034	-0.083563	0.042948	0.414250	0.196866	0.079321	-0.508142	-0.834712
60482	0.476334	9.060363	4.370760	0.298708	-0.236792	0.250862	0.194573	0.079472	-0.510501	-0.833795
60483	0.626100	9.071247	4.191720	0.189711	-0.407345	0.189707	0.192369	0.079464	-0.512675	-0.832973
60484	0.666811	9.048566	4.240409	0.095696	-0.330412	0.196490	0.190212	0.079592	-0.515173	-0.831914
60485	0.844678	8.845711	4.255960	-0.154023	-0.262085	0.035185	0.187989	0.079529	-0.517584	-0.830929
60486	0.752121	9.125762	4.206887	-0.032951	-0.314994	0.259160	0.185747	0.080350	-0.521185	-0.829101
60487	0.477939	9.311588	4.101044	0.247510	-0.307132	0.365562	0.183344	0.080520	-0.523560	-0.828122
60488	0.431069	9.115272	3.966912	0.255390	-0.287857	0.130256	0.180989	0.080531	-0.525418	-0.827462
60489	0.574251	9.067787	4.031982	0.056983	-0.229017	0.124887	0.178251	0.080269	-0.528064	-0.826397
60490	0.729774	9.181841	3.702199	0.005462	-0.553132	0.098851	0.175419	0.080070	-0.531216	-0.825001
60491	0.667684	9.479174	3.876279	0.021105	-0.432624	0.440996	0.173103	0.080650	-0.533978	-0.823650
60492	0.448038	9.379746	3.768675	0.198828	-0.363800	0.297271	0.170769	0.080640	-0.535580	-0.823097
60493	0.538638	9.141673	3.531237	0.112924	-0.478597	-0.010243	0.168089	0.080148	-0.537847	-0.822218
60494	0.770993	9.512811	3.380025	-0.023474	-0.775685	0.282354	0.165600	0.080331	-0.540797	-0.820769
60495	0.671857	9.851800	3.381504	0.084031	-0.808171	0.593244	0.163830	0.081324	-0.542858	-0.819665
60496	0.565360	9.924833	3.625213	0.077889	-0.558418	0.753584	0.162585	0.082304	-0.543630	-0.819304
60497	0.434209	9.677633	3.615620	0.132809	-0.430868	0.517584	0.161416	0.082664	-0.543526	-0.819568
60498	0.306689	9.470170	3.786721	0.148567	-0.184579	0.388352	0.160349	0.082699	-0.542355	-0.820548
60499	0.448347	9.208784	3.816256	-0.034336	-0.151725	0.164396	0.158849	0.081235	-0.540874	-0.821963
60500	0.867500	9.076545	3.587021	-0.367454	-0.479374	-0.033214	0.157255	0.079943	-0.540029	-0.822951
60501	0.835575	9.239971	3.270782	-0.214571	-0.816732	-0.011659	0.156456	0.080080	-0.539675	-0.823322
60502	0.430560	9.555761	3.659274	0.078917	-0.471537	0.417637	0.156776	0.082379	-0.538881	-0.823555
60503	0.193980	9.507518	3.968434	0.169169	-0.137437	0.489316	0.156897	0.084269	-0.537203	-0.824436
60504	0.323978	9.420113	3.904249	0.034707	-0.251652	0.386426	0.156856	0.085520	-0.535361	-0.825513
60505	0.296266	9.297974	3.854507	0.045954	-0.284789	0.252795	0.157122	0.086585	-0.533509	-0.826550
60506	-0.033291	9.161020	4.199449	0.214441	0.125831	0.261966	0.157477	0.087950	-0.530925	-0.828000
60507	-0.059263	8.911259	4.216481	0.183876	0.177624	0.042613	0.157861	0.089420	-0.527810	-0.829760
60508	-0.064445	9.163172	4.243952	0.219654	0.049200	0.283263	0.157407	0.089335	-0.526227	-0.830859
60509	0.985156	8.963357	4.207658	-0.767195	-0.325131	0.103064	0.156694	0.087975	-0.523976	-0.832560
60510	0.661797	8.185019	4.358583	-0.626094	0.168142	-0.538579	0.157188	0.088454	-0.520841	-0.834381
60511	0.283730	7.690315	4.379672	-0.360464	0.471961	-0.978084	0.157527	0.089239	-0.519408	-0.835127
60512	-0.386487	8.845772	5.020896	0.246662	0.766436	0.334143	0.157827	0.090174	-0.519300	-0.835037
60513	-0.692341	8.843992	5.251035	0.458366	1.045980	0.432532	0.158427	0.090156	-0.517208	-0.836223
60514	-0.221361	8.249491	4.944089	0.045974	0.832584	-0.228762	0.157517	0.087314	-0.516563	-0.837095
60515	0.488445	7.919280	4.929401	-0.631565	0.691437	-0.518845	0.156826	0.085262	-0.515955	-0.837811
60516	0.062710	8.070072	5.110633	-0.240631	0.929522	-0.308655	0.156839	0.084332	-0.516046	-0.837846
60517	-0.021823	8.474510	5.184287	-0.092581	0.858456	0.084234	0.156648	0.082686	-0.516115	-0.838003
60518	0.260798	8.379868	4.732815	-0.204375	0.423950	-0.196652	0.156125	0.080282	-0.516193	-0.838287
60519	0.387024	8.107628	4.572831	-0.291873	0.355050	-0.507695	0.155784	0.078623	-0.515537	-0.838911
60520	0.496890	8.440021	4.550460	-0.309630	0.159186	-0.217568	0.155414	0.077584	-0.515881	-0.838865
60521	0.696542	8.579598	4.523922	-0.453525	0.010946	-0.099051	0.155392	0.077119	-0.515497	-0.839148
60522	0.597995	8.641992	4.802872	-0.429730	0.253866	0.079738	0.155825	0.077520	-0.515820	-0.838832
60523	0.068014	8.601479	4.989107	-0.001643	0.609284	0.112534	0.156583	0.078535	-0.515365	-0.838876
60524	0.107879	8.385254	4.938933	-0.071130	0.632287	-0.101234	0.156772	0.079166	-0.514897	-0.839069
