// General information: 
//  MT Manager version: 2021.0.0 
//  XDA version: 2021.0.0 build 5908 rev 109668 built on 2021-04-19
// Device information: 
//  DeviceId: 00B43DED
//  ProductCode: MTW2-3A7G6
//  Firmware Version: 4.3.5
//  Hardware Version: 1.1.0
// Device settings: 
//  Filter Profile: human(46.1)
//  Option Flags: Orientation Smoother Disabled, Position/Velocity Smoother Disabled, Continuous Zero Rotation Update Disabled, AHS Disabled, ICC Disabled
// Coordinate system: ENU
PacketCounter	Acc_X	Acc_Y	Acc_Z	FreeAcc_E	FreeAcc_N	FreeAcc_U	Quat_q0	Quat_q1	Quat_q2	Quat_q3
59330	-9.734069	1.860471	-1.894533	0.306302	-0.308336	0.267680	-0.362560	-0.692691	-0.343463	0.520349
59331	-9.576671	1.956070	-1.770327	0.363852	-0.453019	0.103727	-0.362916	-0.692360	-0.344399	0.519922
59332	-9.468464	1.709042	-1.671550	0.135765	-0.409532	-0.056636	-0.362756	-0.692176	-0.345335	0.519657
59333	-9.516888	1.544161	-1.710588	0.011160	-0.311627	-0.025735	-0.362213	-0.692113	-0.346179	0.519558
59334	-9.519150	1.400036	-1.826749	-0.047139	-0.158388	-0.020651	-0.361165	-0.692310	-0.346786	0.519621
59335	-9.535781	1.183299	-1.962347	-0.160142	0.044953	-0.006851	-0.360150	-0.692462	-0.347368	0.519735
59336	-9.456623	0.969733	-2.046348	-0.274158	0.213733	-0.094933	-0.358808	-0.692886	-0.347505	0.520005
59337	-9.515354	0.866487	-2.248382	-0.269152	0.413556	-0.009398	-0.357491	-0.693386	-0.347351	0.520350
59338	-9.344517	0.980595	-2.145696	-0.176271	0.270117	-0.180372	-0.355836	-0.694139	-0.346752	0.520878
59339	-9.335885	1.247014	-2.253663	0.110246	0.209843	-0.130922	-0.354674	-0.694619	-0.346520	0.521186
59340	-9.369834	1.290060	-2.135827	0.087369	0.069938	-0.116953	-0.353817	-0.694954	-0.346494	0.521339
59341	-9.381511	1.233903	-2.183869	0.064167	0.127609	-0.102685	-0.353378	-0.695081	-0.346728	0.521312
59342	-9.433647	1.089376	-2.148370	-0.083900	0.157846	-0.078009	-0.353075	-0.695148	-0.346964	0.521270
59343	-9.454234	1.109543	-2.166824	-0.059800	0.153384	-0.051455	-0.352641	-0.695292	-0.347048	0.521317
59344	-9.460676	1.203096	-2.100186	-0.012134	0.040999	-0.047403	-0.352359	-0.695379	-0.347179	0.521304
59345	-9.543446	1.061941	-2.205753	-0.096957	0.189661	0.037443	-0.352343	-0.695356	-0.347348	0.521233
59346	-9.565533	0.906528	-2.244223	-0.213660	0.299486	0.047455	-0.352157	-0.695451	-0.347092	0.521402
59347	-9.526662	1.071078	-2.278198	-0.048737	0.249268	0.037702	-0.351929	-0.695608	-0.346593	0.521679
59348	-9.410514	1.105807	-2.220491	-0.022027	0.200342	-0.082809	-0.351805	-0.695721	-0.346008	0.522000
59349	-9.424578	1.221211	-2.141888	0.033185	0.078412	-0.071309	-0.351874	-0.695772	-0.345536	0.522199
59350	-9.501784	1.331125	-2.104178	0.089297	-0.012264	0.009493	-0.352149	-0.695695	-0.345219	0.522325
59351	-9.628301	1.338934	-2.090239	0.059499	-0.032178	0.130221	-0.352843	-0.695394	-0.345135	0.522313
59352	-9.549765	1.151643	-2.148813	-0.054334	0.136287	0.042268	-0.353381	-0.695138	-0.344881	0.522458
59353	-9.527824	1.400223	-2.032287	0.102823	-0.076090	0.028749	-0.353826	-0.694920	-0.344504	0.522695
59354	-9.492380	1.341680	-1.869723	-0.018888	-0.166471	-0.046769	-0.354349	-0.694660	-0.344237	0.522863
59355	-9.370660	1.197247	-1.879063	-0.109899	-0.058627	-0.181591	-0.354658	-0.694505	-0.343887	0.523090
59356	-9.347068	1.286788	-1.746695	-0.094195	-0.207111	-0.219842	-0.354669	-0.694544	-0.343485	0.523294
59357	-9.420780	1.302127	-1.814109	-0.065406	-0.161903	-0.132443	-0.354628	-0.694650	-0.343161	0.523393
59358	-9.509400	1.361173	-1.887726	-0.001222	-0.137273	-0.023605	-0.354725	-0.694712	-0.342994	0.523355
59359	-9.626191	1.259260	-2.053108	-0.034524	0.046137	0.110075	-0.354970	-0.694688	-0.342932	0.523261
59360	-9.428941	1.227272	-2.032000	-0.031921	0.070250	-0.089818	-0.355196	-0.694689	-0.342755	0.523223
59361	-9.354556	1.262698	-1.993213	-0.008611	0.031169	-0.165202	-0.355473	-0.694694	-0.342664	0.523087
59362	-9.476503	1.264026	-2.020073	-0.026443	0.044967	-0.041309	-0.356106	-0.694549	-0.342807	0.522756
59363	-9.458645	1.210405	-2.071324	-0.049563	0.124217	-0.055457	-0.356895	-0.694339	-0.343079	0.522317
59364	-9.509879	1.250372	-2.091715	-0.024935	0.122820	0.003666	-0.357873	-0.694040	-0.343429	0.521816
59365	-9.575523	1.232174	-2.173267	-0.023771	0.204112	0.081237	-0.358893	-0.693737	-0.343661	0.521365
59366	-9.556958	1.340626	-2.105106	0.031299	0.103706	0.064176	-0.359805	-0.693459	-0.343697	0.521082
59367	-9.403918	1.344218	-2.015180	0.018266	0.053913	-0.101957	-0.360693	-0.693180	-0.343651	0.520871
59368	-9.470544	1.461046	-1.887860	0.035258	-0.109889	-0.046596	-0.361344	-0.693029	-0.343514	0.520710
59369	-9.617891	1.529419	-1.941286	0.080461	-0.102555	0.116791	-0.362196	-0.692719	-0.343514	0.520531
59370	-9.531075	1.397913	-1.928898	-0.021788	-0.025148	0.011521	-0.362888	-0.692453	-0.343426	0.520461
59371	-9.465479	1.363357	-1.949746	-0.029715	0.028021	-0.052878	-0.363495	-0.692216	-0.343309	0.520430
59372	-9.419162	1.396882	-1.882502	-0.025810	-0.031828	-0.106296	-0.363893	-0.692100	-0.343047	0.520479
59373	-9.435116	1.405794	-1.914924	-0.009347	-0.001372	-0.083119	-0.364273	-0.692019	-0.342790	0.520491
59374	-9.509043	1.355310	-1.959446	-0.050951	0.063666	-0.010058	-0.364770	-0.691865	-0.342653	0.520437
59375	-9.493126	1.289154	-1.896841	-0.137045	0.052788	-0.047556	-0.364957	-0.691904	-0.342286	0.520496
59376	-9.548733	1.496297	-1.861004	0.005224	-0.080411	0.029774	-0.365423	-0.691816	-0.342019	0.520461
59377	-9.586298	1.225512	-2.019050	-0.162182	0.198058	0.056964	-0.365667	-0.691864	-0.341485	0.520576
59378	-9.469394	1.293635	-2.013842	-0.084235	0.180738	-0.047510	-0.365891	-0.691910	-0.340757	0.520835
59379	-9.475927	1.316042	-2.003565	-0.075703	0.170853	-0.040047	-0.365812	-0.692189	-0.339736	0.521187
59380	-9.528773	1.527259	-1.831973	0.004148	-0.077543	0.009742	-0.366006	-0.692312	-0.338908	0.521427
59381	-9.549849	1.339606	-1.947739	-0.108691	0.125461	0.023993	-0.365744	-0.692677	-0.337745	0.521879
59382	-9.649451	1.928866	-1.722495	0.253941	-0.370384	0.167180	-0.364879	-0.693357	-0.336059	0.522670
59383	-9.588036	1.936902	-1.878570	0.348156	-0.228840	0.139070	-0.364562	-0.693608	-0.334870	0.523320
59384	-9.519530	1.637536	-1.853512	0.100670	-0.080460	0.022041	-0.364059	-0.693846	-0.333719	0.524089
59385	-9.457612	1.560005	-1.741441	-0.001679	-0.124905	-0.071176	-0.362949	-0.694375	-0.332259	0.525086
59386	-9.448626	1.772649	-1.567593	0.096842	-0.380897	-0.080179	-0.361993	-0.694788	-0.331075	0.525947
59387	-9.425552	1.556101	-1.590960	-0.063784	-0.243815	-0.131256	-0.361404	-0.695012	-0.330363	0.526504
59388	-9.380049	1.486216	-1.633991	-0.087183	-0.167673	-0.177939	-0.360621	-0.695379	-0.329702	0.526970
59389	-9.441359	1.572296	-1.721429	0.016131	-0.148288	-0.088879	-0.360048	-0.695675	-0.329338	0.527199
59390	-9.436463	1.493609	-1.818596	0.001222	-0.028728	-0.087248	-0.359809	-0.695804	-0.329348	0.527185
59391	-9.462397	1.450088	-1.913512	0.006156	0.068234	-0.050692	-0.359654	-0.695931	-0.329402	0.527089
59392	-9.529343	1.460153	-2.034617	0.058899	0.156124	0.038822	-0.359733	-0.695927	-0.329617	0.526906
59393	-9.535256	1.525095	-1.965643	0.075114	0.061396	0.041315	-0.359845	-0.695924	-0.329761	0.526744
59394	-9.478458	1.532786	-1.945470	0.083076	0.045011	-0.016437	-0.360206	-0.695738	-0.330117	0.526519
59395	-9.476720	1.394311	-1.982207	-0.014495	0.150492	-0.032165	-0.360432	-0.695610	-0.330356	0.526384
59396	-9.489147	1.593846	-1.860528	0.088240	-0.058886	-0.012964	-0.360444	-0.695593	-0.330416	0.526361
59397	-9.600322	1.645885	-1.811491	0.082555	-0.136498	0.093431	-0.360614	-0.695440	-0.330602	0.526330
59398	-9.471745	1.453473	-1.857022	-0.024367	0.016023	-0.051836	-0.360901	-0.695198	-0.330895	0.526269
59399	-9.468758	1.497752	-1.755064	-0.035705	-0.092924	-0.067382	-0.360800	-0.695180	-0.330964	0.526318
59400	-9.471739	1.695247	-1.761471	0.133743	-0.193449	-0.033363	-0.360865	-0.695072	-0.331196	0.526271
59401	-9.457342	1.569039	-1.837377	0.071434	-0.061825	-0.052041	-0.361226	-0.694762	-0.331755	0.526080
59402	-9.462104	1.531161	-1.836406	0.040898	-0.044576	-0.053354	-0.361338	-0.694571	-0.332257	0.525939
59403	-9.542291	1.635956	-1.756819	0.073947	-0.177739	0.025048	-0.361334	-0.694431	-0.332743	0.525818
59404	-9.473942	1.642020	-1.731391	0.085544	-0.200336	-0.045289	-0.361682	-0.694070	-0.333558	0.525540
59405	-9.479585	1.366802	-1.727402	-0.145234	-0.065298	-0.081848	-0.361803	-0.693858	-0.334363	0.525225
59406	-9.513284	1.371461	-1.706956	-0.155997	-0.096088	-0.052380	-0.361725	-0.693753	-0.335017	0.525000
59407	-9.431247	1.502501	-1.845911	0.043834	-0.048289	-0.085968	-0.361574	-0.693729	-0.335607	0.524760
59408	-9.479480	1.530121	-1.954755	0.111780	0.016711	-0.014213	-0.361638	-0.693577	-0.336382	0.524420
59409	-9.513407	1.463847	-1.913970	0.030238	0.005623	0.001084	-0.361816	-0.693363	-0.337247	0.524024
59410	-9.441731	1.308913	-2.054746	-0.012949	0.204986	-0.063875	-0.361947	-0.693134	-0.338056	0.523715
59411	-9.525560	1.468709	-1.806361	-0.015543	-0.104378	-0.007322	-0.361886	-0.693035	-0.338704	0.523469
59412	-9.494055	1.357689	-1.794614	-0.105480	-0.061879	-0.056352	-0.362003	-0.692859	-0.339439	0.523146
59413	-9.472240	1.276480	-1.923658	-0.104871	0.084816	-0.064097	-0.362063	-0.692732	-0.340094	0.522846
59414	-9.498815	1.414090	-1.947330	0.017873	0.024582	-0.013795	-0.362056	-0.692691	-0.340636	0.522554
59415	-9.506953	1.277987	-2.110145	-0.020370	0.226806	0.006491	-0.362334	-0.692493	-0.341297	0.522191
59416	-9.495531	1.330471	-2.038275	-0.008063	0.135220	-0.011082	-0.362365	-0.692437	-0.341718	0.521969
59417	-9.437037	1.316855	-2.010076	-0.019970	0.119791	-0.075263	-0.362585	-0.692265	-0.342236	0.521704
59418	-9.545834	1.389849	-1.919283	-0.026004	-0.008232	0.022836	-0.362745	-0.692150	-0.342606	0.521503
59419	-9.505338	1.264051	-2.009045	-0.080769	0.135326	-0.016734	-0.362965	-0.692016	-0.342913	0.521326
59420	-9.486121	1.287302	-1.927296	-0.096219	0.054507	-0.048166	-0.362965	-0.692016	-0.343011	0.521262
59421	-9.469522	1.297291	-2.002162	-0.048657	0.114300	-0.048055	-0.363013	-0.692010	-0.343072	0.521196
59422	-9.486898	1.348971	-1.971253	-0.024425	0.059681	-0.029915	-0.363105	-0.691992	-0.343143	0.521110
59423	-9.517050	1.426859	-1.933781	0.015919	-0.014643	0.003076	-0.363257	-0.691947	-0.343241	0.520999
59424	-9.515075	1.308797	-1.983321	-0.061821	0.089884	-0.005993	-0.363559	-0.691829	-0.343337	0.520881
59425	-9.476412	1.308007	-2.019749	-0.038075	0.128968	-0.036463	-0.363854	-0.691708	-0.343347	0.520828
59426	-9.477478	1.228328	-1.953190	-0.139540	0.115878	-0.060076	-0.363900	-0.691770	-0.343122	0.520864
59427	-9.462400	1.495770	-1.902862	0.064848	-0.058537	-0.046030	-0.364023	-0.691788	-0.342971	0.520853
59428	-9.494398	1.420139	-1.846312	-0.036305	-0.068373	-0.037041	-0.364345	-0.691713	-0.342998	0.520709
59429	-9.500281	1.437751	-1.841986	-0.027860	-0.078326	-0.029617	-0.364618	-0.691669	-0.343008	0.520571
59430	-9.470665	1.426110	-1.921622	0.003853	0.001033	-0.044377	-0.364800	-0.691669	-0.342997	0.520450
59431	-9.469337	1.472018	-1.954072	0.055490	0.007457	-0.032583	-0.364987	-0.691681	-0.342990	0.520308
59432	-9.530496	1.483726	-1.905616	0.025356	-0.044100	0.018924	-0.365255	-0.691631	-0.343051	0.520145
59433	-9.483809	1.349618	-1.997365	-0.037517	0.109308	-0.027994	-0.365468	-0.691613	-0.343021	0.520040
59434	-9.496728	1.439913	-1.964622	0.018293	0.037060	-0.008646	-0.365617	-0.691619	-0.342911	0.519999
59435	-9.474707	1.429695	-1.995163	0.026323	0.074162	-0.025523	-0.365821	-0.691611	-0.342765	0.519962
59436	-9.510019	1.493269	-1.897186	0.023258	-0.041611	-0.001094	-0.366019	-0.691590	-0.342648	0.519929
59437	-9.450426	1.436557	-1.933104	0.003285	0.028092	-0.060235	-0.366356	-0.691471	-0.342628	0.519862
59438	-9.522056	1.497971	-1.898082	0.020432	-0.035374	0.011493	-0.366512	-0.691475	-0.342473	0.519849
59439	-9.527616	1.587792	-1.911470	0.099680	-0.064959	0.032927	-0.366908	-0.691328	-0.342472	0.519766
59440	-9.491666	1.401688	-1.942609	-0.037322	0.064669	-0.023683	-0.367239	-0.691178	-0.342456	0.519743
59441	-9.439793	1.507968	-1.911008	0.048680	-0.006047	-0.064190	-0.367384	-0.691138	-0.342285	0.519806
59442	-9.505249	1.555555	-1.878414	0.058029	-0.059707	0.000112	-0.367599	-0.691048	-0.342204	0.519826
59443	-9.492659	1.503667	-1.893515	0.023215	-0.013982	-0.016961	-0.368017	-0.690826	-0.342266	0.519786
59444	-9.484430	1.415650	-1.908991	-0.042919	0.048985	-0.035240	-0.368077	-0.690807	-0.342106	0.519872
59445	-9.479276	1.616539	-1.820077	0.086950	-0.124276	-0.027007	-0.368222	-0.690735	-0.342002	0.519935
59446	-9.456638	1.483702	-1.833230	-0.014928	-0.040519	-0.066496	-0.368409	-0.690632	-0.341992	0.519947
59447	-9.479022	1.458205	-1.767030	-0.072971	-0.084232	-0.061370	-0.368454	-0.690604	-0.341955	0.519976
59448	-9.479992	1.519682	-1.807973	-0.001488	-0.079127	-0.043236	-0.368417	-0.690637	-0.341865	0.520016
59449	-9.510339	1.596681	-1.836410	0.070230	-0.095613	0.003333	-0.368509	-0.690594	-0.341944	0.519957
59450	-9.490104	1.480989	-1.928907	0.019612	0.044741	-0.016070	-0.368723	-0.690481	-0.342091	0.519859
59451	-9.500390	1.399019	-1.950967	-0.042408	0.104653	-0.014311	-0.368616	-0.690555	-0.341964	0.519919
59452	-9.477670	1.547487	-1.896690	0.063699	-0.014056	-0.024219	-0.368577	-0.690566	-0.341849	0.520007
59453	-9.517648	1.481292	-1.904500	0.002028	0.023898	0.005988	-0.368673	-0.690523	-0.341802	0.520028
59454	-9.468434	1.398875	-1.871642	-0.072740	0.043534	-0.060562	-0.368783	-0.690474	-0.341790	0.520023
59455	-9.478408	1.510326	-1.861135	0.014360	-0.021023	-0.035956	-0.368742	-0.690529	-0.341653	0.520069
59456	-9.499850	1.587201	-1.802677	0.046631	-0.110614	-0.014647	-0.368853	-0.690489	-0.341643	0.520050
59457	-9.502094	1.444641	-1.830468	-0.062685	-0.013652	-0.028860	-0.368899	-0.690480	-0.341584	0.520069
59458	-9.495115	1.565593	-1.826720	0.039804	-0.075971	-0.017901	-0.368876	-0.690506	-0.341491	0.520112
59459	-9.490373	1.481982	-1.877297	-0.006817	0.010928	-0.025577	-0.368944	-0.690491	-0.341459	0.520105
59460	-9.501053	1.550913	-1.835361	0.029284	-0.060009	-0.012716	-0.368888	-0.690535	-0.341378	0.520139
59461	-9.471438	1.536130	-1.848595	0.029305	-0.038197	-0.041156	-0.368967	-0.690500	-0.341420	0.520102
59462	-9.480115	1.496374	-1.835577	-0.013298	-0.029576	-0.041300	-0.369050	-0.690483	-0.341444	0.520050
59463	-9.488703	1.498794	-1.922036	0.026817	0.043038	-0.016080	-0.369117	-0.690474	-0.341497	0.519979
59464	-9.525123	1.546567	-1.848439	0.023819	-0.047639	0.012471	-0.369143	-0.690463	-0.341536	0.519949
59465	-9.496354	1.531463	-1.929094	0.055397	0.031696	-0.002312	-0.369165	-0.690457	-0.341579	0.519914
59466	-9.498043	1.508158	-1.839860	-0.006898	-0.033626	-0.021300	-0.369174	-0.690442	-0.341599	0.519913
59467	-9.509559	1.456043	-1.915670	-0.017568	0.057731	-0.003614	-0.369257	-0.690369	-0.341592	0.519956
59468	-9.473945	1.397779	-1.944004	-0.045032	0.115363	-0.041647	-0.369060	-0.690471	-0.341377	0.520102
59469	-9.461798	1.613351	-1.847734	0.096358	-0.074400	-0.038854	-0.368985	-0.690496	-0.341261	0.520198
59470	-9.498296	1.449389	-1.862556	-0.043778	0.017931	-0.025694	-0.368940	-0.690505	-0.341196	0.520261
59471	-9.531464	1.531961	-1.855067	0.016134	-0.032497	0.017657	-0.368828	-0.690543	-0.341053	0.520383
59472	-9.490615	1.508971	-1.816263	-0.011522	-0.049810	-0.032863	-0.368778	-0.690544	-0.340948	0.520486
59473	-9.465823	1.488143	-1.815325	-0.023077	-0.036836	-0.060258	-0.368773	-0.690516	-0.340895	0.520562
59474	-9.498056	1.461926	-1.903534	-0.009979	0.049892	-0.016201	-0.368679	-0.690545	-0.340803	0.520650
59475	-9.533833	1.581490	-1.848106	0.057764	-0.060333	0.026195	-0.368746	-0.690501	-0.340796	0.520666
59476	-9.497306	1.433045	-1.847358	-0.060141	0.018162	-0.032032	-0.368792	-0.690451	-0.340811	0.520690
59477	-9.460908	1.507215	-1.869382	0.022218	0.003918	-0.051819	-0.368782	-0.690440	-0.340763	0.520742
59478	-9.449352	1.530139	-1.805262	0.014640	-0.061545	-0.071715	-0.368754	-0.690427	-0.340786	0.520765
59479	-9.461768	1.525565	-1.811901	0.011543	-0.055239	-0.059114	-0.368738	-0.690428	-0.340834	0.520744
59480	-9.506192	1.482686	-1.796152	-0.042095	-0.052241	-0.025568	-0.368731	-0.690405	-0.340946	0.520706
59481	-9.524033	1.623041	-1.793534	0.072529	-0.127677	0.012621	-0.368803	-0.690333	-0.341115	0.520639
59482	-9.486407	1.425005	-1.865007	-0.052972	0.035680	-0.040445	-0.368853	-0.690281	-0.341291	0.520558
59483	-9.474782	1.519320	-1.888565	0.041740	0.008207	-0.032877	-0.368853	-0.690238	-0.341445	0.520514
59484	-9.483605	1.567483	-1.839038	0.058082	-0.061675	-0.026440	-0.368780	-0.690248	-0.341601	0.520450
59485	-9.479847	1.559598	-1.809395	0.038714	-0.085607	-0.036956	-0.368837	-0.690179	-0.341888	0.520313
59486	-9.434944	1.480072	-1.879414	0.015059	0.015764	-0.079214	-0.368877	-0.690105	-0.342208	0.520172
59487	-9.502697	1.558401	-1.804821	0.032313	-0.097966	-0.015922	-0.368725	-0.690136	-0.342420	0.520099
59488	-9.449729	1.507202	-1.843978	0.020191	-0.037920	-0.067563	-0.368778	-0.690053	-0.342793	0.519925
59489	-9.490917	1.365148	-1.904764	-0.080513	0.077216	-0.037371	-0.368658	-0.690064	-0.343065	0.519817
59490	-9.509500	1.430624	-1.886164	-0.036349	0.021439	-0.013039	-0.368397	-0.690165	-0.343169	0.519799
59491	-9.487760	1.443120	-1.909475	-0.008696	0.032145	-0.027741	-0.368152	-0.690262	-0.343238	0.519799
59492	-9.499663	1.375358	-1.944979	-0.050984	0.090823	-0.019460	-0.367780	-0.690429	-0.343160	0.519891
59493	-9.482498	1.382395	-1.954779	-0.035089	0.092933	-0.033113	-0.367418	-0.690600	-0.343033	0.520005
59494	-9.566499	1.462758	-1.918282	-0.001801	0.009693	0.053278	-0.367108	-0.690764	-0.342877	0.520108
59495	-9.547795	1.482677	-1.904570	0.013983	-0.013304	0.035446	-0.366770	-0.690917	-0.342691	0.520266
59496	-9.446774	1.438288	-1.938944	0.016648	0.045738	-0.062439	-0.366474	-0.691057	-0.342500	0.520414
59497	-9.494666	1.520998	-1.837974	0.029606	-0.089516	-0.023337	-0.366094	-0.691238	-0.342253	0.520604
59498	-9.461594	1.497092	-1.821023	0.009893	-0.091679	-0.062269	-0.365784	-0.691385	-0.342104	0.520724
59499	-9.484679	1.498001	-1.813584	0.002981	-0.103931	-0.041228	-0.365500	-0.691512	-0.342032	0.520802
59500	-9.518324	1.475768	-1.803409	-0.027138	-0.108549	-0.013905	-0.365215	-0.691634	-0.342030	0.520841
59501	-9.489286	1.487603	-1.874171	0.024077	-0.055367	-0.026555	-0.365032	-0.691708	-0.342110	0.520819
59502	-9.482263	1.412240	-1.905981	-0.022438	0.006516	-0.038233	-0.364828	-0.691801	-0.342190	0.520786
59503	-9.457554	1.418555	-1.964345	0.017136	0.051012	-0.049831	-0.364559	-0.691916	-0.342241	0.520788
59504	-9.475876	1.424352	-1.971243	0.021965	0.047474	-0.029842	-0.364379	-0.691995	-0.342352	0.520736
59505	-9.495871	1.418797	-1.999600	0.026800	0.069023	-0.005677	-0.364292	-0.692017	-0.342466	0.520693
59506	-9.489308	1.404542	-2.004918	0.019469	0.078770	-0.013054	-0.364205	-0.692033	-0.342574	0.520661
59507	-9.509407	1.460524	-1.939801	0.032059	-0.009719	0.001774	-0.364174	-0.692020	-0.342706	0.520613
59508	-9.491971	1.409097	-1.972478	0.008679	0.044531	-0.016174	-0.364214	-0.691946	-0.342880	0.520569
59509	-9.435828	1.443616	-1.871577	0.003830	-0.055503	-0.085479	-0.364052	-0.691976	-0.342913	0.520620
59510	-9.510579	1.444636	-1.897935	0.001788	-0.043027	-0.007669	-0.364025	-0.691952	-0.343059	0.520576
59511	-9.508734	1.425057	-1.889402	-0.017246	-0.042064	-0.013984	-0.363978	-0.691923	-0.343186	0.520564
59512	-9.468285	1.400454	-1.919445	-0.013501	-0.001746	-0.050835	-0.363936	-0.691892	-0.343330	0.520539
59513	-9.479690	1.375621	-2.051361	0.026941	0.121041	-0.017303	-0.363869	-0.691895	-0.343377	0.520551
59514	-9.522693	1.343634	-2.012773	-0.026665	0.098904	0.012168	-0.363725	-0.691904	-0.343320	0.520677
59515	-9.439499	1.380724	-2.000204	0.019410	0.077322	-0.065637	-0.363560	-0.691945	-0.343178	0.520831
59516	-9.461279	1.425469	-1.887857	0.000273	-0.043829	-0.060259	-0.363472	-0.691954	-0.343117	0.520920
59517	-9.506405	1.381907	-1.937390	-0.021779	0.016906	-0.012987	-0.363505	-0.691888	-0.343131	0.520977
59518	-9.574044	1.444223	-1.916887	0.007594	-0.038092	0.057523	-0.363471	-0.691867	-0.343081	0.521061
59519	-9.416077	1.480118	-1.878325	0.055838	-0.072487	-0.098111	-0.363566	-0.691776	-0.343120	0.521090
59520	-9.399709	1.387668	-1.876715	-0.018483	-0.024413	-0.127581	-0.363599	-0.691698	-0.343234	0.521095
59521	-9.457346	1.369417	-1.921091	-0.024556	0.016611	-0.065565	-0.363599	-0.691664	-0.343333	0.521075
59522	-9.583885	1.462550	-1.876619	0.005856	-0.082039	0.061766	-0.363656	-0.691600	-0.343490	0.521016
59523	-9.532299	1.401993	-1.934116	-0.006133	0.003034	0.014370	-0.363852	-0.691461	-0.343702	0.520925
59524	-9.428555	1.444576	-1.896094	0.035445	-0.040123	-0.087629	-0.364021	-0.691331	-0.343911	0.520841
59525	-9.454153	1.393648	-1.876643	-0.022568	-0.033818	-0.073930	-0.364137	-0.691249	-0.344131	0.520724
59526	-9.414273	1.400535	-1.960803	0.032461	0.037935	-0.095059	-0.364301	-0.691125	-0.344428	0.520577
59527	-9.511915	1.436316	-1.897556	0.011091	-0.045453	-0.007686	-0.364424	-0.691045	-0.344710	0.520410
59528	-9.578785	1.468283	-1.892227	0.020985	-0.074237	0.060688	-0.364627	-0.690903	-0.345069	0.520218
59529	-9.542047	1.379251	-1.934739	-0.026195	0.009614	0.020696	-0.364748	-0.690788	-0.345339	0.520107
59530	-9.467778	1.375612	-1.977000	0.008388	0.054421	-0.043521	-0.364762	-0.690717	-0.345463	0.520110
59531	-9.405876	1.397284	-1.945800	0.027344	0.021785	-0.106616	-0.364690	-0.690701	-0.345551	0.520123
59532	-9.459690	1.341926	-1.971837	-0.017890	0.064882	-0.057170	-0.364613	-0.690681	-0.345642	0.520143
59533	-9.500656	1.393421	-1.930642	-0.000879	-0.001933	-0.018227	-0.364551	-0.690646	-0.345727	0.520176
59534	-9.491474	1.372770	-1.969151	0.003552	0.041615	-0.022468	-0.364507	-0.690605	-0.345787	0.520222
59535	-9.554362	1.409223	-1.974834	0.025152	0.021527	0.044828	-0.364505	-0.690546	-0.345840	0.520266
59536	-9.537006	1.358587	-2.005956	0.001932	0.075831	0.026944	-0.364479	-0.690519	-0.345808	0.520342
59537	-9.515593	1.374126	-1.956316	-0.001987	0.029080	-0.001415	-0.364502	-0.690441	-0.345760	0.520462
59538	-9.488208	1.407023	-1.896783	0.005577	-0.034164	-0.035040	-0.364451	-0.690421	-0.345663	0.520588
59539	-9.477725	1.399695	-1.910895	0.009837	-0.015896	-0.043471	-0.364501	-0.690339	-0.345675	0.520653
59540	-9.485975	1.400560	-1.928311	0.018545	-0.000764	-0.031924	-0.364448	-0.690323	-0.345586	0.520771
59541	-9.494960	1.359094	-1.914098	-0.023882	0.007888	-0.031862	-0.364411	-0.690283	-0.345559	0.520868
59542	-9.491296	1.454770	-1.820354	0.015537	-0.119575	-0.040266	-0.364323	-0.690293	-0.345440	0.520996
59543	-9.542639	1.424511	-1.866951	0.001763	-0.068755	0.014416	-0.364358	-0.690238	-0.345474	0.521021
59544	-9.540249	1.346315	-1.881846	-0.056574	-0.015440	0.003973	-0.364449	-0.690158	-0.345533	0.521024
59545	-9.442735	1.341070	-1.933335	-0.014600	0.041423	-0.081317	-0.364303	-0.690235	-0.345407	0.521108
59546	-9.501211	1.414438	-1.939335	0.038237	0.003826	-0.013035	-0.364298	-0.690232	-0.345352	0.521152
59547	-9.566269	1.296206	-1.928824	-0.081410	0.048286	0.031349	-0.364177	-0.690301	-0.345212	0.521238
59548	-9.542982	1.457346	-1.852037	0.024640	-0.095592	0.016486	-0.364241	-0.690270	-0.345154	0.521272
59549	-9.480593	1.289082	-1.918217	-0.073979	0.053880	-0.054893	-0.364261	-0.690288	-0.345047	0.521305
59550	-9.495922	1.425435	-1.882560	0.021054	-0.045623	-0.027704	-0.364214	-0.690360	-0.344853	0.521371
59551	-9.473255	1.382585	-1.859769	-0.022332	-0.040099	-0.060214	-0.364221	-0.690397	-0.344743	0.521390
59552	-9.462206	1.377080	-1.875500	-0.018005	-0.021619	-0.068643	-0.364187	-0.690464	-0.344574	0.521436
59553	-9.510257	1.402837	-1.865736	-0.012562	-0.047059	-0.020265	-0.364174	-0.690528	-0.344472	0.521428
59554	-9.497459	1.409211	-1.860045	-0.008227	-0.053686	-0.032891	-0.364129	-0.690603	-0.344359	0.521435
59555	-9.458400	1.406159	-1.899797	0.015217	-0.014556	-0.063462	-0.364029	-0.690731	-0.344206	0.521436
59556	-9.505932	1.462243	-1.811649	0.008717	-0.123744	-0.026596	-0.364016	-0.690805	-0.344155	0.521381
59557	-9.507949	1.379539	-1.883688	-0.029648	-0.021515	-0.022327	-0.363944	-0.690919	-0.344105	0.521314
59558	-9.466221	1.430208	-1.934398	0.044849	-0.000993	-0.045665	-0.363929	-0.691003	-0.344074	0.521233
59559	-9.519966	1.438101	-1.936341	0.038677	-0.010113	0.007990	-0.363853	-0.691107	-0.344048	0.521165
59560	-9.507779	1.341377	-1.992409	-0.015720	0.086832	-0.006615	-0.363858	-0.691163	-0.344031	0.521099
59561	-9.476885	1.429371	-1.946493	0.043019	0.005106	-0.033045	-0.363737	-0.691258	-0.343934	0.521122
59562	-9.534352	1.443083	-1.979066	0.056804	0.019672	0.031064	-0.363716	-0.691300	-0.343875	0.521119
59563	-9.510499	1.441552	-1.921730	0.033089	-0.025925	-0.003562	-0.363704	-0.691307	-0.343827	0.521150
59564	-9.462829	1.508746	-1.893392	0.087367	-0.079289	-0.045780	-0.363679	-0.691313	-0.343798	0.521177
59565	-9.513704	1.479194	-1.873130	0.041737	-0.086095	-0.004628	-0.363835	-0.691192	-0.343953	0.521127
59566	-9.508826	1.363377	-2.003147	0.007487	0.084721	-0.000352	-0.363755	-0.691192	-0.343934	0.521196
59567	-9.468070	1.471825	-1.958540	0.089523	-0.004599	-0.033195	-0.363648	-0.691153	-0.343914	0.521335
59568	-9.431064	1.513957	-1.859290	0.088863	-0.108090	-0.082610	-0.363528	-0.691124	-0.343966	0.521424
59569	-9.457232	1.460245	-1.839570	0.030954	-0.101661	-0.068752	-0.363534	-0.690986	-0.344223	0.521432
59570	-9.493133	1.425022	-1.848875	0.000889	-0.081264	-0.037105	-0.363523	-0.690854	-0.344508	0.521427
59571	-9.500364	1.434191	-1.913087	0.041245	-0.033573	-0.016213	-0.363548	-0.690696	-0.344825	0.521409
59572	-9.492034	1.339246	-1.932478	-0.025135	0.029557	-0.033871	-0.363546	-0.690554	-0.345157	0.521379
59573	-9.410242	1.331982	-1.955741	0.001082	0.059204	-0.109685	-0.363559	-0.690405	-0.345451	0.521372
59574	-9.457573	1.261846	-1.917849	-0.083862	0.054588	-0.080982	-0.363459	-0.690339	-0.345710	0.521358
59575	-9.505510	1.486786	-1.855713	0.070779	-0.120356	-0.015268	-0.363444	-0.690222	-0.346043	0.521303
59576	-9.514367	1.340578	-1.837901	-0.062164	-0.065754	-0.030559	-0.363611	-0.690050	-0.346518	0.521098
59577	-9.520264	1.321552	-1.849249	-0.073299	-0.049494	-0.025256	-0.363825	-0.689873	-0.346977	0.520878
59578	-9.463251	1.264882	-1.855733	-0.105403	-0.013384	-0.087180	-0.363666	-0.689926	-0.347183	0.520781
59579	-9.493903	1.368626	-1.875675	-0.013743	-0.056357	-0.039146	-0.363616	-0.689936	-0.347448	0.520627
59580	-9.508999	1.266443	-1.911759	-0.087374	0.019817	-0.031495	-0.363522	-0.689988	-0.347646	0.520490
59581	-9.510356	1.283109	-1.993230	-0.035369	0.076005	-0.011709	-0.363281	-0.690144	-0.347724	0.520400
59582	-9.577163	1.343882	-1.978767	-0.005817	0.020900	0.058640	-0.363091	-0.690297	-0.347754	0.520309
59583	-9.550042	1.364342	-1.880765	-0.030053	-0.074873	0.015614	-0.362966	-0.690402	-0.347825	0.520209
59584	-9.436343	1.284483	-1.946157	-0.043497	0.029037	-0.092643	-0.362677	-0.690620	-0.347747	0.520174
59585	-9.540327	1.434519	-1.956916	0.065675	-0.052550	0.030998	-0.362477	-0.690779	-0.347714	0.520124
59586	-9.481008	1.258796	-2.015206	-0.044842	0.088211	-0.038981	-0.362224	-0.690971	-0.347624	0.520107
59587	-9.484786	1.354861	-1.945920	0.002537	-0.024151	-0.036040	-0.361866	-0.691209	-0.347455	0.520152
59588	-9.449211	1.313557	-1.921717	-0.036995	-0.025167	-0.081089	-0.361470	-0.691480	-0.347278	0.520185
59589	-9.483134	1.352837	-1.955357	0.003806	-0.024410	-0.036041	-0.361206	-0.691690	-0.347174	0.520159
59590	-9.494455	1.347802	-1.967013	0.000703	-0.018156	-0.023404	-0.360844	-0.691987	-0.347024	0.520115
59591	-9.525805	1.441209	-2.011461	0.092446	-0.036172	0.028763	-0.360609	-0.692189	-0.346997	0.520027
59592	-9.447551	1.359270	-2.006427	0.036275	0.004465	-0.059316	-0.360350	-0.692368	-0.346989	0.519974
59593	-9.425794	1.403749	-1.950788	0.051849	-0.068590	-0.085700	-0.360041	-0.692550	-0.346978	0.519952
59594	-9.499126	1.374180	-1.993828	0.030697	-0.029974	-0.009868	-0.359878	-0.692653	-0.347102	0.519846
59595	-9.464742	1.217910	-2.052091	-0.067519	0.097632	-0.052481	-0.359607	-0.692837	-0.347125	0.519772
59596	-9.507493	1.318100	-2.013027	-0.011035	0.003376	-0.005448	-0.359335	-0.693017	-0.347090	0.519745
59597	-9.534524	1.314104	-2.061853	0.002128	0.040129	0.030261	-0.359135	-0.693168	-0.347036	0.519718
59598	-9.482002	1.283653	-2.109249	0.009572	0.098865	-0.014974	-0.359039	-0.693259	-0.347039	0.519660
59599	-9.474222	1.313817	-2.079701	0.021547	0.057300	-0.024510	-0.358939	-0.693371	-0.346952	0.519639
59600	-9.467856	1.331762	-2.071987	0.033657	0.040753	-0.029834	-0.358779	-0.693484	-0.346842	0.519672
59601	-9.485957	1.412873	-2.029434	0.077690	-0.040083	-0.010109	-0.358721	-0.693545	-0.346798	0.519659
59602	-9.501836	1.343405	-1.982265	-0.007943	-0.047805	-0.013878	-0.358670	-0.693586	-0.346807	0.519633
59603	-9.461236	1.351002	-1.999170	0.015159	-0.033650	-0.048697	-0.358737	-0.693550	-0.346930	0.519553
59604	-9.469704	1.310309	-1.987252	-0.027360	-0.025067	-0.048467	-0.358707	-0.693583	-0.346975	0.519500
59605	-9.477464	1.341518	-1.995876	0.000858	-0.036263	-0.034947	-0.358662	-0.693634	-0.347035	0.519423
59606	-9.478805	1.360253	-2.007326	0.021151	-0.037543	-0.028744	-0.358766	-0.693594	-0.347188	0.519302
59607	-9.425233	1.342494	-2.030725	0.028359	-0.003618	-0.078195	-0.358826	-0.693570	-0.347354	0.519183
59608	-9.439648	1.314252	-2.083372	0.025597	0.052650	-0.057114	-0.358913	-0.693536	-0.347528	0.519051
59609	-9.523054	1.306820	-2.084656	0.000819	0.047574	0.022955	-0.359067	-0.693451	-0.347708	0.518936
59610	-9.500295	1.263111	-2.128668	-0.010679	0.110709	0.004131	-0.359253	-0.693339	-0.347851	0.518863
59611	-9.450647	1.253191	-2.113804	-0.015357	0.110942	-0.048424	-0.359508	-0.693183	-0.347954	0.518826
59612	-9.464483	1.238955	-2.140021	-0.018248	0.142217	-0.031554	-0.359690	-0.693093	-0.347939	0.518829
59613	-9.535481	1.280437	-2.095658	-0.020089	0.079704	0.033629	-0.359889	-0.692997	-0.347805	0.518909
59614	-9.449451	1.286335	-1.991935	-0.045701	0.002817	-0.070384	-0.360069	-0.692920	-0.347637	0.519000
59615	-9.530082	1.377819	-2.029725	0.031721	-0.014273	0.028014	-0.360338	-0.692805	-0.347500	0.519059
59616	-9.506866	1.349733	-1.979940	-0.011774	-0.033751	-0.008548	-0.360640	-0.692682	-0.347379	0.519093
59617	-9.510541	1.361231	-1.939594	-0.022973	-0.067732	-0.011655	-0.360968	-0.692536	-0.347248	0.519147
59618	-9.442590	1.375898	-1.972712	0.019317	-0.032779	-0.068676	-0.361227	-0.692432	-0.347107	0.519200
59619	-9.510646	1.340329	-2.009568	-0.009706	0.015673	-0.000099	-0.361550	-0.692300	-0.347002	0.519223
59620	-9.459796	1.344903	-1.969682	-0.014590	-0.009122	-0.056876	-0.361758	-0.692225	-0.346815	0.519302
59621	-9.511702	1.379618	-1.920818	-0.020776	-0.068248	-0.011653	-0.361958	-0.692169	-0.346601	0.519381
59622	-9.501699	1.304942	-1.979879	-0.055607	0.027463	-0.019771	-0.362273	-0.692060	-0.346435	0.519418
59623	-9.445200	1.388173	-1.972230	0.022163	-0.008597	-0.064459	-0.362532	-0.692013	-0.346216	0.519445
59624	-9.499381	1.370581	-1.980463	-0.003280	0.008368	-0.012744	-0.362874	-0.691906	-0.346056	0.519456
59625	-9.449694	1.364304	-1.963095	-0.007993	0.008557	-0.065296	-0.363107	-0.691861	-0.345815	0.519513
59626	-9.473290	1.402882	-1.936662	0.004763	-0.029810	-0.042270	-0.363337	-0.691832	-0.345568	0.519555
59627	-9.462355	1.400869	-1.948883	0.009034	-0.011356	-0.050693	-0.363550	-0.691800	-0.345352	0.519593
59628	-9.493641	1.440254	-1.941860	0.030023	-0.034531	-0.016143	-0.363830	-0.691734	-0.345164	0.519609
59629	-9.493602	1.445815	-1.937915	0.030629	-0.034691	-0.016145	-0.364095	-0.691673	-0.344992	0.519620
59630	-9.512332	1.459491	-1.936910	0.035508	-0.038262	0.003802	-0.364417	-0.691558	-0.344881	0.519620
59631	-9.498333	1.450742	-1.916637	0.019772	-0.043735	-0.015026	-0.364723	-0.691452	-0.344783	0.519611
59632	-9.476426	1.380549	-1.970262	-0.011348	0.045598	-0.035761	-0.364973	-0.691380	-0.344627	0.519635
59633	-9.431342	1.367182	-1.941175	-0.027668	0.037210	-0.087184	-0.365081	-0.691364	-0.344372	0.519750
59634	-9.439452	1.431765	-1.931998	0.020240	-0.000160	-0.071773	-0.365047	-0.691434	-0.344073	0.519879
59635	-9.515669	1.517155	-1.871502	0.046042	-0.098863	0.002625	-0.365242	-0.691373	-0.343937	0.519912
59636	-9.493783	1.355309	-1.964171	-0.043881	0.069068	-0.023916	-0.365380	-0.691343	-0.343748	0.519981
59637	-9.489337	1.424576	-1.948759	0.007666	0.025297	-0.021166	-0.365387	-0.691398	-0.343452	0.520098
59638	-9.452012	1.440553	-1.927862	0.018946	0.005766	-0.059125	-0.365240	-0.691518	-0.343081	0.520286
59639	-9.506005	1.540249	-1.820867	0.039993	-0.139534	-0.013147	-0.365168	-0.691607	-0.342803	0.520402
59640	-9.471502	1.441387	-1.816395	-0.038868	-0.088081	-0.061945	-0.365147	-0.691637	-0.342630	0.520491
59641	-9.501661	1.549730	-1.898080	0.084843	-0.073627	-0.000790	-0.365219	-0.691630	-0.342503	0.520533
59642	-9.481304	1.464645	-1.909588	0.021984	-0.016880	-0.030762	-0.365177	-0.691675	-0.342354	0.520600
59643	-9.514052	1.549020	-1.901649	0.082198	-0.067421	0.011854	-0.365332	-0.691595	-0.342323	0.520619
59644	-9.473761	1.316439	-1.950401	-0.083111	0.098608	-0.051919	-0.365402	-0.691562	-0.342254	0.520659
59645	-9.492130	1.568055	-1.850366	0.078699	-0.114269	-0.016570	-0.365326	-0.691623	-0.342014	0.520789
59646	-9.504807	1.444578	-1.906017	-0.002602	-0.003384	-0.011614	-0.365405	-0.691588	-0.341959	0.520816
59647	-9.504684	1.536888	-1.866273	0.056733	-0.082071	-0.005850	-0.365446	-0.691568	-0.341862	0.520877
59648	-9.504430	1.447628	-1.836253	-0.033331	-0.061356	-0.025105	-0.365422	-0.691583	-0.341808	0.520909
59649	-9.557737	1.617799	-1.883518	0.122186	-0.111305	0.060910	-0.365381	-0.691585	-0.341690	0.521013
59650	-9.428204	1.468532	-1.964712	0.064634	0.048463	-0.070963	-0.365615	-0.691384	-0.341832	0.521022
59651	-9.386827	1.456782	-1.969147	0.068047	0.063819	-0.111988	-0.365557	-0.691332	-0.341844	0.521125
59652	-9.557464	1.598664	-1.867682	0.104257	-0.110676	0.054732	-0.365578	-0.691226	-0.341920	0.521201
59653	-9.487547	1.528266	-1.785838	0.023838	-0.137244	-0.039308	-0.365724	-0.691022	-0.342114	0.521241
59654	-9.436140	1.465704	-1.708184	-0.052038	-0.167391	-0.113399	-0.365714	-0.690929	-0.342328	0.521231
59655	-9.446067	1.392259	-1.775908	-0.082306	-0.075076	-0.101456	-0.365758	-0.690825	-0.342623	0.521144
59656	-9.484145	1.195205	-1.940732	-0.178163	0.158671	-0.061429	-0.365529	-0.690890	-0.342748	0.521137
59657	-9.513556	1.328536	-1.947846	-0.066634	0.089529	-0.011953	-0.365073	-0.691131	-0.342585	0.521244
59658	-9.531644	1.424784	-1.917231	-0.002809	0.007466	0.013704	-0.364604	-0.691400	-0.342358	0.521364
59659	-9.505598	1.382690	-2.045381	0.029132	0.136725	0.007306	-0.364287	-0.691568	-0.342207	0.521462
59660	-9.533181	1.439610	-1.999116	0.049925	0.063476	0.033325	-0.364003	-0.691721	-0.341936	0.521635
59661	-9.534986	1.336760	-2.059200	-0.008152	0.166962	0.031867	-0.363814	-0.691824	-0.341649	0.521819
59662	-9.493828	1.435530	-1.902554	0.010098	-0.012452	-0.024277	-0.363556	-0.691986	-0.341245	0.522049
59663	-9.557445	1.433259	-1.874724	-0.019108	-0.039050	0.031686	-0.363514	-0.692016	-0.340968	0.522218
59664	-9.492591	1.360268	-1.913915	-0.047642	0.040736	-0.034203	-0.363385	-0.692128	-0.340594	0.522404
59665	-9.507581	1.515986	-1.820448	0.035486	-0.117476	-0.015173	-0.363199	-0.692263	-0.340146	0.522646
59666	-9.481707	1.477982	-1.875720	0.035602	-0.045569	-0.035051	-0.363177	-0.692299	-0.339885	0.522783
59667	-9.465604	1.569153	-1.798049	0.078583	-0.154587	-0.052421	-0.363125	-0.692344	-0.339655	0.522909
59668	-9.463941	1.552375	-1.787203	0.059395	-0.153657	-0.058560	-0.363188	-0.692312	-0.339676	0.522894
59669	-9.488898	1.513880	-1.812166	0.033215	-0.114659	-0.035126	-0.363215	-0.692296	-0.339737	0.522858
59670	-9.507660	1.461773	-1.840919	-0.000928	-0.065829	-0.018963	-0.363187	-0.692294	-0.339788	0.522847
59671	-9.499719	1.580892	-1.840069	0.101467	-0.128315	-0.009475	-0.363153	-0.692298	-0.339887	0.522800
59672	-9.466038	1.478644	-1.904188	0.054217	-0.019216	-0.044633	-0.363256	-0.692193	-0.340113	0.522721
59673	-9.486497	1.474066	-1.929986	0.059543	0.002256	-0.020457	-0.363308	-0.692094	-0.340341	0.522667
59674	-9.503803	1.432390	-1.936194	0.025213	0.026108	-0.008528	-0.363346	-0.691979	-0.340567	0.522646
59675	-9.488242	1.428529	-1.898182	0.009357	-0.004304	-0.031561	-0.363339	-0.691886	-0.340778	0.522636
59676	-9.491316	1.432582	-1.863849	-0.002023	-0.038071	-0.034658	-0.363169	-0.691890	-0.340845	0.522706
59677	-9.519913	1.426594	-1.909296	0.011402	-0.001491	0.001038	-0.363020	-0.691851	-0.340969	0.522780
59678	-9.486295	1.413012	-1.935440	0.022830	0.029097	-0.028467	-0.362928	-0.691810	-0.341048	0.522847
59679	-9.469595	1.419695	-1.942805	0.038608	0.031235	-0.042284	-0.362641	-0.691862	-0.341041	0.522981
59680	-9.500476	1.511631	-1.848220	0.067094	-0.101930	-0.017530	-0.362610	-0.691757	-0.341243	0.523009
59681	-9.493046	1.325932	-1.905017	-0.058067	0.039869	-0.040270	-0.362400	-0.691765	-0.341334	0.523086
59682	-9.462103	1.469598	-1.834534	0.039458	-0.094153	-0.063523	-0.362209	-0.691754	-0.341456	0.523152
59683	-9.541650	1.433573	-1.860747	0.006988	-0.064287	0.013625	-0.362092	-0.691710	-0.341654	0.523163
59684	-9.526501	1.337044	-1.928617	-0.035662	0.041408	-0.001546	-0.361973	-0.691660	-0.341843	0.523188
59685	-9.470619	1.338961	-1.908177	-0.028948	0.025295	-0.059477	-0.361908	-0.691596	-0.342084	0.523160
59686	-9.473942	1.281373	-1.967138	-0.047775	0.101416	-0.052843	-0.361667	-0.691652	-0.342132	0.523221
59687	-9.522416	1.454156	-1.896657	0.056123	-0.055046	0.004752	-0.361573	-0.691629	-0.342268	0.523227
59688	-9.503430	1.292727	-1.957291	-0.045706	0.079126	-0.024483	-0.361541	-0.691598	-0.342394	0.523209
59689	-9.501895	1.363990	-1.911064	-0.006155	0.001632	-0.025012	-0.361445	-0.691606	-0.342454	0.523224
59690	-9.493835	1.301548	-1.917854	-0.053078	0.038705	-0.040237	-0.361418	-0.691588	-0.342528	0.523219
59691	-9.509412	1.424106	-1.839891	0.010385	-0.093337	-0.023235	-0.361322	-0.691627	-0.342534	0.523228
59692	-9.481362	1.395818	-1.876112	0.010336	-0.046422	-0.047337	-0.361382	-0.691581	-0.342681	0.523153
59693	-9.495032	1.349096	-1.918619	-0.012070	0.011245	-0.032272	-0.361418	-0.691577	-0.342814	0.523045
59694	-9.519630	1.370261	-1.920466	0.001047	-0.002214	-0.005080	-0.361392	-0.691585	-0.342913	0.522989
59695	-9.515998	1.364010	-1.890106	-0.018346	-0.026299	-0.015432	-0.361408	-0.691585	-0.343029	0.522901
59696	-9.500337	1.362162	-1.920089	-0.002496	0.000750	-0.025010	-0.361457	-0.691564	-0.343120	0.522836
59697	-9.520367	1.358731	-1.946671	0.002758	0.022250	-0.000829	-0.361422	-0.691592	-0.343169	0.522791
59698	-9.481082	1.354308	-1.919348	-0.005893	0.004126	-0.044939	-0.361462	-0.691576	-0.343251	0.522731
59699	-9.556809	1.376740	-1.888342	-0.018901	-0.042260	0.025590	-0.361410	-0.691633	-0.343226	0.522707
59700	-9.473344	1.445739	-1.930633	0.077617	-0.032493	-0.037481	-0.361673	-0.691491	-0.343387	0.522607
59701	-9.525291	1.254270	-1.995983	-0.065477	0.116464	-0.000937	-0.361626	-0.691547	-0.343373	0.522575
59702	-9.480789	1.540268	-1.844865	0.113787	-0.153715	-0.033898	-0.361768	-0.691475	-0.343425	0.522538
59703	-9.474825	1.244824	-1.916377	-0.101727	0.059192	-0.066891	-0.361764	-0.691495	-0.343434	0.522508
59704	-9.490577	1.459331	-1.800362	0.020513	-0.151610	-0.044443	-0.361765	-0.691516	-0.343468	0.522457
59705	-9.507129	1.359082	-1.900624	-0.021164	-0.017981	-0.022682	-0.361811	-0.691538	-0.343622	0.522295
59706	-9.500760	1.407236	-1.947875	0.042349	-0.003089	-0.012832	-0.361910	-0.691519	-0.343775	0.522150
59707	-9.514112	1.422491	-1.898312	0.027289	-0.055516	-0.007507	-0.362004	-0.691501	-0.343910	0.522020
59708	-9.510680	1.416760	-1.934925	0.039588	-0.021897	-0.004418	-0.362023	-0.691519	-0.343978	0.521939
59709	-9.502464	1.416686	-1.917043	0.031950	-0.037136	-0.015929	-0.362146	-0.691469	-0.344143	0.521811
59710	-9.492346	1.307826	-1.927028	-0.054326	0.027350	-0.039009	-0.362244	-0.691427	-0.344269	0.521716
59711	-9.462657	1.352935	-1.915932	-0.015487	-0.003217	-0.063695	-0.362191	-0.691484	-0.344305	0.521653
59712	-9.507329	1.371056	-1.943657	0.002409	0.004956	-0.012337	-0.362210	-0.691510	-0.344410	0.521536
59713	-9.485219	1.387042	-1.964875	0.029946	0.015724	-0.027348	-0.362196	-0.691545	-0.344442	0.521478
59714	-9.504991	1.414916	-1.911803	0.023003	-0.046471	-0.014772	-0.362265	-0.691536	-0.344510	0.521397
59715	-9.519789	1.357714	-1.909792	-0.031049	-0.021394	-0.008829	-0.362284	-0.691569	-0.344571	0.521299
59716	-9.505504	1.375246	-1.949611	0.004706	0.004481	-0.012337	-0.362379	-0.691558	-0.344645	0.521199
59717	-9.466026	1.341258	-1.935180	-0.023524	0.012346	-0.058261	-0.362282	-0.691649	-0.344629	0.521156
59718	-9.478243	1.397711	-1.985357	0.044665	0.023842	-0.028528	-0.362302	-0.691680	-0.344679	0.521068
59719	-9.527327	1.411043	-1.933116	0.018831	-0.034248	0.010571	-0.362166	-0.691807	-0.344604	0.521044
59720	-9.509971	1.452111	-1.928272	0.054113	-0.058365	-0.001465	-0.362314	-0.691750	-0.344729	0.520934
59721	-9.467427	1.321349	-2.052716	0.010810	0.119282	-0.036316	-0.362419	-0.691723	-0.344784	0.520861
59722	-9.510690	1.353010	-1.988741	-0.003445	0.044923	-0.002646	-0.362493	-0.691719	-0.344761	0.520829
59723	-9.477849	1.362989	-1.956534	-0.004163	0.016759	-0.039505	-0.362575	-0.691713	-0.344736	0.520798
59724	-9.513474	1.393688	-1.939994	0.005251	-0.015221	-0.003923	-0.362659	-0.691694	-0.344702	0.520786
59725	-9.477544	1.366923	-1.955269	-0.003120	0.016442	-0.039504	-0.362722	-0.691694	-0.344654	0.520775
59726	-9.460296	1.408762	-1.881617	0.000353	-0.065143	-0.064967	-0.362678	-0.691748	-0.344536	0.520811
59727	-9.455496	1.475658	-1.869771	0.051754	-0.108979	-0.062535	-0.362609	-0.691831	-0.344467	0.520794
59728	-9.459614	1.441251	-1.870959	0.020962	-0.091701	-0.063167	-0.362689	-0.691827	-0.344557	0.520684
59729	-9.498169	1.447026	-1.967991	0.062712	-0.016219	-0.005655	-0.362762	-0.691799	-0.344695	0.520580
59730	-9.489880	1.386383	-1.975513	0.015839	0.020972	-0.020760	-0.362746	-0.691834	-0.344709	0.520536
59731	-9.489629	1.417261	-1.963845	0.035975	-0.005334	-0.018962	-0.362820	-0.691801	-0.344818	0.520454
59732	-9.472261	1.427867	-1.903992	0.019906	-0.060744	-0.046233	-0.362833	-0.691803	-0.344872	0.520407
59733	-9.477972	1.350887	-1.940083	-0.030310	0.007843	-0.044382	-0.362893	-0.691795	-0.344968	0.520313
59734	-9.515132	1.428508	-1.922160	0.018528	-0.051477	-0.000956	-0.362874	-0.691802	-0.345020	0.520283
59735	-9.465115	1.386283	-1.990121	0.025714	0.032516	-0.041861	-0.362925	-0.691792	-0.345082	0.520219
59736	-9.483563	1.395370	-1.993842	0.030817	0.028985	-0.021945	-0.362960	-0.691767	-0.345145	0.520185
59737	-9.470994	1.370007	-2.000351	0.015242	0.048554	-0.036417	-0.362949	-0.691765	-0.345138	0.520202
59738	-9.498999	1.397998	-1.965073	0.016288	0.001410	-0.012349	-0.362924	-0.691768	-0.345110	0.520232
59739	-9.470909	1.340315	-1.945676	-0.035247	0.016944	-0.051607	-0.362859	-0.691792	-0.345044	0.520290
59740	-9.496010	1.452239	-1.907401	0.036659	-0.075096	-0.019098	-0.362782	-0.691822	-0.344969	0.520353
59741	-9.522307	1.401494	-1.955070	0.010848	-0.011225	0.008747	-0.362785	-0.691806	-0.344971	0.520371
59742	-9.505280	1.411704	-1.961097	0.026616	-0.009229	-0.005120	-0.362745	-0.691815	-0.344917	0.520423
59743	-9.500794	1.447860	-1.960306	0.058515	-0.026853	-0.004525	-0.362824	-0.691750	-0.344942	0.520438
59744	-9.486731	1.344098	-1.981456	-0.016103	0.046348	-0.028597	-0.362842	-0.691722	-0.344927	0.520473
59745	-9.445042	1.393199	-1.961581	0.026208	0.009377	-0.066055	-0.362820	-0.691703	-0.344900	0.520531
59746	-9.504188	1.455337	-1.855676	0.016225	-0.118428	-0.021016	-0.362827	-0.691679	-0.344917	0.520547
59747	-9.502488	1.346926	-1.950960	-0.029866	0.018813	-0.018991	-0.362950	-0.691596	-0.345018	0.520504
59748	-9.521213	1.385766	-1.941157	-0.005202	-0.010899	0.002698	-0.362845	-0.691635	-0.344939	0.520578
59749	-9.479427	1.404284	-2.001800	0.049418	0.035745	-0.023150	-0.362824	-0.691626	-0.344921	0.520617
59750	-9.493465	1.418061	-1.950417	0.034308	-0.016600	-0.017819	-0.362768	-0.691626	-0.344905	0.520666
59751	-9.487298	1.404871	-1.886156	-0.005089	-0.064360	-0.038440	-0.362761	-0.691584	-0.344933	0.520708
59752	-9.473446	1.390370	-1.937166	0.011171	-0.012169	-0.043775	-0.362722	-0.691565	-0.344980	0.520730
59753	-9.496841	1.392651	-1.994908	0.036401	0.033096	-0.009284	-0.362662	-0.691567	-0.344974	0.520773
59754	-9.484552	1.426748	-1.908498	0.028198	-0.057147	-0.033595	-0.362602	-0.691548	-0.344963	0.520847
59755	-9.483100	1.407791	-1.898623	0.008962	-0.056230	-0.039634	-0.362624	-0.691488	-0.345077	0.520836
59756	-9.504868	1.391807	-1.879496	-0.017516	-0.067394	-0.024567	-0.362631	-0.691440	-0.345191	0.520819
59757	-9.480062	1.339467	-1.959425	-0.017296	0.029501	-0.040076	-0.362609	-0.691404	-0.345245	0.520846
59758	-9.477291	1.422516	-1.956509	0.053893	-0.015420	-0.031716	-0.362550	-0.691386	-0.345299	0.520875
59759	-9.540798	1.327241	-1.969262	-0.033889	0.036530	0.019093	-0.362552	-0.691344	-0.345366	0.520886
59760	-9.486784	1.410338	-1.930777	0.031489	-0.033002	-0.029337	-0.362548	-0.691304	-0.345398	0.520920
59761	-9.494548	1.380854	-1.895261	-0.011257	-0.049434	-0.032982	-0.362539	-0.691274	-0.345443	0.520936
59762	-9.485326	1.391386	-1.920879	0.012779	-0.032228	-0.035369	-0.362542	-0.691244	-0.345513	0.520929
59763	-9.506818	1.315452	-1.927495	-0.052832	0.008987	-0.023797	-0.362557	-0.691207	-0.345613	0.520899
59764	-9.491350	1.373481	-1.931571	0.002157	-0.016216	-0.029902	-0.362490	-0.691246	-0.345616	0.520893
59765	-9.517673	1.413095	-1.942136	0.035111	-0.030984	0.003250	-0.362539	-0.691216	-0.345726	0.520826
59766	-9.479995	1.305977	-1.974361	-0.032253	0.054340	-0.041813	-0.362569	-0.691174	-0.345795	0.520814
59767	-9.491001	1.373834	-1.933037	0.003805	-0.016845	-0.029904	-0.362536	-0.691187	-0.345797	0.520820
59768	-9.489217	1.325508	-2.003770	-0.003187	0.067920	-0.024292	-0.362506	-0.691201	-0.345794	0.520823
59769	-9.475384	1.402555	-1.949546	0.039722	-0.016071	-0.037772	-0.362536	-0.691180	-0.345806	0.520823
59770	-9.473571	1.324593	-1.965167	-0.018710	0.037431	-0.047278	-0.362531	-0.691183	-0.345764	0.520850
59771	-9.495352	1.370080	-1.920452	-0.006026	-0.026106	-0.028708	-0.362428	-0.691246	-0.345659	0.520908
59772	-9.470511	1.409613	-1.895059	0.021014	-0.065361	-0.052353	-0.362402	-0.691267	-0.345603	0.520934
59773	-9.505971	1.348853	-1.984342	0.003653	0.038610	-0.008658	-0.362446	-0.691269	-0.345584	0.520914
59774	-9.533967	1.407992	-1.935956	0.024571	-0.034769	0.017119	-0.362446	-0.691266	-0.345520	0.520961
59775	-9.471685	1.370705	-1.929313	0.003199	-0.014694	-0.049815	-0.362343	-0.691348	-0.345370	0.521023
59776	-9.468438	1.425487	-1.872406	0.022839	-0.091051	-0.056642	-0.362343	-0.691374	-0.345369	0.520989
59777	-9.492837	1.357105	-1.911574	-0.022778	-0.025807	-0.034721	-0.362339	-0.691405	-0.345371	0.520950
59778	-9.520635	1.445921	-1.919226	0.049687	-0.067783	0.006149	-0.362342	-0.691423	-0.345405	0.520901
59779	-9.515526	1.361684	-1.971045	0.003167	0.019376	-0.000244	-0.362435	-0.691383	-0.345503	0.520824
59780	-9.456231	1.330851	-1.997082	0.001863	0.063267	-0.056879	-0.362435	-0.691402	-0.345497	0.520802
59781	-9.536902	1.408461	-1.927294	0.016438	-0.044269	0.018309	-0.362430	-0.691417	-0.345488	0.520793
59782	-9.479114	1.335765	-1.988173	-0.004390	0.050923	-0.035771	-0.362489	-0.691419	-0.345476	0.520756
59783	-9.491362	1.393075	-1.969379	0.031810	0.004798	-0.019627	-0.362477	-0.691463	-0.345424	0.520741
59784	-9.520493	1.350302	-1.982401	-0.005908	0.034988	0.005243	-0.362558	-0.691463	-0.345415	0.520691
59785	-9.484585	1.413762	-1.893147	0.012361	-0.069306	-0.038481	-0.362529	-0.691515	-0.345329	0.520699
59786	-9.499826	1.387414	-1.944172	0.009842	-0.013050	-0.017222	-0.362713	-0.691453	-0.345404	0.520603
59787	-9.499514	1.359430	-1.956758	-0.009143	0.013119	-0.018941	-0.362764	-0.691468	-0.345370	0.520571
59788	-9.503887	1.416134	-1.918791	0.018778	-0.048065	-0.014300	-0.362783	-0.691506	-0.345320	0.520540
59789	-9.463221	1.394677	-1.947520	0.021930	-0.007634	-0.051029	-0.362919	-0.691467	-0.345351	0.520477
59790	-9.480067	1.326709	-2.033217	-0.000031	0.099881	-0.027197	-0.363001	-0.691468	-0.345296	0.520455
59791	-9.498613	1.367394	-2.022734	0.024664	0.070120	-0.005580	-0.363031	-0.691476	-0.345180	0.520501
59792	-9.486218	1.343416	-2.027800	0.009032	0.089721	-0.019989	-0.362989	-0.691524	-0.344969	0.520605
59793	-9.500258	1.419821	-1.949118	0.033028	-0.015081	-0.011231	-0.363055	-0.691516	-0.344785	0.520691
59794	-9.539030	1.457480	-1.828871	-0.001367	-0.138267	0.007852	-0.363050	-0.691550	-0.344600	0.520772
59795	-9.436550	1.428254	-1.836810	-0.000414	-0.103738	-0.094072	-0.363210	-0.691491	-0.344556	0.520769
59796	-9.419256	1.379669	-1.801330	-0.055806	-0.106809	-0.124749	-0.363129	-0.691584	-0.344471	0.520758
59797	-9.549124	1.470484	-1.879764	0.028510	-0.099858	0.029610	-0.363138	-0.691644	-0.344495	0.520656
59798	-9.531514	1.421727	-1.913429	0.005009	-0.045368	0.012291	-0.363266	-0.691637	-0.344610	0.520500
59799	-9.461086	1.474076	-1.985372	0.097978	-0.004073	-0.034285	-0.363264	-0.691666	-0.344672	0.520421
59800	-9.510465	1.367203	-1.983502	-0.006102	0.042667	-0.001948	-0.363375	-0.691653	-0.344770	0.520296
59801	-9.437267	1.322596	-1.993629	-0.023742	0.081395	-0.077255	-0.363354	-0.691674	-0.344709	0.520324
59802	-9.514576	1.394064	-1.958893	0.002842	0.007536	0.000964	-0.363321	-0.691722	-0.344672	0.520308
59803	-9.542175	1.453715	-1.910942	0.023583	-0.065919	0.026682	-0.363509	-0.691653	-0.344740	0.520223
59804	-9.455081	1.426615	-1.958004	0.041001	-0.001088	-0.052263	-0.363744	-0.691562	-0.344845	0.520109
59805	-9.430107	1.407868	-1.956940	0.028802	0.012046	-0.079360	-0.364031	-0.691427	-0.345015	0.519976
59806	-9.424180	1.276654	-2.010022	-0.057098	0.126627	-0.093330	-0.364258	-0.691295	-0.345144	0.519907
59807	-9.592961	1.433254	-1.887576	-0.019921	-0.073098	0.068422	-0.364173	-0.691385	-0.344969	0.519962
59808	-9.528903	1.529217	-1.873921	0.068753	-0.125391	0.017350	-0.364349	-0.691310	-0.344987	0.519928
59809	-9.423520	1.432832	-1.875949	0.010438	-0.062429	-0.098218	-0.364564	-0.691199	-0.345134	0.519827
59810	-9.495234	1.311963	-1.987166	-0.056637	0.088302	-0.023993	-0.364759	-0.691113	-0.345229	0.519740
59811	-9.434388	1.383285	-1.951420	0.000469	0.028608	-0.079837	-0.364616	-0.691196	-0.345065	0.519839
59812	-9.526068	1.408691	-2.091143	0.068191	0.127391	0.040352	-0.364623	-0.691192	-0.344935	0.519926
59813	-9.577403	1.470973	-2.031015	0.081958	0.041806	0.087159	-0.364612	-0.691176	-0.344735	0.520088
59814	-9.435226	1.447177	-1.985564	0.073134	0.033220	-0.063132	-0.364750	-0.691047	-0.344601	0.520252
59815	-9.458325	1.282349	-1.958788	-0.083170	0.095530	-0.069734	-0.364710	-0.691009	-0.344358	0.520491
59816	-9.420886	1.476833	-1.858521	0.045158	-0.081102	-0.097771	-0.364620	-0.691009	-0.344053	0.520756
59817	-9.535012	1.456743	-1.922181	0.034469	-0.024646	0.022532	-0.364554	-0.691023	-0.343836	0.520927
59818	-9.547235	1.543325	-1.820324	0.058334	-0.154498	0.026919	-0.364477	-0.691015	-0.343629	0.521128
59819	-9.509189	1.477935	-1.814451	0.010210	-0.120291	-0.020516	-0.364479	-0.690952	-0.343539	0.521270
59820	-9.450762	1.415446	-1.783871	-0.042759	-0.107647	-0.092133	-0.364411	-0.690934	-0.343466	0.521388
59821	-9.413127	1.319446	-1.926830	-0.046561	0.067705	-0.114553	-0.364429	-0.690890	-0.343492	0.521417
59822	-9.552317	1.428917	-1.897401	0.002106	-0.026355	0.030482	-0.364325	-0.690955	-0.343384	0.521475
59823	-9.608112	1.455214	-1.906444	0.016604	-0.036800	0.090159	-0.364434	-0.690880	-0.343432	0.521467
59824	-9.494590	1.446903	-1.851788	0.008720	-0.067360	-0.031825	-0.364436	-0.690883	-0.343386	0.521491
59825	-9.492847	1.459562	-1.829039	0.008985	-0.092514	-0.036123	-0.364485	-0.690851	-0.343412	0.521482
59826	-9.436009	1.326004	-1.848107	-0.082954	-0.002419	-0.106753	-0.364551	-0.690820	-0.343440	0.521459
59827	-9.425465	1.289187	-1.944603	-0.066254	0.099738	-0.103489	-0.364444	-0.690910	-0.343349	0.521475
59828	-9.634795	1.517619	-1.859181	0.039647	-0.110685	0.115815	-0.364313	-0.691042	-0.343222	0.521475
59829	-9.598520	1.550645	-1.850285	0.070202	-0.131350	0.083648	-0.364548	-0.690945	-0.343351	0.521354
59830	-9.521412	1.391549	-1.856719	-0.046231	-0.036653	-0.012808	-0.364656	-0.690933	-0.343392	0.521267
59831	-9.380522	1.524457	-1.852195	0.094806	-0.094846	-0.131221	-0.364523	-0.691045	-0.343332	0.521252
59832	-9.417359	1.481678	-1.819302	0.033361	-0.106952	-0.108084	-0.364656	-0.691001	-0.343592	0.521045
59833	-9.482561	1.376189	-1.857586	-0.054021	-0.030065	-0.052582	-0.364661	-0.691040	-0.343816	0.520843
59834	-9.527524	1.532954	-1.845605	0.062159	-0.128033	0.011246	-0.364701	-0.691049	-0.344125	0.520598
59835	-9.509200	1.343521	-1.923434	-0.059572	0.032543	-0.018561	-0.364902	-0.690968	-0.344532	0.520296
59836	-9.462046	1.306891	-1.959598	-0.064580	0.082862	-0.062443	-0.364761	-0.691085	-0.344637	0.520169
59837	-9.482274	1.442069	-1.947702	0.039054	-0.001664	-0.025702	-0.364644	-0.691208	-0.344692	0.520051
59838	-9.513547	1.265921	-2.104774	-0.044597	0.215913	0.010327	-0.364593	-0.691263	-0.344724	0.519993
59839	-9.552574	1.440470	-2.013583	0.051350	0.044132	0.055269	-0.364436	-0.691387	-0.344591	0.520026
59840	-9.517106	1.352273	-2.122931	0.035553	0.185819	0.029822	-0.364440	-0.691399	-0.344500	0.520068
59841	-9.484171	1.421302	-1.996953	0.041729	0.047807	-0.017107	-0.364440	-0.691408	-0.344357	0.520150
59842	-9.512614	1.360260	-1.930974	-0.047761	0.021770	-0.011359	-0.364458	-0.691400	-0.344163	0.520277
59843	-9.501811	1.384726	-1.864392	-0.055981	-0.043522	-0.031440	-0.364479	-0.691398	-0.343971	0.520393
59844	-9.466030	1.418213	-1.852527	-0.025252	-0.064143	-0.063628	-0.364502	-0.691409	-0.343782	0.520486
59845	-9.542006	1.443528	-1.885541	-0.005957	-0.053227	0.020219	-0.364641	-0.691385	-0.343679	0.520488
59846	-9.489027	1.457612	-1.893397	0.020230	-0.045376	-0.027559	-0.364742	-0.691387	-0.343544	0.520505
59847	-9.518259	1.476843	-1.878813	0.021785	-0.067567	0.000733	-0.364856	-0.691371	-0.343428	0.520523
59848	-9.519468	1.498037	-1.819393	0.010146	-0.126307	-0.006642	-0.365006	-0.691325	-0.343365	0.520520
59849	-9.447367	1.364555	-1.866311	-0.066520	-0.009042	-0.086776	-0.365153	-0.691321	-0.343300	0.520464
59850	-9.436351	1.530184	-1.826450	0.055472	-0.122851	-0.081093	-0.365540	-0.691191	-0.343430	0.520280
59851	-9.525952	1.342012	-1.890111	-0.097625	0.020436	-0.009253	-0.365681	-0.691235	-0.343378	0.520157
59852	-9.454882	1.427310	-1.947636	0.014796	0.035674	-0.054419	-0.366004	-0.691164	-0.343470	0.519964
59853	-9.514146	1.481853	-1.864465	0.005258	-0.067243	-0.005213	-0.366080	-0.691236	-0.343384	0.519872
59854	-9.514323	1.395420	-1.903775	-0.052895	0.011210	-0.010087	-0.366199	-0.691288	-0.343287	0.519782
59855	-9.478116	1.538916	-1.865428	0.056240	-0.089207	-0.031499	-0.366212	-0.691383	-0.343125	0.519753
59856	-9.434550	1.481819	-1.876188	0.019838	-0.046399	-0.080059	-0.366329	-0.691422	-0.343129	0.519617
59857	-9.516530	1.599262	-1.892886	0.106287	-0.098866	0.020112	-0.366404	-0.691473	-0.343115	0.519504
59858	-9.489151	1.483218	-1.901092	0.015194	-0.030854	-0.022034	-0.366513	-0.691484	-0.343184	0.519368
59859	-9.462050	1.505507	-1.934275	0.054213	-0.011302	-0.038472	-0.366595	-0.691481	-0.343274	0.519255
59860	-9.474599	1.441992	-1.900984	-0.019959	-0.010131	-0.042293	-0.366628	-0.691513	-0.343352	0.519137
59861	-9.468019	1.430180	-1.905944	-0.027626	-0.000356	-0.049458	-0.366671	-0.691531	-0.343413	0.519041
59862	-9.450619	1.410749	-1.927234	-0.031526	0.028019	-0.065028	-0.366639	-0.691603	-0.343448	0.518946
59863	-9.500211	1.503433	-1.926033	0.033832	-0.026297	-0.003401	-0.366631	-0.691669	-0.343486	0.518839
59864	-9.469256	1.439833	-1.944546	-0.006072	0.022938	-0.039222	-0.366666	-0.691690	-0.343592	0.518715
59865	-9.454527	1.457348	-1.984710	0.029673	0.048863	-0.042951	-0.366706	-0.691722	-0.343644	0.518610
59866	-9.525093	1.486417	-1.900067	-0.003195	-0.046443	0.013040	-0.366668	-0.691797	-0.343626	0.518549
59867	-9.458144	1.454431	-1.975380	0.018996	0.039999	-0.041709	-0.366700	-0.691827	-0.343651	0.518470
59868	-9.454252	1.479288	-1.932062	0.019112	-0.010168	-0.050333	-0.366726	-0.691864	-0.343695	0.518373
59869	-9.514661	1.441444	-1.956335	-0.017214	0.023084	0.007341	-0.366810	-0.691881	-0.343759	0.518248
59870	-9.463862	1.489969	-1.919414	0.016471	-0.029030	-0.041929	-0.366775	-0.691958	-0.343747	0.518178
59871	-9.509483	1.527926	-1.889056	0.022446	-0.079675	0.001920	-0.366890	-0.691943	-0.343885	0.518026
59872	-9.517008	1.500857	-1.922489	0.011676	-0.038524	0.011790	-0.367016	-0.691930	-0.343978	0.517892
59873	-9.470996	1.406164	-1.981491	-0.032474	0.064256	-0.035255	-0.367143	-0.691911	-0.344067	0.517767
59874	-9.478965	1.487287	-1.918064	0.003244	-0.031856	-0.027967	-0.367163	-0.691959	-0.344055	0.517698
59875	-9.458154	1.492680	-1.960538	0.030838	0.003940	-0.038869	-0.367273	-0.691961	-0.344096	0.517589
59876	-9.512282	1.472819	-1.974071	0.005903	0.020798	0.013257	-0.367421	-0.691940	-0.344150	0.517476
59877	-9.512256	1.445105	-1.987187	-0.013217	0.046837	0.011664	-0.367518	-0.691935	-0.344150	0.517414
59878	-9.419919	1.481999	-1.954834	0.022776	0.010521	-0.078626	-0.367529	-0.691983	-0.344053	0.517406
59879	-9.552430	1.551248	-1.874353	0.012100	-0.105148	0.044152	-0.367687	-0.691949	-0.344055	0.517339
59880	-9.485480	1.412261	-1.977065	-0.044304	0.060920	-0.021266	-0.367743	-0.691979	-0.343967	0.517316
59881	-9.461778	1.549377	-1.876639	0.029290	-0.090646	-0.043424	-0.367804	-0.691992	-0.343926	0.517283
59882	-9.466908	1.485724	-1.890472	-0.021225	-0.047035	-0.045347	-0.367774	-0.692080	-0.343832	0.517249
59883	-9.440555	1.556397	-1.919706	0.057315	-0.054947	-0.054336	-0.367842	-0.692085	-0.343880	0.517163
59884	-9.478934	1.563155	-1.882451	0.035471	-0.094510	-0.023557	-0.367845	-0.692127	-0.343875	0.517108
59885	-9.479603	1.474106	-1.923292	-0.022801	-0.016053	-0.028305	-0.367819	-0.692194	-0.343903	0.517017
59886	-9.494526	1.477758	-1.963163	-0.005632	0.013969	-0.005365	-0.367920	-0.692163	-0.344012	0.516916
59887	-9.488871	1.514052	-1.964596	0.026322	-0.003680	-0.005039	-0.367807	-0.692268	-0.343993	0.516868
59888	-9.404661	1.491315	-2.046034	0.063448	0.084990	-0.073761	-0.367992	-0.692182	-0.344183	0.516724
59889	-9.457910	1.451013	-1.983615	-0.013198	0.045568	-0.040790	-0.367903	-0.692255	-0.344148	0.516713
59890	-9.431847	1.519295	-1.946331	0.033205	-0.019777	-0.063087	-0.367749	-0.692350	-0.344086	0.516736
59891	-9.480989	1.532380	-1.960911	0.039800	-0.020386	-0.010620	-0.367704	-0.692380	-0.344128	0.516700
59892	-9.551370	1.482403	-1.959414	-0.019855	-0.004589	0.049618	-0.367727	-0.692365	-0.344182	0.516668
59893	-9.472462	1.452866	-1.960002	-0.026413	0.017820	-0.031125	-0.367576	-0.692447	-0.344070	0.516740
59894	-9.456410	1.589235	-1.946804	0.087554	-0.061096	-0.028618	-0.367527	-0.692468	-0.344072	0.516746
59895	-9.462670	1.463816	-1.986496	-0.002043	0.034955	-0.033637	-0.367614	-0.692413	-0.344169	0.516693
59896	-9.460083	1.427385	-1.967777	-0.041262	0.037262	-0.045413	-0.367531	-0.692462	-0.344093	0.516737
59897	-9.490627	1.570541	-1.935195	0.058727	-0.066024	-0.000666	-0.367414	-0.692518	-0.344004	0.516805
59898	-9.517879	1.520076	-1.916238	0.001194	-0.059552	0.014269	-0.367490	-0.692444	-0.344067	0.516808
59899	-9.478253	1.466566	-1.957332	-0.015143	0.007109	-0.023972	-0.367528	-0.692389	-0.344126	0.516815
59900	-9.483099	1.461216	-1.944226	-0.026367	-0.001647	-0.022711	-0.367489	-0.692394	-0.344087	0.516862
59901	-9.458587	1.548322	-1.914652	0.039907	-0.068244	-0.039162	-0.367537	-0.692362	-0.344155	0.516825
59902	-9.473618	1.472351	-1.902747	-0.034004	-0.042058	-0.038498	-0.367583	-0.692336	-0.344221	0.516783
59903	-9.469516	1.526426	-1.912559	0.017691	-0.060843	-0.032321	-0.367530	-0.692362	-0.344236	0.516777
59904	-9.505944	1.573762	-1.906921	0.047262	-0.094266	0.008969	-0.367538	-0.692336	-0.344353	0.516728
59905	-9.507032	1.483442	-1.946652	-0.010906	-0.015897	0.004305	-0.367593	-0.692281	-0.344485	0.516675
59906	-9.415710	1.457651	-1.940845	-0.014230	0.000185	-0.089158	-0.367545	-0.692289	-0.344547	0.516657
59907	-9.475022	1.538006	-1.912980	0.027923	-0.071468	-0.025190	-0.367515	-0.692294	-0.344641	0.516608
59908	-9.440127	1.448374	-1.956922	-0.019854	0.012764	-0.063699	-0.367519	-0.692288	-0.344787	0.516517
59909	-9.468799	1.494006	-1.932908	0.001329	-0.035608	-0.033881	-0.367455	-0.692303	-0.344878	0.516482
59910	-9.429628	1.487842	-1.972985	0.024192	0.003645	-0.064681	-0.367377	-0.692337	-0.344949	0.516444
59911	-9.497317	1.509037	-1.990980	0.035524	-0.000655	0.007647	-0.367298	-0.692355	-0.345044	0.516411
59912	-9.485784	1.422246	-2.025064	-0.019343	0.071433	-0.009714	-0.367239	-0.692368	-0.345082	0.516411
59913	-9.492595	1.511991	-1.939351	0.016204	-0.049704	-0.006882	-0.367015	-0.692470	-0.345001	0.516487
59914	-9.475300	1.520432	-1.946720	0.031733	-0.047512	-0.020880	-0.366966	-0.692462	-0.345046	0.516503
59915	-9.456747	1.510412	-1.944764	0.027454	-0.044125	-0.040748	-0.366813	-0.692518	-0.345074	0.516518
59916	-9.469121	1.504546	-1.952913	0.024606	-0.037900	-0.028019	-0.366716	-0.692519	-0.345163	0.516527
59917	-9.463060	1.489540	-1.957801	0.016974	-0.028164	-0.035155	-0.366530	-0.692566	-0.345208	0.516565
59918	-9.499756	1.534601	-1.953028	0.046390	-0.061443	0.006109	-0.366412	-0.692563	-0.345329	0.516572
59919	-9.470213	1.407314	-1.996706	-0.032833	0.040383	-0.032627	-0.366327	-0.692526	-0.345470	0.516588
59920	-9.466433	1.458520	-2.007406	0.018859	0.021450	-0.026498	-0.366056	-0.692613	-0.345446	0.516679
59921	-9.474214	1.486454	-1.948486	0.015210	-0.047281	-0.026758	-0.365835	-0.692666	-0.345473	0.516746
59922	-9.463741	1.445956	-1.979125	-0.000292	-0.002684	-0.036691	-0.365626	-0.692699	-0.345515	0.516822
59923	-9.461753	1.514363	-1.932640	0.039171	-0.080216	-0.037965	-0.365300	-0.692795	-0.345493	0.516939
59924	-9.503599	1.493078	-2.008364	0.050038	-0.012360	0.014751	-0.365085	-0.692806	-0.345545	0.517041
59925	-9.483904	1.492367	-1.983727	0.045649	-0.034010	-0.009447	-0.364869	-0.692798	-0.345626	0.517150
59926	-9.442720	1.446268	-2.003955	0.028840	0.007735	-0.051970	-0.364675	-0.692774	-0.345754	0.517234
59927	-9.455588	1.437991	-2.011272	0.026018	0.013947	-0.039238	-0.364492	-0.692738	-0.345856	0.517343
59928	-9.526185	1.413759	-1.996763	-0.013939	0.003455	0.022645	-0.364337	-0.692701	-0.346019	0.517392
59929	-9.447711	1.380856	-1.996902	-0.020672	0.026024	-0.058072	-0.364221	-0.692628	-0.346139	0.517491
59930	-9.432234	1.405312	-2.013075	0.014684	0.026945	-0.066228	-0.364043	-0.692612	-0.346251	0.517564
59931	-9.493265	1.392437	-2.023332	-0.001869	0.033859	-0.006889	-0.363953	-0.692533	-0.346347	0.517668
59932	-9.470707	1.356533	-2.044727	-0.013970	0.072124	-0.029539	-0.363878	-0.692462	-0.346390	0.517787
59933	-9.494827	1.327742	-2.046632	-0.040036	0.086081	-0.009916	-0.363809	-0.692404	-0.346354	0.517938
59934	-9.470355	1.394795	-2.005550	0.006364	0.020634	-0.032359	-0.363693	-0.692357	-0.346258	0.518145
59935	-9.462160	1.373672	-1.974254	-0.021229	0.006520	-0.049664	-0.363636	-0.692278	-0.346218	0.518317
59936	-9.475060	1.398521	-1.965351	-0.004489	-0.013515	-0.035417	-0.363587	-0.692234	-0.346130	0.518469
59937	-9.530226	1.405451	-1.896356	-0.041569	-0.080463	0.005075	-0.363573	-0.692182	-0.346086	0.518578
59938	-9.470025	1.414871	-1.884598	-0.024007	-0.087583	-0.054271	-0.363567	-0.692135	-0.346046	0.518672
59939	-9.460753	1.425583	-1.908819	-0.000017	-0.070409	-0.056829	-0.363587	-0.692081	-0.346082	0.518705
59940	-9.496578	1.424317	-1.905546	-0.009816	-0.076281	-0.022955	-0.363560	-0.692074	-0.346110	0.518715
59941	-9.448736	1.369305	-1.928224	-0.034775	-0.024728	-0.072572	-0.363597	-0.692033	-0.346215	0.518675
59942	-9.502808	1.377194	-1.929302	-0.039835	-0.034117	-0.018838	-0.363607	-0.692050	-0.346265	0.518611
59943	-9.486629	1.405740	-1.946331	-0.004477	-0.033236	-0.027018	-0.363594	-0.692071	-0.346309	0.518562
59944	-9.449020	1.358996	-2.021138	-0.001075	0.057311	-0.054995	-0.363624	-0.692069	-0.346407	0.518479
59945	-9.464182	1.391567	-1.980819	0.003701	0.003649	-0.043817	-0.363571	-0.692120	-0.346387	0.518461
59946	-9.488891	1.353823	-2.007584	-0.021978	0.042444	-0.019833	-0.363600	-0.692131	-0.346397	0.518420
59947	-9.501022	1.350922	-2.014518	-0.024763	0.048588	-0.007091	-0.363592	-0.692172	-0.346338	0.518410
59948	-9.508183	1.443615	-1.928336	0.010812	-0.072605	-0.004392	-0.363590	-0.692219	-0.346280	0.518387
59949	-9.439846	1.363825	-2.005058	-0.006689	0.041186	-0.066446	-0.363701	-0.692190	-0.346297	0.518337
59950	-9.502808	1.452767	-1.941181	0.023592	-0.064277	-0.005680	-0.363702	-0.692243	-0.346226	0.518312
59951	-9.473179	1.408504	-1.967284	0.003430	-0.016131	-0.035421	-0.363775	-0.692255	-0.346220	0.518249
59952	-9.528847	1.436282	-1.910117	-0.013836	-0.084203	0.010912	-0.363867	-0.692247	-0.346216	0.518198
59953	-9.452608	1.385504	-1.955132	-0.020131	-0.011668	-0.061102	-0.363882	-0.692298	-0.346184	0.518141
59954	-9.476401	1.469075	-1.929966	0.032560	-0.077738	-0.031173	-0.363978	-0.692277	-0.346235	0.518067
59955	-9.459393	1.390274	-1.975891	-0.010571	0.002997	-0.049645	-0.363994	-0.692333	-0.346229	0.517986
59956	-9.472362	1.436263	-1.980230	0.025870	-0.018142	-0.029600	-0.364042	-0.692368	-0.346228	0.517906
59957	-9.483262	1.385203	-1.991170	-0.016396	0.015650	-0.024159	-0.364057	-0.692406	-0.346207	0.517858
59958	-9.490239	1.418027	-1.998337	0.011979	0.004386	-0.011227	-0.364037	-0.692475	-0.346124	0.517836
59959	-9.495909	1.432926	-1.995725	0.020692	-0.005674	-0.004119	-0.364072	-0.692518	-0.346055	0.517799
59960	-9.477311	1.396596	-2.005190	-0.003143	0.023878	-0.025445	-0.364146	-0.692529	-0.345965	0.517793
59961	-9.468885	1.457851	-1.959904	0.028088	-0.043708	-0.033954	-0.364149	-0.692589	-0.345866	0.517777
59962	-9.478674	1.388774	-1.960560	-0.034075	-0.008920	-0.034318	-0.364179	-0.692621	-0.345804	0.517755
59963	-9.457258	1.454044	-1.976649	0.032713	-0.025513	-0.042355	-0.364110	-0.692717	-0.345680	0.517757
59964	-9.485947	1.502036	-1.951912	0.053989	-0.073973	-0.012643	-0.364152	-0.692745	-0.345659	0.517705
59965	-9.493971	1.414650	-2.010671	0.004222	0.019497	-0.005592	-0.364165	-0.692781	-0.345646	0.517655
59966	-9.489251	1.421312	-1.956993	-0.015658	-0.029518	-0.020102	-0.364111	-0.692862	-0.345523	0.517667
59967	-9.463767	1.461066	-1.931827	0.011017	-0.068731	-0.044130	-0.364037	-0.692941	-0.345433	0.517673
59968	-9.461876	1.473609	-1.910512	0.011368	-0.093793	-0.048480	-0.363957	-0.693016	-0.345359	0.517679
59969	-9.456869	1.449424	-1.938104	0.004036	-0.059013	-0.051235	-0.363844	-0.693121	-0.345332	0.517635
59970	-9.445098	1.471760	-1.944172	0.027767	-0.066812	-0.058174	-0.363678	-0.693235	-0.345351	0.517587
59971	-9.536728	1.544810	-1.951129	0.071776	-0.110734	0.042520	-0.363631	-0.693276	-0.345496	0.517468
59972	-9.395341	1.366292	-1.976775	-0.036279	0.012046	-0.114988	-0.363389	-0.693414	-0.345549	0.517418
59973	-9.481769	1.473576	-1.984997	0.039111	-0.049380	-0.014136	-0.363197	-0.693528	-0.345669	0.517320
59974	-9.455174	1.371781	-2.072616	-0.000170	0.074891	-0.036582	-0.363034	-0.693614	-0.345793	0.517237
59975	-9.512564	1.492999	-2.013359	0.061489	-0.048114	0.024255	-0.362845	-0.693742	-0.345894	0.517130
59976	-9.492528	1.344653	-2.122484	-0.008915	0.118780	0.006016	-0.362892	-0.693697	-0.346110	0.517012
59977	-9.499481	1.465220	-2.025371	0.046234	-0.028646	0.010051	-0.362738	-0.693782	-0.346140	0.516986
59978	-9.446779	1.384754	-2.075144	0.013273	0.057946	-0.042229	-0.362797	-0.693734	-0.346336	0.516878
59979	-9.431200	1.412327	-2.025122	0.016673	0.001312	-0.063685	-0.362801	-0.693725	-0.346447	0.516813
59980	-9.460842	1.368408	-2.039449	-0.020748	0.031526	-0.038333	-0.362879	-0.693671	-0.346602	0.516728
59981	-9.484246	1.341695	-2.043710	-0.046735	0.045404	-0.018630	-0.362867	-0.693667	-0.346644	0.516713
59982	-9.446019	1.474893	-1.973251	0.042039	-0.078686	-0.051112	-0.362855	-0.693682	-0.346682	0.516676
59983	-9.503857	1.429528	-1.965199	-0.013994	-0.069313	-0.003311	-0.363046	-0.693586	-0.346880	0.516537
59984	-9.491785	1.344712	-1.997972	-0.068840	0.002761	-0.020375	-0.363109	-0.693572	-0.346951	0.516463
59985	-9.471750	1.397574	-2.036797	-0.001777	0.011127	-0.024139	-0.363125	-0.693591	-0.346988	0.516401
59986	-9.440243	1.424348	-2.015020	0.016897	-0.018120	-0.055298	-0.363159	-0.693613	-0.347011	0.516334
59987	-9.471168	1.370483	-2.051382	-0.020237	0.036967	-0.025572	-0.363326	-0.693560	-0.347113	0.516219
59988	-9.450907	1.375462	-2.025801	-0.024651	0.015397	-0.049770	-0.363364	-0.693578	-0.347092	0.516182
59989	-9.479756	1.423694	-2.000792	-0.003306	-0.033049	-0.020102	-0.363466	-0.693575	-0.347123	0.516093
59990	-9.457423	1.411314	-2.032632	0.004450	0.003993	-0.036890	-0.363650	-0.693533	-0.347164	0.515992
59991	-9.463343	1.397176	-2.042164	-0.006636	0.020151	-0.031228	-0.363813	-0.693515	-0.347189	0.515884
59992	-9.432035	1.395600	-2.032184	-0.007644	0.017191	-0.063821	-0.363946	-0.693515	-0.347175	0.515801
59993	-9.488789	1.472595	-1.971755	0.014667	-0.078348	-0.010284	-0.364045	-0.693529	-0.347157	0.515724
59994	-9.491499	1.421943	-2.029697	-0.003913	-0.002257	-0.002992	-0.364244	-0.693475	-0.347227	0.515609
59995	-9.496953	1.467401	-2.013421	0.024396	-0.038523	0.005518	-0.364267	-0.693516	-0.347154	0.515585
59996	-9.457391	1.464430	-2.051282	0.047242	0.000799	-0.025332	-0.364443	-0.693462	-0.347219	0.515491
59997	-9.408017	1.423252	-2.050814	0.021785	0.027409	-0.079186	-0.364464	-0.693496	-0.347150	0.515476
59998	-9.449036	1.497083	-2.018832	0.059430	-0.040846	-0.035365	-0.364491	-0.693514	-0.347111	0.515460
59999	-9.497575	1.433394	-2.048531	0.007275	0.012070	0.008454	-0.364577	-0.693476	-0.347135	0.515434
60000	-9.444821	1.414910	-2.069547	0.013405	0.046336	-0.040926	-0.364619	-0.693439	-0.347105	0.515474
60001	-9.492244	1.500760	-2.033265	0.059183	-0.031985	0.009971	-0.364595	-0.693447	-0.347031	0.515529
60002	-9.476261	1.391343	-2.089969	-0.003647	0.074959	-0.009744	-0.364704	-0.693377	-0.346995	0.515572
60003	-9.437950	1.416426	-2.045387	0.006639	0.030669	-0.052371	-0.364643	-0.693368	-0.346823	0.515743
60004	-9.445371	1.478130	-2.036058	0.054721	-0.006783	-0.038108	-0.364614	-0.693340	-0.346669	0.515905
60005	-9.448455	1.436220	-2.001655	0.003811	-0.013142	-0.048340	-0.364672	-0.693246	-0.346633	0.516014
60006	-9.462084	1.431814	-1.938584	-0.031085	-0.064340	-0.048768	-0.364657	-0.693212	-0.346535	0.516137
60007	-9.472367	1.470124	-1.974690	0.017578	-0.051851	-0.025788	-0.364715	-0.693128	-0.346543	0.516201
60008	-9.463566	1.421085	-2.024556	0.002531	0.017815	-0.031221	-0.364690	-0.693106	-0.346491	0.516284
60009	-9.460243	1.504626	-1.951927	0.041764	-0.084662	-0.037146	-0.364728	-0.693028	-0.346473	0.516375
60010	-9.507159	1.511564	-1.931781	0.028457	-0.109247	0.005150	-0.364816	-0.692958	-0.346563	0.516346
60011	-9.502276	1.409017	-1.972797	-0.038019	-0.020891	-0.006128	-0.365011	-0.692803	-0.346725	0.516307
60012	-9.449093	1.449974	-1.967480	0.007379	-0.039037	-0.052709	-0.365080	-0.692737	-0.346801	0.516296
60013	-9.449423	1.420407	-1.980171	-0.011696	-0.013009	-0.054106	-0.365176	-0.692673	-0.346907	0.516242
60014	-9.453922	1.445339	-1.954355	-0.003291	-0.048076	-0.051395	-0.365248	-0.692607	-0.347038	0.516192
60015	-9.510400	1.490665	-1.973820	0.031532	-0.059945	0.013866	-0.365412	-0.692523	-0.347210	0.516073
60016	-9.457587	1.333595	-2.038995	-0.060600	0.080303	-0.046838	-0.365520	-0.692466	-0.347332	0.515991
60017	-9.435829	1.487118	-1.948131	0.032734	-0.072438	-0.064083	-0.365548	-0.692450	-0.347409	0.515940
60018	-9.476513	1.451371	-1.946576	-0.008318	-0.060930	-0.030247	-0.365638	-0.692419	-0.347542	0.515829
60019	-9.465223	1.444870	-1.963607	-0.004273	-0.042462	-0.038639	-0.365771	-0.692367	-0.347725	0.515681
60020	-9.508775	1.386118	-2.007594	-0.044765	0.019081	0.003941	-0.365814	-0.692358	-0.347836	0.515587
60021	-9.469474	1.489984	-2.016914	0.056538	-0.021444	-0.017011	-0.365867	-0.692353	-0.347937	0.515488
60022	-9.469715	1.430733	-2.044452	0.017954	0.030755	-0.019781	-0.365911	-0.692341	-0.348040	0.515404
60023	-9.480370	1.438811	-2.029333	0.014825	0.012115	-0.011391	-0.365916	-0.692352	-0.348044	0.515383
60024	-9.432014	1.444521	-2.025857	0.028738	0.011405	-0.058065	-0.365970	-0.692330	-0.348091	0.515343
60025	-9.527967	1.465053	-2.020352	0.021924	-0.013867	0.036662	-0.365957	-0.692324	-0.348097	0.515356
60026	-9.475276	1.445915	-2.041849	0.028123	0.020230	-0.012714	-0.366021	-0.692259	-0.348143	0.515366
60027	-9.504792	1.462431	-2.028427	0.029835	-0.002129	0.015506	-0.365965	-0.692275	-0.348076	0.515429
60028	-9.465628	1.487262	-2.051779	0.072081	0.011080	-0.013986	-0.365968	-0.692216	-0.347998	0.515559
60029	-9.415326	1.485174	-2.013731	0.065880	-0.013385	-0.070783	-0.365977	-0.692143	-0.347971	0.515669
60030	-9.451990	1.453646	-2.021865	0.036730	0.006807	-0.038244	-0.365993	-0.692038	-0.348011	0.515772
60031	-9.445439	1.421600	-2.013109	0.009192	0.017766	-0.051055	-0.366093	-0.691890	-0.348070	0.515859
60032	-9.414356	1.368200	-2.004152	-0.031356	0.042211	-0.090757	-0.366226	-0.691730	-0.348182	0.515904
60033	-9.397067	1.358012	-1.931646	-0.067759	-0.011926	-0.123746	-0.366224	-0.691655	-0.348210	0.515988
60034	-9.513891	1.432992	-1.790812	-0.094541	-0.183033	-0.028406	-0.366175	-0.691674	-0.348234	0.515981
60035	-9.541864	1.430922	-1.769809	-0.112535	-0.204047	-0.005923	-0.366218	-0.691661	-0.348335	0.515899
60036	-9.506756	1.450643	-1.784527	-0.082023	-0.199650	-0.034102	-0.366175	-0.691741	-0.348453	0.515744
60037	-9.459028	1.385338	-1.901574	-0.074783	-0.065614	-0.065972	-0.366010	-0.691926	-0.348503	0.515578
60038	-9.441218	1.385053	-2.002934	-0.026789	0.018953	-0.062526	-0.365952	-0.692070	-0.348616	0.515350
60039	-9.468791	1.372818	-2.076434	-0.012401	0.080395	-0.022509	-0.365702	-0.692319	-0.348563	0.515228
60040	-9.489656	1.407374	-2.126962	0.032996	0.099244	0.013161	-0.365478	-0.692563	-0.348488	0.515110
60041	-9.392800	1.358500	-2.149700	0.021168	0.150367	-0.082921	-0.365371	-0.692718	-0.348370	0.515058
60042	-9.436069	1.359775	-2.101960	-0.012247	0.102057	-0.050718	-0.365125	-0.692970	-0.348089	0.515084
60043	-9.535589	1.436301	-2.060083	0.008364	0.015623	0.048046	-0.364974	-0.693165	-0.347824	0.515107
60044	-9.521669	1.394708	-2.058574	-0.027236	0.036532	0.028199	-0.364876	-0.693338	-0.347547	0.515130
60045	-9.418599	1.394921	-2.054925	-0.008090	0.045091	-0.072234	-0.364823	-0.693496	-0.347279	0.515135
60046	-9.448096	1.463237	-2.039282	0.033089	-0.004663	-0.036945	-0.364733	-0.693678	-0.346942	0.515182
60047	-9.453555	1.479488	-2.036292	0.041619	-0.014770	-0.029890	-0.364650	-0.693828	-0.346640	0.515241
60048	-9.511361	1.545528	-1.998369	0.064383	-0.085330	0.027877	-0.364635	-0.693949	-0.346402	0.515249
60049	-9.474812	1.470901	-2.017552	0.016028	-0.026066	-0.014463	-0.364609	-0.694035	-0.346181	0.515300
60050	-9.426291	1.478036	-2.013557	0.029800	-0.026766	-0.061156	-0.364514	-0.694157	-0.345953	0.515356
60051	-9.441842	1.481779	-1.985222	0.015062	-0.054140	-0.051438	-0.364388	-0.694271	-0.345722	0.515447
60052	-9.444135	1.489840	-2.017470	0.035808	-0.030541	-0.041338	-0.364298	-0.694364	-0.345551	0.515499
60053	-9.484533	1.485268	-2.002350	0.014475	-0.045284	-0.006081	-0.364271	-0.694424	-0.345444	0.515511
60054	-9.490341	1.440074	-2.091996	0.016092	0.054569	0.011446	-0.364248	-0.694467	-0.345298	0.515566
60055	-9.458900	1.466831	-2.068791	0.034555	0.025401	-0.019811	-0.364136	-0.694572	-0.345080	0.515649
60056	-9.430450	1.529826	-1.997430	0.060877	-0.063746	-0.052784	-0.364090	-0.694605	-0.344938	0.515733
60057	-9.441316	1.538339	-1.981069	0.057848	-0.082509	-0.044401	-0.364080	-0.694610	-0.344907	0.515753
60058	-9.433644	1.458790	-1.978140	-0.009105	-0.044065	-0.064215	-0.364078	-0.694589	-0.344950	0.515754
60059	-9.477515	1.507544	-1.991469	0.029210	-0.062471	-0.011812	-0.364020	-0.694590	-0.344968	0.515782
60060	-9.484117	1.429870	-2.094343	0.011286	0.063556	0.004395	-0.363934	-0.694597	-0.344940	0.515852
60061	-9.466987	1.438760	-2.099872	0.026916	0.065684	-0.009714	-0.363916	-0.694552	-0.344937	0.515929
60062	-9.465175	1.401508	-2.079795	-0.012232	0.068029	-0.021133	-0.363853	-0.694534	-0.344891	0.516027
60063	-9.441299	1.457683	-2.061883	0.034257	0.027737	-0.039644	-0.363828	-0.694488	-0.344836	0.516144
60064	-9.427512	1.443651	-2.110640	0.050352	0.079794	-0.044985	-0.363850	-0.694420	-0.344765	0.516266
60065	-9.502771	1.557311	-2.037702	0.097362	-0.045611	0.029494	-0.363863	-0.694321	-0.344710	0.516427
60066	-9.467346	1.509325	-2.039631	0.068495	-0.012425	-0.011466	-0.364059	-0.694095	-0.344772	0.516551
60067	-9.479967	1.516294	-1.952131	0.033331	-0.088633	-0.016220	-0.364186	-0.693903	-0.344873	0.516652
60068	-9.449962	1.432278	-1.954360	-0.026771	-0.038038	-0.057148	-0.364403	-0.693639	-0.345050	0.516736
60069	-9.411324	1.455578	-1.975742	0.015407	-0.024966	-0.086721	-0.364428	-0.693504	-0.345127	0.516848
60070	-9.559105	1.506137	-1.923131	0.003069	-0.109645	0.052977	-0.364444	-0.693376	-0.345182	0.516972
60071	-9.497085	1.525653	-1.954571	0.052043	-0.084288	0.002239	-0.364566	-0.693173	-0.345341	0.517051
60072	-9.451090	1.438767	-1.987014	0.007129	-0.006359	-0.048401	-0.364637	-0.693016	-0.345483	0.517117
60073	-9.435669	1.464844	-2.000278	0.042561	-0.005419	-0.056823	-0.364658	-0.692861	-0.345600	0.517232
60074	-9.504836	1.455090	-2.026783	0.035078	0.016392	0.014089	-0.364723	-0.692667	-0.345731	0.517359
60075	-9.476364	1.357949	-2.052558	-0.024792	0.092089	-0.022416	-0.364718	-0.692505	-0.345791	0.517539
60076	-9.482451	1.537510	-1.989666	0.101757	-0.050271	-0.003166	-0.364814	-0.692284	-0.345872	0.517713
60077	-9.521795	1.443788	-1.887082	-0.030983	-0.092458	0.000604	-0.364854	-0.692104	-0.345922	0.517892
60078	-9.429394	1.349483	-1.937710	-0.062262	0.009996	-0.092332	-0.364833	-0.691956	-0.345965	0.518074
60079	-9.470765	1.449013	-1.889943	-0.004745	-0.084674	-0.047457	-0.364684	-0.691883	-0.345973	0.518272
60080	-9.474838	1.422335	-1.933123	-0.003594	-0.034839	-0.038674	-0.364509	-0.691824	-0.345953	0.518487
60081	-9.477282	1.407129	-1.954082	-0.002734	-0.010005	-0.034282	-0.364321	-0.691777	-0.345946	0.518687
60082	-9.482049	1.428757	-1.994186	0.037798	0.012444	-0.018516	-0.364158	-0.691726	-0.345937	0.518875
60083	-9.488444	1.498341	-1.896312	0.053420	-0.107438	-0.022019	-0.364046	-0.691649	-0.345951	0.519047
60084	-9.441903	1.331405	-1.946533	-0.050593	0.024209	-0.080883	-0.363905	-0.691576	-0.345983	0.519221
60085	-9.446245	1.412326	-1.894073	-0.002977	-0.063369	-0.075660	-0.363599	-0.691593	-0.345932	0.519448
60086	-9.491422	1.456844	-1.839803	0.003273	-0.139215	-0.036442	-0.363383	-0.691585	-0.345964	0.519588
60087	-9.534029	1.405259	-1.927310	-0.005052	-0.045145	0.015076	-0.363141	-0.691594	-0.346014	0.519712
60088	-9.491097	1.371243	-1.991629	0.009665	0.029138	-0.018461	-0.363007	-0.691531	-0.346125	0.519816
60089	-9.482392	1.377664	-1.950285	0.001420	-0.011068	-0.034283	-0.362682	-0.691571	-0.346096	0.520010
60090	-9.451210	1.399303	-1.995333	0.051992	0.017138	-0.052474	-0.362491	-0.691549	-0.346163	0.520126
60091	-9.480163	1.363403	-1.986211	0.014378	0.022295	-0.031241	-0.362311	-0.691514	-0.346227	0.520255
60092	-9.520984	1.245163	-1.999278	-0.085535	0.087403	-0.005459	-0.362181	-0.691468	-0.346275	0.520376
60093	-9.525318	1.297392	-2.027011	-0.025398	0.083455	0.011572	-0.361986	-0.691462	-0.346206	0.520565
60094	-9.461137	1.418566	-1.932179	0.049804	-0.052133	-0.052894	-0.361874	-0.691438	-0.346108	0.520741
60095	-9.490741	1.324805	-1.946840	-0.026876	0.005476	-0.034205	-0.361824	-0.691377	-0.346101	0.520860
60096	-9.507498	1.404533	-1.900283	0.017576	-0.075726	-0.016246	-0.361867	-0.691265	-0.346183	0.520925
60097	-9.483704	1.351950	-1.911395	-0.014500	-0.036127	-0.044355	-0.361876	-0.691183	-0.346220	0.521003
60098	-9.432353	1.379663	-1.929385	0.030930	-0.029365	-0.086770	-0.361807	-0.691147	-0.346267	0.521067
60099	-9.502768	1.358237	-1.913627	-0.008548	-0.039867	-0.024546	-0.361816	-0.691086	-0.346369	0.521074
60100	-9.484133	1.348506	-1.977409	0.019384	0.020924	-0.031246	-0.361740	-0.691057	-0.346408	0.521139
60101	-9.516603	1.370396	-1.996224	0.041524	0.022327	0.007008	-0.361796	-0.690970	-0.346517	0.521144
60102	-9.474463	1.279154	-2.017463	-0.015089	0.091601	-0.042159	-0.361785	-0.690896	-0.346538	0.521235
60103	-9.504024	1.324706	-1.990031	0.006434	0.042942	-0.012705	-0.361724	-0.690855	-0.346463	0.521382
60104	-9.504506	1.354160	-1.907872	-0.005624	-0.040882	-0.024549	-0.361679	-0.690817	-0.346366	0.521527
60105	-9.548709	1.324330	-1.934477	-0.026225	-0.005642	0.019564	-0.361672	-0.690775	-0.346253	0.521662
60106	-9.531442	1.364724	-1.992248	0.041039	0.027643	0.019782	-0.361680	-0.690722	-0.346132	0.521808
60107	-9.510630	1.350330	-1.953417	0.016421	0.007214	-0.010086	-0.361756	-0.690626	-0.346009	0.521964
60108	-9.499788	1.264813	-1.982142	-0.038602	0.079327	-0.026635	-0.361617	-0.690665	-0.345741	0.522186
60109	-9.500681	1.374569	-1.949498	0.040674	-0.000856	-0.017216	-0.361760	-0.690536	-0.345628	0.522332
60110	-9.490695	1.368279	-1.893961	0.012538	-0.039841	-0.038701	-0.361698	-0.690525	-0.345358	0.522568
60111	-9.504153	1.335412	-1.909014	-0.009723	-0.007411	-0.027166	-0.361859	-0.690404	-0.345255	0.522685
60112	-9.536300	1.420358	-1.831249	0.019425	-0.115777	0.000473	-0.361956	-0.690315	-0.345131	0.522817
60113	-9.484970	1.342520	-1.875443	-0.013799	-0.029012	-0.051373	-0.362134	-0.690208	-0.345051	0.522888
60114	-9.461672	1.371717	-1.868668	0.013116	-0.043221	-0.071295	-0.362318	-0.690094	-0.345024	0.522928
60115	-9.485640	1.347512	-1.935752	0.019518	0.027999	-0.038276	-0.362561	-0.689957	-0.345051	0.522923
60116	-9.528074	1.440433	-1.843113	0.045066	-0.099113	-0.002272	-0.362716	-0.689867	-0.345028	0.522949
60117	-9.488257	1.310431	-1.897966	-0.030941	0.021501	-0.048206	-0.363061	-0.689678	-0.345142	0.522884
60118	-9.486210	1.354833	-1.860255	-0.011120	-0.029782	-0.051372	-0.363197	-0.689613	-0.345143	0.522874
60119	-9.448241	1.399598	-1.826956	0.018697	-0.075209	-0.088497	-0.363420	-0.689510	-0.345267	0.522774
60120	-9.540192	1.366900	-1.858427	-0.015161	-0.039533	0.002385	-0.363619	-0.689433	-0.345409	0.522643
60121	-9.520582	1.420260	-1.829037	0.019705	-0.088608	-0.014945	-0.363844	-0.689314	-0.345587	0.522526
60122	-9.487816	1.320959	-1.892866	-0.028197	0.020686	-0.048196	-0.364022	-0.689233	-0.345697	0.522436
60123	-9.450974	1.383355	-1.870245	0.021464	-0.026069	-0.079689	-0.364027	-0.689253	-0.345705	0.522401
60124	-9.506661	1.380168	-1.893629	0.017300	-0.010591	-0.021524	-0.364016	-0.689271	-0.345752	0.522353
60125	-9.559318	1.370737	-1.952385	0.025167	0.038505	0.039682	-0.364023	-0.689295	-0.345772	0.522305
60126	-9.539262	1.452878	-1.910794	0.079457	-0.036730	0.023564	-0.364017	-0.689290	-0.345755	0.522325
60127	-9.475191	1.377593	-1.884999	0.017236	-0.013710	-0.054115	-0.364110	-0.689224	-0.345783	0.522330
60128	-9.495026	1.405394	-1.896902	0.042615	-0.018803	-0.028684	-0.364136	-0.689192	-0.345829	0.522323
60129	-9.486051	1.385973	-1.867752	0.014801	-0.032748	-0.045738	-0.364205	-0.689116	-0.345913	0.522321
60130	-9.492579	1.368931	-1.877117	0.003927	-0.016547	-0.039954	-0.364276	-0.689051	-0.346037	0.522273
60131	-9.549350	1.413333	-1.828672	0.006988	-0.086008	0.011985	-0.364402	-0.688952	-0.346195	0.522212
60132	-9.472850	1.342965	-1.931038	0.012365	0.045475	-0.052302	-0.364583	-0.688830	-0.346384	0.522122
60133	-9.495214	1.406462	-1.895169	0.045208	-0.019388	-0.028696	-0.364571	-0.688800	-0.346448	0.522127
60134	-9.465998	1.389916	-1.908110	0.044303	0.002610	-0.056874	-0.364666	-0.688716	-0.346603	0.522069
60135	-9.511255	1.377694	-1.879392	0.011515	-0.020775	-0.020162	-0.364699	-0.688636	-0.346753	0.522051
60136	-9.505754	1.333902	-1.895926	-0.015736	0.015262	-0.028378	-0.364692	-0.688600	-0.346837	0.522048
60137	-9.519177	1.377250	-1.898990	0.021098	-0.005889	-0.008748	-0.364647	-0.688570	-0.346898	0.522079
60138	-9.543015	1.349366	-1.902412	-0.004499	0.007943	0.011213	-0.364571	-0.688547	-0.346913	0.522152
60139	-9.490321	1.358769	-1.911491	0.021003	0.016005	-0.036924	-0.364505	-0.688516	-0.346911	0.522240
60140	-9.492310	1.345686	-1.933697	0.021935	0.040857	-0.032510	-0.364306	-0.688563	-0.346818	0.522379
60141	-9.515054	1.407522	-1.897344	0.054946	-0.024060	-0.008929	-0.364237	-0.688512	-0.346802	0.522504
60142	-9.485319	1.341553	-1.912724	0.014597	0.025420	-0.043926	-0.364130	-0.688503	-0.346755	0.522622
60143	-9.517595	1.392590	-1.850364	0.024153	-0.056915	-0.017589	-0.364063	-0.688438	-0.346763	0.522749
60144	-9.529632	1.338857	-1.858898	-0.017945	-0.023174	-0.011613	-0.364107	-0.688347	-0.346837	0.522789
60145	-9.484012	1.301526	-1.889508	-0.023472	0.027423	-0.055157	-0.364145	-0.688234	-0.346893	0.522874
60146	-9.512978	1.268812	-1.945431	-0.028678	0.089930	-0.020730	-0.364060	-0.688202	-0.346838	0.523012
60147	-9.539348	1.416064	-1.855853	0.051315	-0.062210	0.007806	-0.364062	-0.688118	-0.346795	0.523151
60148	-9.486988	1.317704	-1.892199	-0.001813	0.025725	-0.049541	-0.364146	-0.687983	-0.346829	0.523247
60149	-9.461220	1.307880	-1.867063	-0.014696	0.014116	-0.080743	-0.364231	-0.687877	-0.346820	0.523332
60150	-9.512492	1.340009	-1.886775	0.012445	0.011999	-0.022756	-0.364302	-0.687795	-0.346838	0.523378
60151	-9.534484	1.325169	-1.798519	-0.045879	-0.056563	-0.020250	-0.364436	-0.687695	-0.346863	0.523400
60152	-9.529579	1.361858	-1.796153	-0.014014	-0.074169	-0.020446	-0.364598	-0.687576	-0.346939	0.523393
60153	-9.510111	1.336744	-1.848682	-0.006079	-0.012107	-0.032783	-0.364713	-0.687508	-0.346898	0.523430
60154	-9.529253	1.317269	-1.862638	-0.020160	0.010430	-0.014179	-0.364807	-0.687459	-0.346833	0.523472
60155	-9.506181	1.316067	-1.870138	-0.012983	0.022593	-0.035354	-0.364951	-0.687393	-0.346779	0.523494
60156	-9.553131	1.295034	-1.861788	-0.045560	0.024169	0.005816	-0.365013	-0.687399	-0.346636	0.523537
60157	-9.513288	1.352188	-1.805155	-0.016215	-0.046316	-0.035815	-0.365155	-0.687375	-0.346515	0.523550
60158	-9.463124	1.294142	-1.861403	-0.029663	0.039208	-0.081915	-0.365182	-0.687411	-0.346290	0.523633
60159	-9.524659	1.336639	-1.865021	-0.005920	0.018435	-0.015563	-0.365266	-0.687423	-0.346072	0.523702
60160	-9.518567	1.327428	-1.866170	-0.013498	0.028246	-0.022550	-0.365336	-0.687463	-0.345835	0.523758
60161	-9.539287	1.376066	-1.818767	-0.000407	-0.035366	-0.004619	-0.365333	-0.687526	-0.345521	0.523885
60162	-9.513393	1.339588	-1.807395	-0.033077	-0.020734	-0.036988	-0.365357	-0.687603	-0.345204	0.523975
60163	-9.476743	1.452016	-1.712095	0.023789	-0.152210	-0.074898	-0.365332	-0.687684	-0.344885	0.524097
60164	-9.566655	1.384340	-1.790987	-0.017388	-0.056649	0.017949	-0.365232	-0.687829	-0.344571	0.524183
60165	-9.499855	1.509672	-1.698013	0.057531	-0.192212	-0.046964	-0.365195	-0.687933	-0.344388	0.524192
60166	-9.515605	1.484827	-1.750040	0.055524	-0.135907	-0.025321	-0.365201	-0.688024	-0.344262	0.524152
60167	-9.491628	1.435540	-1.831380	0.055494	-0.038798	-0.040218	-0.365251	-0.688045	-0.344274	0.524082
60168	-9.481839	1.369390	-1.874249	0.020463	0.032117	-0.050933	-0.365240	-0.688094	-0.344218	0.524061
60169	-9.485196	1.347168	-1.920423	0.021716	0.081923	-0.042086	-0.365135	-0.688200	-0.344135	0.524051
60170	-9.535844	1.349548	-1.889527	-0.002945	0.048601	0.001667	-0.365072	-0.688274	-0.344038	0.524060
60171	-9.535540	1.350962	-1.890052	-0.002305	0.048463	0.001668	-0.365047	-0.688332	-0.343925	0.524075
60172	-9.541075	1.413339	-1.749520	-0.018627	-0.103888	-0.010681	-0.364927	-0.688457	-0.343718	0.524131
60173	-9.514264	1.483462	-1.711971	0.027506	-0.169205	-0.033969	-0.364869	-0.688554	-0.343605	0.524119
60174	-9.452162	1.397318	-1.777926	-0.002366	-0.063713	-0.094003	-0.364925	-0.688564	-0.343662	0.524028
60175	-9.516763	1.414373	-1.830886	0.021978	-0.034580	-0.018827	-0.364843	-0.688671	-0.343675	0.523936
60176	-9.577477	1.454790	-1.839534	0.045747	-0.055308	0.047496	-0.364854	-0.688721	-0.343734	0.523825
60177	-9.479254	1.368472	-1.842506	-0.006525	-0.001397	-0.059547	-0.364909	-0.688726	-0.343853	0.523702
60178	-9.466047	1.451605	-1.822511	0.056204	-0.061655	-0.064468	-0.364861	-0.688800	-0.343972	0.523560
60179	-9.490475	1.443518	-1.838399	0.050496	-0.049104	-0.038865	-0.364889	-0.688807	-0.344144	0.523418
60180	-9.517516	1.315036	-1.905813	-0.033846	0.068406	-0.017856	-0.364890	-0.688835	-0.344308	0.523272
60181	-9.480975	1.393304	-1.828848	0.003267	-0.036947	-0.056997	-0.364742	-0.688939	-0.344364	0.523201
60182	-9.501375	1.438152	-1.854105	0.048702	-0.043145	-0.026070	-0.364689	-0.688973	-0.344489	0.523111
60183	-9.538357	1.424800	-1.808803	0.007381	-0.081555	-0.000686	-0.364695	-0.688970	-0.344674	0.522990
60184	-9.480934	1.331758	-1.930458	-0.002002	0.072523	-0.046260	-0.364696	-0.688977	-0.344861	0.522855
60185	-9.536402	1.405641	-1.871853	0.020772	-0.023223	0.006765	-0.364561	-0.689055	-0.344891	0.522828
60186	-9.502271	1.394142	-1.966900	0.063976	0.065045	-0.009772	-0.364481	-0.689075	-0.344964	0.522809
60187	-9.534780	1.385420	-1.933661	0.034313	0.035231	0.014217	-0.364308	-0.689142	-0.344974	0.522834
60188	-9.518080	1.363672	-1.953998	0.030152	0.063609	-0.001133	-0.364250	-0.689133	-0.344989	0.522877
60189	-9.469918	1.366893	-1.883827	0.011390	0.005500	-0.060950	-0.364061	-0.689182	-0.344907	0.522998
60190	-9.427760	1.383298	-1.877814	0.033183	-0.005007	-0.100776	-0.364018	-0.689157	-0.344994	0.523004
60191	-9.512207	1.267730	-1.840586	-0.100200	0.012033	-0.041976	-0.363947	-0.689160	-0.345016	0.523035
60192	-9.538412	1.355463	-1.847624	-0.026952	-0.030425	-0.002965	-0.363762	-0.689253	-0.344958	0.523079
60193	-9.533530	1.438771	-1.777848	0.012074	-0.132967	-0.009567	-0.363864	-0.689180	-0.345102	0.523009
60194	-9.538024	1.355282	-1.849756	-0.025953	-0.030667	-0.002964	-0.363786	-0.689240	-0.345131	0.522965
60195	-9.538974	1.374074	-1.927889	0.026801	0.025182	0.015614	-0.363825	-0.689218	-0.345243	0.522893
60196	-9.490994	1.348633	-1.871813	-0.011586	-0.006608	-0.045330	-0.363789	-0.689252	-0.345294	0.522840
60197	-9.491261	1.319013	-1.953409	0.001739	0.076957	-0.033438	-0.363689	-0.689320	-0.345242	0.522854
60198	-9.492803	1.385619	-1.893730	0.029397	-0.009316	-0.034215	-0.363589	-0.689396	-0.345191	0.522858
60199	-9.486576	1.372982	-1.898046	0.021738	0.000540	-0.041183	-0.363640	-0.689366	-0.345281	0.522801
60200	-9.504739	1.303650	-1.918472	-0.031680	0.050521	-0.029204	-0.363592	-0.689402	-0.345282	0.522788
60201	-9.547001	1.443563	-1.892478	0.065696	-0.046625	0.026220	-0.363637	-0.689383	-0.345275	0.522784
60202	-9.509292	1.377850	-1.889980	0.016543	-0.012006	-0.020001	-0.363490	-0.689475	-0.345160	0.522841
60203	-9.526014	1.476717	-1.854700	0.080815	-0.094450	0.003121	-0.363506	-0.689431	-0.345219	0.522850
60204	-9.463945	1.310384	-1.935461	-0.008152	0.064736	-0.064604	-0.363496	-0.689413	-0.345261	0.522853
60205	-9.449681	1.325572	-1.907021	-0.004704	0.033213	-0.081849	-0.363306	-0.689481	-0.345159	0.522963
60206	-9.557482	1.370799	-1.895042	0.005886	-0.012176	0.026802	-0.363093	-0.689580	-0.345059	0.523047
60207	-9.549053	1.398890	-1.864156	0.017418	-0.053512	0.016515	-0.362995	-0.689625	-0.345026	0.523077
60208	-9.507995	1.512945	-1.784633	0.085780	-0.176442	-0.023030	-0.362976	-0.689617	-0.345096	0.523055
60209	-9.424763	1.222683	-1.927098	-0.074917	0.099982	-0.116337	-0.363122	-0.689503	-0.345339	0.522942
60210	-9.483554	1.224868	-1.915564	-0.090947	0.081686	-0.061147	-0.362881	-0.689640	-0.345213	0.523013
60211	-9.539930	1.268990	-1.936240	-0.055324	0.069581	0.003713	-0.362617	-0.689798	-0.344983	0.523139
60212	-9.619696	1.395952	-1.930239	0.032593	-0.008560	0.097505	-0.362460	-0.689910	-0.344769	0.523241
60213	-9.521842	1.309850	-1.930180	-0.019843	0.045426	-0.009407	-0.362394	-0.689979	-0.344561	0.523332
60214	-9.463450	1.278766	-1.954559	-0.022408	0.089698	-0.065694	-0.362308	-0.690063	-0.344258	0.523481
60215	-9.404516	1.277399	-1.899124	-0.037769	0.050372	-0.133877	-0.362016	-0.690273	-0.343797	0.523709
60216	-9.542513	1.439098	-1.799445	0.020935	-0.129572	0.003184	-0.361880	-0.690417	-0.343457	0.523837
60217	-9.595809	1.401630	-1.802156	-0.022676	-0.111757	0.050318	-0.361930	-0.690464	-0.343315	0.523832
60218	-9.552337	1.531188	-1.699988	0.045314	-0.259752	0.006279	-0.361968	-0.690530	-0.343228	0.523776
60219	-9.456642	1.404671	-1.802868	0.005927	-0.097092	-0.084273	-0.362141	-0.690515	-0.343281	0.523642
60220	-9.357713	1.349337	-1.792449	-0.027083	-0.069358	-0.190067	-0.361937	-0.690732	-0.343152	0.523581
60221	-9.469148	1.391325	-1.772131	-0.028326	-0.123311	-0.080012	-0.361749	-0.690946	-0.343172	0.523416
60222	-9.544064	1.385333	-1.826474	-0.026834	-0.086563	0.002408	-0.361677	-0.691106	-0.343318	0.523159
60223	-9.567544	1.456687	-1.896366	0.058766	-0.070389	0.048734	-0.361718	-0.691189	-0.343541	0.522874
60224	-9.487680	1.348723	-1.918572	-0.008209	0.006117	-0.039462	-0.361491	-0.691448	-0.343570	0.522670
60225	-9.458587	1.320508	-2.027532	0.023412	0.110597	-0.050172	-0.361330	-0.691632	-0.343641	0.522490
60226	-9.479657	1.384277	-1.931296	0.024066	-0.011654	-0.039801	-0.361067	-0.691869	-0.343587	0.522394
60227	-9.470710	1.461449	-1.902342	0.074989	-0.080553	-0.043502	-0.360858	-0.692081	-0.343640	0.522224
60228	-9.535067	1.447178	-1.905506	0.047794	-0.082424	0.017557	-0.360833	-0.692168	-0.343855	0.521983
60229	-9.543884	1.406383	-1.965188	0.037480	-0.016260	0.032307	-0.360855	-0.692217	-0.344127	0.521724
60230	-9.471786	1.407014	-1.909364	0.025091	-0.062043	-0.048692	-0.360750	-0.692324	-0.344334	0.521517
60231	-9.451823	1.348723	-1.914874	-0.018846	-0.031134	-0.075058	-0.360722	-0.692377	-0.344641	0.521264
60232	-9.475051	1.290966	-1.937412	-0.064181	0.009020	-0.056021	-0.360521	-0.692562	-0.344782	0.521064
60233	-9.512886	1.392462	-2.033844	0.058151	0.029098	0.014125	-0.360362	-0.692687	-0.344976	0.520879
60234	-9.529141	1.351633	-2.112993	0.056532	0.110248	0.040273	-0.360245	-0.692790	-0.345113	0.520732
60235	-9.472539	1.324127	-2.173780	0.074116	0.178268	-0.006039	-0.360101	-0.692876	-0.345139	0.520700
60236	-9.449491	1.319656	-2.118262	0.048951	0.132992	-0.040210	-0.359984	-0.692929	-0.345153	0.520701
60237	-9.524220	1.324396	-2.078262	0.017702	0.087430	0.024793	-0.359955	-0.692923	-0.345152	0.520730
60238	-9.526473	1.234477	-2.048747	-0.072853	0.108585	0.008610	-0.359995	-0.692900	-0.345087	0.520776
60239	-9.460058	1.310383	-2.024164	-0.005398	0.057862	-0.050328	-0.359959	-0.692931	-0.344886	0.520894
60240	-9.521456	1.351967	-2.029024	0.018530	0.036985	0.015901	-0.360043	-0.692906	-0.344741	0.520964
60241	-9.524489	1.234836	-2.009355	-0.091641	0.084499	-0.001333	-0.360366	-0.692757	-0.344673	0.520985
60242	-9.432675	1.273312	-1.972588	-0.057456	0.048584	-0.092496	-0.360434	-0.692788	-0.344355	0.521106
60243	-9.502898	1.494711	-1.905929	0.080657	-0.123259	-0.007072	-0.360755	-0.692717	-0.344221	0.521067
60244	-9.517709	1.297370	-1.975796	-0.059291	0.041719	-0.006135	-0.361179	-0.692575	-0.344196	0.520979
60245	-9.487930	1.472948	-1.873721	0.045013	-0.127214	-0.030918	-0.361188	-0.692653	-0.343916	0.521054
60246	-9.520946	1.597247	-1.817373	0.113974	-0.238275	0.007327	-0.361545	-0.692533	-0.343931	0.520956
60247	-9.468230	1.424422	-1.935991	0.033650	-0.038999	-0.044281	-0.361938	-0.692376	-0.344076	0.520796
60248	-9.451929	1.377512	-1.966229	0.009835	0.015645	-0.060651	-0.362219	-0.692284	-0.344161	0.520666
60249	-9.490163	1.387072	-1.994005	0.020743	0.033328	-0.016684	-0.362482	-0.692191	-0.344245	0.520552
60250	-9.500101	1.428167	-1.963767	0.037208	-0.011649	-0.007258	-0.362735	-0.692106	-0.344293	0.520457
60251	-9.508323	1.354358	-1.930252	-0.045254	-0.000331	-0.016447	-0.363105	-0.691957	-0.344416	0.520315
60252	-9.480676	1.407534	-1.881056	-0.019294	-0.064373	-0.045486	-0.363141	-0.692011	-0.344336	0.520271
60253	-9.449104	1.483743	-1.854715	0.038251	-0.121061	-0.070465	-0.363389	-0.691914	-0.344456	0.520147
60254	-9.457050	1.456955	-1.887057	0.027771	-0.079961	-0.060132	-0.363382	-0.691966	-0.344444	0.520091
60255	-9.506285	1.599114	-1.814075	0.101460	-0.219523	-0.006618	-0.363617	-0.691876	-0.344660	0.519904
60256	-9.526438	1.284192	-2.041114	-0.064167	0.131486	0.013142	-0.363693	-0.691849	-0.344856	0.519756
60257	-9.454357	1.520056	-1.865434	0.068235	-0.132816	-0.058048	-0.363735	-0.691847	-0.345022	0.519619
60258	-9.434442	1.492479	-1.855531	0.043680	-0.128122	-0.083306	-0.363713	-0.691878	-0.345219	0.519463
60259	-9.517950	1.330647	-1.959770	-0.064422	0.031110	-0.004652	-0.363842	-0.691827	-0.345551	0.519220
60260	-9.461206	1.382763	-2.003781	0.012145	0.045359	-0.043380	-0.363837	-0.691871	-0.345716	0.519055
60261	-9.523233	1.382058	-2.116037	0.049234	0.133049	0.039192	-0.363964	-0.691841	-0.345953	0.518848
60262	-9.492849	1.269719	-2.137374	-0.030910	0.210184	-0.001999	-0.364059	-0.691809	-0.346039	0.518766
60263	-9.466716	1.387699	-2.094729	0.054517	0.117284	-0.019037	-0.364065	-0.691840	-0.345963	0.518772
60264	-9.466330	1.370667	-2.016972	0.002677	0.061033	-0.037485	-0.364205	-0.691777	-0.345911	0.518791
60265	-9.433388	1.380330	-2.049302	0.033243	0.090609	-0.061562	-0.364324	-0.691727	-0.345799	0.518850
60266	-9.510102	1.376770	-2.027734	0.002565	0.069918	0.007920	-0.364494	-0.691645	-0.345688	0.518914
60267	-9.526479	1.430307	-1.991682	0.027190	0.015009	0.024254	-0.364612	-0.691594	-0.345493	0.519028
60268	-9.521140	1.420597	-1.989957	0.019464	0.024789	0.017324	-0.364853	-0.691457	-0.345312	0.519162
60269	-9.461514	1.431731	-1.907358	0.003563	-0.039421	-0.055303	-0.364888	-0.691445	-0.344977	0.519376
60270	-9.449577	1.438569	-1.895938	0.007107	-0.045906	-0.068129	-0.365086	-0.691318	-0.344839	0.519497
60271	-9.419138	1.436442	-1.881863	0.005498	-0.048733	-0.100709	-0.365230	-0.691261	-0.344684	0.519575
60272	-9.535271	1.458292	-1.897798	0.005307	-0.052871	0.018224	-0.365417	-0.691175	-0.344544	0.519651
60273	-9.505731	1.474443	-1.893586	0.023819	-0.057094	-0.008875	-0.365521	-0.691104	-0.344401	0.519767
60274	-9.467776	1.518644	-1.857408	0.053236	-0.102507	-0.046333	-0.365664	-0.691016	-0.344305	0.519846
60275	-9.493771	1.434449	-1.883653	-0.011660	-0.036037	-0.028207	-0.365829	-0.690920	-0.344232	0.519906
60276	-9.470846	1.432991	-1.889946	-0.004685	-0.023961	-0.049405	-0.365989	-0.690827	-0.344189	0.519946
60277	-9.496119	1.426974	-1.900264	-0.010562	-0.011372	-0.023750	-0.366047	-0.690804	-0.344064	0.520019
60278	-9.530139	1.489376	-1.935527	0.051901	-0.012458	0.025260	-0.366195	-0.690715	-0.343988	0.520083
60279	-9.555758	1.531460	-1.874982	0.053205	-0.084606	0.044464	-0.366330	-0.690651	-0.343930	0.520112
60280	-9.467769	1.416591	-1.904836	-0.010628	0.010721	-0.051870	-0.366546	-0.690503	-0.343953	0.520141
60281	-9.465564	1.508315	-1.862301	0.048564	-0.068179	-0.048821	-0.366635	-0.690431	-0.343871	0.520227
60282	-9.495714	1.447870	-1.863485	-0.008454	-0.036814	-0.028207	-0.366729	-0.690355	-0.343831	0.520289
60283	-9.443532	1.331857	-1.891123	-0.082189	0.052677	-0.090498	-0.366824	-0.690294	-0.343805	0.520319
60284	-9.490466	1.484934	-1.792509	-0.008701	-0.111911	-0.041584	-0.366838	-0.690292	-0.343751	0.520348
60285	-9.543480	1.476551	-1.782735	-0.032775	-0.120288	0.006723	-0.366927	-0.690266	-0.343778	0.520303
60286	-9.548144	1.520645	-1.766844	-0.004510	-0.156687	0.014651	-0.366860	-0.690334	-0.343733	0.520289
60287	-9.513909	1.509872	-1.793866	0.006022	-0.125928	-0.014920	-0.366852	-0.690359	-0.343791	0.520223
60288	-9.472699	1.467347	-1.816009	-0.011572	-0.084061	-0.056878	-0.366758	-0.690462	-0.343861	0.520107
60289	-9.423632	1.471427	-1.816842	0.001747	-0.084549	-0.103738	-0.366659	-0.690569	-0.343989	0.519950
60290	-9.508287	1.455552	-1.912052	0.012515	-0.007962	-0.005452	-0.366528	-0.690703	-0.344138	0.519765
60291	-9.485376	1.295435	-2.027243	-0.066262	0.169077	-0.028657	-0.366443	-0.690810	-0.344223	0.519627
60292	-9.510719	1.402618	-2.046143	0.026989	0.125315	0.015404	-0.366197	-0.690997	-0.344119	0.519621
60293	-9.526505	1.326123	-2.037170	-0.046813	0.151620	0.017764	-0.365910	-0.691206	-0.343862	0.519714
60294	-9.490868	1.422782	-1.967466	0.009970	0.045012	-0.016276	-0.365588	-0.691429	-0.343495	0.519887
60295	-9.505401	1.503745	-1.923241	0.054349	-0.036106	0.001002	-0.365277	-0.691636	-0.343135	0.520068
60296	-9.506106	1.474198	-1.936730	0.035188	-0.009958	0.000003	-0.365094	-0.691771	-0.342849	0.520205
60297	-9.519827	1.537226	-1.882103	0.059630	-0.089828	0.011816	-0.364827	-0.691936	-0.342505	0.520400
60298	-9.491614	1.490825	-1.907780	0.039010	-0.041442	-0.017297	-0.364663	-0.692041	-0.342265	0.520533
60299	-9.520864	1.556589	-1.824434	0.048164	-0.148668	0.004336	-0.364560	-0.692125	-0.342084	0.520613
60300	-9.530157	1.547012	-1.866322	0.057536	-0.108788	0.020173	-0.364533	-0.692157	-0.342049	0.520612
60301	-9.528867	1.481835	-1.926546	0.031003	-0.022701	0.021195	-0.364867	-0.691963	-0.342276	0.520487
60302	-9.445748	1.409390	-1.941257	-0.005126	0.036440	-0.067141	-0.364922	-0.691945	-0.342270	0.520477
60303	-9.460323	1.443132	-1.899089	-0.000168	-0.017258	-0.056326	-0.365031	-0.691889	-0.342329	0.520434
60304	-9.450710	1.502576	-1.854101	0.030836	-0.084862	-0.065729	-0.364978	-0.691919	-0.342318	0.520440
60305	-9.489036	1.557389	-1.880504	0.081373	-0.094731	-0.015343	-0.365087	-0.691840	-0.342556	0.520312
60306	-9.443683	1.421950	-1.853504	-0.036067	-0.046378	-0.084527	-0.365204	-0.691739	-0.342855	0.520168
60307	-9.465813	1.551268	-1.826211	0.056440	-0.139990	-0.049475	-0.365161	-0.691729	-0.343097	0.520050
60308	-9.512823	1.478384	-1.826986	-0.015380	-0.110974	-0.014487	-0.365274	-0.691632	-0.343539	0.519809
60309	-9.414889	1.291488	-1.972425	-0.082557	0.112780	-0.108101	-0.365163	-0.691634	-0.343875	0.519662
60310	-9.430221	1.484306	-1.934427	0.060812	-0.024754	-0.072568	-0.364978	-0.691708	-0.344129	0.519525
60311	-9.515435	1.465085	-1.962642	0.039194	-0.005456	0.012808	-0.364857	-0.691737	-0.344416	0.519381
60312	-9.589895	1.389857	-2.009646	-0.018342	0.060031	0.083399	-0.364755	-0.691737	-0.344686	0.519274
60313	-9.535523	1.378322	-2.012475	-0.013324	0.069359	0.029621	-0.364590	-0.691772	-0.344803	0.519266
60314	-9.456473	1.423857	-1.997330	0.037409	0.038483	-0.043414	-0.364509	-0.691766	-0.344904	0.519263
60315	-9.384621	1.325788	-2.011764	-0.021903	0.105267	-0.124320	-0.364380	-0.691789	-0.344978	0.519273
60316	-9.381114	1.347207	-1.968414	-0.022200	0.055177	-0.133256	-0.364285	-0.691799	-0.345075	0.519263
60317	-9.506711	1.402205	-1.961469	-0.006147	0.006098	-0.004985	-0.364190	-0.691836	-0.345174	0.519214
60318	-9.481350	1.360832	-1.953684	-0.039050	0.020771	-0.037065	-0.364207	-0.691806	-0.345302	0.519157
60319	-9.505406	1.382185	-1.954973	-0.025169	0.007091	-0.010422	-0.364100	-0.691847	-0.345324	0.519163
60320	-9.468632	1.412055	-1.946381	0.004415	-0.013288	-0.043496	-0.364038	-0.691898	-0.345336	0.519131
60321	-9.440693	1.335272	-1.986601	-0.035866	0.061361	-0.073531	-0.363971	-0.691942	-0.345336	0.519120
60322	-9.513009	1.401744	-1.988081	0.004720	0.020554	0.006388	-0.363859	-0.692042	-0.345224	0.519139
60323	-9.489253	1.272598	-2.085339	-0.054309	0.171369	-0.015660	-0.363760	-0.692130	-0.345024	0.519224
60324	-9.558602	1.412151	-2.036184	0.025044	0.053080	0.061706	-0.363706	-0.692197	-0.344771	0.519341
60325	-9.434285	1.327340	-1.989032	-0.042144	0.070785	-0.080420	-0.363681	-0.692253	-0.344490	0.519470
60326	-9.494994	1.400172	-1.913354	-0.030809	-0.033736	-0.026256	-0.363684	-0.692319	-0.344173	0.519589
60327	-9.490979	1.475436	-1.930249	0.040934	-0.054055	-0.015909	-0.363657	-0.692389	-0.343925	0.519679
60328	-9.478036	1.512285	-1.842090	0.031649	-0.144093	-0.040702	-0.363757	-0.692409	-0.343739	0.519706
60329	-9.499060	1.385742	-1.819509	-0.093380	-0.098910	-0.043115	-0.363827	-0.692451	-0.343614	0.519683
60330	-9.464279	1.551763	-1.755713	0.022744	-0.234382	-0.065502	-0.363666	-0.692642	-0.343450	0.519650
60331	-9.462004	1.535612	-1.816031	0.035738	-0.175851	-0.058027	-0.363820	-0.692641	-0.343619	0.519432
60332	-9.488615	1.487304	-1.868351	0.010953	-0.112144	-0.028827	-0.363729	-0.692782	-0.343724	0.519238
60333	-9.483374	1.511269	-1.896251	0.043119	-0.104927	-0.024878	-0.363703	-0.692873	-0.343986	0.518961
60334	-9.508025	1.473271	-1.928105	0.017856	-0.066197	-0.000146	-0.363697	-0.692948	-0.344243	0.518694
60335	-9.488584	1.463624	-1.930727	0.013132	-0.062777	-0.019883	-0.363616	-0.693041	-0.344528	0.518438
60336	-9.408399	1.354146	-2.086908	0.010469	0.128681	-0.081798	-0.363571	-0.693121	-0.344797	0.518184
60337	-9.515576	1.419364	-2.089985	0.041475	0.081899	0.032128	-0.363446	-0.693220	-0.344958	0.518032
60338	-9.450644	1.371894	-2.122470	0.030424	0.136144	-0.030960	-0.363391	-0.693264	-0.345117	0.517906
60339	-9.447577	1.364503	-2.093529	0.010565	0.112275	-0.040854	-0.363280	-0.693335	-0.345163	0.517858
60340	-9.511422	1.459121	-2.063792	0.062264	0.030173	0.028585	-0.363229	-0.693368	-0.345195	0.517828
60341	-9.486171	1.370462	-2.058209	-0.010166	0.072442	-0.009806	-0.363283	-0.693333	-0.345225	0.517818
60342	-9.463032	1.445537	-1.983463	0.023496	-0.026491	-0.036623	-0.363296	-0.693331	-0.345196	0.517831
60343	-9.469518	1.381148	-1.996347	-0.026937	0.017233	-0.037017	-0.363397	-0.693286	-0.345232	0.517795
60344	-9.471181	1.370562	-2.017944	-0.026011	0.042078	-0.032537	-0.363412	-0.693264	-0.345176	0.517851
60345	-9.498803	1.370206	-2.061577	-0.011296	0.078276	0.003043	-0.363373	-0.693272	-0.345021	0.517971
60346	-9.440959	1.385966	-2.080755	0.025316	0.095101	-0.046805	-0.363338	-0.693263	-0.344818	0.518144
60347	-9.474773	1.350241	-2.123003	0.008764	0.148896	-0.010679	-0.363242	-0.693287	-0.344504	0.518387
60348	-9.498150	1.433533	-2.092638	0.061844	0.082677	0.017793	-0.363179	-0.693265	-0.344117	0.518717
60349	-9.500862	1.403998	-2.032740	0.010443	0.051457	0.003975	-0.363023	-0.693278	-0.343651	0.519118
60350	-9.467854	1.519987	-1.964915	0.087131	-0.056442	-0.024902	-0.362905	-0.693263	-0.343171	0.519538
60351	-9.477424	1.473265	-1.913286	0.024260	-0.071286	-0.032756	-0.362848	-0.693173	-0.342771	0.519962
60352	-9.439477	1.448741	-1.868019	-0.006039	-0.087882	-0.082101	-0.362799	-0.693107	-0.342476	0.520279
60353	-9.499491	1.453215	-1.849983	-0.021674	-0.106246	-0.026838	-0.362904	-0.692977	-0.342293	0.520499
60354	-9.494088	1.393512	-1.917944	-0.036571	-0.011589	-0.027157	-0.363124	-0.692798	-0.342240	0.520618
60355	-9.496983	1.431812	-1.865220	-0.028635	-0.071641	-0.029239	-0.363205	-0.692719	-0.342100	0.520760
60356	-9.472995	1.411409	-1.928182	-0.009102	-0.000750	-0.042963	-0.363332	-0.692610	-0.341990	0.520888
60357	-9.485872	1.505860	-1.924455	0.067417	-0.049645	-0.017489	-0.363402	-0.692540	-0.341899	0.520991
60358	-9.524072	1.398945	-1.946855	-0.020392	0.024352	0.008424	-0.363621	-0.692402	-0.341842	0.521059
60359	-9.530671	1.414100	-1.872663	-0.044063	-0.042986	0.002425	-0.363732	-0.692325	-0.341730	0.521159
60360	-9.550224	1.444222	-1.881582	-0.018400	-0.047983	0.027549	-0.363992	-0.692184	-0.341674	0.521201
60361	-9.484782	1.461108	-1.880195	0.009560	-0.046111	-0.033688	-0.364302	-0.692033	-0.341663	0.521192
60362	-9.448500	1.398150	-1.873176	-0.039772	-0.011500	-0.079443	-0.364655	-0.691854	-0.341730	0.521139
60363	-9.483333	1.432013	-1.853782	-0.029286	-0.043892	-0.044475	-0.364934	-0.691747	-0.341706	0.521101
60364	-9.572695	1.541870	-1.841440	0.036344	-0.114643	0.055964	-0.365180	-0.691672	-0.341692	0.521037
60365	-9.544824	1.450635	-1.867903	-0.023912	-0.038726	0.020674	-0.365550	-0.691515	-0.341746	0.520951
60366	-9.468997	1.527402	-1.889698	0.067008	-0.047066	-0.037253	-0.365948	-0.691346	-0.341871	0.520813
60367	-9.433340	1.482750	-1.893920	0.037452	-0.013707	-0.077607	-0.366288	-0.691187	-0.342038	0.520676
60368	-9.398555	1.503488	-1.837639	0.035019	-0.066514	-0.119155	-0.366522	-0.691083	-0.342140	0.520582
60369	-9.529710	1.479748	-1.898040	0.013238	-0.013335	0.016211	-0.366696	-0.690997	-0.342260	0.520495
60370	-9.580970	1.483766	-1.864978	-0.011007	-0.046678	0.060124	-0.366916	-0.690869	-0.342368	0.520439
60371	-9.429709	1.416717	-1.851498	-0.040375	-0.009048	-0.099149	-0.366941	-0.690849	-0.342405	0.520424
60372	-9.447428	1.523075	-1.847669	0.044391	-0.067875	-0.066870	-0.366996	-0.690809	-0.342517	0.520364
60373	-9.479140	1.546222	-1.800601	0.034520	-0.123928	-0.041786	-0.367065	-0.690767	-0.342706	0.520247
60374	-9.521654	1.432911	-1.883289	-0.032471	-0.001416	-0.001426	-0.367157	-0.690703	-0.342936	0.520115
60375	-9.527719	1.512382	-1.887542	0.035820	-0.040328	0.017096	-0.367117	-0.690719	-0.343073	0.520032
60376	-9.492708	1.434223	-1.976270	0.019185	0.076590	-0.011263	-0.367182	-0.690662	-0.343257	0.519940
60377	-9.467776	1.440653	-1.897160	-0.006579	0.006540	-0.049830	-0.367154	-0.690645	-0.343350	0.519922
60378	-9.462924	1.444736	-1.844349	-0.026849	-0.042231	-0.064184	-0.367068	-0.690707	-0.343382	0.519879
60379	-9.495768	1.389350	-1.815125	-0.095776	-0.044557	-0.046243	-0.367125	-0.690689	-0.343536	0.519760
60380	-9.515313	1.436007	-1.838850	-0.050136	-0.051006	-0.015772	-0.367192	-0.690682	-0.343690	0.519621
60381	-9.519194	1.384799	-1.966235	-0.035952	0.082341	0.005191	-0.367213	-0.690729	-0.343752	0.519503
60382	-9.431184	1.432722	-1.999426	0.038326	0.093929	-0.066543	-0.367205	-0.690819	-0.343733	0.519401
60383	-9.462625	1.457080	-1.953145	0.028545	0.037918	-0.041460	-0.367130	-0.690900	-0.343649	0.519402
60384	-9.524200	1.467797	-1.907032	0.000879	-0.014140	0.010825	-0.366977	-0.691042	-0.343501	0.519419
60385	-9.469026	1.488824	-1.828214	-0.007120	-0.088220	-0.054942	-0.366865	-0.691152	-0.343365	0.519442
60386	-9.488848	1.439308	-1.859547	-0.040462	-0.039499	-0.036975	-0.366817	-0.691252	-0.343333	0.519364
60387	-9.445539	1.457507	-1.855614	-0.019146	-0.049940	-0.077033	-0.366677	-0.691413	-0.343252	0.519301
60388	-9.463719	1.486036	-1.872110	0.006501	-0.055104	-0.051950	-0.366520	-0.691595	-0.343210	0.519197
60389	-9.556341	1.520375	-1.848631	0.001036	-0.105822	0.038273	-0.366341	-0.691793	-0.343221	0.519053
60390	-9.434488	1.458534	-1.917117	0.006168	-0.008228	-0.075536	-0.366209	-0.691938	-0.343219	0.518954
60391	-9.456239	1.463234	-1.979299	0.032655	0.036625	-0.041468	-0.365965	-0.692160	-0.343141	0.518882
60392	-9.461479	1.475878	-1.913867	0.008966	-0.030753	-0.047460	-0.365721	-0.692391	-0.343025	0.518822
60393	-9.567763	1.379879	-1.984058	-0.065670	0.063582	0.055154	-0.365547	-0.692560	-0.342978	0.518751
60394	-9.523969	1.426641	-1.900703	-0.057342	-0.030398	0.003103	-0.365290	-0.692780	-0.342778	0.518770
60395	-9.439300	1.546426	-1.905775	0.064310	-0.081335	-0.060096	-0.365093	-0.692975	-0.342654	0.518730
60396	-9.442265	1.475367	-1.958238	0.026096	-0.003896	-0.057326	-0.364950	-0.693135	-0.342627	0.518635
60397	-9.532973	1.473426	-1.982213	0.013188	0.005275	0.035030	-0.364758	-0.693312	-0.342528	0.518599
60398	-9.615328	1.499981	-1.973038	0.011133	-0.026813	0.116891	-0.364558	-0.693471	-0.342370	0.518631
60399	-9.571189	1.547052	-1.955742	0.051965	-0.063563	0.077672	-0.364278	-0.693677	-0.342162	0.518690
60400	-9.459444	1.503027	-1.915801	0.020721	-0.066943	-0.045111	-0.363963	-0.693871	-0.341926	0.518806
60401	-9.366395	1.534863	-1.885369	0.054165	-0.102649	-0.136618	-0.363736	-0.694028	-0.341829	0.518820
60402	-9.476289	1.540666	-1.845729	0.013931	-0.154388	-0.037393	-0.363500	-0.694208	-0.341811	0.518757
60403	-9.431791	1.490657	-1.903955	0.008241	-0.078648	-0.076182	-0.363516	-0.694244	-0.342004	0.518570
60404	-9.466584	1.375167	-1.902950	-0.099890	-0.028393	-0.059856	-0.363459	-0.694328	-0.342232	0.518348
60405	-9.474724	1.479411	-1.953786	0.008813	-0.044933	-0.026257	-0.363247	-0.694528	-0.342361	0.518142
60406	-9.419954	1.517267	-1.890039	0.020655	-0.120325	-0.086693	-0.363095	-0.694679	-0.342614	0.517880
60407	-9.453269	1.545430	-1.883374	0.031223	-0.152745	-0.051774	-0.362808	-0.694919	-0.342895	0.517572
60408	-9.542099	1.541133	-1.980783	0.050848	-0.086187	0.053428	-0.362760	-0.695016	-0.343364	0.517164
60409	-9.543543	1.371211	-2.111239	-0.033931	0.103596	0.056703	-0.362756	-0.695062	-0.343793	0.516821
60410	-9.517186	1.377085	-2.105646	-0.027315	0.090797	0.030987	-0.362468	-0.695265	-0.343970	0.516631
60411	-9.391710	1.402215	-2.136082	0.036366	0.109692	-0.080272	-0.362191	-0.695442	-0.344083	0.516512
60412	-9.337652	1.438715	-2.070960	0.048079	0.034256	-0.140716	-0.361962	-0.695586	-0.344272	0.516353
60413	-9.339909	1.364534	-2.125650	0.009838	0.111584	-0.137890	-0.361791	-0.695700	-0.344511	0.516160
60414	-9.425537	1.305295	-2.258086	0.002105	0.239253	-0.035865	-0.361565	-0.695839	-0.344616	0.516061
60415	-9.425543	1.321578	-2.271641	0.022578	0.237819	-0.030524	-0.361333	-0.695943	-0.344613	0.516085
60416	-9.411360	1.298716	-2.158159	-0.046649	0.151619	-0.071391	-0.361137	-0.696037	-0.344477	0.516185
60417	-9.458247	1.421113	-2.143863	0.039889	0.070513	-0.011280	-0.360934	-0.696161	-0.344328	0.516260
60418	-9.478080	1.381449	-2.083552	-0.026346	0.036879	-0.010568	-0.360870	-0.696164	-0.344195	0.516389
60419	-9.491993	1.463256	-2.104327	0.050499	0.012923	0.019125	-0.360831	-0.696179	-0.344034	0.516504
60420	-9.477171	1.394721	-2.057209	-0.025890	0.011567	-0.015070	-0.360818	-0.696168	-0.343852	0.516650
60421	-9.435782	1.431367	-2.056863	0.015280	-0.000175	-0.049837	-0.360803	-0.696169	-0.343649	0.516793
60422	-9.516837	1.501034	-2.007593	0.032517	-0.083460	0.028333	-0.360918	-0.696096	-0.343568	0.516864
60423	-9.517821	1.357190	-2.014726	-0.085620	-0.001004	0.009872	-0.360961	-0.696054	-0.343465	0.516960
60424	-9.387282	1.481495	-1.942807	0.015941	-0.109443	-0.113298	-0.360908	-0.696087	-0.343252	0.517094
60425	-9.450747	1.548449	-1.990537	0.080796	-0.108131	-0.032180	-0.360946	-0.696081	-0.343189	0.517118
60426	-9.441514	1.366263	-2.028105	-0.053550	0.019217	-0.059799	-0.360950	-0.696084	-0.343124	0.517154
60427	-9.436856	1.439023	-2.046569	0.018117	-0.001156	-0.049842	-0.360873	-0.696127	-0.343008	0.517227
60428	-9.514206	1.452416	-2.038220	0.007995	-0.023284	0.025166	-0.360806	-0.696152	-0.342948	0.517279
60429	-9.462427	1.334761	-2.065328	-0.065991	0.066224	-0.036391	-0.360801	-0.696130	-0.342873	0.517363
60430	-9.418306	1.412059	-2.031429	-0.005590	0.003248	-0.074871	-0.360647	-0.696187	-0.342704	0.517504
60431	-9.439488	1.524533	-1.993643	0.067044	-0.089324	-0.045893	-0.360442	-0.696318	-0.342504	0.517603
60432	-9.466594	1.408267	-2.035281	-0.017233	0.003271	-0.027920	-0.360531	-0.696244	-0.342525	0.517628
60433	-9.542141	1.482400	-2.000608	0.011790	-0.071260	0.048711	-0.360479	-0.696275	-0.342431	0.517684
60434	-9.541597	1.386154	-2.073090	-0.034267	0.040986	0.049277	-0.360540	-0.696220	-0.342404	0.517734
60435	-9.399537	1.435286	-2.011622	0.011068	-0.019979	-0.093766	-0.360478	-0.696248	-0.342254	0.517838
60436	-9.454036	1.512116	-2.017967	0.066979	-0.058549	-0.028539	-0.360528	-0.696209	-0.342238	0.517866
60437	-9.387643	1.392113	-2.005864	-0.024399	0.001030	-0.112753	-0.360547	-0.696166	-0.342210	0.517929
60438	-9.502752	1.539158	-1.940377	0.042469	-0.142124	0.006394	-0.360522	-0.696168	-0.342238	0.517926
60439	-9.602125	1.441272	-1.986759	-0.040665	-0.062876	0.097897	-0.360601	-0.696114	-0.342303	0.517900
60440	-9.454887	1.416927	-2.021810	-0.010223	-0.004084	-0.040780	-0.360700	-0.696044	-0.342363	0.517886
60441	-9.469880	1.450364	-1.979924	-0.005227	-0.057812	-0.030105	-0.360791	-0.695976	-0.342478	0.517838
60442	-9.398913	1.468959	-1.994692	0.034174	-0.047252	-0.092975	-0.360816	-0.695952	-0.342534	0.517816
60443	-9.447053	1.465352	-1.999109	0.022224	-0.047048	-0.046019	-0.360891	-0.695900	-0.342671	0.517742
60444	-9.501011	1.396328	-2.083666	-0.008118	0.054274	0.013685	-0.361007	-0.695824	-0.342844	0.517649
60445	-9.511170	1.386044	-2.058240	-0.031024	0.036783	0.016733	-0.361012	-0.695796	-0.342860	0.517673
60446	-9.425295	1.450190	-2.030617	0.030504	-0.010212	-0.062733	-0.360997	-0.695782	-0.342843	0.517713
60447	-9.407141	1.441107	-2.026688	0.025645	-0.006647	-0.082433	-0.361073	-0.695715	-0.342947	0.517682
60448	-9.483816	1.435977	-2.008792	-0.004596	-0.027581	-0.012725	-0.361133	-0.695662	-0.343072	0.517628
60449	-9.484468	1.454429	-2.018373	0.015886	-0.029009	-0.007422	-0.361203	-0.695602	-0.343172	0.517594
60450	-9.539456	1.433729	-2.031960	-0.007363	-0.012527	0.045581	-0.361285	-0.695530	-0.343292	0.517553
60451	-9.490769	1.341148	-2.100561	-0.041055	0.099511	-0.000749	-0.361353	-0.695458	-0.343282	0.517609
60452	-9.420644	1.456501	-2.040527	0.044861	-0.002379	-0.064269	-0.361292	-0.695476	-0.343234	0.517660
60453	-9.463623	1.391462	-2.049852	-0.014934	0.035333	-0.030216	-0.361359	-0.695409	-0.343198	0.517727
60454	-9.434408	1.502076	-1.973881	0.049802	-0.081140	-0.058128	-0.361354	-0.695398	-0.343116	0.517799
60455	-9.505114	1.417860	-1.951365	-0.048105	-0.063144	-0.006615	-0.361459	-0.695324	-0.343126	0.517818
60456	-9.500054	1.394523	-2.042227	-0.022923	0.028943	0.003882	-0.361605	-0.695234	-0.343158	0.517816
60457	-9.480016	1.446593	-2.011580	0.011334	-0.020083	-0.014256	-0.361555	-0.695257	-0.343038	0.517900
60458	-9.378870	1.411518	-2.018542	0.008832	0.015381	-0.115792	-0.361540	-0.695242	-0.342977	0.517972
60459	-9.422963	1.461599	-1.964010	0.015582	-0.060699	-0.077087	-0.361486	-0.695263	-0.342894	0.518036
60460	-9.514401	1.459714	-1.984381	0.002987	-0.051562	0.015318	-0.361504	-0.695254	-0.342891	0.518037
60461	-9.476833	1.326907	-2.041027	-0.073668	0.069309	-0.028690	-0.361578	-0.695202	-0.342918	0.518038
60462	-9.463713	1.428462	-2.027262	0.008969	0.007711	-0.029435	-0.361549	-0.695219	-0.342863	0.518072
60463	-9.455947	1.476509	-2.004123	0.040213	-0.034926	-0.034718	-0.361645	-0.695172	-0.342882	0.518055
60464	-9.461329	1.423968	-1.994021	-0.010592	-0.016182	-0.039245	-0.361653	-0.695180	-0.342818	0.518080
60465	-9.495706	1.503372	-1.974972	0.039567	-0.076058	0.001676	-0.361625	-0.695196	-0.342773	0.518109
60466	-9.502071	1.390350	-2.057848	-0.017842	0.052473	0.008417	-0.361714	-0.695142	-0.342791	0.518107
60467	-9.519033	1.364074	-2.041081	-0.052093	0.051289	0.017539	-0.361716	-0.695154	-0.342678	0.518164
60468	-9.433664	1.447459	-2.022532	0.029299	0.002984	-0.056718	-0.361687	-0.695170	-0.342567	0.518236
60469	-9.443790	1.438299	-1.996281	0.006340	-0.014541	-0.053652	-0.361715	-0.695188	-0.342472	0.518255
60470	-9.446101	1.476468	-1.947374	0.014298	-0.074616	-0.055881	-0.361746	-0.695176	-0.342402	0.518296
60471	-9.538598	1.445472	-1.979848	-0.017889	-0.039207	0.035774	-0.361871	-0.695118	-0.342451	0.518254
60472	-9.427239	1.306422	-2.009858	-0.096179	0.070107	-0.086180	-0.361846	-0.695161	-0.342336	0.518290
60473	-9.460811	1.550163	-1.990926	0.092736	-0.073825	-0.021891	-0.361778	-0.695237	-0.342210	0.518319
60474	-9.444269	1.415033	-2.006907	-0.010696	0.011107	-0.054410	-0.361795	-0.695237	-0.342161	0.518339
60475	-9.475358	1.469594	-1.947125	-0.000830	-0.071146	-0.028601	-0.361660	-0.695348	-0.342036	0.518367
60476	-9.486391	1.496873	-1.942041	0.016252	-0.091280	-0.014975	-0.361752	-0.695336	-0.342111	0.518270
60477	-9.524243	1.389671	-1.969665	-0.071299	-0.017348	0.011598	-0.361789	-0.695362	-0.342183	0.518162
60478	-9.415865	1.438825	-1.976373	-0.003093	-0.026992	-0.084685	-0.361768	-0.695430	-0.342212	0.518065
60479	-9.456245	1.501452	-1.969977	0.035813	-0.070674	-0.037747	-0.361709	-0.695525	-0.342230	0.517967
60480	-9.445124	1.445804	-1.992123	0.000253	-0.024645	-0.052120	-0.361700	-0.695581	-0.342343	0.517824
60481	-9.466287	1.383842	-2.047102	-0.032663	0.049066	-0.029397	-0.361611	-0.695708	-0.342340	0.517717
60482	-9.513458	1.496146	-2.057523	0.054573	-0.007198	0.034886	-0.361500	-0.695833	-0.342316	0.517643
60483	-9.500604	1.385548	-2.050278	-0.041072	0.042843	0.004712	-0.361461	-0.695905	-0.342275	0.517601
60484	-9.420685	1.463300	-1.955240	-0.003971	-0.071388	-0.080863	-0.361319	-0.696055	-0.342196	0.517549
60485	-9.416462	1.457546	-1.993448	0.008787	-0.037897	-0.077878	-0.361217	-0.696175	-0.342170	0.517477
60486	-9.432705	1.497448	-1.987986	0.034178	-0.067936	-0.057454	-0.361051	-0.696346	-0.342156	0.517372
60487	-9.531543	1.466818	-2.045431	0.010862	-0.017606	0.045570	-0.360964	-0.696460	-0.342228	0.517232
60488	-9.458446	1.448010	-2.045252	0.010176	-0.004387	-0.027910	-0.360725	-0.696647	-0.342174	0.517182
60489	-9.474143	1.468705	-2.030654	0.015567	-0.033099	-0.012754	-0.360596	-0.696770	-0.342209	0.517083
60490	-9.392682	1.411111	-1.991899	-0.034031	-0.032386	-0.108092	-0.360271	-0.696988	-0.342134	0.517065
