// General information: 
//  MT Manager version: 2021.0.0 
//  XDA version: 2021.0.0 build 5908 rev 109668 built on 2021-04-19
// Device information: 
//  DeviceId: 00B43DFC
//  ProductCode: MTW2-3A7G6
//  Firmware Version: 4.3.5
//  Hardware Version: 1.1.0
// Device settings: 
//  Filter Profile: human(46.1)
//  Option Flags: Orientation Smoother Disabled, Position/Velocity Smoother Disabled, Continuous Zero Rotation Update Disabled, AHS Disabled, ICC Disabled
// Coordinate system: ENU
PacketCounter	Acc_X	Acc_Y	Acc_Z	FreeAcc_E	FreeAcc_N	FreeAcc_U	Quat_q0	Quat_q1	Quat_q2	Quat_q3
59330	-10.349750	-0.286815	-2.135707	0.712563	0.357633	0.728903	0.347559	0.607365	0.450398	-0.554484
59331	-10.388758	-0.452011	-2.020894	0.515434	0.288157	0.763981	0.349261	0.606056	0.453003	-0.552722
59332	-10.213999	-0.714489	-1.850675	0.196954	0.246096	0.587404	0.351421	0.604679	0.455184	-0.551067
59333	-9.850074	-1.358236	-1.676541	-0.486703	0.369084	0.252423	0.353358	0.603670	0.456464	-0.549874
59334	-9.594942	-1.833871	-1.472200	-1.020490	0.389224	0.005686	0.354628	0.603091	0.456879	-0.549347
59335	-9.533926	-2.017749	-1.550353	-1.172062	0.544559	-0.030032	0.354777	0.603106	0.456186	-0.549810
59336	-9.549376	-1.762756	-1.352910	-0.997164	0.287944	-0.063278	0.353813	0.603669	0.454700	-0.551042
59337	-9.511862	-1.461341	-1.566863	-0.630585	0.404296	-0.091320	0.352487	0.604357	0.452951	-0.552577
59338	-9.393674	-1.046988	-1.605132	-0.219557	0.327992	-0.233651	0.351073	0.605076	0.451230	-0.554096
59339	-9.370500	-0.558789	-1.744826	0.297734	0.295762	-0.273987	0.349629	0.605795	0.449763	-0.555414
59340	-9.545322	-0.200130	-1.642468	0.607591	0.048066	-0.144210	0.348441	0.606404	0.448551	-0.556475
59341	-9.560540	-0.302660	-1.562235	0.488067	0.012526	-0.132928	0.348278	0.606485	0.448091	-0.556860
59342	-9.555132	-0.799106	-1.663853	0.063679	0.290698	-0.085460	0.348755	0.606271	0.448296	-0.556628
59343	-9.567300	-1.100257	-1.779205	-0.176565	0.506513	-0.034056	0.349210	0.606047	0.448491	-0.556430
59344	-9.568548	-1.255723	-1.751842	-0.333214	0.540599	-0.024959	0.349275	0.606066	0.448284	-0.556536
59345	-9.536215	-1.438924	-1.613753	-0.555061	0.489315	-0.062478	0.349181	0.606165	0.447917	-0.556783
59346	-9.468034	-1.544630	-1.783757	-0.590934	0.696643	-0.097914	0.348754	0.606496	0.447530	-0.557002
59347	-9.562520	-1.172315	-1.917242	-0.192146	0.667368	-0.014237	0.347930	0.607078	0.446913	-0.557377
59348	-9.581721	-0.775381	-1.740173	0.112787	0.353460	-0.050457	0.347182	0.607610	0.446361	-0.557705
59349	-9.582026	-0.586349	-1.666502	0.261619	0.212795	-0.075002	0.346700	0.607952	0.446059	-0.557875
59350	-9.679532	-0.503580	-1.604158	0.317126	0.105840	0.006095	0.346487	0.608094	0.446062	-0.557850
59351	-9.819714	-0.591935	-1.661596	0.259819	0.166263	0.159419	0.346479	0.608065	0.446131	-0.557832
59352	-9.821621	-0.654933	-1.535645	0.153654	0.072287	0.148365	0.346566	0.608047	0.446304	-0.557658
59353	-9.759985	-0.798181	-1.526864	0.014346	0.125920	0.097391	0.346909	0.607896	0.446551	-0.557413
59354	-9.666231	-0.943975	-1.339418	-0.195341	0.023332	-0.010522	0.347209	0.607772	0.446718	-0.557227
59355	-9.697174	-1.020917	-1.364189	-0.259448	0.070526	0.029374	0.347238	0.607896	0.446528	-0.557227
59356	-9.657633	-1.016295	-1.122063	-0.348576	-0.142745	-0.044378	0.347090	0.608112	0.445943	-0.557551
59357	-9.579014	-0.943279	-1.124251	-0.283108	-0.147749	-0.127170	0.347130	0.608218	0.445410	-0.557836
59358	-9.707559	-0.748456	-1.426587	0.011947	0.044590	0.027531	0.346895	0.608502	0.444664	-0.558268
59359	-9.775147	-0.483280	-1.354881	0.229972	-0.121830	0.064307	0.346674	0.608828	0.443769	-0.558762
59360	-9.605213	-0.570105	-1.296696	0.121747	-0.107792	-0.104952	0.346786	0.608976	0.443231	-0.558958
59361	-9.428333	-0.608941	-1.389388	0.114081	0.024823	-0.263811	0.347226	0.608862	0.443296	-0.558757
59362	-9.553293	-0.592933	-1.646042	0.224199	0.236094	-0.105967	0.347593	0.608727	0.443546	-0.558478
59363	-9.624768	-0.544285	-1.568591	0.235852	0.135963	-0.049555	0.348490	0.608304	0.444319	-0.557765
59364	-9.583228	-0.637741	-1.734052	0.202924	0.327487	-0.060587	0.349669	0.607704	0.445429	-0.556795
59365	-9.611782	-0.776725	-1.623719	0.024532	0.270029	-0.037586	0.350859	0.607078	0.446626	-0.555769
59366	-9.677312	-0.764179	-1.638872	0.035517	0.265494	0.028475	0.351868	0.606458	0.447776	-0.554882
59367	-9.635432	-0.840460	-1.816706	0.022693	0.461761	0.017603	0.353136	0.605651	0.448898	-0.554050
59368	-9.682186	-0.885818	-1.688775	-0.070033	0.354641	0.048889	0.354335	0.604808	0.449912	-0.553383
59369	-9.813803	-0.832123	-1.430569	-0.113978	0.078050	0.138725	0.355159	0.604314	0.450663	-0.552783
59370	-9.827177	-0.688755	-1.391100	0.001319	-0.008673	0.136327	0.356205	0.603756	0.451308	-0.552195
59371	-9.712710	-0.853864	-1.516890	-0.117265	0.187644	0.052291	0.357402	0.603136	0.451944	-0.551576
59372	-9.611561	-0.870948	-1.569097	-0.122954	0.261876	-0.039304	0.358191	0.602738	0.452403	-0.551123
59373	-9.679863	-0.691139	-1.357133	-0.030961	-0.002867	-0.013797	0.358846	0.602364	0.452722	-0.550844
59374	-9.789166	-0.688658	-1.130311	-0.108142	-0.226740	0.062358	0.359555	0.601955	0.453089	-0.550527
59375	-9.665097	-0.913502	-1.400578	-0.230435	0.125142	-0.007514	0.360454	0.601347	0.453504	-0.550262
59376	-9.577349	-1.022234	-1.548014	-0.284865	0.319259	-0.066722	0.361053	0.600919	0.453702	-0.550174
59377	-9.588368	-1.115391	-1.504125	-0.389839	0.312927	-0.055977	0.361780	0.600524	0.454086	-0.549811
59378	-9.600922	-1.074939	-1.601495	-0.322501	0.389551	-0.033003	0.362075	0.600431	0.454282	-0.549557
59379	-9.634367	-0.800239	-1.579943	-0.073060	0.273278	-0.020976	0.362130	0.600429	0.454277	-0.549526
59380	-9.864725	-0.690775	-1.413304	-0.022912	0.046984	0.176540	0.361950	0.600552	0.454106	-0.549652
59381	-9.925128	-0.927449	-1.361914	-0.263073	0.072066	0.244585	0.362648	0.600131	0.454331	-0.549465
59382	-9.888170	-1.148302	-1.938479	-0.278345	0.694824	0.301261	0.362506	0.600321	0.453744	-0.549837
59383	-9.958414	-0.610945	-1.555136	0.099859	0.155786	0.283226	0.361394	0.601227	0.452150	-0.550891
59384	-9.864691	-0.301319	-1.430944	0.348118	-0.042697	0.153631	0.359981	0.602414	0.450057	-0.552232
59385	-9.832986	-0.299597	-1.084562	0.227663	-0.350063	0.075652	0.358673	0.603577	0.447785	-0.553658
59386	-9.736992	-0.600165	-1.101021	-0.050878	-0.198778	0.002572	0.358020	0.604280	0.445692	-0.555001
59387	-9.693941	-0.742560	-0.897261	-0.259177	-0.308781	-0.057360	0.356958	0.605261	0.443297	-0.556532
59388	-9.564077	-0.770257	-1.053859	-0.228630	-0.113813	-0.163324	0.355726	0.606184	0.440809	-0.558290
59389	-9.690857	-0.266249	-0.968331	0.213115	-0.375072	-0.079490	0.353879	0.607402	0.438009	-0.560339
59390	-9.675038	-0.018528	-0.963601	0.443785	-0.453270	-0.110481	0.352599	0.608286	0.435637	-0.562034
59391	-9.534141	-0.165624	-1.265650	0.424374	-0.087103	-0.203242	0.351946	0.608776	0.434092	-0.563107
59392	-9.655801	-0.006156	-1.182866	0.541610	-0.231103	-0.102541	0.351274	0.609291	0.432977	-0.563828
59393	-9.717304	0.025657	-1.106019	0.539630	-0.317021	-0.052655	0.351461	0.609356	0.432722	-0.563837
59394	-9.611988	-0.539462	-1.609174	0.209883	0.379630	-0.061656	0.352305	0.608935	0.433086	-0.563485
59395	-9.588322	-0.688382	-1.429941	-0.000557	0.278320	-0.097901	0.352341	0.608984	0.433165	-0.563349
59396	-9.704335	-0.595225	-1.218085	0.002698	0.029484	-0.014154	0.352106	0.609180	0.433230	-0.563234
59397	-9.800017	-0.567466	-1.201160	0.022822	-0.015602	0.076922	0.351371	0.609623	0.432896	-0.563471
59398	-9.669796	-0.487708	-1.355975	0.154909	0.107069	-0.037923	0.351316	0.609779	0.433031	-0.563233
59399	-9.669606	-0.500678	-1.521057	0.205068	0.257935	-0.016924	0.351395	0.609735	0.433361	-0.562977
59400	-9.745210	-0.144079	-1.153426	0.391134	-0.228696	-0.008862	0.351423	0.609666	0.433609	-0.562843
59401	-9.809752	-0.281344	-1.131452	0.257655	-0.205389	0.060610	0.352070	0.609133	0.434259	-0.562515
59402	-9.746324	-0.418864	-1.070739	0.107556	-0.198162	-0.001371	0.352830	0.608570	0.435011	-0.562067
59403	-9.758693	-0.609464	-1.000737	-0.095962	-0.192423	0.013745	0.353383	0.608217	0.435683	-0.561581
59404	-9.812872	-0.684645	-1.131082	-0.117215	-0.056400	0.088000	0.353599	0.608134	0.436163	-0.561162
59405	-9.806251	-0.598071	-1.228382	-0.001715	-0.003864	0.088279	0.353396	0.608296	0.436163	-0.561115
59406	-9.745095	-0.642555	-1.291320	-0.020148	0.077378	0.038245	0.353294	0.608416	0.435973	-0.561196
59407	-9.583297	-0.685100	-1.380624	-0.026485	0.202195	-0.108385	0.354184	0.607701	0.436469	-0.561024
59408	-9.666965	-0.384649	-1.307489	0.227816	0.018995	-0.052799	0.354393	0.607330	0.436468	-0.561295
59409	-9.670921	-0.348038	-1.086198	0.180946	-0.192169	-0.078315	0.354896	0.606941	0.436762	-0.561169
59410	-9.679907	-0.752776	-1.300637	-0.113007	0.158402	-0.018757	0.355724	0.606362	0.437388	-0.560783
59411	-9.682531	-0.875581	-1.296280	-0.229355	0.201320	-0.009358	0.356126	0.606065	0.437794	-0.560533
59412	-9.662698	-0.752399	-1.336917	-0.100311	0.195551	-0.031436	0.356340	0.605884	0.438054	-0.560389
59413	-9.669879	-0.878538	-1.427518	-0.183512	0.324640	-0.005694	0.356679	0.605618	0.438368	-0.560214
59414	-9.638374	-0.833423	-1.376386	-0.159511	0.268172	-0.045911	0.357209	0.605073	0.438755	-0.560163
59415	-9.679227	-0.616519	-1.385229	0.048389	0.195216	-0.017488	0.357488	0.604743	0.439015	-0.560138
59416	-9.653513	-0.670435	-1.277353	-0.040644	0.121506	-0.052820	0.357963	0.604378	0.439380	-0.559941
59417	-9.574376	-0.880051	-1.417017	-0.185954	0.338390	-0.101765	0.358569	0.603977	0.439952	-0.559538
59418	-9.697335	-0.829296	-1.477292	-0.116992	0.357615	0.024327	0.358756	0.603860	0.440276	-0.559289
59419	-9.696401	-0.794168	-1.504222	-0.076607	0.366812	0.024647	0.359031	0.603744	0.440660	-0.558935
59420	-9.647922	-0.851749	-1.427197	-0.161018	0.319749	-0.029201	0.359006	0.603798	0.440786	-0.558794
59421	-9.717160	-0.807594	-1.348254	-0.149100	0.219745	0.027164	0.359238	0.603651	0.441022	-0.558617
59422	-9.650350	-0.763428	-1.375086	-0.099672	0.238006	-0.038417	0.359559	0.603417	0.441283	-0.558458
59423	-9.664196	-0.786612	-1.392394	-0.115708	0.260800	-0.021222	0.359770	0.603299	0.441486	-0.558289
59424	-9.694628	-0.757894	-1.408041	-0.083910	0.260151	0.009129	0.359816	0.603287	0.441561	-0.558212
59425	-9.681479	-0.778960	-1.403115	-0.105910	0.263399	-0.003205	0.359812	0.603277	0.441693	-0.558121
59426	-9.726827	-0.639655	-1.291156	-0.015777	0.102426	0.019742	0.359758	0.603281	0.441719	-0.558131
59427	-9.704743	-0.650709	-1.269576	-0.033783	0.088856	-0.004108	0.359892	0.603171	0.441881	-0.558035
59428	-9.718976	-0.709166	-1.263654	-0.090363	0.102280	0.012770	0.360088	0.603019	0.442081	-0.557915
59429	-9.806360	-0.675442	-1.179164	-0.088705	0.000372	0.086983	0.360189	0.602966	0.442159	-0.557845
59430	-9.679234	-0.708439	-1.245059	-0.098067	0.090560	-0.028935	0.360434	0.602829	0.442342	-0.557690
59431	-9.717554	-0.610717	-1.287575	0.008060	0.089995	0.008388	0.360486	0.602802	0.442405	-0.557636
59432	-9.673025	-0.566770	-1.370800	0.077850	0.157226	-0.028161	0.360549	0.602796	0.442433	-0.557579
59433	-9.664805	-0.600548	-1.366492	0.043876	0.166474	-0.034816	0.360546	0.602832	0.442383	-0.557582
59434	-9.655894	-0.613178	-1.293477	0.005069	0.104861	-0.051829	0.360708	0.602727	0.442527	-0.557477
59435	-9.656271	-0.610568	-1.420981	0.052536	0.220475	-0.035971	0.360800	0.602680	0.442770	-0.557275
59436	-9.706487	-0.525929	-1.243398	0.067771	0.016045	-0.013010	0.360747	0.602704	0.442928	-0.557157
59437	-9.646259	-0.625537	-1.354846	0.013740	0.158693	-0.052982	0.360847	0.602624	0.443286	-0.556894
59438	-9.719739	-0.579808	-1.290786	0.033967	0.069418	0.009209	0.360985	0.602497	0.443630	-0.556668
59439	-9.790113	-0.580402	-1.349798	0.055490	0.111155	0.086287	0.360975	0.602454	0.443878	-0.556523
59440	-9.769769	-0.478159	-1.254457	0.116734	-0.014688	0.048187	0.360987	0.602437	0.444175	-0.556298
59441	-9.656528	-0.585394	-1.433623	0.078135	0.199893	-0.035140	0.361122	0.602360	0.444542	-0.556000
59442	-9.712959	-0.581052	-1.338948	0.048080	0.098477	0.008716	0.361267	0.602251	0.444941	-0.555705
59443	-9.690263	-0.592490	-1.322078	0.030202	0.084916	-0.015137	0.361377	0.602177	0.445372	-0.555368
59444	-9.758857	-0.522842	-1.223686	0.060109	-0.045810	0.036188	0.361479	0.602118	0.445775	-0.555041
59445	-9.681064	-0.666660	-1.385726	-0.019373	0.160226	-0.011584	0.361581	0.602055	0.446125	-0.554763
59446	-9.741932	-0.648772	-1.270023	-0.043560	0.034061	0.032924	0.361665	0.602001	0.446402	-0.554543
59447	-9.714892	-0.639262	-1.294706	-0.026962	0.054605	0.008735	0.361704	0.601973	0.446563	-0.554419
59448	-9.728350	-0.670239	-1.268456	-0.065603	0.037136	0.020589	0.361805	0.601918	0.446737	-0.554272
59449	-9.758190	-0.603745	-1.226479	-0.018443	-0.029647	0.040729	0.362009	0.601785	0.446910	-0.554144
59450	-9.675513	-0.680515	-1.415957	-0.025347	0.184386	-0.012231	0.362025	0.601778	0.446935	-0.554121
59451	-9.666195	-0.659971	-1.367095	-0.023772	0.132161	-0.028935	0.361963	0.601849	0.446962	-0.554063
59452	-9.633452	-0.567267	-1.435412	0.085673	0.165380	-0.058155	0.361977	0.601868	0.447145	-0.553886
59453	-9.664913	-0.635701	-1.430609	0.018858	0.176742	-0.023423	0.362105	0.601812	0.447421	-0.553639
59454	-9.681463	-0.594422	-1.259976	-0.003234	-0.002388	-0.031502	0.362077	0.601857	0.447660	-0.553415
59455	-9.717317	-0.681312	-1.338593	-0.057262	0.090581	0.019443	0.362089	0.601804	0.447953	-0.553228
59456	-9.716640	-0.683038	-1.342622	-0.057291	0.090530	0.019443	0.362022	0.601825	0.448167	-0.553077
59457	-9.737673	-0.642894	-1.265119	-0.046319	-0.002334	0.027738	0.361976	0.601839	0.448338	-0.552952
59458	-9.711109	-0.688943	-1.336533	-0.065386	0.079573	0.013604	0.361894	0.601912	0.448480	-0.552812
59459	-9.692193	-0.644622	-1.366064	-0.014712	0.090843	-0.003925	0.361877	0.601959	0.448608	-0.552668
59460	-9.739523	-0.578776	-1.289820	0.019927	-0.013284	0.028875	0.361778	0.602064	0.448737	-0.552514
59461	-9.734517	-0.596183	-1.394230	0.038952	0.086883	0.038763	0.361771	0.602078	0.448847	-0.552413
59462	-9.668932	-0.676586	-1.422773	-0.028012	0.147928	-0.017401	0.361838	0.602049	0.449048	-0.552238
59463	-9.734652	-0.669356	-1.433702	-0.016904	0.143537	0.048656	0.361727	0.602098	0.449092	-0.552221
59464	-9.715369	-0.581115	-1.449338	0.071753	0.128828	0.026262	0.361627	0.602131	0.449108	-0.552238
59465	-9.707019	-0.613121	-1.367029	0.012853	0.062448	0.009066	0.361571	0.602218	0.449161	-0.552136
59466	-9.673090	-0.774597	-1.501815	-0.093806	0.245800	0.003366	0.361739	0.602161	0.449327	-0.551953
59467	-9.671906	-0.742681	-1.606632	-0.028698	0.330706	0.014236	0.361609	0.602267	0.449316	-0.551931
59468	-9.675115	-0.657433	-1.552426	0.032898	0.249252	0.004995	0.361296	0.602478	0.449057	-0.552117
59469	-9.662428	-0.676134	-1.466283	-0.013929	0.176889	-0.017884	0.361116	0.602599	0.448916	-0.552217
59470	-9.698072	-0.655978	-1.323294	-0.043868	0.031261	-0.002942	0.360778	0.602846	0.448635	-0.552397
59471	-9.701304	-0.580563	-1.303807	0.020040	-0.014761	-0.006993	0.360503	0.603075	0.448441	-0.552484
59472	-9.714396	-0.615337	-1.358337	0.006270	0.043353	0.015400	0.360190	0.603335	0.448258	-0.552553
59473	-9.681699	-0.540297	-1.414876	0.095477	0.072039	-0.013974	0.359987	0.603510	0.448148	-0.552583
59474	-9.704417	-0.619747	-1.461062	0.037361	0.137418	0.019617	0.359954	0.603530	0.448165	-0.552569
59475	-9.686616	-0.659453	-1.555658	0.034294	0.240874	0.017180	0.359759	0.603585	0.448064	-0.552718
59476	-9.690778	-0.519308	-1.249109	0.059643	-0.093322	-0.028575	0.359540	0.603680	0.447998	-0.552811
59477	-9.673101	-0.555650	-1.265928	0.031901	-0.065412	-0.041561	0.359484	0.603719	0.448171	-0.552664
59478	-9.672290	-0.577681	-1.338811	0.036476	0.005368	-0.031176	0.359391	0.603784	0.448348	-0.552510
59479	-9.684532	-0.607217	-1.440683	0.045152	0.103666	-0.003424	0.359106	0.603938	0.448339	-0.552534
59480	-9.727885	-0.508286	-1.293637	0.087449	-0.077197	0.013298	0.358903	0.604034	0.448384	-0.552525
59481	-9.688469	-0.544732	-1.254464	0.039427	-0.098275	-0.028740	0.359061	0.603896	0.448735	-0.552288
59482	-9.670052	-0.584019	-1.352165	0.036449	0.005159	-0.031175	0.359409	0.603617	0.449327	-0.551885
59483	-9.667247	-0.492828	-1.459646	0.159660	0.068939	-0.024998	0.359337	0.603580	0.449668	-0.551694
59484	-9.678830	-0.430435	-1.459434	0.219629	0.039664	-0.017527	0.359245	0.603535	0.450008	-0.551527
59485	-9.688328	-0.502196	-1.399297	0.132647	0.002017	-0.011854	0.359348	0.603391	0.450433	-0.551270
59486	-9.667200	-0.611242	-1.358922	0.016200	0.000199	-0.031339	0.359652	0.603128	0.451079	-0.550832
59487	-9.724109	-0.676652	-1.425168	-0.022334	0.071140	0.038287	0.360182	0.602723	0.451792	-0.550344
59488	-9.719888	-0.817584	-1.529039	-0.119843	0.213781	0.057600	0.360570	0.602417	0.452274	-0.550028
59489	-9.664175	-0.939929	-1.469051	-0.256003	0.206337	0.002085	0.360602	0.602336	0.452443	-0.549957
59490	-9.677277	-0.965385	-1.487487	-0.272281	0.228942	0.019287	0.360454	0.602385	0.452386	-0.550048
59491	-9.661471	-0.924513	-1.686225	-0.164163	0.402186	0.028725	0.360241	0.602496	0.452182	-0.550232
59492	-9.639601	-0.853938	-1.594201	-0.128345	0.296561	-0.010230	0.359892	0.602740	0.451850	-0.550467
59493	-9.736094	-0.791336	-1.594670	-0.067586	0.261063	0.081149	0.359761	0.602851	0.451697	-0.550556
59494	-9.744782	-0.747222	-1.563934	-0.035827	0.216342	0.082610	0.359430	0.603057	0.451390	-0.550799
59495	-9.731646	-0.779751	-1.590857	-0.055584	0.254922	0.075472	0.359074	0.603295	0.451006	-0.551084
59496	-9.665605	-0.668163	-1.454877	0.002569	0.101015	-0.015911	0.358607	0.603598	0.450588	-0.551399
59497	-9.678624	-0.583242	-1.380920	0.057988	0.000957	-0.018837	0.358077	0.603970	0.450081	-0.551750
59498	-9.700828	-0.552376	-1.334372	0.071409	-0.056454	-0.005371	0.357873	0.604143	0.449853	-0.551879
59499	-9.727129	-0.621092	-1.437707	0.043616	0.059755	0.039435	0.357777	0.604235	0.449639	-0.552015
59500	-9.723988	-0.620275	-1.342178	0.010898	-0.026688	0.023028	0.357652	0.604332	0.449404	-0.552181
59501	-9.741768	-0.651398	-1.404719	0.004980	0.042195	0.051277	0.357492	0.604416	0.449055	-0.552476
59502	-9.618849	-0.688058	-1.431787	-0.019107	0.102993	-0.064112	0.357253	0.604525	0.448609	-0.552873
59503	-9.604288	-0.617358	-1.525503	0.082209	0.170042	-0.070257	0.356969	0.604696	0.448292	-0.553128
59504	-9.635282	-0.474712	-1.367831	0.160985	-0.028813	-0.070602	0.356895	0.604732	0.448116	-0.553278
59505	-9.600077	-0.680446	-1.634178	0.062873	0.296030	-0.055462	0.357177	0.604558	0.448350	-0.553097
59506	-9.652839	-0.610039	-1.568885	0.105766	0.202726	-0.016843	0.357169	0.604526	0.448442	-0.553063
59507	-9.670381	-0.621449	-1.567023	0.095408	0.200649	0.001011	0.357104	0.604523	0.448547	-0.553023
59508	-9.724149	-0.649242	-1.479666	0.039829	0.119003	0.043998	0.357046	0.604524	0.448670	-0.552959
59509	-9.698693	-0.659660	-1.364747	-0.010763	0.019036	0.003720	0.357226	0.604379	0.448859	-0.552848
59510	-9.685665	-0.746857	-1.438114	-0.066298	0.118898	0.006658	0.357256	0.604335	0.448954	-0.552800
59511	-9.721036	-0.788747	-1.499269	-0.082526	0.185774	0.052765	0.357453	0.604123	0.449053	-0.552823
59512	-9.602176	-0.821853	-1.541623	-0.098612	0.257306	-0.056771	0.357503	0.604033	0.449003	-0.552931
59513	-9.664266	-0.828415	-1.568432	-0.093375	0.277670	0.008640	0.357489	0.604033	0.448857	-0.553058
59514	-9.663145	-0.742840	-1.624060	0.007454	0.301373	0.009475	0.357245	0.604184	0.448562	-0.553290
59515	-9.566006	-0.612421	-1.462843	0.072163	0.122003	-0.117155	0.356964	0.604363	0.448303	-0.553485
59516	-9.649611	-0.598588	-1.480059	0.093167	0.120383	-0.033081	0.356904	0.604386	0.448263	-0.553531
59517	-9.659130	-0.634079	-1.437967	0.046563	0.092032	-0.027088	0.356798	0.604359	0.448294	-0.553605
59518	-9.769539	-0.620075	-1.400158	0.048679	0.034304	0.075957	0.356919	0.604260	0.448520	-0.553451
59519	-9.717272	-0.620259	-1.306421	0.014794	-0.045120	0.011496	0.357024	0.604141	0.448648	-0.553409
59520	-9.593166	-0.622589	-1.361051	0.030961	0.025188	-0.103551	0.357058	0.604088	0.448710	-0.553396
59521	-9.597875	-0.692260	-1.408541	-0.017060	0.092331	-0.087792	0.357158	0.604010	0.448854	-0.553299
59522	-9.743200	-0.674335	-1.421898	0.007037	0.075582	0.056492	0.357139	0.603953	0.448960	-0.553287
59523	-9.747169	-0.578076	-1.334096	0.066786	-0.041235	0.042013	0.357365	0.603747	0.449329	-0.553067
59524	-9.698564	-0.635168	-1.380028	0.029535	0.027095	0.004056	0.357636	0.603470	0.449737	-0.552863
59525	-9.670706	-0.519428	-1.390981	0.142520	0.000750	-0.029699	0.358022	0.603090	0.450246	-0.552613
59526	-9.652852	-0.548853	-1.450138	0.137094	0.068726	-0.037301	0.358352	0.602731	0.450646	-0.552465
59527	-9.711894	-0.690674	-1.419287	-0.004577	0.080166	0.026309	0.358833	0.602318	0.451215	-0.552139
59528	-9.787803	-0.855769	-1.500921	-0.129931	0.200742	0.123560	0.359438	0.601830	0.451841	-0.551765
59529	-9.752482	-0.918059	-1.575248	-0.163233	0.296558	0.102984	0.359777	0.601523	0.452204	-0.551582
59530	-9.681140	-0.815122	-1.585068	-0.063649	0.283216	0.026880	0.360085	0.601231	0.452412	-0.551528
59531	-9.575205	-0.771624	-1.588208	-0.021926	0.290286	-0.080390	0.360092	0.601145	0.452348	-0.551671
59532	-9.575888	-0.734952	-1.526655	-0.006154	0.224080	-0.090639	0.360061	0.601066	0.452166	-0.551925
59533	-9.660527	-0.756571	-1.516999	-0.025582	0.212895	-0.006899	0.359937	0.601055	0.452027	-0.552131
59534	-9.726922	-0.705200	-1.510197	0.023718	0.182620	0.054283	0.360082	0.600885	0.451963	-0.552274
59535	-9.710946	-0.743048	-1.394185	-0.051027	0.094505	0.025342	0.360338	0.600677	0.452022	-0.552287
59536	-9.675649	-0.752817	-1.499981	-0.023883	0.204658	0.005276	0.360624	0.600435	0.452191	-0.552224
59537	-9.667262	-0.760546	-1.470914	-0.040019	0.183020	-0.006421	0.360470	0.600466	0.452093	-0.552371
59538	-9.667437	-0.732115	-1.367181	-0.046591	0.076713	-0.022056	0.360184	0.600566	0.451965	-0.552554
59539	-9.661858	-0.624108	-1.387913	0.064057	0.059184	-0.032109	0.360053	0.600585	0.451955	-0.552626
59540	-9.648953	-0.653173	-1.336193	0.019798	0.022016	-0.049826	0.360084	0.600536	0.452058	-0.552575
59541	-9.666693	-0.691390	-1.356716	-0.008508	0.050601	-0.026931	0.360210	0.600429	0.452239	-0.552462
59542	-9.680423	-0.730480	-1.283744	-0.069319	-0.007341	-0.020480	0.360103	0.600431	0.452301	-0.552478
59543	-9.733088	-0.756154	-1.321739	-0.077990	0.026787	0.038453	0.360028	0.600419	0.452409	-0.552452
59544	-9.714612	-0.789069	-1.463018	-0.059004	0.170430	0.041459	0.359867	0.600463	0.452363	-0.552547
59545	-9.657452	-0.825435	-1.457859	-0.094380	0.186601	-0.013231	0.359844	0.600425	0.452334	-0.552627
59546	-9.634982	-0.784704	-1.470091	-0.051829	0.187333	-0.036593	0.359863	0.600412	0.452430	-0.552550
59547	-9.718690	-0.749699	-1.420149	-0.035180	0.114835	0.037053	0.359814	0.600477	0.452465	-0.552483
59548	-9.758914	-0.808345	-1.360886	-0.110364	0.071573	0.072885	0.359746	0.600525	0.452503	-0.552443
59549	-9.674657	-0.833756	-1.380572	-0.129184	0.108432	-0.005972	0.359725	0.600529	0.452685	-0.552303
59550	-9.677741	-0.817407	-1.488899	-0.076593	0.199450	0.010652	0.359521	0.600674	0.452685	-0.552279
59551	-9.716985	-0.696861	-1.384236	0.000808	0.052924	0.026963	0.359458	0.600752	0.452683	-0.552236
59552	-9.682457	-0.724552	-1.276676	-0.063458	-0.033265	-0.019847	0.359436	0.600781	0.452659	-0.552238
59553	-9.659808	-0.720761	-1.347020	-0.036736	0.033593	-0.032944	0.359519	0.600759	0.452767	-0.552121
59554	-9.663533	-0.710351	-1.407853	-0.006433	0.084481	-0.021705	0.359322	0.600904	0.452674	-0.552168
59555	-9.703203	-0.635045	-1.313612	0.032755	-0.036162	-0.000520	0.359166	0.600993	0.452613	-0.552222
59556	-9.716715	-0.704295	-1.342685	-0.021617	0.012281	0.021577	0.359198	0.600978	0.452564	-0.552257
59557	-9.717426	-0.755472	-1.307823	-0.082059	-0.002263	0.021070	0.359288	0.600939	0.452634	-0.552184
59558	-9.680225	-0.718115	-1.531344	0.029841	0.198067	0.012146	0.359094	0.601033	0.452499	-0.552318
59559	-9.670767	-0.564106	-1.447590	0.146262	0.068457	-0.019251	0.358942	0.601114	0.452472	-0.552352
59560	-9.617638	-0.651473	-1.504065	0.082825	0.156659	-0.057987	0.358888	0.601182	0.452507	-0.552284
59561	-9.648363	-0.620627	-1.441649	0.090084	0.080661	-0.038240	0.358768	0.601274	0.452593	-0.552191
59562	-9.668297	-0.591097	-1.604863	0.174741	0.214857	0.001805	0.358690	0.601278	0.452813	-0.552056
59563	-9.730164	-0.503075	-1.454773	0.207600	0.032090	0.036242	0.358604	0.601251	0.453022	-0.551971
59564	-9.646326	-0.581900	-1.440030	0.128372	0.054500	-0.043120	0.358601	0.601172	0.453272	-0.551853
59565	-9.632911	-0.594693	-1.402292	0.104324	0.022177	-0.060678	0.358494	0.601170	0.453477	-0.551757
59566	-9.635887	-0.615241	-1.488396	0.116580	0.103687	-0.044381	0.358326	0.601160	0.453734	-0.551665
59567	-9.678464	-0.453742	-1.468666	0.264611	0.018004	-0.016505	0.358036	0.601222	0.453964	-0.551596
59568	-9.685850	-0.433839	-1.512132	0.300766	0.044242	-0.004628	0.357957	0.601156	0.454306	-0.551439
59569	-9.638499	-0.582439	-1.378633	0.116024	-0.027604	-0.059416	0.358029	0.600995	0.454790	-0.551168
59570	-9.677487	-0.692638	-1.413563	0.027062	0.030595	-0.008097	0.358218	0.600702	0.455398	-0.550862
59571	-9.623155	-0.586180	-1.436860	0.136534	0.020467	-0.066189	0.358196	0.600544	0.455777	-0.550736
59572	-9.658252	-0.645610	-1.411329	0.075580	0.006588	-0.030830	0.358315	0.600278	0.456324	-0.550496
59573	-9.527913	-0.763086	-1.548623	0.011483	0.188620	-0.131471	0.358538	0.599955	0.457029	-0.550118
59574	-9.532907	-0.757487	-1.407594	-0.029163	0.047885	-0.146857	0.358703	0.599660	0.457790	-0.549698
59575	-9.677692	-0.814012	-1.382738	-0.085647	0.011809	-0.003262	0.358758	0.599459	0.458495	-0.549294
59576	-9.779538	-0.818919	-1.278276	-0.121549	-0.107814	0.082644	0.359036	0.599132	0.459208	-0.548873
59577	-9.732266	-1.044290	-1.435734	-0.281487	0.114492	0.075514	0.359339	0.598825	0.459837	-0.548483
59578	-9.700252	-1.127986	-1.470503	-0.349364	0.175845	0.055273	0.359629	0.598561	0.460249	-0.548236
59579	-9.666748	-1.064851	-1.638769	-0.233904	0.316219	0.041793	0.359515	0.598574	0.460256	-0.548290
59580	-9.655084	-0.994765	-1.528050	-0.203778	0.191899	0.009064	0.359458	0.598603	0.460183	-0.548358
59581	-9.659029	-0.938975	-1.574439	-0.135403	0.217062	0.015432	0.359428	0.598631	0.460109	-0.548409
59582	-9.739352	-0.953832	-1.520888	-0.164792	0.159451	0.088085	0.359191	0.598791	0.459887	-0.548576
59583	-9.748522	-0.830166	-1.501100	-0.054420	0.098793	0.084961	0.359155	0.598832	0.459899	-0.548544
59584	-9.658340	-0.914452	-1.630665	-0.093097	0.261781	0.021011	0.359180	0.598846	0.459801	-0.548595
59585	-9.662985	-0.909911	-1.642295	-0.085091	0.272416	0.026870	0.359172	0.598876	0.459643	-0.548699
59586	-9.669800	-0.776033	-1.493165	-0.008962	0.089831	0.002028	0.358809	0.599220	0.459221	-0.548915
59587	-9.710016	-0.843805	-1.467303	-0.081978	0.081877	0.043071	0.358651	0.599462	0.458898	-0.549024
59588	-9.625600	-0.876068	-1.517988	-0.098875	0.154154	-0.030539	0.358387	0.599748	0.458506	-0.549212
59589	-9.608373	-0.836952	-1.497383	-0.070514	0.125437	-0.053447	0.358153	0.600011	0.458176	-0.549353
59590	-9.678292	-0.649463	-1.552975	0.125779	0.104578	0.009538	0.357939	0.600184	0.457896	-0.549536
59591	-9.726139	-0.545722	-1.619926	0.247964	0.126417	0.058599	0.357621	0.600409	0.457434	-0.549882
59592	-9.733054	-0.535407	-1.470497	0.207506	-0.014379	0.043179	0.357595	0.600475	0.457206	-0.550017
59593	-9.614795	-0.667790	-1.444869	0.070395	0.027980	-0.067322	0.357732	0.600494	0.457036	-0.550047
59594	-9.596028	-0.818836	-1.583853	-0.027675	0.213374	-0.054791	0.358022	0.600445	0.457048	-0.549904
59595	-9.614094	-0.915377	-1.603136	-0.114459	0.262772	-0.027157	0.357961	0.600616	0.456761	-0.549995
59596	-9.635973	-0.824122	-1.634677	-0.018080	0.260223	-0.007827	0.357733	0.600796	0.456405	-0.550242
59597	-9.637687	-0.792942	-1.529080	-0.024194	0.153786	-0.023529	0.357579	0.600926	0.456095	-0.550457
59598	-9.606658	-0.724052	-1.535861	0.042687	0.142776	-0.058263	0.357306	0.601126	0.455866	-0.550605
59599	-9.615342	-0.662284	-1.518517	0.094886	0.103104	-0.056680	0.357051	0.601355	0.455683	-0.550671
59600	-9.604028	-0.686339	-1.687971	0.129480	0.268291	-0.041867	0.356959	0.601474	0.455640	-0.550637
59601	-9.755255	-0.623520	-1.579324	0.153411	0.120580	0.087311	0.356797	0.601613	0.455541	-0.550673
59602	-9.691412	-0.595345	-1.388063	0.111891	-0.057202	-0.005097	0.356833	0.601645	0.455547	-0.550609
59603	-9.656015	-0.770247	-1.428779	-0.040460	0.044818	-0.021382	0.356919	0.601649	0.455589	-0.550514
59604	-9.627876	-0.744610	-1.542713	0.020452	0.146080	-0.034720	0.357128	0.601564	0.455749	-0.550339
59605	-9.707846	-0.767218	-1.523861	-0.006900	0.123882	0.043156	0.357178	0.601547	0.455718	-0.550351
59606	-9.711877	-0.638646	-1.536517	0.117786	0.092845	0.039562	0.357373	0.601417	0.455851	-0.550256
59607	-9.681463	-0.710044	-1.532119	0.047814	0.118732	0.014107	0.357596	0.601291	0.455974	-0.550147
59608	-9.596834	-0.753544	-1.616332	0.032977	0.226550	-0.054247	0.357910	0.601089	0.456164	-0.550006
59609	-9.634477	-0.741248	-1.805397	0.108992	0.394377	0.008954	0.358201	0.600877	0.456304	-0.549932
59610	-9.606302	-0.850071	-1.652131	-0.047707	0.294392	-0.032900	0.358509	0.600744	0.456497	-0.549717
59611	-9.570720	-0.944656	-1.704604	-0.121672	0.380283	-0.053727	0.358645	0.600698	0.456610	-0.549585
59612	-9.579671	-0.809156	-1.652227	-0.013247	0.284298	-0.062114	0.358801	0.600602	0.456808	-0.549423
59613	-9.672574	-0.828958	-1.630290	-0.038683	0.254197	0.027922	0.358952	0.600523	0.457042	-0.549217
59614	-9.619119	-0.797591	-1.640372	-0.007697	0.260218	-0.025622	0.358957	0.600528	0.457084	-0.549172
59615	-9.669899	-0.808074	-1.470393	-0.074858	0.096549	0.000929	0.359170	0.600395	0.457335	-0.548969
59616	-9.770418	-0.751481	-1.521135	-0.003863	0.107484	0.103365	0.359394	0.600257	0.457642	-0.548717
59617	-9.713571	-0.729962	-1.471185	-0.003085	0.062349	0.038546	0.359691	0.600094	0.457845	-0.548533
59618	-9.628509	-0.872345	-1.613993	-0.092478	0.256854	-0.014747	0.360024	0.599888	0.458052	-0.548366
59619	-9.660525	-0.723445	-1.501619	0.009691	0.098794	-0.009926	0.359960	0.599969	0.457986	-0.548375
59620	-9.691866	-0.728189	-1.492899	0.001184	0.088588	0.020086	0.360403	0.599752	0.458151	-0.548183
59621	-9.679066	-0.872044	-1.564738	-0.113425	0.208967	0.027875	0.360932	0.599468	0.458288	-0.548032
59622	-9.645719	-0.835142	-1.452873	-0.118942	0.101739	-0.023729	0.361260	0.599309	0.458403	-0.547894
59623	-9.662168	-0.704462	-1.538492	0.031780	0.138631	-0.004503	0.361468	0.599164	0.458494	-0.547838
59624	-9.668322	-0.632166	-1.389804	0.049843	-0.022945	-0.024703	0.361667	0.599070	0.458592	-0.547728
59625	-9.650170	-0.728581	-1.485397	-0.012360	0.101223	-0.022253	0.362240	0.598768	0.459011	-0.547328
59626	-9.654400	-0.748749	-1.523023	-0.022581	0.142350	-0.011315	0.362607	0.598617	0.459282	-0.547023
59627	-9.670773	-0.679479	-1.611370	0.069610	0.200099	0.012646	0.362736	0.598584	0.459328	-0.546934
59628	-9.685435	-0.627031	-1.511586	0.085492	0.090604	0.009237	0.363194	0.598269	0.459483	-0.546845
59629	-9.721681	-0.672244	-1.525012	0.046784	0.116903	0.050010	0.363799	0.597854	0.459810	-0.546622
59630	-9.679942	-0.606794	-1.327967	0.041401	-0.077860	-0.023653	0.364388	0.597521	0.460148	-0.546309
59631	-9.695474	-0.799810	-1.692812	-0.025585	0.325651	0.056498	0.365063	0.597109	0.460527	-0.545989
59632	-9.670969	-0.728429	-1.505217	-0.021101	0.133733	0.000854	0.365133	0.597098	0.460511	-0.545969
59633	-9.671357	-0.627333	-1.444529	0.053392	0.046882	-0.014202	0.365632	0.596805	0.460775	-0.545732
59634	-9.641382	-0.696807	-1.440820	-0.016638	0.072640	-0.039653	0.366125	0.596531	0.461051	-0.545467
59635	-9.654148	-0.755382	-1.595226	-0.025032	0.236856	-0.001409	0.366639	0.596225	0.461274	-0.545270
59636	-9.699560	-0.720158	-1.520029	-0.015573	0.152713	0.030433	0.366778	0.596101	0.461173	-0.545397
59637	-9.630176	-0.586099	-1.341433	0.054080	-0.041974	-0.072124	0.366889	0.595989	0.461146	-0.545467
59638	-9.691833	-0.636864	-1.461083	0.045018	0.079526	0.008902	0.367188	0.595814	0.461239	-0.545378
59639	-9.740749	-0.616791	-1.469890	0.066370	0.077155	0.057107	0.367507	0.595632	0.461337	-0.545278
59640	-9.715317	-0.602864	-1.407026	0.058696	0.022086	0.022281	0.367733	0.595455	0.461271	-0.545376
59641	-9.654711	-0.631182	-1.351018	0.013177	-0.008091	-0.043510	0.367838	0.595385	0.461201	-0.545441
59642	-9.720987	-0.532813	-1.331021	0.100809	-0.063769	0.012732	0.368311	0.595075	0.461398	-0.545292
59643	-9.655076	-0.692867	-1.585741	0.026893	0.239819	-0.006725	0.368767	0.594791	0.461506	-0.545203
59644	-9.678045	-0.587763	-1.418370	0.073076	0.050578	-0.014019	0.369025	0.594627	0.461617	-0.545114
59645	-9.657010	-0.668990	-1.430025	-0.001273	0.092928	-0.027918	0.369344	0.594389	0.461704	-0.545084
59646	-9.711157	-0.698177	-1.338454	-0.056312	0.010811	0.014937	0.369435	0.594286	0.461725	-0.545117
59647	-9.746690	-0.683498	-1.352203	-0.036656	0.016393	0.050982	0.369553	0.594181	0.461687	-0.545183
59648	-9.644355	-0.591644	-1.436737	0.075374	0.084768	-0.044628	0.369567	0.594168	0.461674	-0.545199
59649	-9.705594	-0.581145	-1.557358	0.124693	0.185718	0.031682	0.369498	0.594198	0.461657	-0.545227
59650	-9.646042	-0.216884	-1.439237	0.433795	-0.028675	-0.067147	0.369165	0.594358	0.461384	-0.545509
59651	-9.579768	-0.171900	-1.382857	0.458964	-0.085410	-0.143361	0.369531	0.594031	0.461818	-0.545251
59652	-9.638080	-0.288048	-1.333855	0.335389	-0.105555	-0.084836	0.369855	0.593680	0.462397	-0.544923
59653	-9.785850	-0.479944	-1.057256	0.070022	-0.333026	0.035926	0.370563	0.593131	0.463420	-0.544169
59654	-9.818014	-0.851738	-1.269125	-0.218883	-0.027213	0.121138	0.371669	0.592317	0.464311	-0.543542
59655	-9.661126	-1.280736	-1.572585	-0.539658	0.414610	0.035537	0.372417	0.591762	0.464722	-0.543283
59656	-9.644601	-1.277932	-1.524379	-0.551486	0.376235	0.012254	0.372348	0.591740	0.464427	-0.543608
59657	-9.719816	-1.130043	-1.433616	-0.433676	0.240879	0.064609	0.371947	0.591967	0.463860	-0.544119
59658	-9.753894	-0.870202	-1.674778	-0.108361	0.391235	0.113831	0.371651	0.592138	0.463243	-0.544659
59659	-9.621694	-0.744940	-1.737910	0.030218	0.439226	-0.016850	0.371324	0.592384	0.462569	-0.545188
59660	-9.626906	-0.695510	-1.652549	0.052414	0.348585	-0.026589	0.371081	0.592612	0.462035	-0.545558
59661	-9.675768	-0.612155	-1.417231	0.060298	0.098142	-0.015213	0.370744	0.592883	0.461530	-0.545920
59662	-9.672902	-0.775874	-1.463297	-0.080838	0.194515	-0.001271	0.370582	0.593078	0.461175	-0.546118
59663	-9.646281	-0.738067	-1.460179	-0.046282	0.184751	-0.030493	0.370020	0.593513	0.460640	-0.546478
59664	-9.641699	-0.714870	-1.342739	-0.060036	0.067503	-0.052145	0.369505	0.593881	0.460156	-0.546834
59665	-9.746240	-0.517271	-1.124909	0.061912	-0.214767	0.009340	0.368921	0.594279	0.459704	-0.547176
59666	-9.617570	-0.499803	-1.385231	0.159750	0.041956	-0.084428	0.368776	0.594368	0.459591	-0.547272
59667	-9.740242	-0.338122	-1.187805	0.253182	-0.211705	-0.000012	0.368631	0.594453	0.459436	-0.547408
59668	-9.732647	-0.479325	-1.196918	0.122194	-0.156757	0.002978	0.368792	0.594363	0.459463	-0.547374
59669	-9.702519	-0.559726	-1.148848	0.030139	-0.171514	-0.027918	0.368726	0.594387	0.459442	-0.547410
59670	-9.679846	-0.512734	-1.286640	0.118719	-0.054168	-0.035125	0.368644	0.594421	0.459434	-0.547436
59671	-9.750217	-0.493867	-1.354425	0.159749	-0.007403	0.042237	0.368847	0.594261	0.459666	-0.547278
59672	-9.639912	-0.545037	-1.453092	0.140677	0.116308	-0.050356	0.368809	0.594241	0.459779	-0.547231
59673	-9.719053	-0.514609	-1.308257	0.125930	-0.042832	0.006613	0.368836	0.594165	0.459976	-0.547129
59674	-9.680373	-0.704768	-1.374751	-0.032933	0.083021	-0.010225	0.368833	0.594100	0.460078	-0.547116
59675	-9.631458	-0.726734	-1.445123	-0.030434	0.161024	-0.047717	0.368415	0.594310	0.459954	-0.547274
59676	-9.674558	-0.680605	-1.468158	0.023309	0.157726	-0.005019	0.368083	0.594514	0.459917	-0.547307
59677	-9.713807	-0.679785	-1.410137	0.006970	0.093372	0.026006	0.367945	0.594608	0.459954	-0.547266
59678	-9.663661	-0.572071	-1.603647	0.172218	0.246493	-0.004789	0.367545	0.594708	0.459802	-0.547553
59679	-9.717044	-0.555933	-1.341764	0.107854	-0.012985	0.011698	0.367539	0.594656	0.459867	-0.547561
59680	-9.655900	-0.761170	-1.545171	-0.020931	0.251043	-0.007593	0.367450	0.594620	0.459884	-0.547644
59681	-9.722542	-0.721020	-1.209419	-0.087216	-0.087208	0.010508	0.367291	0.594677	0.459867	-0.547704
59682	-9.677880	-0.796387	-1.499853	-0.065440	0.214331	0.010496	0.367318	0.594620	0.459967	-0.547663
59683	-9.704007	-0.718052	-1.373880	-0.029102	0.066397	0.014095	0.366816	0.594873	0.459677	-0.547968
59684	-9.738955	-0.679304	-1.366808	0.008668	0.041556	0.045054	0.366737	0.594851	0.459667	-0.548053
59685	-9.628405	-0.724081	-1.508896	0.011591	0.205562	-0.042076	0.366533	0.594930	0.459508	-0.548237
59686	-9.584908	-0.789622	-1.396515	-0.086176	0.127880	-0.095669	0.366703	0.594752	0.459704	-0.548153
59687	-9.641539	-0.750898	-1.526789	-0.004998	0.228035	-0.024828	0.366434	0.594862	0.459680	-0.548234
59688	-9.650044	-0.706242	-1.417366	0.003350	0.107803	-0.034169	0.366517	0.594776	0.459876	-0.548107
59689	-9.663142	-0.766147	-1.415625	-0.053153	0.120207	-0.017279	0.366295	0.594901	0.459911	-0.548090
59690	-9.689460	-0.793684	-1.306549	-0.113520	0.018416	-0.004048	0.366258	0.594907	0.460150	-0.547907
59691	-9.705862	-0.782795	-1.444710	-0.057953	0.137448	0.030150	0.366007	0.595037	0.460191	-0.547900
59692	-9.665579	-0.749753	-1.449870	-0.025207	0.135717	-0.011227	0.366223	0.594838	0.460445	-0.547758
59693	-9.669661	-0.756580	-1.498578	-0.015433	0.181833	-0.000084	0.366110	0.594885	0.460475	-0.547757
59694	-9.736526	-0.716697	-1.244638	-0.057565	-0.080674	0.028700	0.366181	0.594831	0.460643	-0.547627
59695	-9.668910	-0.776662	-1.570739	-0.011718	0.252425	0.010468	0.366222	0.594819	0.460741	-0.547531
59696	-9.660401	-0.818765	-1.521993	-0.067859	0.220722	-0.001629	0.366318	0.594744	0.460824	-0.547478
59697	-9.704672	-0.785847	-1.451029	-0.058086	0.136680	0.030160	0.366082	0.594898	0.460681	-0.547589
59698	-9.660397	-0.791052	-1.419901	-0.073505	0.114323	-0.017450	0.365897	0.595034	0.460604	-0.547630
59699	-9.686065	-0.670230	-1.443325	0.048929	0.092644	0.002671	0.365802	0.595117	0.460570	-0.547631
59700	-9.658807	-0.661963	-1.546439	0.089054	0.189253	-0.010725	0.365693	0.595213	0.460541	-0.547625
59701	-9.659274	-0.640180	-1.398536	0.061498	0.042383	-0.032006	0.365731	0.595216	0.460608	-0.547539
59702	-9.708143	-0.781563	-1.392033	-0.074129	0.071044	0.025305	0.365545	0.595387	0.460587	-0.547494
59703	-9.707699	-0.754288	-1.371957	-0.055854	0.040439	0.020210	0.365566	0.595408	0.460738	-0.547332
59704	-9.658435	-0.801143	-1.466421	-0.071753	0.148916	-0.012164	0.365416	0.595549	0.460651	-0.547352
59705	-9.729220	-0.661702	-1.327162	0.016780	-0.037576	0.028818	0.365299	0.595633	0.460580	-0.547398
59706	-9.688497	-0.676244	-1.502876	0.058728	0.137977	0.013829	0.365327	0.595624	0.460542	-0.547421
59707	-9.657365	-0.624370	-1.499034	0.105464	0.122396	-0.021082	0.365347	0.595626	0.460636	-0.547325
59708	-9.706681	-0.619720	-1.340614	0.059196	-0.036713	0.005464	0.365307	0.595681	0.460674	-0.547260
59709	-9.688711	-0.735746	-1.427390	-0.023765	0.082076	0.007831	0.365258	0.595745	0.460696	-0.547205
59710	-9.661817	-0.724200	-1.450786	-0.007507	0.102923	-0.016295	0.365414	0.595720	0.460846	-0.547002
59711	-9.621230	-0.816966	-1.618045	-0.044184	0.293861	-0.026715	0.365518	0.595682	0.460954	-0.546884
59712	-9.679102	-0.688388	-1.438738	0.020557	0.075036	-0.003365	0.365412	0.595754	0.460984	-0.546851
59713	-9.674740	-0.736708	-1.438551	-0.025676	0.089484	-0.004318	0.365504	0.595711	0.461054	-0.546776
59714	-9.648026	-0.797151	-1.496564	-0.066050	0.166159	-0.018424	0.365433	0.595833	0.461005	-0.546732
59715	-9.670353	-0.855421	-1.475346	-0.128780	0.159742	0.004747	0.365351	0.595942	0.460953	-0.546712
59716	-9.766558	-0.613936	-1.427981	0.085901	0.022847	0.076388	0.365209	0.596068	0.460898	-0.546717
59717	-9.633953	-0.737756	-1.504465	-0.009690	0.153255	-0.035307	0.365115	0.596152	0.460763	-0.546801
59718	-9.638502	-0.651711	-1.447594	0.053088	0.072626	-0.044735	0.365152	0.596171	0.460733	-0.546781
59719	-9.721877	-0.810074	-1.638497	-0.033761	0.289124	0.075237	0.365111	0.596200	0.460645	-0.546850
59720	-9.683529	-0.733648	-1.422808	-0.031983	0.069797	0.001968	0.365016	0.596309	0.460477	-0.546936
59721	-9.616426	-0.735202	-1.540121	0.002465	0.190381	-0.047858	0.364964	0.596381	0.460440	-0.546925
59722	-9.579991	-0.744654	-1.650962	0.028565	0.300880	-0.067685	0.364615	0.596642	0.460247	-0.547034
59723	-9.664987	-0.651236	-1.395233	0.035010	0.015771	-0.025896	0.364602	0.596726	0.460343	-0.546870
59724	-9.654860	-0.761660	-1.589532	-0.008479	0.232089	-0.001004	0.364725	0.596684	0.460464	-0.546733
59725	-9.685701	-0.686044	-1.514132	0.037932	0.130566	0.013683	0.364595	0.596828	0.460491	-0.546639
59726	-9.686494	-0.609689	-1.321747	0.047285	-0.077164	-0.017856	0.364368	0.597000	0.460432	-0.546653
59727	-9.667213	-0.693913	-1.511351	0.028099	0.127511	-0.004341	0.364467	0.596946	0.460603	-0.546502
59728	-9.702632	-0.588011	-1.424928	0.100645	0.006433	0.011114	0.364458	0.596939	0.460646	-0.546479
59729	-9.711236	-0.652797	-1.487186	0.059781	0.083912	0.032888	0.364564	0.596861	0.460708	-0.546442
59730	-9.676017	-0.676492	-1.504065	0.041982	0.113488	0.002124	0.364661	0.596789	0.460759	-0.546413
59731	-9.640169	-0.693351	-1.567456	0.046109	0.183464	-0.023166	0.364581	0.596813	0.460784	-0.546418
59732	-9.658292	-0.711462	-1.519322	0.013839	0.140818	-0.010795	0.364705	0.596732	0.460889	-0.546336
59733	-9.662909	-0.787462	-1.523433	-0.056895	0.166928	-0.000366	0.364599	0.596806	0.460905	-0.546312
59734	-9.732561	-0.679942	-1.567551	0.060884	0.162849	0.067194	0.364634	0.596750	0.460904	-0.546350
59735	-9.684423	-0.669983	-1.531662	0.057585	0.134577	0.013883	0.364773	0.596677	0.460982	-0.546272
59736	-9.640858	-0.690928	-1.487506	0.022198	0.107031	-0.033922	0.364875	0.596599	0.461074	-0.546210
59737	-9.591267	-0.730763	-1.624697	0.027867	0.255878	-0.060774	0.364865	0.596576	0.461088	-0.546231
59738	-9.689112	-0.718986	-1.512380	0.005090	0.130009	0.019209	0.364662	0.596732	0.461084	-0.546200
59739	-9.653095	-0.753804	-1.566437	-0.010972	0.195046	-0.006260	0.364548	0.596802	0.461014	-0.546258
59740	-9.715690	-0.721182	-1.458625	-0.013228	0.073466	0.038036	0.364460	0.596851	0.460979	-0.546292
59741	-9.689822	-0.681962	-1.375796	-0.002127	-0.012080	-0.001959	0.364290	0.596916	0.460789	-0.546496
59742	-9.670648	-0.704336	-1.561046	0.037261	0.172116	0.006853	0.364442	0.596781	0.460951	-0.546405
59743	-9.661707	-0.704486	-1.579122	0.043195	0.190833	0.000581	0.364297	0.596863	0.460807	-0.546534
59744	-9.689746	-0.611439	-1.340240	0.054697	-0.068310	-0.011993	0.364250	0.596909	0.460966	-0.546381
59745	-9.679043	-0.705776	-1.545679	0.031135	0.152984	0.013133	0.364278	0.596894	0.461041	-0.546316
59746	-9.657779	-0.669494	-1.432244	0.028152	0.037894	-0.026472	0.364265	0.596899	0.461072	-0.546292
59747	-9.697083	-0.823525	-1.555902	-0.076214	0.196389	0.040640	0.364292	0.596833	0.461071	-0.546347
59748	-9.653494	-0.729525	-1.463165	-0.016594	0.087696	-0.022128	0.364074	0.596920	0.460890	-0.546551
59749	-9.662261	-0.597384	-1.407550	0.092614	-0.007408	-0.030626	0.363839	0.597031	0.460724	-0.546726
59750	-9.648189	-0.720868	-1.540374	0.019083	0.157503	-0.017036	0.363924	0.596992	0.460852	-0.546603
59751	-9.660960	-0.682928	-1.558512	0.061104	0.159442	-0.004510	0.363903	0.596960	0.460918	-0.546597
59752	-9.661435	-0.618983	-1.477464	0.096020	0.063073	-0.020029	0.364029	0.596833	0.461061	-0.546531
59753	-9.652476	-0.664276	-1.507903	0.063526	0.107215	-0.021375	0.364008	0.596799	0.461114	-0.546537
59754	-9.732563	-0.652137	-1.431645	0.052808	0.018773	0.046042	0.363984	0.596783	0.461161	-0.546531
59755	-9.662119	-0.780301	-1.456573	-0.061569	0.093398	-0.010927	0.364076	0.596712	0.461256	-0.546468
59756	-9.665913	-0.814911	-1.527755	-0.070266	0.169860	0.005367	0.363951	0.596718	0.461254	-0.546545
59757	-9.679404	-0.658977	-1.418342	0.043484	0.014743	-0.007857	0.363764	0.596831	0.461195	-0.546598
59758	-9.642610	-0.724235	-1.574397	0.032478	0.186091	-0.017409	0.363681	0.596834	0.461182	-0.546659
59759	-9.678721	-0.699072	-1.476446	0.026722	0.080374	0.002559	0.363529	0.596895	0.461112	-0.546754
59760	-9.678911	-0.735136	-1.454323	-0.013526	0.070164	0.002183	0.363521	0.596858	0.461210	-0.546717
59761	-9.696445	-0.773451	-1.474788	-0.042159	0.098248	0.025140	0.363703	0.596687	0.461403	-0.546619
59762	-9.674263	-0.749715	-1.475224	-0.019685	0.094599	0.001607	0.363765	0.596608	0.461526	-0.546559
59763	-9.696996	-0.754329	-1.405838	-0.045603	0.027215	0.014535	0.363706	0.596645	0.461476	-0.546601
59764	-9.647522	-0.784492	-1.508534	-0.041938	0.140740	-0.017575	0.363711	0.596641	0.461469	-0.546607
59765	-9.663965	-0.745617	-1.619488	0.031562	0.229498	0.011631	0.363677	0.596630	0.461492	-0.546623
59766	-9.665331	-0.705891	-1.480617	0.024582	0.087588	-0.009583	0.363855	0.596492	0.461569	-0.546590
59767	-9.589293	-0.842224	-1.650598	-0.050667	0.303144	-0.050828	0.363932	0.596385	0.461638	-0.546598
59768	-9.705820	-0.686431	-1.428244	0.028429	0.028132	0.021560	0.363842	0.596422	0.461572	-0.546673
59769	-9.652226	-0.782548	-1.518467	-0.034323	0.151176	-0.011689	0.363772	0.596498	0.461504	-0.546694
59770	-9.656124	-0.860735	-1.601647	-0.081543	0.253063	0.009541	0.363767	0.596515	0.461459	-0.546716
59771	-9.638875	-0.768038	-1.534506	-0.016222	0.164001	-0.023646	0.363764	0.596530	0.461437	-0.546721
59772	-9.631101	-0.772678	-1.427043	-0.055413	0.066326	-0.046208	0.363645	0.596620	0.461309	-0.546811
59773	-9.701536	-0.672650	-1.424923	0.040503	0.021910	0.015870	0.363550	0.596668	0.461199	-0.546914
59774	-9.692531	-0.717115	-1.455754	0.007861	0.065951	0.014531	0.363597	0.596687	0.461272	-0.546800
59775	-9.722798	-0.725692	-1.528428	0.022856	0.131624	0.055325	0.363740	0.596611	0.461338	-0.546732
59776	-9.653054	-0.743458	-1.459052	-0.018173	0.084564	-0.022104	0.363702	0.596631	0.461222	-0.546833
59777	-9.715115	-0.695356	-1.440756	0.023593	0.043792	0.033138	0.363641	0.596647	0.461121	-0.546941
59778	-9.702469	-0.661424	-1.386561	0.038318	-0.014129	0.010564	0.363637	0.596656	0.461020	-0.547019
59779	-9.645370	-0.767238	-1.416339	-0.054232	0.057414	-0.034058	0.363869	0.596553	0.461147	-0.546871
59780	-9.612797	-0.773996	-1.619204	0.002789	0.254849	-0.037116	0.363964	0.596538	0.461186	-0.546792
59781	-9.652968	-0.690144	-1.567654	0.065259	0.175289	-0.010716	0.364035	0.596528	0.461063	-0.546858
59782	-9.675412	-0.812832	-1.623464	-0.032623	0.264916	0.027977	0.364080	0.596506	0.461021	-0.546887
59783	-9.686291	-0.698315	-1.350501	-0.012017	-0.027420	-0.007850	0.363916	0.596603	0.460844	-0.547039
59784	-9.663641	-0.793479	-1.477513	-0.061513	0.125809	-0.005598	0.364042	0.596566	0.460876	-0.546970
59785	-9.676270	-0.818545	-1.575922	-0.054639	0.224048	0.022483	0.364114	0.596587	0.460896	-0.546881
59786	-9.676758	-0.698240	-1.449719	0.017166	0.067051	-0.003300	0.363916	0.596765	0.460736	-0.546955
59787	-9.716064	-0.707306	-1.503716	0.026134	0.113974	0.043766	0.363936	0.596817	0.460662	-0.546947
59788	-9.720510	-0.756635	-1.562484	-0.002904	0.185461	0.059889	0.364033	0.596835	0.460537	-0.546967
59789	-9.646205	-0.751358	-1.535368	-0.009911	0.173107	-0.017735	0.364227	0.596767	0.460462	-0.546977
59790	-9.606764	-0.797056	-1.605334	-0.032383	0.262713	-0.043745	0.364385	0.596699	0.460387	-0.547007
59791	-9.589555	-0.758213	-1.582656	-0.003609	0.234402	-0.066699	0.364138	0.596917	0.460011	-0.547251
59792	-9.576622	-0.696540	-1.506830	0.029570	0.146107	-0.094396	0.363839	0.597193	0.459733	-0.547382
59793	-9.656648	-0.617351	-1.351899	0.054313	-0.038522	-0.042571	0.363675	0.597398	0.459644	-0.547342
59794	-9.771277	-0.680976	-1.397970	0.009865	0.005434	0.081542	0.363718	0.597432	0.459656	-0.547266
59795	-9.829413	-0.659362	-1.310637	0.001953	-0.091629	0.125194	0.363640	0.597530	0.459454	-0.547382
59796	-9.702417	-0.775566	-1.316326	-0.109562	-0.026767	0.008636	0.363730	0.597556	0.459255	-0.547459
59797	-9.702323	-0.758767	-1.404092	-0.066203	0.054207	0.019654	0.363870	0.597507	0.459083	-0.547565
59798	-9.754601	-0.603895	-1.470025	0.102042	0.063014	0.069798	0.363896	0.597555	0.458775	-0.547752
59799	-9.671225	-0.684096	-1.608302	0.069143	0.236560	0.012101	0.364067	0.597496	0.458524	-0.547913
59800	-9.668027	-0.647602	-1.532162	0.078008	0.159735	-0.004219	0.364082	0.597543	0.458230	-0.548099
59801	-9.633940	-0.713916	-1.556998	0.021649	0.214459	-0.030037	0.364378	0.597429	0.458136	-0.548105
59802	-9.607308	-0.621225	-1.586409	0.116477	0.220301	-0.058669	0.364483	0.597429	0.458016	-0.548135
59803	-9.695783	-0.515793	-1.466320	0.177161	0.062471	0.005105	0.364601	0.597381	0.458056	-0.548075
59804	-9.710250	-0.607298	-1.437327	0.080223	0.064441	0.021594	0.364988	0.597148	0.458247	-0.547913
59805	-9.693385	-0.677719	-1.506522	0.035199	0.157572	0.019126	0.365204	0.596995	0.458242	-0.547940
59806	-9.624013	-0.712154	-1.423644	-0.025764	0.105394	-0.058520	0.365298	0.596935	0.458127	-0.548038
59807	-9.567268	-0.736414	-1.383309	-0.062929	0.085744	-0.118506	0.365299	0.596948	0.458120	-0.548029
59808	-9.743129	-0.643780	-1.398549	0.031489	0.043852	0.051188	0.365614	0.596798	0.458356	-0.547785
59809	-9.766182	-0.795028	-1.558263	-0.061535	0.239495	0.105852	0.365980	0.596627	0.458467	-0.547634
59810	-9.794393	-0.884041	-1.601177	-0.133329	0.309447	0.145319	0.366407	0.596380	0.458379	-0.547691
59811	-9.667576	-0.858803	-1.612144	-0.107753	0.339259	0.019497	0.366355	0.596387	0.457879	-0.548137
59812	-9.467772	-0.633333	-1.578982	0.093238	0.271847	-0.197574	0.365940	0.596669	0.457322	-0.548571
59813	-9.625846	-0.491485	-1.457704	0.191527	0.090178	-0.066993	0.365555	0.597002	0.456937	-0.548786
59814	-9.736804	-0.586431	-1.512295	0.120657	0.153443	0.056364	0.365335	0.597268	0.456761	-0.548790
59815	-9.632140	-0.742063	-1.633837	0.011385	0.333281	-0.020497	0.365136	0.597413	0.456372	-0.549088
59816	-9.658786	-0.636114	-1.355856	0.022331	0.038699	-0.038582	0.364813	0.597569	0.455934	-0.549498
59817	-9.623799	-0.610689	-1.198591	-0.003642	-0.109081	-0.095942	0.364469	0.597736	0.455617	-0.549806
59818	-9.716207	-0.590478	-1.242131	0.032949	-0.088845	-0.000080	0.364038	0.598061	0.455251	-0.550042
59819	-9.778095	-0.603642	-1.226507	0.016147	-0.109308	0.059882	0.363672	0.598401	0.454848	-0.550247
59820	-9.773810	-0.641470	-1.395574	0.036227	0.062149	0.080810	0.363586	0.598505	0.454620	-0.550379
59821	-9.654327	-0.569928	-1.302611	0.071223	-0.028195	-0.054523	0.363373	0.598601	0.454317	-0.550666
59822	-9.589217	-0.650698	-1.325370	0.002935	0.031655	-0.110519	0.363466	0.598509	0.454318	-0.550704
59823	-9.709668	-0.753179	-1.311797	-0.095537	0.035549	0.013571	0.363446	0.598510	0.454362	-0.550680
59824	-9.740755	-0.798218	-1.361990	-0.120732	0.090932	0.054006	0.363442	0.598530	0.454464	-0.550577
59825	-9.743725	-0.698748	-1.400922	-0.014305	0.091890	0.055563	0.363149	0.598751	0.454282	-0.550680
59826	-9.619767	-0.690273	-1.423329	-0.000988	0.127454	-0.064559	0.363003	0.598889	0.454092	-0.550782
59827	-9.531137	-0.641886	-1.313448	0.005570	0.021894	-0.170113	0.362899	0.599002	0.454001	-0.550803
59828	-9.650562	-0.660280	-1.234424	-0.037471	-0.065297	-0.061408	0.362968	0.599005	0.454180	-0.550607
59829	-9.870323	-0.616255	-1.252486	0.011848	-0.100237	0.155341	0.363024	0.599027	0.454511	-0.550273
59830	-9.899691	-0.575757	-1.364506	0.086726	-0.019104	0.196776	0.362857	0.599158	0.454604	-0.550163
59831	-9.606714	-0.542742	-1.515849	0.163296	0.151374	-0.074528	0.362891	0.599123	0.454773	-0.550040
59832	-9.606372	-0.480486	-1.313142	0.153764	-0.061346	-0.106494	0.362680	0.599264	0.454819	-0.549987
59833	-9.699324	-0.486111	-1.177415	0.103784	-0.203481	-0.032742	0.362948	0.599101	0.455202	-0.549670
59834	-9.797068	-0.584271	-1.236729	0.030914	-0.132276	0.078469	0.363480	0.598783	0.455715	-0.549241
59835	-9.715808	-0.945514	-1.483267	-0.232260	0.227652	0.055708	0.364201	0.598364	0.456310	-0.548725
59836	-9.623763	-1.095474	-1.804176	-0.271779	0.592080	0.018259	0.364533	0.598166	0.456347	-0.548690
59837	-9.543715	-1.002438	-1.866266	-0.164495	0.635043	-0.058714	0.364273	0.598329	0.456014	-0.548962
59838	-9.687435	-0.656685	-1.476763	0.036922	0.137939	0.007601	0.363637	0.598774	0.455440	-0.549375
59839	-9.686221	-0.613177	-1.670983	0.143401	0.305244	0.029939	0.363545	0.598891	0.455223	-0.549488
59840	-9.575409	-0.561155	-1.630607	0.175591	0.267084	-0.088487	0.363482	0.599050	0.455142	-0.549423
59841	-9.784341	-0.712600	-1.606181	0.025392	0.259752	0.124759	0.363396	0.599238	0.455168	-0.549253
59842	-9.503598	-0.870223	-1.485040	-0.169423	0.238260	-0.158904	0.363099	0.599469	0.454918	-0.549405
59843	-9.706930	-0.833043	-1.286814	-0.197566	0.007772	0.012547	0.362770	0.599729	0.454832	-0.549409
59844	-9.629633	-0.750065	-1.403941	-0.081017	0.097298	-0.053207	0.362156	0.600162	0.454425	-0.549678
59845	-9.667524	-0.623981	-1.347859	0.020384	-0.007385	-0.031755	0.361504	0.600621	0.454136	-0.549846
59846	-9.753604	-0.479760	-1.305714	0.143352	-0.114108	0.037911	0.361065	0.600952	0.454036	-0.549854
59847	-9.744090	-0.498291	-1.318473	0.129032	-0.100444	0.031459	0.360959	0.601077	0.454173	-0.549674
59848	-9.725349	-0.537940	-1.417982	0.123878	0.002901	0.029422	0.360768	0.601264	0.454229	-0.549549
59849	-9.678366	-0.696164	-1.395985	-0.034924	0.039653	-0.009555	0.360925	0.601240	0.454314	-0.549402
59850	-9.630101	-0.827106	-1.554839	-0.107439	0.238802	-0.026375	0.361474	0.600906	0.454747	-0.549048
59851	-9.719096	-0.760680	-1.370783	-0.108064	0.030402	0.031393	0.361427	0.600998	0.454853	-0.548890
59852	-9.700930	-0.700510	-1.287470	-0.082361	-0.068677	-0.002243	0.361492	0.601072	0.455069	-0.548587
59853	-9.668620	-0.790624	-1.483635	-0.105166	0.143760	-0.000616	0.361565	0.601153	0.455298	-0.548260
59854	-9.687793	-0.742638	-1.659646	-0.002911	0.284490	0.040146	0.361313	0.601402	0.455176	-0.548255
59855	-9.682320	-0.561700	-1.523823	0.120494	0.096952	0.003674	0.361268	0.601481	0.455119	-0.548246
59856	-9.655230	-0.485464	-1.467833	0.172171	0.021947	-0.036004	0.361047	0.601672	0.455037	-0.548248
59857	-9.748233	-0.466212	-1.389464	0.163952	-0.074516	0.043456	0.361073	0.601711	0.455129	-0.548113
59858	-9.690713	-0.510934	-1.421236	0.129756	-0.023458	-0.005879	0.361234	0.601680	0.455348	-0.547859
59859	-9.646343	-0.579395	-1.472012	0.078950	0.049983	-0.037938	0.361398	0.601664	0.455667	-0.547503
59860	-9.632061	-0.686450	-1.618420	0.024174	0.219625	-0.024007	0.361375	0.601779	0.455775	-0.547302
59861	-9.644693	-0.720344	-1.673177	0.008942	0.277280	-0.001390	0.361433	0.601778	0.455847	-0.547205
59862	-9.615964	-0.712030	-1.475930	-0.050499	0.094674	-0.058683	0.361315	0.601876	0.455756	-0.547251
59863	-9.677888	-0.641139	-1.392680	-0.011619	-0.016775	-0.014130	0.361440	0.601831	0.455883	-0.547112
59864	-9.654791	-0.665381	-1.486462	-0.004923	0.080921	-0.021838	0.361496	0.601853	0.455981	-0.546969
59865	-9.622601	-0.679888	-1.566174	0.006306	0.161915	-0.041129	0.361387	0.601975	0.456064	-0.546838
59866	-9.655615	-0.586863	-1.600135	0.104276	0.152981	-0.009552	0.361251	0.602122	0.456169	-0.546677
59867	-9.677041	-0.621450	-1.637238	0.083225	0.191793	0.019310	0.361312	0.602106	0.456324	-0.546525
59868	-9.647595	-0.690078	-1.556301	-0.010249	0.140632	-0.017051	0.361339	0.602119	0.456546	-0.546308
59869	-9.682930	-0.616393	-1.452130	0.023378	0.009705	-0.002127	0.361381	0.602119	0.456779	-0.546085
59870	-9.672445	-0.637568	-1.543530	0.032091	0.099290	0.002315	0.361538	0.602048	0.457132	-0.545765
59871	-9.658501	-0.641180	-1.552653	0.030036	0.107103	-0.009825	0.361560	0.602048	0.457356	-0.545562
59872	-9.711770	-0.716704	-1.558816	-0.039561	0.125292	0.048590	0.361582	0.602058	0.457542	-0.545380
59873	-9.663353	-0.751815	-1.538765	-0.081048	0.122273	0.000156	0.361532	0.602124	0.457678	-0.545227
59874	-9.617052	-0.725113	-1.613112	-0.033100	0.186142	-0.036192	0.361552	0.602149	0.457889	-0.545009
59875	-9.660510	-0.683087	-1.592733	-0.000814	0.142763	0.001001	0.361644	0.602080	0.458159	-0.544797
59876	-9.655332	-0.669735	-1.594301	0.011336	0.137069	-0.004688	0.361614	0.602113	0.458349	-0.544620
59877	-9.682846	-0.676899	-1.497367	-0.027860	0.039721	0.008487	0.361505	0.602189	0.458541	-0.544447
59878	-9.645126	-0.734291	-1.622293	-0.041566	0.175678	-0.006216	0.361324	0.602321	0.458642	-0.544336
59879	-9.691637	-0.656192	-1.639769	0.038452	0.153582	0.037297	0.360947	0.602585	0.458574	-0.544351
59880	-9.743834	-0.718160	-1.439666	-0.086449	-0.026900	0.062661	0.360826	0.602723	0.458728	-0.544149
59881	-9.642662	-0.755165	-1.626160	-0.061883	0.170040	-0.006421	0.360746	0.602792	0.458912	-0.543970
59882	-9.699052	-0.565389	-1.533950	0.086713	0.008035	0.022794	0.360486	0.602979	0.458932	-0.543918
59883	-9.658682	-0.622386	-1.563834	0.042256	0.056804	-0.008705	0.360294	0.603126	0.458921	-0.543892
59884	-9.649337	-0.668033	-1.595775	0.009502	0.100683	-0.010022	0.360264	0.603153	0.458955	-0.543853
59885	-9.675301	-0.644378	-1.598623	0.033327	0.089942	0.014472	0.360059	0.603275	0.458857	-0.543937
59886	-9.631800	-0.564013	-1.718535	0.149173	0.180458	-0.015330	0.359799	0.603460	0.458739	-0.544003
59887	-9.682651	-0.667388	-1.651718	0.030199	0.141771	0.031412	0.359759	0.603492	0.458748	-0.543987
59888	-9.602842	-0.661710	-1.658728	0.037166	0.159111	-0.046566	0.359864	0.603378	0.458905	-0.543911
59889	-9.626445	-0.637531	-1.567491	0.030272	0.061133	-0.038882	0.359781	0.603408	0.458970	-0.543878
59890	-9.632962	-0.652958	-1.665347	0.048635	0.153724	-0.016377	0.359588	0.603550	0.458925	-0.543886
59891	-9.606615	-0.723095	-1.676552	-0.014007	0.189353	-0.035944	0.359516	0.603603	0.458934	-0.543867
59892	-9.712172	-0.778759	-1.707303	-0.054351	0.216241	0.076595	0.359200	0.603787	0.458827	-0.543962
59893	-9.648353	-0.587802	-1.680847	0.117038	0.136402	-0.003040	0.358831	0.604053	0.458653	-0.544057
59894	-9.625714	-0.609922	-1.695150	0.100806	0.157895	-0.021629	0.358817	0.604059	0.458763	-0.543967
59895	-9.644121	-0.655092	-1.670714	0.050305	0.145114	-0.004226	0.358823	0.604025	0.458878	-0.543903
59896	-9.611270	-0.610342	-1.529215	0.045204	0.002507	-0.061509	0.358716	0.604078	0.458921	-0.543879
59897	-9.631276	-0.639461	-1.611428	0.045421	0.081960	-0.027070	0.358605	0.604160	0.459031	-0.543769
59898	-9.706992	-0.639367	-1.560547	0.029226	0.017938	0.039653	0.358486	0.604229	0.459131	-0.543686
59899	-9.659959	-0.714809	-1.689741	0.001009	0.167457	0.018535	0.358441	0.604221	0.459280	-0.543598
59900	-9.661473	-0.684949	-1.589927	-0.003293	0.060914	0.002473	0.358231	0.604306	0.459377	-0.543561
59901	-9.665175	-0.655946	-1.583900	0.023163	0.041372	0.003236	0.358162	0.604296	0.459534	-0.543484
59902	-9.659852	-0.671742	-1.606939	0.016579	0.065767	0.002690	0.358138	0.604261	0.459731	-0.543372
59903	-9.667204	-0.694593	-1.658738	0.013486	0.117744	0.019640	0.358058	0.604253	0.459807	-0.543369
59904	-9.672347	-0.671467	-1.605802	0.018359	0.057567	0.014831	0.357994	0.604274	0.459943	-0.543273
59905	-9.661591	-0.639386	-1.650035	0.064245	0.086687	0.009030	0.357765	0.604358	0.459976	-0.543303
59906	-9.608653	-0.690520	-1.647770	0.016264	0.107989	-0.039957	0.357707	0.604325	0.460072	-0.543296
59907	-9.648756	-0.699017	-1.623031	0.001958	0.078651	-0.003755	0.357645	0.604282	0.460247	-0.543236
59908	-9.664522	-0.687489	-1.679141	0.033105	0.122193	0.019866	0.357643	0.604219	0.460388	-0.543189
59909	-9.655584	-0.750899	-1.697421	-0.019878	0.160718	0.018344	0.357750	0.604100	0.460530	-0.543131
59910	-9.612706	-0.816986	-1.663807	-0.093707	0.157828	-0.024626	0.357794	0.604057	0.460649	-0.543048
59911	-9.626192	-0.741463	-1.625871	-0.034623	0.094499	-0.022557	0.357757	0.604032	0.460715	-0.543044
59912	-9.667504	-0.670953	-1.706332	0.060640	0.137827	0.025997	0.357582	0.604093	0.460696	-0.543108
59913	-9.614799	-0.698675	-1.855275	0.084710	0.292099	-0.000345	0.357391	0.604190	0.460696	-0.543125
59914	-9.653580	-0.695782	-1.703602	0.038414	0.140327	0.013645	0.357146	0.604314	0.460692	-0.543152
59915	-9.712976	-0.558260	-1.575468	0.127171	-0.037022	0.042165	0.356979	0.604380	0.460718	-0.543167
59916	-9.651660	-0.553081	-1.545655	0.122433	-0.057419	-0.023346	0.356975	0.604328	0.460795	-0.543161
59917	-9.654926	-0.650863	-1.615072	0.054207	0.038834	-0.002222	0.357161	0.604167	0.460951	-0.543087
59918	-9.635508	-0.797269	-1.718923	-0.048941	0.186825	0.005462	0.357163	0.604126	0.461007	-0.543082
59919	-9.647415	-0.766575	-1.596716	-0.058931	0.061533	-0.004400	0.357005	0.604144	0.460887	-0.543268
59920	-9.627940	-0.780506	-1.666484	-0.045936	0.134665	-0.011496	0.356747	0.604197	0.460768	-0.543480
59921	-9.635949	-0.732289	-1.681671	0.008284	0.131410	-0.004607	0.356419	0.604304	0.460567	-0.543746
59922	-9.635485	-0.673033	-1.681529	0.066943	0.111516	-0.009313	0.356216	0.604372	0.460469	-0.543887
59923	-9.629237	-0.773162	-1.769151	0.004535	0.226563	0.005588	0.356029	0.604405	0.460383	-0.544045
59924	-9.678708	-0.630186	-1.702431	0.120679	0.108829	0.033449	0.355673	0.604524	0.460160	-0.544334
59925	-9.694233	-0.580457	-1.605247	0.138512	-0.000393	0.029707	0.355437	0.604568	0.460019	-0.544560
59926	-9.637353	-0.618080	-1.596755	0.102801	0.015285	-0.024969	0.355342	0.604500	0.459940	-0.544763
59927	-9.600702	-0.729244	-1.677619	0.028647	0.135248	-0.040248	0.355257	0.604411	0.459897	-0.544953
59928	-9.657978	-0.788068	-1.702153	-0.013245	0.169281	0.024288	0.355048	0.604372	0.459779	-0.545233
59929	-9.623874	-0.823049	-1.668664	-0.052779	0.157982	-0.012021	0.354870	0.604283	0.459645	-0.545559
59930	-9.578901	-0.880231	-1.721504	-0.083880	0.236427	-0.043819	0.354673	0.604218	0.459506	-0.545877
59931	-9.568642	-0.924193	-1.792687	-0.095315	0.320808	-0.039522	0.354336	0.604237	0.459304	-0.546245
59932	-9.572845	-0.880807	-1.793104	-0.048994	0.306771	-0.038543	0.353888	0.604397	0.459012	-0.546603
59933	-9.598869	-0.843216	-1.805324	-0.005009	0.301218	-0.013824	0.353750	0.604380	0.458954	-0.546761
59934	-9.591564	-0.841078	-1.742305	-0.021981	0.243699	-0.031008	0.353644	0.604348	0.458938	-0.546878
59935	-9.593552	-0.793177	-1.650930	-0.006076	0.142411	-0.046899	0.353595	0.604290	0.459015	-0.546908
59936	-9.647551	-0.770534	-1.597622	0.000321	0.074883	-0.003725	0.353371	0.604325	0.459006	-0.547023
59937	-9.736743	-0.751814	-1.550274	0.006239	0.008013	0.075317	0.353153	0.604363	0.458951	-0.547167
59938	-9.706620	-0.753410	-1.511688	-0.006870	-0.022535	0.039761	0.353050	0.604372	0.458921	-0.547249
59939	-9.680527	-0.795572	-1.497223	-0.050856	-0.017294	0.015045	0.353115	0.604298	0.459000	-0.547222
59940	-9.666039	-0.838357	-1.557452	-0.070212	0.056088	0.013438	0.353237	0.604192	0.459063	-0.547208
59941	-9.674657	-0.786438	-1.572835	-0.016001	0.052825	0.020330	0.353421	0.604057	0.459170	-0.547148
59942	-9.691967	-0.807372	-1.602179	-0.025157	0.085803	0.043531	0.353493	0.603989	0.459144	-0.547199
59943	-9.617408	-0.831098	-1.596628	-0.050615	0.103620	-0.028967	0.353596	0.603934	0.459102	-0.547228
59944	-9.624868	-0.862346	-1.678292	-0.052491	0.190975	-0.006609	0.353751	0.603880	0.459056	-0.547226
59945	-9.602967	-0.926566	-1.698252	-0.107377	0.237310	-0.020255	0.353862	0.603849	0.458984	-0.547249
59946	-9.598947	-0.911360	-1.694904	-0.095205	0.231536	-0.025942	0.353880	0.603877	0.458913	-0.547266
59947	-9.655798	-0.796449	-1.713919	0.019179	0.201406	0.024251	0.353941	0.603896	0.458915	-0.547204
59948	-9.670557	-0.707437	-1.642026	0.077252	0.102883	0.020920	0.353921	0.603958	0.458809	-0.547237
59949	-9.632674	-0.773704	-1.574891	-0.010164	0.070030	-0.021758	0.354046	0.603956	0.458814	-0.547154
59950	-9.642102	-0.771551	-1.556155	-0.015941	0.051029	-0.015536	0.354135	0.603941	0.458823	-0.547107
59951	-9.707658	-0.729298	-1.589234	0.035186	0.056977	0.050967	0.354290	0.603860	0.458905	-0.547026
59952	-9.681568	-0.751663	-1.586204	0.011210	0.067430	0.026475	0.354518	0.603778	0.458959	-0.546925
59953	-9.651682	-0.793788	-1.558112	-0.040361	0.061662	-0.004153	0.354596	0.603804	0.458938	-0.546863
59954	-9.647571	-0.777739	-1.555372	-0.028155	0.055785	-0.009842	0.354820	0.603709	0.458974	-0.546792
59955	-9.643224	-0.835153	-1.584098	-0.073335	0.105031	-0.005435	0.354959	0.603635	0.458919	-0.546829
59956	-9.645142	-0.829441	-1.721137	-0.021674	0.232751	0.017084	0.355029	0.603622	0.458808	-0.546890
59957	-9.615576	-0.782823	-1.670085	0.004080	0.177336	-0.023416	0.355006	0.603647	0.458657	-0.547005
59958	-9.633809	-0.792384	-1.664819	-0.006238	0.174846	-0.005590	0.354919	0.603744	0.458406	-0.547165
59959	-9.640649	-0.772179	-1.562554	-0.022374	0.074017	-0.016057	0.354943	0.603757	0.458330	-0.547199
59960	-9.653535	-0.778527	-1.591028	-0.019013	0.101208	0.001466	0.355030	0.603734	0.458348	-0.547153
59961	-9.655142	-0.683324	-1.709293	0.110170	0.179242	0.014119	0.354981	0.603798	0.458257	-0.547190
59962	-9.627034	-0.739012	-1.589991	0.015716	0.091955	-0.027735	0.354924	0.603898	0.458165	-0.547194
59963	-9.672530	-0.702357	-1.520892	0.026833	0.007983	0.003803	0.354766	0.604024	0.457976	-0.547315
59964	-9.633044	-0.639363	-1.501689	0.078466	-0.023151	-0.042698	0.354897	0.603965	0.457975	-0.547297
59965	-9.645229	-0.746979	-1.585575	0.005326	0.089415	-0.009910	0.354959	0.603968	0.458004	-0.547229
59966	-9.657494	-0.781562	-1.638115	-0.010285	0.146943	0.012777	0.354962	0.604027	0.458013	-0.547155
59967	-9.693196	-0.773298	-1.611321	-0.012240	0.112022	0.043260	0.354801	0.604189	0.457887	-0.547184
59968	-9.686904	-0.701034	-1.471617	0.007166	-0.041018	0.010321	0.354584	0.604377	0.457612	-0.547347
59969	-9.682920	-0.658636	-1.446717	0.038196	-0.076901	-0.000534	0.354461	0.604500	0.457395	-0.547474
59970	-9.699607	-0.644499	-1.500487	0.069089	-0.033288	0.023131	0.354531	0.604546	0.457284	-0.547469
59971	-9.751027	-0.643931	-1.593717	0.100800	0.046379	0.088059	0.354610	0.604583	0.457124	-0.547511
59972	-9.672234	-0.697776	-1.596913	0.048806	0.083468	0.014814	0.354543	0.604698	0.456856	-0.547652
59973	-9.614649	-0.680594	-1.623388	0.073111	0.114878	-0.039176	0.354365	0.604847	0.456461	-0.547931
59974	-9.619689	-0.603535	-1.600381	0.138502	0.070594	-0.043361	0.354361	0.604833	0.456219	-0.548151
59975	-9.614185	-0.667778	-1.707277	0.115728	0.195978	-0.027930	0.354528	0.604715	0.456230	-0.548165
59976	-9.622614	-0.688161	-1.755094	0.112246	0.247726	-0.010920	0.354751	0.604619	0.456330	-0.548042
59977	-9.641935	-0.646418	-1.661705	0.118182	0.144176	-0.009051	0.354712	0.604683	0.456297	-0.548025
59978	-9.611490	-0.673150	-1.646291	0.086300	0.143755	-0.039457	0.354875	0.604598	0.456427	-0.547904
59979	-9.590764	-0.761104	-1.610704	-0.009972	0.143898	-0.058939	0.355123	0.604446	0.456665	-0.547712
59980	-9.599914	-0.804935	-1.603885	-0.054600	0.149734	-0.047786	0.355315	0.604320	0.456954	-0.547487
59981	-9.657249	-0.758765	-1.577985	-0.020184	0.098710	0.001489	0.355380	0.604284	0.457111	-0.547353
59982	-9.671639	-0.777780	-1.517011	-0.059539	0.044492	0.007768	0.355547	0.604171	0.457339	-0.547178
59983	-9.691024	-0.873791	-1.676060	-0.095978	0.219516	0.058039	0.355811	0.603997	0.457660	-0.546931
59984	-9.695821	-0.858748	-1.655649	-0.089638	0.194853	0.058562	0.356032	0.603829	0.457798	-0.546857
59985	-9.670269	-0.826696	-1.607641	-0.076007	0.145038	0.023736	0.356053	0.603788	0.457806	-0.546882
59986	-9.617201	-0.768174	-1.593773	-0.026562	0.121929	-0.034897	0.356123	0.603743	0.457870	-0.546834
59987	-9.661583	-0.725454	-1.570568	0.005761	0.078635	0.002247	0.356278	0.603659	0.457999	-0.546717
59988	-9.623986	-0.765316	-1.701350	0.011255	0.219735	-0.012024	0.356575	0.603455	0.458272	-0.546519
59989	-9.658913	-0.750795	-1.719161	0.030603	0.225599	0.024079	0.356716	0.603355	0.458424	-0.546409
59990	-9.700806	-0.751106	-1.612977	-0.006022	0.119996	0.049212	0.356984	0.603193	0.458658	-0.546218
59991	-9.613993	-0.801549	-1.557159	-0.074618	0.099763	-0.041272	0.357217	0.603020	0.458862	-0.546085
59992	-9.627387	-0.797370	-1.552124	-0.072753	0.091649	-0.029141	0.357438	0.602858	0.459085	-0.545932
59993	-9.648044	-0.735312	-1.609450	0.004805	0.121329	-0.004475	0.357720	0.602651	0.459323	-0.545775
59994	-9.692352	-0.675285	-1.816871	0.131096	0.287727	0.066520	0.357839	0.602578	0.459401	-0.545711
59995	-9.657398	-0.688697	-1.579153	0.037841	0.077450	-0.003205	0.357879	0.602544	0.459424	-0.545703
59996	-9.695710	-0.710214	-1.666507	0.047478	0.159789	0.049394	0.358003	0.602450	0.459523	-0.545643
59997	-9.648341	-0.597953	-1.574596	0.121221	0.046563	-0.019296	0.358229	0.602295	0.459649	-0.545560
59998	-9.620994	-0.670708	-1.661954	0.080855	0.158014	-0.027803	0.358483	0.602130	0.459781	-0.545463
59999	-9.690894	-0.742840	-1.750846	0.043276	0.254773	0.059694	0.358518	0.602121	0.459673	-0.545542
60000	-9.652891	-0.748410	-1.682996	0.014746	0.202168	0.012271	0.358580	0.602079	0.459596	-0.545613
60001	-9.600067	-0.761876	-1.700551	0.006742	0.233882	-0.036242	0.358800	0.601945	0.459693	-0.545533
60002	-9.630585	-0.733205	-1.716109	0.038436	0.234113	-0.005827	0.358857	0.601938	0.459797	-0.545417
60003	-9.636382	-0.669876	-1.605689	0.061522	0.108425	-0.021299	0.358627	0.602067	0.459664	-0.545538
60004	-9.614373	-0.546561	-1.550523	0.160544	0.019972	-0.060105	0.358510	0.602067	0.459609	-0.545660
60005	-9.646598	-0.605377	-1.506493	0.092312	-0.006523	-0.030853	0.358590	0.601981	0.459674	-0.545648
60006	-9.690047	-0.675248	-1.572802	0.049469	0.070720	0.026989	0.358835	0.601769	0.460001	-0.545446
60007	-9.602261	-0.693362	-1.541327	0.020920	0.061012	-0.063037	0.358874	0.601681	0.460145	-0.545395
60008	-9.641770	-0.666291	-1.538625	0.046887	0.042185	-0.026419	0.358931	0.601605	0.460280	-0.545327
60009	-9.661668	-0.679113	-1.410688	-0.007131	-0.077485	-0.025297	0.358974	0.601540	0.460469	-0.545211
60010	-9.686734	-0.650007	-1.460176	0.037904	-0.047445	0.004835	0.359053	0.601401	0.460774	-0.545055
60011	-9.721021	-0.665823	-1.502031	0.038414	-0.011472	0.046119	0.359184	0.601240	0.461084	-0.544885
60012	-9.654100	-0.729684	-1.539445	-0.010434	0.052954	-0.009572	0.359449	0.601013	0.461503	-0.544604
60013	-9.657649	-0.754853	-1.577409	-0.021682	0.093884	0.001533	0.359713	0.600755	0.461915	-0.544366
60014	-9.636290	-0.710693	-1.511071	-0.001518	0.019731	-0.032804	0.359863	0.600569	0.462236	-0.544199
60015	-9.674434	-0.750701	-1.588994	-0.012157	0.096635	0.019588	0.359969	0.600414	0.462540	-0.544043
60016	-9.644367	-0.786108	-1.530133	-0.065123	0.055223	-0.016474	0.360124	0.600271	0.462904	-0.543788
60017	-9.666315	-0.783353	-1.509799	-0.068775	0.028150	0.001856	0.360302	0.600082	0.463332	-0.543514
60018	-9.709062	-0.673956	-1.534829	0.043630	0.006358	0.039919	0.360616	0.599785	0.463851	-0.543191
60019	-9.659805	-0.748190	-1.569197	-0.015490	0.068515	0.002050	0.360791	0.599557	0.464171	-0.543053
60020	-9.680243	-0.822720	-1.659923	-0.054780	0.172582	0.041577	0.360844	0.599422	0.464329	-0.543032
60021	-9.636142	-0.792999	-1.649273	-0.029616	0.160640	-0.005674	0.360924	0.599317	0.464439	-0.543000
60022	-9.611859	-0.803281	-1.533570	-0.077232	0.059384	-0.046652	0.361217	0.599089	0.464811	-0.542739
60023	-9.657410	-0.782520	-1.673661	-0.012351	0.174318	0.018310	0.361416	0.598935	0.465126	-0.542506
60024	-9.616047	-0.724390	-1.735496	0.061673	0.219584	-0.017125	0.361525	0.598792	0.465329	-0.542417
60025	-9.597666	-0.788141	-1.772838	0.014207	0.276576	-0.024806	0.361341	0.598855	0.465277	-0.542514
60026	-9.647395	-0.787408	-1.694637	-0.006603	0.192752	0.012120	0.360930	0.599043	0.465140	-0.542699
60027	-9.639522	-0.652467	-1.600951	0.093420	0.061059	-0.020002	0.360702	0.599116	0.465180	-0.542735
60028	-9.629787	-0.610203	-1.611034	0.138069	0.055092	-0.031150	0.360656	0.599068	0.465445	-0.542591
60029	-9.575411	-0.502296	-1.634458	0.247642	0.048322	-0.089078	0.360591	0.599033	0.465689	-0.542464
60030	-9.557557	-0.422183	-1.606323	0.315688	-0.004169	-0.117032	0.360589	0.598912	0.466038	-0.542300
60031	-9.481285	-0.538756	-1.631009	0.212522	0.063066	-0.179616	0.360580	0.598862	0.466450	-0.542007
60032	-9.546930	-0.678761	-1.416113	0.012481	-0.112622	-0.138127	0.360547	0.598841	0.466886	-0.541676
60033	-9.591466	-0.877242	-1.364444	-0.191566	-0.113987	-0.087576	0.360645	0.598750	0.467339	-0.541321
60034	-9.791499	-0.953866	-1.470623	-0.227145	-0.031687	0.131831	0.360739	0.598684	0.467706	-0.541013
60035	-9.948409	-1.139219	-1.552607	-0.375209	0.072270	0.313183	0.361000	0.598569	0.467883	-0.540814
60036	-9.814642	-1.322795	-1.624729	-0.531945	0.220548	0.206550	0.361260	0.598485	0.467919	-0.540701
60037	-9.744013	-1.260780	-1.645760	-0.470811	0.235252	0.135522	0.361486	0.598443	0.467918	-0.540598
60038	-9.633567	-0.933737	-1.656785	-0.161231	0.166782	0.004064	0.361292	0.598678	0.467476	-0.540850
60039	-9.575561	-0.741651	-1.890436	0.092939	0.339533	-0.030498	0.361037	0.598993	0.466903	-0.541166
60040	-9.576429	-0.693724	-1.876601	0.131805	0.314739	-0.035446	0.360984	0.599246	0.466497	-0.541271
60041	-9.557384	-0.847211	-1.794840	-0.044535	0.293025	-0.055898	0.361383	0.599191	0.466417	-0.541136
60042	-9.557651	-0.852112	-1.826441	-0.043372	0.328213	-0.050460	0.361572	0.599216	0.466242	-0.541132
60043	-9.621774	-0.868733	-1.762667	-0.081012	0.266396	0.003763	0.361548	0.599384	0.465897	-0.541259
60044	-9.639512	-0.962410	-1.606188	-0.221099	0.149517	0.003373	0.361328	0.599664	0.465412	-0.541513
60045	-9.620521	-0.819358	-1.653742	-0.071951	0.154037	-0.018213	0.360901	0.600092	0.464898	-0.541765
60046	-9.627091	-0.681390	-1.727338	0.082269	0.178040	-0.010116	0.360340	0.600553	0.464305	-0.542136
60047	-9.608906	-0.519519	-1.708612	0.229185	0.111763	-0.042564	0.359867	0.600981	0.463811	-0.542399
60048	-9.673765	-0.550010	-1.776132	0.222406	0.172658	0.034120	0.359821	0.601098	0.463676	-0.542416
60049	-9.694948	-0.487680	-1.612998	0.226720	-0.001763	0.025006	0.359816	0.601237	0.463425	-0.542479
60050	-9.671153	-0.566439	-1.529324	0.121639	-0.048438	-0.005866	0.359964	0.601293	0.463293	-0.542431
60051	-9.644462	-0.670521	-1.593274	0.040776	0.052126	-0.014759	0.360101	0.601311	0.463094	-0.542490
60052	-9.639812	-0.737687	-1.655889	-0.003850	0.136609	-0.004861	0.360057	0.601416	0.462784	-0.542669
60053	-9.654123	-0.704778	-1.624981	0.017052	0.098394	0.002067	0.359911	0.601579	0.462395	-0.542916
60054	-9.696409	-0.659524	-1.724307	0.092817	0.172417	0.055961	0.359802	0.601701	0.462099	-0.543104
60055	-9.634911	-0.662433	-1.726328	0.089323	0.187526	-0.004151	0.359788	0.601769	0.461965	-0.543153
60056	-9.662930	-0.470299	-1.591845	0.226747	-0.003453	-0.010854	0.359638	0.601886	0.461789	-0.543272
60057	-9.700699	-0.412720	-1.470237	0.241611	-0.139412	0.003508	0.359761	0.601831	0.461649	-0.543371
60058	-9.675643	-0.642848	-1.529363	0.042910	-0.000441	0.004055	0.360040	0.601682	0.461493	-0.543484
60059	-9.627786	-0.796523	-1.842487	-0.000122	0.356040	0.015674	0.360246	0.601541	0.461283	-0.543681
60060	-9.636523	-0.727509	-1.644508	0.001075	0.154183	-0.011030	0.360159	0.601590	0.460932	-0.543982
60061	-9.613807	-0.679798	-1.698164	0.064602	0.197130	-0.028612	0.360178	0.601565	0.460738	-0.544162
60062	-9.614571	-0.651692	-1.672313	0.083602	0.166935	-0.033810	0.360116	0.601596	0.460574	-0.544308
60063	-9.601310	-0.711807	-1.719916	0.043757	0.234785	-0.035525	0.360013	0.601607	0.460436	-0.544480
60064	-9.624222	-0.608637	-1.638063	0.116824	0.123026	-0.032578	0.359892	0.601583	0.460330	-0.544676
60065	-9.618941	-0.445252	-1.613716	0.265939	0.048858	-0.052911	0.359721	0.601575	0.460305	-0.544819
60066	-9.716756	-0.407980	-1.558110	0.286721	-0.031627	0.032427	0.359764	0.601451	0.460453	-0.544803
60067	-9.690076	-0.562593	-1.634570	0.166976	0.093317	0.028517	0.359912	0.601277	0.460733	-0.544660
60068	-9.685605	-0.702343	-1.434605	-0.030328	-0.048452	0.003578	0.360014	0.601153	0.460973	-0.544526
60069	-9.640017	-0.795558	-1.549174	-0.079863	0.095336	-0.017417	0.360144	0.600927	0.461197	-0.544500
60070	-9.706179	-0.718494	-1.523309	-0.010816	0.036014	0.038465	0.359990	0.600834	0.461186	-0.544714
60071	-9.679494	-0.684116	-1.520313	0.024124	0.027209	0.009260	0.359934	0.600739	0.461244	-0.544807
60072	-9.635121	-0.656200	-1.510296	0.049463	0.015490	-0.038002	0.359808	0.600688	0.461352	-0.544854
60073	-9.651039	-0.656911	-1.599242	0.081121	0.094608	-0.008804	0.359787	0.600569	0.461497	-0.544877
60074	-9.595506	-0.673030	-1.744350	0.116157	0.243643	-0.040450	0.359702	0.600437	0.461631	-0.544964
60075	-9.599497	-0.590556	-1.469886	0.107889	-0.040210	-0.084049	0.359575	0.600338	0.461727	-0.545076
60076	-9.661752	-0.714715	-1.464513	-0.006479	-0.017548	-0.014488	0.359654	0.600120	0.462117	-0.544934
60077	-9.757169	-0.857866	-1.579942	-0.098428	0.117553	0.107544	0.359563	0.599979	0.462334	-0.544966
60078	-9.682002	-0.887233	-1.575983	-0.124047	0.135394	0.035071	0.359286	0.599956	0.462207	-0.545281
60079	-9.664743	-0.915794	-1.553086	-0.153720	0.126759	0.016774	0.358981	0.600005	0.462060	-0.545552
60080	-9.637331	-0.876275	-1.595468	-0.097770	0.158960	-0.006735	0.358433	0.600205	0.461638	-0.546050
60081	-9.614884	-0.705008	-1.574154	0.061573	0.087359	-0.044906	0.357941	0.600385	0.461385	-0.546388
60082	-9.677126	-0.649143	-1.524891	0.102874	0.011762	0.004783	0.357786	0.600387	0.461390	-0.546484
60083	-9.676222	-0.690897	-1.580768	0.084853	0.077231	0.015450	0.357759	0.600271	0.461469	-0.546561
60084	-9.686294	-0.654333	-1.503718	0.097093	-0.007338	0.010964	0.357530	0.600311	0.461288	-0.546820
60085	-9.665988	-0.797132	-1.429723	-0.059147	-0.024108	-0.009282	0.357347	0.600324	0.461046	-0.547131
60086	-9.704511	-0.895120	-1.545866	-0.107827	0.112810	0.053625	0.357205	0.600264	0.460879	-0.547430
60087	-9.705876	-0.875832	-1.473647	-0.109864	0.041749	0.042714	0.357025	0.600258	0.460717	-0.547689
60088	-9.691247	-0.852651	-1.579091	-0.049853	0.136803	0.042241	0.356865	0.600289	0.460522	-0.547923
60089	-9.631854	-0.730466	-1.722149	0.115296	0.242047	-0.004522	0.356583	0.600358	0.460219	-0.548286
60090	-9.606188	-0.684417	-1.683891	0.149095	0.197823	-0.039182	0.356300	0.600436	0.459944	-0.548614
60091	-9.603195	-0.757967	-1.619093	0.061340	0.165010	-0.046094	0.356252	0.600358	0.459818	-0.548837
60092	-9.611636	-0.916501	-1.696177	-0.059280	0.290534	-0.014084	0.356358	0.600220	0.459835	-0.548906
60093	-9.636169	-0.885823	-1.522870	-0.086960	0.116223	-0.017867	0.356264	0.600224	0.459839	-0.548959
60094	-9.607804	-0.804505	-1.638161	0.029851	0.200246	-0.035177	0.356163	0.600177	0.459924	-0.549004
60095	-9.636340	-0.681930	-1.459878	0.087830	-0.012202	-0.042966	0.356073	0.600144	0.460021	-0.549017
60096	-9.671440	-0.766801	-1.453589	0.008342	0.001891	-0.002612	0.356098	0.600045	0.460273	-0.548898
60097	-9.715483	-0.833664	-1.440540	-0.056973	0.002392	0.044164	0.356210	0.599903	0.460508	-0.548783
60098	-9.643872	-0.833291	-1.508485	-0.033784	0.077578	-0.016413	0.356235	0.599778	0.460537	-0.548880
60099	-9.634872	-0.818102	-1.536636	-0.008193	0.101747	-0.022341	0.356333	0.599625	0.460631	-0.548904
60100	-9.638446	-0.838207	-1.616449	0.001523	0.183398	-0.005471	0.356427	0.599479	0.460719	-0.548928
60101	-9.624973	-0.871143	-1.642135	-0.019477	0.221226	-0.012366	0.356393	0.599421	0.460744	-0.548994
60102	-9.593996	-0.866091	-1.649076	-0.011263	0.231605	-0.042296	0.356306	0.599403	0.460705	-0.549102
60103	-9.652333	-0.952288	-1.571117	-0.115196	0.177797	0.010647	0.356169	0.599439	0.460649	-0.549199
60104	-9.656133	-0.961988	-1.617848	-0.106422	0.224083	0.022058	0.356047	0.599433	0.460568	-0.549352
60105	-9.682437	-0.950982	-1.651290	-0.081501	0.248983	0.052001	0.355907	0.599438	0.460382	-0.549593
60106	-9.695826	-0.915609	-1.666910	-0.039566	0.251729	0.064612	0.355634	0.599543	0.460104	-0.549887
60107	-9.657785	-0.804515	-1.556172	0.029313	0.120147	0.001916	0.355358	0.599660	0.459815	-0.550181
60108	-9.586265	-0.849717	-1.633514	0.013382	0.219717	-0.053670	0.355264	0.599667	0.459758	-0.550282
60109	-9.626821	-0.801093	-1.562325	0.037528	0.130120	-0.028008	0.355071	0.599749	0.459713	-0.550355
60110	-9.671748	-0.766135	-1.493128	0.049337	0.046205	0.003348	0.354925	0.599816	0.459588	-0.550480
60111	-9.681141	-0.817668	-1.438264	-0.016236	0.010570	0.008784	0.354722	0.599914	0.459463	-0.550607
60112	-9.693401	-0.803814	-1.524501	0.027549	0.084275	0.032331	0.354759	0.599857	0.459474	-0.550637
60113	-9.659545	-0.784252	-1.404222	0.005323	-0.028224	-0.020197	0.354636	0.599866	0.459468	-0.550711
60114	-9.627850	-0.694759	-1.471875	0.113478	0.009562	-0.048896	0.354682	0.599735	0.459622	-0.550697
60115	-9.619463	-0.657550	-1.433975	0.137057	-0.037145	-0.065762	0.354737	0.599599	0.459795	-0.550664
60116	-9.649931	-0.677633	-1.459628	0.129859	-0.012277	-0.030364	0.354770	0.599461	0.459978	-0.550641
60117	-9.666592	-0.728907	-1.513618	0.101527	0.050528	-0.001853	0.354960	0.599287	0.460335	-0.550409
60118	-9.631746	-0.782192	-1.428929	0.021118	-0.007363	-0.044182	0.355282	0.599038	0.460829	-0.550059
60119	-9.644198	-0.789995	-1.460802	0.024089	0.020051	-0.026595	0.355663	0.598740	0.461362	-0.549690
60120	-9.661041	-0.907592	-1.469173	-0.084279	0.060949	0.000930	0.355972	0.598506	0.461818	-0.549362
60121	-9.730623	-0.987911	-1.515064	-0.143332	0.116343	0.082884	0.356313	0.598247	0.462222	-0.549084
60122	-9.721418	-0.971302	-1.545779	-0.117779	0.140583	0.076964	0.356350	0.598175	0.462279	-0.549090
60123	-9.660283	-0.902145	-1.516196	-0.063243	0.101404	0.006656	0.356336	0.598139	0.462253	-0.549160
60124	-9.625027	-0.768766	-1.558028	0.076224	0.103556	-0.032961	0.356356	0.598100	0.462263	-0.549181
60125	-9.645949	-0.747693	-1.671054	0.135326	0.199362	0.002492	0.356355	0.598050	0.462252	-0.549246
60126	-9.668377	-0.727187	-1.658370	0.151787	0.177724	0.021024	0.356485	0.597933	0.462392	-0.549170
60127	-9.665302	-0.742090	-1.552100	0.102267	0.084741	0.003633	0.356629	0.597807	0.462504	-0.549120
60128	-9.640178	-0.732480	-1.447403	0.075394	-0.011115	-0.037273	0.356892	0.597624	0.462753	-0.548939
60129	-9.662026	-0.722421	-1.469902	0.092703	0.002745	-0.013267	0.357005	0.597514	0.462913	-0.548849
60130	-9.625456	-0.752193	-1.566469	0.096122	0.108428	-0.032706	0.357198	0.597318	0.463133	-0.548752
60131	-9.686747	-0.822471	-1.594438	0.041455	0.147244	0.037610	0.357410	0.597111	0.463388	-0.548623
60132	-9.661145	-0.842129	-1.512105	-0.004484	0.081181	0.001932	0.357672	0.596855	0.463696	-0.548472
60133	-9.621846	-0.797449	-1.482293	0.027487	0.045045	-0.044870	0.357840	0.596657	0.463995	-0.548325
60134	-9.661200	-0.781900	-1.513445	0.054584	0.061840	-0.002802	0.357990	0.596479	0.464224	-0.548226
60135	-9.637740	-0.870443	-1.603566	0.001035	0.178502	-0.005381	0.358141	0.596289	0.464386	-0.548196
60136	-9.646106	-0.926806	-1.628926	-0.042748	0.219346	0.011253	0.358324	0.596105	0.464608	-0.548089
60137	-9.650975	-0.947559	-1.584176	-0.075957	0.183819	0.011224	0.358370	0.596013	0.464662	-0.548114
60138	-9.744352	-0.890088	-1.570776	-0.021768	0.138858	0.096512	0.358370	0.595948	0.464630	-0.548212
60139	-9.682364	-0.888503	-1.618094	-0.004310	0.194963	0.042149	0.358259	0.595921	0.464466	-0.548453
60140	-9.580823	-0.818392	-1.692522	0.085862	0.261645	-0.053039	0.358171	0.595895	0.464316	-0.548665
60141	-9.630957	-0.770652	-1.599163	0.104476	0.153214	-0.021253	0.357959	0.595968	0.464087	-0.548917
60142	-9.640921	-0.715661	-1.533829	0.137012	0.074133	-0.025559	0.358020	0.595874	0.464162	-0.548917
60143	-9.684553	-0.792653	-1.553095	0.072663	0.109897	0.026703	0.358133	0.595761	0.464298	-0.548851
60144	-9.648853	-0.879253	-1.567248	-0.004855	0.158115	0.000808	0.358285	0.595598	0.464337	-0.548895
60145	-9.579208	-0.912141	-1.484004	-0.064437	0.104972	-0.077169	0.358454	0.595430	0.464411	-0.548904
60146	-9.583054	-0.880209	-1.598866	0.004830	0.203288	-0.059497	0.358460	0.595337	0.464429	-0.548986
60147	-9.680937	-0.843623	-1.542188	0.025921	0.122791	0.025749	0.358335	0.595355	0.464426	-0.549051
60148	-9.628580	-0.826010	-1.460331	0.015185	0.048269	-0.039160	0.358393	0.595271	0.464588	-0.548967
60149	-9.579062	-0.864936	-1.517601	-0.004501	0.120883	-0.076414	0.358617	0.595085	0.464902	-0.548757
60150	-9.644024	-0.925246	-1.606619	-0.030557	0.211532	0.005603	0.358836	0.594902	0.465168	-0.548587
60151	-9.707412	-0.878843	-1.465209	-0.030798	0.054105	0.043740	0.358994	0.594752	0.465346	-0.548494
60152	-9.671394	-0.999323	-1.457891	-0.148205	0.091342	0.017350	0.359098	0.594684	0.465439	-0.548421
60153	-9.638964	-1.069495	-1.579602	-0.176366	0.232464	0.008893	0.359126	0.594665	0.465471	-0.548397
60154	-9.662158	-0.975351	-1.533826	-0.101965	0.156662	0.017180	0.359208	0.594635	0.465470	-0.548376
60155	-9.595828	-0.974656	-1.569666	-0.092138	0.201905	-0.043119	0.359206	0.594653	0.465379	-0.548435
60156	-9.632011	-0.921952	-1.529334	-0.054630	0.142332	-0.017726	0.359163	0.594717	0.465307	-0.548456
60157	-9.697981	-0.942946	-1.560425	-0.062624	0.167694	0.053562	0.359093	0.594803	0.465163	-0.548530
60158	-9.640594	-0.976287	-1.554554	-0.098479	0.182924	-0.001078	0.359066	0.594869	0.465052	-0.548570
60159	-9.663403	-0.926178	-1.520032	-0.063005	0.131501	0.012199	0.359071	0.594962	0.464974	-0.548532
60160	-9.624233	-0.879257	-1.490568	-0.030994	0.095468	-0.034616	0.358910	0.595146	0.464755	-0.548624
60161	-9.660292	-0.911232	-1.392977	-0.093234	0.008540	-0.010484	0.358780	0.595340	0.464549	-0.548672
60162	-9.637525	-0.890377	-1.475530	-0.048937	0.081849	-0.022756	0.358516	0.595628	0.464286	-0.548755
60163	-9.695226	-0.844520	-1.448458	-0.014156	0.030858	0.026393	0.358211	0.595938	0.464007	-0.548854
60164	-9.763086	-0.731862	-1.322945	0.052603	-0.134410	0.065714	0.357935	0.596156	0.463726	-0.549035
60165	-9.759122	-0.655574	-1.321720	0.123965	-0.158931	0.055269	0.357861	0.596237	0.463571	-0.549125
60166	-9.701742	-0.620762	-1.361872	0.167980	-0.121647	0.001630	0.357722	0.596378	0.463273	-0.549314
60167	-9.630573	-0.695756	-1.416387	0.111722	-0.033019	-0.054379	0.357775	0.596458	0.463121	-0.549321
60168	-9.598610	-0.765018	-1.536283	0.083358	0.108270	-0.062812	0.357652	0.596637	0.462805	-0.549473
60169	-9.532218	-0.843117	-1.558535	0.014086	0.167013	-0.118619	0.357587	0.596755	0.462568	-0.549587
60170	-9.584558	-0.906310	-1.649616	-0.014190	0.265690	-0.048692	0.357458	0.596893	0.462295	-0.549751
60171	-9.647884	-0.920037	-1.505810	-0.073204	0.127081	-0.005848	0.357285	0.597054	0.462056	-0.549890
60172	-9.723091	-0.851262	-1.498630	-0.008707	0.084624	0.061612	0.356940	0.597334	0.461861	-0.549973
60173	-9.773205	-0.654891	-1.346587	0.126439	-0.132300	0.072869	0.356737	0.597518	0.461810	-0.549947
60174	-9.679730	-0.679192	-1.384006	0.112006	-0.076618	-0.011895	0.356755	0.597578	0.461827	-0.549857
60175	-9.665644	-0.686882	-1.469574	0.131685	0.007614	-0.012752	0.356866	0.597534	0.461868	-0.549798
60176	-9.700205	-0.678064	-1.566468	0.172756	0.089926	0.034629	0.356876	0.597546	0.461831	-0.549809
60177	-9.670815	-0.642840	-1.426145	0.157635	-0.046982	-0.017549	0.356953	0.597513	0.461874	-0.549759
60178	-9.599150	-0.781556	-1.481276	0.042490	0.060451	-0.068805	0.357082	0.597437	0.462081	-0.549584
60179	-9.580491	-0.793031	-1.554617	0.054477	0.133733	-0.075609	0.357260	0.597327	0.462344	-0.549367
60180	-9.667946	-0.787192	-1.622024	0.083764	0.178575	0.019958	0.357435	0.597221	0.462582	-0.549168
60181	-9.681542	-0.788888	-1.572352	0.065055	0.129493	0.026311	0.357528	0.597173	0.462697	-0.549062
60182	-9.660499	-0.826938	-1.447380	-0.013828	0.027848	-0.009473	0.357581	0.597165	0.462780	-0.548966
60183	-9.703951	-0.851507	-1.503550	-0.018394	0.080137	0.043561	0.357782	0.597067	0.462964	-0.548787
60184	-9.670991	-0.943761	-1.692813	-0.045179	0.292124	0.046166	0.358015	0.596933	0.463084	-0.548679
60185	-9.653439	-0.881838	-1.729774	0.024943	0.311109	0.029123	0.357921	0.596972	0.462922	-0.548834
60186	-9.623312	-0.802277	-1.703017	0.091386	0.267164	-0.011039	0.357754	0.597088	0.462674	-0.549028
60187	-9.598152	-0.810252	-1.585555	0.044849	0.165592	-0.052278	0.357622	0.597191	0.462495	-0.549152
60188	-9.651095	-0.744885	-1.601601	0.112866	0.150205	-0.003084	0.357687	0.597180	0.462626	-0.549010
60189	-9.655247	-0.741167	-1.616350	0.120541	0.161084	0.002874	0.357728	0.597172	0.462655	-0.548968
60190	-9.633653	-0.801258	-1.558509	0.043312	0.130276	-0.021906	0.357777	0.597172	0.462645	-0.548946
60191	-9.607771	-0.909616	-1.496197	-0.080645	0.112854	-0.047646	0.357782	0.597183	0.462508	-0.549046
60192	-9.671307	-1.019541	-1.326783	-0.238409	-0.018157	-0.000611	0.357780	0.597178	0.462436	-0.549112
60193	-9.742314	-0.919657	-1.327626	-0.141448	-0.060407	0.061389	0.357771	0.597163	0.462436	-0.549134
60194	-9.709663	-0.872188	-1.530995	-0.030132	0.119444	0.054786	0.357830	0.597144	0.462448	-0.549108
60195	-9.656163	-0.879375	-1.596702	-0.017755	0.192258	0.012126	0.357861	0.597188	0.462395	-0.549084
60196	-9.713502	-0.855430	-1.635252	0.018888	0.212121	0.072280	0.357746	0.597279	0.462178	-0.549242
60197	-9.609315	-0.704078	-1.505312	0.116384	0.061123	-0.061619	0.357613	0.597334	0.461963	-0.549450
60198	-9.595815	-0.685338	-1.566133	0.155081	0.115613	-0.067704	0.357572	0.597346	0.461874	-0.549539
60199	-9.613709	-0.808044	-1.525610	0.025813	0.115195	-0.045913	0.357694	0.597327	0.461949	-0.549416
60200	-9.684175	-0.938196	-1.533710	-0.093585	0.153470	0.035328	0.357778	0.597312	0.461950	-0.549377
60201	-9.733065	-0.875657	-1.534517	-0.033109	0.127053	0.078563	0.357734	0.597326	0.461850	-0.549475
60202	-9.624033	-0.738231	-1.425975	0.057685	0.000631	-0.055789	0.357707	0.597345	0.461744	-0.549562
60203	-9.645268	-0.778850	-1.537541	0.057206	0.115283	-0.015480	0.357612	0.597434	0.461596	-0.549651
60204	-9.644816	-0.846455	-1.614108	0.019498	0.210275	0.000554	0.357387	0.597607	0.461220	-0.549924
60205	-9.615133	-0.806057	-1.517665	0.025210	0.114387	-0.045902	0.357015	0.597915	0.460721	-0.550249
60206	-9.686429	-0.694751	-1.484302	0.121453	0.036711	0.010583	0.356923	0.597974	0.460574	-0.550368
60207	-9.727127	-0.616219	-1.390303	0.165035	-0.082617	0.030869	0.356959	0.597948	0.460616	-0.550338
60208	-9.735303	-0.852189	-1.456306	-0.035368	0.055208	0.067540	0.357217	0.597805	0.460781	-0.550188
60209	-9.628978	-1.060147	-1.534780	-0.208583	0.216109	-0.009297	0.357275	0.597786	0.460580	-0.550339
60210	-9.580816	-1.126831	-1.606971	-0.247771	0.318803	-0.041244	0.357091	0.597945	0.460000	-0.550770
60211	-9.622371	-1.064091	-1.496108	-0.224056	0.193889	-0.021219	0.356770	0.598238	0.459421	-0.551143
60212	-9.635290	-1.060441	-1.614328	-0.179885	0.303197	0.007960	0.356307	0.598639	0.458863	-0.551472
60213	-9.608640	-0.971288	-1.649969	-0.085093	0.311485	-0.020472	0.355884	0.599070	0.458354	-0.551701
60214	-9.613441	-0.944494	-1.596032	-0.079055	0.251503	-0.025546	0.355380	0.599531	0.457780	-0.552001
60215	-9.604929	-0.724173	-1.519708	0.101275	0.108044	-0.062473	0.354682	0.600101	0.457034	-0.552449
60216	-9.681823	-0.516114	-1.231976	0.198936	-0.241987	-0.044182	0.354139	0.600552	0.456468	-0.552775
60217	-9.792986	-0.537798	-1.125238	0.142457	-0.352577	0.052066	0.354001	0.600801	0.456267	-0.552758
60218	-9.805104	-0.714500	-1.287534	0.030186	-0.146072	0.101246	0.354049	0.600924	0.456296	-0.552569
60219	-9.707730	-0.831174	-1.330192	-0.070233	-0.052653	0.020551	0.354010	0.601095	0.456167	-0.552516
60220	-9.610217	-0.750326	-1.345652	0.005815	-0.050794	-0.079886	0.353785	0.601379	0.455871	-0.552594
60221	-9.659168	-0.543695	-1.240892	0.162255	-0.226307	-0.062948	0.353570	0.601612	0.455558	-0.552737
60222	-9.787412	-0.649904	-1.285716	0.079435	-0.167969	0.078437	0.353753	0.601623	0.455487	-0.552667
60223	-9.707269	-0.937344	-1.542386	-0.105129	0.183989	0.058672	0.354068	0.601539	0.455439	-0.552595
60224	-9.565531	-1.007417	-1.709681	-0.118295	0.389177	-0.051958	0.354068	0.601657	0.455180	-0.552681
60225	-9.543132	-0.885935	-1.737422	0.003080	0.378711	-0.079679	0.353747	0.602009	0.454705	-0.552894
60226	-9.610177	-0.539162	-1.442365	0.223822	-0.025105	-0.082534	0.353253	0.602527	0.454206	-0.553056
60227	-9.640928	-0.428907	-1.351551	0.292329	-0.155204	-0.073663	0.353111	0.602801	0.454084	-0.552949
60228	-9.807258	-0.452187	-1.481018	0.316234	-0.057433	0.110865	0.353178	0.602894	0.454191	-0.552716
60229	-9.786163	-0.599624	-1.442893	0.160772	-0.039942	0.096048	0.353532	0.602770	0.454424	-0.552433
60230	-9.693732	-0.902042	-1.613477	-0.067230	0.237805	0.052624	0.353915	0.602572	0.454625	-0.552239
60231	-9.686715	-1.029302	-1.577456	-0.200805	0.252957	0.050171	0.354124	0.602467	0.454490	-0.552330
60232	-9.643283	-1.065144	-1.640845	-0.213375	0.336703	0.018941	0.354137	0.602508	0.454130	-0.552573
60233	-9.629720	-0.938660	-1.692747	-0.076813	0.348362	0.003153	0.353906	0.602722	0.453656	-0.552876
60234	-9.606061	-0.677499	-1.737596	0.182745	0.306286	-0.033759	0.353781	0.602880	0.453373	-0.553017
60235	-9.604979	-0.490125	-1.745385	0.359978	0.250216	-0.047954	0.353712	0.602996	0.453182	-0.553091
60236	-9.584138	-0.617373	-1.760929	0.245132	0.314336	-0.056724	0.353858	0.602942	0.453067	-0.553151
60237	-9.618074	-0.858172	-1.702837	-0.000290	0.342643	-0.013399	0.353901	0.602942	0.452830	-0.553317
60238	-9.514655	-1.078152	-1.683339	-0.215055	0.421219	-0.101816	0.353885	0.602991	0.452592	-0.553469
60239	-9.725334	-0.783603	-0.993262	-0.182296	-0.350107	-0.013355	0.354426	0.602834	0.452857	-0.553076
60240	-9.677082	-1.318630	-2.839838	-0.032067	1.550500	0.239392	0.353722	0.603260	0.452272	-0.553542
60241	-9.678361	-0.529070	-1.066882	0.080751	-0.365263	-0.068516	0.353165	0.603625	0.451995	-0.553726
60242	-9.559339	-0.810772	-1.274277	-0.111937	-0.060481	-0.135606	0.353682	0.603307	0.452633	-0.553221
60243	-9.653828	-0.630883	-1.368469	0.089739	-0.054883	-0.042526	0.353799	0.603235	0.453012	-0.552914
60244	-9.714900	-0.668445	-1.423188	0.074701	-0.005279	0.028347	0.353694	0.603279	0.453131	-0.552836
60245	-9.705969	-0.663580	-1.365206	0.058682	-0.062903	0.010884	0.353652	0.603288	0.453332	-0.552688
60246	-9.744203	-0.586582	-1.403481	0.144500	-0.064462	0.048261	0.353731	0.603235	0.453655	-0.552430
60247	-9.672799	-0.591450	-1.430488	0.146101	-0.030065	-0.017949	0.354056	0.603078	0.454086	-0.552038
60248	-9.610093	-0.589405	-1.484102	0.163134	0.026341	-0.072228	0.354406	0.602884	0.454511	-0.551676
60249	-9.583704	-0.629140	-1.472114	0.118936	0.030866	-0.096967	0.354792	0.602642	0.455003	-0.551287
60250	-9.664755	-0.683040	-1.305547	0.010391	-0.121819	-0.037027	0.355000	0.602501	0.455486	-0.550909
60251	-9.698895	-0.784696	-1.415310	-0.047490	0.003358	0.020173	0.355246	0.602321	0.456051	-0.550479
60252	-9.697857	-0.871195	-1.486038	-0.105375	0.092780	0.035968	0.355374	0.602221	0.456477	-0.550152
60253	-9.687510	-0.811161	-1.512189	-0.040941	0.093021	0.025108	0.355361	0.602206	0.456772	-0.549932
60254	-9.673928	-0.645068	-1.390956	0.072390	-0.078104	-0.018587	0.355416	0.602162	0.457092	-0.549679
60255	-9.720105	-0.528202	-1.480509	0.213331	-0.046300	0.031280	0.355434	0.602135	0.457356	-0.549477
60256	-9.760000	-0.550951	-1.444622	0.179778	-0.081617	0.067044	0.355629	0.602011	0.457656	-0.549237
60257	-9.715974	-0.728858	-1.498350	0.028859	0.033475	0.045024	0.355912	0.601828	0.457975	-0.548989
60258	-9.698582	-0.808565	-1.520844	-0.039317	0.084185	0.037216	0.356232	0.601573	0.458214	-0.548860
60259	-9.654354	-0.918872	-1.618380	-0.110567	0.221712	0.016283	0.356518	0.601336	0.458295	-0.548867
60260	-9.641530	-0.933377	-1.652950	-0.112261	0.264952	0.009722	0.356740	0.601158	0.458300	-0.548914
60261	-9.578533	-0.977524	-1.835604	-0.092652	0.463199	-0.022378	0.356890	0.601045	0.458290	-0.548948
60262	-9.565411	-0.935393	-1.829357	-0.055684	0.446909	-0.039470	0.356919	0.601039	0.458319	-0.548912
60263	-9.559560	-0.865749	-1.910548	0.036998	0.499402	-0.038531	0.356858	0.601089	0.458324	-0.548893
60264	-9.587305	-0.783785	-1.743809	0.057687	0.311824	-0.041758	0.356821	0.601135	0.458307	-0.548882
60265	-9.600787	-0.768431	-1.705645	0.059111	0.268289	-0.035195	0.356823	0.601148	0.458339	-0.548838
60266	-9.623534	-0.769160	-1.636947	0.035063	0.200015	-0.022776	0.356797	0.601184	0.458357	-0.548801
60267	-9.642234	-0.818201	-1.564167	-0.035741	0.144880	-0.011337	0.356736	0.601247	0.458304	-0.548817
60268	-9.694904	-0.815053	-1.579281	-0.026912	0.148308	0.042610	0.356655	0.601321	0.458289	-0.548800
60269	-9.671375	-0.781072	-1.673571	0.036725	0.227777	0.030746	0.356547	0.601390	0.458190	-0.548877
60270	-9.609977	-0.717255	-1.600208	0.071078	0.148118	-0.045406	0.356463	0.601430	0.458154	-0.548918
60271	-9.627714	-0.727959	-1.596833	0.060720	0.145485	-0.027606	0.356442	0.601428	0.458144	-0.548942
60272	-9.694990	-0.658085	-1.481837	0.089197	0.004759	0.016543	0.356391	0.601444	0.458073	-0.549017
60273	-9.753630	-0.679083	-1.404310	0.044654	-0.068599	0.064551	0.356469	0.601387	0.458058	-0.549042
60274	-9.699983	-0.744580	-1.512670	0.017953	0.063811	0.032507	0.356655	0.601323	0.458133	-0.548928
60275	-9.651636	-0.771580	-1.532852	-0.002999	0.101015	-0.010196	0.356807	0.601262	0.458117	-0.548909
60276	-9.603570	-0.816434	-1.540269	-0.043680	0.132624	-0.053176	0.356775	0.601264	0.458017	-0.549011
60277	-9.630549	-0.696139	-1.441663	0.037550	-0.002620	-0.050052	0.356659	0.601280	0.457962	-0.549115
60278	-9.669788	-0.652851	-1.451284	0.083621	-0.015385	-0.013197	0.356627	0.601258	0.458071	-0.549069
60279	-9.654828	-0.630485	-1.562088	0.142458	0.080336	-0.013372	0.356646	0.601220	0.458257	-0.548943
60280	-9.676163	-0.621468	-1.587000	0.159540	0.094211	0.010682	0.356686	0.601192	0.458458	-0.548781
60281	-9.636713	-0.654972	-1.545929	0.112649	0.071332	-0.031719	0.356779	0.601125	0.458659	-0.548626
60282	-9.620449	-0.706223	-1.423107	0.022000	-0.025448	-0.062001	0.356863	0.601051	0.458899	-0.548450
60283	-9.621832	-0.767899	-1.298063	-0.078933	-0.124743	-0.074490	0.356922	0.601016	0.459170	-0.548224
60284	-9.651969	-0.832246	-1.337963	-0.125873	-0.075924	-0.034054	0.356896	0.601013	0.459433	-0.548023
60285	-9.704238	-0.847378	-1.344882	-0.136754	-0.078209	0.019616	0.356767	0.601088	0.459604	-0.547883
60286	-9.764759	-0.839459	-1.390928	-0.112705	-0.052736	0.085515	0.356755	0.601083	0.459827	-0.547709
60287	-9.754676	-0.779041	-1.415773	-0.048199	-0.052289	0.074676	0.356670	0.601152	0.459987	-0.547553
60288	-9.754881	-0.711537	-1.341554	-0.010230	-0.147402	0.058580	0.356581	0.601221	0.460065	-0.547469
60289	-9.655375	-0.696674	-1.479869	0.048083	-0.009138	-0.019872	0.356509	0.601269	0.460043	-0.547482
60290	-9.654619	-0.810300	-1.567603	-0.029367	0.109703	0.001218	0.356492	0.601309	0.459981	-0.547503
60291	-9.609951	-0.936978	-1.655662	-0.120815	0.241506	-0.019967	0.356559	0.601328	0.459923	-0.547486
60292	-9.529296	-1.054563	-1.784688	-0.191074	0.413986	-0.071188	0.356519	0.601436	0.459834	-0.547468
60293	-9.560085	-1.015059	-1.768196	-0.160227	0.379294	-0.046288	0.356271	0.601697	0.459637	-0.547508
60294	-9.581880	-0.891896	-1.706519	-0.065805	0.274285	-0.043319	0.355920	0.602016	0.459480	-0.547517
60295	-9.668736	-0.802645	-1.712209	0.021083	0.230097	0.036524	0.355455	0.602400	0.459313	-0.547537
60296	-9.710759	-0.649415	-1.733482	0.173242	0.186071	0.069666	0.354952	0.602765	0.459088	-0.547651
60297	-9.705994	-0.552245	-1.671109	0.243518	0.091330	0.048157	0.354515	0.603086	0.458923	-0.547719
60298	-9.684227	-0.477747	-1.587449	0.284378	-0.012029	0.008284	0.354262	0.603292	0.458861	-0.547707
60299	-9.671398	-0.504011	-1.537884	0.241844	-0.051028	-0.009935	0.354155	0.603388	0.458949	-0.547597
60300	-9.679644	-0.578079	-1.554870	0.177672	-0.016343	0.006450	0.353955	0.603532	0.459025	-0.547504
60301	-9.684506	-0.615382	-1.502568	0.124850	-0.057971	0.006025	0.353896	0.603531	0.459255	-0.547351
60302	-9.599208	-0.716822	-1.554015	0.045874	0.032604	-0.062282	0.353792	0.603543	0.459587	-0.547125
60303	-9.609312	-0.615987	-1.628766	0.167260	0.058687	-0.048478	0.353546	0.603612	0.459918	-0.546930
60304	-9.627887	-0.520929	-1.500138	0.213734	-0.104088	-0.057613	0.353509	0.603569	0.460438	-0.546565
60305	-9.704602	-0.599008	-1.579487	0.168763	-0.027325	0.036356	0.353508	0.603525	0.461039	-0.546107
60306	-9.740126	-0.643555	-1.522688	0.107785	-0.079510	0.065817	0.353753	0.603287	0.461671	-0.545677
60307	-9.673237	-0.804990	-1.534540	-0.041345	-0.008827	0.014446	0.353956	0.603052	0.462199	-0.545359
60308	-9.715035	-0.862285	-1.614811	-0.065844	0.073210	0.072825	0.353859	0.602998	0.462406	-0.545306
60309	-9.639651	-0.844398	-1.602995	-0.052222	0.066859	-0.004615	0.353797	0.602924	0.462557	-0.545299
60310	-9.558079	-0.863689	-1.678364	-0.044402	0.155786	-0.071358	0.353788	0.602815	0.462739	-0.545272
60311	-9.628451	-0.928227	-1.874048	-0.035633	0.344904	0.034165	0.353781	0.602700	0.462898	-0.545268
60312	-9.715982	-0.869081	-1.897058	0.031820	0.330502	0.119291	0.353769	0.602606	0.463023	-0.545274
60313	-9.715007	-0.882850	-1.931018	0.032135	0.365877	0.124853	0.353685	0.602584	0.463062	-0.545319
60314	-9.621061	-0.855481	-1.781038	0.007083	0.233417	0.006387	0.353543	0.602628	0.463025	-0.545393
60315	-9.532299	-0.829402	-1.599285	-0.030737	0.070844	-0.111946	0.353571	0.602595	0.463128	-0.545325
60316	-9.487064	-0.855420	-1.635055	-0.044230	0.119096	-0.148661	0.353689	0.602470	0.463378	-0.545174
60317	-9.604915	-0.812949	-1.685297	0.015618	0.129378	-0.028081	0.353793	0.602344	0.463598	-0.545058
60318	-9.673924	-0.860921	-1.753169	-0.004617	0.195339	0.054501	0.353846	0.602263	0.463680	-0.545044
60319	-9.661408	-0.960532	-1.730329	-0.105869	0.209984	0.046530	0.353956	0.602171	0.463682	-0.545073
60320	-9.598658	-1.065803	-1.785636	-0.187641	0.308795	0.002001	0.354012	0.602128	0.463639	-0.545120
60321	-9.560662	-1.115296	-1.727524	-0.254297	0.280015	-0.040717	0.353997	0.602149	0.463469	-0.545252
60322	-9.585498	-1.080366	-1.819559	-0.189463	0.352025	-0.004531	0.353833	0.602281	0.463201	-0.545440
60323	-9.583353	-0.991400	-1.924140	-0.069692	0.421692	0.002768	0.353493	0.602546	0.462808	-0.545700
60324	-9.602427	-0.854896	-1.857588	0.037292	0.311493	0.000042	0.353116	0.602877	0.462449	-0.545883
60325	-9.551324	-0.806783	-1.755079	0.046550	0.207324	-0.070314	0.352760	0.603177	0.462235	-0.545964
60326	-9.554139	-0.777445	-1.610344	0.024459	0.059626	-0.092860	0.352485	0.603429	0.462088	-0.545987
60327	-9.637099	-0.725841	-1.438164	0.015317	-0.135905	-0.042829	0.352206	0.603673	0.462057	-0.545924
60328	-9.713417	-0.650330	-1.357646	0.059295	-0.254419	0.013215	0.352032	0.603835	0.462145	-0.545783
60329	-9.725384	-0.613715	-1.382440	0.101176	-0.251032	0.025891	0.351915	0.603951	0.462283	-0.545613
60330	-9.735945	-0.617414	-1.462828	0.124149	-0.182419	0.049412	0.351827	0.604036	0.462460	-0.545425
60331	-9.709806	-0.585241	-1.421698	0.138847	-0.231650	0.014374	0.351761	0.604098	0.462658	-0.545231
60332	-9.705976	-0.577202	-1.378252	0.130807	-0.278307	0.002818	0.351759	0.604096	0.462863	-0.545060
60333	-9.691970	-0.653380	-1.557563	0.118459	-0.087832	0.024255	0.351949	0.604011	0.463176	-0.544766
60334	-9.717152	-0.729468	-1.756523	0.113043	0.114097	0.087552	0.352135	0.603903	0.463495	-0.544494
60335	-9.658300	-0.820647	-1.795569	0.038217	0.188479	0.043443	0.352259	0.603794	0.463744	-0.544323
60336	-9.585699	-0.837065	-1.853219	0.040345	0.258355	-0.017160	0.352364	0.603690	0.463994	-0.544157
60337	-9.565947	-0.867981	-1.913895	0.031564	0.326046	-0.024101	0.352364	0.603626	0.464185	-0.544066
60338	-9.550708	-0.867561	-1.966976	0.049769	0.374989	-0.030326	0.352432	0.603545	0.464462	-0.543875
60339	-9.509782	-0.879226	-1.984434	0.043305	0.398741	-0.066606	0.352445	0.603517	0.464718	-0.543680
60340	-9.571388	-0.848487	-1.963410	0.066200	0.353407	-0.011815	0.352348	0.603554	0.464933	-0.543517
60341	-9.670522	-0.752882	-1.870721	0.126827	0.213693	0.062720	0.352432	0.603485	0.465232	-0.543283
60342	-9.667491	-0.840148	-1.800243	0.019738	0.173761	0.055267	0.352626	0.603363	0.465578	-0.542996
60343	-9.671080	-0.960845	-1.812269	-0.091400	0.221199	0.070635	0.352831	0.603228	0.465840	-0.542789
60344	-9.637574	-1.021801	-1.898140	-0.121866	0.326478	0.056882	0.352945	0.603156	0.465888	-0.542753
60345	-9.591958	-1.075312	-1.953126	-0.154864	0.404374	0.025461	0.352840	0.603233	0.465717	-0.542882
60346	-9.573563	-1.015277	-1.990019	-0.084942	0.424133	0.008563	0.352577	0.603393	0.465385	-0.543160
60347	-9.534740	-0.891532	-1.972142	0.026492	0.376106	-0.042668	0.352396	0.603508	0.465143	-0.543357
60348	-9.533620	-0.825408	-2.018844	0.106007	0.398973	-0.041479	0.352150	0.603655	0.464907	-0.543555
60349	-9.585755	-0.701689	-1.898450	0.184679	0.237108	-0.020198	0.351819	0.603882	0.464632	-0.543753
60350	-9.641123	-0.602774	-1.814779	0.251498	0.116008	0.012348	0.351570	0.604093	0.464406	-0.543872
60351	-9.645782	-0.651757	-1.652574	0.150570	-0.019281	-0.005861	0.351413	0.604248	0.464165	-0.544008
60352	-9.614199	-0.691490	-1.528884	0.070726	-0.113709	-0.054074	0.351413	0.604249	0.464065	-0.544092
60353	-9.659386	-0.711282	-1.502399	0.044739	-0.138125	-0.012393	0.351464	0.604172	0.464052	-0.544155
60354	-9.723643	-0.791082	-1.576538	-0.002777	-0.053719	0.069500	0.351519	0.604068	0.464129	-0.544169
60355	-9.706237	-0.825436	-1.727365	0.016723	0.101740	0.080014	0.351658	0.603921	0.464220	-0.544166
60356	-9.637039	-0.851003	-1.688554	-0.021712	0.089182	0.007675	0.351962	0.603705	0.464340	-0.544106
60357	-9.580615	-0.900755	-1.667085	-0.077694	0.098430	-0.047290	0.352245	0.603512	0.464508	-0.543994
60358	-9.657843	-0.790315	-1.604197	0.006140	-0.008498	0.009322	0.352554	0.603287	0.464742	-0.543843
60359	-9.711305	-0.722203	-1.760278	0.122799	0.105705	0.081925	0.352966	0.603013	0.465067	-0.543603
60360	-9.696283	-0.809340	-1.830186	0.062057	0.202669	0.085675	0.353249	0.602847	0.465274	-0.543424
60361	-9.665994	-0.809028	-1.651418	0.001324	0.043074	0.026586	0.353462	0.602673	0.465431	-0.543344
60362	-9.602842	-0.887287	-1.545323	-0.109817	-0.016847	-0.046546	0.354013	0.602281	0.465831	-0.543077
60363	-9.613328	-1.006696	-1.660831	-0.185341	0.129143	-0.007747	0.354575	0.601883	0.466257	-0.542787
60364	-9.678638	-0.886159	-1.708499	-0.055509	0.123802	0.054525	0.354820	0.601694	0.466529	-0.542603
60365	-9.752397	-0.607163	-1.766747	0.227292	0.074785	0.114147	0.355094	0.601551	0.466813	-0.542338
60366	-9.702286	-0.557103	-1.661791	0.236903	-0.029349	0.043746	0.355604	0.601227	0.467190	-0.542039
60367	-9.588720	-0.656961	-1.623177	0.125192	-0.010860	-0.066198	0.356265	0.600786	0.467674	-0.541675
60368	-9.551186	-0.721549	-1.553746	0.038770	-0.045604	-0.109269	0.356999	0.600265	0.468225	-0.541294
60369	-9.599158	-0.775347	-1.597083	0.001271	0.006012	-0.050739	0.357667	0.599792	0.468708	-0.540959
60370	-9.761839	-0.777902	-1.642391	0.015568	0.021701	0.116832	0.358038	0.599539	0.469019	-0.540725
60371	-9.652783	-0.723791	-1.599023	0.049409	-0.014629	-0.001759	0.358322	0.599348	0.469174	-0.540614
60372	-9.573790	-0.794552	-1.590632	-0.023040	0.015812	-0.075229	0.358774	0.599027	0.469483	-0.540402
60373	-9.675495	-0.789824	-1.604609	-0.012756	0.011689	0.026698	0.359259	0.598663	0.469825	-0.540185
60374	-9.698176	-0.750692	-1.601941	0.023705	-0.003885	0.045497	0.359694	0.598309	0.470104	-0.540045
60375	-9.613434	-0.767805	-1.659738	0.023625	0.073953	-0.027170	0.360053	0.598032	0.470277	-0.539962
60376	-9.583130	-0.777782	-1.652759	0.011765	0.078659	-0.057350	0.360179	0.597873	0.470356	-0.539986
60377	-9.601475	-0.805590	-1.635833	-0.018400	0.070060	-0.039868	0.360388	0.597668	0.470501	-0.539947
60378	-9.590940	-0.889055	-1.720173	-0.071694	0.178017	-0.030115	0.360737	0.597421	0.470751	-0.539769
60379	-9.671254	-0.991612	-1.688415	-0.177590	0.166172	0.051796	0.360801	0.597365	0.470788	-0.539756
60380	-9.598452	-0.965925	-1.593563	-0.184531	0.083267	-0.037119	0.360960	0.597239	0.470893	-0.539698
60381	-9.598102	-0.931477	-1.616283	-0.144818	0.094758	-0.036510	0.361086	0.597130	0.471021	-0.539621
60382	-9.480185	-0.901892	-1.754850	-0.076745	0.236184	-0.132546	0.361193	0.597051	0.471162	-0.539515
60383	-9.518330	-0.851620	-1.811557	-0.010367	0.264982	-0.089763	0.360813	0.597329	0.471015	-0.539589
60384	-9.625813	-0.786468	-1.719550	0.025942	0.136004	-0.003891	0.360435	0.597624	0.470839	-0.539669
60385	-9.671045	-0.768404	-1.643312	0.019126	0.046419	0.026901	0.360251	0.597866	0.470849	-0.539516
60386	-9.694842	-0.821178	-1.543682	-0.064015	-0.039400	0.038283	0.360136	0.598051	0.470816	-0.539416
60387	-9.660681	-0.839852	-1.482773	-0.103596	-0.087050	-0.003793	0.360179	0.598076	0.470890	-0.539295
60388	-9.644462	-0.813130	-1.593678	-0.045469	0.009038	-0.003789	0.360115	0.598180	0.470955	-0.539165
60389	-9.691440	-0.745215	-1.644497	0.035357	0.024674	0.045399	0.359776	0.598441	0.470744	-0.539286
60390	-9.636752	-0.833355	-1.698143	-0.032250	0.109960	0.007294	0.359431	0.598716	0.470416	-0.539498
60391	-9.575754	-0.905869	-1.655385	-0.115402	0.102270	-0.053989	0.359061	0.599013	0.470105	-0.539685
60392	-9.551379	-0.825130	-1.738656	-0.012705	0.158262	-0.070645	0.358758	0.599259	0.469868	-0.539819
60393	-9.683844	-0.807861	-1.900673	0.057720	0.278150	0.084855	0.358418	0.599581	0.469622	-0.539903
60394	-9.731970	-0.739511	-1.731864	0.069779	0.087980	0.099167	0.357974	0.599930	0.469295	-0.540093
60395	-9.644400	-0.774423	-1.688660	0.021531	0.072406	0.008720	0.357526	0.600274	0.468906	-0.540346
60396	-9.579218	-0.833736	-1.642672	-0.049269	0.059327	-0.058255	0.356998	0.600637	0.468387	-0.540742
60397	-9.627846	-0.798925	-1.806425	0.040136	0.192336	0.013719	0.356389	0.601026	0.467858	-0.541168
60398	-9.686428	-0.753779	-1.918729	0.123885	0.270855	0.086195	0.355706	0.601456	0.467349	-0.541579
60399	-9.702490	-0.691471	-1.791931	0.144601	0.126765	0.076220	0.355038	0.601918	0.466941	-0.541857
60400	-9.649210	-0.563983	-1.611359	0.205556	-0.077297	-0.016077	0.354448	0.602373	0.466633	-0.542004
60401	-9.567752	-0.543919	-1.495160	0.183742	-0.182356	-0.117007	0.354175	0.602637	0.466572	-0.541939
60402	-9.574993	-0.538186	-1.527734	0.198529	-0.160135	-0.105007	0.354009	0.602807	0.466627	-0.541812
60403	-9.657964	-0.604573	-1.537998	0.139972	-0.149503	-0.016501	0.353883	0.602909	0.466757	-0.541669
60404	-9.631472	-0.725696	-1.513707	0.016676	-0.133108	-0.036942	0.353726	0.603011	0.466865	-0.541566
60405	-9.695704	-0.856669	-1.557976	-0.090631	-0.066300	0.044048	0.353536	0.603095	0.466959	-0.541515
60406	-9.620260	-0.837718	-1.547478	-0.076897	-0.072529	-0.033389	0.353418	0.603119	0.467131	-0.541416
60407	-9.631278	-0.749163	-1.746205	0.072749	0.077622	0.003660	0.353426	0.603088	0.467375	-0.541235
60408	-9.713272	-0.761974	-1.931497	0.121970	0.234761	0.116510	0.353531	0.603086	0.467615	-0.540961
60409	-9.778777	-0.754263	-1.944839	0.132991	0.230213	0.182567	0.353637	0.603048	0.467736	-0.540830
60410	-9.618224	-0.875541	-1.987419	0.027910	0.338031	0.041834	0.353720	0.603021	0.467766	-0.540780
60411	-9.569780	-0.937554	-1.983365	-0.032927	0.363397	-0.001454	0.353623	0.603064	0.467677	-0.540873
60412	-9.451042	-0.868620	-1.970590	0.026158	0.352106	-0.125827	0.353604	0.603068	0.467633	-0.540919
60413	-9.529853	-0.948726	-1.995811	-0.039562	0.387067	-0.037717	0.353606	0.603096	0.467578	-0.540933
60414	-9.468293	-0.951653	-1.997338	-0.043257	0.402541	-0.097768	0.353566	0.603154	0.467361	-0.541082
60415	-9.432200	-0.942790	-2.034774	-0.022470	0.443222	-0.127720	0.353432	0.603219	0.467184	-0.541250
60416	-9.514981	-0.897245	-2.077247	0.037932	0.453352	-0.042943	0.353335	0.603219	0.467163	-0.541332
60417	-9.545038	-0.917488	-2.102912	0.029914	0.477944	-0.007462	0.353119	0.603304	0.467024	-0.541498
60418	-9.554239	-0.859285	-1.946265	0.035816	0.311613	-0.029467	0.352786	0.603476	0.466793	-0.541722
60419	-9.602836	-0.880476	-1.796009	-0.030845	0.169019	-0.005250	0.352472	0.603657	0.466599	-0.541892
60420	-9.595576	-0.814214	-1.737893	0.013256	0.093359	-0.027525	0.352324	0.603756	0.466569	-0.541904
60421	-9.632219	-0.775979	-1.829961	0.079858	0.157667	0.020893	0.352446	0.603722	0.466743	-0.541713
60422	-9.674258	-0.801473	-1.887799	0.074347	0.209700	0.074067	0.352441	0.603761	0.466824	-0.541602
60423	-9.695346	-0.856195	-1.770106	-0.016074	0.112600	0.079388	0.352257	0.603881	0.466708	-0.541688
60424	-9.690399	-0.873604	-1.649282	-0.071270	0.007764	0.055545	0.352023	0.603999	0.466399	-0.541976
60425	-9.601283	-0.790826	-1.545799	-0.028170	-0.096002	-0.056175	0.351969	0.604031	0.466222	-0.542126
60426	-9.625574	-0.772696	-1.626663	0.016391	-0.029554	-0.020158	0.351980	0.604062	0.466119	-0.542173
60427	-9.660474	-0.677920	-1.797308	0.162777	0.093580	0.035124	0.352104	0.604012	0.466058	-0.542201
60428	-9.611483	-0.750218	-1.824667	0.102168	0.154368	-0.002561	0.352234	0.603946	0.465999	-0.542242
60429	-9.621398	-0.872950	-1.799383	-0.021824	0.170839	0.012863	0.352152	0.604018	0.465852	-0.542341
60430	-9.574371	-0.880428	-1.610063	-0.091474	0.007852	-0.064477	0.351812	0.604182	0.465493	-0.542686
60431	-9.521622	-0.806110	-1.607290	-0.021208	-0.007815	-0.122797	0.351593	0.604295	0.465278	-0.542886
60432	-9.654183	-0.747442	-1.757492	0.088233	0.088542	0.027794	0.351494	0.604368	0.465136	-0.542992
60433	-9.700744	-0.815562	-1.974921	0.098710	0.304430	0.115428	0.351436	0.604405	0.465036	-0.543074
60434	-9.651755	-0.799996	-1.845137	0.069103	0.188481	0.044320	0.351339	0.604476	0.464942	-0.543137
60435	-9.561813	-0.779646	-1.602757	0.004825	-0.026741	-0.086218	0.351275	0.604523	0.464940	-0.543129
60436	-9.598823	-0.698184	-1.544547	0.062896	-0.115270	-0.066239	0.351229	0.604531	0.464977	-0.543118
60437	-9.620234	-0.688556	-1.707930	0.127665	0.027938	-0.018660	0.351268	0.604483	0.465092	-0.543048
60438	-9.655909	-0.708260	-1.841644	0.155000	0.151447	0.040379	0.351356	0.604411	0.465159	-0.543014
60439	-9.758216	-0.817448	-1.819036	0.046304	0.147487	0.146027	0.351460	0.604354	0.465255	-0.542927
60440	-9.740638	-0.825236	-1.670001	-0.011242	0.015052	0.104449	0.351457	0.604302	0.465301	-0.542948
60441	-9.605027	-0.797021	-1.624848	-0.001361	-0.010952	-0.038651	0.351512	0.604180	0.465436	-0.542932
60442	-9.581486	-0.831137	-1.669469	-0.017873	0.045572	-0.051520	0.351605	0.604061	0.465608	-0.542857
60443	-9.594728	-0.810342	-1.816443	0.051965	0.172500	-0.015623	0.351684	0.603956	0.465711	-0.542834
60444	-9.660591	-0.787507	-1.837744	0.082900	0.173759	0.050751	0.351804	0.603824	0.465770	-0.542852
60445	-9.625119	-0.874421	-1.848861	0.004452	0.220617	0.024849	0.351970	0.603680	0.465871	-0.542819
60446	-9.586408	-0.846867	-1.666919	-0.030664	0.050250	-0.045827	0.351966	0.603628	0.465984	-0.542783
60447	-9.584306	-0.703687	-1.590603	0.079938	-0.067455	-0.072401	0.351952	0.603556	0.466073	-0.542794
60448	-9.626660	-0.775278	-1.795276	0.082676	0.137475	0.009274	0.352071	0.603445	0.466225	-0.542711
60449	-9.671580	-0.839349	-1.919409	0.065078	0.265697	0.079394	0.352202	0.603307	0.466325	-0.542692
60450	-9.659460	-0.893534	-1.886099	0.003201	0.255920	0.066353	0.352376	0.603142	0.466452	-0.542654
60451	-9.639106	-0.953353	-1.826259	-0.073360	0.223979	0.041293	0.352450	0.603080	0.466561	-0.542581
60452	-9.519245	-0.851756	-1.699705	-0.022373	0.095464	-0.105943	0.352507	0.603011	0.466648	-0.542546
60453	-9.544971	-0.856498	-1.724434	-0.017829	0.114797	-0.076146	0.352616	0.602912	0.466813	-0.542443
60454	-9.608714	-0.873469	-1.803875	-0.006456	0.180977	0.001155	0.352667	0.602883	0.466951	-0.542324
60455	-9.687931	-0.801436	-1.813274	0.066028	0.150599	0.074639	0.352657	0.602889	0.466990	-0.542289
60456	-9.677517	-0.894198	-1.711226	-0.055569	0.087670	0.055009	0.352748	0.602822	0.467022	-0.542278
60457	-9.577452	-0.947182	-1.657699	-0.125694	0.074055	-0.047882	0.352774	0.602802	0.467052	-0.542256
60458	-9.557151	-0.758880	-1.608324	0.035076	-0.029167	-0.091594	0.352775	0.602796	0.467112	-0.542212
60459	-9.622459	-0.762466	-1.792383	0.093968	0.130918	0.003613	0.352860	0.602739	0.467139	-0.542196
60460	-9.642376	-0.854911	-1.867434	0.032103	0.227738	0.043311	0.352841	0.602759	0.467042	-0.542270
60461	-9.610388	-0.878694	-1.755980	-0.027323	0.138677	-0.004775	0.352640	0.602886	0.466839	-0.542434
60462	-9.618792	-0.847172	-1.621246	-0.040667	0.001969	-0.021587	0.352502	0.602921	0.466774	-0.542541
60463	-9.591951	-0.855564	-1.630251	-0.045006	0.017793	-0.045759	0.352544	0.602853	0.466863	-0.542513
60464	-9.593306	-0.842199	-1.736285	0.002394	0.111399	-0.027848	0.352684	0.602792	0.466981	-0.542388
60465	-9.673027	-0.829409	-1.882547	0.063249	0.227949	0.073838	0.352786	0.602779	0.467055	-0.542273
60466	-9.659686	-0.831882	-1.887432	0.061002	0.235941	0.061753	0.352822	0.602790	0.467016	-0.542270
60467	-9.599810	-0.891995	-1.668010	-0.070172	0.063135	-0.028754	0.352778	0.602834	0.466928	-0.542325
60468	-9.560629	-0.891774	-1.647785	-0.077002	0.051579	-0.070640	0.352650	0.602889	0.466872	-0.542396
60469	-9.550208	-0.781113	-1.705304	0.047200	0.070575	-0.080397	0.352535	0.602944	0.466828	-0.542448
60470	-9.652178	-0.811276	-1.837984	0.065441	0.183771	0.044434	0.352420	0.603040	0.466749	-0.542483
60471	-9.718601	-0.900864	-1.822383	-0.022694	0.185116	0.114500	0.352277	0.603158	0.466633	-0.542545
60472	-9.621757	-0.873264	-1.658665	-0.053841	0.041521	-0.010272	0.352235	0.603238	0.466578	-0.542531
60473	-9.552071	-0.836765	-1.625323	-0.032978	0.011228	-0.087323	0.352191	0.603309	0.466518	-0.542532
60474	-9.593550	-0.768624	-1.568614	0.012812	-0.071880	-0.061677	0.352099	0.603394	0.466472	-0.542536
60475	-9.612585	-0.721269	-1.663808	0.089441	-0.004583	-0.030957	0.351957	0.603486	0.466515	-0.542490
60476	-9.685711	-0.693180	-1.716833	0.135101	0.018955	0.047455	0.351834	0.603585	0.466532	-0.542444
60477	-9.678863	-0.845414	-1.628343	-0.038354	-0.015271	0.038450	0.351762	0.603642	0.466594	-0.542375
60478	-9.598364	-0.946589	-1.643358	-0.130656	0.044311	-0.029732	0.351671	0.603705	0.466598	-0.542360
60479	-9.572111	-0.863083	-1.634830	-0.056166	0.012963	-0.063863	0.351666	0.603767	0.466591	-0.542300
60480	-9.582774	-0.865730	-1.711888	-0.033884	0.081758	-0.040187	0.351578	0.603878	0.466582	-0.542241
60481	-9.605693	-0.876734	-1.818323	-0.009186	0.177779	0.001212	0.351527	0.603951	0.466580	-0.542195
60482	-9.589058	-0.932786	-1.914010	-0.030775	0.286063	0.005703	0.351299	0.604128	0.466457	-0.542252
60483	-9.638089	-0.861027	-1.747367	-0.017820	0.095882	0.019805	0.350960	0.604390	0.466338	-0.542281
60484	-9.564392	-0.862648	-1.679436	-0.043913	0.042563	-0.063918	0.350646	0.604637	0.466289	-0.542250
60485	-9.602617	-0.802352	-1.706963	0.022030	0.036215	-0.026680	0.350384	0.604884	0.466243	-0.542185
60486	-9.587694	-0.835335	-1.736987	0.000036	0.073746	-0.033457	0.350065	0.605143	0.466061	-0.542258
60487	-9.639224	-0.816988	-1.767476	0.028639	0.083070	0.020845	0.349759	0.605374	0.465925	-0.542314
60488	-9.630679	-0.761660	-1.745758	0.073175	0.043051	0.004164	0.349453	0.605620	0.465784	-0.542358
60489	-9.621970	-0.768411	-1.722079	0.058235	0.020657	-0.007867	0.349049	0.605947	0.465628	-0.542387
60490	-9.591741	-0.784954	-1.676368	0.026450	-0.015926	-0.044018	0.348514	0.606346	0.465404	-0.542477
60491	-9.682819	-0.661041	-1.583548	0.113251	-0.165688	0.018960	0.348000	0.606732	0.465162	-0.542583
60492	-9.716418	-0.633012	-1.618092	0.152174	-0.153637	0.055491	0.347662	0.606977	0.464973	-0.542688
60493	-9.698622	-0.657857	-1.736904	0.170195	-0.033566	0.060650	0.347406	0.607114	0.464742	-0.542896
60494	-9.693312	-0.719637	-1.763769	0.123321	0.014105	0.065251	0.347100	0.607290	0.464344	-0.543236
60495	-9.597562	-0.816222	-1.728675	0.021204	0.035028	-0.026674	0.346781	0.607459	0.463920	-0.543613
60496	-9.458615	-0.870569	-1.790111	-0.008045	0.139012	-0.147886	0.346406	0.607617	0.463531	-0.544007
60497	-9.483160	-0.766716	-1.853343	0.115255	0.158460	-0.121729	0.346076	0.607752	0.463322	-0.544244
60498	-9.631913	-0.688245	-1.889618	0.206340	0.134880	0.023843	0.346019	0.607736	0.463526	-0.544125
60499	-9.683893	-0.693687	-2.142694	0.289997	0.355476	0.119063	0.346140	0.607610	0.463983	-0.543799
60500	-9.581186	-0.759698	-2.265749	0.267564	0.506408	0.045398	0.346338	0.607442	0.464406	-0.543499
60501	-9.517062	-0.803370	-2.186822	0.196774	0.457600	-0.027293	0.346586	0.607240	0.464826	-0.543208
60502	-9.464790	-0.849038	-1.904691	0.053242	0.218915	-0.123508	0.347035	0.606959	0.465498	-0.542659
60503	-9.501609	-0.968100	-1.831013	-0.086535	0.177488	-0.089961	0.347548	0.606607	0.466360	-0.541983
60504	-9.543105	-1.028174	-1.868951	-0.131854	0.217667	-0.037402	0.347898	0.606323	0.467078	-0.541460
60505	-9.510648	-1.105752	-2.101019	-0.128119	0.457275	-0.021678	0.348040	0.606131	0.467657	-0.541082
60506	-9.502489	-1.010780	-2.167610	-0.016692	0.481600	-0.025692	0.348020	0.606038	0.468208	-0.540723
60507	-9.483947	-0.879934	-2.045197	0.064993	0.319683	-0.076367	0.347998	0.605954	0.468856	-0.540269
60508	-9.591646	-0.764506	-1.861026	0.114165	0.079084	-0.013287	0.347983	0.605845	0.469630	-0.539729
60509	-9.746589	-0.723780	-1.710373	0.105533	-0.115998	0.108030	0.348077	0.605681	0.470427	-0.539158
