// General information: 
//  MT Manager version: 2021.0.0 
//  XDA version: 2021.0.0 build 5908 rev 109668 built on 2021-04-19
// Device information: 
//  DeviceId: 00B43DF7
//  ProductCode: MTW2-3A7G6
//  Firmware Version: 4.3.5
//  Hardware Version: 1.1.0
// Device settings: 
//  Filter Profile: human(46.1)
//  Option Flags: Orientation Smoother Disabled, Position/Velocity Smoother Disabled, Continuous Zero Rotation Update Disabled, AHS Disabled, ICC Disabled
// Coordinate system: ENU
PacketCounter	Acc_X	Acc_Y	Acc_Z	FreeAcc_E	FreeAcc_N	FreeAcc_U	Quat_q0	Quat_q1	Quat_q2	Quat_q3
59330	-10.638990	-0.658123	1.620142	-0.651102	0.279330	0.945747	0.620569	0.371441	0.513060	-0.462272
59331	-10.877173	-0.520607	1.607208	-0.515552	0.430039	1.174397	0.621403	0.368929	0.512812	-0.463436
59332	-10.833828	-0.139926	1.548097	-0.141812	0.644897	1.112132	0.622023	0.366283	0.512714	-0.464810
59333	-10.535715	0.145151	1.505492	0.159071	0.763901	0.802383	0.622728	0.363487	0.512892	-0.465864
59334	-9.989910	0.363790	1.525290	0.419886	0.746931	0.263163	0.623650	0.360779	0.513241	-0.466351
59335	-9.382603	0.451598	1.587070	0.561423	0.627107	-0.323356	0.624869	0.358265	0.513844	-0.465993
59336	-8.985596	0.362523	1.616889	0.507215	0.514558	-0.704196	0.626363	0.356122	0.514556	-0.464843
59337	-8.807154	0.137722	1.656377	0.310031	0.384639	-0.863696	0.627931	0.354553	0.515250	-0.463155
59338	-8.864951	-0.153503	1.781617	0.061436	0.192139	-0.771428	0.629387	0.353600	0.515876	-0.461207
59339	-9.133611	-0.519487	1.898702	-0.272896	0.016932	-0.473362	0.630623	0.353213	0.516386	-0.459239
59340	-9.410644	-0.707275	2.070330	-0.424266	-0.157826	-0.161690	0.631535	0.353366	0.516688	-0.457525
59341	-9.581272	-0.644506	2.260411	-0.327463	-0.295852	0.042809	0.632178	0.353684	0.517152	-0.455865
59342	-9.688667	-0.731878	2.322497	-0.408463	-0.382035	0.161632	0.632837	0.353919	0.517762	-0.454072
59343	-9.754721	-0.869509	2.422683	-0.521000	-0.529678	0.248523	0.633469	0.354142	0.518336	-0.452359
59344	-9.781430	-0.973467	2.470542	-0.614626	-0.625788	0.284746	0.634004	0.354283	0.518985	-0.450752
59345	-9.771031	-1.067180	2.399707	-0.733167	-0.614549	0.259813	0.634335	0.354473	0.519460	-0.449588
59346	-9.683471	-1.040936	2.333258	-0.731144	-0.576717	0.158775	0.634352	0.354812	0.519651	-0.449075
59347	-9.621667	-0.965839	2.325549	-0.662677	-0.564309	0.094882	0.634056	0.355277	0.519540	-0.449254
59348	-9.548779	-0.852258	2.264748	-0.572720	-0.485346	0.009279	0.633537	0.355774	0.519180	-0.450008
59349	-9.622227	-0.774733	2.162019	-0.535206	-0.345219	0.059302	0.632802	0.356246	0.518687	-0.451237
59350	-9.736520	-0.750633	2.080547	-0.538577	-0.228632	0.154738	0.631929	0.356593	0.518073	-0.452888
59351	-9.862560	-0.713469	1.928172	-0.548809	-0.033510	0.246866	0.630988	0.356787	0.517352	-0.454867
59352	-9.966355	-0.647685	1.780873	-0.524559	0.169198	0.317237	0.629973	0.356828	0.516433	-0.457279
59353	-9.983672	-0.422799	1.653675	-0.334447	0.393760	0.302652	0.628877	0.356748	0.515359	-0.460053
59354	-9.894755	-0.132433	1.600650	-0.050543	0.551547	0.196252	0.627844	0.356487	0.514208	-0.462947
59355	-9.733167	0.115284	1.603504	0.213373	0.628477	0.029995	0.627044	0.356023	0.513092	-0.465618
59356	-9.667470	0.230062	1.601765	0.342324	0.686689	-0.040803	0.626588	0.355394	0.512090	-0.467809
59357	-9.631463	0.284387	1.643301	0.421390	0.690305	-0.071424	0.626511	0.354540	0.511299	-0.469424
59358	-9.554267	0.199757	1.682086	0.364835	0.642342	-0.137588	0.626797	0.353454	0.510810	-0.470393
59359	-9.452314	0.035658	1.784748	0.250148	0.501625	-0.209637	0.627332	0.352199	0.510628	-0.470817
59360	-9.474893	-0.186123	1.875197	0.071089	0.379650	-0.159948	0.628006	0.350900	0.510543	-0.470982
59361	-9.534902	-0.430072	2.024217	-0.113086	0.202091	-0.058554	0.628598	0.349771	0.510524	-0.471052
59362	-9.718144	-0.494631	2.201937	-0.121214	0.077763	0.163021	0.629020	0.348832	0.510547	-0.471160
59363	-9.859966	-0.517873	2.215318	-0.138593	0.107752	0.304818	0.629407	0.347924	0.510473	-0.471394
59364	-9.737525	-0.545203	2.297397	-0.130609	0.012115	0.206167	0.629792	0.347099	0.510316	-0.471659
59365	-9.738086	-0.537060	2.410081	-0.082953	-0.074710	0.232947	0.630046	0.346361	0.510396	-0.471776
59366	-9.738467	-0.468577	2.232046	-0.067376	0.122290	0.188304	0.630303	0.345638	0.510426	-0.471929
59367	-9.616037	-0.373517	2.037607	-0.029330	0.313089	0.018926	0.630617	0.344962	0.510429	-0.472002
59368	-9.572010	-0.391193	2.057099	-0.035358	0.287146	-0.018589	0.630839	0.344480	0.510581	-0.471892
59369	-9.569415	-0.384174	2.091589	-0.014180	0.259926	-0.013286	0.631023	0.344037	0.510907	-0.471616
59370	-9.638273	-0.228467	2.171214	0.160835	0.251846	0.065236	0.631288	0.343500	0.511430	-0.471086
59371	-9.576696	-0.136400	2.181006	0.257505	0.255499	0.003468	0.631731	0.342814	0.512069	-0.470299
59372	-9.483254	-0.203964	2.184885	0.201293	0.203938	-0.083077	0.632252	0.342136	0.512917	-0.469165
59373	-9.440482	-0.240277	2.222228	0.182997	0.138929	-0.113928	0.632782	0.341578	0.513875	-0.467808
59374	-9.405682	-0.293146	2.306614	0.163169	0.022706	-0.125268	0.633311	0.341158	0.514924	-0.466242
59375	-9.392573	-0.379381	2.388433	0.108818	-0.100984	-0.114910	0.633813	0.340962	0.515913	-0.464607
59376	-9.296519	-0.391919	2.490210	0.132123	-0.240664	-0.184365	0.634245	0.340933	0.516851	-0.462993
59377	-9.257672	-0.455619	2.516247	0.079685	-0.316756	-0.213893	0.634550	0.341094	0.517761	-0.461438
59378	-9.267848	-0.491024	2.603848	0.072986	-0.430011	-0.183365	0.634738	0.341381	0.518620	-0.460000
59379	-9.386949	-0.500623	2.612580	0.060812	-0.438780	-0.066163	0.634826	0.341697	0.519515	-0.458633
59380	-9.478078	-0.396390	2.563493	0.138955	-0.362581	0.006261	0.634862	0.341909	0.520477	-0.457331
59381	-9.560030	-0.385011	2.680932	0.189805	-0.470372	0.110643	0.635043	0.341808	0.521554	-0.455927
59382	-9.543559	-0.408668	2.692227	0.177138	-0.512275	0.096943	0.635435	0.341394	0.522724	-0.454348
59383	-9.625622	-0.529997	2.595202	0.031996	-0.466379	0.159774	0.635863	0.340915	0.523880	-0.452776
59384	-9.636299	-0.703650	2.467245	-0.170726	-0.425897	0.148744	0.636102	0.340640	0.524820	-0.451555
59385	-9.583638	-0.793557	2.348938	-0.290003	-0.378373	0.074985	0.635898	0.340867	0.525492	-0.450890
59386	-9.453725	-0.714138	2.319660	-0.216805	-0.369270	-0.061773	0.635211	0.341657	0.525914	-0.450769
59387	-9.365351	-0.476658	2.281025	-0.001758	-0.289372	-0.166118	0.634146	0.342986	0.526136	-0.450998
59388	-9.293926	-0.229061	2.351220	0.258213	-0.305078	-0.231562	0.632964	0.344652	0.526159	-0.451363
59389	-9.364224	-0.117952	2.250455	0.321143	-0.185021	-0.188253	0.631942	0.346410	0.526012	-0.451620
59390	-9.533444	-0.230512	1.992543	0.113463	0.022109	-0.071204	0.630978	0.348200	0.525732	-0.451916
59391	-9.618425	-0.369598	1.741971	-0.112680	0.199548	-0.033495	0.629941	0.349976	0.525353	-0.452432
59392	-9.677985	-0.348393	1.566861	-0.158272	0.361526	-0.010440	0.628775	0.351714	0.524882	-0.453253
59393	-9.762053	-0.126510	1.535999	0.036307	0.466608	0.059188	0.627604	0.353292	0.524370	-0.454240
59394	-9.829915	0.201978	1.678408	0.391293	0.446451	0.143850	0.626718	0.354454	0.523935	-0.455059
59395	-9.960464	0.339251	1.838869	0.568201	0.362598	0.299337	0.626442	0.354931	0.523681	-0.455360
59396	-10.056363	0.170331	1.778975	0.382395	0.381850	0.386928	0.626790	0.354704	0.523593	-0.455159
59397	-10.093351	-0.152363	1.610300	0.016109	0.445482	0.399721	0.627405	0.354153	0.523509	-0.454837
59398	-10.024148	-0.236750	1.464372	-0.115294	0.548513	0.305110	0.627972	0.353724	0.523226	-0.454714
59399	-9.887435	-0.230144	1.488829	-0.102302	0.511708	0.175237	0.628383	0.353440	0.522859	-0.454789
59400	-9.798428	-0.124389	1.625890	0.040135	0.412235	0.111859	0.628830	0.353135	0.522588	-0.454719
59401	-9.797515	-0.109270	1.617277	0.045622	0.432479	0.108487	0.629391	0.352703	0.522519	-0.454358
59402	-9.733509	-0.215572	1.693365	-0.032810	0.318161	0.064197	0.630144	0.352104	0.522753	-0.453510
59403	-9.845533	-0.266278	1.772823	-0.063688	0.251212	0.191370	0.630963	0.351327	0.523223	-0.452429
59404	-9.806093	-0.212276	1.682241	-0.046602	0.346381	0.132779	0.631905	0.350435	0.523600	-0.451370
59405	-9.703568	-0.317071	1.678358	-0.147540	0.296002	0.034509	0.632780	0.349643	0.523959	-0.450339
59406	-9.703031	-0.458793	1.751133	-0.261419	0.181628	0.052628	0.633489	0.349109	0.524146	-0.449540
59407	-9.698875	-0.374267	1.841205	-0.156508	0.128835	0.064417	0.634066	0.348670	0.524279	-0.448911
59408	-9.738220	-0.286077	1.857704	-0.075815	0.154522	0.103774	0.634730	0.348203	0.524349	-0.448253
59409	-9.662652	-0.253862	1.920212	-0.028389	0.096225	0.041674	0.635543	0.347713	0.524396	-0.447425
59410	-9.619823	-0.309491	1.979076	-0.066973	0.015958	0.013236	0.636426	0.347154	0.524564	-0.446407
59411	-9.630836	-0.391924	2.002977	-0.145506	-0.032643	0.030903	0.637361	0.346579	0.524769	-0.445277
59412	-9.601584	-0.472962	1.999611	-0.230934	-0.064791	0.003372	0.638307	0.346041	0.524921	-0.444160
59413	-9.608950	-0.449327	2.079214	-0.191471	-0.128016	0.026209	0.639230	0.345557	0.525067	-0.443035
59414	-9.622798	-0.439832	1.987570	-0.226614	-0.040284	0.020377	0.640068	0.345117	0.525271	-0.441924
59415	-9.620967	-0.347535	1.999941	-0.145085	-0.021946	0.018997	0.640832	0.344706	0.525598	-0.440748
59416	-9.589194	-0.349728	2.053745	-0.132700	-0.083970	-0.001054	0.641638	0.344160	0.526130	-0.439365
59417	-9.588933	-0.358744	2.114164	-0.124073	-0.150250	0.011163	0.642453	0.343561	0.526809	-0.437826
59418	-9.562597	-0.454908	2.114363	-0.215722	-0.201903	-0.013023	0.643201	0.343030	0.527523	-0.436282
59419	-9.584546	-0.474399	2.163521	-0.221521	-0.260258	0.018517	0.643920	0.342639	0.528080	-0.434854
59420	-9.558692	-0.264425	2.187461	-0.023109	-0.217114	-0.005760	0.644656	0.342265	0.528625	-0.433393
59421	-9.549600	-0.145839	2.094426	0.044696	-0.100227	-0.035639	0.645360	0.341951	0.529205	-0.431881
59422	-9.564043	-0.187350	2.081527	-0.007478	-0.114121	-0.023628	0.646108	0.341697	0.529741	-0.430305
59423	-9.574665	-0.320677	1.975045	-0.182066	-0.081629	-0.033218	0.646805	0.341627	0.530148	-0.428810
59424	-9.582732	-0.327983	1.809945	-0.263436	0.050596	-0.058702	0.647201	0.341804	0.530534	-0.427591
59425	-9.557546	-0.217055	1.908529	-0.130237	-0.014604	-0.064915	0.647522	0.342066	0.530860	-0.426490
59426	-9.529610	0.036613	1.884556	0.086908	0.086827	-0.099230	0.647830	0.342296	0.531254	-0.425347
59427	-9.603207	0.123741	1.811087	0.126561	0.183660	-0.041958	0.648025	0.342492	0.531891	-0.424094
59428	-9.646064	-0.062362	1.801561	-0.054970	0.106029	-0.000360	0.648226	0.342662	0.532548	-0.422823
59429	-9.665038	-0.165464	1.781915	-0.161520	0.066068	0.015083	0.648279	0.342913	0.533166	-0.421756
59430	-9.674299	-0.067067	1.773461	-0.077062	0.095847	0.022280	0.648146	0.343338	0.533683	-0.420961
59431	-9.646090	-0.072969	1.813014	-0.064723	0.033759	0.002303	0.647895	0.343822	0.534216	-0.420276
59432	-9.627557	-0.061402	1.854377	-0.035547	-0.021033	-0.008066	0.647591	0.344370	0.534679	-0.419707
59433	-9.642251	-0.072794	1.835026	-0.053601	-0.023973	0.002716	0.647246	0.344905	0.535118	-0.419239
59434	-9.657589	-0.112376	1.848322	-0.084126	-0.065846	0.020243	0.646885	0.345449	0.535447	-0.418928
59435	-9.631981	-0.165734	1.853301	-0.127676	-0.110780	-0.004086	0.646503	0.346004	0.535702	-0.418734
59436	-9.674658	-0.135646	1.834993	-0.109132	-0.087559	0.034395	0.646094	0.346552	0.535869	-0.418699
59437	-9.697011	-0.111409	1.734169	-0.127259	0.007525	0.037973	0.645665	0.347106	0.535829	-0.418952
59438	-9.642078	-0.050200	1.876788	-0.009018	-0.112007	0.009832	0.645198	0.347638	0.535811	-0.419254
59439	-9.773292	0.039304	1.929332	0.088035	-0.107633	0.148324	0.644764	0.347929	0.535949	-0.419503
59440	-9.731047	0.099640	1.734778	0.074662	0.082279	0.071660	0.644495	0.348031	0.535959	-0.419820
59441	-9.642573	0.018709	1.681245	-0.010799	0.082381	-0.024979	0.644151	0.348359	0.535895	-0.420157
59442	-9.696405	-0.011202	1.691889	-0.036034	0.067403	0.029927	0.643771	0.348805	0.535723	-0.420590
59443	-9.698491	0.155447	1.764554	0.146179	0.067064	0.044932	0.643518	0.349087	0.535570	-0.420936
59444	-9.724670	0.258942	1.756656	0.236437	0.119923	0.069206	0.643463	0.349173	0.535447	-0.421106
59445	-9.678375	0.142528	1.755130	0.131264	0.069040	0.023457	0.643554	0.349120	0.535378	-0.421098
59446	-9.673971	0.017727	1.744855	0.011175	0.029865	0.017345	0.643714	0.349022	0.535329	-0.420998
59447	-9.694995	0.009266	1.736986	-0.003988	0.038561	0.036609	0.643873	0.349001	0.535225	-0.420905
59448	-9.735454	0.023371	1.773431	0.015988	0.018609	0.082971	0.644067	0.349039	0.535100	-0.420733
59449	-9.745795	0.019054	1.807823	0.019587	-0.012321	0.099354	0.644285	0.349044	0.534995	-0.420530
59450	-9.694742	0.002674	1.807050	0.002992	-0.026307	0.048994	0.644495	0.349043	0.534889	-0.420343
59451	-9.676459	-0.036299	1.744546	-0.060767	0.011656	0.019646	0.644659	0.349114	0.534759	-0.420199
59452	-9.665628	-0.028348	1.762700	-0.050420	-0.003522	0.012267	0.644800	0.349201	0.534617	-0.420090
59453	-9.589499	0.033629	1.803131	0.023499	-0.027603	-0.055147	0.644957	0.349222	0.534494	-0.419990
59454	-9.538961	0.000630	1.843469	0.008329	-0.084815	-0.097602	0.645174	0.349216	0.534379	-0.419808
59455	-9.580836	0.000574	1.785269	-0.022692	-0.024878	-0.066998	0.645453	0.349152	0.534300	-0.419531
59456	-9.601949	-0.005835	1.777156	-0.037858	-0.016157	-0.047747	0.645710	0.349033	0.534285	-0.419255
59457	-9.647077	-0.072017	1.771335	-0.107943	-0.029679	-0.004712	0.645920	0.348969	0.534257	-0.419019
59458	-9.671036	-0.126414	1.749190	-0.171259	-0.027458	0.014545	0.645986	0.349008	0.534181	-0.418982
59459	-9.603908	-0.028181	1.699145	-0.097210	0.046395	-0.060184	0.645903	0.349148	0.534039	-0.419175
59460	-9.597445	0.091777	1.693753	0.010942	0.099006	-0.067008	0.645721	0.349356	0.533870	-0.419496
59461	-9.584114	0.138652	1.748937	0.077110	0.066553	-0.069850	0.645561	0.349511	0.533745	-0.419773
59462	-9.607393	0.087796	1.786002	0.043084	0.016955	-0.040412	0.645510	0.349631	0.533663	-0.419855
59463	-9.756475	0.027379	1.753259	-0.037196	0.045859	0.099930	0.645461	0.349738	0.533684	-0.419815
59464	-9.781667	-0.034560	1.668417	-0.129788	0.099965	0.108955	0.645377	0.349923	0.533617	-0.419875
59465	-9.758177	0.027561	1.638115	-0.083212	0.146649	0.080633	0.645164	0.350202	0.533491	-0.420130
59466	-9.670566	0.113878	1.686321	0.022058	0.121654	0.003687	0.644893	0.350513	0.533351	-0.420464
59467	-9.605803	0.165840	1.730235	0.092626	0.089560	-0.051742	0.644656	0.350806	0.533314	-0.420630
59468	-9.619867	0.106677	1.795958	0.063322	0.004641	-0.026235	0.644505	0.351027	0.533420	-0.420543
59469	-9.786775	-0.081418	1.797611	-0.121664	-0.049777	0.137274	0.644424	0.351238	0.533551	-0.420324
59470	-9.833037	-0.138368	1.684711	-0.222405	0.031886	0.162057	0.644349	0.351463	0.533558	-0.420243
59471	-9.703826	-0.031847	1.639191	-0.132736	0.090090	0.027357	0.644127	0.351743	0.533536	-0.420376
59472	-9.676309	0.104183	1.697674	0.019176	0.082691	0.011604	0.643821	0.351969	0.533616	-0.420554
59473	-9.674083	0.158496	1.740069	0.088215	0.061764	0.017331	0.643661	0.352123	0.533685	-0.420583
59474	-9.721170	0.064559	1.870609	0.049936	-0.089852	0.086500	0.643647	0.352135	0.533913	-0.420305
59475	-9.836707	0.061129	1.762603	-0.001267	0.021112	0.180853	0.643657	0.351951	0.534238	-0.420031
59476	-9.637005	0.126707	1.486507	-0.029705	0.263816	-0.064501	0.643648	0.351789	0.534312	-0.420085
59477	-9.453642	0.067688	1.471567	-0.073871	0.224372	-0.247875	0.643362	0.352094	0.534227	-0.420376
59478	-9.569787	0.035612	1.693497	-0.025857	0.026421	-0.094218	0.643028	0.352613	0.534069	-0.420654
59479	-9.665911	0.192684	1.762588	0.136874	0.037070	0.013481	0.642901	0.352896	0.533988	-0.420712
59480	-9.644309	0.217891	1.618578	0.104904	0.172270	-0.033153	0.643033	0.352789	0.534044	-0.420530
59481	-9.642882	0.049330	1.544308	-0.078673	0.174564	-0.048681	0.643263	0.352398	0.534203	-0.420305
59482	-9.777500	-0.149908	1.536221	-0.273832	0.128932	0.081268	0.643543	0.351913	0.534340	-0.420108
59483	-9.737662	-0.003857	1.521050	-0.141343	0.200531	0.040001	0.643816	0.351411	0.534308	-0.420151
59484	-9.513935	0.280337	1.513367	0.135674	0.292867	-0.180468	0.644029	0.350836	0.534309	-0.420303
59485	-9.361808	0.389446	1.598163	0.284453	0.243266	-0.314837	0.644289	0.350106	0.534589	-0.420157
59486	-9.325942	0.265660	1.666039	0.205024	0.132875	-0.338524	0.644713	0.349222	0.535092	-0.419601
59487	-9.380414	0.010355	1.666338	-0.028638	0.042113	-0.285549	0.645148	0.348432	0.535668	-0.418854
59488	-9.431893	-0.176639	1.719876	-0.178677	-0.074662	-0.225598	0.645353	0.347987	0.536203	-0.418224
59489	-9.591415	-0.234848	1.808301	-0.204303	-0.156890	-0.052872	0.645358	0.347780	0.536686	-0.417769
59490	-9.716463	-0.223384	1.835538	-0.186689	-0.161687	0.075070	0.645197	0.347686	0.537040	-0.417640
59491	-9.672301	-0.158194	1.811967	-0.125506	-0.123275	0.027572	0.644892	0.347554	0.537290	-0.417900
59492	-9.657175	-0.061599	1.861648	-0.004945	-0.130079	0.021620	0.644510	0.347258	0.537638	-0.418288
59493	-9.791682	-0.052143	1.858507	0.007948	-0.099500	0.153446	0.644180	0.346751	0.538202	-0.418491
59494	-9.994926	-0.181415	1.814031	-0.125291	-0.076677	0.346080	0.643937	0.346111	0.538837	-0.418577
59495	-10.018268	-0.248034	1.710321	-0.211448	-0.002852	0.351350	0.643605	0.345480	0.539363	-0.418931
59496	-9.953374	-0.208440	1.569071	-0.207929	0.135580	0.262700	0.642994	0.345066	0.539744	-0.419719
59497	-9.860647	0.016363	1.592125	0.033101	0.196206	0.173696	0.642224	0.344910	0.540012	-0.420681
59498	-9.803531	0.164350	1.638059	0.209274	0.207578	0.123739	0.641451	0.344910	0.540320	-0.421463
59499	-9.783969	0.168718	1.673819	0.244560	0.172035	0.110354	0.640814	0.344992	0.540680	-0.421905
59500	-9.810954	0.030876	1.633588	0.112732	0.153139	0.131568	0.640325	0.345108	0.540989	-0.422155
59501	-9.720045	-0.013677	1.554036	0.054349	0.187765	0.028871	0.639869	0.345312	0.541160	-0.422460
59502	-9.607108	-0.024067	1.504900	0.038310	0.205517	-0.090645	0.639391	0.345651	0.541212	-0.422840
59503	-9.597353	0.012523	1.629629	0.127083	0.101522	-0.079314	0.638958	0.345963	0.541312	-0.423112
59504	-9.672525	-0.004191	1.730086	0.151526	0.010711	0.012172	0.638755	0.346093	0.541572	-0.422979
59505	-9.805189	-0.189438	1.803712	0.006569	-0.114347	0.158164	0.638780	0.345965	0.541973	-0.422532
59506	-9.925695	-0.366375	1.735307	-0.186707	-0.108329	0.267906	0.638903	0.345723	0.542283	-0.422146
59507	-9.948406	-0.433469	1.675059	-0.271602	-0.077561	0.281108	0.638953	0.345570	0.542314	-0.422157
59508	-9.921653	-0.295025	1.581523	-0.178995	0.061603	0.236771	0.638899	0.345512	0.542156	-0.422489
59509	-9.831039	-0.120739	1.469781	-0.057997	0.223788	0.125659	0.638842	0.345538	0.541817	-0.422989
59510	-9.616319	0.112733	1.576841	0.209202	0.189967	-0.071390	0.638890	0.345524	0.541711	-0.423062
59511	-9.792437	0.180112	1.747750	0.328286	0.087588	0.130322	0.639131	0.345318	0.542262	-0.422160
59512	-9.952986	-0.231560	1.753910	-0.058241	-0.065012	0.295929	0.639843	0.344804	0.542776	-0.420839
59513	-9.994452	-0.551075	1.527232	-0.451884	0.010921	0.302690	0.640423	0.344710	0.542807	-0.419992
59514	-10.103355	-0.429410	1.387650	-0.415368	0.201925	0.384098	0.640687	0.345140	0.542190	-0.420035
59515	-9.765400	0.295842	1.486749	0.291186	0.354437	0.059016	0.641051	0.345660	0.541317	-0.420178
59516	-9.668524	0.872095	1.647355	0.859853	0.431276	-0.013238	0.642339	0.346161	0.540032	-0.419450
59517	-9.336287	1.002967	1.798487	1.011532	0.295696	-0.310275	0.644568	0.346786	0.538735	-0.417177
59518	-9.976147	0.923421	1.944486	0.887544	0.233522	0.351690	0.647190	0.347218	0.537347	-0.414539
59519	-9.922166	0.823544	2.040273	0.770609	0.101069	0.320717	0.650116	0.347036	0.536101	-0.411717
59520	-9.792461	0.607503	2.129397	0.553193	-0.078568	0.211437	0.653291	0.346628	0.534556	-0.409036
59521	-9.974112	0.417551	2.116441	0.283190	-0.101517	0.387583	0.656782	0.346369	0.532483	-0.406358
59522	-10.097918	0.170992	2.250704	0.011803	-0.284779	0.530462	0.660571	0.346564	0.529443	-0.404017
59523	-10.144696	0.244448	2.253393	-0.033653	-0.216287	0.579775	0.664353	0.347282	0.525184	-0.402754
59524	-9.617017	1.017954	2.376686	0.661543	-0.039970	0.123673	0.668460	0.348092	0.520311	-0.401583
59525	-10.049896	1.704448	2.752973	1.240121	0.044141	0.672655	0.673752	0.348502	0.515241	-0.398914
59526	-11.039782	2.317762	2.943567	1.543825	0.377250	1.736501	0.680555	0.348371	0.509488	-0.394847
59527	-11.011363	2.922918	3.312932	2.015955	0.400580	1.872279	0.688916	0.347739	0.502510	-0.389816
59528	-10.071180	3.547134	3.546966	2.591524	0.409585	1.128111	0.698257	0.346835	0.494860	-0.383740
59529	-9.844761	3.698147	3.836686	2.622875	0.299625	1.065658	0.708581	0.345560	0.487005	-0.375934
59530	-10.050103	3.418309	4.108784	2.144486	0.091126	1.365618	0.719838	0.344114	0.478410	-0.366801
59531	-10.480754	2.973690	4.551570	1.496638	-0.296984	1.894807	0.731663	0.342821	0.468345	-0.357486
59532	-10.550394	2.856243	4.861657	1.130139	-0.473357	2.086403	0.743906	0.341783	0.456456	-0.348477
59533	-10.406945	2.969250	4.854573	0.852518	-0.294786	2.013410	0.756564	0.340669	0.442869	-0.339740
59534	-10.145598	3.281032	4.850244	0.763774	-0.024358	1.875789	0.769336	0.339262	0.428407	-0.330895
59535	-9.885551	3.289342	5.003617	0.493371	-0.037656	1.733562	0.782130	0.337546	0.413184	-0.321890
59536	-9.702973	3.552858	5.138495	0.377076	0.131143	1.719627	0.795006	0.335476	0.397097	-0.312627
59537	-9.549144	3.553451	5.450173	0.112115	0.034514	1.740769	0.808109	0.332048	0.380911	-0.302673
59538	-9.694531	3.539067	5.617166	-0.383594	0.132958	1.929265	0.821295	0.327496	0.364170	-0.292577
59539	-9.480387	3.821460	5.622039	-0.547537	0.468299	1.829686	0.834474	0.322143	0.346735	-0.282226
59540	-9.071339	3.992684	5.648841	-0.672614	0.681730	1.553818	0.847613	0.316267	0.328482	-0.271344
59541	-8.612651	4.357240	5.824844	-0.573150	0.910186	1.408238	0.860572	0.309430	0.310025	-0.259911
59542	-8.645984	4.125476	5.852103	-1.233863	0.988435	1.300109	0.873416	0.301029	0.291531	-0.248066
59543	-8.347112	3.633579	6.082625	-1.725913	0.662402	0.977754	0.885741	0.291952	0.272624	-0.236437
59544	-7.721211	3.422025	6.450790	-1.721121	0.350357	0.667446	0.897102	0.282988	0.253553	-0.225470
59545	-7.646302	3.586212	6.572303	-1.982156	0.606022	0.685126	0.907489	0.274410	0.234332	-0.215061
59546	-6.919062	3.816744	6.705358	-1.685747	0.730208	0.385714	0.916948	0.266428	0.214753	-0.205193
59547	-6.233065	3.992027	6.815097	-1.430603	0.828204	0.111144	0.925470	0.258875	0.195831	-0.195293
59548	-5.743607	3.857064	6.671869	-1.517581	0.860867	-0.361751	0.933216	0.251640	0.177316	-0.185321
59549	-5.182662	3.280628	6.756837	-1.631193	0.369576	-0.842313	0.940088	0.245069	0.159367	-0.175436
59550	-4.836894	3.101431	6.839552	-1.719844	0.228512	-1.050656	0.945933	0.239552	0.141885	-0.166418
59551	-4.557254	3.278103	7.084102	-1.677391	0.300411	-0.936582	0.950981	0.234665	0.125099	-0.157855
59552	-3.945100	3.656201	7.224385	-1.273765	0.512741	-0.911649	0.955446	0.230090	0.108647	-0.149592
59553	-3.452644	3.747332	7.538579	-1.047919	0.436910	-0.785188	0.959519	0.225171	0.093324	-0.141110
59554	-3.190353	3.598787	7.602336	-1.133167	0.334226	-0.895214	0.963227	0.220088	0.078333	-0.132739
59555	-2.529022	3.698784	7.770175	-0.740221	0.315656	-0.879745	0.966565	0.214799	0.063895	-0.124625
59556	-2.279992	3.513233	8.085277	-0.797155	0.081199	-0.742739	0.969479	0.209530	0.050228	-0.116987
59557	-2.111149	3.167866	8.319634	-0.966137	-0.246577	-0.718289	0.971909	0.204898	0.036755	-0.109814
59558	-1.607111	3.260879	8.314338	-0.705529	-0.166167	-0.767618	0.973762	0.201343	0.023660	-0.103386
59559	-1.444839	3.280437	8.414747	-0.781587	-0.141060	-0.701096	0.975171	0.198422	0.011444	-0.097666
59560	-1.207218	3.296039	8.277811	-0.770673	-0.051130	-0.854873	0.976215	0.196127	-0.000442	-0.092398
59561	-0.646001	3.370266	8.245419	-0.419126	-0.021125	-0.891750	0.976904	0.194706	-0.011442	-0.087282
59562	-0.488516	3.293573	8.416594	-0.485525	-0.145596	-0.775805	0.977368	0.193694	-0.021467	-0.082300
59563	-0.385467	3.213120	8.424542	-0.580697	-0.209341	-0.809244	0.977648	0.192965	-0.030670	-0.077636
59564	-0.191166	3.567321	8.325654	-0.502639	0.147229	-0.768234	0.977848	0.192001	-0.039361	-0.073487
59565	0.115517	3.542564	8.194777	-0.348664	0.161315	-0.892605	0.978108	0.190314	-0.047310	-0.069619
59566	0.570482	3.575542	8.137597	-0.032005	0.184504	-0.907984	0.978313	0.188690	-0.054404	-0.065875
59567	0.488030	3.251346	8.189275	-0.279225	-0.081075	-0.992941	0.978488	0.187118	-0.060466	-0.062386
59568	0.634389	3.204814	8.230622	-0.252108	-0.130078	-0.961977	0.978518	0.186274	-0.065676	-0.059079
59569	0.785838	3.151217	8.103141	-0.180537	-0.132604	-1.085843	0.978529	0.185495	-0.070097	-0.056208
59570	1.328833	3.106357	7.755703	0.333053	-0.099035	-1.360166	0.978624	0.184397	-0.073318	-0.054007
59571	1.080280	2.856861	7.910497	-0.004419	-0.326800	-1.339339	0.978792	0.183088	-0.075472	-0.052427
59572	1.160749	2.743117	7.942305	0.024995	-0.426581	-1.341000	0.978980	0.181621	-0.077401	-0.051188
59573	1.447565	2.809752	7.891905	0.291253	-0.358742	-1.323947	0.979126	0.180553	-0.078759	-0.050105
59574	1.388800	2.745614	8.150970	0.170288	-0.482093	-1.115330	0.979319	0.179597	-0.079039	-0.049324
59575	1.255764	2.806433	8.133245	0.046170	-0.388244	-1.126502	0.979475	0.179007	-0.078740	-0.048842
59576	1.526002	3.137519	8.036241	0.356154	-0.071670	-1.059294	0.979572	0.178700	-0.078329	-0.048680
59577	1.505820	3.339448	8.059294	0.361314	0.118582	-0.968087	0.979779	0.178026	-0.077057	-0.049006
59578	1.071021	3.248795	8.700290	-0.148524	-0.122409	-0.466050	0.980051	0.177157	-0.075229	-0.049555
59579	1.330781	3.489379	9.151950	0.093032	-0.077479	0.071141	0.980259	0.176847	-0.072862	-0.050080
59580	1.129617	3.875294	9.151207	-0.025418	0.312818	0.184299	0.980526	0.176257	-0.070198	-0.050733
59581	1.048047	3.821687	9.321875	-0.079889	0.230538	0.313575	0.980890	0.174926	-0.067659	-0.051755
59582	0.978199	3.774999	9.605585	-0.136914	0.123922	0.552654	0.981268	0.173484	-0.065066	-0.052760
59583	0.808126	3.874928	9.490836	-0.226662	0.303233	0.463524	0.981600	0.172133	-0.062917	-0.053599
59584	0.914022	3.884097	9.633524	-0.096522	0.272834	0.610483	0.981844	0.171065	-0.061176	-0.054551
59585	0.846411	3.542273	9.728496	-0.167366	-0.054347	0.573682	0.981993	0.170434	-0.059666	-0.055522
59586	0.702535	3.603825	9.541766	-0.246882	0.086101	0.407781	0.981979	0.170634	-0.058372	-0.056514
59587	0.745547	4.125286	9.571062	-0.135335	0.549392	0.620857	0.981905	0.170997	-0.057492	-0.057590
59588	0.805767	4.394732	9.422673	-0.008358	0.841908	0.581578	0.981998	0.170491	-0.056546	-0.058446
59589	0.480711	3.808772	9.440041	-0.363116	0.346397	0.365735	0.982205	0.169493	-0.055518	-0.058851
59590	0.684648	3.686079	9.430600	-0.152690	0.224505	0.332183	0.982370	0.168757	-0.054786	-0.058895
59591	0.505972	3.776281	9.464233	-0.306845	0.338413	0.379431	0.982584	0.167751	-0.053895	-0.059029
59592	0.568007	3.776739	9.505843	-0.233380	0.342227	0.423315	0.982868	0.166218	-0.053298	-0.059179
59593	0.588330	3.659726	9.518533	-0.210862	0.262337	0.396560	0.983252	0.164153	-0.052634	-0.059153
59594	0.679812	3.392888	9.482726	-0.130249	0.047967	0.280705	0.983529	0.162639	-0.052302	-0.059016
59595	0.461279	3.556218	9.580793	-0.333488	0.225563	0.409294	0.983738	0.161512	-0.051951	-0.058943
59596	0.475926	3.755673	9.619230	-0.297928	0.418216	0.511918	0.983871	0.160739	-0.051826	-0.058944
59597	0.589866	3.643269	9.462359	-0.174855	0.367437	0.335808	0.984072	0.159544	-0.051776	-0.058885
59598	0.657688	3.435697	9.322897	-0.107710	0.232705	0.141565	0.984298	0.158204	-0.051570	-0.058898
59599	0.613664	3.480882	9.424561	-0.151226	0.275388	0.247963	0.984509	0.156933	-0.051235	-0.059073
59600	0.448278	3.545084	9.577988	-0.317526	0.333821	0.399762	0.984690	0.155852	-0.050920	-0.059187
59601	0.598733	3.687870	9.681866	-0.160367	0.439192	0.554508	0.984868	0.154749	-0.050798	-0.059226
59602	0.540745	3.456528	9.839780	-0.257769	0.205958	0.625336	0.985057	0.153423	-0.050988	-0.059375
59603	0.589402	3.151342	9.833517	-0.241905	-0.061039	0.527241	0.985194	0.152312	-0.051257	-0.059717
59604	0.450348	2.970839	9.788941	-0.395313	-0.184615	0.417743	0.985215	0.151971	-0.051468	-0.060061
59605	0.569428	3.068341	9.616151	-0.250789	-0.056379	0.293907	0.985124	0.152291	-0.051699	-0.060546
59606	0.529316	3.293613	9.461082	-0.252828	0.206047	0.213965	0.985080	0.152174	-0.052034	-0.061266
59607	0.543857	3.241681	9.404998	-0.240655	0.177932	0.145660	0.985108	0.151670	-0.052309	-0.061825
59608	0.561543	3.396349	9.354352	-0.201427	0.351830	0.146732	0.985244	0.150657	-0.052346	-0.062107
59609	0.617948	3.284256	9.432600	-0.166287	0.235500	0.190261	0.985382	0.149619	-0.052479	-0.062313
59610	0.619031	2.996750	9.498381	-0.204389	-0.034126	0.164285	0.985527	0.148491	-0.052647	-0.062569
59611	0.699797	2.791058	9.437809	-0.141966	-0.208513	0.050797	0.985519	0.148244	-0.052931	-0.063038
59612	0.590501	3.218821	9.448766	-0.206662	0.210646	0.182391	0.985470	0.148228	-0.053017	-0.063767
59613	0.645506	3.250152	9.571717	-0.163186	0.194881	0.313186	0.985396	0.148373	-0.053104	-0.064506
59614	0.588280	3.337227	9.714748	-0.225911	0.241434	0.470803	0.985342	0.148388	-0.053119	-0.065271
59615	0.606925	3.239303	9.625517	-0.207670	0.170530	0.357849	0.985267	0.148482	-0.053346	-0.065997
59616	0.683270	3.423867	9.550487	-0.102712	0.353862	0.349288	0.985209	0.148530	-0.053400	-0.066708
59617	0.575666	3.379228	9.482048	-0.204510	0.349767	0.261817	0.985195	0.148182	-0.053551	-0.067563
59618	0.631643	3.089826	9.327378	-0.164337	0.118844	0.031339	0.985175	0.147884	-0.053757	-0.068338
59619	0.655407	3.109171	9.457582	-0.155228	0.092505	0.162768	0.985029	0.148450	-0.053834	-0.069162
59620	0.656330	3.421628	9.377385	-0.106223	0.399019	0.182469	0.984885	0.148984	-0.053878	-0.070019
59621	0.635800	3.702942	9.335878	-0.084910	0.674892	0.227828	0.984845	0.148858	-0.053903	-0.070820
59622	0.634848	3.486956	9.307782	-0.105644	0.487730	0.134555	0.984911	0.148068	-0.053938	-0.071525
59623	0.573518	3.254749	9.287715	-0.188454	0.298964	0.039168	0.984997	0.147279	-0.053861	-0.072031
59624	0.644141	3.272866	9.356609	-0.119494	0.298455	0.115521	0.985081	0.146671	-0.053602	-0.072323
59625	0.723597	3.156913	9.413984	-0.055865	0.169455	0.141253	0.985136	0.146258	-0.053313	-0.072624
59626	0.616102	3.215650	9.535742	-0.162524	0.213928	0.265913	0.985165	0.145918	-0.053101	-0.073065
59627	0.655599	3.234548	9.582588	-0.120612	0.218564	0.319231	0.985189	0.145549	-0.052893	-0.073624
59628	0.610967	3.149852	9.543866	-0.163004	0.165092	0.253413	0.985245	0.144999	-0.052586	-0.074173
59629	0.657668	2.988407	9.520231	-0.126895	0.018659	0.186385	0.985268	0.144773	-0.052263	-0.074544
59630	0.693220	3.080042	9.461694	-0.063912	0.113630	0.160971	0.985213	0.145160	-0.051775	-0.074850
59631	0.511624	3.297069	9.540185	-0.212804	0.316289	0.286927	0.985145	0.145604	-0.051231	-0.075263
59632	0.557575	3.387048	9.482546	-0.135927	0.406807	0.262911	0.985174	0.145379	-0.050623	-0.075722
59633	0.444265	3.193696	9.511691	-0.262733	0.242489	0.224318	0.985276	0.144677	-0.050045	-0.076126
59634	0.644386	3.148691	9.590221	-0.067182	0.154945	0.300338	0.985331	0.144273	-0.049444	-0.076578
59635	0.543861	3.067554	9.654447	-0.171111	0.082909	0.330184	0.985377	0.143937	-0.048887	-0.076974
59636	0.577483	3.154010	9.598280	-0.108113	0.177867	0.304868	0.985370	0.143873	-0.048457	-0.077452
59637	0.476790	3.144749	9.603293	-0.199042	0.184176	0.300001	0.985352	0.143853	-0.048050	-0.077961
59638	0.502872	3.112006	9.643792	-0.172276	0.134741	0.330899	0.985314	0.144037	-0.047560	-0.078404
59639	0.518132	3.189097	9.593885	-0.129678	0.214754	0.307514	0.985276	0.144164	-0.047069	-0.078949
59640	0.453958	3.220065	9.554729	-0.172432	0.266686	0.275269	0.985294	0.143833	-0.046614	-0.079591
59641	0.484467	3.126762	9.659363	-0.155840	0.150407	0.349385	0.985329	0.143407	-0.046168	-0.080185
59642	0.453839	3.064769	9.643151	-0.182202	0.107753	0.313730	0.985351	0.143126	-0.045753	-0.080653
59643	0.449996	3.179706	9.561277	-0.150640	0.243325	0.269432	0.985350	0.142977	-0.045395	-0.081135
59644	0.434232	3.141745	9.614500	-0.169231	0.199344	0.308051	0.985363	0.142634	-0.045134	-0.081720
59645	0.421298	2.933931	9.567201	-0.199988	0.024672	0.201111	0.985366	0.142287	-0.044903	-0.082417
59646	0.643678	2.986681	9.367704	0.055112	0.098867	0.040010	0.985383	0.141781	-0.044725	-0.083172
59647	0.567563	2.909541	9.611043	-0.047250	-0.011041	0.245010	0.985507	0.140424	-0.044257	-0.084257
59648	0.408058	2.754240	9.492989	-0.200137	-0.054918	0.078005	0.985774	0.137399	-0.044036	-0.086209
59649	0.933552	2.947767	8.828297	0.442399	0.288987	-0.473545	0.986253	0.131884	-0.043280	-0.089660
59650	0.025455	3.583913	9.347561	-0.346901	1.052526	0.136755	0.986915	0.123953	-0.041627	-0.094349
59651	-1.033531	2.147262	10.004719	-1.642929	-0.083044	0.339320	0.987972	0.113787	-0.040329	-0.096633
59652	1.012641	1.202550	9.355818	0.302305	-1.081200	-0.392441	0.988692	0.106995	-0.038447	-0.097784
59653	0.590702	1.906582	9.610356	0.044869	-0.267508	-0.001043	0.989130	0.101896	-0.036485	-0.099538
59654	0.572838	2.339764	9.959691	0.120784	0.153132	0.432298	0.989224	0.099250	-0.035276	-0.101691
59655	0.289193	2.594652	10.412988	-0.108524	0.407890	0.914278	0.989264	0.097588	-0.033732	-0.103422
59656	0.130326	2.068827	10.385443	-0.328228	-0.029524	0.772477	0.989280	0.096273	-0.032456	-0.104892
59657	0.307987	1.873190	10.233585	-0.155393	-0.218275	0.592029	0.989149	0.096581	-0.031552	-0.106121
59658	0.243685	2.650536	10.223732	-0.042623	0.518710	0.739015	0.988874	0.098243	-0.030898	-0.107336
59659	-0.070172	3.361148	10.337461	-0.202082	1.209247	0.988338	0.988652	0.099749	-0.030610	-0.108072
59660	0.070221	3.150886	10.083297	-0.087019	1.000784	0.703810	0.988558	0.100706	-0.030635	-0.108044
59661	0.151631	2.788315	9.986585	-0.079494	0.637737	0.537024	0.988504	0.101514	-0.030798	-0.107731
59662	0.188915	2.623929	9.954962	-0.084056	0.461580	0.473313	0.988423	0.102478	-0.031281	-0.107426
59663	0.102841	2.689532	9.881789	-0.161006	0.542718	0.413428	0.988378	0.103103	-0.031757	-0.107095
59664	0.188648	2.377704	9.732177	-0.143116	0.246651	0.203449	0.988353	0.103626	-0.032480	-0.106603
59665	0.273486	2.269977	9.602394	-0.087406	0.136264	0.056826	0.988267	0.104854	-0.033066	-0.106019
59666	0.090812	2.659346	9.776189	-0.217411	0.484705	0.305215	0.988148	0.106444	-0.033586	-0.105380
59667	0.134201	2.796228	9.836669	-0.168879	0.570481	0.397257	0.988123	0.107254	-0.034177	-0.104600
59668	0.151926	2.480701	9.810390	-0.227579	0.263652	0.301628	0.988173	0.107356	-0.034809	-0.103815
59669	0.165730	2.298990	9.795748	-0.263537	0.088534	0.246746	0.988198	0.107606	-0.035450	-0.103095
59670	0.184973	2.260075	9.869417	-0.275752	0.024187	0.310103	0.988156	0.108276	-0.036245	-0.102524
59671	0.251715	2.289254	9.749595	-0.211119	0.049991	0.202877	0.988093	0.109122	-0.036893	-0.101996
59672	0.230649	2.434037	9.713891	-0.215436	0.182374	0.200189	0.987996	0.110200	-0.037443	-0.101580
59673	0.220744	2.593286	9.717002	-0.207626	0.317503	0.239677	0.987923	0.111050	-0.037872	-0.101197
59674	0.191904	2.593492	9.784850	-0.252140	0.297391	0.304342	0.987908	0.111437	-0.038199	-0.100800
59675	0.239388	2.532337	9.744993	-0.221922	0.233399	0.253652	0.987926	0.111590	-0.038536	-0.100319
59676	0.290648	2.519908	9.728807	-0.180386	0.215413	0.237444	0.987971	0.111440	-0.038865	-0.099915
59677	0.302091	2.432858	9.775823	-0.197385	0.124408	0.263141	0.988011	0.111215	-0.039218	-0.099634
59678	0.294638	2.301819	9.818347	-0.240464	-0.004550	0.273306	0.988034	0.111143	-0.039542	-0.099362
59679	0.399551	2.407340	9.585531	-0.102293	0.125975	0.077257	0.988024	0.111239	-0.039871	-0.099224
59680	0.361143	2.597046	9.594568	-0.110053	0.312377	0.128194	0.988016	0.111243	-0.040001	-0.099239
59681	0.355932	2.545650	9.604763	-0.126944	0.261047	0.125836	0.988020	0.111366	-0.039961	-0.099086
59682	0.315331	2.494552	9.659102	-0.179945	0.206389	0.164561	0.988048	0.111468	-0.039755	-0.098770
59683	0.459825	2.483601	9.622935	-0.033742	0.173029	0.134650	0.988083	0.111492	-0.039523	-0.098482
59684	0.451164	2.342539	9.693358	-0.070372	0.023780	0.169632	0.988113	0.111534	-0.039195	-0.098270
59685	0.377773	2.264233	9.702172	-0.152161	-0.040631	0.156103	0.988114	0.111706	-0.038928	-0.098165
59686	0.321066	2.358835	9.717812	-0.188035	0.053025	0.190556	0.988087	0.111963	-0.038778	-0.098206
59687	0.349732	2.358205	9.877308	-0.173371	0.005398	0.346770	0.988042	0.112288	-0.038673	-0.098327
59688	0.353447	2.441442	9.877189	-0.152822	0.077625	0.366460	0.987992	0.112571	-0.038603	-0.098531
59689	0.278431	2.592681	9.834263	-0.192201	0.242742	0.356697	0.987964	0.112636	-0.038514	-0.098777
59690	0.235849	2.576382	9.760968	-0.228359	0.252281	0.279590	0.987955	0.112526	-0.038523	-0.098989
59691	0.357234	2.661772	9.604647	-0.078010	0.345978	0.154063	0.987949	0.112380	-0.038530	-0.099209
59692	0.308332	2.514159	9.686738	-0.160041	0.202144	0.196433	0.987963	0.111998	-0.038522	-0.099503
59693	0.365215	2.367202	9.715786	-0.132779	0.047300	0.192993	0.987940	0.112018	-0.038433	-0.099748
59694	0.379718	2.499398	9.627623	-0.083249	0.186484	0.139227	0.987898	0.112297	-0.038330	-0.099892
59695	0.419689	2.577811	9.709436	-0.034096	0.228657	0.239225	0.987864	0.112609	-0.038077	-0.099968
59696	0.276359	2.630711	9.840878	-0.173045	0.273204	0.372366	0.987834	0.112870	-0.037913	-0.100033
59697	0.209144	2.734798	9.828828	-0.215355	0.387104	0.382041	0.987846	0.112757	-0.037817	-0.100076
59698	0.315417	2.553218	9.739239	-0.134324	0.216965	0.257371	0.987896	0.112354	-0.037686	-0.100090
59699	0.310742	2.397022	9.792095	-0.170072	0.064082	0.271675	0.987925	0.112061	-0.037570	-0.100175
59700	0.301782	2.306819	9.772879	-0.191630	-0.013789	0.231452	0.987909	0.112124	-0.037489	-0.100289
59701	0.305589	2.508631	9.711707	-0.141897	0.187263	0.219693	0.987868	0.112437	-0.037349	-0.100400
59702	0.311073	2.622775	9.709835	-0.111975	0.290337	0.245134	0.987847	0.112587	-0.037189	-0.100496
59703	0.246821	2.650427	9.763426	-0.171280	0.317727	0.300665	0.987861	0.112438	-0.037045	-0.100579
59704	0.296331	2.608195	9.804501	-0.130769	0.263511	0.332862	0.987907	0.112025	-0.036871	-0.100649
59705	0.298116	2.463554	9.784760	-0.150588	0.138826	0.279762	0.987967	0.111492	-0.036752	-0.100699
59706	0.344297	2.308449	9.748488	-0.127810	-0.002769	0.210493	0.987991	0.111208	-0.036597	-0.100828
59707	0.200497	2.412686	9.778187	-0.247942	0.121083	0.256973	0.987969	0.111335	-0.036467	-0.100959
59708	0.272608	2.562277	9.719427	-0.140943	0.257460	0.238217	0.987934	0.111593	-0.036329	-0.101060
59709	0.182253	2.627994	9.767776	-0.218671	0.324619	0.296508	0.987924	0.111662	-0.036207	-0.101126
59710	0.333511	2.689786	9.747865	-0.054609	0.356552	0.298541	0.987927	0.111564	-0.036097	-0.101243
59711	0.236771	2.626121	9.747451	-0.157545	0.320477	0.278786	0.987968	0.111183	-0.035911	-0.101328
59712	0.225234	2.481800	9.693371	-0.186481	0.204718	0.192052	0.988028	0.110761	-0.035679	-0.101291
59713	0.278512	2.392198	9.619488	-0.140215	0.129363	0.101864	0.988058	0.110638	-0.035479	-0.101207
59714	0.308894	2.388595	9.734461	-0.117432	0.093634	0.214175	0.988057	0.110819	-0.035228	-0.101100
59715	0.309931	2.472711	9.734751	-0.096866	0.165764	0.234146	0.988018	0.111380	-0.035016	-0.100935
59716	0.189103	2.647783	9.883581	-0.192261	0.313149	0.414563	0.987978	0.111960	-0.034804	-0.100762
59717	0.181046	2.631066	9.902821	-0.203535	0.284661	0.429319	0.987960	0.112334	-0.034712	-0.100560
59718	0.368773	2.644379	9.737352	-0.001165	0.291038	0.279887	0.987988	0.112369	-0.034539	-0.100302
59719	0.300998	2.479913	9.791578	-0.098999	0.136530	0.291130	0.988034	0.112267	-0.034206	-0.100072
59720	0.251233	2.389925	9.703263	-0.152616	0.081018	0.182227	0.988060	0.112281	-0.034056	-0.099852
59721	0.243535	2.523561	9.726230	-0.134757	0.203422	0.235580	0.988064	0.112403	-0.033934	-0.099714
59722	0.254190	2.539672	9.765291	-0.123767	0.204840	0.277812	0.988063	0.112584	-0.033889	-0.099537
59723	0.240488	2.745743	9.769154	-0.097327	0.401392	0.329438	0.988086	0.112582	-0.033733	-0.099363
59724	0.217551	2.668853	9.754649	-0.129859	0.339494	0.296277	0.988141	0.112212	-0.033578	-0.099287
59725	0.192304	2.517858	9.680268	-0.171573	0.224802	0.187522	0.988201	0.111772	-0.033304	-0.099279
59726	0.224929	2.505934	9.573633	-0.126688	0.236153	0.082409	0.988233	0.111574	-0.033026	-0.099276
59727	0.233732	2.491498	9.557217	-0.112733	0.227097	0.063461	0.988271	0.111419	-0.032647	-0.099196
59728	0.294503	2.492519	9.615868	-0.050008	0.202646	0.123143	0.988284	0.111519	-0.032189	-0.099107
59729	0.239267	2.439094	9.748104	-0.116432	0.130765	0.237253	0.988295	0.111631	-0.031719	-0.099024
59730	0.254604	2.425933	9.777546	-0.097158	0.104757	0.263520	0.988299	0.111814	-0.031214	-0.098934
59731	0.222191	2.428043	9.854692	-0.125289	0.091130	0.337963	0.988286	0.112044	-0.030718	-0.098960
59732	0.120554	2.503884	9.953952	-0.208880	0.157063	0.448736	0.988264	0.112199	-0.030248	-0.099150
59733	0.091253	2.504888	9.840448	-0.219454	0.186331	0.337895	0.988265	0.112227	-0.029855	-0.099232
59734	0.189877	2.504903	9.790150	-0.110913	0.174361	0.292505	0.988251	0.112435	-0.029434	-0.099261
59735	0.057394	2.503188	9.852054	-0.238973	0.180538	0.348145	0.988230	0.112666	-0.029138	-0.099288
59736	0.209558	2.424705	9.804242	-0.096382	0.077521	0.288350	0.988171	0.113177	-0.028893	-0.099368
59737	0.159509	2.465641	9.809254	-0.133356	0.112673	0.301451	0.988091	0.113878	-0.028566	-0.099456
59738	0.136127	2.650718	9.812209	-0.116292	0.278238	0.347693	0.988009	0.114575	-0.028263	-0.099558
59739	0.091840	2.787465	9.844089	-0.130039	0.401439	0.410150	0.988004	0.114672	-0.027898	-0.099601
59740	0.046200	2.627026	9.807015	-0.196851	0.267428	0.334759	0.988052	0.114409	-0.027719	-0.099478
59741	0.179408	2.661410	9.811024	-0.056982	0.276320	0.350574	0.988089	0.114258	-0.027578	-0.099321
59742	0.122280	2.542738	9.980175	-0.147068	0.137990	0.485065	0.988106	0.114256	-0.027588	-0.099149
59743	0.216885	2.397014	9.945599	-0.082433	-0.016822	0.419642	0.988054	0.114746	-0.027792	-0.099045
59744	0.119919	2.586032	9.907887	-0.143829	0.180057	0.425234	0.987970	0.115396	-0.027958	-0.099080
59745	0.100930	2.635168	9.854084	-0.154537	0.231234	0.384367	0.987894	0.115935	-0.028225	-0.099132
59746	0.130922	2.701782	9.783845	-0.113252	0.296417	0.333233	0.987856	0.116263	-0.028466	-0.099059
59747	0.116870	2.796836	9.754538	-0.112841	0.393320	0.327309	0.987855	0.116303	-0.028761	-0.098939
59748	0.156295	2.703465	9.626465	-0.088163	0.328299	0.181632	0.987891	0.116099	-0.029067	-0.098727
59749	0.116878	2.502992	9.605818	-0.168041	0.155523	0.111926	0.987938	0.115818	-0.029285	-0.098523
59750	0.158981	2.472756	9.631551	-0.137679	0.113549	0.130889	0.987932	0.116019	-0.029349	-0.098334
59751	0.121025	2.542510	9.634928	-0.165289	0.179541	0.149806	0.987876	0.116576	-0.029493	-0.098193
59752	0.250521	2.593473	9.554551	-0.025807	0.210007	0.088501	0.987827	0.117118	-0.029518	-0.098025
59753	0.326462	2.513132	9.572006	0.031299	0.100884	0.088551	0.987752	0.117935	-0.029401	-0.097838
59754	0.127726	2.529057	9.590890	-0.161341	0.133917	0.104652	0.987670	0.118853	-0.029231	-0.097610
59755	0.201379	2.679534	9.510822	-0.053111	0.266854	0.066693	0.987624	0.119357	-0.029018	-0.097519
59756	0.159990	2.554896	9.596442	-0.118736	0.129607	0.117765	0.987617	0.119479	-0.028673	-0.097543
59757	0.086444	2.630042	9.729894	-0.179630	0.181682	0.263530	0.987616	0.119524	-0.028247	-0.097624
59758	0.145357	2.745775	9.740627	-0.091493	0.277998	0.304356	0.987652	0.119336	-0.027721	-0.097643
59759	0.246183	2.651632	9.707562	0.005801	0.180516	0.251898	0.987720	0.118979	-0.026943	-0.097608
59760	0.028152	2.591914	9.629375	-0.198242	0.189524	0.155684	0.987761	0.118791	-0.026267	-0.097608
59761	0.043504	2.559740	9.767735	-0.186296	0.125654	0.282474	0.987791	0.118617	-0.025676	-0.097667
59762	0.116973	2.647816	9.881878	-0.094362	0.168311	0.416627	0.987792	0.118648	-0.025134	-0.097763
59763	0.067116	2.606738	9.941398	-0.144870	0.124582	0.463229	0.987805	0.118568	-0.024693	-0.097842
59764	0.145246	2.592876	9.806232	-0.053116	0.127475	0.330646	0.987802	0.118593	-0.024334	-0.097930
59765	0.029675	2.722305	9.812184	-0.135263	0.269458	0.365714	0.987792	0.118758	-0.023958	-0.097927
59766	0.030331	2.861671	9.855214	-0.104740	0.390412	0.441674	0.987822	0.118660	-0.023644	-0.097822
59767	0.039481	2.646621	9.821916	-0.127997	0.196433	0.356935	0.987903	0.118263	-0.023378	-0.097546
59768	0.035396	2.446095	9.792506	-0.162369	0.018375	0.279444	0.987956	0.118125	-0.023111	-0.097240
59769	-0.008391	2.506634	9.797700	-0.190017	0.084303	0.298445	0.987983	0.118137	-0.022890	-0.097004
59770	0.028015	2.641134	9.811487	-0.126901	0.200915	0.345324	0.988002	0.118197	-0.022709	-0.096775
59771	0.023084	2.655119	9.850165	-0.129918	0.206483	0.386157	0.988041	0.118086	-0.022655	-0.096522
59772	0.002557	2.531323	9.798780	-0.169478	0.107121	0.305786	0.988080	0.117965	-0.022655	-0.096277
59773	0.010538	2.480729	9.685051	-0.163929	0.085679	0.183318	0.988096	0.117937	-0.022658	-0.096141
59774	0.027542	2.563682	9.595057	-0.125923	0.182952	0.116513	0.988108	0.117920	-0.022612	-0.096056
59775	0.043347	2.544544	9.558977	-0.110784	0.170570	0.077169	0.988116	0.117886	-0.022564	-0.096023
59776	0.069420	2.471522	9.501488	-0.092786	0.108109	0.004197	0.988105	0.118036	-0.022374	-0.096002
59777	0.089715	2.505737	9.421958	-0.056824	0.150678	-0.064142	0.988076	0.118324	-0.022040	-0.096020
59778	0.077865	2.481630	9.409990	-0.063171	0.126742	-0.081686	0.988053	0.118567	-0.021403	-0.096095
59779	0.004556	2.448100	9.386239	-0.127715	0.109338	-0.113903	0.988032	0.118746	-0.020770	-0.096236
59780	0.070889	2.426054	9.435699	-0.056887	0.057224	-0.070170	0.987980	0.119101	-0.020052	-0.096480
59781	0.120051	2.467331	9.266954	0.024377	0.116275	-0.222880	0.987893	0.119686	-0.019159	-0.096829
59782	0.103574	2.421011	9.164453	0.026200	0.086973	-0.333716	0.987808	0.120222	-0.017852	-0.097283
59783	0.026965	2.392070	9.140610	-0.024477	0.065112	-0.364485	0.987706	0.120956	-0.016090	-0.097709
59784	-0.086515	2.589130	8.916566	-0.050646	0.312982	-0.532841	0.987613	0.121513	-0.013965	-0.098287
59785	-0.171861	2.516953	8.717479	-0.096026	0.296333	-0.742858	0.987530	0.121937	-0.011492	-0.098910
59786	-0.071466	2.378572	8.474526	0.036670	0.188602	-1.012512	0.987406	0.122730	-0.008321	-0.099488
59787	0.017767	2.136353	8.379929	0.142822	-0.058753	-1.166115	0.987249	0.123866	-0.004209	-0.099895
59788	0.022194	2.277475	8.558229	0.247952	0.000535	-0.960091	0.987030	0.125109	0.000872	-0.100589
59789	-0.620288	2.170637	8.545882	-0.308529	-0.002563	-0.979092	0.986743	0.126374	0.006600	-0.101605
59790	-0.769271	2.653062	8.689340	-0.249849	0.413069	-0.707698	0.986383	0.127584	0.013049	-0.102961
59791	-1.050881	2.962216	9.065625	-0.334532	0.640007	-0.244953	0.986178	0.127483	0.020092	-0.103913
59792	-0.746602	2.628447	9.470639	0.035290	0.157420	0.042845	0.986098	0.126225	0.026918	-0.104659
59793	-0.651293	2.003817	9.475636	0.136338	-0.442399	-0.116758	0.985915	0.124907	0.034223	-0.105823
59794	-0.904082	1.562937	8.990926	-0.083589	-0.680783	-0.668031	0.985457	0.124479	0.041838	-0.107836
59795	-1.466448	2.002218	8.738550	-0.399129	-0.099432	-0.737977	0.984715	0.124708	0.050129	-0.110780
59796	-2.369610	2.239720	9.114696	-1.029384	0.192252	-0.189283	0.983882	0.124941	0.058826	-0.113599
59797	-1.969601	1.982945	8.804688	-0.564189	-0.080236	-0.592772	0.982835	0.126332	0.067537	-0.116253
59798	-1.182298	2.082223	8.430676	0.347465	-0.093229	-1.056109	0.981589	0.127580	0.077332	-0.119272
59799	-1.822187	1.843070	8.217346	-0.170080	-0.160281	-1.199662	0.980031	0.128481	0.088240	-0.123475
59800	-3.243285	2.273722	8.401301	-1.173696	0.473421	-0.611363	0.978171	0.128941	0.099905	-0.128743
59801	-3.637341	2.931707	8.537739	-1.099762	1.123172	-0.208435	0.976338	0.128178	0.112180	-0.133230
59802	-2.953648	1.849462	7.879741	-0.659036	0.142310	-1.223374	0.974593	0.127044	0.124337	-0.136268
59803	-2.127825	0.750093	7.527724	-0.073797	-0.988117	-2.017112	0.972160	0.127317	0.138263	-0.139926
59804	-3.276074	0.783232	7.741293	-0.830887	-0.794275	-1.449295	0.968655	0.129539	0.153961	-0.145681
59805	-5.507038	1.854508	8.469522	-2.016658	0.457290	0.247764	0.964726	0.131125	0.170353	-0.151955
59806	-5.485025	2.034232	8.568958	-1.578913	0.531908	0.427738	0.961168	0.132530	0.184794	-0.156342
59807	-3.970633	1.376424	8.421483	-0.222665	-0.480985	-0.416245	0.956997	0.135867	0.200114	-0.160160
59808	-4.146482	1.363683	7.993072	-0.236659	-0.432264	-0.719261	0.951695	0.142207	0.216226	-0.165229
59809	-5.401792	1.776284	7.462689	-1.030465	0.299262	-0.492608	0.945482	0.148171	0.233436	-0.172097
59810	-6.245735	2.516636	7.019773	-1.249040	1.235611	-0.246099	0.939009	0.150470	0.251830	-0.179450
59811	-7.049611	2.095836	7.295329	-1.548126	0.907907	0.389001	0.932619	0.149964	0.271246	-0.184817
59812	-7.417358	0.413914	6.933953	-2.311367	-0.401758	0.074208	0.925916	0.151025	0.289988	-0.189149
59813	-6.827601	0.757179	7.088196	-1.254787	-0.423735	-0.031890	0.917754	0.156424	0.308801	-0.194683
59814	-7.425474	1.539464	7.016060	-0.969364	0.288973	0.467977	0.908566	0.162287	0.328166	-0.201191
59815	-8.006976	2.194909	6.758722	-0.751843	0.981682	0.820308	0.899242	0.164317	0.348270	-0.207537
59816	-9.252354	1.952368	7.342692	-0.879256	0.731572	2.103724	0.890147	0.164636	0.368194	-0.212054
59817	-8.984873	1.304832	7.002927	-0.755258	0.146087	1.626825	0.881229	0.167578	0.385654	-0.215927
59818	-7.967206	2.011392	6.907614	0.587636	0.368691	0.898939	0.871126	0.173269	0.403141	-0.220441
59819	-8.384205	1.079519	6.415238	-0.036752	-0.251176	0.795519	0.860435	0.177434	0.421296	-0.225120
59820	-9.567421	0.384723	5.683340	-1.087335	-0.324677	1.263312	0.849107	0.180533	0.439184	-0.231394
59821	-10.717388	0.491464	6.079409	-0.892569	-0.318678	2.481418	0.837453	0.186039	0.455308	-0.238237
59822	-10.622657	0.772763	5.792234	-0.448341	-0.154002	2.301160	0.825050	0.195152	0.469547	-0.246443
59823	-9.962062	1.983993	5.579709	0.816916	0.548327	1.733978	0.811918	0.205322	0.483117	-0.255403
59824	-9.268579	1.990943	5.516299	1.444002	0.205065	1.057298	0.798903	0.213070	0.497028	-0.263284
59825	-10.006305	1.624384	4.948291	0.946346	0.227417	1.425064	0.786008	0.218347	0.510863	-0.271174
59826	-11.417221	1.061530	4.829285	0.448603	0.002466	2.620472	0.773193	0.223100	0.523634	-0.279656
59827	-11.684177	-0.211560	4.667549	-0.194498	-0.932893	2.734397	0.760520	0.229061	0.534863	-0.288204
59828	-10.652194	-0.102353	3.490502	-0.315128	-0.420170	1.384550	0.747030	0.238200	0.543973	-0.298831
59829	-10.240391	2.184794	3.572981	1.771349	0.887851	1.071562	0.733270	0.246910	0.552582	-0.309846
59830	-10.048968	3.074872	4.427309	3.339054	0.661022	1.070306	0.720470	0.253372	0.560900	-0.319558
59831	-10.090296	3.096173	4.563275	3.721603	0.406827	1.059281	0.710145	0.257328	0.568663	-0.325729
59832	-9.604141	1.653589	3.201143	2.059549	0.261381	0.232538	0.702114	0.259233	0.576483	-0.327875
59833	-9.512580	0.698695	2.337298	0.989741	0.168163	-0.043937	0.694801	0.260229	0.584742	-0.328038
59834	-10.079412	0.208275	2.348231	0.742134	-0.166035	0.510635	0.688883	0.260907	0.591290	-0.328242
59835	-10.012649	1.526374	3.349942	2.537666	-0.156694	0.547768	0.684411	0.261415	0.596334	-0.328070
59836	-10.554789	1.183161	3.664326	2.547484	-0.599618	1.113450	0.681412	0.261133	0.600273	-0.327353
59837	-10.561211	-0.013259	3.183679	1.396135	-1.050164	1.078724	0.679381	0.262025	0.602037	-0.327621
59838	-10.182192	-1.114561	2.189149	-0.037986	-1.090148	0.604688	0.677143	0.265560	0.601728	-0.329968
59839	-10.212077	-0.921166	1.621782	-0.247585	-0.562181	0.550121	0.673986	0.270719	0.600801	-0.333905
59840	-10.214684	0.196420	1.586097	0.603905	0.134289	0.507741	0.670972	0.276308	0.598907	-0.338764
59841	-10.030427	1.272943	1.869665	1.632059	0.518466	0.325999	0.668852	0.281350	0.596408	-0.343186
59842	-9.950865	1.189820	1.957231	1.603298	0.364967	0.265124	0.668020	0.284911	0.593906	-0.346195
59843	-9.865967	0.360559	1.540048	0.657669	0.187613	0.155822	0.667971	0.288090	0.590943	-0.348719
59844	-9.616475	-0.591275	0.952135	-0.493525	0.076127	-0.144021	0.668303	0.291505	0.587548	-0.350974
59845	-9.366345	-0.163404	0.953168	-0.176979	0.295632	-0.402862	0.668170	0.294667	0.585078	-0.352708
59846	-9.533469	-0.037606	1.191092	0.014581	0.191319	-0.206948	0.668319	0.296845	0.583270	-0.353595
59847	-9.511262	0.215688	1.576303	0.403263	0.017847	-0.177738	0.668907	0.298837	0.581018	-0.354511
59848	-9.454605	0.422234	1.952289	0.742128	-0.176128	-0.179552	0.669990	0.300291	0.578817	-0.354837
59849	-9.537937	-0.036263	2.068207	0.372421	-0.509299	-0.073450	0.671572	0.300842	0.576779	-0.354698
59850	-9.460145	-0.695429	1.880284	-0.320710	-0.716315	-0.174367	0.673190	0.301277	0.574365	-0.355180
59851	-9.481806	-0.935419	1.654594	-0.695865	-0.633446	-0.188158	0.674572	0.301830	0.571691	-0.356400
59852	-9.608975	-0.687241	1.662833	-0.541137	-0.447707	-0.061985	0.675465	0.302496	0.569055	-0.358356
59853	-9.735354	-0.213560	1.784778	-0.128782	-0.226256	0.083784	0.676227	0.302912	0.566500	-0.360607
59854	-9.665562	0.170163	2.057733	0.313872	-0.204468	0.063837	0.677300	0.302709	0.564149	-0.362448
59855	-9.757453	0.189231	2.065142	0.292974	-0.139798	0.157411	0.678751	0.301924	0.562037	-0.363667
59856	-9.729199	-0.035636	1.885106	-0.020462	-0.073500	0.097215	0.680310	0.300944	0.560209	-0.364385
59857	-9.713370	-0.210168	1.676976	-0.303919	0.038480	0.041854	0.681621	0.300010	0.558834	-0.364818
59858	-9.652089	-0.177886	1.422385	-0.427924	0.286789	-0.068346	0.682504	0.299422	0.557664	-0.365439
59859	-9.488957	-0.029913	1.359609	-0.335168	0.418340	-0.241776	0.682909	0.299396	0.556501	-0.366475
59860	-9.433265	0.070389	1.577140	-0.139237	0.304963	-0.254111	0.682923	0.299803	0.555422	-0.367750
59861	-9.556290	0.348997	1.810428	0.196875	0.301248	-0.086815	0.682878	0.300223	0.554390	-0.369047
59862	-9.572654	0.587358	1.879345	0.424545	0.392846	-0.056764	0.683042	0.300226	0.553511	-0.370059
59863	-9.462219	0.712453	1.859650	0.525360	0.474864	-0.169143	0.683498	0.299691	0.553036	-0.370361
59864	-9.414774	0.505161	1.901415	0.373898	0.333778	-0.207620	0.684147	0.298770	0.553075	-0.369846
59865	-9.482088	0.113487	1.869732	0.016937	0.166850	-0.148804	0.684907	0.297770	0.553328	-0.368868
59866	-9.536872	-0.114341	2.001931	-0.112001	-0.053557	-0.068083	0.685469	0.296987	0.553697	-0.367900
59867	-9.718696	-0.339147	2.097228	-0.269103	-0.225615	0.129300	0.685677	0.296617	0.554098	-0.367205
59868	-9.796722	-0.272346	2.175227	-0.177766	-0.244033	0.221772	0.685528	0.296727	0.554286	-0.367111
59869	-9.845722	-0.128292	2.133215	-0.082554	-0.127576	0.261151	0.685169	0.297142	0.554372	-0.367316
59870	-9.766871	0.055495	2.141320	0.089010	-0.053754	0.185777	0.684681	0.297603	0.554553	-0.367580
59871	-9.681975	0.144267	2.146185	0.182374	-0.031273	0.103628	0.684233	0.297892	0.554871	-0.367700
59872	-9.601828	0.105877	2.158518	0.173026	-0.083006	0.027469	0.683926	0.298028	0.555195	-0.367672
59873	-9.598084	0.040464	2.087907	0.086565	-0.066667	0.009342	0.683750	0.298043	0.555454	-0.367597
59874	-9.579430	0.027367	2.069965	0.073222	-0.065103	-0.012617	0.683599	0.297954	0.555703	-0.367572
59875	-9.510090	0.033365	1.995492	0.052018	-0.014152	-0.095589	0.683437	0.297805	0.556010	-0.367529
59876	-9.520094	0.071448	1.992869	0.088454	0.007769	-0.086387	0.683196	0.297752	0.556376	-0.367469
59877	-9.519694	0.038355	2.081164	0.116181	-0.087820	-0.069173	0.682872	0.297794	0.556794	-0.367404
59878	-9.619674	-0.096249	2.087128	0.003918	-0.156476	0.030025	0.682488	0.297999	0.557145	-0.367420
59879	-9.673932	-0.081810	2.048285	-0.003565	-0.114209	0.075389	0.682062	0.298291	0.557368	-0.367635
59880	-9.705645	0.020381	1.956673	0.037626	0.017182	0.088161	0.681594	0.298460	0.557666	-0.367911
59881	-9.703115	0.084225	2.004117	0.126604	0.009455	0.094779	0.681153	0.298542	0.557949	-0.368234
59882	-9.657848	0.163954	2.074306	0.245651	-0.014058	0.063704	0.680832	0.298442	0.558297	-0.368382
59883	-9.588596	0.055683	2.124714	0.198308	-0.127443	0.005821	0.680672	0.298174	0.558705	-0.368275
59884	-9.586021	-0.089855	2.059738	0.050174	-0.155457	-0.008826	0.680533	0.297903	0.559106	-0.368142
59885	-9.653408	-0.220899	2.061879	-0.057012	-0.219264	0.058336	0.680325	0.297725	0.559461	-0.368132
59886	-9.676047	-0.228700	2.021750	-0.079884	-0.187039	0.072873	0.680043	0.297723	0.559587	-0.368464
59887	-9.632520	-0.128297	1.987758	-0.003021	-0.110078	0.023010	0.679641	0.297893	0.559606	-0.369038
59888	-9.580706	-0.103305	1.974457	0.023226	-0.093501	-0.030572	0.679214	0.298047	0.559734	-0.369505
59889	-9.643705	-0.060861	1.930512	0.039075	-0.025013	0.022426	0.678779	0.297978	0.560142	-0.369741
59890	-9.647629	-0.029283	1.776812	-0.004119	0.119220	-0.003486	0.678418	0.297636	0.560592	-0.369997
59891	-9.472662	-0.062523	1.795709	0.009246	0.057707	-0.171299	0.678039	0.297274	0.561146	-0.370144
59892	-9.550974	-0.044590	2.025181	0.156670	-0.109238	-0.051133	0.677634	0.296757	0.561964	-0.370060
59893	-9.687778	-0.025766	1.974671	0.151044	-0.034239	0.073111	0.677400	0.295947	0.562715	-0.369993
59894	-9.703036	-0.163644	1.932130	0.029309	-0.067955	0.081923	0.677121	0.295214	0.563357	-0.370116
59895	-9.746891	-0.345418	2.019000	-0.062317	-0.226266	0.144343	0.676717	0.294706	0.563845	-0.370516
59896	-9.727548	-0.431351	2.028778	-0.109761	-0.278181	0.129029	0.676171	0.294342	0.564209	-0.371247
59897	-9.696635	-0.322689	1.903728	-0.065060	-0.113367	0.073460	0.675429	0.294151	0.564472	-0.372346
59898	-9.644684	-0.213023	1.813945	0.001786	0.019541	0.003386	0.674553	0.294232	0.564603	-0.373671
59899	-9.631173	-0.002610	1.850033	0.218209	0.108542	-0.008470	0.673688	0.294222	0.564858	-0.374851
59900	-9.642273	0.027767	1.857182	0.268469	0.125880	0.002370	0.672963	0.293803	0.565496	-0.375520
59901	-9.709017	-0.200987	1.787604	0.057638	0.075091	0.061112	0.672412	0.293068	0.566303	-0.375865
59902	-9.690511	-0.386006	1.774102	-0.079188	-0.011960	0.046115	0.671867	0.292274	0.567103	-0.376249
59903	-9.609076	-0.304423	1.697714	-0.020561	0.086850	-0.050453	0.671185	0.291608	0.567865	-0.376834
59904	-9.672061	-0.159401	1.702502	0.126153	0.176752	0.006960	0.670447	0.290952	0.568749	-0.377323
59905	-9.621053	0.110357	1.811788	0.441812	0.226777	-0.034511	0.669827	0.290204	0.569701	-0.377562
59906	-9.602098	-0.027947	1.851344	0.374048	0.116726	-0.041560	0.669452	0.289158	0.570922	-0.377186
59907	-9.667921	-0.009454	1.752315	0.355237	0.218441	0.003903	0.669329	0.287982	0.572133	-0.376469
59908	-9.628570	-0.041032	1.751782	0.350195	0.192771	-0.034142	0.669392	0.286787	0.573328	-0.375450
59909	-9.670329	-0.261533	1.841612	0.230940	0.000442	0.032201	0.669529	0.285474	0.574726	-0.374066
59910	-9.928338	-0.663305	1.884382	-0.076861	-0.217370	0.312014	0.669764	0.284139	0.575856	-0.372922
59911	-9.835356	-0.649675	1.930311	-0.020217	-0.260077	0.227947	0.670101	0.282800	0.576495	-0.372347
59912	-9.864277	-0.731133	2.068057	0.002053	-0.403655	0.284461	0.670270	0.281437	0.577226	-0.371942
59913	-9.983297	-0.918804	2.232806	-0.053304	-0.605576	0.440421	0.670526	0.280119	0.577314	-0.372341
59914	-9.617686	-0.839562	2.116114	-0.022822	-0.504398	0.057859	0.670866	0.278652	0.577283	-0.372875
59915	-9.615523	-0.836858	1.853113	-0.155909	-0.265005	0.010654	0.671002	0.277214	0.577488	-0.373385
59916	-9.781722	-0.673947	1.740743	-0.078236	-0.029292	0.145196	0.671058	0.275828	0.577718	-0.373955
59917	-9.731646	-0.339452	1.872556	0.285428	0.069374	0.098936	0.671281	0.274739	0.577440	-0.374785
59918	-9.661118	-0.076386	1.901595	0.526076	0.206165	0.017867	0.671682	0.273724	0.577191	-0.375191
59919	-9.617206	-0.174595	1.760397	0.368878	0.274638	-0.044954	0.672069	0.272869	0.577134	-0.375209
59920	-9.675729	-0.355280	1.640246	0.150590	0.291590	0.002029	0.672497	0.271950	0.577332	-0.374805
59921	-9.601093	-0.451614	1.568679	0.033531	0.288179	-0.078134	0.672961	0.271371	0.577279	-0.374474
59922	-9.582791	-0.255922	1.665319	0.247498	0.322078	-0.091387	0.673350	0.270809	0.577519	-0.373809
59923	-9.526244	-0.354091	1.826017	0.261063	0.126350	-0.110887	0.673877	0.270002	0.578003	-0.372696
59924	-9.552464	-0.495056	1.995687	0.242120	-0.090110	-0.044849	0.674442	0.269215	0.578719	-0.371127
59925	-9.748700	-0.663571	1.913725	0.046742	-0.094218	0.143655	0.675002	0.268585	0.579295	-0.369665
59926	-9.564887	-0.550112	1.943893	0.160541	-0.093580	-0.038545	0.675705	0.268217	0.579365	-0.368536
59927	-9.420315	-0.434293	2.118556	0.355030	-0.200735	-0.155936	0.676178	0.268216	0.579661	-0.367202
59928	-9.529172	-0.325166	2.028209	0.374877	-0.062746	-0.072052	0.676525	0.268726	0.579841	-0.365902
59929	-9.481869	-0.322097	1.891092	0.283790	0.014678	-0.142891	0.676890	0.269894	0.579765	-0.364486
59930	-9.515338	-0.556111	1.798940	0.016036	-0.075128	-0.113148	0.677193	0.271470	0.579643	-0.362942
59931	-9.717396	-0.619966	1.798433	-0.069033	-0.116101	0.088226	0.677380	0.272788	0.580062	-0.360931
59932	-9.887793	-0.415167	1.983465	0.175134	-0.152756	0.277942	0.677811	0.273852	0.580230	-0.359041
59933	-9.858261	-0.042122	2.147725	0.551570	-0.099238	0.261320	0.678554	0.274627	0.580136	-0.357193
59934	-9.828610	-0.056432	2.125221	0.500944	-0.119044	0.230026	0.679476	0.275374	0.579796	-0.355412
59935	-9.935168	-0.230515	1.960033	0.217903	-0.095949	0.313789	0.680518	0.276832	0.578659	-0.354138
59936	-9.749232	-0.239043	1.851124	0.111148	-0.064729	0.112760	0.681547	0.278974	0.576875	-0.353387
59937	-9.648451	-0.311711	1.787492	-0.028014	-0.097513	0.004357	0.682095	0.281567	0.575396	-0.352683
59938	-9.664919	-0.431914	1.772443	-0.184337	-0.184190	0.019432	0.682411	0.284636	0.573744	-0.352301
59939	-9.474908	-0.175462	1.699173	-0.050130	-0.038954	-0.185251	0.682382	0.288269	0.572029	-0.352192
59940	-9.713493	-0.078372	1.749132	-0.014038	-0.028064	0.057277	0.682063	0.292484	0.570202	-0.352298
59941	-9.702468	0.244886	1.918612	0.295228	-0.023584	0.076236	0.681768	0.296884	0.568008	-0.352732
59942	-9.534251	0.542870	1.937784	0.513938	0.065103	-0.082173	0.681687	0.300940	0.565869	-0.352888
59943	-9.613835	0.432353	1.884974	0.332980	0.017198	-0.011953	0.681967	0.304050	0.564295	-0.352202
59944	-9.553756	0.241168	1.850714	0.112956	-0.103046	-0.079552	0.682678	0.306400	0.562771	-0.351224
59945	-9.530042	-0.004647	1.839356	-0.139920	-0.261954	-0.111318	0.683514	0.308031	0.561820	-0.349690
59946	-9.710098	0.135787	1.745333	-0.138997	-0.105750	0.052400	0.684342	0.309507	0.560657	-0.348634
59947	-9.611859	0.453564	2.005698	0.233524	-0.165460	0.012498	0.685455	0.310880	0.558889	-0.348063
59948	-9.668363	0.716884	2.272188	0.537775	-0.234393	0.127615	0.686744	0.312227	0.556943	-0.347436
59949	-9.858472	0.823806	2.459159	0.641244	-0.304786	0.356439	0.688414	0.313598	0.554437	-0.346905
59950	-9.605451	0.786674	2.362683	0.524892	-0.279060	0.092463	0.690005	0.315483	0.551688	-0.346415
59951	-9.716286	-0.002769	2.306479	-0.249741	-0.661908	0.148493	0.691322	0.317882	0.548723	-0.346305
59952	-9.655067	-0.574495	2.371190	-0.756258	-1.037892	0.062700	0.692259	0.320682	0.545239	-0.347354
59953	-9.491122	-0.539688	2.078407	-0.926407	-0.787152	-0.157936	0.692164	0.324358	0.541427	-0.350082
59954	-9.500838	-0.189203	1.869348	-0.799522	-0.412290	-0.169722	0.690937	0.328907	0.537751	-0.353907
59955	-9.453669	-0.095863	1.375583	-1.001171	0.049437	-0.311718	0.688713	0.334206	0.534317	-0.358450
59956	-9.422482	-0.062115	1.292688	-1.031122	0.131125	-0.358713	0.685759	0.340012	0.531122	-0.363368
59957	-9.545485	0.353345	1.320274	-0.691154	0.321946	-0.200044	0.682128	0.346080	0.528127	-0.368798
59958	-9.478661	0.701083	1.356343	-0.355862	0.432161	-0.228182	0.678350	0.351418	0.525858	-0.373925
59959	-9.490784	1.001235	1.438452	-0.035717	0.481356	-0.173523	0.674916	0.354969	0.524964	-0.378018
59960	-9.454991	1.306601	1.406105	0.263372	0.627866	-0.188892	0.672584	0.356040	0.525554	-0.380342
59961	-9.738116	1.537292	1.498889	0.508765	0.685591	0.122692	0.671727	0.354524	0.527353	-0.380780
59962	-9.576587	1.432961	1.388724	0.433127	0.718855	-0.066483	0.672036	0.351852	0.529903	-0.379171
59963	-9.827112	0.853121	1.548217	-0.016964	0.346322	0.166121	0.672882	0.349019	0.532539	-0.376586
59964	-9.697748	1.015295	1.778050	0.268962	0.201564	0.093150	0.673770	0.346862	0.534455	-0.374271
59965	-9.686206	1.275413	1.914092	0.574230	0.197907	0.124318	0.674043	0.345880	0.535979	-0.372504
59966	-9.702732	0.995134	2.309443	0.523308	-0.295267	0.192597	0.673659	0.345658	0.537486	-0.371233
59967	-9.922250	0.472609	2.436683	0.112787	-0.653027	0.393809	0.672874	0.345879	0.538742	-0.370628
59968	-9.963051	0.323492	2.067365	-0.179142	-0.421395	0.357432	0.671993	0.346683	0.539260	-0.370722
59969	-9.738342	0.905346	1.731782	0.213092	0.103966	0.116955	0.671249	0.347754	0.539269	-0.371053
59970	-9.547306	1.443039	1.666633	0.683023	0.379988	-0.045387	0.671127	0.347945	0.539737	-0.370414
59971	-9.577589	1.703618	1.946504	1.034008	0.258241	0.050656	0.672231	0.346631	0.540747	-0.368165
59972	-9.732275	1.474303	2.283820	0.959519	-0.119784	0.245718	0.674657	0.343903	0.541961	-0.364481
59973	-9.943685	1.255462	2.516143	0.825663	-0.382265	0.480808	0.678149	0.340725	0.542465	-0.360210
59974	-9.791895	1.300077	2.242469	0.705754	-0.111572	0.291228	0.682449	0.337721	0.541848	-0.355822
59975	-9.843906	1.474972	2.004575	0.657931	0.219876	0.317196	0.686925	0.335195	0.540733	-0.351264
59976	-10.003163	1.498075	2.058968	0.593972	0.234185	0.489666	0.691279	0.333239	0.539137	-0.347010
59977	-10.009990	1.806674	2.601266	1.032964	-0.023011	0.635376	0.696002	0.331531	0.536794	-0.342813
59978	-9.863734	2.223118	3.009241	1.500528	-0.112650	0.628820	0.701612	0.330018	0.533348	-0.338185
59979	-9.987816	2.359689	3.153932	1.514950	-0.091019	0.815858	0.708199	0.328480	0.529007	-0.332725
59980	-10.233547	2.277863	3.252135	1.264843	-0.129146	1.090086	0.715670	0.326792	0.523798	-0.326587
59981	-10.299986	2.436994	3.326642	1.206013	-0.023463	1.216157	0.723877	0.325059	0.517478	-0.320243
59982	-10.116417	2.970397	3.533092	1.553445	0.171799	1.196373	0.732511	0.323508	0.510426	-0.313426
59983	-9.862729	3.050135	3.762092	1.554859	0.085716	1.063834	0.741747	0.321499	0.502938	-0.305783
59984	-9.829227	2.492300	4.009370	0.999732	-0.363778	1.039130	0.751386	0.319023	0.495054	-0.297599
59985	-9.955574	2.050400	3.953813	0.312309	-0.490901	1.077876	0.761211	0.316728	0.486052	-0.289821
59986	-9.760727	2.035993	3.975229	0.093202	-0.459263	0.910755	0.770711	0.315163	0.476088	-0.282873
59987	-9.665763	2.370934	4.047288	0.119446	-0.233432	0.927520	0.779855	0.314037	0.465626	-0.276405
59988	-9.604321	2.847185	4.370609	0.360421	-0.094235	1.109952	0.788991	0.312805	0.454717	-0.269960
59989	-9.407248	3.177907	4.785332	0.589250	-0.119725	1.192931	0.798300	0.311183	0.443311	-0.263359
59990	-9.365772	3.411932	5.150383	0.637530	-0.131609	1.387804	0.807827	0.308939	0.431530	-0.256425
59991	-9.281253	3.413423	5.283828	0.407086	-0.116736	1.390927	0.817814	0.305667	0.419237	-0.248975
59992	-9.144017	3.417507	5.326398	0.150687	-0.027053	1.306092	0.827945	0.301736	0.406424	-0.241416
59993	-9.016323	3.485598	5.498340	-0.003724	0.027610	1.307642	0.838067	0.297260	0.393270	-0.233707
59994	-8.935243	3.441697	5.729268	-0.228404	-0.021062	1.342700	0.848065	0.292408	0.379784	-0.225936
59995	-8.697275	3.304921	5.881230	-0.457149	-0.107126	1.183691	0.857842	0.287709	0.365706	-0.218149
59996	-8.264630	3.189859	6.014930	-0.547984	-0.207716	0.878570	0.867135	0.283454	0.351391	-0.210368
59997	-8.063150	3.126096	6.120830	-0.758770	-0.228954	0.751940	0.875861	0.279811	0.336735	-0.202936
59998	-7.952392	3.445482	6.228917	-0.816694	0.046076	0.828278	0.884048	0.276397	0.321955	-0.195983
59999	-7.823183	3.725438	6.453778	-0.838831	0.215819	0.956233	0.891768	0.273397	0.306871	-0.189300
60000	-7.414923	4.018880	6.650334	-0.671973	0.369469	0.899863	0.899212	0.270333	0.291507	-0.182654
60001	-6.942412	4.023702	6.704201	-0.650913	0.376206	0.615960	0.906359	0.266905	0.276373	-0.175764
60002	-6.605101	3.749883	6.744313	-0.847558	0.190773	0.307057	0.913191	0.263317	0.261279	-0.168759
60003	-6.273309	3.751243	6.962032	-0.833617	0.120826	0.245952	0.919637	0.259623	0.246222	-0.161982
60004	-6.105040	3.798544	7.142961	-0.941021	0.140632	0.277247	0.925733	0.255736	0.231218	-0.155418
60005	-5.836303	3.540165	7.244168	-1.110183	-0.061140	0.078086	0.931436	0.251879	0.216257	-0.149052
60006	-5.491200	3.675641	7.361481	-1.039571	0.038289	0.024158	0.936747	0.248005	0.201274	-0.143136
60007	-5.150955	3.871571	7.622097	-0.903105	0.114094	0.126128	0.941625	0.244355	0.186534	-0.137254
60008	-4.769819	3.843989	7.979586	-0.787518	-0.059724	0.215686	0.946016	0.241533	0.171539	-0.131489
60009	-4.286023	3.817966	8.127162	-0.635628	-0.151472	0.115152	0.949958	0.239172	0.156676	-0.125817
60010	-3.882745	3.548285	7.895429	-0.707476	-0.260126	-0.356034	0.953365	0.237451	0.142093	-0.120509
60011	-3.826497	3.639967	7.894043	-0.913775	-0.132363	-0.360278	0.956292	0.236105	0.127976	-0.115679
60012	-3.601753	4.003237	8.118516	-0.840864	0.087210	-0.107686	0.958885	0.234964	0.113783	-0.111288
60013	-3.137191	4.136455	8.167991	-0.641946	0.152265	-0.157317	0.961112	0.234230	0.099677	-0.107070
60014	-2.715662	3.971098	8.148143	-0.561345	-0.007181	-0.367304	0.963039	0.233669	0.085859	-0.102873
60015	-2.479639	4.045326	8.069259	-0.590901	0.098690	-0.471297	0.964813	0.232614	0.072513	-0.098837
60016	-2.417787	3.892972	7.994294	-0.825789	0.036555	-0.635482	0.966388	0.231407	0.059451	-0.094927
60017	-1.932905	4.097372	8.075404	-0.548489	0.145087	-0.570941	0.967690	0.230389	0.046873	-0.091108
60018	-1.728489	4.047437	8.002868	-0.595928	0.142827	-0.700312	0.968797	0.229354	0.034897	-0.087249
60019	-1.344841	3.947271	8.031665	-0.459050	0.015650	-0.774865	0.969580	0.228915	0.023359	-0.083465
60020	-1.090626	4.171683	8.227533	-0.380796	0.109447	-0.532380	0.970147	0.228655	0.012675	-0.079821
60021	-0.845742	4.040959	8.073545	-0.359046	0.047484	-0.752197	0.970586	0.228437	0.002599	-0.075981
60022	-0.571098	3.784401	8.099636	-0.311805	-0.219107	-0.862598	0.970723	0.228925	-0.006796	-0.072414
60023	-0.510811	3.744219	8.078903	-0.427016	-0.251758	-0.907584	0.970701	0.229526	-0.015477	-0.069412
60024	-0.237614	3.929326	7.870257	-0.276951	-0.033436	-1.017385	0.970564	0.230155	-0.023629	-0.066897
60025	0.124727	3.939521	7.607600	-0.034283	0.046398	-1.244935	0.970507	0.230210	-0.030524	-0.064712
60026	0.246830	3.793662	7.417196	-0.021899	-0.002791	-1.478039	0.970533	0.229726	-0.036014	-0.063202
60027	0.309647	3.790424	7.283957	-0.029024	0.071049	-1.596069	0.970864	0.227792	-0.040346	-0.062501
60028	0.388460	3.837342	6.986179	0.026677	0.282712	-1.837623	0.971538	0.224198	-0.043717	-0.062755
60029	0.474907	3.478598	6.973258	0.039908	0.031546	-2.005689	0.972634	0.218823	-0.046024	-0.063101
60030	0.924236	2.464631	7.051524	0.344812	-0.892276	-2.346961	0.973553	0.214200	-0.048090	-0.063254
60031	1.416459	2.808786	7.203783	0.834905	-0.657898	-2.024231	0.974157	0.211193	-0.048412	-0.063816
60032	1.011073	2.973848	8.101946	0.355699	-0.778000	-1.165399	0.974659	0.208923	-0.047382	-0.064394
60033	0.939010	3.435839	8.659063	0.296693	-0.550266	-0.470571	0.974948	0.207978	-0.045537	-0.064397
60034	0.814345	4.333741	8.810001	0.294714	0.229507	0.032150	0.975166	0.207410	-0.042996	-0.064675
60035	0.469656	4.375902	8.929108	0.005218	0.291454	0.137818	0.975695	0.205359	-0.039773	-0.065306
60036	0.258184	3.729259	9.297458	-0.246966	-0.376663	0.197980	0.976145	0.203591	-0.036782	-0.065871
60037	0.599796	3.572987	9.111197	0.152511	-0.473872	-0.020252	0.976298	0.203101	-0.033869	-0.066671
60038	0.592231	3.611796	9.017532	0.218111	-0.397437	-0.091276	0.976348	0.202828	-0.030963	-0.068171
60039	0.252360	3.966417	9.188941	-0.027838	-0.092558	0.198461	0.976409	0.202333	-0.028101	-0.069984
60040	0.045009	4.255378	9.582591	-0.167739	0.044038	0.670916	0.976386	0.202305	-0.025564	-0.071343
60041	-0.090238	4.655649	9.737829	-0.207141	0.365085	0.973049	0.976434	0.201950	-0.023388	-0.072431
60042	-0.042182	4.481328	9.459247	-0.115549	0.330554	0.648600	0.976762	0.200112	-0.021741	-0.073606
60043	-0.023079	4.131671	9.222305	-0.086032	0.147401	0.291404	0.977244	0.197482	-0.020148	-0.074758
60044	-0.107713	4.087515	9.283653	-0.138359	0.148088	0.329508	0.977725	0.194799	-0.018471	-0.075934
60045	-0.295002	4.092330	9.447772	-0.289176	0.177711	0.481914	0.978296	0.191492	-0.016789	-0.077367
60046	-0.518340	3.834913	9.516740	-0.508163	0.028634	0.448099	0.979057	0.187194	-0.015357	-0.078552
60047	-0.088071	3.603280	9.422580	-0.073085	-0.130624	0.274595	0.979798	0.182929	-0.013998	-0.079611
60048	-0.236532	3.431501	9.500324	-0.209492	-0.203130	0.286878	0.980581	0.178173	-0.012467	-0.080987
60049	-0.348749	3.621648	9.540964	-0.251988	0.081107	0.394987	0.981467	0.172472	-0.011324	-0.082750
60050	-0.232851	3.548929	9.693958	-0.116116	0.069327	0.512131	0.982477	0.165729	-0.010192	-0.084672
60051	-0.318068	3.227273	9.675752	-0.207675	-0.059966	0.389644	0.983617	0.157847	-0.008901	-0.086624
60052	-0.341751	2.888725	9.744902	-0.246155	-0.230086	0.351396	0.984726	0.149592	-0.007796	-0.088745
60053	-0.227643	2.771681	9.773716	-0.112127	-0.202461	0.346227	0.985745	0.141404	-0.006671	-0.090921
60054	-0.200170	2.735743	9.904139	-0.053255	-0.119989	0.463353	0.986578	0.133938	-0.005564	-0.093239
60055	-0.362843	2.698264	9.909467	-0.176682	0.023036	0.462333	0.987350	0.126640	-0.004366	-0.095308
60056	-0.219470	2.369706	9.774457	-0.049859	-0.142013	0.246112	0.987980	0.120056	-0.003097	-0.097330
60057	-0.365188	2.485505	9.721765	-0.124554	0.136380	0.226645	0.988525	0.113696	-0.001648	-0.099439
60058	-0.392423	2.290145	9.834464	-0.147049	0.052286	0.291257	0.988984	0.107611	-0.000343	-0.101638
60059	-0.395407	2.136854	9.819481	-0.134088	0.028906	0.243380	0.989402	0.101595	0.001276	-0.103736
60060	-0.397178	1.713174	9.634819	-0.172365	-0.227669	-0.022905	0.989709	0.096208	0.002898	-0.105887
60061	-0.506852	2.090101	9.771137	-0.154696	0.226466	0.188532	0.989941	0.091442	0.004634	-0.107860
60062	-0.430842	2.730884	9.877025	0.110144	0.902791	0.403505	0.990161	0.086095	0.006595	-0.110112
60063	-0.771899	2.935437	10.097288	-0.109837	1.270014	0.653444	0.990554	0.077769	0.008977	-0.112580
60064	-1.114592	1.851140	10.235270	-0.614399	0.469270	0.619381	0.991065	0.067614	0.010827	-0.114464
60065	-0.328832	0.694709	10.189241	-0.052782	-0.620193	0.386376	0.991424	0.058462	0.012504	-0.116208
60066	-0.332624	0.490998	10.305463	-0.050773	-0.663743	0.488236	0.991591	0.050924	0.013925	-0.118150
60067	-0.324955	0.929513	10.378150	0.104142	-0.115884	0.610846	0.991553	0.045173	0.014998	-0.120650
60068	-0.809764	1.818824	10.617619	-0.103921	0.957693	0.946870	0.991437	0.039038	0.016128	-0.123563
60069	-1.173796	1.633317	10.602133	-0.453386	1.023278	0.920212	0.991461	0.030552	0.017183	-0.125602
60070	-0.320900	0.309446	10.143138	0.073775	-0.256296	0.336603	0.991468	0.021696	0.018117	-0.127248
60071	-0.192931	-0.139962	10.174059	0.122737	-0.562056	0.347792	0.991302	0.014230	0.018936	-0.129455
60072	-0.404419	0.747587	10.182878	0.178984	0.487917	0.392305	0.990967	0.007791	0.019332	-0.132478
60073	-1.111716	1.610604	10.111948	-0.240477	1.664010	0.348592	0.990653	-0.001299	0.020058	-0.134915
60074	-0.705062	0.935069	9.810349	0.006891	1.116856	0.003729	0.990356	-0.013533	0.020886	-0.136291
60075	-0.359189	-0.243160	9.804188	0.076373	0.135840	-0.000445	0.989933	-0.026919	0.022046	-0.137196
60076	-0.124672	-0.552099	9.866275	0.275522	0.016415	0.065737	0.989407	-0.038318	0.023022	-0.138115
60077	-0.452884	0.412274	9.891247	0.282097	1.248830	0.014242	0.988726	-0.049348	0.024813	-0.139175
60078	-1.075216	0.393425	9.765323	-0.255594	1.634032	-0.120931	0.987820	-0.063758	0.026885	-0.139369
60079	-0.375058	-0.638589	9.497867	0.201861	0.709839	-0.315055	0.986564	-0.080006	0.029534	-0.139346
60080	-0.565084	-2.195361	9.651964	-0.295200	-0.400889	0.089027	0.985239	-0.094844	0.032180	-0.138825
60081	-0.323991	-3.040206	9.831152	-0.182679	-0.984562	0.433870	0.984107	-0.105939	0.034821	-0.138198
60082	-0.120072	-3.222421	9.765026	0.032615	-1.043189	0.417791	0.983230	-0.113422	0.036749	-0.137997
60083	-0.248154	-2.553898	9.711830	0.133139	-0.273727	0.227737	0.982561	-0.118055	0.038370	-0.138434
60084	-0.845272	-1.711254	10.179993	-0.120460	0.874343	0.506964	0.981843	-0.122783	0.039963	-0.138966
60085	-1.069451	-2.457847	10.299301	-0.473264	0.375115	0.812484	0.981077	-0.128627	0.041199	-0.138726
60086	-0.359995	-3.896719	10.194856	-0.148105	-1.086958	1.052165	0.980590	-0.132567	0.041772	-0.138291
60087	-0.300996	-3.562850	10.199247	0.006746	-0.755589	0.968693	0.980647	-0.132132	0.041599	-0.138355
60088	-0.448348	-2.325812	9.762685	0.126268	0.311066	0.227615	0.980808	-0.130699	0.041104	-0.138723
60089	-0.815714	-1.730722	9.823419	-0.075135	0.970871	0.147840	0.980809	-0.130816	0.040544	-0.138771
60090	-0.770206	-2.201176	9.935168	-0.152669	0.561916	0.375876	0.980746	-0.131950	0.039810	-0.138352
60091	-0.557368	-2.728519	9.715824	-0.125097	-0.025817	0.293566	0.980810	-0.132142	0.038977	-0.137955
60092	-0.578191	-2.530852	9.760664	-0.106409	0.164896	0.285405	0.981058	-0.130821	0.038072	-0.137700
60093	-0.524810	-2.503300	9.797025	-0.067846	0.153291	0.311312	0.981401	-0.128853	0.036992	-0.137407
60094	-0.451605	-2.469226	9.711519	-0.026593	0.102712	0.217424	0.981791	-0.126415	0.035783	-0.137206
60095	-0.432177	-2.383320	9.719692	-0.016427	0.129333	0.203404	0.982221	-0.123553	0.034497	-0.137061
60096	-0.623281	-2.406901	9.883231	-0.224853	0.137016	0.375055	0.982727	-0.120063	0.033067	-0.136889
60097	-0.498789	-2.496438	9.881411	-0.169970	-0.059415	0.389767	0.983335	-0.115537	0.031525	-0.136780
60098	-0.407724	-2.400035	9.991983	-0.090736	-0.067301	0.470907	0.984007	-0.110235	0.030073	-0.136656
60099	-0.359022	-2.314683	10.064128	-0.060776	-0.095004	0.519755	0.984686	-0.104535	0.028550	-0.136567
60100	-0.387834	-2.187186	10.086095	-0.103133	-0.081682	0.514205	0.985386	-0.098245	0.026828	-0.136542
60101	-0.413164	-2.000319	9.913202	-0.147128	-0.060906	0.307409	0.986121	-0.091120	0.024984	-0.136521
60102	-0.442937	-1.245073	9.856965	-0.034681	0.516049	0.118924	0.986794	-0.084015	0.023281	-0.136516
60103	-0.611556	-1.345613	10.081054	-0.258223	0.372534	0.365990	0.987392	-0.077838	0.021744	-0.136110
60104	-0.337944	-1.477401	10.090731	-0.078249	0.043774	0.390741	0.988012	-0.070797	0.020236	-0.135688
60105	-0.276457	-1.183442	10.119993	0.010565	0.164353	0.378579	0.988643	-0.062962	0.018772	-0.135158
60106	-0.218994	-1.013736	10.197407	0.063839	0.162592	0.435722	0.989233	-0.054925	0.017291	-0.134546
60107	-0.239682	-0.526746	10.062257	0.112373	0.464111	0.254768	0.989779	-0.046929	0.015612	-0.133757
60108	-0.316907	0.160906	9.707386	0.148962	0.962807	-0.147888	0.990353	-0.038865	0.014009	-0.132268
60109	-0.328422	0.328056	9.752495	0.133491	0.984542	-0.099927	0.990922	-0.031457	0.012735	-0.130082
60110	-0.347510	0.266794	10.116272	0.069203	0.811972	0.280141	0.991487	-0.024599	0.011808	-0.127313
60111	-0.210288	-0.366211	9.981580	0.003581	0.033715	0.177704	0.991995	-0.018628	0.011021	-0.124404
60112	-0.210951	-1.431645	9.693865	-0.298817	-1.134473	-0.081958	0.992416	-0.011370	0.009948	-0.121992
60113	-0.255877	-0.756906	9.710773	-0.220491	-0.632904	-0.092341	0.992699	-0.001458	0.008370	-0.120320
60114	-0.504278	0.892633	9.783086	-0.120053	0.837022	-0.012611	0.992864	0.008620	0.006822	-0.118746
60115	-0.669428	1.666779	10.109210	-0.148798	1.447623	0.351096	0.992993	0.016263	0.005314	-0.116924
60116	-0.613712	0.657643	10.478362	-0.385011	0.300363	0.692793	0.993112	0.022495	0.003080	-0.114947
60117	-0.272221	-0.331946	10.635923	-0.351879	-0.886747	0.788941	0.993135	0.030003	-0.000128	-0.113063
60118	0.015058	0.172229	10.527845	-0.046808	-0.621330	0.697959	0.992965	0.039166	-0.003605	-0.111685
60119	-0.127079	0.914166	10.567798	-0.123020	-0.072833	0.794144	0.992549	0.049927	-0.007544	-0.110889
60120	-0.262793	0.885119	10.378046	-0.369640	-0.277189	0.595831	0.991904	0.061678	-0.011814	-0.110377
60121	-0.060312	0.074631	10.254281	-0.462196	-1.330788	0.344502	0.990949	0.074415	-0.016335	-0.110527
60122	0.585922	0.869725	9.818956	0.244926	-0.896291	0.017960	0.989579	0.088099	-0.020407	-0.112047
60123	-0.029280	2.141729	9.991367	-0.191764	0.173545	0.402119	0.988019	0.100901	-0.024038	-0.114278
60124	0.033631	2.733773	9.819905	-0.085769	0.517777	0.366937	0.986468	0.112365	-0.027772	-0.116116
60125	0.325486	2.338430	9.480744	0.045276	-0.081982	-0.043112	0.984716	0.124869	-0.030857	-0.117433
60126	0.570065	0.222471	9.374252	-0.270988	-2.374271	-0.728002	0.982095	0.141866	-0.033825	-0.119243
60127	0.906220	-0.000531	8.934052	-0.057087	-2.892831	-1.312630	0.977828	0.165381	-0.036912	-0.123042
60128	0.121780	4.082068	8.097043	0.111301	0.871087	-0.787692	0.972546	0.190773	-0.039036	-0.127417
60129	-0.706860	7.163904	8.887024	-0.140477	3.077263	1.200490	0.967538	0.212348	-0.040727	-0.130845
60130	-0.998231	5.358252	9.419522	-0.970916	0.930389	0.986110	0.963198	0.229863	-0.040963	-0.133171
60131	1.081141	3.278264	7.658739	0.720639	-1.005463	-1.504112	0.957931	0.248962	-0.043013	-0.136144
60132	0.100952	5.036487	7.483667	0.167982	0.489560	-0.806905	0.952597	0.267060	-0.043505	-0.139090
60133	-0.964444	7.010050	8.498447	-0.578482	1.545926	1.121611	0.947513	0.283083	-0.044340	-0.141836
60134	-0.835261	7.226063	8.716047	-0.476496	1.251899	1.460415	0.943718	0.294452	-0.044751	-0.143844
60135	-0.155307	5.335718	8.310060	-0.253728	-0.438861	0.050916	0.940255	0.304268	-0.045496	-0.145846
60136	-0.150206	4.518861	7.797436	-0.396646	-0.992484	-0.863052	0.935927	0.316304	-0.045980	-0.147913
60137	0.009589	5.566090	7.871650	-0.041152	-0.547792	-0.187932	0.930746	0.330056	-0.046845	-0.150266
60138	-0.360868	7.978353	7.602736	0.210811	1.225669	1.143275	0.926299	0.341581	-0.047388	-0.151814
60139	-0.784778	8.792149	8.103183	-0.115310	1.427860	2.083771	0.924010	0.346922	-0.048209	-0.153383
60140	-0.164868	6.113057	8.125244	-0.219627	-0.765291	0.325468	0.922974	0.348648	-0.049507	-0.155284
60141	-0.214603	4.765764	7.381348	-0.477240	-1.279208	-1.130617	0.921299	0.352258	-0.050254	-0.156836
60142	-0.181666	5.521816	7.279345	-0.263620	-0.805380	-0.713670	0.917900	0.360245	-0.051434	-0.158233
60143	-0.249453	7.452254	7.223817	0.132848	0.409258	0.560053	0.914292	0.368621	-0.052273	-0.159548
60144	-0.565576	8.913542	7.342235	0.153543	1.284585	1.676664	0.912623	0.371906	-0.053069	-0.161210
60145	-0.508996	7.330586	7.338323	-0.200426	0.173544	0.568895	0.912450	0.371576	-0.053842	-0.162688
60146	-0.217527	6.355246	6.781680	-0.052727	-0.195210	-0.518240	0.912507	0.370914	-0.054115	-0.163787
60147	-0.229884	6.156238	6.811188	-0.122213	-0.352305	-0.636345	0.911733	0.372358	-0.054434	-0.164708
60148	-0.433286	7.646959	7.135706	-0.004005	0.463972	0.645165	0.911114	0.373450	-0.054794	-0.165539
60149	-0.332088	6.933663	7.403857	-0.156970	-0.241993	0.332255	0.910675	0.374096	-0.055136	-0.166381
60150	-0.300513	6.744330	6.811841	-0.044275	0.001459	-0.222302	0.910234	0.374857	-0.055071	-0.167105
60151	-0.313903	7.501857	6.633495	0.186338	0.611645	0.185853	0.910004	0.375177	-0.054907	-0.167689
60152	-0.431150	7.866098	7.139643	0.068349	0.564424	0.803929	0.910562	0.373704	-0.054691	-0.168019
60153	-0.224201	6.710674	7.269941	-0.055823	-0.314451	0.078378	0.911601	0.371096	-0.054323	-0.168285
60154	-0.417577	6.852057	6.783032	-0.071604	0.225280	-0.164975	0.912764	0.368103	-0.053896	-0.168694
60155	-0.547241	7.259319	7.135344	-0.139524	0.382669	0.372779	0.914339	0.364046	-0.053595	-0.169061
60156	-0.562593	7.012823	7.521460	-0.275598	0.078534	0.482208	0.916715	0.357910	-0.053181	-0.169429
60157	-0.499230	7.349536	7.375368	-0.053963	0.544016	0.596862	0.920123	0.348920	-0.052901	-0.169793
60158	-0.585253	8.482636	7.535611	0.195931	1.523185	1.444088	0.925334	0.334971	-0.052571	-0.169672
60159	-0.381958	7.860111	7.998209	0.188455	1.102771	1.351152	0.931872	0.316836	-0.052052	-0.168880
60160	0.100358	4.913533	8.098864	-0.137131	-0.904467	-0.384225	0.938140	0.298121	-0.052236	-0.168195
60161	0.078475	3.802756	7.661207	-0.332098	-1.176745	-1.347529	0.943385	0.281680	-0.052235	-0.167191
60162	-0.309241	5.505810	7.980076	-0.215397	0.429403	-0.125002	0.948458	0.265335	-0.051305	-0.165507
60163	-0.443900	6.302429	8.551474	-0.157191	1.181740	0.751971	0.953662	0.248093	-0.050440	-0.162590
60164	0.484794	4.953689	8.126247	0.470555	0.312584	-0.300518	0.958421	0.231260	-0.049299	-0.159744
60165	0.409679	3.779240	7.292324	0.276510	-0.000611	-1.594017	0.962472	0.216550	-0.046372	-0.156852
60166	-0.169163	2.688745	7.601131	-0.548381	-0.659405	-1.794194	0.965679	0.204711	-0.043015	-0.153973
60167	0.077911	2.680505	8.342585	-0.346825	-0.880264	-1.101025	0.967842	0.197509	-0.039550	-0.150694
60168	0.255590	3.526702	9.302800	-0.004680	-0.475895	0.128039	0.968922	0.195190	-0.036180	-0.147585
60169	0.025035	3.278770	10.467708	-0.386176	-1.050545	1.099274	0.969116	0.195943	-0.033983	-0.145828
60170	-0.059597	3.895636	10.480167	-0.270481	-0.518854	1.352924	0.968970	0.197482	-0.032558	-0.145044
60171	-0.419789	4.530190	10.305129	-0.401874	0.181929	1.443415	0.968977	0.198093	-0.031341	-0.144431
60172	-0.541643	4.993676	9.918845	-0.330042	0.776975	1.273383	0.969411	0.196705	-0.030478	-0.143602
60173	-0.263505	4.667268	9.433036	-0.076283	0.645873	0.695000	0.970350	0.193090	-0.029725	-0.142316
60174	-0.052919	4.467391	9.235153	0.119186	0.563487	0.430164	0.971401	0.188880	-0.028557	-0.141032
60175	-0.238104	3.128903	9.710514	-0.436265	-0.664464	0.361224	0.972312	0.185186	-0.027969	-0.139761
60176	0.270227	2.341823	9.515746	-0.121843	-1.391824	-0.109362	0.972601	0.184267	-0.027897	-0.138977
60177	-0.149237	3.337302	9.060523	-0.212618	-0.224016	-0.160874	0.972512	0.185052	-0.027231	-0.138688
60178	-0.377587	4.093510	9.209271	-0.247200	0.437970	0.259903	0.972300	0.186382	-0.027046	-0.138431
60179	-0.213542	4.001001	9.562612	-0.150441	0.160499	0.553062	0.972206	0.187161	-0.026857	-0.138079
60180	-0.110298	3.815210	9.228251	-0.062714	0.081070	0.173208	0.972275	0.186983	-0.026610	-0.137877
60181	-0.286298	3.671783	9.090314	-0.248916	0.058777	-0.007978	0.972433	0.186428	-0.026258	-0.137582
60182	-0.161948	3.620580	9.027722	-0.128552	0.015700	-0.085520	0.972678	0.185459	-0.025896	-0.137226
60183	0.006200	3.540671	8.939168	0.036578	-0.047871	-0.198043	0.973012	0.184002	-0.024888	-0.137008
60184	-0.069084	2.888614	8.831124	-0.167374	-0.548847	-0.538623	0.973246	0.182860	-0.023488	-0.137124
60185	0.029371	2.829051	8.486583	-0.024519	-0.499196	-0.880913	0.973203	0.182756	-0.021698	-0.137860
60186	-0.209892	3.591841	8.121435	0.019175	0.375371	-0.937914	0.973170	0.182454	-0.018993	-0.138890
60187	-0.248478	3.920592	7.930526	0.142312	0.755217	-0.995939	0.973438	0.180995	-0.015571	-0.139348
60188	0.107153	3.543703	7.940120	0.454232	0.335812	-1.135409	0.973812	0.179273	-0.011168	-0.139381
60189	-0.119389	3.031773	7.967796	0.184923	-0.051890	-1.288957	0.974180	0.177626	-0.005611	-0.139249
60190	-0.674693	2.602877	8.370022	-0.386517	-0.425263	-1.040218	0.974228	0.177516	0.000581	-0.139165
60191	-0.761646	2.953780	8.880662	-0.285550	-0.289216	-0.431610	0.974041	0.178173	0.007138	-0.139458
60192	-0.461151	3.329736	8.730804	0.237654	-0.006662	-0.460218	0.973839	0.178412	0.014363	-0.140002
60193	-0.780066	3.053396	8.222870	0.000447	-0.009914	-1.006691	0.973649	0.178476	0.022389	-0.140188
60194	-1.085622	2.680547	8.022584	-0.251476	-0.220013	-1.291417	0.973131	0.179285	0.031489	-0.141004
60195	-1.701251	3.001359	8.242106	-0.569743	0.108693	-0.896707	0.972305	0.179960	0.042893	-0.142822
60196	-2.475513	2.987807	8.284485	-1.105601	0.255263	-0.735433	0.971709	0.178915	0.054386	-0.144270
60197	-1.588199	2.842994	8.255695	-0.105556	-0.100076	-0.939283	0.971167	0.177276	0.064861	-0.145608
60198	-1.492588	2.192984	8.275850	-0.007860	-0.716608	-1.151911	0.970240	0.175910	0.077270	-0.147375
60199	-2.414260	2.181154	7.934169	-0.689623	-0.384747	-1.274021	0.968591	0.175939	0.090698	-0.150504
60200	-3.170726	3.221374	8.068735	-0.781858	0.658118	-0.621197	0.966766	0.174792	0.106293	-0.153342
60201	-3.846344	2.985845	7.971826	-1.216646	0.643494	-0.573716	0.965237	0.172459	0.121407	-0.154385
60202	-2.729735	2.576162	8.037158	-0.040562	-0.039752	-0.942808	0.963417	0.170494	0.136248	-0.155550
60203	-3.087189	1.261835	8.467915	-0.451016	-1.307121	-0.817741	0.960722	0.169859	0.152465	-0.157850
60204	-4.737336	1.099965	8.099659	-1.781588	-0.940286	-0.582853	0.957004	0.170449	0.169085	-0.162788
60205	-5.318299	2.268667	7.999758	-1.557230	0.236844	-0.069214	0.953002	0.170210	0.186458	-0.167480
60206	-5.131334	2.012374	7.573787	-1.283503	0.069742	-0.534697	0.948815	0.171557	0.203378	-0.170165
60207	-4.293945	2.271606	7.558078	-0.144837	-0.014359	-0.829871	0.943366	0.175978	0.221681	-0.173061
60208	-5.412864	2.097086	7.627587	-0.788854	-0.056541	-0.260771	0.937346	0.180114	0.240222	-0.176733
60209	-6.358574	1.826781	7.281447	-1.446997	-0.029341	-0.082285	0.931202	0.182133	0.258671	-0.181053
60210	-7.428817	1.487543	7.582064	-1.937863	-0.298417	0.724325	0.924606	0.184553	0.276919	-0.185362
60211	-7.729736	1.952578	7.322682	-1.680947	0.147349	0.879354	0.916942	0.190404	0.294811	-0.189867
60212	-7.002350	3.214392	7.191643	-0.212151	0.919816	0.683818	0.908420	0.197433	0.312994	-0.194496
60213	-6.851994	3.132241	7.320117	0.320468	0.557408	0.671372	0.899985	0.202572	0.330960	-0.198637
60214	-7.366874	1.973851	6.940546	-0.405092	-0.254664	0.487508	0.891618	0.204389	0.349499	-0.202712
60215	-9.611570	1.547029	6.737931	-1.797315	-0.124547	1.888143	0.882890	0.205160	0.367900	-0.207521
60216	-9.811489	1.765831	6.442288	-1.514408	0.135294	1.958283	0.873444	0.208357	0.385257	-0.212744
60217	-8.809018	2.281356	5.419260	-0.800220	0.736797	0.721686	0.863233	0.214205	0.401761	-0.218019
60218	-7.790951	2.224624	5.339802	0.090952	0.345038	-0.116311	0.852102	0.220965	0.418685	-0.223155
60219	-8.297227	1.844636	5.183970	-0.111714	0.049941	0.141669	0.840317	0.225693	0.436576	-0.228759
60220	-11.164317	2.091644	5.208288	-0.962579	0.611860	2.629936	0.828644	0.228579	0.453491	-0.235469
60221	-11.432602	2.836258	5.512309	0.055605	0.924340	3.158616	0.817544	0.230776	0.468943	-0.241780
60222	-10.372596	2.098643	4.844123	0.091252	0.429666	1.817054	0.806140	0.234396	0.483767	-0.247319
60223	-9.404086	1.707863	3.977219	0.057675	0.344435	0.533161	0.793936	0.240086	0.497926	-0.253168
60224	-9.794329	2.077543	4.412410	0.828673	0.229309	1.094092	0.780746	0.245012	0.513220	-0.258863
60225	-10.347845	2.140246	4.822034	1.376218	-0.096243	1.719413	0.767536	0.249591	0.527529	-0.265153
60226	-10.290725	2.078898	4.768691	1.731940	-0.298176	1.582728	0.754022	0.253968	0.541288	-0.271954
60227	-10.310166	1.206722	4.226294	1.150750	-0.728514	1.311528	0.740582	0.258797	0.553919	-0.278812
60228	-10.782574	0.230714	3.888796	0.477232	-1.295198	1.568137	0.727496	0.264925	0.564767	-0.285662
60229	-11.196593	0.029902	3.195919	0.106142	-1.056271	1.782205	0.714516	0.271607	0.574085	-0.293467
60230	-10.693266	1.260956	3.017540	1.284355	-0.302628	1.290931	0.701370	0.278156	0.582588	-0.302159
60231	-10.009455	2.576947	3.571681	3.014544	-0.073923	0.698491	0.689610	0.282700	0.590832	-0.308928
60232	-9.528660	2.722806	3.997306	3.694722	-0.481897	0.202234	0.680646	0.284516	0.598589	-0.312191
60233	-9.537732	1.086627	3.078211	2.048458	-0.922646	0.014506	0.673542	0.285443	0.605405	-0.313604
60234	-9.699312	-0.558008	1.852950	0.155289	-1.094763	0.015663	0.666904	0.286937	0.611181	-0.315221
60235	-10.340797	-1.123570	1.135505	-0.619399	-0.919565	0.591759	0.660252	0.288899	0.615886	-0.318261
60236	-10.541796	0.238885	1.245561	0.642920	-0.182169	0.784007	0.654433	0.290878	0.618806	-0.322781
60237	-10.449254	1.541786	1.597495	2.006254	0.315602	0.674936	0.649801	0.292020	0.620929	-0.327001
60238	-10.326384	1.837205	1.787530	2.451611	0.324669	0.535667	0.646687	0.292362	0.622375	-0.330104
60239	-9.992236	0.722347	1.172647	1.251727	0.113804	0.195398	0.644840	0.293039	0.622639	-0.332612
60240	-9.812983	-0.052768	0.715054	0.390288	-0.001694	0.018707	0.642873	0.294611	0.622730	-0.334851
60241	-10.611832	-0.561191	0.556496	-0.089445	-0.139451	0.827243	0.640750	0.297531	0.622070	-0.337555
60242	-10.794158	0.094923	1.115711	0.770394	-0.199627	1.010172	0.639216	0.301209	0.619887	-0.341198
60243	-10.661761	0.665229	1.554311	1.464604	-0.236564	0.879854	0.638295	0.304904	0.617000	-0.344853
60244	-10.234890	0.206950	1.232419	0.860899	-0.253558	0.459068	0.638295	0.308274	0.613250	-0.348526
60245	-9.214403	-0.307058	0.757733	0.121559	-0.192872	-0.564907	0.638542	0.311200	0.609558	-0.351935
60246	-8.843338	-0.734852	0.221542	-0.565140	0.013346	-0.954127	0.638134	0.313761	0.607097	-0.354643
60247	-8.939803	-0.821938	0.476551	-0.523685	-0.221029	-0.840531	0.637924	0.315788	0.604821	-0.357103
60248	-9.342733	-0.885911	0.882275	-0.386324	-0.541570	-0.410175	0.637705	0.317418	0.602481	-0.359992
60249	-9.664407	-0.600086	0.880417	-0.170079	-0.327612	-0.096742	0.637539	0.318479	0.600152	-0.363226
60250	-9.738896	-0.479786	1.053596	0.008704	-0.360499	-0.011865	0.637582	0.318759	0.598106	-0.366268
60251	-9.767371	-0.599349	0.953022	-0.157495	-0.284613	0.013957	0.638066	0.318347	0.596146	-0.368966
60252	-9.567424	-0.460259	0.997409	-0.025635	-0.212089	-0.184793	0.638704	0.317895	0.593990	-0.371720
60253	-9.666420	-0.214970	1.207274	0.275564	-0.198199	-0.074726	0.639429	0.317430	0.591771	-0.374400
60254	-9.948993	-0.469598	1.240575	0.050118	-0.267998	0.220622	0.640530	0.316601	0.589402	-0.376949
60255	-9.841000	-0.163092	1.210447	0.275106	-0.031609	0.099929	0.642211	0.315322	0.587052	-0.378823
60256	-9.789410	0.197458	1.188403	0.547176	0.227150	0.032743	0.644168	0.313606	0.585241	-0.379726
60257	-9.949697	0.402054	1.141747	0.664456	0.446334	0.178342	0.646549	0.311601	0.583734	-0.379649
60258	-10.107461	0.260921	1.285847	0.577941	0.322589	0.358049	0.649148	0.309373	0.582507	-0.378921
60259	-10.219873	-0.035810	1.279098	0.278163	0.237294	0.480475	0.652270	0.306667	0.581508	-0.377291
60260	-10.252687	-0.257195	1.258459	0.034663	0.187752	0.518368	0.655280	0.304291	0.580337	-0.375799
60261	-10.183985	-0.068905	1.163498	0.104251	0.396299	0.429571	0.657962	0.302298	0.579260	-0.374378
60262	-10.059825	0.565485	1.176506	0.605276	0.738985	0.286384	0.660598	0.301198	0.577619	-0.373158
60263	-9.834551	1.074635	1.556817	1.193361	0.689430	0.106847	0.663168	0.300597	0.575981	-0.371612
60264	-9.756942	0.577195	1.962873	0.936061	0.096408	0.111932	0.666381	0.299378	0.574474	-0.369172
60265	-9.496181	-0.700246	2.097130	-0.106400	-0.720430	-0.089772	0.670131	0.297329	0.572917	-0.366451
60266	-9.756514	-1.075109	1.723412	-0.705393	-0.552014	0.112675	0.673536	0.296183	0.570602	-0.364744
60267	-9.794591	-0.434122	1.687560	-0.264486	-0.134452	0.131247	0.676002	0.296554	0.567745	-0.364337
60268	-9.630908	-0.010045	2.174375	0.300464	-0.297079	0.051564	0.678414	0.296714	0.565074	-0.363877
60269	-9.387962	-0.308626	2.514912	0.197906	-0.746330	-0.119531	0.681496	0.295509	0.562709	-0.362762
60270	-9.287556	-0.758530	2.123751	-0.435808	-0.654103	-0.287655	0.684882	0.293342	0.560722	-0.361217
60271	-9.596597	-0.484746	1.609472	-0.580570	0.002115	-0.087325	0.687055	0.293156	0.558338	-0.360933
60272	-9.586566	0.149448	1.906123	0.055482	0.139749	-0.038484	0.688391	0.294018	0.555981	-0.361326
60273	-9.667554	0.313396	2.374786	0.391794	-0.118640	0.138778	0.689839	0.294301	0.554197	-0.361074
60274	-9.642949	0.138655	2.942997	0.513720	-0.663193	0.235344	0.692160	0.293729	0.552456	-0.359765
60275	-9.505699	-0.138154	2.569371	0.047334	-0.515973	0.021454	0.695127	0.292023	0.550983	-0.357685
60276	-9.690051	0.089487	2.048931	-0.130078	0.081074	0.090821	0.697080	0.292258	0.549231	-0.356385
60277	-9.800354	0.281392	2.142228	0.009257	0.134625	0.222093	0.698218	0.293815	0.547260	-0.355908
60278	-9.805822	0.173035	2.475360	0.049521	-0.204079	0.300035	0.699034	0.295834	0.545364	-0.355545
60279	-9.503148	0.048767	2.777679	0.104855	-0.585727	0.070297	0.699828	0.298010	0.543459	-0.355082
60280	-8.990693	0.192618	2.917032	0.327860	-0.724304	-0.392157	0.700880	0.299717	0.542142	-0.353579
60281	-9.618996	0.727299	1.869328	0.040563	0.497834	0.000490	0.701768	0.302925	0.540138	-0.352149
60282	-9.522420	1.277731	2.681800	0.881103	0.089691	0.122912	0.702456	0.306634	0.538020	-0.350808
60283	-9.317491	0.622834	2.984041	0.472078	-0.600742	-0.039056	0.704396	0.307977	0.537220	-0.346944
60284	-9.922063	0.878261	0.950403	-0.595191	1.236418	0.098826	0.705851	0.311301	0.535389	-0.343839
60285	-9.624532	1.946142	1.721660	0.674927	1.094504	0.073090	0.706054	0.316402	0.533931	-0.341021
60286	-9.529168	1.451199	2.703610	0.744216	-0.086856	0.170206	0.706853	0.319762	0.533801	-0.336404
60287	-8.954364	0.931558	1.964357	-0.015940	0.057873	-0.598422	0.707923	0.321945	0.534900	-0.330270
60288	-9.323183	1.118145	1.856516	-0.036651	0.197977	-0.243096	0.707982	0.324614	0.536759	-0.324464
60289	-9.574846	1.262776	2.303995	0.240285	-0.151437	0.111994	0.708738	0.326162	0.538233	-0.318769
60290	-9.166913	0.777943	1.940270	-0.296213	-0.249929	-0.418458	0.709910	0.326970	0.539029	-0.313952
60291	-9.233991	0.195745	2.187565	-0.668461	-0.840953	-0.382099	0.710930	0.327503	0.539916	-0.309533
60292	-9.494812	0.369661	2.034713	-0.699168	-0.644356	-0.141912	0.711715	0.328389	0.540184	-0.306306
60293	-9.525989	0.917357	1.884882	-0.380997	-0.242743	-0.069253	0.711898	0.329845	0.540329	-0.304054
60294	-9.519610	1.106598	2.150181	-0.097314	-0.383750	0.001280	0.711790	0.331128	0.540556	-0.302506
60295	-9.619691	0.984769	2.096696	-0.254031	-0.440167	0.068912	0.711594	0.331751	0.541272	-0.300997
60296	-9.743414	0.894315	2.231316	-0.274476	-0.616498	0.200167	0.711388	0.331813	0.541960	-0.300178
60297	-9.656677	0.801467	2.181950	-0.348299	-0.646316	0.092645	0.711403	0.331331	0.542474	-0.299745
60298	-9.605144	0.994321	1.968202	-0.301759	-0.360197	0.031117	0.711533	0.331008	0.542356	-0.300008
60299	-9.429818	1.303603	1.663372	-0.187919	0.065045	-0.151005	0.711163	0.331295	0.542069	-0.301084
60300	-9.487507	1.456372	1.809269	0.008851	0.048883	-0.045150	0.710591	0.331790	0.541755	-0.302452
60301	-9.315118	1.416218	1.965229	0.115333	-0.108530	-0.189064	0.710068	0.331808	0.542090	-0.303061
60302	-9.542282	1.475780	1.324244	-0.236610	0.457146	-0.080179	0.709533	0.331786	0.542533	-0.303544
60303	-9.445170	2.235434	1.408023	0.452693	0.827601	-0.050463	0.708588	0.332424	0.542886	-0.304422
60304	-9.432117	2.067829	1.605243	0.451691	0.560803	-0.050567	0.707907	0.332527	0.543591	-0.304636
60305	-9.288802	1.665839	1.643649	0.205564	0.272850	-0.239722	0.707162	0.332391	0.544835	-0.304292
60306	-9.271028	1.548000	1.646952	0.145352	0.179581	-0.272918	0.706056	0.332311	0.546816	-0.303394
60307	-9.491738	1.312329	1.514497	-0.131371	0.133950	-0.113531	0.704959	0.332140	0.548854	-0.302449
60308	-9.798937	1.343902	1.669089	-0.050037	0.021351	0.217666	0.704065	0.331735	0.550800	-0.301435
60309	-10.145588	1.303454	1.630274	-0.145143	0.029623	0.544325	0.703316	0.331250	0.552342	-0.300895
60310	-10.326758	1.438221	1.512567	-0.111906	0.204839	0.720294	0.702396	0.330893	0.553501	-0.301306
60311	-10.239273	1.227102	1.770266	-0.077273	-0.127218	0.649628	0.701494	0.330031	0.554545	-0.302432
60312	-9.828298	0.577522	2.286677	-0.172437	-0.929658	0.250295	0.700905	0.328130	0.555733	-0.303684
60313	-9.480842	-0.075207	2.755646	-0.304498	-1.677596	-0.087557	0.700588	0.325201	0.557098	-0.305063
60314	-9.053637	-0.740532	2.880394	-0.619112	-2.151173	-0.549756	0.700911	0.320377	0.559091	-0.305777
60315	-9.493392	-0.607676	2.073386	-1.012052	-1.334376	-0.221689	0.700741	0.317151	0.559444	-0.308870
60316	-9.252891	0.227344	1.998829	-0.319985	-0.719095	-0.376422	0.699193	0.317557	0.557627	-0.315179
60317	-9.448143	0.406868	2.827094	0.287873	-1.198974	-0.019592	0.696903	0.318491	0.556145	-0.321858
60318	-9.544254	-0.639296	3.285964	-0.277053	-2.101601	0.076937	0.695417	0.316455	0.555656	-0.327868
60319	-9.181368	-1.366487	2.608910	-1.134229	-1.904147	-0.428808	0.694432	0.312260	0.555238	-0.334618
60320	-9.518841	-1.132390	1.558452	-1.525759	-0.740280	-0.250196	0.692197	0.310384	0.553055	-0.344465
60321	-9.735215	0.103817	1.505055	-0.517341	0.166814	0.023649	0.688220	0.312724	0.548832	-0.356849
60322	-9.935959	0.658328	2.913473	0.702462	-0.562960	0.523364	0.683808	0.315732	0.544415	-0.369232
60323	-9.176513	0.311850	3.682493	0.934624	-1.417937	-0.066849	0.680616	0.315095	0.541880	-0.379267
60324	-9.123825	0.214100	2.491941	0.322646	-0.375523	-0.365278	0.678095	0.313157	0.540574	-0.387169
60325	-9.725419	0.623788	1.476845	0.184200	0.884824	0.002413	0.674784	0.313361	0.538694	-0.395324
60326	-9.792397	0.703995	1.247194	0.211714	1.197538	0.008844	0.671158	0.314244	0.537106	-0.402883
60327	-9.782633	-0.216611	1.293778	-0.498691	0.780423	0.013910	0.667348	0.314520	0.536106	-0.410262
60328	-9.510364	-0.690292	0.895772	-0.993749	0.919185	-0.331524	0.663401	0.314780	0.534942	-0.417911
60329	-9.242928	0.350117	0.346510	-0.199904	1.855768	-0.746829	0.658523	0.317071	0.533781	-0.425313
60330	-9.488823	1.999191	0.016757	1.224730	2.903182	-0.641792	0.653075	0.320798	0.533913	-0.430719
60331	-9.978488	3.826583	0.219325	3.030226	3.532575	-0.189871	0.649102	0.323271	0.536236	-0.431988
60332	-10.123214	3.859783	0.229677	3.114278	3.487667	-0.036854	0.647218	0.323764	0.541077	-0.428394
60333	-10.093696	3.382721	0.122601	2.653032	3.289087	-0.041149	0.646778	0.323619	0.547447	-0.421011
60334	-10.286367	2.320280	0.142131	1.680797	2.732760	0.233128	0.647085	0.323653	0.554540	-0.411114
60335	-10.357666	1.423667	0.399826	0.962094	1.962462	0.419046	0.647873	0.324283	0.561506	-0.399765
60336	-10.436998	0.519551	0.979092	0.392033	0.865011	0.639788	0.648800	0.325828	0.567641	-0.388172
60337	-10.311161	-0.349510	1.515554	-0.138757	-0.232513	0.611437	0.649728	0.328025	0.572842	-0.376968
60338	-10.182861	-0.604799	1.914335	-0.187811	-0.912387	0.524151	0.650397	0.330947	0.577043	-0.366715
60339	-10.220411	-0.903776	2.185509	-0.344598	-1.482105	0.566695	0.651052	0.334181	0.580556	-0.356944
60340	-10.429222	-1.093059	2.350931	-0.468944	-1.890619	0.755803	0.651564	0.337342	0.583772	-0.347673
60341	-10.323879	-1.408393	2.190897	-0.844025	-2.095497	0.592138	0.652118	0.340210	0.586113	-0.339810
60342	-9.976862	-1.661137	2.157538	-1.077514	-2.357271	0.198949	0.652281	0.343111	0.587783	-0.333640
60343	-9.953778	-1.799622	2.122863	-1.233919	-2.518437	0.135015	0.651694	0.346091	0.589073	-0.329407
60344	-9.926747	-1.270872	1.969772	-0.884313	-2.193258	0.109135	0.650638	0.348806	0.589848	-0.327237
60345	-9.530268	-0.761132	1.598633	-0.627379	-1.668219	-0.284612	0.649558	0.350887	0.590216	-0.326492
60346	-9.390432	-0.575387	1.426158	-0.549623	-1.457851	-0.425582	0.648226	0.352502	0.590537	-0.326820
60347	-9.420768	-0.439184	1.370951	-0.457612	-1.353291	-0.390244	0.646923	0.353599	0.590534	-0.328220
60348	-9.452380	-0.353475	1.266338	-0.431593	-1.213822	-0.356664	0.645860	0.354251	0.590053	-0.330467
60349	-9.591720	-0.058197	1.156613	-0.238484	-0.942704	-0.200373	0.644956	0.354592	0.589235	-0.333315
60350	-9.650749	0.002724	1.212475	-0.149239	-0.921671	-0.130997	0.644205	0.354491	0.588112	-0.336837
60351	-9.596207	-0.053458	1.420207	-0.071829	-1.076149	-0.171969	0.643615	0.353930	0.586616	-0.341139
60352	-9.628857	-0.178342	1.438058	-0.159341	-1.083704	-0.137236	0.643148	0.353177	0.584533	-0.346334
60353	-9.813205	-0.267456	1.558403	-0.179712	-1.140292	0.059792	0.642670	0.352509	0.581904	-0.352279
60354	-10.039488	-0.395510	1.822784	-0.173535	-1.321936	0.311128	0.642370	0.351889	0.578504	-0.358981
60355	-10.340845	-0.395334	2.151902	-0.045093	-1.470327	0.654147	0.642282	0.351441	0.573977	-0.366762
60356	-10.346852	-0.442209	2.366218	-0.011929	-1.531480	0.699400	0.642254	0.351343	0.567886	-0.376261
60357	-10.338017	-0.206658	2.847671	0.379991	-1.675835	0.773663	0.642226	0.350957	0.561011	-0.386836
60358	-10.734588	-0.128862	3.090839	0.481516	-1.622904	1.229582	0.642811	0.350091	0.553292	-0.397615
60359	-10.795697	-0.013817	3.098667	0.514098	-1.344866	1.325996	0.644404	0.349035	0.543502	-0.409298
60360	-10.608477	0.166848	3.376190	0.721287	-1.287952	1.222738	0.646354	0.347005	0.533195	-0.421328
60361	-11.020004	-0.157053	3.288294	0.275939	-0.973781	1.643515	0.649093	0.343591	0.522324	-0.433360
60362	-11.083010	-0.639960	3.399562	-0.219922	-0.900481	1.760048	0.652364	0.339153	0.510232	-0.446161
60363	-11.080180	-0.740496	3.779351	-0.267981	-0.889769	1.880224	0.655753	0.333804	0.497336	-0.459586
60364	-10.945485	-0.477515	3.956903	-0.039886	-0.568650	1.821184	0.659377	0.327417	0.483265	-0.473789
60365	-10.800583	-0.236351	4.191198	0.187755	-0.290833	1.769045	0.663296	0.320022	0.468463	-0.488024
60366	-10.564016	-0.149900	4.545396	0.312801	-0.190733	1.682010	0.667770	0.311337	0.453458	-0.501525
60367	-10.288789	-0.478452	4.836604	0.025141	-0.166429	1.564132	0.672706	0.301431	0.438273	-0.514318
60368	-10.425199	-0.936797	5.245838	-0.391779	-0.085522	1.887633	0.677887	0.290517	0.423059	-0.526393
60369	-10.336686	-1.423722	5.573865	-0.851452	-0.005759	1.985283	0.682633	0.279940	0.406631	-0.538793
60370	-9.846438	-1.536162	5.774467	-0.972855	0.088209	1.662407	0.686713	0.270395	0.388703	-0.551564
60371	-9.386953	-1.171974	6.166288	-0.613405	0.133651	1.460913	0.690142	0.261555	0.369895	-0.564332
60372	-9.276436	-0.719191	6.599201	-0.202417	0.344909	1.586251	0.693123	0.252599	0.350801	-0.576813
60373	-8.964269	-0.789733	6.890275	-0.317669	0.433425	1.507430	0.695972	0.243083	0.331338	-0.588854
60374	-9.028346	-1.081677	7.175619	-0.687873	0.739496	1.725320	0.698207	0.233634	0.311732	-0.600621
60375	-8.753317	-1.339347	7.326389	-1.024514	0.935068	1.595245	0.699864	0.224457	0.291352	-0.612310
60376	-8.194415	-1.218566	7.217675	-1.011008	1.143324	1.067361	0.700802	0.216209	0.270011	-0.623878
60377	-7.705031	-0.366505	7.357333	-0.260016	1.278794	0.766008	0.701299	0.208592	0.248263	-0.634850
60378	-7.243026	0.117162	7.750716	0.136096	1.187096	0.727811	0.701881	0.200706	0.227014	-0.644627
60379	-6.972511	0.233845	8.030568	0.142720	1.265781	0.747600	0.702572	0.192310	0.206386	-0.653310
60380	-6.516671	0.236285	7.984342	0.037588	1.351309	0.406301	0.703356	0.183486	0.185903	-0.661108
60381	-5.941806	0.255813	7.973679	-0.036722	1.290586	0.049720	0.704115	0.174390	0.165683	-0.668101
60382	-5.708711	0.232920	8.329524	-0.171460	1.336317	0.196975	0.704449	0.165331	0.145694	-0.674678
60383	-5.604747	0.269337	8.547464	-0.263852	1.570320	0.286458	0.704595	0.156798	0.125256	-0.680640
60384	-4.567409	0.484727	8.564529	-0.147729	1.020352	-0.149877	0.704588	0.149045	0.104819	-0.685824
60385	-3.959090	0.568818	8.566545	-0.190204	0.828391	-0.397361	0.704387	0.141862	0.084887	-0.690296
60386	-3.660919	0.524521	8.692853	-0.394410	0.867669	-0.414741	0.703991	0.135457	0.064273	-0.694202
60387	-3.324746	0.588426	8.770101	-0.507476	0.880249	-0.470891	0.703247	0.130003	0.043239	-0.697620
60388	-3.058197	0.794095	8.532306	-0.456065	1.023113	-0.784062	0.702098	0.125106	0.021844	-0.700663
60389	-2.317332	1.442958	8.506096	0.004014	0.621055	-0.901555	0.700655	0.121108	0.000363	-0.703146
60390	-2.092791	1.782016	8.814484	0.075884	0.655153	-0.603807	0.699180	0.117539	-0.020660	-0.704915
60391	-1.658623	1.976091	8.733771	0.071482	0.542898	-0.722950	0.697632	0.113985	-0.041447	-0.706115
60392	-1.429392	2.154610	8.516244	0.088778	0.632823	-0.936133	0.696077	0.110422	-0.061552	-0.706749
60393	-1.236972	2.193917	8.456741	-0.053414	0.730011	-1.019815	0.694377	0.106909	-0.080862	-0.707016
60394	-0.943214	2.574608	8.304909	0.169582	0.706937	-1.097594	0.692429	0.103147	-0.099247	-0.707144
60395	-0.445222	2.582527	8.121658	0.056489	0.469172	-1.292215	0.690521	0.099133	-0.116462	-0.706958
60396	-0.148070	2.520579	7.739246	-0.044674	0.402225	-1.682412	0.688391	0.095763	-0.132963	-0.706589
60397	0.148067	3.037262	7.346742	0.417457	0.288893	-1.878021	0.686172	0.092906	-0.148295	-0.706077
60398	0.286106	3.242187	7.457503	0.438641	0.349175	-1.695442	0.683970	0.089677	-0.161791	-0.705668
60399	0.658653	2.843254	7.515221	-0.085173	0.166130	-1.753017	0.681570	0.086874	-0.174075	-0.705417
60400	0.841440	2.843639	7.759924	-0.295239	0.173214	-1.512645	0.678985	0.085190	-0.185213	-0.705278
60401	1.276621	3.310077	7.207159	0.212689	-0.210424	-1.785346	0.676820	0.084179	-0.194373	-0.705016
60402	1.020079	3.731219	7.142291	0.551252	0.132042	-1.710081	0.675355	0.083757	-0.202213	-0.704266
60403	1.145614	4.465415	7.219812	1.103264	0.104325	-1.318630	0.674431	0.083446	-0.208571	-0.703333
60404	1.754425	4.575577	7.469329	1.002001	-0.376778	-0.943734	0.674054	0.082205	-0.212702	-0.702604
60405	1.978345	4.498179	7.625543	0.820083	-0.512993	-0.792683	0.674553	0.081864	-0.215172	-0.701411
60406	1.776513	4.430899	7.880989	0.652774	-0.230804	-0.624684	0.675360	0.081387	-0.216495	-0.700282
60407	1.856162	4.155243	7.977794	0.358842	-0.269647	-0.639080	0.676314	0.080611	-0.216538	-0.699437
60408	1.879028	3.226136	8.416149	-0.657223	-0.210721	-0.631516	0.677107	0.080577	-0.216156	-0.698791
60409	1.732187	2.779743	8.896316	-1.259552	0.013123	-0.416669	0.677447	0.082060	-0.216734	-0.698110
60410	1.568053	3.681345	8.927295	-0.482291	0.179233	-0.043209	0.677468	0.084609	-0.217980	-0.697398
60411	1.489848	4.740205	9.059695	0.384205	0.280258	0.509182	0.677580	0.086370	-0.218389	-0.696945
60412	1.691204	5.205433	9.052403	0.792010	0.073470	0.735769	0.678272	0.086098	-0.217028	-0.696730
60413	1.647223	4.573824	9.058182	0.264349	0.097820	0.463698	0.679374	0.084427	-0.214659	-0.696595
60414	1.805196	3.835993	8.939648	-0.304190	-0.099599	0.076099	0.680455	0.082691	-0.212150	-0.696517
60415	1.852595	3.695560	8.991865	-0.401493	-0.152439	0.074590	0.681425	0.081759	-0.209895	-0.696362
60416	1.888059	3.717384	9.001828	-0.345412	-0.201964	0.099748	0.682434	0.081224	-0.207987	-0.696009
60417	1.772047	3.411072	9.095030	-0.629227	-0.094688	0.040748	0.683195	0.081396	-0.206709	-0.695622
60418	1.546696	3.584120	8.947859	-0.395519	0.086251	-0.058793	0.683643	0.082527	-0.206236	-0.695190
60419	1.440277	4.184658	9.053528	0.106412	0.201334	0.262045	0.684081	0.083823	-0.205825	-0.694725
60420	1.495992	4.623222	9.395034	0.365253	0.193638	0.756508	0.684752	0.084326	-0.204812	-0.694302
60421	1.398439	4.296585	9.526417	0.040193	0.286379	0.727006	0.685659	0.083913	-0.203022	-0.693983
60422	1.209762	3.760558	9.353273	-0.335727	0.416785	0.326467	0.686559	0.083102	-0.201197	-0.693722
60423	1.246757	3.448736	9.128600	-0.502637	0.326357	0.006697	0.687320	0.082655	-0.200059	-0.693351
60424	1.267609	3.440771	9.187506	-0.519463	0.306967	0.061113	0.687835	0.082846	-0.199508	-0.692976
60425	1.198963	3.738480	9.259595	-0.272207	0.384535	0.233798	0.688143	0.083522	-0.199304	-0.692647
60426	1.343500	3.943224	9.295949	-0.109099	0.243883	0.370499	0.688484	0.084016	-0.199101	-0.692307
60427	1.365374	4.043757	9.190717	0.024659	0.200709	0.318679	0.688904	0.084226	-0.198606	-0.692006
60428	1.245568	3.899326	9.257993	-0.121647	0.319306	0.304123	0.689332	0.084019	-0.198002	-0.691778
60429	1.413997	3.679187	9.404616	-0.375164	0.166059	0.376241	0.689685	0.083735	-0.197497	-0.691606
60430	1.329501	3.445808	9.324805	-0.545041	0.228019	0.199509	0.689961	0.083559	-0.197114	-0.691461
60431	1.307303	3.715649	9.265232	-0.266485	0.245113	0.248551	0.690210	0.083656	-0.196738	-0.691308
60432	1.393995	4.048446	9.166721	0.082106	0.148750	0.303291	0.690572	0.083640	-0.196169	-0.691109
60433	1.373867	3.865434	9.127151	-0.056053	0.152160	0.192694	0.691041	0.083174	-0.195375	-0.690922
60434	1.320044	3.472149	9.214976	-0.434010	0.201889	0.111272	0.691425	0.082905	-0.194672	-0.690768
60435	1.408120	3.360395	9.251318	-0.545288	0.110310	0.114670	0.691667	0.083151	-0.194309	-0.690599
60436	1.326137	3.721075	9.240846	-0.208934	0.193033	0.233075	0.691921	0.083791	-0.194157	-0.690310
60437	1.434586	4.051234	9.393088	0.027905	0.111115	0.516277	0.692188	0.084231	-0.193973	-0.690040
60438	1.514227	4.023956	9.318321	0.035436	0.011811	0.449612	0.692560	0.084164	-0.193125	-0.689913
60439	1.214755	3.403395	9.340216	-0.519376	0.279660	0.184830	0.692853	0.083809	-0.192045	-0.689963
60440	1.100735	3.269902	9.142620	-0.549513	0.348276	-0.062400	0.692980	0.084023	-0.191399	-0.689990
60441	1.252264	3.618885	9.043742	-0.194576	0.184527	0.004737	0.693086	0.084810	-0.191276	-0.689821
60442	1.415844	3.880318	9.240899	-0.042882	0.047497	0.309149	0.693274	0.085655	-0.191092	-0.689578
60443	1.083927	3.978747	9.303760	0.027647	0.373005	0.357138	0.693568	0.086245	-0.190371	-0.689408
60444	1.169240	4.017429	9.319427	0.065060	0.276822	0.398956	0.693887	0.086179	-0.189305	-0.689389
60445	1.282611	3.544823	9.369299	-0.369206	0.142165	0.278795	0.694330	0.085637	-0.187880	-0.689400
60446	1.277138	3.177692	9.404592	-0.701822	0.127565	0.170614	0.694681	0.085750	-0.187095	-0.689247
60447	1.247064	3.407218	9.349421	-0.466718	0.147242	0.204122	0.694836	0.086405	-0.186983	-0.689038
60448	1.269827	3.803755	9.461815	-0.151687	0.144681	0.461698	0.694950	0.087006	-0.186907	-0.688869
60449	1.318618	4.048049	9.436645	0.082834	0.092572	0.539137	0.695084	0.087104	-0.186299	-0.688886
60450	1.303433	3.848535	9.465468	-0.096316	0.096146	0.487151	0.695346	0.086534	-0.185282	-0.688967
60451	1.264106	3.288834	9.510648	-0.609349	0.115967	0.310654	0.695685	0.086084	-0.184552	-0.688878
60452	1.123363	3.455912	9.383282	-0.398555	0.241797	0.238876	0.695777	0.086439	-0.184659	-0.688711
60453	1.249902	3.831696	9.375856	-0.057010	0.127316	0.391790	0.695906	0.086763	-0.184822	-0.688497
60454	1.218724	3.782313	9.378350	-0.107810	0.154942	0.371074	0.696090	0.086974	-0.184808	-0.688288
60455	1.228937	3.693966	9.307690	-0.163629	0.129952	0.274190	0.696264	0.087086	-0.184687	-0.688130
60456	1.181041	3.589828	9.229031	-0.228087	0.160950	0.156205	0.696486	0.087159	-0.184532	-0.687938
60457	1.136268	3.778647	9.173688	-0.029393	0.202542	0.171497	0.696767	0.087239	-0.184243	-0.687721
60458	1.127270	3.671558	9.216709	-0.137541	0.208950	0.169106	0.697091	0.087052	-0.183703	-0.687560
60459	1.162101	3.595892	9.262958	-0.216291	0.174099	0.187623	0.697374	0.086933	-0.183319	-0.687391
60460	1.286257	3.442803	9.366369	-0.391817	0.056849	0.241141	0.697631	0.086765	-0.183109	-0.687207
60461	1.156519	3.354014	9.301430	-0.444091	0.173221	0.130970	0.697750	0.086758	-0.183003	-0.687116
60462	1.206044	3.578786	9.131078	-0.172958	0.111402	0.066408	0.697831	0.086914	-0.183126	-0.686981
60463	1.122046	3.635011	9.219795	-0.156881	0.207069	0.157740	0.697998	0.087120	-0.183094	-0.686793
60464	1.215319	3.834406	9.295450	-0.007302	0.129600	0.314909	0.698188	0.087588	-0.183214	-0.686509
60465	1.274934	4.079359	9.152219	0.270588	0.058654	0.284494	0.698482	0.087753	-0.182897	-0.686274
60466	1.238144	3.930687	9.142212	0.148934	0.083248	0.213987	0.699018	0.087261	-0.182014	-0.686025
60467	1.265736	3.658822	9.041245	-0.041901	0.028210	0.022482	0.699852	0.086671	-0.180961	-0.685528
60468	1.322965	3.446820	8.761491	-0.116266	-0.076015	-0.306099	0.700816	0.086729	-0.180412	-0.684680
60469	1.369838	3.287669	8.518464	-0.179098	-0.166570	-0.582867	0.701955	0.088312	-0.180776	-0.683213
60470	1.162291	3.651728	8.543200	0.105562	0.047875	-0.450074	0.703082	0.091669	-0.182239	-0.681221
60471	1.168655	4.163804	8.417512	0.557727	0.039573	-0.365762	0.704498	0.095706	-0.184036	-0.678714
60472	1.233132	4.702215	8.309066	1.016237	-0.021122	-0.239902	0.706324	0.100460	-0.185755	-0.675655
60473	0.990295	5.183336	8.138840	1.438431	0.216946	-0.222501	0.708854	0.105253	-0.187036	-0.671912
60474	0.596540	5.341101	8.557543	1.307892	0.640983	0.186933	0.711611	0.110874	-0.188438	-0.667688
60475	0.756386	5.727642	8.697766	1.502180	0.502143	0.508139	0.714849	0.116891	-0.189577	-0.662864
60476	0.936449	5.943336	8.512428	1.691922	0.306285	0.468587	0.718938	0.122395	-0.189939	-0.657321
60477	0.880266	5.747969	8.264789	1.554267	0.306101	0.167846	0.724058	0.127262	-0.189060	-0.650999
60478	0.688632	5.727953	8.145244	1.520604	0.468665	0.041069	0.729895	0.132463	-0.187720	-0.643792
60479	0.424666	5.827703	8.361257	1.429885	0.730969	0.260737	0.736479	0.137995	-0.185785	-0.635641
60480	0.540927	5.707734	8.521333	1.216868	0.578779	0.369062	0.743831	0.143043	-0.183352	-0.626607
60481	0.512122	5.559369	8.439277	1.092388	0.561768	0.231282	0.752035	0.147172	-0.179914	-0.616777
60482	0.120138	5.524240	8.251290	1.062769	0.922237	0.017642	0.760777	0.151492	-0.175723	-0.606127
60483	-0.079725	5.884877	8.424899	1.236931	1.176828	0.321517	0.770066	0.155589	-0.171116	-0.594567
60484	-0.040059	5.573409	8.912070	0.755519	1.025260	0.621269	0.779958	0.158840	-0.165302	-0.582332
60485	-0.116612	5.331764	8.862879	0.573820	1.015306	0.465041	0.790428	0.161307	-0.158767	-0.569207
60486	-0.438498	5.579538	8.787975	0.761011	1.393992	0.484372	0.801437	0.162279	-0.151076	-0.555464
60487	-0.673138	5.355249	8.813568	0.546219	1.548657	0.390919	0.812917	0.161609	-0.142566	-0.541040
60488	-0.655998	5.040627	9.052689	0.280337	1.411302	0.469247	0.824818	0.159938	-0.133334	-0.525659
60489	-0.457131	4.803135	9.323021	0.170740	1.126869	0.622711	0.836991	0.157649	-0.123875	-0.509164
60490	-0.788596	4.438553	9.300931	-0.148929	1.296715	0.440365	0.849108	0.154614	-0.114220	-0.492000
60491	-1.337930	3.755818	9.331775	-0.864095	1.468529	0.191015	0.860885	0.151019	-0.104793	-0.474435
60492	-1.248096	3.500618	9.505604	-0.973028	1.240620	0.271055	0.872121	0.147749	-0.096149	-0.456433
60493	-0.897228	3.270124	9.470661	-0.844942	0.836493	0.176193	0.883033	0.145100	-0.087959	-0.437563
60494	-0.888038	3.286453	9.526561	-0.752948	0.822155	0.242223	0.893384	0.143499	-0.079677	-0.418241
60495	-1.507726	3.239060	9.885164	-1.207858	1.173972	0.562461	0.903157	0.142390	-0.072127	-0.398535
60496	-1.369025	3.288397	9.852441	-1.020212	1.081928	0.557787	0.912414	0.140847	-0.065168	-0.378702
60497	-1.575678	3.085472	9.706655	-1.215063	1.104180	0.362091	0.921237	0.138734	-0.057792	-0.358798
60498	-1.978101	2.516172	9.349642	-1.752553	1.022139	-0.140912	0.929592	0.136716	-0.050948	-0.338484
60499	-1.870301	2.191156	9.542364	-1.865503	0.609090	-0.040065	0.937097	0.136525	-0.044940	-0.318104
60500	-1.405977	2.432433	10.148771	-1.417499	0.286623	0.617979	0.943850	0.137518	-0.038815	-0.297876
60501	-1.270859	2.304654	9.921255	-1.284358	0.093387	0.370577	0.950259	0.137397	-0.032563	-0.277615
60502	-1.902807	2.256959	9.624765	-1.743622	0.401414	0.094310	0.956263	0.137003	-0.026281	-0.257101
60503	-2.365353	2.375465	9.515465	-2.037291	0.667723	0.045528	0.961643	0.137665	-0.020505	-0.236368
60504	-2.089243	2.729361	10.223211	-1.682081	0.550185	0.826641	0.966445	0.138949	-0.014797	-0.215540
60505	-1.182498	2.514676	10.269404	-0.911054	-0.104474	0.786426	0.970953	0.138950	-0.009407	-0.194560
60506	-1.672399	2.527272	10.356004	-1.312015	0.021696	0.897520	0.974914	0.138373	-0.004114	-0.174295
60507	-2.599688	2.639270	9.964047	-2.089662	0.487451	0.598925	0.978463	0.137176	0.000286	-0.154251
60508	-2.506661	1.448176	9.314873	-2.305045	-0.536487	-0.349851	0.981293	0.137648	0.004258	-0.134535
60509	-1.245439	1.838231	9.615759	-0.945769	-0.701668	-0.014482	0.983148	0.141370	0.008824	-0.115572
60510	-0.600805	2.758736	10.335957	-0.058269	-0.297636	0.897618	0.984601	0.144893	0.014377	-0.096751
60511	-1.288543	2.710990	10.526112	-0.673875	-0.336002	1.107077	0.986157	0.144982	0.019951	-0.077955
60512	-2.213126	2.131827	10.545732	-1.602751	-0.797720	1.024710	0.987420	0.144008	0.024814	-0.060391
60513	-2.089443	1.723869	10.066534	-1.481629	-1.107253	0.446500	0.988278	0.143482	0.028047	-0.043956
60514	-0.771617	1.781946	10.052741	-0.112100	-1.187488	0.356154	0.988666	0.144045	0.031147	-0.028658
60515	-1.059888	2.169699	10.564074	-0.290825	-0.976962	0.975792	0.988855	0.144162	0.034468	-0.013932
60516	-1.395437	1.947601	9.832905	-0.637072	-0.991545	0.239041	0.988924	0.143749	0.036962	-0.000243
60517	-1.004339	1.558303	9.189947	-0.259578	-1.195166	-0.517737	0.988685	0.144214	0.039543	0.011887
60518	-0.978978	1.710172	9.180855	-0.195197	-1.082827	-0.487440	0.988121	0.146183	0.041870	0.022243
60519	-0.947577	1.887541	9.354534	-0.116385	-1.019342	-0.277753	0.987354	0.149055	0.043997	0.031293
60520	-0.779267	1.870834	9.377408	0.092892	-1.097764	-0.282275	0.986416	0.152544	0.046372	0.039551
60521	-0.822864	2.191169	9.426608	0.077445	-0.886459	-0.140725	0.985411	0.156136	0.048876	0.046882
60522	-0.841413	2.664993	9.643107	0.088979	-0.580476	0.210000	0.984423	0.159435	0.051315	0.053460
60523	-0.612577	2.563385	9.550718	0.349391	-0.673312	0.065914	0.983671	0.161250	0.053437	0.059452
60524	-0.248367	1.998933	9.467182	0.787957	-1.151180	-0.234653	0.983142	0.161954	0.055375	0.064308
