// General information: 
//  MT Manager version: 2021.0.0 
//  XDA version: 2021.0.0 build 5908 rev 109668 built on 2021-04-19
// Device information: 
//  DeviceId: 00B43DEF
//  ProductCode: MTW2-3A7G6
//  Firmware Version: 4.3.5
//  Hardware Version: 1.1.0
// Device settings: 
//  Filter Profile: human(46.1)
//  Option Flags: Orientation Smoother Disabled, Position/Velocity Smoother Disabled, Continuous Zero Rotation Update Disabled, AHS Disabled, ICC Disabled
// Coordinate system: ENU
PacketCounter	Acc_X	Acc_Y	Acc_Z	FreeAcc_E	FreeAcc_N	FreeAcc_U	Quat_q0	Quat_q1	Quat_q2	Quat_q3
59330	-9.448976	-1.007247	1.508390	-0.329111	-2.070330	-0.422356	0.376962	0.549929	0.479194	-0.570834
59331	-9.986674	-1.378283	0.422266	-0.319592	-1.008822	0.221835	0.377302	0.549568	0.481434	-0.569069
59332	-9.837384	-1.581168	-0.583612	-0.255546	-0.013905	0.164746	0.376894	0.549821	0.483133	-0.567652
59333	-9.947320	-1.006113	-0.526242	0.289393	-0.269036	0.191417	0.376529	0.550084	0.484850	-0.566175
59334	-9.498911	-1.219247	-0.783747	0.101846	0.041056	-0.204465	0.376331	0.550179	0.486820	-0.564521
59335	-9.492593	-1.221396	-0.560386	0.037194	-0.213210	-0.227899	0.375825	0.550573	0.488629	-0.562909
59336	-9.400594	-1.581792	-0.762543	-0.269462	0.038740	-0.253377	0.375199	0.551118	0.490290	-0.561347
59337	-9.562729	-1.529830	-0.877751	-0.175789	0.073841	-0.090543	0.373951	0.552182	0.491356	-0.560201
59338	-9.600378	-1.846775	-1.364170	-0.352674	0.572928	0.035461	0.372814	0.553203	0.492319	-0.559104
59339	-9.556788	-1.423065	-1.480346	0.076805	0.549279	-0.053535	0.370841	0.554862	0.492009	-0.559045
59340	-9.646917	-1.031480	-1.356614	0.426914	0.290817	-0.030026	0.369931	0.555728	0.492489	-0.558365
59341	-9.739924	-1.396275	-1.764350	0.192592	0.735874	0.154759	0.369461	0.556146	0.493129	-0.557694
59342	-9.811988	-1.199731	-1.653045	0.358500	0.552758	0.187960	0.368882	0.556511	0.493314	-0.557550
59343	-9.796130	-1.449316	-1.743378	0.143623	0.695466	0.217255	0.368883	0.556369	0.493682	-0.557366
59344	-9.724994	-1.403410	-1.682366	0.168219	0.635460	0.134338	0.368502	0.556398	0.493297	-0.557931
59345	-9.547545	-1.110179	-1.156041	0.295460	0.089386	-0.136466	0.368778	0.555935	0.493229	-0.558269
59346	-9.478206	-1.621871	-1.029903	-0.231657	0.116635	-0.145201	0.369736	0.555005	0.493723	-0.558123
59347	-9.394135	-1.601145	-0.724128	-0.299404	-0.160783	-0.261650	0.370017	0.554685	0.493525	-0.558431
59348	-9.347819	-1.318242	-0.238513	-0.161001	-0.684301	-0.395566	0.370347	0.554492	0.493611	-0.558327
59349	-9.299911	-1.496218	-0.284510	-0.328141	-0.592395	-0.413255	0.370381	0.554697	0.493881	-0.557863
59350	-9.399012	-1.400619	-0.054601	-0.292291	-0.863064	-0.353522	0.369595	0.555592	0.493906	-0.557471
59351	-9.775066	-1.582210	-0.190168	-0.398211	-0.761074	0.054105	0.368431	0.556901	0.493909	-0.556932
59352	-9.767646	-1.887901	-1.252474	-0.415352	0.308967	0.200890	0.366342	0.558835	0.493057	-0.557128
59353	-9.830654	-1.058406	-1.194948	0.365767	0.006180	0.140000	0.363589	0.561276	0.491631	-0.557738
59354	-9.751762	-1.017612	-1.380286	0.441486	0.157187	0.077606	0.362674	0.562376	0.491634	-0.557222
59355	-9.805453	-1.516550	-1.758647	0.069829	0.621016	0.244603	0.361991	0.563178	0.491627	-0.556862
59356	-9.608587	-1.423086	-1.953388	0.189804	0.799718	0.061029	0.361286	0.563936	0.491089	-0.557029
59357	-9.559986	-1.060659	-1.771570	0.477341	0.535260	-0.058589	0.361005	0.564321	0.490524	-0.557318
59358	-9.491661	-1.350219	-1.911517	0.231930	0.762227	-0.069288	0.361702	0.563889	0.490597	-0.557240
59359	-9.486103	-1.298673	-1.827850	0.255534	0.684040	-0.092579	0.362177	0.563536	0.489999	-0.557813
59360	-9.554262	-1.209453	-1.591113	0.281702	0.447579	-0.065965	0.363213	0.562747	0.489621	-0.558268
59361	-9.527176	-1.474223	-1.543769	0.014491	0.506201	-0.062451	0.364360	0.561796	0.489058	-0.558972
59362	-9.642184	-1.356449	-1.371653	0.093771	0.328460	0.014637	0.365396	0.560885	0.488257	-0.559909
59363	-9.654066	-1.082695	-1.039987	0.267230	-0.025640	-0.046286	0.366770	0.559701	0.487660	-0.560717
59364	-9.694915	-1.309348	-0.884781	0.015685	-0.081909	0.009815	0.368917	0.557919	0.487847	-0.560921
59365	-9.608519	-1.429403	-0.807549	-0.125874	-0.077019	-0.066042	0.370656	0.556421	0.487676	-0.561410
59366	-9.634719	-1.234471	-0.552666	-0.002857	-0.340110	-0.089447	0.372348	0.555029	0.487525	-0.561800
59367	-9.610649	-1.253929	-0.504164	-0.034709	-0.347071	-0.113751	0.374119	0.553650	0.487588	-0.561930
59368	-9.540939	-1.278869	-0.394122	-0.095154	-0.410877	-0.187593	0.375751	0.552437	0.487671	-0.561962
59369	-9.564573	-1.370166	-0.410523	-0.176734	-0.353056	-0.149819	0.377227	0.551422	0.487908	-0.561764
59370	-9.543721	-1.386827	-0.345148	-0.214775	-0.392280	-0.172926	0.378384	0.550720	0.487913	-0.561671
59371	-9.525091	-1.368990	-0.490852	-0.166069	-0.240805	-0.181652	0.379222	0.550325	0.487831	-0.561564
59372	-9.720169	-1.274888	-0.571065	-0.039104	-0.196705	0.005302	0.379666	0.550243	0.487414	-0.561706
59373	-9.663159	-1.288987	-0.798476	-0.004748	0.043594	-0.031391	0.380121	0.550140	0.486997	-0.561861
59374	-9.782311	-1.362984	-0.969335	-0.022782	0.226438	0.108963	0.380306	0.550193	0.486254	-0.562327
59375	-9.917763	-1.827813	-1.568989	-0.295650	0.928316	0.346809	0.379686	0.550602	0.484215	-0.564103
59376	-9.175761	-2.432342	-1.272610	-1.010897	0.918596	-0.333008	0.376635	0.552400	0.479498	-0.568403
59377	-8.844216	-1.364716	-1.835785	0.166369	1.248545	-0.764705	0.371850	0.555509	0.474054	-0.573071
59378	-9.655781	-0.528933	-1.076923	0.852996	0.224017	-0.122702	0.368183	0.557891	0.469897	-0.576538
59379	-10.172070	-0.409200	-0.671419	0.907833	-0.234388	0.346552	0.366831	0.558802	0.467594	-0.578387
59380	-9.731693	-0.477657	0.798829	0.337439	-1.539551	-0.164477	0.366676	0.558828	0.465668	-0.580012
59381	-9.380886	-0.549931	1.364046	0.053881	-1.999347	-0.530243	0.368477	0.557770	0.466675	-0.579078
59382	-9.631726	-1.085438	1.171429	-0.362341	-1.680920	-0.202080	0.370810	0.556415	0.469053	-0.576968
59383	-9.465120	-1.089366	1.096881	-0.361766	-1.612894	-0.365677	0.373105	0.555338	0.471807	-0.574274
59384	-9.670571	-1.687074	0.678766	-0.791775	-1.099617	-0.066375	0.375215	0.554541	0.475235	-0.570833
59385	-9.812353	-1.852707	-0.597055	-0.586029	0.106178	0.173121	0.375592	0.555051	0.477018	-0.568597
59386	-9.795043	0.302484	-0.485206	1.415260	-0.627029	-0.123853	0.373847	0.557235	0.476229	-0.568273
59387	-9.868235	0.048087	-0.185019	1.076518	-0.885844	-0.041563	0.377481	0.555313	0.481481	-0.563304
59388	-9.556063	-2.140196	-1.853819	-0.628364	1.273441	0.052320	0.382472	0.552143	0.487895	-0.557505
59389	-9.377363	-2.578844	-2.026669	-1.059303	1.518055	-0.052256	0.382933	0.552102	0.489637	-0.555699
59390	-9.606443	-1.218428	-1.227090	0.065393	0.367229	-0.058977	0.381074	0.553825	0.489032	-0.555795
59391	-9.534723	-0.959696	-1.537765	0.382347	0.585911	-0.132443	0.380123	0.554817	0.489326	-0.555198
59392	-9.649346	-1.187545	-1.645482	0.198996	0.707570	0.020291	0.378566	0.556193	0.488791	-0.555356
59393	-9.708124	-1.115685	-1.351485	0.198396	0.382722	0.042924	0.377016	0.557524	0.487928	-0.555834
59394	-9.691570	-1.110279	-1.393278	0.213735	0.413525	0.030269	0.375963	0.558445	0.487156	-0.556300
59395	-9.616092	-1.022510	-1.081278	0.208079	0.097658	-0.084837	0.375579	0.558819	0.486806	-0.556491
59396	-9.711445	-1.018925	-0.971783	0.189741	-0.021317	-0.001557	0.376172	0.558422	0.487345	-0.556017
59397	-9.717060	-1.196016	-0.942030	0.010061	-0.005996	0.022911	0.377113	0.557712	0.488149	-0.555386
59398	-9.583662	-1.147603	-0.832812	0.014317	-0.105210	-0.125279	0.377686	0.557230	0.488635	-0.555052
59399	-9.682299	-1.029827	-0.874649	0.148210	-0.105755	-0.038266	0.378118	0.556808	0.489132	-0.554744
59400	-9.576360	-0.959615	-0.739918	0.171356	-0.240797	-0.164493	0.378742	0.556255	0.489918	-0.554180
59401	-9.528596	-1.105794	-0.763282	0.032337	-0.181482	-0.191589	0.379504	0.555584	0.491036	-0.553342
59402	-9.612930	-1.324202	-0.845128	-0.149227	-0.068617	-0.073632	0.380042	0.555047	0.492065	-0.552597
59403	-9.562463	-1.282252	-0.743776	-0.138225	-0.179458	-0.138663	0.380017	0.554961	0.492654	-0.552175
59404	-9.573068	-1.243880	-0.864775	-0.069399	-0.083899	-0.121102	0.379828	0.555045	0.493141	-0.551785
59405	-9.630408	-1.194990	-0.835630	-0.023283	-0.143108	-0.073591	0.379375	0.555320	0.493465	-0.551531
59406	-9.531243	-1.196781	-0.775636	-0.049104	-0.201772	-0.177578	0.379003	0.555578	0.493944	-0.551098
59407	-9.634643	-1.210062	-0.914102	-0.018121	-0.095310	-0.059906	0.378515	0.555940	0.494456	-0.550609
59408	-9.634563	-1.235536	-0.891627	-0.049014	-0.128787	-0.059363	0.377990	0.556345	0.494883	-0.550178
59409	-9.568878	-1.246267	-1.032720	-0.031667	0.000511	-0.107942	0.377448	0.556782	0.495343	-0.549692
59410	-9.667980	-1.106984	-1.101490	0.127379	0.002011	-0.020228	0.376991	0.557191	0.495826	-0.549156
59411	-9.622909	-1.069494	-1.102192	0.156368	-0.017986	-0.069268	0.376932	0.557322	0.496610	-0.548355
59412	-9.609587	-1.294120	-1.201287	-0.040970	0.114063	-0.042975	0.377048	0.557304	0.497541	-0.547449
59413	-9.626137	-1.362520	-1.357869	-0.070316	0.262209	0.000012	0.376888	0.557470	0.498112	-0.546870
59414	-9.605724	-1.216565	-1.394877	0.076074	0.254356	-0.033876	0.376481	0.557804	0.498280	-0.546656
59415	-9.646930	-1.100627	-1.364614	0.183156	0.182853	-0.011166	0.376475	0.557833	0.498709	-0.546240
59416	-9.621584	-1.291659	-1.492961	0.025991	0.346986	0.003173	0.376708	0.557658	0.499165	-0.545842
59417	-9.612438	-1.200711	-1.472791	0.106795	0.305187	-0.019566	0.376916	0.557482	0.499423	-0.545643
59418	-9.606726	-1.138712	-1.348953	0.135189	0.172757	-0.047575	0.377306	0.557169	0.499721	-0.545419
59419	-9.616121	-1.234118	-1.311645	0.033977	0.159940	-0.030740	0.377736	0.556842	0.499889	-0.545301
59420	-9.583021	-1.182738	-1.145112	0.040329	-0.002920	-0.089375	0.378044	0.556574	0.499943	-0.545312
59421	-9.613027	-1.226978	-1.210584	0.016626	0.070795	-0.046624	0.378336	0.556307	0.499982	-0.545347
59422	-9.561976	-1.144228	-1.114367	0.069514	-0.027867	-0.118522	0.378628	0.556042	0.499989	-0.545407
59423	-9.549955	-1.162897	-1.041203	0.032766	-0.087739	-0.136464	0.379094	0.555692	0.500187	-0.545259
59424	-9.587631	-1.254086	-0.981435	-0.066762	-0.126590	-0.094759	0.379474	0.555412	0.500335	-0.545143
59425	-9.588145	-1.225591	-1.033858	-0.027926	-0.079485	-0.091764	0.379688	0.555298	0.500356	-0.545091
59426	-9.585707	-1.220954	-1.079220	-0.014288	-0.034458	-0.089528	0.379826	0.555257	0.500342	-0.545050
59427	-9.608225	-1.222229	-1.215042	0.017063	0.095569	-0.051605	0.379941	0.555251	0.500268	-0.545045
59428	-9.602090	-1.145724	-1.208981	0.087300	0.076082	-0.067892	0.380049	0.555265	0.500136	-0.545076
59429	-9.617440	-1.165575	-1.241925	0.075542	0.113433	-0.046546	0.380264	0.555179	0.500060	-0.545083
59430	-9.625227	-1.190597	-1.291713	0.062320	0.170759	-0.030152	0.380478	0.555082	0.499891	-0.545187
59431	-9.621775	-1.156475	-1.246649	0.083465	0.127164	-0.042990	0.380761	0.554912	0.499692	-0.545345
59432	-9.615278	-1.159112	-1.257615	0.082539	0.148083	-0.047957	0.381064	0.554707	0.499442	-0.545571
59433	-9.617346	-1.123609	-1.177007	0.097616	0.072308	-0.059410	0.381467	0.554432	0.499222	-0.545771
59434	-9.606233	-1.114516	-1.151799	0.099570	0.059120	-0.074357	0.381919	0.554070	0.499006	-0.546020
59435	-9.620157	-1.145533	-1.101590	0.059374	0.028160	-0.062363	0.382436	0.553660	0.498820	-0.546242
59436	-9.616919	-1.124688	-1.116275	0.083415	0.050796	-0.066581	0.382906	0.553260	0.498612	-0.546510
59437	-9.587576	-1.124875	-0.986829	0.051315	-0.057485	-0.109346	0.383370	0.552869	0.498406	-0.546767
59438	-9.598799	-1.153521	-0.982607	0.024768	-0.044610	-0.095153	0.383847	0.552440	0.498269	-0.546991
59439	-9.576625	-1.162098	-0.901647	-0.003014	-0.106767	-0.124356	0.384224	0.552089	0.498097	-0.547238
59440	-9.590609	-1.147621	-0.901253	0.013663	-0.101600	-0.112247	0.384528	0.551806	0.497906	-0.547483
59441	-9.622297	-1.118813	-0.879064	0.040754	-0.124655	-0.086645	0.384800	0.551544	0.497785	-0.547666
59442	-9.607654	-1.148121	-0.915728	0.020395	-0.073665	-0.093741	0.385118	0.551262	0.497762	-0.547748
59443	-9.589863	-1.168634	-0.874038	-0.010279	-0.101356	-0.112959	0.385392	0.551030	0.497746	-0.547803
59444	-9.619295	-1.169279	-0.973471	0.015088	-0.003501	-0.073824	0.385613	0.550842	0.497706	-0.547873
59445	-9.617768	-1.093340	-0.931882	0.079599	-0.055043	-0.088702	0.385722	0.550726	0.497573	-0.548033
59446	-9.600717	-1.139654	-1.023317	0.054770	0.050447	-0.090845	0.385926	0.550550	0.497532	-0.548104
59447	-9.631665	-1.150836	-1.016775	0.045964	0.047668	-0.059593	0.386098	0.550377	0.497448	-0.548233
59448	-9.645369	-1.117347	-1.014969	0.080313	0.042584	-0.050336	0.386269	0.550194	0.497339	-0.548395
59449	-9.654079	-1.124610	-1.056575	0.084967	0.090087	-0.036849	0.386453	0.550001	0.497178	-0.548604
59450	-9.633546	-1.150118	-0.999628	0.046856	0.050408	-0.059612	0.386668	0.549756	0.497038	-0.548825
59451	-9.652450	-1.187833	-1.046397	0.024671	0.109858	-0.031941	0.386914	0.549489	0.496871	-0.549071
59452	-9.636159	-1.142730	-1.043045	0.068261	0.108519	-0.053954	0.387124	0.549223	0.496614	-0.549422
59453	-9.660864	-1.080417	-1.024448	0.129527	0.085370	-0.038997	0.387451	0.548848	0.496373	-0.549784
59454	-9.680250	-1.157836	-1.077838	0.071664	0.164990	-0.005690	0.387863	0.548395	0.496128	-0.550166
59455	-9.684644	-1.173557	-1.082377	0.061645	0.187991	0.000668	0.388288	0.547882	0.495795	-0.550677
59456	-9.635158	-1.068531	-0.981861	0.140030	0.091339	-0.070301	0.388755	0.547328	0.495415	-0.551240
59457	-9.667455	-1.080467	-0.960222	0.131183	0.088653	-0.039049	0.389333	0.546669	0.495092	-0.551776
59458	-9.630027	-1.121223	-0.913710	0.082623	0.076877	-0.075303	0.389956	0.545924	0.494801	-0.552333
59459	-9.627249	-1.153169	-0.825197	0.036913	0.019251	-0.081659	0.390562	0.545201	0.494465	-0.552921
59460	-9.644551	-1.146837	-0.720523	0.026925	-0.064465	-0.073754	0.391130	0.544488	0.494118	-0.553532
59461	-9.590276	-1.185865	-0.645419	-0.027335	-0.102514	-0.128424	0.391664	0.543805	0.493778	-0.554129
59462	-9.589551	-1.134496	-0.548996	0.005881	-0.188321	-0.142504	0.392160	0.543204	0.493485	-0.554628
59463	-9.578133	-1.151535	-0.478482	-0.023492	-0.235816	-0.156630	0.392652	0.542651	0.493310	-0.554978
59464	-9.566312	-1.188639	-0.417147	-0.070755	-0.273399	-0.167925	0.393008	0.542202	0.493182	-0.555278
59465	-9.562613	-1.190793	-0.440375	-0.064394	-0.240288	-0.169368	0.393207	0.541894	0.493071	-0.555536
59466	-9.572036	-1.159927	-0.469804	-0.023827	-0.213079	-0.161571	0.393269	0.541716	0.493015	-0.555716
59467	-9.624873	-1.128006	-0.507854	0.023713	-0.185215	-0.110439	0.393174	0.541671	0.492967	-0.555869
59468	-9.745298	-1.134546	-0.528979	0.036882	-0.174404	0.011063	0.393139	0.541617	0.493036	-0.555885
59469	-9.610154	-1.260102	-0.582864	-0.085768	-0.082634	-0.103492	0.393072	0.541653	0.493031	-0.555902
59470	-9.606127	-1.182446	-0.594097	-0.008084	-0.089859	-0.116262	0.392767	0.541887	0.492907	-0.555999
59471	-9.625299	-1.121980	-0.622170	0.059124	-0.080692	-0.102780	0.392596	0.542015	0.492946	-0.555961
59472	-9.643173	-1.197086	-0.739300	0.014605	0.043391	-0.067521	0.392452	0.542142	0.493059	-0.555839
59473	-9.648768	-1.209669	-0.777756	0.011908	0.078452	-0.057657	0.392039	0.542448	0.492911	-0.555963
59474	-9.698287	-1.101998	-0.785188	0.123659	0.053865	-0.021391	0.391722	0.542695	0.492801	-0.556041
59475	-9.694761	-1.126877	-0.780971	0.098669	0.052616	-0.022097	0.391517	0.542843	0.492752	-0.556086
59476	-9.650673	-1.188713	-0.796004	0.038001	0.082913	-0.056979	0.391438	0.542889	0.492789	-0.556064
59477	-9.670781	-1.170661	-0.787863	0.056201	0.068020	-0.039899	0.391392	0.542906	0.492789	-0.556080
59478	-9.650530	-1.129979	-0.781253	0.092356	0.054433	-0.065460	0.391466	0.542816	0.492887	-0.556029
59479	-9.644392	-1.118600	-0.748603	0.095601	0.020980	-0.075317	0.391572	0.542705	0.492994	-0.555967
59480	-9.658386	-1.148322	-0.723396	0.063286	0.001899	-0.059618	0.391739	0.542515	0.493174	-0.555875
59481	-9.648136	-1.158189	-0.728599	0.054600	0.010636	-0.068166	0.391863	0.542363	0.493301	-0.555824
59482	-9.641991	-1.147342	-0.695293	0.057995	-0.022827	-0.078011	0.392022	0.542165	0.493478	-0.555748
59483	-9.663175	-1.132854	-0.639349	0.062918	-0.081993	-0.062898	0.392199	0.541942	0.493702	-0.555640
59484	-9.638547	-1.173202	-0.688594	0.033489	-0.023162	-0.078701	0.392412	0.541701	0.493970	-0.555488
59485	-9.638437	-1.154380	-0.683598	0.051528	-0.032494	-0.081518	0.392587	0.541490	0.494223	-0.555345
59486	-9.630908	-1.200382	-0.715680	0.014804	0.008471	-0.080924	0.392651	0.541351	0.494408	-0.555270
59487	-9.659241	-1.141694	-0.630487	0.056857	-0.090870	-0.066384	0.392627	0.541306	0.494530	-0.555223
59488	-9.644333	-1.213214	-0.688435	0.000728	-0.019691	-0.068017	0.392554	0.541249	0.494667	-0.555207
59489	-9.653953	-1.226078	-0.691789	-0.007955	-0.016556	-0.056647	0.392342	0.541323	0.494661	-0.555291
59490	-9.657554	-1.227272	-0.662202	-0.013539	-0.047788	-0.055096	0.392083	0.541462	0.494635	-0.555362
59491	-9.581142	-1.226007	-0.603639	-0.032091	-0.100539	-0.135156	0.391839	0.541590	0.494655	-0.555391
59492	-9.610831	-1.259631	-0.611068	-0.058720	-0.093168	-0.101044	0.391425	0.541887	0.494552	-0.555485
59493	-9.586117	-1.221051	-0.641566	-0.016699	-0.074567	-0.128145	0.390975	0.542259	0.494447	-0.555533
59494	-9.679762	-1.214527	-0.641239	-0.000289	-0.092117	-0.036411	0.390344	0.542761	0.494239	-0.555671
59495	-9.631297	-1.218544	-0.675807	-0.001407	-0.059754	-0.081302	0.389758	0.543251	0.494058	-0.555764
59496	-9.636519	-1.211763	-0.711662	0.013640	-0.034578	-0.074312	0.389028	0.543879	0.493778	-0.555910
59497	-9.652018	-1.175946	-0.737190	0.055451	-0.027325	-0.061589	0.388379	0.544430	0.493572	-0.556007
59498	-9.661871	-1.138339	-0.841416	0.116399	0.056316	-0.048528	0.387922	0.544853	0.493515	-0.555964
59499	-9.659157	-1.196143	-0.913258	0.076185	0.131778	-0.038183	0.387507	0.545220	0.493456	-0.555944
59500	-9.648488	-1.166571	-0.913562	0.103478	0.120424	-0.052380	0.387121	0.545552	0.493368	-0.555967
59501	-9.661928	-1.216484	-0.899379	0.053355	0.111519	-0.033818	0.386819	0.545792	0.493316	-0.555987
59502	-9.646814	-1.228060	-0.940451	0.050618	0.152506	-0.043973	0.386547	0.545994	0.493168	-0.556109
59503	-9.635904	-1.125516	-0.853013	0.128737	0.044451	-0.074797	0.386360	0.546106	0.493096	-0.556193
59504	-9.672957	-1.172868	-0.844608	0.085794	0.041936	-0.032812	0.386377	0.546044	0.493192	-0.556157
59505	-9.614339	-1.234270	-0.782374	0.006151	0.001361	-0.087925	0.386507	0.545913	0.493346	-0.556058
59506	-9.619844	-1.246807	-0.816410	0.003377	0.036655	-0.078157	0.386368	0.545980	0.493236	-0.556188
59507	-9.632752	-1.101738	-0.726069	0.124706	-0.085314	-0.091160	0.386315	0.545965	0.493294	-0.556188
59508	-9.644281	-1.228935	-0.776994	0.016130	-0.009805	-0.059442	0.386330	0.545890	0.493436	-0.556124
59509	-9.629653	-1.201129	-0.804781	0.049306	0.010744	-0.075231	0.386260	0.545871	0.493531	-0.556107
59510	-9.635084	-1.194755	-0.834568	0.064353	0.035963	-0.068287	0.386171	0.545874	0.493598	-0.556107
59511	-9.649015	-1.225414	-0.810857	0.031849	0.017134	-0.052497	0.386172	0.545807	0.493710	-0.556073
59512	-9.626420	-1.262672	-0.873985	0.009727	0.087994	-0.064953	0.386090	0.545805	0.493735	-0.556109
59513	-9.674593	-1.221548	-0.836730	0.047344	0.037395	-0.025634	0.385995	0.545805	0.493687	-0.556217
59514	-9.587428	-1.225335	-0.824513	0.033060	0.036557	-0.112295	0.385940	0.545783	0.493652	-0.556309
59515	-9.614773	-1.242206	-0.807545	0.016981	0.021933	-0.084466	0.385912	0.545756	0.493619	-0.556384
59516	-9.610245	-1.244434	-0.839442	0.023270	0.054864	-0.086098	0.385830	0.545759	0.493528	-0.556519
59517	-9.657501	-1.160465	-0.835573	0.109849	0.028526	-0.050551	0.385775	0.545748	0.493452	-0.556634
59518	-9.692784	-1.244852	-0.881955	0.044278	0.090497	-0.001091	0.385889	0.545603	0.493489	-0.556665
59519	-9.608031	-1.190885	-0.804870	0.070504	0.015096	-0.098003	0.385945	0.545478	0.493490	-0.556748
59520	-9.618347	-1.182359	-0.798310	0.079814	0.008047	-0.089445	0.386099	0.545285	0.493566	-0.556762
59521	-9.600812	-1.197534	-0.819952	0.069662	0.036807	-0.103115	0.386305	0.545048	0.493689	-0.556743
59522	-9.655736	-1.229956	-0.784683	0.037133	0.006446	-0.047426	0.386563	0.544772	0.493864	-0.556679
59523	-9.629671	-1.237139	-0.759113	0.022857	-0.011458	-0.074275	0.386850	0.544448	0.494068	-0.556615
59524	-9.620132	-1.187498	-0.744796	0.068039	-0.032840	-0.091262	0.387125	0.544134	0.494284	-0.556539
59525	-9.609667	-1.217333	-0.754036	0.041543	-0.013845	-0.097017	0.387500	0.543755	0.494581	-0.556385
59526	-9.608485	-1.195183	-0.792987	0.072969	0.021256	-0.098033	0.387858	0.543390	0.494855	-0.556248
59527	-9.702059	-1.267265	-0.807699	0.017990	0.044106	0.004951	0.388278	0.542973	0.495163	-0.556088
59528	-9.676017	-1.274381	-0.781711	0.003743	0.026080	-0.021889	0.388494	0.542704	0.495278	-0.556098
59529	-9.637703	-1.215411	-0.722797	0.044364	-0.036359	-0.071965	0.388778	0.542413	0.495391	-0.556083
59530	-9.616894	-1.274079	-0.741348	-0.008858	0.000339	-0.083482	0.388950	0.542192	0.495431	-0.556142
59531	-9.588963	-1.186334	-0.671970	0.058837	-0.079929	-0.127787	0.389005	0.542063	0.495407	-0.556251
59532	-9.627479	-1.246922	-0.725953	0.018636	-0.015924	-0.077721	0.389117	0.541877	0.495481	-0.556287
59533	-9.639932	-1.294775	-0.750800	-0.018400	0.019351	-0.057293	0.389036	0.541826	0.495410	-0.556457
59534	-9.656989	-1.199695	-0.747981	0.077140	-0.003495	-0.053065	0.388936	0.541818	0.495265	-0.556663
59535	-9.656497	-1.240930	-0.757570	0.041783	0.017714	-0.047458	0.388913	0.541727	0.495189	-0.556836
59536	-9.672442	-1.245312	-0.783463	0.047851	0.045127	-0.029211	0.388824	0.541672	0.495052	-0.557073
59537	-9.659246	-1.260387	-0.771149	0.031989	0.041723	-0.041223	0.388793	0.541574	0.494901	-0.557324
59538	-9.638011	-1.238143	-0.811114	0.063511	0.082428	-0.062234	0.388666	0.541530	0.494659	-0.557671
59539	-9.657199	-1.208692	-0.730589	0.079152	0.000986	-0.053081	0.388643	0.541399	0.494499	-0.557956
59540	-9.672427	-1.292661	-0.777038	0.013685	0.068676	-0.023627	0.388681	0.541228	0.494342	-0.558234
59541	-9.664593	-1.227070	-0.706332	0.063409	-0.007154	-0.045145	0.388601	0.541137	0.494058	-0.558630
59542	-9.628985	-1.185073	-0.663867	0.093787	-0.047326	-0.088932	0.388663	0.540943	0.493888	-0.558924
59543	-9.658225	-1.298451	-0.684007	-0.004357	0.000254	-0.043597	0.388714	0.540737	0.493809	-0.559158
59544	-9.619567	-1.342933	-0.606439	-0.065960	-0.056528	-0.081308	0.388527	0.540738	0.493535	-0.559529
59545	-9.567881	-1.277973	-0.532430	-0.023446	-0.133485	-0.146113	0.388346	0.540798	0.493257	-0.559842
59546	-9.597646	-1.330828	-0.538811	-0.067772	-0.116121	-0.109175	0.388124	0.540919	0.493054	-0.560057
59547	-9.605258	-1.286284	-0.508911	-0.030142	-0.155379	-0.109623	0.387867	0.541126	0.492845	-0.560219
59548	-9.597922	-1.291577	-0.529774	-0.031224	-0.134336	-0.114754	0.387575	0.541392	0.492659	-0.560328
59549	-9.627332	-1.260915	-0.565562	0.009086	-0.112497	-0.087331	0.387283	0.541699	0.492544	-0.560335
59550	-9.635654	-1.288195	-0.623987	-0.004128	-0.055074	-0.071457	0.387018	0.542008	0.492474	-0.560281
59551	-9.608337	-1.251258	-0.641788	0.030451	-0.048638	-0.102158	0.386637	0.542429	0.492319	-0.560271
59552	-9.636271	-1.319485	-0.708874	-0.018665	0.023432	-0.060746	0.386372	0.542767	0.492263	-0.560178
59553	-9.622116	-1.269283	-0.735919	0.032208	0.034320	-0.079468	0.385949	0.543228	0.492035	-0.560222
59554	-9.688214	-1.182479	-0.781661	0.132036	0.047117	-0.022331	0.385681	0.543561	0.491937	-0.560170
59555	-9.649265	-1.254356	-0.831769	0.068027	0.111466	-0.047622	0.385577	0.543748	0.491968	-0.560033
59556	-9.638735	-1.262507	-0.841251	0.059521	0.119941	-0.056207	0.385400	0.543966	0.491891	-0.560010
59557	-9.661093	-1.205131	-0.777463	0.100335	0.040833	-0.046328	0.385293	0.544142	0.491775	-0.560015
59558	-9.627064	-1.255350	-0.786114	0.048484	0.062973	-0.072671	0.385334	0.544190	0.491807	-0.559912
59559	-9.638317	-1.286849	-0.748286	0.008868	0.031888	-0.060151	0.385292	0.544284	0.491717	-0.559928
59560	-9.640807	-1.208221	-0.681118	0.067671	-0.051861	-0.072995	0.385304	0.544324	0.491713	-0.559885
59561	-9.639844	-1.286899	-0.705210	-0.003590	-0.010925	-0.061796	0.385382	0.544313	0.491771	-0.559790
59562	-9.639060	-1.224084	-0.736395	0.063527	0.004275	-0.068557	0.385168	0.544520	0.491582	-0.559903
59563	-9.638977	-1.110171	-0.645007	0.150804	-0.111629	-0.090384	0.385179	0.544534	0.491661	-0.559811
59564	-9.616649	-1.240210	-0.797109	0.059414	0.065955	-0.084092	0.385147	0.544544	0.491746	-0.559749
59565	-9.659211	-1.186026	-0.728942	0.100294	-0.018641	-0.054205	0.385118	0.544531	0.491846	-0.559695
59566	-9.658626	-1.207164	-0.736985	0.082913	-0.007840	-0.051411	0.385138	0.544432	0.492028	-0.559616
59567	-9.629573	-1.170762	-0.796448	0.130301	0.042873	-0.080531	0.385229	0.544270	0.492257	-0.559510
59568	-9.658391	-1.170915	-0.729796	0.119141	-0.026183	-0.057008	0.385528	0.543908	0.492746	-0.559226
59569	-9.657977	-1.266410	-0.820268	0.050437	0.081461	-0.038027	0.385786	0.543566	0.493176	-0.559001
59570	-9.616710	-1.192495	-0.746727	0.102062	-0.003361	-0.094132	0.386043	0.543202	0.493587	-0.558816
59571	-9.660559	-1.255587	-0.725130	0.042871	-0.015774	-0.044032	0.386718	0.542530	0.494400	-0.558283
59572	-9.644001	-1.367364	-0.792879	-0.049534	0.075220	-0.040432	0.387266	0.541942	0.495063	-0.557886
59573	-9.624516	-1.288260	-0.774909	0.022480	0.041494	-0.071580	0.387692	0.541449	0.495619	-0.557575
59574	-9.633858	-1.218631	-0.799717	0.098683	0.048839	-0.069808	0.387975	0.541081	0.496016	-0.557382
59575	-9.632763	-1.187759	-0.728599	0.114368	-0.026985	-0.080373	0.388385	0.540597	0.496534	-0.557105
59576	-9.623136	-1.416358	-0.766440	-0.096795	0.059729	-0.056391	0.388792	0.540109	0.497059	-0.556827
59577	-9.588791	-1.377685	-0.684144	-0.079629	-0.024991	-0.101662	0.388925	0.539865	0.497265	-0.556785
59578	-9.618102	-1.256755	-0.626693	0.029799	-0.109784	-0.093268	0.389125	0.539619	0.497566	-0.556616
59579	-9.628670	-1.485581	-0.662585	-0.181704	-0.028643	-0.049316	0.389315	0.539434	0.497839	-0.556418
59580	-9.563633	-1.370703	-0.613871	-0.088544	-0.095804	-0.132722	0.389126	0.539576	0.497817	-0.556433
59581	-9.628504	-1.291732	-0.596619	-0.009135	-0.139500	-0.080623	0.388975	0.539762	0.497853	-0.556326
59582	-9.627213	-1.350522	-0.620580	-0.062569	-0.108590	-0.072228	0.388831	0.539966	0.497934	-0.556155
59583	-9.590159	-1.282873	-0.632199	-0.001230	-0.114535	-0.117149	0.388577	0.540304	0.497996	-0.555949
59584	-9.615419	-1.294720	-0.671817	-0.003891	-0.084689	-0.087631	0.388192	0.540767	0.497995	-0.555769
59585	-9.635814	-1.255052	-0.667584	0.032147	-0.109383	-0.073245	0.387771	0.541286	0.498003	-0.555550
59586	-9.602285	-1.278597	-0.740884	0.018689	-0.040928	-0.097465	0.387175	0.541918	0.497949	-0.555398
59587	-9.616359	-1.267557	-0.717101	0.022144	-0.079971	-0.087030	0.386583	0.542566	0.497903	-0.555219
59588	-9.559427	-1.327133	-0.853251	-0.014072	0.058560	-0.124121	0.385873	0.543293	0.497795	-0.555099
59589	-9.607882	-1.211870	-0.746852	0.074941	-0.088329	-0.100613	0.385097	0.544110	0.497627	-0.554988
59590	-9.631779	-1.277494	-0.869387	0.038785	0.028101	-0.057858	0.384476	0.544777	0.497650	-0.554744
59591	-9.617704	-1.270464	-0.869897	0.040650	0.014473	-0.072607	0.383797	0.545480	0.497621	-0.554549
59592	-9.584571	-1.215453	-0.922266	0.098958	0.042854	-0.108036	0.383228	0.546109	0.497667	-0.554283
59593	-9.673828	-1.284296	-1.001150	0.057225	0.110451	-0.003550	0.382715	0.546672	0.497741	-0.554015
59594	-9.634382	-1.277297	-1.035501	0.064771	0.134625	-0.040137	0.382148	0.547250	0.497700	-0.553873
59595	-9.598316	-1.233052	-1.010456	0.095229	0.094331	-0.083806	0.381757	0.547682	0.497735	-0.553684
59596	-9.632895	-1.236920	-1.046077	0.101169	0.116378	-0.045747	0.381416	0.548059	0.497767	-0.553517
59597	-9.618924	-1.250060	-1.045583	0.085125	0.112613	-0.057706	0.381102	0.548371	0.497796	-0.553398
59598	-9.635027	-1.295133	-1.047368	0.042252	0.115647	-0.035524	0.380865	0.548640	0.497844	-0.553253
59599	-9.628328	-1.342538	-1.037355	-0.007950	0.111893	-0.036665	0.380516	0.548983	0.497705	-0.553278
59600	-9.637779	-1.237516	-0.995358	0.083678	0.042727	-0.045388	0.380212	0.549263	0.497552	-0.553345
59601	-9.633055	-1.198853	-1.019873	0.125645	0.055631	-0.052859	0.380153	0.549356	0.497562	-0.553286
59602	-9.647185	-1.240750	-1.062431	0.095855	0.103145	-0.029202	0.380203	0.549363	0.497602	-0.553208
59603	-9.632914	-1.312749	-1.071233	0.026043	0.129551	-0.032789	0.380246	0.549361	0.497596	-0.553185
59604	-9.602778	-1.306032	-1.013548	0.014970	0.076799	-0.068960	0.380244	0.549393	0.497498	-0.553243
59605	-9.619920	-1.234350	-0.959271	0.072330	0.007707	-0.066848	0.380345	0.549350	0.497463	-0.553248
59606	-9.597049	-1.229542	-1.008078	0.085655	0.058575	-0.085377	0.380535	0.549210	0.497524	-0.553201
59607	-9.630755	-1.332332	-1.060706	0.002254	0.130707	-0.033395	0.380807	0.549003	0.497630	-0.553123
59608	-9.584604	-1.234378	-1.055285	0.090494	0.112399	-0.092547	0.380882	0.548932	0.497495	-0.553264
59609	-9.627936	-1.142997	-0.957151	0.160210	-0.004345	-0.071330	0.381182	0.548685	0.497584	-0.553223
59610	-9.603874	-1.339983	-1.014307	-0.018843	0.101975	-0.063430	0.381491	0.548411	0.497682	-0.553193
59611	-9.609149	-1.357938	-0.983918	-0.042069	0.080486	-0.058736	0.381597	0.548290	0.497545	-0.553364
59612	-9.619500	-1.252400	-0.932441	0.049578	0.011356	-0.067425	0.381768	0.548135	0.497417	-0.553513
59613	-9.639702	-1.292652	-0.935350	0.014083	0.026850	-0.041875	0.382081	0.547869	0.497394	-0.553582
59614	-9.604881	-1.280727	-0.964492	0.028944	0.063112	-0.075161	0.382395	0.547622	0.497317	-0.553679
59615	-9.626827	-1.240681	-0.943760	0.065036	0.038398	-0.060761	0.382709	0.547381	0.497237	-0.553772
59616	-9.647143	-1.286481	-0.885434	0.009252	-0.002975	-0.039956	0.383037	0.547134	0.497132	-0.553883
59617	-9.611454	-1.333592	-0.930556	-0.029567	0.063278	-0.064889	0.383322	0.546927	0.496956	-0.554049
59618	-9.623941	-1.262324	-0.901248	0.033521	0.026510	-0.064656	0.383563	0.546776	0.496641	-0.554314
59619	-9.654130	-1.209288	-0.919594	0.091779	0.038557	-0.040260	0.384046	0.546440	0.496536	-0.554404
59620	-9.635984	-1.300446	-0.956660	0.009794	0.107015	-0.042990	0.384513	0.546101	0.496380	-0.554555
59621	-9.617996	-1.236235	-0.933170	0.063828	0.083253	-0.071336	0.384957	0.545792	0.496140	-0.554766
59622	-9.626781	-1.247501	-0.909611	0.047925	0.074088	-0.063289	0.385435	0.545451	0.495891	-0.554991
59623	-9.641028	-1.251071	-0.912808	0.046671	0.089369	-0.048588	0.385860	0.545126	0.495570	-0.555301
59624	-9.637990	-1.196234	-0.855340	0.086091	0.035817	-0.063599	0.386388	0.544723	0.495296	-0.555575
59625	-9.615433	-1.222082	-0.778182	0.040781	-0.016743	-0.088817	0.386993	0.544254	0.495119	-0.555771
59626	-9.583140	-1.250816	-0.766260	0.006650	-0.004887	-0.117937	0.387574	0.543805	0.494934	-0.555970
59627	-9.604678	-1.195954	-0.673655	0.040568	-0.096190	-0.110984	0.388105	0.543410	0.494745	-0.556154
59628	-9.643637	-1.199638	-0.641870	0.033669	-0.118385	-0.074325	0.388617	0.543020	0.494609	-0.556299
59629	-9.596007	-1.239528	-0.670196	-0.003741	-0.066569	-0.114003	0.389039	0.542704	0.494448	-0.556455
59630	-9.655439	-1.205334	-0.625562	0.025267	-0.114251	-0.062920	0.389407	0.542439	0.494320	-0.556570
59631	-9.607672	-1.245448	-0.656687	-0.012196	-0.062571	-0.102607	0.389767	0.542195	0.494224	-0.556641
59632	-9.629048	-1.204804	-0.635729	0.024092	-0.087247	-0.088179	0.390017	0.542029	0.494103	-0.556735
59633	-9.623155	-1.221168	-0.715554	0.025032	0.000364	-0.086036	0.390238	0.541910	0.493962	-0.556820
59634	-9.654645	-1.171283	-0.691468	0.070280	-0.031859	-0.063008	0.390434	0.541807	0.493843	-0.556890
59635	-9.655788	-1.222306	-0.765265	0.037223	0.055590	-0.050032	0.390665	0.541649	0.493776	-0.556940
59636	-9.650751	-1.208753	-0.728010	0.040857	0.021940	-0.059435	0.390828	0.541543	0.493640	-0.557049
59637	-9.646726	-1.208685	-0.756317	0.046915	0.055094	-0.061430	0.390990	0.541413	0.493509	-0.557178
59638	-9.679384	-1.202188	-0.697049	0.043445	-0.001662	-0.034154	0.391168	0.541272	0.493383	-0.557302
59639	-9.652039	-1.224946	-0.720686	0.024109	0.034611	-0.056666	0.391298	0.541160	0.493205	-0.557477
59640	-9.645492	-1.189635	-0.722488	0.058643	0.035505	-0.067533	0.391444	0.541015	0.493022	-0.557677
59641	-9.666310	-1.190183	-0.712961	0.059122	0.030790	-0.047547	0.391604	0.540858	0.492859	-0.557862
59642	-9.653856	-1.182750	-0.692436	0.061003	0.017191	-0.062237	0.391784	0.540695	0.492680	-0.558051
59643	-9.680520	-1.175129	-0.710054	0.076053	0.037159	-0.035652	0.392028	0.540469	0.492557	-0.558207
59644	-9.652150	-1.165166	-0.660549	0.072274	-0.003243	-0.068320	0.392311	0.540198	0.492477	-0.558341
59645	-9.675772	-1.181530	-0.669944	0.062101	0.014434	-0.042256	0.392597	0.539932	0.492399	-0.558466
59646	-9.655996	-1.179646	-0.667443	0.062408	0.020707	-0.062253	0.392892	0.539626	0.492339	-0.558607
59647	-9.641868	-1.179559	-0.586051	0.044128	-0.049728	-0.081500	0.393152	0.539344	0.492256	-0.558770
59648	-9.652362	-1.189794	-0.580968	0.035491	-0.046589	-0.070111	0.393378	0.539121	0.492175	-0.558897
59649	-9.648065	-1.200338	-0.502341	0.008316	-0.114724	-0.077951	0.393548	0.538924	0.492116	-0.559019
59650	-9.578989	-1.179458	-0.569058	0.037530	-0.043142	-0.144766	0.393619	0.538787	0.491991	-0.559212
59651	-9.644000	-1.051437	-0.638199	0.186328	-0.004842	-0.092358	0.393679	0.538632	0.491927	-0.559374
59652	-9.755337	-1.109760	-0.627315	0.142433	-0.008804	0.024555	0.393935	0.538268	0.492113	-0.559382
59653	-9.688187	-1.175584	-0.625888	0.073960	0.013747	-0.033677	0.394186	0.537902	0.492279	-0.559411
59654	-9.655883	-1.192658	-0.571368	0.045071	-0.028989	-0.066812	0.394410	0.537543	0.492448	-0.559449
59655	-9.604826	-1.241350	-0.592675	0.000222	0.010378	-0.109864	0.394670	0.537165	0.492630	-0.559469
59656	-9.645048	-1.285842	-0.593323	-0.035146	0.020372	-0.064317	0.394841	0.536880	0.492761	-0.559506
59657	-9.641870	-1.311408	-0.582607	-0.060061	0.018995	-0.064821	0.394965	0.536668	0.492776	-0.559609
59658	-9.649192	-1.287562	-0.554788	-0.040041	-0.010074	-0.062262	0.394955	0.536580	0.492658	-0.559804
59659	-9.626110	-1.271042	-0.536181	-0.029164	-0.026050	-0.088311	0.394917	0.536573	0.492470	-0.560003
59660	-9.646420	-1.292099	-0.535449	-0.046656	-0.020694	-0.065532	0.394865	0.536605	0.492276	-0.560179
59661	-9.636433	-1.300803	-0.538102	-0.055347	-0.012032	-0.074142	0.394715	0.536747	0.491945	-0.560441
59662	-9.652158	-1.220093	-0.587227	0.035343	0.020243	-0.066100	0.394510	0.536960	0.491569	-0.560710
59663	-9.659756	-1.174107	-0.555168	0.073298	-0.018703	-0.066309	0.394324	0.537138	0.491235	-0.560964
59664	-9.665992	-1.165431	-0.581025	0.088272	0.006557	-0.059770	0.394193	0.537252	0.490975	-0.561174
59665	-9.648722	-1.199365	-0.608715	0.059777	0.045111	-0.070960	0.394099	0.537348	0.490725	-0.561367
59666	-9.679442	-1.171020	-0.592105	0.087231	0.022908	-0.045122	0.394010	0.537410	0.490510	-0.561556
59667	-9.669495	-1.160299	-0.589274	0.096423	0.021531	-0.056514	0.394026	0.537370	0.490393	-0.561687
59668	-9.689882	-1.161677	-0.583013	0.096795	0.017113	-0.036515	0.394128	0.537246	0.490363	-0.561760
59669	-9.650406	-1.181950	-0.548612	0.066122	-0.005754	-0.074930	0.394275	0.537059	0.490412	-0.561792
59670	-9.668642	-1.210086	-0.488516	0.028363	-0.057015	-0.056585	0.394412	0.536908	0.490453	-0.561805
59671	-9.658483	-1.219907	-0.491758	0.019753	-0.048534	-0.065198	0.394564	0.536701	0.490535	-0.561825
59672	-9.638295	-1.199434	-0.488761	0.037952	-0.052330	-0.087972	0.394651	0.536575	0.490591	-0.561834
59673	-9.658445	-1.201687	-0.484516	0.038376	-0.056860	-0.067963	0.394660	0.536490	0.490662	-0.561847
59674	-9.665368	-1.197809	-0.466440	0.040483	-0.075971	-0.062598	0.394620	0.536438	0.490716	-0.561878
59675	-9.661088	-1.181173	-0.494338	0.064331	-0.052921	-0.067472	0.394522	0.536404	0.490794	-0.561911
59676	-9.648723	-1.159769	-0.429862	0.071291	-0.121126	-0.086026	0.394390	0.536400	0.490896	-0.561919
59677	-9.638876	-1.214160	-0.403685	0.013634	-0.137090	-0.090234	0.394241	0.536415	0.491063	-0.561864
59678	-9.622717	-1.245239	-0.498006	0.005452	-0.041935	-0.097055	0.393920	0.536533	0.491170	-0.561882
59679	-9.642197	-1.250227	-0.499957	0.005884	-0.046356	-0.077042	0.393545	0.536713	0.491272	-0.561884
59680	-9.660487	-1.252491	-0.549097	0.019257	-0.006399	-0.055903	0.393204	0.536872	0.491433	-0.561831
59681	-9.642510	-1.230781	-0.568567	0.044771	0.002135	-0.075435	0.392840	0.537053	0.491581	-0.561781
59682	-9.620162	-1.229945	-0.626355	0.057823	0.052821	-0.094330	0.392544	0.537218	0.491748	-0.561685
59683	-9.679086	-1.214456	-0.661800	0.089439	0.072215	-0.035962	0.392207	0.537382	0.491856	-0.561668
59684	-9.695564	-1.222885	-0.650244	0.082619	0.055463	-0.019203	0.391965	0.537467	0.492024	-0.561609
59685	-9.635534	-1.357021	-0.721625	-0.035822	0.154407	-0.056631	0.391778	0.537524	0.492170	-0.561557
59686	-9.660281	-1.280211	-0.666222	0.030842	0.077879	-0.045559	0.391450	0.537669	0.492125	-0.561686
59687	-9.683459	-1.240176	-0.667476	0.074464	0.065873	-0.027850	0.391439	0.537603	0.492288	-0.561615
59688	-9.648916	-1.313531	-0.681650	0.004461	0.097276	-0.051432	0.391410	0.537524	0.492392	-0.561620
59689	-9.646365	-1.259375	-0.651354	0.051388	0.055879	-0.062976	0.391401	0.537452	0.492441	-0.561652
59690	-9.650314	-1.279004	-0.624727	0.028217	0.034472	-0.058062	0.391450	0.537346	0.492507	-0.561661
59691	-9.667520	-1.285317	-0.606698	0.021373	0.017716	-0.041286	0.391458	0.537267	0.492521	-0.561718
59692	-9.651258	-1.303236	-0.583419	-0.001933	0.001627	-0.056377	0.391525	0.537166	0.492554	-0.561740
59693	-9.641215	-1.293000	-0.581917	0.007297	0.000174	-0.067768	0.391569	0.537093	0.492555	-0.561777
59694	-9.629801	-1.269060	-0.515201	0.014389	-0.067917	-0.086218	0.391620	0.537045	0.492580	-0.561766
59695	-9.626365	-1.312596	-0.513440	-0.028521	-0.059348	-0.083910	0.391639	0.537035	0.492572	-0.561770
59696	-9.631120	-1.271173	-0.470949	0.002233	-0.110560	-0.087261	0.391612	0.537069	0.492602	-0.561729
59697	-9.628954	-1.327936	-0.537117	-0.038441	-0.035324	-0.077907	0.391520	0.537185	0.492590	-0.561693
59698	-9.640261	-1.218658	-0.507240	0.060796	-0.091875	-0.083098	0.391400	0.537329	0.492604	-0.561627
59699	-9.635014	-1.279198	-0.561360	0.012741	-0.028993	-0.076981	0.391303	0.537470	0.492653	-0.561518
59700	-9.665601	-1.250806	-0.551828	0.040171	-0.051127	-0.051097	0.391216	0.537601	0.492736	-0.561379
59701	-9.627186	-1.283573	-0.590510	0.011657	-0.007529	-0.082385	0.391064	0.537768	0.492819	-0.561252
59702	-9.650832	-1.220974	-0.588920	0.073225	-0.029486	-0.067436	0.390919	0.537952	0.492854	-0.561145
59703	-9.635083	-1.290805	-0.649247	0.016250	0.041107	-0.069969	0.390828	0.538090	0.492981	-0.560965
59704	-9.640812	-1.262579	-0.676951	0.049273	0.056748	-0.066305	0.390629	0.538301	0.492971	-0.560910
59705	-9.655014	-1.271263	-0.650825	0.035215	0.027781	-0.052720	0.390499	0.538478	0.493006	-0.560800
59706	-9.649000	-1.278165	-0.628517	0.020944	0.004111	-0.059150	0.390466	0.538589	0.493107	-0.560628
59707	-9.641148	-1.302362	-0.658027	0.001425	0.034793	-0.061807	0.390403	0.538724	0.493182	-0.560476
59708	-9.635951	-1.249347	-0.618580	0.041113	-0.018840	-0.076517	0.390360	0.538853	0.493286	-0.560291
59709	-9.649429	-1.194927	-0.621794	0.093807	-0.033233	-0.070201	0.390343	0.538965	0.493414	-0.560082
59710	-9.642958	-1.241382	-0.611766	0.043583	-0.037001	-0.071093	0.390336	0.539059	0.493603	-0.559830
59711	-9.655041	-1.286828	-0.644540	0.006358	-0.001727	-0.050970	0.390297	0.539182	0.493761	-0.559600
59712	-9.642368	-1.239499	-0.624743	0.044219	-0.035388	-0.071090	0.390141	0.539382	0.493832	-0.559453
59713	-9.639692	-1.276052	-0.689085	0.021424	0.029848	-0.064587	0.390020	0.539564	0.493940	-0.559265
59714	-9.634461	-1.223483	-0.651015	0.061038	-0.023713	-0.079277	0.389858	0.539779	0.494009	-0.559111
59715	-9.646126	-1.289257	-0.689688	0.005838	0.021533	-0.056403	0.389691	0.539987	0.494078	-0.558965
59716	-9.630673	-1.245896	-0.656121	0.036552	-0.024410	-0.079718	0.389525	0.540213	0.494120	-0.558825
59717	-9.637908	-1.292775	-0.721342	0.004636	0.043141	-0.061842	0.389347	0.540466	0.494142	-0.558685
59718	-9.650888	-1.258935	-0.731037	0.039203	0.038660	-0.052772	0.389143	0.540701	0.494152	-0.558591
59719	-9.683491	-1.232574	-0.676685	0.053805	-0.027824	-0.027828	0.389021	0.540922	0.494170	-0.558446
59720	-9.626946	-1.279115	-0.737946	0.014298	0.043286	-0.073246	0.388886	0.541120	0.494160	-0.558357
59721	-9.648599	-1.213374	-0.781660	0.088748	0.065894	-0.057355	0.388676	0.541364	0.494051	-0.558363
59722	-9.681819	-1.200556	-0.790868	0.105473	0.066180	-0.025506	0.388592	0.541511	0.494015	-0.558311
59723	-9.638267	-1.200717	-0.787405	0.098231	0.065255	-0.068765	0.388605	0.541561	0.494060	-0.558214
59724	-9.619214	-1.294130	-0.835648	0.015947	0.133420	-0.071830	0.388560	0.541635	0.494023	-0.558206
59725	-9.640034	-1.221203	-0.750573	0.068185	0.032501	-0.066957	0.388493	0.541747	0.493896	-0.558256
59726	-9.662908	-1.237547	-0.767262	0.058064	0.050239	-0.040988	0.388463	0.541805	0.493824	-0.558285
59727	-9.637450	-1.223138	-0.738053	0.061543	0.021830	-0.070153	0.388546	0.541784	0.493820	-0.558252
59728	-9.634821	-1.226029	-0.724571	0.054611	0.010375	-0.073342	0.388554	0.541812	0.493762	-0.558270
59729	-9.627847	-1.190692	-0.732245	0.089120	0.011225	-0.084312	0.388625	0.541783	0.493781	-0.558231
59730	-9.652042	-1.269435	-0.719570	0.012159	0.014286	-0.050986	0.388711	0.541735	0.493821	-0.558183
59731	-9.631961	-1.247615	-0.718467	0.030258	0.010540	-0.073776	0.388765	0.541712	0.493862	-0.558131
59732	-9.639768	-1.221926	-0.695476	0.050282	-0.018327	-0.071073	0.388787	0.541703	0.493880	-0.558109
59733	-9.629662	-1.210963	-0.695921	0.059468	-0.019825	-0.082467	0.388908	0.541622	0.494017	-0.557981
59734	-9.641535	-1.277262	-0.729466	0.004181	0.025384	-0.059634	0.388933	0.541591	0.494082	-0.557937
59735	-9.640061	-1.215227	-0.759867	0.071132	0.040974	-0.067010	0.388894	0.541616	0.494067	-0.557953
59736	-9.636992	-1.239105	-0.752724	0.046124	0.039484	-0.067437	0.388905	0.541608	0.494074	-0.557947
59737	-9.631510	-1.246880	-0.725762	0.031979	0.015625	-0.073789	0.388931	0.541574	0.494100	-0.557939
59738	-9.644223	-1.253574	-0.741253	0.030645	0.031146	-0.059225	0.388927	0.541568	0.494091	-0.557956
59739	-9.644694	-1.213913	-0.730427	0.066938	0.012173	-0.064734	0.388902	0.541565	0.494071	-0.557993
59740	-9.642184	-1.198218	-0.711234	0.077977	-0.009049	-0.070658	0.388895	0.541543	0.494051	-0.558037
59741	-9.626363	-1.215849	-0.688443	0.054664	-0.025214	-0.085638	0.388879	0.541513	0.494053	-0.558076
59742	-9.645804	-1.277424	-0.702389	0.001290	0.000180	-0.057345	0.388832	0.541525	0.494027	-0.558119
59743	-9.631067	-1.215233	-0.657157	0.049867	-0.055721	-0.083324	0.388787	0.541538	0.493989	-0.558172
59744	-9.635583	-1.267527	-0.702522	0.010795	-0.000458	-0.068740	0.388816	0.541488	0.494040	-0.558155
59745	-9.615388	-1.246617	-0.701427	0.028838	-0.004189	-0.091531	0.388821	0.541470	0.494067	-0.558146
59746	-9.638592	-1.224533	-0.707092	0.054497	-0.006274	-0.071080	0.388804	0.541453	0.494102	-0.558143
59747	-9.630835	-1.230375	-0.726805	0.052994	0.014502	-0.076567	0.388825	0.541417	0.494162	-0.558109
59748	-9.655634	-1.284122	-0.768870	0.014150	0.064411	-0.041963	0.388763	0.541425	0.494137	-0.558167
59749	-9.620560	-1.220920	-0.726934	0.062508	0.013862	-0.087968	0.388722	0.541421	0.494091	-0.558241
59750	-9.663916	-1.220100	-0.733673	0.070392	0.016576	-0.044732	0.388743	0.541379	0.494100	-0.558258
59751	-9.620439	-1.221797	-0.727062	0.062998	0.015624	-0.087974	0.388753	0.541334	0.494096	-0.558299
59752	-9.623121	-1.185114	-0.669445	0.086489	-0.047801	-0.094285	0.388749	0.541280	0.494106	-0.558346
59753	-9.647349	-1.279209	-0.721799	0.011569	0.022068	-0.054199	0.388773	0.541195	0.494139	-0.558382
59754	-9.642375	-1.248362	-0.682457	0.033240	-0.021488	-0.065996	0.388687	0.541192	0.494078	-0.558499
59755	-9.612115	-1.217808	-0.679223	0.060238	-0.027694	-0.100182	0.388686	0.541115	0.494119	-0.558538
59756	-9.647454	-1.243137	-0.710205	0.048453	0.004773	-0.059699	0.388698	0.541028	0.494187	-0.558553
59757	-9.647536	-1.224612	-0.705003	0.066733	-0.004275	-0.062447	0.388692	0.540947	0.494263	-0.558570
59758	-9.617951	-1.296233	-0.684284	-0.008925	-0.005352	-0.083693	0.388635	0.540914	0.494240	-0.558660
59759	-9.644144	-1.251139	-0.697330	0.042047	-0.004838	-0.062849	0.388548	0.540931	0.494210	-0.558731
59760	-9.646369	-1.268359	-0.717178	0.031701	0.018277	-0.056963	0.388513	0.540880	0.494214	-0.558802
59761	-9.605788	-1.246899	-0.719041	0.049571	0.019716	-0.099804	0.388527	0.540815	0.494275	-0.558801
59762	-9.648084	-1.306518	-0.743448	0.003549	0.052200	-0.048339	0.388470	0.540800	0.494285	-0.558846
59763	-9.637999	-1.263309	-0.671882	0.028738	-0.026010	-0.069131	0.388425	0.540794	0.494296	-0.558873
59764	-9.629273	-1.329198	-0.708180	-0.026764	0.024463	-0.066413	0.388380	0.540795	0.494286	-0.558913
59765	-9.610048	-1.248725	-0.689848	0.045250	-0.009141	-0.097437	0.388285	0.540849	0.494219	-0.558985
59766	-9.630270	-1.250507	-0.687358	0.045850	-0.013534	-0.077389	0.388359	0.540756	0.494353	-0.558905
59767	-9.621229	-1.335814	-0.729883	-0.027710	0.046866	-0.071937	0.388370	0.540749	0.494383	-0.558879
59768	-9.630834	-1.224517	-0.744324	0.084301	0.035142	-0.076256	0.388329	0.540781	0.494353	-0.558902
59769	-9.642731	-1.257393	-0.705582	0.045020	0.003819	-0.062862	0.388327	0.540783	0.494328	-0.558925
59770	-9.642061	-1.297102	-0.717556	0.009411	0.024445	-0.057380	0.388361	0.540749	0.494359	-0.558905
59771	-9.621678	-1.295682	-0.721592	0.009403	0.030548	-0.077434	0.388281	0.540817	0.494244	-0.558997
59772	-9.630281	-1.230275	-0.686562	0.065496	-0.018197	-0.080132	0.388276	0.540836	0.494211	-0.559012
59773	-9.644310	-1.298724	-0.672839	-0.002468	-0.017445	-0.058109	0.388263	0.540863	0.494164	-0.559036
59774	-9.624255	-1.277119	-0.671603	0.015598	-0.021333	-0.080901	0.388238	0.540892	0.494141	-0.559045
59775	-9.643269	-1.215858	-0.698606	0.082804	-0.010931	-0.068355	0.388200	0.540959	0.494106	-0.559038
59776	-9.649623	-1.289500	-0.704247	0.013082	0.009673	-0.051861	0.388266	0.540926	0.494173	-0.558964
59777	-9.628905	-1.307469	-0.715118	-0.004733	0.025482	-0.069176	0.388207	0.541008	0.494135	-0.558960
59778	-9.647182	-1.272215	-0.688047	0.024432	-0.010875	-0.057722	0.388175	0.541067	0.494097	-0.558959
59779	-9.630413	-1.206539	-0.690261	0.085832	-0.022207	-0.082878	0.388196	0.541086	0.494125	-0.558900
59780	-9.643887	-1.328009	-0.754687	-0.016152	0.065112	-0.048814	0.388293	0.541061	0.494195	-0.558796
59781	-9.619450	-1.253834	-0.709303	0.041448	0.006877	-0.086061	0.388174	0.541188	0.494057	-0.558877
59782	-9.649880	-1.264882	-0.707886	0.033119	0.004898	-0.054609	0.388248	0.541179	0.494084	-0.558811
59783	-9.654963	-1.275973	-0.742414	0.029890	0.040396	-0.045648	0.388206	0.541264	0.493996	-0.558835
59784	-9.637628	-1.235987	-0.689466	0.053216	-0.017882	-0.071858	0.388235	0.541304	0.493950	-0.558818
59785	-9.601413	-1.284105	-0.741923	0.013762	0.047745	-0.097543	0.388296	0.541303	0.493930	-0.558794
59786	-9.635216	-1.251021	-0.742566	0.048565	0.038265	-0.068457	0.388318	0.541343	0.493868	-0.558795
59787	-9.650393	-1.258687	-0.711920	0.034554	0.009405	-0.054618	0.388366	0.541374	0.493822	-0.558773
59788	-9.660874	-1.247824	-0.708090	0.044041	0.002716	-0.045958	0.388422	0.541393	0.493789	-0.558744
59789	-9.609071	-1.312814	-0.737130	-0.019220	0.051113	-0.086532	0.388440	0.541447	0.493699	-0.558758
59790	-9.633730	-1.209199	-0.719665	0.078407	0.009653	-0.077052	0.388373	0.541567	0.493539	-0.558830
59791	-9.641547	-1.202440	-0.701520	0.080557	-0.009408	-0.071495	0.388433	0.541573	0.493500	-0.558817
59792	-9.643213	-1.277047	-0.737766	0.016196	0.043345	-0.057455	0.388426	0.541624	0.493374	-0.558883
59793	-9.623852	-1.201099	-0.658557	0.068321	-0.047144	-0.092195	0.388347	0.541726	0.493215	-0.558980
59794	-9.670966	-1.296747	-0.661499	-0.019112	-0.026878	-0.032829	0.388410	0.541743	0.493191	-0.558941
59795	-9.587215	-1.274187	-0.657256	-0.009018	-0.027634	-0.118907	0.388349	0.541862	0.493079	-0.558966
59796	-9.597893	-1.243434	-0.648890	0.018384	-0.044248	-0.112974	0.388320	0.541979	0.493027	-0.558918
59797	-9.659588	-1.219430	-0.695441	0.057323	-0.011879	-0.051803	0.388360	0.542045	0.493060	-0.558798
59798	-9.638460	-1.275701	-0.718785	0.003432	0.023665	-0.063667	0.388423	0.542136	0.493083	-0.558645
59799	-9.625570	-1.286578	-0.712684	-0.012612	0.019653	-0.075426	0.388431	0.542240	0.493095	-0.558529
59800	-9.598158	-1.234736	-0.661465	0.019502	-0.041066	-0.112962	0.388452	0.542388	0.493103	-0.558363
59801	-9.562125	-1.261787	-0.711891	-0.002137	0.014564	-0.141446	0.388483	0.542512	0.493170	-0.558162
59802	-9.654577	-1.209159	-0.746961	0.064018	0.024477	-0.054298	0.388413	0.542700	0.493149	-0.558046
59803	-9.642377	-1.160230	-0.725305	0.102021	-0.009155	-0.074251	0.388429	0.542833	0.493184	-0.557876
59804	-9.649099	-1.226020	-0.793543	0.052045	0.068366	-0.054072	0.388535	0.542869	0.493299	-0.557664
59805	-9.583536	-1.162064	-0.822906	0.111099	0.087185	-0.124974	0.388549	0.542958	0.493311	-0.557557
59806	-9.662782	-1.143155	-0.852023	0.142887	0.102077	-0.046866	0.388763	0.542840	0.493490	-0.557365
59807	-9.745233	-1.282195	-0.892594	0.025331	0.163853	0.055587	0.389064	0.542645	0.493693	-0.557165
59808	-9.709591	-1.302738	-0.812045	-0.018270	0.095688	0.017023	0.389267	0.542522	0.493680	-0.557155
59809	-9.588858	-1.200212	-0.742374	0.050861	0.021025	-0.120691	0.389476	0.542407	0.493642	-0.557153
59810	-9.637501	-1.215316	-0.720589	0.035479	0.001520	-0.072235	0.389747	0.542230	0.493696	-0.557089
59811	-9.561331	-1.220727	-0.765320	0.031401	0.057494	-0.143631	0.389992	0.542073	0.493654	-0.557107
59812	-9.671758	-1.193545	-0.780722	0.072534	0.059901	-0.036792	0.390140	0.541985	0.493536	-0.557194
59813	-9.735622	-1.218349	-0.725896	0.042875	0.010687	0.025589	0.390244	0.541898	0.493353	-0.557368
59814	-9.598664	-1.187596	-0.707978	0.054197	0.005334	-0.115110	0.390273	0.541863	0.493122	-0.557586
59815	-9.627043	-1.183074	-0.682242	0.056646	-0.018837	-0.089441	0.390300	0.541801	0.492971	-0.557761
59816	-9.586697	-1.174641	-0.745708	0.076401	0.049138	-0.125976	0.390282	0.541753	0.492773	-0.557995
59817	-9.727172	-1.167653	-0.697732	0.089187	-0.008117	0.008723	0.390343	0.541622	0.492672	-0.558169
59818	-9.719017	-1.220101	-0.663433	0.031730	-0.024564	0.004974	0.390383	0.541491	0.492562	-0.558365
59819	-9.606235	-1.256659	-0.567638	-0.036049	-0.094602	-0.108518	0.390463	0.541352	0.492515	-0.558485
59820	-9.560289	-1.276525	-0.610351	-0.048936	-0.041437	-0.148472	0.390476	0.541282	0.492459	-0.558593
59821	-9.569353	-1.179585	-0.688262	0.065052	0.013781	-0.146601	0.390501	0.541210	0.492449	-0.558655
59822	-9.711870	-1.222039	-0.733792	0.050854	0.055492	0.002942	0.390693	0.541022	0.492555	-0.558609
59823	-9.700754	-1.297195	-0.694010	-0.031804	0.036457	-0.001131	0.390833	0.540894	0.492584	-0.558609
59824	-9.667702	-1.275263	-0.615571	-0.031928	-0.039109	-0.041959	0.390866	0.540857	0.492503	-0.558693
59825	-9.619759	-1.224237	-0.563287	0.000240	-0.094735	-0.099457	0.390919	0.540828	0.492472	-0.558712
59826	-9.546088	-1.226901	-0.624848	0.003223	-0.026379	-0.167854	0.390968	0.540822	0.492454	-0.558699
59827	-9.587791	-1.162792	-0.661594	0.077858	-0.008510	-0.132326	0.390899	0.540890	0.492378	-0.558748
59828	-9.755656	-1.204300	-0.672775	0.058499	-0.003970	0.039843	0.390995	0.540816	0.492427	-0.558709
59829	-9.713386	-1.327098	-0.654274	-0.069630	0.009359	0.012495	0.391044	0.540814	0.492439	-0.558668
59830	-9.609042	-1.290386	-0.587927	-0.061562	-0.053266	-0.099921	0.390932	0.540956	0.492297	-0.558733
59831	-9.585858	-1.056861	-0.498331	0.140138	-0.190368	-0.158771	0.390835	0.541088	0.492254	-0.558711
59832	-9.618450	-1.117535	-0.590790	0.104906	-0.093321	-0.112544	0.391060	0.540966	0.492623	-0.558346
59833	-9.608446	-1.335154	-0.736882	-0.074986	0.092754	-0.084705	0.391149	0.540949	0.492896	-0.558058
59834	-9.639900	-1.212935	-0.640245	0.022839	-0.035121	-0.075797	0.391055	0.541104	0.492950	-0.557927
59835	-9.678161	-1.192090	-0.679433	0.054275	-0.009695	-0.037900	0.391066	0.541180	0.493135	-0.557682
59836	-9.646308	-1.278994	-0.716164	-0.026874	0.043304	-0.055773	0.391022	0.541289	0.493272	-0.557487
59837	-9.641317	-1.239978	-0.742582	0.014874	0.056647	-0.063814	0.390909	0.541438	0.493315	-0.557383
59838	-9.667037	-1.192858	-0.760265	0.065919	0.057345	-0.043097	0.390828	0.541563	0.493370	-0.557270
59839	-9.633068	-1.244064	-0.770052	0.013643	0.078141	-0.069465	0.390691	0.541737	0.493345	-0.557218
59840	-9.671078	-1.249692	-0.752879	0.007228	0.056500	-0.032347	0.390546	0.541907	0.493268	-0.557223
59841	-9.630144	-1.246752	-0.762534	0.007040	0.067511	-0.072517	0.390365	0.542097	0.493142	-0.557276
59842	-9.636299	-1.144975	-0.704443	0.091981	-0.013075	-0.083513	0.390185	0.542297	0.492989	-0.557344
59843	-9.683564	-1.234829	-0.769772	0.024503	0.063934	-0.020646	0.390087	0.542410	0.492952	-0.557334
59844	-9.625347	-1.193253	-0.724564	0.047518	0.015731	-0.086761	0.389974	0.542525	0.492848	-0.557393
59845	-9.647159	-1.289777	-0.764481	-0.034782	0.073225	-0.050052	0.389914	0.542612	0.492780	-0.557412
59846	-9.668337	-1.236285	-0.685509	0.000027	-0.017493	-0.041569	0.389805	0.542771	0.492619	-0.557475
59847	-9.656144	-1.214151	-0.606059	0.000273	-0.098182	-0.062151	0.389883	0.542793	0.492607	-0.557410
59848	-9.630050	-1.272411	-0.660164	-0.048411	-0.030441	-0.076701	0.389986	0.542817	0.492636	-0.557288
59849	-9.605229	-1.210541	-0.681266	0.010946	-0.021796	-0.107567	0.389985	0.542969	0.492539	-0.557226
59850	-9.618844	-1.134474	-0.676764	0.081580	-0.045539	-0.104007	0.390149	0.543002	0.492632	-0.556998
59851	-9.604933	-1.238405	-0.758958	-0.004681	0.056654	-0.098719	0.390255	0.543054	0.492711	-0.556803
59852	-9.638264	-1.223542	-0.768147	0.012239	0.057326	-0.066929	0.390247	0.543210	0.492638	-0.556720
59853	-9.657455	-1.132178	-0.665685	0.075934	-0.065548	-0.066851	0.390293	0.543324	0.492627	-0.556587
59854	-9.651051	-1.270116	-0.740313	-0.044588	0.036521	-0.050479	0.390461	0.543373	0.492683	-0.556371
59855	-9.614256	-1.147297	-0.670533	0.050758	-0.056254	-0.107324	0.390416	0.543562	0.492616	-0.556278
59856	-9.636373	-1.195615	-0.761943	0.024309	0.038480	-0.072684	0.390383	0.543735	0.492599	-0.556147
59857	-9.683178	-1.113761	-0.705168	0.091886	-0.042448	-0.040716	0.390371	0.543916	0.492614	-0.555965
59858	-9.646536	-1.180890	-0.767380	0.034172	0.032759	-0.064006	0.390333	0.544089	0.492659	-0.555783
59859	-9.646706	-1.138915	-0.761561	0.070506	0.013955	-0.069440	0.390288	0.544246	0.492708	-0.555617
59860	-9.664639	-1.121942	-0.744160	0.081835	-0.012442	-0.055079	0.390396	0.544293	0.492902	-0.555323
59861	-9.650738	-1.186891	-0.816932	0.031467	0.069948	-0.055282	0.390476	0.544330	0.493073	-0.555079
59862	-9.645486	-1.147151	-0.842483	0.073130	0.083394	-0.063388	0.390548	0.544340	0.493228	-0.554880
59863	-9.663410	-1.131079	-0.823781	0.084452	0.056990	-0.049027	0.390603	0.544366	0.493365	-0.554694
59864	-9.639697	-1.212676	-0.838868	0.005232	0.089982	-0.061281	0.390605	0.544403	0.493386	-0.554639
59865	-9.658116	-1.156997	-0.806973	0.052737	0.043902	-0.052341	0.390620	0.544442	0.493410	-0.554567
59866	-9.658093	-1.155919	-0.808796	0.052907	0.044815	-0.052347	0.390721	0.544412	0.493466	-0.554476
59867	-9.637544	-1.173414	-0.819075	0.034848	0.060624	-0.069734	0.390896	0.544336	0.493570	-0.554335
59868	-9.665750	-1.187524	-0.804179	0.019272	0.046550	-0.041244	0.391002	0.544305	0.493596	-0.554268
59869	-9.622883	-1.148170	-0.786195	0.047955	0.025275	-0.089862	0.391075	0.544287	0.493606	-0.554226
59870	-9.651261	-1.142594	-0.765245	0.050456	0.001293	-0.064076	0.391263	0.544175	0.493721	-0.554100
59871	-9.651169	-1.161466	-0.771614	0.032678	0.011913	-0.061367	0.391422	0.544073	0.493824	-0.553995
59872	-9.669426	-1.145395	-0.749314	0.044074	-0.014464	-0.046980	0.391654	0.543935	0.493953	-0.553853
59873	-9.626128	-1.165444	-0.748251	0.018529	-0.006003	-0.087457	0.391873	0.543827	0.494060	-0.553709
59874	-9.654390	-1.179437	-0.733136	0.003176	-0.020189	-0.058950	0.391949	0.543815	0.494071	-0.553656
59875	-9.616181	-1.152079	-0.749026	0.028168	-0.006794	-0.098861	0.392029	0.543804	0.494117	-0.553570
59876	-9.641916	-1.170377	-0.720878	0.005431	-0.033316	-0.073341	0.392087	0.543817	0.494149	-0.553487
59877	-9.656904	-1.171814	-0.751679	0.011311	-0.005263	-0.055956	0.392053	0.543897	0.494105	-0.553471
59878	-9.642362	-1.108305	-0.707524	0.060160	-0.061096	-0.081463	0.392091	0.543939	0.494126	-0.553385
59879	-9.631598	-1.176159	-0.731595	-0.002726	-0.023414	-0.082029	0.392114	0.543980	0.494177	-0.553283
59880	-9.643928	-1.201494	-0.755224	-0.022009	0.002137	-0.064928	0.391972	0.544163	0.494077	-0.553292
59881	-9.642251	-1.085080	-0.710464	0.079248	-0.068521	-0.084163	0.391863	0.544311	0.494070	-0.553230
59882	-9.625660	-1.174794	-0.774195	0.003559	0.011294	-0.084753	0.391811	0.544423	0.494135	-0.553098
59883	-9.653879	-1.149643	-0.751546	0.024046	-0.022472	-0.061647	0.391668	0.544612	0.494126	-0.553022
59884	-9.632887	-1.187455	-0.770860	-0.012114	0.003136	-0.076332	0.391661	0.544702	0.494219	-0.552856
59885	-9.660508	-1.135950	-0.802388	0.046035	0.016541	-0.052707	0.391467	0.544927	0.494140	-0.552841
59886	-9.667178	-1.143508	-0.853936	0.050072	0.064439	-0.041071	0.391381	0.545034	0.494185	-0.552757
59887	-9.623927	-1.105127	-0.838933	0.078612	0.043141	-0.089671	0.391225	0.545204	0.494150	-0.552731
59888	-9.625550	-1.160567	-0.873520	0.032117	0.085830	-0.078584	0.391182	0.545269	0.494215	-0.552639
59889	-9.659597	-1.114486	-0.811579	0.065462	0.010057	-0.055425	0.391062	0.545393	0.494175	-0.552637
59890	-9.627422	-1.156259	-0.893134	0.039841	0.100021	-0.075630	0.391021	0.545437	0.494199	-0.552601
59891	-9.661554	-1.110510	-0.830137	0.073111	0.024308	-0.052459	0.390928	0.545520	0.494151	-0.552629
59892	-9.650771	-1.159976	-0.847546	0.028052	0.052290	-0.055755	0.390880	0.545556	0.494140	-0.552637
59893	-9.627833	-1.163067	-0.838178	0.020889	0.045673	-0.078834	0.390812	0.545603	0.494113	-0.552662
59894	-9.658765	-1.115044	-0.820666	0.066639	0.014462	-0.055439	0.390797	0.545606	0.494137	-0.552649
59895	-9.640363	-1.130267	-0.844473	0.055810	0.042598	-0.069879	0.390737	0.545637	0.494094	-0.552699
59896	-9.641194	-1.137021	-0.785360	0.036359	-0.013620	-0.073041	0.390760	0.545588	0.494163	-0.552670
59897	-9.628102	-1.190661	-0.788054	-0.015859	0.001885	-0.079301	0.390736	0.545592	0.494148	-0.552696
59898	-9.661390	-1.138908	-0.784154	0.037132	-0.016916	-0.052933	0.390716	0.545583	0.494186	-0.552685
59899	-9.668670	-1.193814	-0.784333	-0.014558	-0.006500	-0.039085	0.390651	0.545595	0.494214	-0.552693
59900	-9.620241	-1.118269	-0.787806	0.055372	-0.015177	-0.095852	0.390566	0.545622	0.494213	-0.552728
59901	-9.637936	-1.143882	-0.778605	0.030691	-0.021853	-0.076000	0.390554	0.545617	0.494323	-0.552644
59902	-9.611179	-1.184755	-0.827993	-0.000213	0.035878	-0.093496	0.390538	0.545613	0.494413	-0.552578
59903	-9.644138	-1.153252	-0.831308	0.034899	0.026906	-0.064431	0.390492	0.545605	0.494508	-0.552533
59904	-9.654327	-1.124583	-0.823909	0.062408	0.010568	-0.058430	0.390525	0.545560	0.494655	-0.552423
59905	-9.622923	-1.173151	-0.845272	0.017230	0.043355	-0.081848	0.390535	0.545534	0.494760	-0.552347
59906	-9.663791	-1.155630	-0.835677	0.036183	0.024498	-0.044331	0.390577	0.545488	0.494878	-0.552258
59907	-9.630490	-1.168216	-0.831311	0.019750	0.025347	-0.076101	0.390628	0.545427	0.494998	-0.552174
59908	-9.624558	-1.170236	-0.865366	0.025209	0.058521	-0.078913	0.390638	0.545389	0.495079	-0.552132
59909	-9.638083	-1.163794	-0.816492	0.022281	0.007400	-0.070348	0.390620	0.545379	0.495122	-0.552116
59910	-9.635786	-1.148444	-0.798249	0.033414	-0.013890	-0.075994	0.390611	0.545344	0.495171	-0.552113
59911	-9.645335	-1.199401	-0.812290	-0.011152	0.008931	-0.059192	0.390595	0.545329	0.495227	-0.552089
59912	-9.604597	-1.158077	-0.808682	0.024601	0.000083	-0.104815	0.390531	0.545340	0.495254	-0.552099
59913	-9.635099	-1.150749	-0.803208	0.034524	-0.011471	-0.075995	0.390433	0.545366	0.495299	-0.552103
59914	-9.634559	-1.171778	-0.811306	0.016610	-0.000646	-0.073297	0.390368	0.545381	0.495363	-0.552075
59915	-9.639711	-1.191437	-0.787641	-0.006397	-0.022332	-0.067771	0.390242	0.545432	0.495434	-0.552051
59916	-9.641962	-1.149192	-0.793547	0.037107	-0.028664	-0.070224	0.390073	0.545513	0.495480	-0.552049
59917	-9.633632	-1.136192	-0.809979	0.053463	-0.017774	-0.078691	0.389981	0.545547	0.495608	-0.551966
59918	-9.642977	-1.168292	-0.821130	0.026822	-0.004717	-0.064589	0.389822	0.545598	0.495727	-0.551922
59919	-9.634555	-1.155743	-0.837754	0.043122	0.006156	-0.073061	0.389697	0.545638	0.495835	-0.551872
59920	-9.656922	-1.134950	-0.847188	0.069083	0.004728	-0.052709	0.389539	0.545677	0.495978	-0.551817
59921	-9.618435	-1.177062	-0.822970	0.020268	-0.009512	-0.087640	0.389411	0.545710	0.496129	-0.551739
59922	-9.622263	-1.171483	-0.855420	0.034901	0.016117	-0.081779	0.389196	0.545784	0.496247	-0.551711
59923	-9.616752	-1.202034	-0.837957	0.002897	0.001913	-0.084945	0.388946	0.545876	0.496350	-0.551704
59924	-9.614526	-1.149059	-0.812079	0.050175	-0.039143	-0.095957	0.388643	0.546015	0.496428	-0.551709
59925	-9.642040	-1.167583	-0.802077	0.034642	-0.053291	-0.067356	0.388469	0.546048	0.496652	-0.551598
59926	-9.593736	-1.209703	-0.857252	0.003360	0.009282	-0.105066	0.388249	0.546117	0.496829	-0.551525
59927	-9.626222	-1.180525	-0.864125	0.038390	0.000439	-0.076003	0.388032	0.546190	0.497010	-0.551442
59928	-9.629359	-1.165831	-0.818891	0.044312	-0.053104	-0.078751	0.387863	0.546230	0.497289	-0.551270
59929	-9.574209	-1.249054	-0.918559	-0.017919	0.061204	-0.113961	0.387713	0.546258	0.497558	-0.551105
59930	-9.631499	-1.213048	-0.951084	0.031868	0.072281	-0.058941	0.387504	0.546322	0.497771	-0.550996
59931	-9.645322	-1.198758	-0.980606	0.055695	0.090568	-0.044394	0.387326	0.546350	0.497982	-0.550903
59932	-9.652866	-1.205936	-1.046567	0.066637	0.150872	-0.030040	0.387182	0.546342	0.498133	-0.550876
59933	-9.651491	-1.248608	-1.060778	0.030799	0.171343	-0.024672	0.387089	0.546288	0.498261	-0.550879
59934	-9.628381	-1.254106	-1.050539	0.023651	0.164721	-0.047727	0.386888	0.546314	0.498158	-0.551087
59935	-9.625628	-1.164842	-0.993362	0.099970	0.091593	-0.067024	0.386814	0.546237	0.498124	-0.551246
59936	-9.603600	-1.245798	-1.016688	0.027570	0.136569	-0.076395	0.386756	0.546139	0.498045	-0.551456
59937	-9.614282	-1.209110	-0.924039	0.046454	0.040935	-0.078912	0.386802	0.545955	0.498026	-0.551622
59938	-9.612489	-1.310880	-0.948731	-0.043446	0.090762	-0.065467	0.386791	0.545820	0.497943	-0.551838
59939	-9.623990	-1.233656	-0.844083	0.011453	-0.024385	-0.073342	0.386834	0.545686	0.497836	-0.552038
59940	-9.623301	-1.304335	-0.936610	-0.033775	0.085291	-0.056764	0.386898	0.545548	0.497730	-0.552225
59941	-9.622532	-1.249259	-0.901282	0.013498	0.044323	-0.067743	0.386902	0.545469	0.497514	-0.552494
59942	-9.611362	-1.203366	-0.870007	0.051473	0.010653	-0.087436	0.387000	0.545316	0.497406	-0.552673
59943	-9.618781	-1.258295	-0.864187	-0.000497	0.021038	-0.073559	0.387086	0.545177	0.497290	-0.552855
59944	-9.641110	-1.266157	-0.796515	-0.019322	-0.040061	-0.056325	0.387153	0.545055	0.497123	-0.553079
59945	-9.612486	-1.290445	-0.818438	-0.039401	-0.004843	-0.079579	0.387266	0.544921	0.496981	-0.553259
59946	-9.600272	-1.303280	-0.804225	-0.055525	-0.009142	-0.091197	0.387258	0.544926	0.496711	-0.553503
59947	-9.614072	-1.249484	-0.798639	-0.002735	-0.022802	-0.084950	0.387237	0.544945	0.496447	-0.553735
59948	-9.592117	-1.231270	-0.778601	0.008162	-0.039371	-0.110660	0.387238	0.544970	0.496213	-0.553920
59949	-9.602564	-1.240370	-0.777451	-0.000347	-0.036100	-0.099250	0.387350	0.544936	0.496112	-0.553965
59950	-9.617819	-1.221853	-0.799090	0.023502	-0.017730	-0.084736	0.387346	0.544970	0.495914	-0.554112
59951	-9.630804	-1.207299	-0.806828	0.040155	-0.011716	-0.073119	0.387516	0.544878	0.495880	-0.554115
59952	-9.628197	-1.249489	-0.802560	-0.002954	-0.003750	-0.070641	0.387584	0.544886	0.495763	-0.554164
59953	-9.630423	-1.263986	-0.820979	-0.013482	0.019369	-0.065064	0.387620	0.544917	0.495629	-0.554227
59954	-9.627504	-1.190158	-0.770046	0.044728	-0.043874	-0.081585	0.387714	0.544911	0.495560	-0.554230
59955	-9.608273	-1.263046	-0.808876	-0.020331	0.013503	-0.088086	0.387810	0.544912	0.495501	-0.554213
59956	-9.622853	-1.234025	-0.752815	-0.005049	-0.047478	-0.081985	0.387910	0.544898	0.495470	-0.554186
59957	-9.599288	-1.209042	-0.796503	0.025314	-0.006853	-0.104864	0.387893	0.544990	0.495335	-0.554228
59958	-9.639070	-1.153588	-0.760514	0.073380	-0.057444	-0.075536	0.388014	0.544967	0.495355	-0.554148
59959	-9.630865	-1.313160	-0.838020	-0.065672	0.053996	-0.057022	0.388011	0.545050	0.495251	-0.554160
59960	-9.618863	-1.149181	-0.765126	0.073717	-0.050841	-0.095664	0.387906	0.545201	0.495080	-0.554239
59961	-9.610196	-1.193151	-0.795743	0.035875	-0.010640	-0.096140	0.387958	0.545240	0.495081	-0.554163
59962	-9.644404	-1.255394	-0.840223	-0.012179	0.041978	-0.050791	0.387958	0.545319	0.495027	-0.554133
59963	-9.634675	-1.223495	-0.834803	0.014963	0.030689	-0.064886	0.387905	0.545432	0.494921	-0.554154
59964	-9.613172	-1.145044	-0.803345	0.079952	-0.015187	-0.098629	0.387889	0.545522	0.494879	-0.554113
59965	-9.673125	-1.246679	-0.824241	-0.008994	0.020064	-0.024815	0.387954	0.545553	0.494910	-0.554011
59966	-9.642873	-1.213796	-0.822068	0.017868	0.013614	-0.059043	0.387904	0.545639	0.494825	-0.554037
59967	-9.616276	-1.183405	-0.773617	0.032519	-0.037578	-0.093159	0.387840	0.545737	0.494766	-0.554038
59968	-9.632710	-1.201549	-0.824121	0.027407	0.012905	-0.070455	0.387812	0.545804	0.494732	-0.554021
59969	-9.622567	-1.190210	-0.824590	0.036612	0.011213	-0.081866	0.387711	0.545932	0.494640	-0.554048
59970	-9.655590	-1.177241	-0.833162	0.053697	0.012421	-0.050135	0.387621	0.546056	0.494544	-0.554075
59971	-9.626458	-1.170687	-0.776854	0.043045	-0.041470	-0.084422	0.387573	0.546138	0.494534	-0.554036
59972	-9.612581	-1.263105	-0.791904	-0.045342	-0.006654	-0.085295	0.387510	0.546242	0.494533	-0.553979
59973	-9.605940	-1.148377	-0.780188	0.061269	-0.044773	-0.107236	0.387421	0.546350	0.494538	-0.553930
59974	-9.603226	-1.202021	-0.860535	0.026733	0.042521	-0.096474	0.387356	0.546454	0.494598	-0.553820
59975	-9.654828	-1.154685	-0.843361	0.073135	0.006821	-0.052827	0.387248	0.546553	0.494625	-0.553774
59976	-9.639748	-1.202055	-0.907904	0.040347	0.079089	-0.056352	0.387284	0.546534	0.494756	-0.553650
59977	-9.629700	-1.171555	-0.903718	0.067651	0.067773	-0.070449	0.387266	0.546542	0.494818	-0.553600
59978	-9.639009	-1.222044	-0.918077	0.023111	0.090580	-0.053691	0.387350	0.546463	0.494950	-0.553500
59979	-9.635140	-1.189807	-0.880111	0.045133	0.047019	-0.064769	0.387416	0.546389	0.494999	-0.553483
59980	-9.623405	-1.143377	-0.854139	0.083264	0.013368	-0.084395	0.387569	0.546232	0.495151	-0.553396
59981	-9.638018	-1.252005	-0.851074	-0.020757	0.033311	-0.056577	0.387743	0.546071	0.495276	-0.553321
59982	-9.651990	-1.264586	-0.805933	-0.041671	-0.008057	-0.044995	0.387880	0.545938	0.495349	-0.553290
59983	-9.613291	-1.258410	-0.824893	-0.034983	0.014800	-0.082427	0.387966	0.545857	0.495343	-0.553316
59984	-9.622481	-1.192543	-0.789608	0.021677	-0.033552	-0.084574	0.388093	0.545758	0.495418	-0.553256
59985	-9.623896	-1.247688	-0.820125	-0.025014	0.009086	-0.073694	0.388218	0.545690	0.495428	-0.553228
59986	-9.624363	-1.226476	-0.814434	-0.006693	0.000210	-0.076370	0.388306	0.545674	0.495400	-0.553207
59987	-9.618535	-1.226696	-0.846621	-0.001280	0.033162	-0.079411	0.388437	0.545626	0.495411	-0.553152
59988	-9.629118	-1.215708	-0.842404	0.008250	0.026660	-0.070679	0.388534	0.545606	0.495390	-0.553123
59989	-9.626333	-1.152091	-0.871924	0.075148	0.042871	-0.078912	0.388645	0.545575	0.495384	-0.553080
59990	-9.641855	-1.218758	-0.857736	0.007406	0.043326	-0.056432	0.388872	0.545473	0.495431	-0.552979
59991	-9.632030	-1.206186	-0.856176	0.016568	0.041642	-0.067846	0.388983	0.545450	0.495404	-0.552947
59992	-9.641077	-1.158696	-0.826186	0.055126	0.003191	-0.067305	0.389195	0.545358	0.495401	-0.552892
59993	-9.642529	-1.232475	-0.861566	-0.009759	0.055531	-0.053769	0.389382	0.545278	0.495409	-0.552833
59994	-9.618525	-1.197302	-0.824526	0.011887	0.016747	-0.084944	0.389505	0.545256	0.495332	-0.552836
59995	-9.652151	-1.163189	-0.824711	0.047027	0.008284	-0.055900	0.389645	0.545212	0.495277	-0.552830
59996	-9.629788	-1.164086	-0.812765	0.039743	0.001483	-0.078885	0.389826	0.545134	0.495276	-0.552781
59997	-9.597247	-1.154809	-0.799735	0.041342	-0.007908	-0.113278	0.389919	0.545101	0.495244	-0.552777
59998	-9.629973	-1.181159	-0.817345	0.022302	0.012910	-0.076215	0.390004	0.545078	0.495207	-0.552772
59999	-9.661197	-1.151904	-0.804364	0.050242	-0.008024	-0.050002	0.390011	0.545091	0.495133	-0.552820
60000	-9.623995	-1.201145	-0.854498	0.009788	0.056694	-0.076626	0.390041	0.545094	0.495051	-0.552869
60001	-9.694446	-1.138410	-0.810324	0.067598	-0.005855	-0.018286	0.390052	0.545085	0.494998	-0.552918
60002	-9.632347	-1.194838	-0.835321	0.012608	0.038746	-0.070725	0.390094	0.545033	0.494965	-0.552969
60003	-9.635087	-1.151198	-0.837127	0.056320	0.032532	-0.073247	0.390051	0.545028	0.494861	-0.553098
60004	-9.643682	-1.156156	-0.897071	0.067047	0.093033	-0.059284	0.390031	0.544997	0.494760	-0.553233
60005	-9.660168	-1.145475	-0.858380	0.071511	0.054463	-0.047459	0.390066	0.544924	0.494644	-0.553384
60006	-9.668257	-1.160554	-0.842907	0.055874	0.045273	-0.038876	0.390127	0.544779	0.494613	-0.553511
60007	-9.627442	-1.159544	-0.845596	0.055443	0.055742	-0.079187	0.390235	0.544590	0.494590	-0.553642
60008	-9.629359	-1.146771	-0.776583	0.054495	-0.010302	-0.084397	0.390390	0.544359	0.494632	-0.553722
60009	-9.626514	-1.211808	-0.776217	-0.006551	0.007402	-0.079205	0.390466	0.544182	0.494616	-0.553856
60010	-9.634701	-1.207617	-0.755262	-0.004127	-0.011511	-0.073280	0.390586	0.543983	0.494668	-0.553921
60011	-9.603434	-1.256941	-0.771244	-0.049589	0.020903	-0.096836	0.390658	0.543844	0.494644	-0.554028
60012	-9.604017	-1.217718	-0.757803	-0.013156	0.002255	-0.102174	0.390744	0.543721	0.494627	-0.554104
60013	-9.658153	-1.166935	-0.748499	0.040504	-0.020737	-0.055647	0.390897	0.543559	0.494673	-0.554113
60014	-9.649633	-1.212629	-0.776347	0.002582	0.019273	-0.056243	0.391122	0.543311	0.494827	-0.554060
60015	-9.624756	-1.219607	-0.750127	-0.011738	-0.000152	-0.082018	0.391213	0.543203	0.494844	-0.554088
60016	-9.612958	-1.173186	-0.722645	0.026367	-0.033823	-0.101575	0.391305	0.543103	0.494865	-0.554101
60017	-9.632524	-1.253941	-0.741357	-0.045202	0.001220	-0.070744	0.391454	0.542965	0.494938	-0.554066
60018	-9.609465	-1.170627	-0.767408	0.039325	0.012532	-0.101899	0.391491	0.542917	0.494914	-0.554108
60019	-9.648218	-1.176353	-0.747350	0.033416	-0.008645	-0.064392	0.391706	0.542739	0.495077	-0.553985
60020	-9.661906	-1.258308	-0.799151	-0.033181	0.058638	-0.036703	0.391790	0.542672	0.495100	-0.553971
60021	-9.633467	-1.192744	-0.723949	0.010537	-0.024665	-0.078741	0.391858	0.542619	0.495126	-0.553951
60022	-9.638008	-1.184450	-0.751875	0.025136	0.001154	-0.073139	0.391907	0.542589	0.495102	-0.553967
60023	-9.644407	-1.142420	-0.708636	0.056580	-0.049601	-0.075325	0.392050	0.542486	0.495197	-0.553883
60024	-9.645226	-1.257693	-0.756963	-0.044435	0.022210	-0.056526	0.392060	0.542475	0.495184	-0.553897
60025	-9.629565	-1.159036	-0.686175	0.033785	-0.065702	-0.089660	0.392063	0.542477	0.495176	-0.553901
60026	-9.645852	-1.197663	-0.741586	0.010557	-0.005416	-0.064525	0.391980	0.542528	0.495139	-0.553942
60027	-9.648139	-1.174388	-0.751449	0.036286	-0.001863	-0.064399	0.391814	0.542624	0.495082	-0.554016
60028	-9.648105	-1.155507	-0.747741	0.054721	-0.010697	-0.067066	0.391648	0.542706	0.495047	-0.554086
60029	-9.631741	-1.148398	-0.780405	0.068891	0.019803	-0.081647	0.391429	0.542783	0.495002	-0.554205
60030	-9.664613	-1.118596	-0.783534	0.104127	0.011371	-0.052618	0.391278	0.542795	0.495073	-0.554236
60031	-9.618513	-1.146471	-0.769240	0.071288	0.006393	-0.095857	0.391177	0.542766	0.495149	-0.554268
60032	-9.607416	-1.178525	-0.780854	0.044250	0.024277	-0.101943	0.391076	0.542695	0.495274	-0.554297
60033	-9.646231	-1.303021	-0.810716	-0.063135	0.074020	-0.045629	0.391049	0.542613	0.495448	-0.554241
60034	-9.650624	-1.227355	-0.744371	-0.002511	-0.008808	-0.055898	0.390974	0.542597	0.495523	-0.554243
60035	-9.592921	-1.362618	-0.762489	-0.135099	0.042183	-0.094549	0.391078	0.542516	0.495685	-0.554103
60036	-9.605667	-1.329051	-0.768751	-0.100284	0.038506	-0.085681	0.391000	0.542609	0.495648	-0.554101
60037	-9.623063	-1.237185	-0.712511	-0.023348	-0.038985	-0.084400	0.391015	0.542692	0.495675	-0.553985
60038	-9.614101	-1.300102	-0.751146	-0.079445	0.010799	-0.082375	0.391051	0.542833	0.495673	-0.553822
60039	-9.622686	-1.271526	-0.730991	-0.058869	-0.017835	-0.079064	0.390918	0.543120	0.495493	-0.553796
60040	-9.615478	-1.213549	-0.736509	-0.006362	-0.026401	-0.093026	0.390859	0.543406	0.495374	-0.553663
60041	-9.642687	-1.228801	-0.865047	0.005951	0.096404	-0.054084	0.390763	0.543707	0.495199	-0.553592
60042	-9.666012	-1.182161	-0.868777	0.049994	0.085550	-0.036479	0.390660	0.544020	0.494999	-0.553537
60043	-9.664539	-1.142143	-0.846913	0.079405	0.054370	-0.044586	0.390549	0.544327	0.494757	-0.553530
60044	-9.625029	-1.182123	-0.806386	0.023338	0.026859	-0.081933	0.390522	0.544550	0.494599	-0.553470
60045	-9.648098	-1.156093	-0.814405	0.049372	0.025730	-0.061662	0.390363	0.544837	0.494361	-0.553514
60046	-9.636186	-1.126792	-0.795784	0.069437	0.001848	-0.078511	0.390290	0.545038	0.494194	-0.553515
60047	-9.648177	-1.170665	-0.823944	0.031783	0.037134	-0.059007	0.390256	0.545214	0.494035	-0.553508
60048	-9.656581	-1.162405	-0.807345	0.034266	0.018239	-0.053024	0.390256	0.545337	0.493934	-0.553477
60049	-9.628264	-1.144724	-0.824050	0.050141	0.033829	-0.081847	0.390193	0.545499	0.493747	-0.553528
60050	-9.652668	-1.165328	-0.782009	0.020657	-0.004986	-0.058556	0.390298	0.545539	0.493757	-0.553406
60051	-9.629346	-1.245796	-0.794607	-0.058875	0.026883	-0.070843	0.390154	0.545758	0.493545	-0.553482
60052	-9.610355	-1.103369	-0.760684	0.067684	-0.035556	-0.109640	0.389985	0.545979	0.493356	-0.553551
60053	-9.643258	-1.089904	-0.770117	0.084844	-0.034162	-0.077955	0.389829	0.546169	0.493243	-0.553574
60054	-9.656925	-1.151581	-0.818659	0.036313	0.023456	-0.053042	0.389757	0.546306	0.493187	-0.553539
60055	-9.642452	-1.147591	-0.792209	0.031271	-0.003308	-0.069974	0.389606	0.546492	0.493085	-0.553553
60056	-9.636160	-1.148690	-0.827267	0.036642	0.029634	-0.073221	0.389462	0.546657	0.493018	-0.553551
60057	-9.617948	-1.103446	-0.836302	0.079883	0.028351	-0.095963	0.389323	0.546807	0.492966	-0.553547
60058	-9.649879	-1.170615	-0.868137	0.024648	0.068614	-0.053648	0.389304	0.546856	0.493011	-0.553472
60059	-9.623039	-1.171277	-0.905229	0.029456	0.106470	-0.077083	0.389230	0.546926	0.492967	-0.553494
60060	-9.658186	-1.135102	-0.921855	0.071935	0.110689	-0.045323	0.389194	0.546949	0.492912	-0.553545
60061	-9.658590	-1.095304	-0.910770	0.108463	0.092041	-0.050653	0.389213	0.546892	0.492892	-0.553606
60062	-9.674140	-1.184503	-0.900498	0.022684	0.102020	-0.025348	0.389224	0.546806	0.492855	-0.553717
60063	-9.623471	-1.133420	-0.891356	0.067179	0.090231	-0.082441	0.389169	0.546734	0.492713	-0.553952
60064	-9.638448	-1.087408	-0.826499	0.101060	0.019841	-0.078489	0.389167	0.546605	0.492585	-0.554195
60065	-9.656386	-1.164596	-0.900777	0.048605	0.112045	-0.045469	0.389305	0.546333	0.492572	-0.554378
60066	-9.673315	-1.135285	-0.853714	0.071378	0.063768	-0.036106	0.389406	0.546076	0.492522	-0.554604
60067	-9.689603	-1.166264	-0.822203	0.039829	0.044691	-0.018760	0.389589	0.545724	0.492521	-0.554823
60068	-9.628801	-1.125962	-0.813096	0.075017	0.040027	-0.084610	0.389893	0.545255	0.492640	-0.554965
60069	-9.651324	-1.165644	-0.827930	0.046620	0.068157	-0.056386	0.390212	0.544795	0.492721	-0.555121
60070	-9.702554	-1.200899	-0.821093	0.020978	0.071807	-0.001964	0.390490	0.544313	0.492786	-0.555340
60071	-9.622798	-1.185844	-0.758544	0.018525	0.024382	-0.087519	0.390753	0.543830	0.492809	-0.555608
60072	-9.659873	-1.178864	-0.710509	0.023682	-0.018891	-0.055292	0.391008	0.543361	0.492837	-0.555863
60073	-9.632989	-1.192705	-0.662891	0.002174	-0.050901	-0.083666	0.391325	0.542831	0.492925	-0.556080
60074	-9.604712	-1.181071	-0.670273	0.017998	-0.035386	-0.112527	0.391499	0.542409	0.492932	-0.556362
60075	-9.653580	-1.201496	-0.644031	0.003439	-0.053839	-0.063479	0.391619	0.542028	0.492926	-0.556654
60076	-9.659396	-1.203698	-0.605007	-0.001123	-0.085173	-0.060170	0.391741	0.541659	0.492952	-0.556905
60077	-9.646186	-1.260968	-0.600158	-0.053385	-0.070236	-0.066337	0.391774	0.541364	0.492926	-0.557191
60078	-9.602203	-1.130756	-0.534903	0.058510	-0.153028	-0.130736	0.391751	0.541137	0.492927	-0.557427
60079	-9.592019	-1.280316	-0.588828	-0.069973	-0.064584	-0.118169	0.391742	0.540901	0.493054	-0.557551
60080	-9.614752	-1.242146	-0.587535	-0.025932	-0.075307	-0.100570	0.391435	0.540910	0.492964	-0.557837
60081	-9.647533	-1.214666	-0.588616	0.009446	-0.083554	-0.071553	0.391227	0.540850	0.493014	-0.557996
60082	-9.635671	-1.288676	-0.610370	-0.053773	-0.046378	-0.072341	0.390977	0.540818	0.493087	-0.558138
60083	-9.654403	-1.268613	-0.663933	-0.015673	-0.002652	-0.052696	0.390688	0.540857	0.493119	-0.558274
60084	-9.615303	-1.246969	-0.680854	0.009091	0.010345	-0.092998	0.390320	0.540948	0.493099	-0.558461
60085	-9.629779	-1.214396	-0.701711	0.051090	0.019459	-0.081459	0.390077	0.540948	0.493191	-0.558550
60086	-9.646594	-1.263580	-0.698398	0.008635	0.022565	-0.058684	0.389769	0.541002	0.493232	-0.558676
60087	-9.617532	-1.252574	-0.716921	0.024413	0.038077	-0.087576	0.389471	0.541037	0.493289	-0.558800
60088	-9.664286	-1.217124	-0.670800	0.056984	-0.021895	-0.049181	0.389302	0.541009	0.493430	-0.558821
60089	-9.614663	-1.340413	-0.744478	-0.047392	0.078761	-0.076967	0.389120	0.540979	0.493566	-0.558856
60090	-9.633572	-1.269078	-0.708788	0.018879	0.023690	-0.070114	0.388934	0.540965	0.493688	-0.558891
60091	-9.643445	-1.293542	-0.792253	0.018588	0.106529	-0.051270	0.388805	0.540927	0.493811	-0.558909
60092	-9.606004	-1.275940	-0.748749	0.024081	0.062247	-0.093659	0.388668	0.540900	0.493887	-0.558963
60093	-9.652815	-1.289881	-0.791509	0.028521	0.101103	-0.042525	0.388581	0.540831	0.493962	-0.559024
60094	-9.652800	-1.272644	-0.786508	0.046953	0.092173	-0.045187	0.388510	0.540740	0.494019	-0.559111
60095	-9.661369	-1.345793	-0.803389	-0.015879	0.124713	-0.025817	0.388496	0.540610	0.494054	-0.559215
60096	-9.638197	-1.254502	-0.749550	0.060358	0.056730	-0.064683	0.388392	0.540550	0.493945	-0.559442
60097	-9.664865	-1.236115	-0.706743	0.074386	0.011026	-0.043787	0.388517	0.540296	0.494068	-0.559492
60098	-9.642926	-1.413366	-0.769878	-0.081659	0.116323	-0.037406	0.388570	0.540096	0.494088	-0.559631
60099	-9.634747	-1.274714	-0.653297	0.028041	-0.023047	-0.072117	0.388440	0.540027	0.493922	-0.559934
60100	-9.638791	-1.289602	-0.683280	0.024530	0.012495	-0.064073	0.388486	0.539852	0.493915	-0.560077
60101	-9.654232	-1.320499	-0.654386	-0.007041	-0.006645	-0.046622	0.388410	0.539755	0.493787	-0.560337
60102	-9.631825	-1.305242	-0.634680	0.003883	-0.023505	-0.072155	0.388423	0.539604	0.493755	-0.560500
60103	-9.609006	-1.309632	-0.620960	-0.003237	-0.030583	-0.095035	0.388270	0.539606	0.493576	-0.560763
60104	-9.617477	-1.285778	-0.595111	0.017474	-0.059188	-0.091606	0.388184	0.539557	0.493478	-0.560955
60105	-9.648423	-1.375819	-0.626830	-0.055890	-0.009059	-0.046693	0.387982	0.539609	0.493284	-0.561215
60106	-9.629676	-1.392832	-0.647331	-0.067092	0.018620	-0.061542	0.387672	0.539758	0.492978	-0.561556
60107	-9.583461	-1.257644	-0.632561	0.056924	-0.019464	-0.126568	0.387445	0.539857	0.492748	-0.561818
60108	-9.647621	-1.335462	-0.671297	0.000431	0.031357	-0.050018	0.387244	0.539945	0.492528	-0.562066
60109	-9.652575	-1.309327	-0.692461	0.033063	0.047579	-0.047305	0.387185	0.539917	0.492433	-0.562216
60110	-9.620021	-1.398218	-0.718813	-0.048804	0.098908	-0.065670	0.387018	0.540024	0.492143	-0.562483
60111	-9.660332	-1.228048	-0.634579	0.101499	-0.021746	-0.054510	0.386848	0.540105	0.491852	-0.562776
60112	-9.631660	-1.349324	-0.698344	-0.002540	0.074079	-0.062214	0.386895	0.540041	0.491716	-0.562923
60113	-9.671379	-1.315132	-0.664413	0.028054	0.033844	-0.029812	0.386872	0.540026	0.491492	-0.563149
60114	-9.634980	-1.325222	-0.699765	0.023541	0.078652	-0.062201	0.386953	0.539922	0.491332	-0.563334
60115	-9.657448	-1.246183	-0.671139	0.096809	0.036159	-0.052614	0.387041	0.539793	0.491171	-0.563537
60116	-9.655045	-1.269929	-0.657393	0.072064	0.034094	-0.052646	0.387248	0.539549	0.491133	-0.563663
60117	-9.635220	-1.365312	-0.695432	-0.011621	0.100495	-0.056924	0.387521	0.539257	0.491122	-0.563763
60118	-9.651834	-1.353616	-0.653252	-0.006745	0.061930	-0.044728	0.387709	0.539036	0.490993	-0.563957
60119	-9.626850	-1.262737	-0.581614	0.062524	-0.018738	-0.086189	0.388059	0.538683	0.490983	-0.564062
60120	-9.665604	-1.339709	-0.650108	0.010412	0.068898	-0.033296	0.388488	0.538279	0.491062	-0.564084
60121	-9.636182	-1.352645	-0.590652	-0.018048	0.024271	-0.064169	0.388753	0.537984	0.490961	-0.564271
60122	-9.621014	-1.272687	-0.519857	0.042395	-0.053819	-0.094190	0.388946	0.537757	0.490839	-0.564461
60123	-9.600968	-1.316661	-0.467716	-0.013095	-0.086252	-0.110969	0.389110	0.537558	0.490737	-0.564626
60124	-9.586758	-1.364769	-0.524084	-0.046276	-0.014251	-0.115222	0.389181	0.537434	0.490617	-0.564800
60125	-9.654611	-1.326429	-0.468159	-0.012926	-0.078689	-0.056472	0.389204	0.537365	0.490475	-0.564972
60126	-9.631882	-1.283589	-0.504345	0.035184	-0.047870	-0.082755	0.389215	0.537329	0.490356	-0.565102
60127	-9.634036	-1.344907	-0.472597	-0.030704	-0.062826	-0.074008	0.389260	0.537285	0.490329	-0.565136
60128	-9.616422	-1.319889	-0.484238	-0.005544	-0.054523	-0.094191	0.389143	0.537360	0.490199	-0.565257
60129	-9.641607	-1.268731	-0.559067	0.064864	0.004723	-0.072123	0.389173	0.537324	0.490230	-0.565245
60130	-9.653548	-1.250864	-0.629656	0.100653	0.068382	-0.058852	0.389229	0.537235	0.490308	-0.565224
60131	-9.672344	-1.332841	-0.647802	0.029077	0.103322	-0.028065	0.389362	0.537066	0.490448	-0.565171
60132	-9.660278	-1.306395	-0.626651	0.049289	0.079496	-0.044802	0.389469	0.536918	0.490468	-0.565220
60133	-9.634326	-1.352945	-0.610469	-0.001197	0.079147	-0.065016	0.389649	0.536703	0.490542	-0.565236
60134	-9.641498	-1.271521	-0.554591	0.066906	0.009075	-0.072140	0.389726	0.536533	0.490529	-0.565356
60135	-9.675643	-1.337213	-0.593545	0.018795	0.062076	-0.027275	0.389949	0.536261	0.490650	-0.565356
60136	-9.651173	-1.304284	-0.555330	0.040868	0.023062	-0.058074	0.389960	0.536136	0.490563	-0.565541
60137	-9.649809	-1.294661	-0.472512	0.033244	-0.055606	-0.065174	0.389997	0.535971	0.490518	-0.565712
60138	-9.646093	-1.360209	-0.471640	-0.027750	-0.038236	-0.059868	0.389948	0.535883	0.490455	-0.565883
60139	-9.568760	-1.323706	-0.366271	-0.024043	-0.140508	-0.146913	0.389774	0.535909	0.490340	-0.566078
60140	-9.651146	-1.361949	-0.438254	-0.031719	-0.068655	-0.056362	0.389625	0.535928	0.490329	-0.566173
60141	-9.615623	-1.314081	-0.463622	0.017947	-0.052954	-0.096781	0.389475	0.535961	0.490345	-0.566231
60142	-9.639005	-1.345122	-0.561232	0.015684	0.044991	-0.064227	0.389338	0.535975	0.490418	-0.566248
60143	-9.659143	-1.303265	-0.609689	0.071768	0.079266	-0.047554	0.389199	0.535999	0.490427	-0.566313
60144	-9.666357	-1.319408	-0.598496	0.056356	0.070034	-0.038772	0.389119	0.535969	0.490521	-0.566315
60145	-9.642302	-1.363897	-0.599430	0.012872	0.082169	-0.056325	0.389075	0.535878	0.490598	-0.566365
60146	-9.618431	-1.363281	-0.648691	0.024711	0.132302	-0.077419	0.389027	0.535794	0.490606	-0.566470
60147	-9.686817	-1.286672	-0.584763	0.094420	0.048588	-0.023887	0.389019	0.535683	0.490607	-0.566580
60148	-9.635727	-1.391552	-0.633643	0.000753	0.126471	-0.057219	0.389146	0.535474	0.490657	-0.566647
60149	-9.659726	-1.375446	-0.576119	0.007975	0.068437	-0.038777	0.389216	0.535315	0.490614	-0.566787
60150	-9.649820	-1.365626	-0.571603	0.017136	0.066729	-0.050211	0.389300	0.535166	0.490529	-0.566943
60151	-9.635304	-1.387642	-0.484244	-0.024755	-0.007763	-0.065973	0.389548	0.534898	0.490609	-0.566955
60152	-9.603397	-1.455540	-0.503808	-0.088568	0.033562	-0.087016	0.389726	0.534720	0.490532	-0.567068
60153	-9.634186	-1.350449	-0.452161	0.005166	-0.038067	-0.073887	0.389865	0.534580	0.490465	-0.567163
60154	-9.636026	-1.386267	-0.473697	-0.023748	-0.005334	-0.065968	0.390055	0.534430	0.490442	-0.567193
60155	-9.630118	-1.452496	-0.459042	-0.091964	-0.000588	-0.063268	0.390114	0.534413	0.490288	-0.567301
60156	-9.624574	-1.356705	-0.448539	-0.003032	-0.028411	-0.082660	0.390059	0.534491	0.490025	-0.567494
60157	-9.634871	-1.365858	-0.447722	-0.011553	-0.025011	-0.071229	0.390061	0.534547	0.489857	-0.567584
60158	-9.601351	-1.370646	-0.500443	-0.009179	0.032112	-0.101151	0.390046	0.534648	0.489657	-0.567672
60159	-9.669962	-1.381531	-0.536729	-0.004191	0.066625	-0.030029	0.390056	0.534726	0.489465	-0.567758
60160	-9.679343	-1.288449	-0.556217	0.089957	0.066565	-0.032777	0.390049	0.534809	0.489225	-0.567890
60161	-9.674184	-1.358386	-0.481712	0.002846	0.013960	-0.031742	0.390137	0.534831	0.489039	-0.567971
60162	-9.634726	-1.338123	-0.420925	0.001350	-0.043109	-0.076474	0.390149	0.534929	0.488787	-0.568086
60163	-9.611918	-1.357722	-0.413875	-0.024123	-0.040716	-0.096647	0.390156	0.535042	0.488547	-0.568181
60164	-9.652191	-1.280723	-0.371884	0.042894	-0.100119	-0.069409	0.390170	0.535155	0.488378	-0.568210
60165	-9.646353	-1.320302	-0.415049	0.011731	-0.047703	-0.067680	0.390295	0.535181	0.488355	-0.568120
60166	-9.636597	-1.307268	-0.415391	0.021001	-0.049277	-0.079105	0.390261	0.535307	0.488238	-0.568125
60167	-9.675364	-1.266105	-0.446411	0.070494	-0.031927	-0.044935	0.390282	0.535410	0.488179	-0.568064
60168	-9.647529	-1.248781	-0.464686	0.086185	-0.016504	-0.073976	0.390306	0.535467	0.488164	-0.568007
60169	-9.678046	-1.396066	-0.514672	-0.041551	0.062544	-0.021221	0.390324	0.535510	0.488181	-0.567939
60170	-9.664236	-1.331286	-0.471870	0.007947	0.006713	-0.045787	0.390288	0.535589	0.488111	-0.567950
60171	-9.632122	-1.281725	-0.451284	0.045780	-0.022306	-0.085321	0.390271	0.535666	0.488062	-0.567931
60172	-9.638729	-1.354944	-0.455764	-0.024141	-0.002537	-0.068555	0.390293	0.535702	0.488097	-0.567852
60173	-9.608666	-1.321924	-0.455202	0.002640	-0.009397	-0.102844	0.390190	0.535857	0.487999	-0.567861
60174	-9.618137	-1.326288	-0.518967	0.013107	0.051331	-0.089822	0.390168	0.535965	0.487986	-0.567785
60175	-9.695394	-1.271727	-0.525527	0.074969	0.037570	-0.020492	0.390185	0.536021	0.488019	-0.567692
60176	-9.646300	-1.338728	-0.507904	-0.001248	0.038629	-0.060776	0.390311	0.535990	0.488105	-0.567562
60177	-9.636718	-1.306401	-0.503779	0.026144	0.027204	-0.074854	0.390342	0.536042	0.488110	-0.567486
60178	-9.661018	-1.267279	-0.446401	0.051521	-0.040469	-0.058907	0.390430	0.536041	0.488206	-0.567345
60179	-9.637111	-1.283827	-0.504033	0.045110	0.019336	-0.077505	0.390502	0.536022	0.488349	-0.567189
60180	-9.660535	-1.240787	-0.507606	0.089314	0.008956	-0.059991	0.390589	0.535976	0.488517	-0.567029
60181	-9.651070	-1.326616	-0.549595	0.014717	0.068037	-0.055625	0.390640	0.535950	0.488650	-0.566903
60182	-9.661315	-1.317118	-0.548018	0.024463	0.061906	-0.046844	0.390667	0.535929	0.488744	-0.566823
60183	-9.665067	-1.278292	-0.493566	0.049299	-0.001250	-0.051093	0.390721	0.535891	0.488840	-0.566739
60184	-9.639005	-1.324575	-0.481502	-0.001333	-0.001774	-0.071190	0.390737	0.535858	0.488964	-0.566652
60185	-9.656834	-1.329864	-0.467107	-0.007448	-0.017959	-0.053549	0.390739	0.535840	0.489093	-0.566557
60186	-9.616239	-1.352848	-0.421678	-0.045193	-0.055885	-0.092868	0.390615	0.535948	0.489101	-0.566533
60187	-9.629861	-1.279948	-0.419811	0.026144	-0.078528	-0.089423	0.390441	0.536093	0.489143	-0.566479
60188	-9.627975	-1.315569	-0.495621	0.009060	-0.001010	-0.082622	0.390328	0.536192	0.489285	-0.566341
60189	-9.621215	-1.358568	-0.543833	-0.022090	0.051354	-0.080981	0.390150	0.536335	0.489367	-0.566257
60190	-9.629735	-1.248106	-0.565200	0.090295	0.041708	-0.086479	0.389902	0.536553	0.489361	-0.566227
60191	-9.688953	-1.287588	-0.631371	0.074843	0.105853	-0.019041	0.389859	0.536558	0.489550	-0.566089
60192	-9.648188	-1.382722	-0.681500	-0.009677	0.176501	-0.043724	0.389832	0.536562	0.489652	-0.566016
60193	-9.670557	-1.329109	-0.604875	0.026853	0.086643	-0.032920	0.389895	0.536495	0.489759	-0.565942
60194	-9.672038	-1.430359	-0.585848	-0.075206	0.090926	-0.018631	0.390023	0.536409	0.489830	-0.565875
60195	-9.627110	-1.342589	-0.464289	-0.025280	-0.042627	-0.081454	0.390143	0.536351	0.489871	-0.565811
60196	-9.591425	-1.311699	-0.493905	0.006190	-0.017431	-0.119412	0.390305	0.536270	0.489953	-0.565705
60197	-9.637500	-1.285568	-0.511273	0.039888	-0.009891	-0.076477	0.390366	0.536271	0.489952	-0.565663
60198	-9.670035	-1.312785	-0.529615	0.020843	0.011299	-0.039617	0.390466	0.536231	0.490022	-0.565571
60199	-9.652347	-1.287283	-0.542180	0.045868	0.019559	-0.059925	0.390419	0.536275	0.489925	-0.565645
60200	-9.629938	-1.269260	-0.526814	0.056747	0.002659	-0.085353	0.390470	0.536249	0.489983	-0.565585
60201	-9.641860	-1.361236	-0.504072	-0.036028	-0.000217	-0.062241	0.390527	0.536195	0.490068	-0.565524
60202	-9.653283	-1.291692	-0.485784	0.028180	-0.035227	-0.061365	0.390509	0.536208	0.490101	-0.565494
60203	-9.660857	-1.306065	-0.475109	0.012676	-0.044499	-0.052485	0.390500	0.536209	0.490196	-0.565417
60204	-9.592838	-1.345019	-0.529982	-0.020224	0.021127	-0.111572	0.390376	0.536310	0.490207	-0.565398
60205	-9.578647	-1.301988	-0.493872	0.011116	-0.025060	-0.133389	0.390152	0.536488	0.490158	-0.565426
60206	-9.692258	-1.290275	-0.551977	0.049650	0.016483	-0.019495	0.390092	0.536538	0.490232	-0.565356
60207	-9.681687	-1.416431	-0.604855	-0.061281	0.094706	-0.009909	0.390112	0.536537	0.490361	-0.565231
60208	-9.642119	-1.282418	-0.503168	0.039207	-0.033003	-0.072790	0.389977	0.536652	0.490329	-0.565243
60209	-9.609901	-1.285540	-0.573561	0.048397	0.036870	-0.100423	0.389985	0.536669	0.490429	-0.565135
60210	-9.600828	-1.331401	-0.605409	0.009952	0.076690	-0.101402	0.389896	0.536757	0.490446	-0.565099
60211	-9.704083	-1.393736	-0.622847	-0.034152	0.096888	0.010199	0.389812	0.536858	0.490436	-0.565069
60212	-9.676020	-1.391449	-0.506842	-0.063279	-0.015199	-0.024218	0.389611	0.537067	0.490263	-0.565158
60213	-9.632568	-1.360295	-0.416831	-0.060612	-0.107370	-0.076399	0.389424	0.537288	0.490141	-0.565183
60214	-9.568008	-1.334111	-0.470441	-0.032166	-0.058127	-0.140897	0.389154	0.537610	0.489951	-0.565228
60215	-9.572730	-1.240413	-0.542068	0.073738	-0.013211	-0.145009	0.388873	0.537945	0.489759	-0.565270
60216	-9.714491	-1.359030	-0.631120	-0.004772	0.084375	0.016324	0.388817	0.538093	0.489836	-0.565100
60217	-9.688671	-1.403454	-0.621330	-0.055538	0.083713	-0.003713	0.388643	0.538366	0.489719	-0.565061
60218	-9.654788	-1.304735	-0.499437	0.003949	-0.056950	-0.057512	0.388478	0.538645	0.489581	-0.565029
60219	-9.604628	-1.249372	-0.498616	0.048239	-0.069117	-0.114682	0.388395	0.538852	0.489568	-0.564899
60220	-9.616518	-1.305912	-0.608965	0.018225	0.045762	-0.088941	0.388389	0.539018	0.489657	-0.564668
60221	-9.614531	-1.202201	-0.635233	0.121031	0.043323	-0.103337	0.388310	0.539213	0.489687	-0.564510
60222	-9.735461	-1.306876	-0.649076	0.034223	0.065909	0.031240	0.388551	0.539186	0.489975	-0.564120
60223	-9.647005	-1.426902	-0.668777	-0.090854	0.116894	-0.038942	0.388626	0.539280	0.490039	-0.563923
60224	-9.661747	-1.278997	-0.572404	0.027277	-0.014008	-0.049906	0.388606	0.539456	0.490000	-0.563802
60225	-9.630078	-1.313034	-0.514580	-0.026330	-0.062135	-0.080129	0.388651	0.539575	0.490065	-0.563601
60226	-9.612580	-1.265651	-0.526047	0.016665	-0.063540	-0.103106	0.388567	0.539803	0.490031	-0.563469
60227	-9.602849	-1.232714	-0.525622	0.043892	-0.074800	-0.117171	0.388509	0.540002	0.490110	-0.563250
60228	-9.622873	-1.263586	-0.614232	0.034344	0.010930	-0.087857	0.388403	0.540225	0.490190	-0.563039
60229	-9.669343	-1.281820	-0.589393	0.013016	-0.019586	-0.040989	0.388389	0.540372	0.490422	-0.562706
60230	-9.653518	-1.348542	-0.663746	-0.038715	0.061793	-0.043133	0.388252	0.540627	0.490564	-0.562432
60231	-9.608320	-1.214982	-0.599511	0.066453	-0.033707	-0.109603	0.388030	0.540954	0.490573	-0.562263
60232	-9.615725	-1.239121	-0.674389	0.058473	0.036794	-0.094271	0.387972	0.541143	0.490777	-0.561943
60233	-9.632315	-1.314307	-0.760823	0.005474	0.129070	-0.062249	0.387866	0.541333	0.490939	-0.561692
60234	-9.681276	-1.193030	-0.699587	0.111330	0.031324	-0.033808	0.387658	0.541584	0.490970	-0.561566
60235	-9.655879	-1.218392	-0.685912	0.078817	0.021032	-0.056443	0.387671	0.541652	0.491164	-0.561321
60236	-9.638793	-1.354504	-0.698822	-0.053189	0.061333	-0.054472	0.387650	0.541737	0.491327	-0.561111
60237	-9.641905	-1.386673	-0.742505	-0.075116	0.106657	-0.044193	0.387405	0.542010	0.491218	-0.561113
60238	-9.619991	-1.231591	-0.680296	0.055788	0.009819	-0.090515	0.387189	0.542259	0.491127	-0.561100
60239	-9.635873	-1.347126	-0.772915	-0.033514	0.121362	-0.053264	0.387152	0.542383	0.491151	-0.560985
60240	-9.664173	-1.352365	-0.834408	-0.022434	0.177826	-0.020382	0.387144	0.542468	0.491094	-0.560958
60241	-9.663332	-1.168621	-0.834727	0.153163	0.137014	-0.045384	0.387125	0.542579	0.490897	-0.561037
60242	-9.667082	-1.199083	-0.872198	0.131185	0.182308	-0.035133	0.387523	0.542344	0.491037	-0.560867
60243	-9.663682	-1.328890	-0.812598	-0.010255	0.158199	-0.025559	0.387822	0.542156	0.491030	-0.560848
60244	-9.642645	-1.297418	-0.712862	-0.007060	0.061598	-0.057267	0.388063	0.542025	0.490890	-0.560931
60245	-9.670466	-1.273643	-0.668416	0.007428	0.016282	-0.035851	0.388415	0.541794	0.490863	-0.560933
60246	-9.652439	-1.294900	-0.612087	-0.029802	-0.026294	-0.054644	0.388874	0.541499	0.490945	-0.560829
60247	-9.614761	-1.246284	-0.617315	0.012559	-0.023444	-0.097894	0.389221	0.541300	0.490909	-0.560812
60248	-9.616620	-1.163183	-0.592932	0.085492	-0.060955	-0.108414	0.389670	0.541031	0.491003	-0.560678
60249	-9.629223	-1.295369	-0.729856	-0.010319	0.104933	-0.069921	0.389961	0.540861	0.490966	-0.560671
60250	-9.697270	-1.177473	-0.640246	0.089071	-0.009550	-0.023644	0.390239	0.540676	0.490903	-0.560712
60251	-9.649310	-1.264612	-0.620748	-0.005646	0.000528	-0.061087	0.390614	0.540406	0.490961	-0.560659
60252	-9.676431	-1.261908	-0.582620	-0.009372	-0.035200	-0.037011	0.390819	0.540254	0.490936	-0.560685
60253	-9.600232	-1.158207	-0.518921	0.067429	-0.109733	-0.129785	0.391028	0.540084	0.490969	-0.560674
60254	-9.635310	-1.298308	-0.594751	-0.046416	-0.005532	-0.072238	0.391204	0.539947	0.491012	-0.560646
60255	-9.622253	-1.214481	-0.543570	0.021224	-0.070909	-0.099155	0.391177	0.539968	0.490916	-0.560729
60256	-9.634084	-1.249698	-0.490842	-0.024024	-0.115226	-0.086208	0.391350	0.539861	0.491104	-0.560546
60257	-9.635122	-1.316514	-0.602468	-0.063737	0.006609	-0.069606	0.391422	0.539845	0.491197	-0.560429
60258	-9.620179	-1.207147	-0.609401	0.040825	-0.011026	-0.098027	0.391387	0.539932	0.491204	-0.560365
60259	-9.641183	-1.166981	-0.599278	0.078034	-0.033675	-0.083033	0.391625	0.539812	0.491485	-0.560068
60260	-9.619620	-1.372276	-0.752204	-0.089582	0.159717	-0.068330	0.391738	0.539794	0.491639	-0.559871
60261	-9.640225	-1.215586	-0.696082	0.049648	0.066909	-0.071579	0.391680	0.539918	0.491603	-0.559823
60262	-9.675268	-1.207289	-0.645926	0.048312	0.011671	-0.041142	0.391813	0.539890	0.491724	-0.559651
60263	-9.641193	-1.289100	-0.736220	-0.015501	0.119631	-0.058619	0.391922	0.539862	0.491786	-0.559547
60264	-9.673024	-1.219199	-0.714474	0.049430	0.080445	-0.037443	0.391937	0.539909	0.491713	-0.559555
60265	-9.648790	-1.195211	-0.757924	0.078868	0.120896	-0.061724	0.392010	0.539897	0.491639	-0.559580
60266	-9.667190	-1.218855	-0.745161	0.054615	0.114401	-0.041333	0.392082	0.539853	0.491542	-0.559657
60267	-9.701740	-1.262252	-0.779581	0.024327	0.157865	0.000532	0.392169	0.539782	0.491391	-0.559798
60268	-9.678270	-1.216917	-0.659966	0.038839	0.039039	-0.036067	0.392207	0.539730	0.491146	-0.560036
60269	-9.646168	-1.197379	-0.563290	0.032767	-0.050715	-0.076368	0.392371	0.539575	0.491030	-0.560172
60270	-9.610795	-1.263481	-0.627690	-0.019890	0.035033	-0.098979	0.392528	0.539454	0.490885	-0.560306
60271	-9.620183	-1.196740	-0.589940	0.037240	-0.012384	-0.100499	0.392569	0.539414	0.490712	-0.560467
60272	-9.665410	-1.210907	-0.614213	0.034737	0.014620	-0.052448	0.392687	0.539291	0.490607	-0.560594
60273	-9.616402	-1.214577	-0.634202	0.031404	0.043706	-0.099310	0.392679	0.539253	0.490406	-0.560813
60274	-9.674395	-1.184741	-0.583817	0.056052	-0.012686	-0.048720	0.392796	0.539131	0.490335	-0.560910
60275	-9.648624	-1.302348	-0.661293	-0.041719	0.094853	-0.054684	0.392883	0.539004	0.490242	-0.561053
60276	-9.684914	-1.195378	-0.578273	0.047914	-0.008285	-0.037284	0.392925	0.538924	0.490096	-0.561229
60277	-9.653785	-1.243940	-0.592280	0.001852	0.022997	-0.061112	0.393024	0.538805	0.490003	-0.561354
60278	-9.666674	-1.199480	-0.514282	0.029312	-0.059726	-0.058540	0.393077	0.538720	0.489888	-0.561499
60279	-9.645624	-1.258562	-0.530254	-0.025578	-0.025762	-0.070927	0.393098	0.538676	0.489764	-0.561635
60280	-9.650376	-1.200035	-0.466362	0.017685	-0.098522	-0.077323	0.393058	0.538671	0.489643	-0.561773
60281	-9.617939	-1.183537	-0.527662	0.044690	-0.038559	-0.108025	0.393122	0.538608	0.489693	-0.561745
60282	-9.666726	-1.231043	-0.594372	0.019704	0.032962	-0.049857	0.393181	0.538546	0.489744	-0.561718
60283	-9.662942	-1.209692	-0.635836	0.049730	0.069081	-0.053956	0.393189	0.538526	0.489753	-0.561724
60284	-9.656708	-1.200967	-0.588947	0.047253	0.022463	-0.063921	0.393194	0.538486	0.489763	-0.561751
60285	-9.659822	-1.251592	-0.479944	-0.025992	-0.072457	-0.060608	0.393270	0.538412	0.489865	-0.561680
60286	-9.646050	-1.364994	-0.497977	-0.132972	-0.029416	-0.058768	0.393274	0.538408	0.489922	-0.561631
60287	-9.602347	-1.230063	-0.441380	-0.020833	-0.112372	-0.122493	0.393106	0.538579	0.489874	-0.561626
60288	-9.624820	-1.226971	-0.456833	-0.012830	-0.103275	-0.099784	0.393064	0.538675	0.489992	-0.561460
60289	-9.607587	-1.289252	-0.588661	-0.046373	0.035513	-0.101302	0.392920	0.538877	0.490055	-0.561313
60290	-9.627034	-1.184271	-0.626086	0.064102	0.041683	-0.093201	0.392663	0.539170	0.490029	-0.561233
60291	-9.642400	-1.242973	-0.691574	0.022085	0.111802	-0.066604	0.392556	0.539363	0.490092	-0.561067
60292	-9.658011	-1.290063	-0.676824	-0.027278	0.102245	-0.045993	0.392406	0.539584	0.490064	-0.560984
60293	-9.666889	-1.222880	-0.647538	0.029979	0.054829	-0.047465	0.392147	0.539888	0.489893	-0.561023
60294	-9.675069	-1.215826	-0.633597	0.032733	0.036090	-0.041082	0.392000	0.540097	0.489833	-0.560977
60295	-9.637651	-1.254159	-0.607406	-0.016207	0.019825	-0.074848	0.391792	0.540351	0.489699	-0.560994
60296	-9.681091	-1.211556	-0.609091	0.028825	0.005621	-0.037130	0.391503	0.540640	0.489512	-0.561081
60297	-9.658424	-1.213393	-0.601156	0.021504	-0.001944	-0.059822	0.391397	0.540802	0.489459	-0.561045
60298	-9.684453	-1.242902	-0.654277	0.007181	0.051640	-0.027045	0.391092	0.541092	0.489269	-0.561143
60299	-9.642706	-1.123800	-0.617650	0.108209	-0.009053	-0.085694	0.390989	0.541225	0.489215	-0.561134
60300	-9.722725	-1.259112	-0.719640	0.009481	0.111840	0.016963	0.390947	0.541282	0.489224	-0.561101
60301	-9.678492	-1.184358	-0.677656	0.067245	0.057712	-0.038881	0.390712	0.541443	0.489016	-0.561291
60302	-9.638867	-1.062703	-0.652034	0.175403	0.009641	-0.095106	0.390754	0.541357	0.489028	-0.561334
60303	-9.658585	-1.153008	-0.595307	0.078149	-0.025661	-0.067672	0.390988	0.541091	0.489278	-0.561209
60304	-9.651636	-1.353685	-0.693082	-0.091822	0.115731	-0.043088	0.391164	0.540833	0.489513	-0.561131
60305	-9.693682	-1.128657	-0.537059	0.095551	-0.089443	-0.039630	0.391168	0.540737	0.489555	-0.561183
60306	-9.679328	-1.255346	-0.631854	-0.004123	0.033178	-0.031920	0.391354	0.540464	0.489783	-0.561118
60307	-9.603345	-1.123052	-0.485623	0.083754	-0.130888	-0.132957	0.391484	0.540214	0.489999	-0.561079
60308	-9.585505	-1.325303	-0.662875	-0.070077	0.087491	-0.113968	0.391689	0.539934	0.490366	-0.560885
60309	-9.624132	-1.205032	-0.520784	0.019412	-0.082533	-0.099807	0.391607	0.539889	0.490494	-0.560874
60310	-9.629216	-1.236528	-0.576412	0.004336	-0.024682	-0.087337	0.391590	0.539803	0.490741	-0.560752
60311	-9.656983	-1.274058	-0.570276	-0.028635	-0.028471	-0.055427	0.391535	0.539753	0.490984	-0.560626
60312	-9.649738	-1.298549	-0.612589	-0.041958	0.014155	-0.056818	0.391383	0.539809	0.491164	-0.560521
60313	-9.598868	-1.227898	-0.606632	0.020333	-0.007932	-0.116630	0.391159	0.539935	0.491289	-0.560446
60314	-9.620191	-1.266851	-0.634682	-0.008000	0.020396	-0.088731	0.391122	0.539945	0.491576	-0.560211
60315	-9.576158	-1.260821	-0.706557	0.009522	0.087193	-0.128473	0.390961	0.540058	0.491735	-0.560074
60316	-9.612804	-1.222305	-0.743058	0.059111	0.105281	-0.094787	0.390929	0.540076	0.491993	-0.559853
60317	-9.647199	-1.207163	-0.770168	0.083525	0.120301	-0.060897	0.390867	0.540127	0.492154	-0.559706
60318	-9.675402	-1.339351	-0.805386	-0.033464	0.176962	-0.013530	0.391005	0.540005	0.492488	-0.559433
60319	-9.641456	-1.275646	-0.766236	0.015450	0.125384	-0.057888	0.390826	0.540129	0.492421	-0.559497
60320	-9.648084	-1.253671	-0.731017	0.029437	0.084496	-0.056479	0.391062	0.539938	0.492688	-0.559282
60321	-9.633048	-1.377955	-0.827767	-0.070351	0.207049	-0.048889	0.391068	0.539917	0.492659	-0.559323
60322	-9.664023	-1.185254	-0.665908	0.082543	0.005766	-0.053858	0.391026	0.539964	0.492549	-0.559405
60323	-9.649395	-1.338057	-0.692396	-0.060978	0.067700	-0.046811	0.391123	0.539900	0.492548	-0.559399
60324	-9.638461	-1.387114	-0.705719	-0.106439	0.094482	-0.050423	0.390912	0.540076	0.492218	-0.559667
60325	-9.643913	-1.182613	-0.665365	0.082751	0.012401	-0.074138	0.390782	0.540206	0.491942	-0.559875
60326	-9.624280	-1.257235	-0.701395	0.016587	0.068315	-0.081582	0.390794	0.540224	0.491793	-0.559980
60327	-9.657732	-1.224336	-0.702072	0.052126	0.061189	-0.052706	0.390683	0.540327	0.491548	-0.560174
60328	-9.658826	-1.212102	-0.621058	0.045146	-0.017663	-0.058433	0.390797	0.540267	0.491484	-0.560207
60329	-9.657784	-1.291156	-0.640709	-0.027330	0.021318	-0.047997	0.390853	0.540249	0.491412	-0.560249
60330	-9.642903	-1.230187	-0.580801	0.015372	-0.047122	-0.074423	0.390982	0.540192	0.491396	-0.560228
60331	-9.629028	-1.225519	-0.551332	0.010517	-0.074230	-0.090628	0.391181	0.540081	0.491495	-0.560110
60332	-9.635509	-1.309739	-0.634745	-0.052265	0.024998	-0.068048	0.391374	0.539983	0.491633	-0.559947
60333	-9.651693	-1.220193	-0.565773	0.018839	-0.064078	-0.067961	0.391439	0.539991	0.491710	-0.559827
60334	-9.645790	-1.181211	-0.590300	0.060136	-0.050189	-0.077245	0.391553	0.539955	0.491888	-0.559626
60335	-9.616088	-1.225126	-0.625206	0.020906	-0.006557	-0.098754	0.391601	0.539977	0.492032	-0.559444
60336	-9.619784	-1.217109	-0.657967	0.035248	0.019622	-0.093999	0.391561	0.540054	0.492173	-0.559273
60337	-9.637411	-1.261621	-0.657141	-0.007151	0.022697	-0.070889	0.391527	0.540112	0.492340	-0.559095
60338	-9.620720	-1.233238	-0.687770	0.024639	0.043492	-0.089022	0.391468	0.540187	0.492482	-0.558939
60339	-9.646363	-1.243267	-0.737855	0.028487	0.087695	-0.059024	0.391392	0.540271	0.492617	-0.558792
60340	-9.664585	-1.248006	-0.726137	0.022584	0.071738	-0.041129	0.391268	0.540393	0.492667	-0.558717
60341	-9.647257	-1.259811	-0.766059	0.017967	0.111666	-0.054064	0.391157	0.540494	0.492690	-0.558676
60342	-9.635255	-1.233287	-0.748582	0.038277	0.087688	-0.070493	0.391085	0.540538	0.492746	-0.558635
60343	-9.661341	-1.223634	-0.790094	0.060234	0.122283	-0.043119	0.391085	0.540522	0.492763	-0.558635
60344	-9.655241	-1.254394	-0.754091	0.021422	0.094692	-0.047627	0.391178	0.540470	0.492820	-0.558570
60345	-9.633819	-1.312820	-0.772458	-0.033540	0.128307	-0.060094	0.391193	0.540466	0.492731	-0.558642
60346	-9.619390	-1.232826	-0.706850	0.027461	0.050295	-0.089063	0.391090	0.540544	0.492547	-0.558801
60347	-9.654601	-1.196997	-0.721862	0.070181	0.055982	-0.057835	0.391008	0.540576	0.492366	-0.558986
60348	-9.698675	-1.252054	-0.758461	0.031299	0.102457	-0.004746	0.390874	0.540651	0.492098	-0.559244
60349	-9.658250	-1.162757	-0.646454	0.088895	-0.018848	-0.063665	0.390740	0.540693	0.491861	-0.559505
60350	-9.635841	-1.283060	-0.677832	-0.020683	0.043325	-0.068313	0.390635	0.540689	0.491699	-0.559724
60351	-9.653507	-1.232312	-0.629044	0.021049	-0.013948	-0.060567	0.390489	0.540734	0.491471	-0.559984
60352	-9.646640	-1.255789	-0.663634	0.007653	0.028611	-0.062087	0.390381	0.540733	0.491286	-0.560222
60353	-9.616646	-1.205377	-0.652196	0.052406	0.011857	-0.099022	0.390355	0.540669	0.491208	-0.560370
60354	-9.636873	-1.227274	-0.653002	0.035261	0.018047	-0.076140	0.390483	0.540504	0.491257	-0.560397
60355	-9.641483	-1.297023	-0.713943	-0.016355	0.095042	-0.058668	0.390683	0.540288	0.491325	-0.560407
60356	-9.648239	-1.294586	-0.679312	-0.020506	0.063701	-0.054539	0.390964	0.540030	0.491409	-0.560386
60357	-9.667461	-1.278452	-0.654229	-0.008165	0.038207	-0.039216	0.391307	0.539734	0.491500	-0.560352
60358	-9.637639	-1.362245	-0.691828	-0.083945	0.100843	-0.055577	0.391732	0.539398	0.491601	-0.560289
60359	-9.634785	-1.211050	-0.603450	0.041159	-0.012538	-0.083452	0.392083	0.539147	0.491595	-0.560290
60360	-9.637749	-1.301709	-0.653662	-0.035696	0.061295	-0.065745	0.392568	0.538805	0.491721	-0.560170
60361	-9.643438	-1.260717	-0.592765	-0.010425	-0.001782	-0.069147	0.392834	0.538648	0.491600	-0.560240
60362	-9.609715	-1.233966	-0.556526	0.002203	-0.034304	-0.108161	0.393184	0.538441	0.491584	-0.560208
60363	-9.654167	-1.305920	-0.596993	-0.054925	0.021723	-0.052499	0.393537	0.538239	0.491583	-0.560155
60364	-9.684765	-1.218175	-0.551881	0.021460	-0.039269	-0.036124	0.393791	0.538119	0.491502	-0.560163
60365	-9.619479	-1.239765	-0.534116	-0.012559	-0.041802	-0.099049	0.394121	0.537953	0.491495	-0.560097
60366	-9.632849	-1.183913	-0.531161	0.040631	-0.054128	-0.093069	0.394306	0.537873	0.491424	-0.560105
60367	-9.663997	-1.144225	-0.591279	0.094711	-0.003553	-0.063702	0.394610	0.537685	0.491476	-0.560025
60368	-9.689397	-1.252174	-0.660604	0.007339	0.088289	-0.020808	0.394833	0.537558	0.491463	-0.560002
60369	-9.705700	-1.142752	-0.581614	0.096784	-0.010145	-0.023137	0.394922	0.537498	0.491355	-0.560091
60370	-9.682306	-1.273559	-0.526167	-0.045166	-0.030864	-0.032970	0.395221	0.537273	0.491474	-0.559993
60371	-9.614455	-1.320894	-0.501202	-0.104361	-0.036628	-0.095616	0.395198	0.537304	0.491301	-0.560130
60372	-9.603127	-1.125748	-0.343959	0.047612	-0.229261	-0.140519	0.395278	0.537292	0.491324	-0.560065
60373	-9.627473	-1.265688	-0.502506	-0.050881	-0.048119	-0.089632	0.395304	0.537315	0.491435	-0.559927
60374	-9.620617	-1.130666	-0.487529	0.074433	-0.094377	-0.114341	0.395139	0.537528	0.491428	-0.559846
60375	-9.679064	-1.167516	-0.556471	0.058911	-0.029255	-0.047816	0.395133	0.537599	0.491667	-0.559572
60376	-9.658709	-1.282545	-0.612286	-0.043773	0.045482	-0.050183	0.395090	0.537679	0.491901	-0.559320
60377	-9.650143	-1.267990	-0.631912	-0.027793	0.056338	-0.059307	0.395023	0.537800	0.492077	-0.559096
60378	-9.652745	-1.183616	-0.631050	0.052324	0.031793	-0.067385	0.394946	0.537936	0.492208	-0.558904
60379	-9.682858	-1.214131	-0.641591	0.026487	0.040755	-0.033059	0.395033	0.537947	0.492490	-0.558583
60380	-9.640487	-1.291313	-0.674598	-0.047513	0.087859	-0.063247	0.394924	0.538106	0.492585	-0.558423
60381	-9.661716	-1.211617	-0.656217	0.026442	0.046509	-0.053357	0.394758	0.538305	0.492600	-0.558335
60382	-9.649609	-1.184218	-0.640916	0.046710	0.022416	-0.069720	0.394641	0.538475	0.492663	-0.558199
60383	-9.634984	-1.287555	-0.736854	-0.035229	0.135178	-0.065167	0.394574	0.538598	0.492717	-0.558080
60384	-9.674970	-1.212276	-0.700365	0.032479	0.077070	-0.037301	0.394399	0.538814	0.492627	-0.558075
60385	-9.651351	-1.226652	-0.604666	-0.007154	-0.013586	-0.064937	0.394423	0.538893	0.492711	-0.557907
60386	-9.650498	-1.285219	-0.625103	-0.061550	0.015761	-0.057145	0.394364	0.539033	0.492751	-0.557779
60387	-9.590679	-1.210274	-0.541915	-0.015939	-0.079386	-0.131107	0.394195	0.539266	0.492714	-0.557706
60388	-9.635876	-1.163275	-0.560241	0.036228	-0.080418	-0.091093	0.394031	0.539526	0.492743	-0.557544
60389	-9.661005	-1.211653	-0.623282	0.003457	-0.017050	-0.056085	0.393832	0.539807	0.492794	-0.557368
60390	-9.654214	-1.192435	-0.658048	0.026340	0.006460	-0.062916	0.393608	0.540124	0.492836	-0.557182
60391	-9.670681	-1.199441	-0.635639	0.013612	-0.022156	-0.047234	0.393440	0.540377	0.492921	-0.556980
60392	-9.647394	-1.240797	-0.643215	-0.030172	-0.010884	-0.064637	0.393284	0.540644	0.493054	-0.556713
60393	-9.694804	-1.239351	-0.615631	-0.032741	-0.050440	-0.019803	0.392987	0.540992	0.493114	-0.556531
60394	-9.628754	-1.263164	-0.609744	-0.066777	-0.053166	-0.082683	0.392621	0.541424	0.493112	-0.556372
60395	-9.636143	-1.179867	-0.567072	0.002066	-0.122535	-0.088806	0.392165	0.541936	0.493080	-0.556223
60396	-9.626904	-1.184772	-0.596826	-0.000193	-0.102205	-0.095347	0.391705	0.542461	0.493114	-0.556006
60397	-9.718656	-1.185675	-0.689871	0.026593	-0.032041	0.002213	0.391083	0.543101	0.493017	-0.555904
60398	-9.701218	-1.137087	-0.722705	0.076509	-0.020794	-0.018679	0.390629	0.543589	0.493107	-0.555667
60399	-9.684501	-1.261432	-0.831026	-0.023667	0.101362	-0.011640	0.390368	0.543921	0.493372	-0.555290
60400	-9.647246	-1.183950	-0.766617	0.029770	0.014816	-0.062935	0.390080	0.544270	0.493524	-0.555015
60401	-9.632225	-1.187967	-0.841494	0.038880	0.080008	-0.071475	0.389973	0.544442	0.493856	-0.554626
60402	-9.597134	-1.151219	-0.907177	0.083714	0.130255	-0.105511	0.389762	0.544686	0.494035	-0.554375
60403	-9.623764	-1.117397	-0.964968	0.130750	0.168270	-0.078667	0.389679	0.544792	0.494305	-0.554088
60404	-9.653413	-1.148918	-0.976950	0.104940	0.177261	-0.044351	0.389652	0.544831	0.494549	-0.553851
60405	-9.777119	-1.263218	-0.921477	-0.006503	0.130867	0.087803	0.389734	0.544775	0.494774	-0.553647
60406	-9.604966	-1.214753	-0.855133	0.007680	0.072225	-0.093789	0.389697	0.544759	0.494827	-0.553643
60407	-9.632947	-1.149801	-0.699761	0.038255	-0.096799	-0.086715	0.389952	0.544555	0.495142	-0.553383
60408	-9.657239	-1.295877	-0.799010	-0.078797	0.026761	-0.036540	0.390156	0.544389	0.495420	-0.553153
60409	-9.658335	-1.215821	-0.780325	-0.005586	-0.010427	-0.046910	0.390235	0.544310	0.495581	-0.553030
60410	-9.627702	-1.184512	-0.778466	0.020917	-0.017722	-0.081245	0.390254	0.544307	0.495723	-0.552892
60411	-9.536496	-1.166771	-0.803450	0.033822	0.009288	-0.171608	0.390314	0.544260	0.495969	-0.552676
60412	-9.545660	-1.144561	-0.893031	0.075743	0.086268	-0.157949	0.390307	0.544283	0.496202	-0.552450
60413	-9.544720	-1.164869	-0.904381	0.057796	0.096609	-0.155367	0.390275	0.544311	0.496452	-0.552219
60414	-9.548135	-1.194124	-0.963599	0.042394	0.154508	-0.143372	0.390189	0.544396	0.496645	-0.552023
60415	-9.626667	-1.205692	-0.933391	0.031894	0.113699	-0.066730	0.390013	0.544557	0.496742	-0.551901
60416	-9.601607	-1.180291	-0.995366	0.067905	0.166654	-0.089401	0.389756	0.544736	0.496728	-0.551919
60417	-9.617693	-1.153375	-0.944357	0.084610	0.106287	-0.081107	0.389661	0.544800	0.496800	-0.551859
60418	-9.678842	-1.253038	-0.982260	0.003004	0.155103	-0.004994	0.389629	0.544808	0.496899	-0.551784
60419	-9.611794	-1.281839	-0.953259	-0.038150	0.139480	-0.070127	0.389620	0.544804	0.496891	-0.551801
60420	-9.608925	-1.192992	-0.884451	0.032536	0.054749	-0.089886	0.389600	0.544814	0.496816	-0.551873
60421	-9.670802	-1.195631	-0.877501	0.035204	0.043476	-0.028985	0.389630	0.544772	0.496746	-0.551956
60422	-9.656533	-1.176255	-0.826557	0.041666	-0.005978	-0.049817	0.389668	0.544717	0.496651	-0.552069
60423	-9.611330	-1.241657	-0.816646	-0.028127	0.005928	-0.087182	0.389744	0.544650	0.496602	-0.552125
60424	-9.632412	-1.222410	-0.807963	-0.008754	-0.006724	-0.069467	0.389671	0.544686	0.496458	-0.552270
60425	-9.614168	-1.177621	-0.812784	0.034043	-0.008133	-0.092687	0.389709	0.544668	0.496423	-0.552293
60426	-9.651195	-1.246654	-0.796470	-0.032590	-0.012280	-0.048832	0.389653	0.544711	0.496338	-0.552367
60427	-9.612274	-1.200936	-0.804329	0.009545	-0.009616	-0.092357	0.389627	0.544735	0.496287	-0.552407
60428	-9.602132	-1.190335	-0.803160	0.018570	-0.011469	-0.103803	0.389539	0.544810	0.496183	-0.552488
60429	-9.602410	-1.170191	-0.798972	0.037136	-0.020143	-0.106390	0.389507	0.544845	0.496189	-0.552471
60430	-9.595050	-1.248695	-0.867661	-0.024227	0.063452	-0.098139	0.389374	0.544958	0.496095	-0.552538
60431	-9.637874	-1.150498	-0.838689	0.068854	0.008874	-0.070468	0.389261	0.545050	0.496033	-0.552583
60432	-9.627352	-1.236785	-0.878992	-0.006361	0.067070	-0.066732	0.389124	0.545146	0.495943	-0.552665
60433	-9.648524	-1.198065	-0.867374	0.031226	0.044952	-0.051605	0.389038	0.545195	0.495883	-0.552732
60434	-9.661992	-1.181696	-0.892315	0.054911	0.064387	-0.038253	0.388856	0.545313	0.495710	-0.552898
60435	-9.654930	-1.160338	-0.811440	0.057078	-0.017281	-0.054668	0.388903	0.545258	0.495737	-0.552895
60436	-9.648076	-1.295780	-0.908182	-0.052138	0.107472	-0.036444	0.388842	0.545272	0.495659	-0.552995
60437	-9.645115	-1.130712	-0.804026	0.084599	-0.027797	-0.068701	0.388784	0.545279	0.495571	-0.553106
60438	-9.649120	-1.236800	-0.891273	0.003134	0.080693	-0.044215	0.388887	0.545149	0.495639	-0.553101
60439	-9.662380	-1.236364	-0.812515	-0.012077	0.004488	-0.037709	0.388949	0.545055	0.495625	-0.553163
60440	-9.620563	-1.274746	-0.825712	-0.049878	0.032331	-0.073156	0.389091	0.544914	0.495662	-0.553169
60441	-9.654378	-1.202428	-0.817006	0.022379	0.006690	-0.049501	0.389175	0.544803	0.495671	-0.553212
60442	-9.604711	-1.186577	-0.832390	0.036659	0.025522	-0.099330	0.389326	0.544659	0.495734	-0.553190
60443	-9.640177	-1.187124	-0.873044	0.049733	0.063209	-0.060866	0.389361	0.544585	0.495698	-0.553271
60444	-9.626661	-1.204516	-0.846941	0.026645	0.045385	-0.074207	0.389468	0.544445	0.495717	-0.553317
60445	-9.648571	-1.222245	-0.862292	0.016423	0.064344	-0.049084	0.389541	0.544330	0.495687	-0.553406
60446	-9.639627	-1.224992	-0.770385	-0.006539	-0.020547	-0.065070	0.389634	0.544174	0.495710	-0.553473
60447	-9.592718	-1.222383	-0.818748	0.003454	0.033093	-0.107859	0.389718	0.544053	0.495726	-0.553517
60448	-9.624547	-1.174315	-0.801171	0.050611	0.004223	-0.083853	0.389780	0.543932	0.495754	-0.553568
60449	-9.615755	-1.257272	-0.853213	-0.017794	0.075111	-0.077930	0.389883	0.543804	0.495817	-0.553565
60450	-9.621870	-1.239178	-0.801383	-0.010477	0.021556	-0.078337	0.389967	0.543691	0.495866	-0.553574
60451	-9.621177	-1.279578	-0.810946	-0.046716	0.041299	-0.073174	0.390049	0.543587	0.495863	-0.553620
60452	-9.667030	-1.194270	-0.812779	0.041986	0.021827	-0.038430	0.390065	0.543536	0.495831	-0.553688
60453	-9.635539	-1.146718	-0.787520	0.079822	-0.007740	-0.077580	0.390189	0.543403	0.495861	-0.553703
60454	-9.613313	-1.322517	-0.850117	-0.077985	0.094942	-0.072439	0.390284	0.543282	0.495901	-0.553720
60455	-9.649186	-1.203068	-0.737195	0.017078	-0.042045	-0.060992	0.390173	0.543333	0.495712	-0.553916
60456	-9.644369	-1.238348	-0.806507	-0.000935	0.035320	-0.055814	0.390250	0.543228	0.495737	-0.553943
60457	-9.664620	-1.259774	-0.808668	-0.018071	0.041584	-0.032922	0.390249	0.543178	0.495687	-0.554038
60458	-9.595605	-1.259653	-0.845398	-0.015835	0.086485	-0.098299	0.390247	0.543140	0.495606	-0.554149
60459	-9.587976	-1.181768	-0.733148	0.034336	-0.036395	-0.124506	0.390256	0.543105	0.495540	-0.554236
60460	-9.601845	-1.241299	-0.791885	-0.008146	0.033730	-0.098670	0.390332	0.543027	0.495544	-0.554255
60461	-9.610750	-1.235420	-0.773873	-0.005201	0.015116	-0.092019	0.390340	0.543005	0.495533	-0.554281
60462	-9.651909	-1.237274	-0.769939	-0.003248	0.008082	-0.051390	0.390345	0.542992	0.495512	-0.554308
60463	-9.621185	-1.225819	-0.770797	0.004985	0.010189	-0.083154	0.390327	0.543002	0.495477	-0.554343
60464	-9.623594	-1.258469	-0.810147	-0.017383	0.055347	-0.073577	0.390260	0.543058	0.495414	-0.554391
60465	-9.667414	-1.196483	-0.804920	0.046236	0.032609	-0.038479	0.390224	0.543084	0.495364	-0.554437
60466	-9.638086	-1.277658	-0.860030	-0.023099	0.107382	-0.052938	0.390245	0.543081	0.495314	-0.554469
60467	-9.643380	-1.222277	-0.783875	0.013922	0.022251	-0.060636	0.390225	0.543099	0.495220	-0.554550
60468	-9.624825	-1.197265	-0.794370	0.038511	0.030308	-0.081330	0.390307	0.543038	0.495225	-0.554546
60469	-9.618674	-1.288014	-0.772943	-0.054995	0.030794	-0.077630	0.390364	0.542997	0.495224	-0.554548
60470	-9.632258	-1.194056	-0.762350	0.034747	-0.000264	-0.076871	0.390322	0.543067	0.495106	-0.554614
60471	-9.640520	-1.227466	-0.755121	0.001216	0.000033	-0.065047	0.390364	0.543051	0.495082	-0.554622
60472	-9.607548	-1.259292	-0.752390	-0.033974	0.008222	-0.093857	0.390364	0.543062	0.495059	-0.554631
60473	-9.635413	-1.257495	-0.719612	-0.037080	-0.027060	-0.069063	0.390294	0.543151	0.495001	-0.554646
60474	-9.596101	-1.231424	-0.734484	-0.013136	-0.015029	-0.110078	0.390243	0.543220	0.494985	-0.554628
60475	-9.620117	-1.204360	-0.757561	0.019986	-0.002176	-0.087944	0.390177	0.543320	0.494953	-0.554605
60476	-9.655437	-1.204109	-0.801869	0.033120	0.035613	-0.049595	0.390204	0.543334	0.495033	-0.554501
60477	-9.663168	-1.257463	-0.802401	-0.018672	0.045339	-0.035189	0.390236	0.543361	0.495085	-0.554406
60478	-9.629596	-1.232377	-0.771945	-0.006060	0.012459	-0.073921	0.390208	0.543440	0.495085	-0.554348
60479	-9.605093	-1.277718	-0.759064	-0.056894	0.010677	-0.093470	0.390226	0.543503	0.495125	-0.554237
60480	-9.597835	-1.182269	-0.753926	0.032112	-0.016347	-0.113033	0.390097	0.543675	0.495080	-0.554200
60481	-9.663406	-1.213070	-0.804222	0.019054	0.029741	-0.040355	0.390008	0.543822	0.495064	-0.554133
60482	-9.667866	-1.197163	-0.742610	0.019595	-0.036528	-0.042806	0.389909	0.543958	0.495056	-0.554076
60483	-9.602073	-1.241119	-0.734927	-0.032949	-0.030522	-0.102987	0.389791	0.544123	0.495062	-0.553992
60484	-9.592847	-1.246382	-0.757399	-0.035236	-0.010251	-0.109673	0.389629	0.544314	0.495070	-0.553912
60485	-9.669673	-1.208041	-0.790373	0.016032	0.000840	-0.035859	0.389399	0.544563	0.495055	-0.553842
60486	-9.616028	-1.219205	-0.789724	-0.001866	0.003523	-0.087560	0.389128	0.544849	0.495001	-0.553799
60487	-9.631223	-1.174100	-0.722194	0.026434	-0.078818	-0.083679	0.388860	0.545145	0.494991	-0.553705
60488	-9.601522	-1.312148	-0.813651	-0.090641	0.036838	-0.088316	0.388540	0.545456	0.495002	-0.553612
60489	-9.639098	-1.167789	-0.720052	0.029872	-0.096667	-0.076971	0.388126	0.545880	0.494935	-0.553545
60490	-9.615942	-1.267098	-0.757106	-0.061983	-0.044715	-0.084418	0.387787	0.546235	0.495024	-0.553353
60491	-9.594173	-1.209859	-0.739699	-0.014722	-0.080952	-0.114631	0.387288	0.546714	0.494988	-0.553261
60492	-9.644099	-1.207028	-0.850952	0.017197	0.010690	-0.056189	0.386815	0.547177	0.495027	-0.553100
60493	-9.651441	-1.165073	-0.820732	0.049824	-0.039523	-0.056804	0.386314	0.547644	0.495084	-0.552937
60494	-9.558303	-1.188370	-0.863117	0.025853	0.005836	-0.142236	0.385912	0.548050	0.495258	-0.552659
60495	-9.501687	-1.188459	-0.956846	0.039777	0.091520	-0.189794	0.385569	0.548407	0.495465	-0.552360
60496	-9.618432	-1.152819	-0.994903	0.092870	0.094878	-0.075367	0.385265	0.548725	0.495776	-0.551977
60497	-9.730666	-1.262534	-1.175292	0.038357	0.269714	0.065923	0.385037	0.548961	0.495994	-0.551705
60498	-9.702604	-1.089664	-1.021809	0.165364	0.078171	0.002532	0.384931	0.549078	0.496202	-0.551475
60499	-9.663377	-1.250330	-1.148675	0.034034	0.235424	-0.004169	0.385317	0.548795	0.496797	-0.550951
60500	-9.572554	-1.267473	-1.075421	-0.010320	0.175354	-0.098474	0.385594	0.548570	0.497168	-0.550647
60501	-9.581065	-1.167823	-1.006924	0.070208	0.084103	-0.108951	0.385983	0.548246	0.497636	-0.550274
60502	-9.587899	-1.298783	-1.163155	-0.020553	0.262284	-0.071108	0.386330	0.547928	0.497967	-0.550048
60503	-9.609077	-1.166442	-1.096080	0.094717	0.167718	-0.073117	0.386496	0.547749	0.498019	-0.550063
