// General information: 
//  MT Manager version: 2021.0.0 
//  XDA version: 2021.0.0 build 5908 rev 109668 built on 2021-04-19
// Device information: 
//  DeviceId: 00B43DF8
//  ProductCode: MTW2-3A7G6
//  Firmware Version: 4.3.5
//  Hardware Version: 1.1.0
// Device settings: 
//  Filter Profile: human(46.1)
//  Option Flags: Orientation Smoother Disabled, Position/Velocity Smoother Disabled, Continuous Zero Rotation Update Disabled, AHS Disabled, ICC Disabled
// Coordinate system: ENU
PacketCounter	Acc_X	Acc_Y	Acc_Z	FreeAcc_E	FreeAcc_N	FreeAcc_U	Quat_q0	Quat_q1	Quat_q2	Quat_q3
59330	-8.713649	-1.726293	3.973731	-0.382690	-0.402832	-0.097258	-0.594062	-0.328556	-0.446996	0.582524
59331	-8.880482	-1.676655	3.850310	-0.339453	-0.218440	0.002407	-0.593864	-0.329098	-0.446980	0.582433
59332	-8.895269	-1.456586	3.843744	-0.128184	-0.191180	-0.016320	-0.593749	-0.329656	-0.447135	0.582116
59333	-9.050964	-1.256485	3.674509	0.046269	0.032543	0.036043	-0.593469	-0.330660	-0.447214	0.581772
59334	-9.055377	-1.129648	3.644697	0.159294	0.059682	0.012322	-0.593171	-0.331380	-0.447433	0.581498
59335	-9.006990	-1.256221	3.662511	0.029657	-0.005364	-0.008759	-0.592843	-0.332055	-0.447715	0.581230
59336	-8.999017	-1.320915	3.582636	-0.049430	0.040911	-0.037296	-0.592484	-0.332697	-0.448120	0.580917
59337	-8.971384	-1.361051	3.646206	-0.084124	-0.050110	-0.033966	-0.592094	-0.333507	-0.448439	0.580603
59338	-9.043791	-1.275851	3.530313	-0.016737	0.075243	-0.021105	-0.591749	-0.334299	-0.448772	0.580242
59339	-9.090635	-1.197310	3.475252	0.050763	0.135061	-0.008111	-0.591424	-0.335101	-0.448985	0.579947
59340	-9.054880	-1.217573	3.583965	0.040047	0.004542	0.001410	-0.591213	-0.335656	-0.449213	0.579664
59341	-9.134380	-1.174899	3.508717	0.073356	0.097148	0.041933	-0.591015	-0.336121	-0.449368	0.579476
59342	-9.133248	-1.185769	3.547210	0.066574	0.052065	0.056346	-0.590880	-0.336356	-0.449492	0.579381
59343	-9.100262	-1.240186	3.550587	0.011279	0.026429	0.034072	-0.590798	-0.336388	-0.449582	0.579376
59344	-9.144583	-1.151932	3.493083	0.094207	0.105802	0.042864	-0.590770	-0.336322	-0.449548	0.579470
59345	-9.123064	-1.149638	3.495373	0.097879	0.099869	0.023473	-0.590821	-0.335986	-0.449508	0.579643
59346	-9.090735	-1.277651	3.488493	-0.027690	0.087448	0.007446	-0.590922	-0.335551	-0.449387	0.579887
59347	-9.059402	-1.264629	3.494136	-0.012701	0.081507	-0.021149	-0.591063	-0.335118	-0.449203	0.580136
59348	-9.060500	-1.248505	3.499909	0.007326	0.088679	-0.020198	-0.591204	-0.334681	-0.449015	0.580390
59349	-9.052115	-1.268098	3.539716	-0.003557	0.056644	-0.010890	-0.591298	-0.334321	-0.448819	0.580652
59350	-8.902275	-1.382909	3.649204	-0.108195	-0.106849	-0.093813	-0.591309	-0.334031	-0.448822	0.580806
59351	-8.690124	-1.780978	3.996432	-0.460592	-0.552024	-0.109867	-0.591200	-0.334135	-0.449107	0.580637
59352	-9.077303	-1.306408	3.552132	-0.032220	0.045716	0.021875	-0.590968	-0.334799	-0.449363	0.580292
59353	-8.994514	-1.302725	3.671731	-0.021119	-0.111044	-0.011301	-0.590758	-0.335423	-0.449724	0.579866
59354	-9.063733	-1.266932	3.578304	-0.000173	-0.011926	0.013831	-0.590487	-0.336255	-0.449960	0.579477
59355	-9.060672	-1.305637	3.510453	-0.055617	0.027985	-0.008615	-0.590295	-0.336987	-0.450214	0.579050
59356	-9.184697	-1.076794	3.423058	0.158501	0.166673	0.045433	-0.590178	-0.337696	-0.450203	0.578765
59357	-9.207668	-1.079635	3.373345	0.143445	0.213243	0.049369	-0.590211	-0.337915	-0.450185	0.578618
59358	-9.157925	-1.108162	3.363778	0.106814	0.200548	0.003574	-0.590356	-0.337856	-0.449997	0.578651
59359	-9.182749	-1.036100	3.390190	0.182594	0.201393	0.026818	-0.590590	-0.337462	-0.449704	0.578869
59360	-9.176297	-1.085752	3.453123	0.144717	0.149739	0.049562	-0.590896	-0.336762	-0.449378	0.579217
59361	-9.144814	-1.194173	3.469156	0.042790	0.130617	0.039712	-0.591290	-0.335795	-0.448995	0.579673
59362	-9.153237	-1.172727	3.500814	0.075192	0.131410	0.055938	-0.591730	-0.334753	-0.448463	0.580238
59363	-9.077695	-1.177508	3.598709	0.086083	0.040368	0.022589	-0.592236	-0.333508	-0.447899	0.580875
59364	-8.987034	-1.333267	3.672658	-0.055911	-0.050875	-0.013349	-0.592698	-0.332355	-0.447354	0.581484
59365	-9.003479	-1.276074	3.672795	0.007565	-0.010794	-0.005537	-0.593153	-0.331311	-0.446766	0.582067
59366	-8.958290	-1.334277	3.731182	-0.039430	-0.062494	-0.017410	-0.593585	-0.330329	-0.446247	0.582584
59367	-8.963702	-1.280550	3.743888	0.019888	-0.042150	-0.014614	-0.593985	-0.329467	-0.445709	0.583075
59368	-8.940408	-1.351424	3.727092	-0.050890	-0.021987	-0.032843	-0.594361	-0.328644	-0.445251	0.583506
59369	-8.952273	-1.354443	3.788748	-0.041213	-0.053925	0.001979	-0.594680	-0.328037	-0.444723	0.583925
59370	-8.893983	-1.451147	3.726518	-0.149089	-0.014318	-0.062136	-0.594970	-0.327434	-0.444390	0.584221
59371	-8.889662	-1.386808	3.833720	-0.068992	-0.092187	-0.033451	-0.595234	-0.327082	-0.443941	0.584491
59372	-8.885226	-1.384175	3.858280	-0.064356	-0.104572	-0.028291	-0.595464	-0.326793	-0.443650	0.584640
59373	-8.925400	-1.343715	3.831737	-0.027824	-0.051302	-0.007223	-0.595654	-0.326676	-0.443320	0.584762
59374	-9.052972	-1.225072	3.956128	0.111922	-0.095649	0.141527	-0.595674	-0.327082	-0.442898	0.584834
59375	-9.087122	-0.934275	4.487992	0.442209	-0.552312	0.340614	-0.594137	-0.331974	-0.440539	0.585423
59376	-9.118259	-1.010294	4.174187	0.262914	-0.329471	0.257493	-0.591819	-0.337431	-0.440882	0.584391
59377	-9.870437	-0.576545	2.855771	0.554495	1.132979	0.401118	-0.591390	-0.337294	-0.444713	0.581997
59378	-9.856428	-0.292583	2.635071	0.847488	1.323153	0.272406	-0.592657	-0.333113	-0.449316	0.579576
59379	-9.138152	-0.949232	3.138396	0.279760	0.528682	-0.122575	-0.594778	-0.328210	-0.451230	0.578713
59380	-8.484188	-0.909695	4.133893	0.478659	-0.585350	-0.361443	-0.596910	-0.324044	-0.452460	0.577905
59381	-8.436396	-1.561638	3.797006	-0.186350	-0.349729	-0.438704	-0.599501	-0.319991	-0.454281	0.576050
59382	-8.088220	-1.873923	4.241375	-0.405479	-0.919743	-0.543936	-0.602380	-0.316636	-0.456235	0.573349
59383	-8.329519	-2.666497	3.858195	-1.208285	-0.604154	-0.349512	-0.604738	-0.313628	-0.458922	0.570369
59384	-8.248632	-4.060238	3.509038	-2.618157	-0.571742	-0.343947	-0.605196	-0.312491	-0.460853	0.568948
59385	-8.559422	-0.365330	4.210941	1.151392	-0.496204	-0.349226	-0.604711	-0.314890	-0.460491	0.568434
59386	-8.970751	-1.961561	3.229885	-0.585668	0.251551	-0.099408	-0.604512	-0.314686	-0.462832	0.566855
59387	-9.142012	-1.271615	3.537276	0.174218	0.116225	0.069707	-0.603890	-0.315968	-0.463918	0.565916
59388	-9.422675	-1.515470	2.923771	-0.179210	0.706638	0.142230	-0.603458	-0.317228	-0.464211	0.565432
59389	-9.359413	-1.509910	3.119609	-0.150764	0.491255	0.154575	-0.603436	-0.318230	-0.463476	0.565495
59390	-9.288430	-1.330797	3.233911	0.016153	0.393451	0.104417	-0.603314	-0.319893	-0.461469	0.566328
59391	-9.236922	-1.031116	3.482372	0.318432	0.211109	0.105211	-0.603160	-0.321645	-0.458801	0.567666
59392	-9.195146	-0.959601	3.593004	0.369560	0.126752	0.098338	-0.602935	-0.323088	-0.456150	0.569219
59393	-9.069438	-1.204241	3.747662	0.122165	-0.075932	0.073115	-0.602920	-0.323763	-0.454163	0.570439
59394	-9.054096	-1.184241	3.669562	0.105070	0.016208	0.027709	-0.602923	-0.324218	-0.452451	0.571538
59395	-9.070039	-1.154089	3.736172	0.134372	-0.008924	0.063461	-0.603153	-0.323985	-0.451199	0.572416
59396	-8.980123	-1.265285	3.813700	0.027450	-0.106761	0.024776	-0.603438	-0.323563	-0.450334	0.573035
59397	-8.966856	-1.194727	3.852620	0.098043	-0.119077	0.018424	-0.603576	-0.323459	-0.449631	0.573500
59398	-8.978439	-1.272054	3.811837	0.008675	-0.078960	0.023688	-0.603437	-0.323862	-0.449001	0.573912
59399	-8.980900	-1.160813	3.790506	0.106239	-0.039066	0.003583	-0.603305	-0.324264	-0.448491	0.574223
59400	-8.984358	-1.199138	3.709654	0.050762	0.033444	-0.019095	-0.603285	-0.324194	-0.448358	0.574387
59401	-8.964180	-1.279737	3.735355	-0.023134	-0.005239	-0.017456	-0.603340	-0.323923	-0.448369	0.574473
59402	-8.974612	-1.274748	3.752069	-0.010318	-0.011052	-0.002160	-0.603460	-0.323491	-0.448483	0.574502
59403	-8.980980	-1.298135	3.712420	-0.033657	0.028837	-0.008440	-0.603601	-0.322952	-0.448706	0.574482
59404	-8.941338	-1.321809	3.773958	-0.041381	-0.042685	-0.018100	-0.603721	-0.322518	-0.448964	0.574400
59405	-9.000348	-1.259005	3.737545	0.023108	0.023732	0.013782	-0.603778	-0.322239	-0.449231	0.574288
59406	-8.958459	-1.302717	3.768219	-0.012424	-0.028138	-0.007097	-0.603778	-0.322104	-0.449466	0.574179
59407	-8.950424	-1.344550	3.768520	-0.051272	-0.040567	-0.008843	-0.603756	-0.322104	-0.449685	0.574031
59408	-8.982741	-1.313777	3.716209	-0.027132	0.019114	-0.003266	-0.603688	-0.322213	-0.449927	0.573851
59409	-8.972787	-1.317177	3.739588	-0.026699	-0.012950	-0.003025	-0.603642	-0.322414	-0.450125	0.573631
59410	-9.005422	-1.278958	3.729707	0.009959	0.007639	0.018076	-0.603573	-0.322656	-0.450290	0.573438
59411	-8.975900	-1.277580	3.737418	0.009316	-0.018006	-0.006217	-0.603491	-0.322925	-0.450462	0.573238
59412	-8.978032	-1.329779	3.706757	-0.049024	-0.004147	-0.009066	-0.603416	-0.323203	-0.450613	0.573042
59413	-9.011005	-1.289948	3.696381	-0.012453	0.016409	0.012025	-0.603338	-0.323563	-0.450731	0.572828
59414	-9.040860	-1.218753	3.668257	0.050950	0.056573	0.019546	-0.603278	-0.323874	-0.450830	0.572638
59415	-9.063971	-1.224151	3.620137	0.035860	0.103239	0.023347	-0.603250	-0.324052	-0.450878	0.572528
59416	-9.040528	-1.233874	3.647613	0.028074	0.064535	0.013488	-0.603232	-0.324192	-0.450881	0.572466
59417	-9.045992	-1.211439	3.644232	0.048245	0.071845	0.014341	-0.603254	-0.324243	-0.450830	0.572454
59418	-9.020978	-1.223994	3.660934	0.036306	0.046239	-0.000695	-0.603317	-0.324183	-0.450742	0.572491
59419	-9.052924	-1.220249	3.662659	0.041952	0.060299	0.028761	-0.603358	-0.324104	-0.450665	0.572553
59420	-8.985112	-1.276430	3.699609	-0.010276	-0.004885	-0.012254	-0.603426	-0.323949	-0.450591	0.572627
59421	-9.001099	-1.250536	3.684932	0.013937	0.022084	-0.006482	-0.603486	-0.323828	-0.450505	0.572700
59422	-9.004655	-1.232356	3.671075	0.029870	0.042401	-0.010820	-0.603557	-0.323674	-0.450415	0.572783
59423	-8.981638	-1.279419	3.693290	-0.013047	0.010238	-0.017441	-0.603635	-0.323514	-0.450342	0.572848
59424	-8.975854	-1.298563	3.712212	-0.028080	-0.008698	-0.013102	-0.603689	-0.323392	-0.450295	0.572897
59425	-8.957899	-1.323461	3.745628	-0.047260	-0.047287	-0.013669	-0.603741	-0.323322	-0.450239	0.572926
59426	-8.992069	-1.271610	3.697415	-0.003490	0.019033	-0.007342	-0.603782	-0.323297	-0.450194	0.572933
59427	-8.992034	-1.270493	3.697885	-0.002990	0.019804	-0.007343	-0.603814	-0.323298	-0.450136	0.572944
59428	-8.983952	-1.255593	3.711797	0.012939	0.007413	-0.011405	-0.603872	-0.323247	-0.450084	0.572953
59429	-9.003734	-1.259663	3.713647	0.010299	0.014886	0.007945	-0.603924	-0.323165	-0.450031	0.572985
59430	-9.015887	-1.254543	3.685297	0.010652	0.048335	0.007652	-0.603993	-0.323090	-0.449966	0.573007
59431	-8.990233	-1.268287	3.703018	-0.001288	0.022750	-0.007349	-0.604070	-0.322972	-0.449899	0.573043
59432	-9.010831	-1.220309	3.700740	0.046746	0.043264	0.004423	-0.604163	-0.322828	-0.449813	0.573095
59433	-8.995833	-1.282534	3.695396	-0.015879	0.037368	-0.003293	-0.604275	-0.322625	-0.449723	0.573162
59434	-8.990563	-1.246431	3.739245	0.027984	0.005378	0.003878	-0.604370	-0.322435	-0.449633	0.573239
59435	-8.980004	-1.290795	3.717830	-0.019077	0.018985	-0.008191	-0.604483	-0.322188	-0.449557	0.573318
59436	-9.004526	-1.225602	3.700683	0.044468	0.059064	-0.000798	-0.604583	-0.321963	-0.449453	0.573421
59437	-8.967954	-1.278509	3.753899	0.001505	-0.005763	-0.007051	-0.604696	-0.321685	-0.449372	0.573521
59438	-8.978524	-1.273883	3.742993	0.006073	0.014645	-0.002161	-0.604792	-0.321464	-0.449257	0.573634
59439	-8.964206	-1.283187	3.747675	-0.001748	0.008780	-0.012252	-0.604890	-0.321215	-0.449179	0.573731
59440	-8.962882	-1.285785	3.736392	-0.005415	0.022572	-0.017455	-0.604965	-0.321067	-0.449098	0.573799
59441	-8.961099	-1.283636	3.768491	0.003345	-0.002789	-0.007050	-0.605047	-0.320867	-0.449025	0.573880
59442	-8.960289	-1.287404	3.742049	-0.004504	0.023995	-0.017458	-0.605097	-0.320749	-0.448954	0.573950
59443	-8.962043	-1.317454	3.776630	-0.026708	-0.007833	0.001387	-0.605155	-0.320605	-0.448911	0.574003
59444	-8.945945	-1.294535	3.761016	-0.007762	0.005809	-0.022340	-0.605196	-0.320535	-0.448844	0.574050
59445	-8.962375	-1.266644	3.759893	0.020541	0.019641	-0.011435	-0.605250	-0.320437	-0.448804	0.574079
59446	-8.949435	-1.274301	3.761791	0.012777	0.013716	-0.021520	-0.605283	-0.320380	-0.448747	0.574121
59447	-8.989483	-1.285008	3.750114	0.002934	0.040962	0.011961	-0.605333	-0.320262	-0.448715	0.574160
59448	-8.958916	-1.317996	3.783853	-0.024534	-0.004289	0.001395	-0.605375	-0.320175	-0.448664	0.574204
59449	-8.964589	-1.246973	3.763529	0.042041	0.028937	-0.010629	-0.605408	-0.320086	-0.448612	0.574258
59450	-8.970141	-1.312190	3.771906	-0.019463	0.016724	0.006268	-0.605451	-0.319972	-0.448558	0.574320
59451	-8.974119	-1.294104	3.757314	-0.003559	0.037063	0.001870	-0.605504	-0.319844	-0.448500	0.574380
59452	-8.959962	-1.297881	3.803845	0.000996	-0.008054	0.007423	-0.605556	-0.319728	-0.448413	0.574458
59453	-8.963365	-1.278293	3.804602	0.020971	-0.000867	0.008235	-0.605639	-0.319563	-0.448332	0.574525
59454	-8.957395	-1.300945	3.795381	-0.002272	0.006295	0.002212	-0.605715	-0.319348	-0.448239	0.574637
59455	-8.972826	-1.275680	3.782353	0.021964	0.033241	0.007881	-0.605799	-0.319157	-0.448102	0.574761
59456	-8.962647	-1.263217	3.800133	0.037944	0.020858	0.003824	-0.605894	-0.318892	-0.447978	0.574905
59457	-8.972234	-1.255797	3.819557	0.050817	0.015207	0.019109	-0.605990	-0.318626	-0.447800	0.575090
59458	-8.957619	-1.270119	3.782883	0.030566	0.048452	-0.006615	-0.606117	-0.318275	-0.447610	0.575299
59459	-8.949216	-1.291496	3.806606	0.015464	0.029589	-0.002205	-0.606259	-0.317896	-0.447429	0.575499
59460	-8.869583	-1.312678	3.768642	-0.015225	0.035980	-0.086755	-0.606345	-0.317606	-0.447333	0.575643
59461	-8.999012	-1.326726	3.865007	0.000162	0.005683	0.070665	-0.606441	-0.317279	-0.447339	0.575718
59462	-8.917351	-1.315346	3.821218	0.000386	0.018486	-0.022353	-0.606512	-0.317050	-0.447256	0.575834
59463	-8.910286	-1.335588	3.841937	-0.014567	-0.000399	-0.017931	-0.606613	-0.316805	-0.447126	0.575964
59464	-8.923528	-1.360461	3.863209	-0.032724	-0.012449	0.005835	-0.606690	-0.316582	-0.447078	0.576042
59465	-8.909640	-1.369470	3.866615	-0.040591	-0.018361	-0.004229	-0.606760	-0.316425	-0.446990	0.576123
59466	-8.906275	-1.340379	3.836300	-0.017465	0.014801	-0.023151	-0.606802	-0.316330	-0.446950	0.576161
59467	-8.909487	-1.316107	3.879041	0.014991	-0.017082	-0.006692	-0.606821	-0.316275	-0.446932	0.576186
59468	-8.905526	-1.339288	3.851673	-0.012531	0.003262	-0.017929	-0.606801	-0.316251	-0.446949	0.576207
59469	-8.909441	-1.373074	3.839283	-0.047184	0.010531	-0.014666	-0.606773	-0.316282	-0.446988	0.576189
59470	-8.874075	-1.340053	3.862645	-0.012810	-0.021835	-0.042103	-0.606736	-0.316367	-0.447035	0.576145
59471	-8.925799	-1.310664	3.828955	0.012521	0.031585	-0.012307	-0.606704	-0.316470	-0.447093	0.576077
59472	-8.926544	-1.306449	3.855243	0.021210	0.006131	-0.001856	-0.606669	-0.316559	-0.447167	0.576008
59473	-8.948440	-1.311260	3.838797	0.014518	0.026652	0.012251	-0.606633	-0.316652	-0.447223	0.575950
59474	-8.934225	-1.285346	3.833379	0.037679	0.027124	-0.006306	-0.606593	-0.316733	-0.447280	0.575904
59475	-8.943405	-1.298303	3.817930	0.022683	0.040974	-0.002260	-0.606558	-0.316780	-0.447331	0.575876
59476	-8.926830	-1.324179	3.833134	-0.000621	0.015332	-0.007871	-0.606536	-0.316802	-0.447374	0.575853
59477	-8.931794	-1.301859	3.844622	0.023557	0.009634	-0.001864	-0.606533	-0.316838	-0.447362	0.575846
59478	-8.952727	-1.307068	3.830220	0.016714	0.030206	0.012238	-0.606537	-0.316841	-0.447359	0.575843
59479	-8.937125	-1.280373	3.841624	0.043982	0.017684	-0.001093	-0.606534	-0.316838	-0.447336	0.575865
59480	-8.932642	-1.299763	3.843359	0.024804	0.011867	-0.001870	-0.606541	-0.316842	-0.447310	0.575875
59481	-8.920680	-1.308470	3.829136	0.012749	0.018978	-0.017158	-0.606540	-0.316820	-0.447299	0.575897
59482	-8.948078	-1.322143	3.860496	0.007090	0.000576	0.021922	-0.606544	-0.316812	-0.447272	0.575918
59483	-8.916543	-1.329173	3.816295	-0.010229	0.026889	-0.023167	-0.606554	-0.316797	-0.447261	0.575925
59484	-8.941190	-1.311673	3.829741	0.010972	0.027926	0.002168	-0.606563	-0.316789	-0.447240	0.575936
59485	-8.919672	-1.359014	3.833800	-0.036216	0.008860	-0.009418	-0.606556	-0.316797	-0.447225	0.575950
59486	-8.936474	-1.327738	3.859859	0.000506	-0.003290	0.011872	-0.606549	-0.316802	-0.447245	0.575940
59487	-8.917479	-1.325614	3.828679	-0.004290	0.016670	-0.017935	-0.606507	-0.316838	-0.447265	0.575949
59488	-8.930299	-1.316265	3.841122	0.008669	0.011050	-0.002651	-0.606453	-0.316857	-0.447327	0.575947
59489	-8.942282	-1.362510	3.829417	-0.037242	0.018440	0.009917	-0.606401	-0.316890	-0.447376	0.575946
59490	-8.906834	-1.330172	3.852894	-0.002857	-0.014018	-0.017503	-0.606336	-0.316945	-0.447434	0.575939
59491	-8.923541	-1.354524	3.853090	-0.025033	-0.013125	0.001069	-0.606270	-0.317022	-0.447519	0.575900
59492	-8.917912	-1.344172	3.819282	-0.021537	0.013475	-0.018698	-0.606209	-0.317149	-0.447606	0.575827
59493	-8.936217	-1.312016	3.842192	0.015169	0.001381	0.002585	-0.606132	-0.317292	-0.447698	0.575757
59494	-8.916867	-1.359969	3.827722	-0.036141	-0.004740	-0.014210	-0.606049	-0.317457	-0.447812	0.575664
59495	-8.920426	-1.304311	3.832183	0.019058	-0.004132	-0.016746	-0.605964	-0.317645	-0.447947	0.575545
59496	-8.934479	-1.350012	3.802371	-0.030926	0.016306	-0.009409	-0.605861	-0.317860	-0.448078	0.575433
59497	-8.938639	-1.294971	3.791663	0.020188	0.029970	-0.017198	-0.605771	-0.318104	-0.448188	0.575308
59498	-8.986261	-1.281448	3.786004	0.034283	0.050864	0.022203	-0.605689	-0.318306	-0.448306	0.575190
59499	-8.955739	-1.281062	3.795592	0.033541	0.025025	-0.001921	-0.605619	-0.318485	-0.448395	0.575096
59500	-8.974700	-1.251556	3.788996	0.061933	0.038940	0.008859	-0.605551	-0.318610	-0.448491	0.575023
59501	-8.962570	-1.310867	3.791194	0.003472	0.019942	0.006619	-0.605488	-0.318708	-0.448589	0.574958
59502	-8.960872	-1.277405	3.784692	0.034886	0.027073	-0.001931	-0.605441	-0.318809	-0.448652	0.574903
59503	-8.974706	-1.270090	3.766979	0.039537	0.047560	0.002850	-0.605392	-0.318874	-0.448693	0.574886
59504	-8.946202	-1.304935	3.768300	0.003742	0.028335	-0.017962	-0.605370	-0.318919	-0.448715	0.574868
59505	-8.950275	-1.336676	3.769796	-0.026718	0.022596	-0.009410	-0.605326	-0.318967	-0.448772	0.574842
59506	-8.947792	-1.302181	3.779043	0.008884	0.016678	-0.012715	-0.605287	-0.319021	-0.448811	0.574823
59507	-8.980924	-1.295331	3.806303	0.022959	0.004846	0.027143	-0.605247	-0.319074	-0.448864	0.574794
59508	-8.949658	-1.300909	3.775059	0.009784	0.018006	-0.012718	-0.605213	-0.319119	-0.448905	0.574773
59509	-8.963014	-1.294194	3.758204	0.014401	0.038429	-0.007945	-0.605177	-0.319143	-0.448945	0.574766
59510	-8.951391	-1.301514	3.757143	0.006526	0.032473	-0.017976	-0.605144	-0.319192	-0.448978	0.574748
59511	-8.946865	-1.316720	3.801458	-0.000238	-0.012473	-0.002944	-0.605123	-0.319202	-0.448995	0.574752
59512	-8.972827	-1.305146	3.755238	0.004375	0.040765	0.001341	-0.605096	-0.319234	-0.449026	0.574738
59513	-8.960618	-1.309879	3.783690	0.004881	0.008708	0.001826	-0.605060	-0.319224	-0.449062	0.574753
59514	-8.973680	-1.305033	3.753237	0.005406	0.042140	0.001335	-0.605047	-0.319214	-0.449058	0.574776
59515	-8.956477	-1.329802	3.784675	-0.013838	0.003585	0.001099	-0.605041	-0.319196	-0.449052	0.574797
59516	-8.986685	-1.299738	3.723065	0.006317	0.076337	0.000833	-0.605035	-0.319183	-0.449028	0.574830
59517	-8.978008	-1.281250	3.780371	0.034678	0.024748	0.012566	-0.605051	-0.319143	-0.448989	0.574866
59518	-8.973104	-1.301338	3.783107	0.015415	0.018957	0.011842	-0.605053	-0.319087	-0.448944	0.574929
59519	-8.968183	-1.322977	3.771741	-0.007920	0.026138	0.005859	-0.605081	-0.319018	-0.448871	0.574995
59520	-8.936428	-1.275062	3.753514	0.033693	0.039188	-0.036608	-0.605118	-0.318937	-0.448796	0.575060
59521	-8.963212	-1.289093	3.786670	0.028138	0.020905	0.002534	-0.605154	-0.318832	-0.448722	0.575137
59522	-8.977807	-1.314259	3.791608	0.005939	0.022006	0.021135	-0.605190	-0.318704	-0.448637	0.575237
59523	-8.956900	-1.313373	3.764124	0.001006	0.041967	-0.008715	-0.605235	-0.318573	-0.448561	0.575321
59524	-8.943014	-1.318755	3.796235	0.001430	0.009854	-0.008203	-0.605277	-0.318460	-0.448479	0.575404
59525	-8.926396	-1.294463	3.795775	0.024540	0.010255	-0.026811	-0.605319	-0.318350	-0.448404	0.575479
59526	-8.941042	-1.319643	3.800568	0.002462	0.011275	-0.008205	-0.605351	-0.318224	-0.448347	0.575559
59527	-8.959830	-1.322121	3.832451	0.008202	-0.007170	0.021646	-0.605375	-0.318097	-0.448294	0.575645
59528	-8.942316	-1.353719	3.807853	-0.027590	0.006300	0.000391	-0.605415	-0.317980	-0.448230	0.575718
59529	-8.946130	-1.334079	3.807571	-0.007498	0.013573	0.001098	-0.605435	-0.317895	-0.448186	0.575779
59530	-8.925857	-1.332885	3.778760	-0.012335	0.033421	-0.028758	-0.605448	-0.317816	-0.448158	0.575831
59531	-8.916958	-1.316483	3.821969	0.011871	-0.005079	-0.022256	-0.605454	-0.317756	-0.448124	0.575883
59532	-8.941936	-1.304258	3.792165	0.020716	0.035071	-0.012781	-0.605442	-0.317698	-0.448119	0.575932
59533	-8.932318	-1.343546	3.810886	-0.013934	0.009597	-0.008913	-0.605438	-0.317639	-0.448121	0.575968
59534	-8.920900	-1.298078	3.820973	0.032966	0.003446	-0.021559	-0.605409	-0.317573	-0.448128	0.576028
59535	-8.944180	-1.335927	3.825019	-0.000486	0.004707	0.006366	-0.605386	-0.317520	-0.448146	0.576067
59536	-8.931907	-1.345702	3.811089	-0.012496	0.011751	-0.008913	-0.605375	-0.317472	-0.448125	0.576122
59537	-8.918820	-1.351067	3.841157	-0.012035	-0.020365	-0.008369	-0.605371	-0.317401	-0.448132	0.576160
59538	-8.973580	-1.304732	3.793331	0.028991	0.052770	0.016514	-0.605358	-0.317363	-0.448123	0.576201
59539	-8.940205	-1.305629	3.822811	0.032361	0.013824	-0.002255	-0.605366	-0.317262	-0.448108	0.576260
59540	-8.927756	-1.317182	3.795163	0.016141	0.033795	-0.022812	-0.605370	-0.317181	-0.448088	0.576316
59541	-8.922418	-1.336525	3.812589	0.001113	0.014956	-0.018227	-0.605384	-0.317088	-0.448066	0.576370
59542	-8.946624	-1.319931	3.826706	0.022359	0.016105	0.007049	-0.605378	-0.317048	-0.448036	0.576422
59543	-8.934138	-1.329875	3.813216	0.010353	0.023168	-0.008231	-0.605373	-0.316943	-0.448043	0.576479
59544	-8.916887	-1.358699	3.815945	-0.017156	0.010598	-0.018916	-0.605350	-0.316897	-0.448054	0.576520
59545	-8.929041	-1.350150	3.829727	-0.004193	0.004976	-0.003638	-0.605319	-0.316851	-0.448071	0.576565
59546	-8.949814	-1.358105	3.800954	-0.014920	0.038633	0.005110	-0.605281	-0.316840	-0.448078	0.576605
59547	-8.917289	-1.359830	3.814602	-0.015677	0.012724	-0.018916	-0.605252	-0.316848	-0.448091	0.576621
59548	-8.917198	-1.354986	3.857056	-0.002710	-0.025636	-0.003068	-0.605210	-0.316899	-0.448119	0.576615
59549	-8.931250	-1.350513	3.810926	-0.006392	0.020878	-0.008923	-0.605189	-0.316982	-0.448140	0.576575
59550	-8.919728	-1.355547	3.823941	-0.010107	0.001879	-0.013633	-0.605146	-0.317061	-0.448183	0.576544
59551	-8.930056	-1.312790	3.831888	0.033742	0.002647	-0.006998	-0.605099	-0.317160	-0.448260	0.576478
59552	-8.942872	-1.357787	3.818635	-0.012147	0.010078	0.005677	-0.605055	-0.317270	-0.448358	0.576388
59553	-8.961493	-1.328438	3.812805	0.016373	0.024044	0.016338	-0.605019	-0.317378	-0.448422	0.576317
59554	-8.942745	-1.322225	3.809234	0.019771	0.017911	-0.002972	-0.604991	-0.317483	-0.448463	0.576257
59555	-8.969149	-1.308123	3.776556	0.028545	0.058136	0.006426	-0.604974	-0.317551	-0.448493	0.576214
59556	-8.945088	-1.321194	3.790496	0.016458	0.032347	-0.008265	-0.604963	-0.317587	-0.448535	0.576172
59557	-8.925589	-1.316079	3.788310	0.019776	0.026194	-0.027575	-0.604957	-0.317593	-0.448565	0.576152
59558	-8.954161	-1.332535	3.789192	0.005968	0.034058	0.001049	-0.604941	-0.317609	-0.448586	0.576144
59559	-8.937578	-1.358173	3.805218	-0.017408	0.008485	-0.004311	-0.604957	-0.317630	-0.448600	0.576105
59560	-8.930224	-1.343454	3.817256	-0.001491	-0.004015	-0.008341	-0.604946	-0.317658	-0.448625	0.576081
59561	-8.939165	-1.357825	3.788012	-0.020684	0.022858	-0.009603	-0.604945	-0.317697	-0.448656	0.576037
59562	-8.956787	-1.327396	3.798397	0.011969	0.023863	0.006331	-0.604925	-0.317752	-0.448678	0.576010
59563	-8.949857	-1.314070	3.795327	0.023775	0.024401	-0.002995	-0.604904	-0.317797	-0.448716	0.575978
59564	-8.950251	-1.310360	3.822944	0.032493	-0.000877	0.007591	-0.604888	-0.317826	-0.448734	0.575964
59565	-8.971562	-1.317179	3.792980	0.021654	0.032762	0.016303	-0.604865	-0.317863	-0.448776	0.575935
59566	-8.959969	-1.324325	3.791958	0.013832	0.026728	0.006321	-0.604837	-0.317901	-0.448806	0.575920
59567	-8.944948	-1.299032	3.788069	0.036910	0.027062	-0.012333	-0.604810	-0.317929	-0.448807	0.575933
59568	-8.968903	-1.335215	3.791154	0.003506	0.028289	0.015642	-0.604793	-0.317964	-0.448806	0.575931
59569	-8.970629	-1.281669	3.785255	0.054559	0.041809	0.007612	-0.604786	-0.317996	-0.448773	0.575947
59570	-8.978457	-1.291975	3.800913	0.047884	0.029604	0.022233	-0.604794	-0.317957	-0.448785	0.575951
59571	-8.935611	-1.389268	3.795554	-0.051143	0.003765	-0.005608	-0.604801	-0.317938	-0.448749	0.575983
59572	-8.944535	-1.346624	3.806594	-0.007316	0.004528	0.000986	-0.604826	-0.317954	-0.448675	0.576005
59573	-8.944807	-1.348290	3.778088	-0.015147	0.031261	-0.009617	-0.604848	-0.317948	-0.448606	0.576039
59574	-8.945567	-1.292054	3.802646	0.044204	0.018789	-0.007057	-0.604868	-0.317912	-0.448565	0.576070
59575	-8.944054	-1.344541	3.808460	-0.005969	0.006620	0.000986	-0.604860	-0.317864	-0.448545	0.576120
59576	-8.936359	-1.335444	3.778418	-0.002541	0.033142	-0.018951	-0.604849	-0.317823	-0.448514	0.576179
59577	-8.906927	-1.371222	3.781884	-0.038482	0.013900	-0.039531	-0.604841	-0.317800	-0.448499	0.576211
59578	-8.943919	-1.346320	3.794515	-0.008767	0.021798	-0.004320	-0.604838	-0.317801	-0.448500	0.576213
59579	-8.922475	-1.392548	3.813229	-0.052262	-0.011031	-0.010259	-0.604822	-0.317821	-0.448506	0.576214
59580	-8.915574	-1.380716	3.795932	-0.044655	0.002379	-0.024893	-0.604804	-0.317894	-0.448535	0.576170
59581	-8.933099	-1.346745	3.835018	-0.003812	-0.022655	0.001630	-0.604772	-0.318010	-0.448543	0.576133
59582	-8.942650	-1.359939	3.804710	-0.022953	0.004224	0.000350	-0.604750	-0.318140	-0.448584	0.576052
59583	-8.936770	-1.348318	3.771221	-0.019526	0.030774	-0.019598	-0.604723	-0.318282	-0.448630	0.575966
59584	-8.938135	-1.342819	3.797282	-0.010773	0.005435	-0.008982	-0.604692	-0.318449	-0.448654	0.575888
59585	-8.919787	-1.335785	3.793123	-0.007374	-0.000744	-0.028280	-0.604639	-0.318620	-0.448725	0.575794
59586	-8.941875	-1.334730	3.818732	-0.001419	-0.019171	0.001638	-0.604580	-0.318824	-0.448806	0.575680
59587	-8.932431	-1.344216	3.770789	-0.021787	0.013800	-0.024254	-0.604492	-0.319060	-0.448913	0.575558
59588	-8.956588	-1.294552	3.746376	0.022160	0.047303	-0.018355	-0.604415	-0.319322	-0.448976	0.575445
59589	-8.950064	-1.330127	3.759822	-0.012528	0.021934	-0.014295	-0.604342	-0.319554	-0.449086	0.575307
59590	-8.977434	-1.310103	3.767422	0.008812	0.023119	0.010935	-0.604245	-0.319810	-0.449200	0.575178
59591	-8.968106	-1.316281	3.747680	-0.003217	0.030100	-0.004339	-0.604150	-0.320091	-0.449308	0.575037
59592	-8.954972	-1.285442	3.768660	0.028125	0.004434	-0.012388	-0.604068	-0.320340	-0.449386	0.574924
59593	-8.961087	-1.314943	3.766523	-0.002224	-0.001269	-0.003669	-0.603978	-0.320575	-0.449526	0.574778
59594	-8.997516	-1.257732	3.740916	0.050158	0.038952	0.012159	-0.603900	-0.320806	-0.449620	0.574656
59595	-8.991053	-1.297102	3.725456	0.007123	0.039592	0.005607	-0.603815	-0.320990	-0.449732	0.574555
59596	-8.972907	-1.289383	3.734922	0.014799	0.020276	-0.008372	-0.603747	-0.321141	-0.449839	0.574459
59597	-8.999556	-1.270421	3.743736	0.036181	0.021519	0.016848	-0.603678	-0.321299	-0.449931	0.574370
59598	-8.972329	-1.308161	3.714184	-0.008086	0.028153	-0.014306	-0.603608	-0.321385	-0.450053	0.574301
59599	-8.981713	-1.316597	3.741085	-0.010677	0.003041	0.005672	-0.603575	-0.321486	-0.450137	0.574213
59600	-8.971012	-1.322962	3.738445	-0.018621	-0.003051	-0.004278	-0.603529	-0.321615	-0.450215	0.574128
59601	-8.981558	-1.280952	3.730962	0.021147	0.010750	-0.003063	-0.603489	-0.321742	-0.450274	0.574053
59602	-9.003294	-1.285309	3.713871	0.014543	0.031424	0.010905	-0.603457	-0.321829	-0.450339	0.573987
59603	-9.029133	-1.270166	3.695276	0.027625	0.058639	0.025474	-0.603432	-0.321866	-0.450399	0.573945
59604	-8.992920	-1.291635	3.710434	0.007094	0.026028	0.000953	-0.603428	-0.321887	-0.450438	0.573907
59605	-8.997005	-1.323266	3.712546	-0.023360	0.020401	0.009694	-0.603435	-0.321903	-0.450452	0.573880
59606	-9.010715	-1.263517	3.691121	0.031981	0.053721	0.006168	-0.603446	-0.321901	-0.450442	0.573877
59607	-9.014321	-1.293719	3.708900	0.005666	0.035092	0.020235	-0.603478	-0.321870	-0.450428	0.573871
59608	-8.998336	-1.270063	3.692476	0.024541	0.048326	-0.003786	-0.603527	-0.321815	-0.450366	0.573899
59609	-9.005675	-1.279132	3.724228	0.022089	0.023312	0.016209	-0.603563	-0.321720	-0.450321	0.573950
59610	-8.984625	-1.275334	3.725498	0.025411	0.017072	-0.003082	-0.603602	-0.321584	-0.450265	0.574029
59611	-8.994971	-1.320759	3.732332	-0.016267	0.011678	0.015018	-0.603648	-0.321455	-0.450196	0.574108
59612	-8.978098	-1.298320	3.717646	0.002588	0.024924	-0.009007	-0.603707	-0.321312	-0.450122	0.574183
59613	-8.989242	-1.292344	3.705130	0.007260	0.045445	-0.004400	-0.603779	-0.321176	-0.450008	0.574273
59614	-8.983375	-1.311514	3.724935	-0.007783	0.026686	0.000338	-0.603847	-0.321004	-0.449913	0.574372
59615	-8.990644	-1.267407	3.767841	0.044390	0.001460	0.017504	-0.603941	-0.320842	-0.449809	0.574446
59616	-8.955757	-1.326974	3.747558	-0.019552	0.001630	-0.014205	-0.604015	-0.320670	-0.449718	0.574535
59617	-8.950100	-1.347673	3.752310	-0.038710	-0.004175	-0.014789	-0.604094	-0.320530	-0.449657	0.574578
59618	-8.978116	-1.310246	3.765832	0.002211	0.003602	0.010998	-0.604188	-0.320418	-0.449550	0.574626
59619	-8.969368	-1.300496	3.737904	0.005612	0.030019	-0.009023	-0.604280	-0.320308	-0.449469	0.574653
59620	-8.988377	-1.301614	3.770301	0.011518	0.011728	0.020929	-0.604384	-0.320163	-0.449366	0.574705
59621	-8.971331	-1.278474	3.756330	0.030347	0.025021	-0.003113	-0.604488	-0.320009	-0.449257	0.574767
59622	-8.990174	-1.284568	3.745774	0.023785	0.045671	0.010831	-0.604604	-0.319818	-0.449157	0.574829
59623	-8.976041	-1.291475	3.764984	0.020047	0.026606	0.006234	-0.604721	-0.319610	-0.449039	0.574914
59624	-8.973957	-1.292261	3.769681	0.020517	0.027353	0.006231	-0.604849	-0.319365	-0.448885	0.575036
59625	-8.951438	-1.288654	3.774247	0.023843	0.021053	-0.013055	-0.604984	-0.319132	-0.448731	0.575143
59626	-8.969395	-1.293786	3.779999	0.021392	0.028704	0.006225	-0.605121	-0.318889	-0.448579	0.575252
59627	-8.950326	-1.322610	3.787826	-0.006133	0.016086	-0.004275	-0.605251	-0.318648	-0.448436	0.575360
59628	-8.935539	-1.328428	3.822498	-0.005742	-0.015943	-0.003519	-0.605365	-0.318420	-0.448302	0.575471
59629	-8.938034	-1.309159	3.824772	0.014389	-0.008628	-0.002950	-0.605454	-0.318228	-0.448181	0.575578
59630	-8.927772	-1.353199	3.803167	-0.032789	0.005010	-0.014767	-0.605546	-0.318039	-0.448100	0.575649
59631	-8.935181	-1.313493	3.802509	0.006977	0.018755	-0.013637	-0.605634	-0.317882	-0.447986	0.575732
59632	-8.921811	-1.324468	3.777108	-0.009297	0.038696	-0.034248	-0.605707	-0.317753	-0.447888	0.575802
59633	-8.953009	-1.318181	3.808718	0.005068	0.027160	0.005640	-0.605773	-0.317633	-0.447821	0.575852
59634	-8.919319	-1.320240	3.825493	0.004115	0.001103	-0.018217	-0.605842	-0.317517	-0.447744	0.575903
59635	-8.943235	-1.306170	3.811734	0.017146	0.028305	-0.003725	-0.605895	-0.317404	-0.447679	0.575960
59636	-8.937612	-1.325235	3.830484	0.002038	0.009575	0.001061	-0.605953	-0.317272	-0.447601	0.576032
59637	-8.928524	-1.313606	3.831734	0.013843	0.009979	-0.008300	-0.606013	-0.317114	-0.447527	0.576113
59638	-8.935186	-1.326565	3.835679	0.003026	0.010841	0.001060	-0.606069	-0.316979	-0.447456	0.576183
59639	-8.933879	-1.325590	3.852702	0.007642	-0.001559	0.006408	-0.606141	-0.316840	-0.447390	0.576235
59640	-8.920836	-1.336765	3.826536	-0.008579	0.018307	-0.014206	-0.606188	-0.316723	-0.447316	0.576308
59641	-8.936353	-1.307770	3.840922	0.024131	0.019239	0.001608	-0.606246	-0.316583	-0.447242	0.576382
59642	-8.923039	-1.317806	3.829434	0.012081	0.026231	-0.013659	-0.606280	-0.316447	-0.447170	0.576476
59643	-8.913842	-1.304700	3.845054	0.027862	0.013653	-0.017673	-0.606343	-0.316317	-0.447093	0.576541
59644	-8.940581	-1.320403	3.864230	0.018339	0.008701	0.016317	-0.606397	-0.316182	-0.447004	0.576627
59645	-8.906986	-1.325895	3.852179	0.009111	0.008563	-0.018224	-0.606448	-0.316042	-0.446923	0.576713
59646	-8.917831	-1.317247	3.868899	0.022106	0.003019	-0.002961	-0.606510	-0.315892	-0.446835	0.576799
59647	-8.925044	-1.334652	3.829293	-0.001211	0.042890	-0.009660	-0.606570	-0.315740	-0.446762	0.576875
59648	-8.918457	-1.349817	3.892100	-0.003722	-0.014923	0.011216	-0.606621	-0.315585	-0.446702	0.576953
59649	-8.909869	-1.341241	3.863993	-0.000371	0.011553	-0.008861	-0.606657	-0.315466	-0.446619	0.577043
59650	-8.881078	-1.326295	3.849330	0.009983	0.017962	-0.042860	-0.606698	-0.315380	-0.446549	0.577102
59651	-8.929804	-1.294966	3.848500	0.044042	0.045732	-0.003240	-0.606721	-0.315304	-0.446496	0.577161
59652	-8.964820	-1.321762	3.882005	0.027527	0.027941	0.045481	-0.606726	-0.315191	-0.446526	0.577193
59653	-8.911396	-1.322121	3.882041	0.025276	0.007802	-0.002972	-0.606737	-0.315060	-0.446497	0.577277
59654	-8.918284	-1.335792	3.885172	0.014426	0.008808	0.006396	-0.606746	-0.314925	-0.446444	0.577381
59655	-8.921097	-1.372524	3.861225	-0.024425	0.029179	0.004512	-0.606769	-0.314784	-0.446410	0.577461
59656	-8.899700	-1.367833	3.876753	-0.016832	0.009867	-0.009399	-0.606778	-0.314665	-0.446368	0.577548
59657	-8.906739	-1.381195	3.879621	-0.027608	0.010841	-0.000028	-0.606792	-0.314544	-0.446344	0.577619
59658	-8.897866	-1.368276	3.894298	-0.011808	-0.001667	-0.004037	-0.606828	-0.314440	-0.446293	0.577676
59659	-8.901976	-1.349993	3.879108	0.004140	0.018490	-0.008873	-0.606862	-0.314352	-0.446266	0.577710
59660	-8.901748	-1.351635	3.865567	0.000558	0.032123	-0.014238	-0.606889	-0.314275	-0.446236	0.577746
59661	-8.896629	-1.370105	3.882993	-0.014443	0.013255	-0.009400	-0.606924	-0.314227	-0.446194	0.577768
59662	-8.900934	-1.349311	3.881735	0.005690	0.020476	-0.008878	-0.606940	-0.314215	-0.446143	0.577797
59663	-8.909800	-1.307023	3.892351	0.049599	0.021306	-0.002472	-0.606947	-0.314199	-0.446159	0.577786
59664	-8.893107	-1.334682	3.894595	0.022019	0.008738	-0.012889	-0.606954	-0.314172	-0.446135	0.577812
59665	-8.909089	-1.360368	3.882855	-0.004225	0.022932	0.000492	-0.606961	-0.314150	-0.446118	0.577829
59666	-8.900923	-1.346299	3.896296	0.011689	0.010323	-0.003517	-0.606980	-0.314112	-0.446094	0.577849
59667	-8.905253	-1.325861	3.894841	0.031769	0.017521	-0.003003	-0.607004	-0.314069	-0.446063	0.577871
59668	-8.900237	-1.344282	3.912047	0.016688	-0.001184	0.001850	-0.607027	-0.314016	-0.446015	0.577912
59669	-8.905052	-1.326898	3.881453	0.028527	0.031985	-0.008379	-0.607031	-0.313981	-0.446002	0.577937
59670	-8.911804	-1.391511	3.888104	-0.032769	0.020164	0.009351	-0.607047	-0.313947	-0.445998	0.577942
59671	-8.900550	-1.346380	3.883633	0.009902	0.026873	-0.008896	-0.607047	-0.313933	-0.445953	0.577984
59672	-8.887906	-1.352415	3.898970	0.006105	0.007906	-0.013413	-0.607046	-0.313906	-0.445936	0.578013
59673	-8.908508	-1.357977	3.885025	-0.000366	0.028657	0.000478	-0.607039	-0.313903	-0.445927	0.578029
59674	-8.888516	-1.353165	3.883835	0.002869	0.022341	-0.018789	-0.607024	-0.313900	-0.445920	0.578052
59675	-8.863944	-1.367099	3.898759	-0.009244	-0.003560	-0.033184	-0.606990	-0.313921	-0.445941	0.578060
59676	-8.889079	-1.349708	3.910729	0.012250	-0.002248	-0.008042	-0.606939	-0.313951	-0.445992	0.578058
59677	-8.885404	-1.368135	3.924913	-0.002798	-0.020972	-0.003167	-0.606864	-0.314029	-0.446066	0.578037
59678	-8.916779	-1.336325	3.874925	0.021691	0.038839	0.000965	-0.606773	-0.314122	-0.446164	0.578007
59679	-8.909304	-1.376119	3.875534	-0.017201	0.026575	-0.000035	-0.606694	-0.314218	-0.446235	0.577982
59680	-8.927848	-1.348932	3.855265	0.007111	0.053544	0.004962	-0.606621	-0.314320	-0.446319	0.577940
59681	-8.916736	-1.354658	3.867266	0.003218	0.034500	0.000458	-0.606547	-0.314416	-0.446392	0.577908
59682	-8.910185	-1.341816	3.863064	0.014831	0.034982	-0.008928	-0.606478	-0.314497	-0.446449	0.577892
59683	-8.923700	-1.333373	3.859981	0.023704	0.042329	0.000946	-0.606413	-0.314578	-0.446501	0.577876
59684	-8.916199	-1.316576	3.900049	0.047879	0.003709	0.007703	-0.606347	-0.314605	-0.446586	0.577865
59685	-8.904489	-1.383062	3.845532	-0.027314	0.036720	-0.015300	-0.606281	-0.314645	-0.446637	0.577873
59686	-8.921637	-1.352074	3.870433	0.009529	0.024729	0.005829	-0.606252	-0.314662	-0.446678	0.577862
59687	-8.914689	-1.342557	3.838815	0.012902	0.051067	-0.014327	-0.606220	-0.314670	-0.446689	0.577883
59688	-8.914538	-1.339755	3.867316	0.021811	0.025755	-0.003563	-0.606185	-0.314644	-0.446708	0.577919
59689	-8.914849	-1.341308	3.852466	0.018038	0.039514	-0.008951	-0.606181	-0.314626	-0.446689	0.577948
59690	-8.930214	-1.362930	3.884241	0.004359	0.014871	0.020593	-0.606174	-0.314586	-0.446687	0.577978
59691	-8.917851	-1.370853	3.884861	-0.003660	0.008765	0.010721	-0.606174	-0.314557	-0.446673	0.578006
59692	-8.897403	-1.364762	3.898819	0.003747	-0.010594	-0.003150	-0.606185	-0.314531	-0.446650	0.578026
59693	-8.897573	-1.365960	3.884418	-0.000007	0.003034	-0.008538	-0.606205	-0.314492	-0.446638	0.578036
59694	-8.897876	-1.367096	3.869736	-0.003687	0.016682	-0.013927	-0.606202	-0.314486	-0.446635	0.578044
59695	-8.897886	-1.364943	3.884059	0.000974	0.004404	-0.008538	-0.606219	-0.314485	-0.446612	0.578044
59696	-8.894060	-1.385700	3.870727	-0.022385	0.011564	-0.014404	-0.606209	-0.314513	-0.446637	0.578021
59697	-8.907010	-1.375561	3.883127	-0.009344	0.006113	0.000852	-0.606191	-0.314558	-0.446675	0.577985
59698	-8.880179	-1.359190	3.864427	0.000946	0.012425	-0.033187	-0.606166	-0.314646	-0.446714	0.577934
59699	-8.926389	-1.346566	3.861386	0.015430	0.033859	0.005794	-0.606138	-0.314728	-0.446776	0.577870
59700	-8.903107	-1.360963	3.859854	-0.000954	0.020966	-0.013934	-0.606106	-0.314825	-0.446842	0.577800
59701	-8.929391	-1.345280	3.841253	0.012202	0.048246	0.000393	-0.606082	-0.314914	-0.446898	0.577734
59702	-8.897670	-1.342753	3.882234	0.019549	-0.003877	-0.012542	-0.606052	-0.315024	-0.446946	0.577668
59703	-8.920028	-1.351505	3.821894	0.000461	0.055854	-0.014870	-0.606020	-0.315117	-0.447002	0.577608
59704	-8.908524	-1.353600	3.863590	0.004975	0.010838	-0.008545	-0.605986	-0.315214	-0.447052	0.577551
59705	-8.922059	-1.344389	3.860648	0.013860	0.018352	0.001312	-0.605979	-0.315273	-0.447092	0.577496
59706	-8.911270	-1.353810	3.829823	-0.002391	0.038140	-0.019342	-0.605948	-0.315370	-0.447147	0.577432
59707	-8.899941	-1.357145	3.857102	-0.001956	0.006036	-0.018404	-0.605930	-0.315462	-0.447191	0.577367
59708	-8.921826	-1.362497	3.826229	-0.012675	0.039703	-0.009950	-0.605923	-0.315580	-0.447218	0.577289
59709	-8.931889	-1.318697	3.834378	0.031403	0.040502	-0.003639	-0.605898	-0.315682	-0.447257	0.577229
59710	-8.915997	-1.340638	3.878279	0.016350	-0.011066	0.002249	-0.605875	-0.315768	-0.447308	0.577167
59711	-8.917953	-1.344803	3.817421	0.000138	0.041461	-0.019355	-0.605849	-0.315885	-0.447350	0.577098
59712	-8.909917	-1.377633	3.877075	-0.022149	-0.022707	0.001343	-0.605819	-0.315971	-0.447401	0.577042
59713	-8.961891	-1.296513	3.822735	0.050123	0.056862	0.016046	-0.605792	-0.316072	-0.447453	0.576975
59714	-8.929781	-1.351085	3.825429	-0.005665	0.030882	-0.004561	-0.605779	-0.316150	-0.447516	0.576898
59715	-8.923199	-1.337390	3.821507	0.006035	0.031275	-0.013964	-0.605737	-0.316259	-0.447557	0.576850
59716	-8.919993	-1.354563	3.835522	-0.008913	0.012563	-0.009009	-0.605710	-0.316343	-0.447607	0.576793
59717	-8.933537	-1.343649	3.846816	0.004170	0.007044	0.006243	-0.605687	-0.316443	-0.447662	0.576719
59718	-8.939471	-1.323278	3.827520	0.020049	0.027285	0.001281	-0.605657	-0.316555	-0.447705	0.576656
59719	-8.924212	-1.349479	3.827493	-0.007519	0.014636	-0.009011	-0.605650	-0.316656	-0.447758	0.576568
59720	-8.946108	-1.351729	3.824972	-0.009870	0.022559	0.010236	-0.605615	-0.316803	-0.447819	0.576476
59721	-8.923986	-1.312829	3.817908	0.024250	0.022295	-0.017975	-0.605601	-0.316921	-0.447867	0.576388
59722	-8.958152	-1.308696	3.800366	0.026196	0.049811	0.005703	-0.605595	-0.317027	-0.447928	0.576289
59723	-8.946951	-1.310407	3.842138	0.030707	0.004865	0.012085	-0.605578	-0.317115	-0.447974	0.576223
59724	-8.948289	-1.310406	3.825163	0.026997	0.018551	0.006673	-0.605567	-0.317186	-0.448023	0.576158
59725	-8.949593	-1.311998	3.793838	0.019097	0.045073	-0.004152	-0.605570	-0.317244	-0.448072	0.576084
59726	-8.946164	-1.330948	3.794081	-0.000022	0.039146	-0.004589	-0.605565	-0.317283	-0.448104	0.576043
59727	-8.946761	-1.328333	3.807450	0.004444	0.026800	0.000821	-0.605590	-0.317312	-0.448109	0.575997
59728	-8.939448	-1.314900	3.805084	0.016114	0.027177	-0.008588	-0.605587	-0.317354	-0.448119	0.575969
59729	-8.952341	-1.304567	3.817671	0.029290	0.021679	0.006660	-0.605591	-0.317364	-0.448158	0.575929
59730	-8.940770	-1.314540	3.788220	0.012865	0.041438	-0.014008	-0.605610	-0.317383	-0.448159	0.575897
59731	-8.949226	-1.325839	3.788645	0.002068	0.042409	-0.004603	-0.605615	-0.317399	-0.448171	0.575875
59732	-8.929297	-1.317697	3.816431	0.013568	0.010029	-0.013018	-0.605628	-0.317418	-0.448169	0.575852
59733	-8.934064	-1.296796	3.813669	0.033691	0.017271	-0.012595	-0.605623	-0.317421	-0.448177	0.575849
59734	-8.938304	-1.331543	3.786911	-0.005000	0.037700	-0.014446	-0.605612	-0.317437	-0.448193	0.575839
59735	-8.950859	-1.320071	3.814577	0.012284	0.019288	0.006220	-0.605615	-0.317432	-0.448195	0.575838
59736	-8.955397	-1.299562	3.812205	0.032336	0.026521	0.006638	-0.605611	-0.317415	-0.448188	0.575856
59737	-8.959216	-1.331769	3.815110	0.001915	0.021033	0.015627	-0.605607	-0.317399	-0.448197	0.575862
59738	-8.935518	-1.296317	3.796518	0.031860	0.033704	-0.018030	-0.605619	-0.317369	-0.448182	0.575879
59739	-8.939018	-1.325452	3.829031	0.009733	0.002343	0.001804	-0.605625	-0.317348	-0.448161	0.575900
59740	-8.943556	-1.308018	3.797796	0.021441	0.035511	-0.008625	-0.605625	-0.317323	-0.448155	0.575918
59741	-8.939241	-1.326576	3.814223	0.006371	0.016867	-0.003620	-0.605631	-0.317293	-0.448146	0.575935
59742	-8.939368	-1.326370	3.813997	0.006857	0.017653	-0.003621	-0.605626	-0.317276	-0.448141	0.575954
59743	-8.939593	-1.326215	3.813525	0.007281	0.018377	-0.003623	-0.605614	-0.317263	-0.448153	0.575964
59744	-8.939759	-1.324525	3.827622	0.011898	0.006120	0.001800	-0.605608	-0.317257	-0.448144	0.575981
59745	-8.960456	-1.331324	3.798453	0.001316	0.039893	0.010186	-0.605601	-0.317259	-0.448156	0.575978
59746	-8.944842	-1.306389	3.795327	0.024190	0.039916	-0.008648	-0.605601	-0.317254	-0.448152	0.575984
59747	-8.924794	-1.300221	3.808858	0.031522	0.020519	-0.022462	-0.605599	-0.317249	-0.448159	0.575983
59748	-8.948873	-1.335233	3.826738	0.002550	0.009358	0.011212	-0.605590	-0.317225	-0.448161	0.576004
59749	-8.941195	-1.325874	3.795976	0.005980	0.035729	-0.009064	-0.605576	-0.317204	-0.448159	0.576033
59750	-8.941338	-1.324183	3.810136	0.010534	0.023496	-0.003637	-0.605579	-0.317193	-0.448163	0.576032
59751	-8.933612	-1.313318	3.793916	0.018002	0.036703	-0.018487	-0.605570	-0.317166	-0.448169	0.576051
59752	-8.953733	-1.313190	3.838037	0.028244	0.005719	0.017038	-0.605572	-0.317137	-0.448161	0.576072
59753	-8.949548	-1.335006	3.825238	0.004787	0.012879	0.011208	-0.605549	-0.317103	-0.448178	0.576101
59754	-8.929469	-1.330979	3.824203	0.008025	0.006519	-0.008028	-0.605526	-0.317089	-0.448182	0.576130
59755	-8.954448	-1.317858	3.792992	0.017010	0.046733	0.000732	-0.605526	-0.317086	-0.448189	0.576127
59756	-8.942328	-1.322519	3.822311	0.017315	0.014785	0.001783	-0.605504	-0.317088	-0.448184	0.576152
59757	-8.938405	-1.345461	3.794580	-0.010287	0.034810	-0.009480	-0.605497	-0.317074	-0.448201	0.576154
59758	-8.930721	-1.330405	3.821478	0.009736	0.009299	-0.008032	-0.605456	-0.317072	-0.448246	0.576163
59759	-8.931238	-1.331976	3.805793	0.005972	0.022966	-0.013470	-0.605437	-0.317070	-0.448265	0.576170
59760	-8.943929	-1.324016	3.804110	0.014849	0.030530	-0.003662	-0.605420	-0.317060	-0.448295	0.576170
59761	-8.924101	-1.318112	3.817084	0.022238	0.011082	-0.017459	-0.605390	-0.317080	-0.448318	0.576172
59762	-8.924507	-1.319371	3.801755	0.018470	0.024748	-0.022899	-0.605387	-0.317059	-0.448318	0.576187
59763	-8.932649	-1.329972	3.817119	0.011814	0.012814	-0.008038	-0.605384	-0.317049	-0.448330	0.576186
59764	-8.965547	-1.326075	3.816141	0.017886	0.027692	0.020997	-0.605376	-0.317048	-0.448339	0.576188
59765	-8.941394	-1.341538	3.816798	0.001375	0.014671	0.001383	-0.605372	-0.317056	-0.448353	0.576176
59766	-8.929579	-1.350544	3.802125	-0.010776	0.021501	-0.013865	-0.605352	-0.317060	-0.448365	0.576186
59767	-8.962550	-1.346365	3.801060	-0.004668	0.036226	0.015167	-0.605350	-0.317079	-0.448366	0.576177
59768	-8.954793	-1.330792	3.828371	0.015387	0.010688	0.016626	-0.605345	-0.317054	-0.448374	0.576190
59769	-8.939108	-1.307630	3.810837	0.034044	0.023654	-0.007673	-0.605336	-0.317051	-0.448373	0.576203
59770	-8.943053	-1.341157	3.799089	-0.000717	0.031260	-0.004069	-0.605344	-0.317037	-0.448365	0.576207
59771	-8.935161	-1.327258	3.812181	0.015081	0.018687	-0.008052	-0.605348	-0.317006	-0.448359	0.576225
59772	-8.943295	-1.340816	3.798640	0.000060	0.032768	-0.004074	-0.605350	-0.316987	-0.448357	0.576235
59773	-8.935463	-1.328216	3.797179	0.011737	0.033061	-0.013504	-0.605367	-0.316969	-0.448343	0.576238
59774	-8.943504	-1.336689	3.827511	0.009298	0.008251	0.006818	-0.605380	-0.316981	-0.448310	0.576244
59775	-8.940054	-1.303413	3.824033	0.040564	0.015107	-0.002244	-0.605394	-0.316979	-0.448295	0.576241
59776	-8.944033	-1.338205	3.797824	0.001822	0.035574	-0.004083	-0.605396	-0.316962	-0.448297	0.576247
59777	-8.927638	-1.364376	3.814789	-0.021704	0.010048	-0.008796	-0.605397	-0.316962	-0.448285	0.576255
59778	-8.936575	-1.324779	3.795763	0.013892	0.036710	-0.013520	-0.605409	-0.316969	-0.448271	0.576250
59779	-8.936877	-1.322449	3.809829	0.018542	0.024414	-0.008071	-0.605419	-0.316977	-0.448272	0.576234
59780	-8.933052	-1.343238	3.796551	-0.004865	0.031606	-0.013887	-0.605417	-0.316997	-0.448273	0.576224
59781	-8.925370	-1.327246	3.823847	0.015063	0.005983	-0.012414	-0.605442	-0.316994	-0.448267	0.576205
59782	-8.958320	-1.324368	3.808366	0.017101	0.033685	0.011144	-0.605445	-0.316994	-0.448288	0.576185
59783	-8.934073	-1.338202	3.823861	0.004815	0.007848	-0.002984	-0.605441	-0.316997	-0.448268	0.576203
59784	-8.926376	-1.323693	3.836708	0.020630	-0.004774	-0.006963	-0.605466	-0.317002	-0.448270	0.576173
59785	-8.934815	-1.337869	3.808267	0.001502	0.022143	-0.008442	-0.605485	-0.317009	-0.448262	0.576155
59786	-8.947420	-1.329086	3.807021	0.010403	0.029816	0.001343	-0.605501	-0.317002	-0.448256	0.576146
59787	-8.947686	-1.328372	3.806644	0.010797	0.030573	0.001341	-0.605513	-0.317001	-0.448239	0.576148
59788	-8.947913	-1.327734	3.806334	0.011287	0.031353	0.001338	-0.605527	-0.316984	-0.448236	0.576145
59789	-8.935856	-1.335015	3.806826	0.003213	0.025150	-0.008450	-0.605553	-0.316976	-0.448224	0.576131
59790	-8.952602	-1.303217	3.832833	0.040161	0.013402	0.012600	-0.605548	-0.316985	-0.448211	0.576142
59791	-8.944375	-1.346013	3.807270	-0.007108	0.026947	0.000983	-0.605568	-0.316956	-0.448226	0.576124
59792	-8.961094	-1.316018	3.818721	0.025591	0.028125	0.016570	-0.605582	-0.316943	-0.448214	0.576127
59793	-8.956956	-1.335671	3.820593	0.006433	0.022369	0.016223	-0.605594	-0.316922	-0.448201	0.576135
59794	-8.924574	-1.338825	3.820712	0.001089	0.008973	-0.012777	-0.605614	-0.316908	-0.448195	0.576127
59795	-8.924882	-1.338036	3.820270	0.001530	0.009726	-0.012778	-0.605626	-0.316921	-0.448186	0.576114
59796	-8.937638	-1.330287	3.804299	0.006229	0.030148	-0.008465	-0.605650	-0.316957	-0.448170	0.576081
59797	-8.938128	-1.325902	3.832662	0.015035	0.004968	0.002464	-0.605670	-0.316988	-0.448172	0.576042
59798	-8.946733	-1.338083	3.818513	0.000172	0.018932	0.006436	-0.605694	-0.317023	-0.448159	0.576008
59799	-8.927005	-1.332366	3.817289	0.003343	0.012366	-0.012782	-0.605707	-0.317057	-0.448151	0.575981
59800	-8.923782	-1.300165	3.798729	0.030543	0.032110	-0.027357	-0.605715	-0.317085	-0.448138	0.575968
59801	-8.948288	-1.333792	3.816370	0.001476	0.021040	0.006432	-0.605759	-0.317119	-0.448121	0.575916
59802	-8.944980	-1.298305	3.827127	0.036930	0.014940	0.002789	-0.605788	-0.317145	-0.448093	0.575893
59803	-8.965592	-1.302766	3.812703	0.030544	0.035808	0.016531	-0.605812	-0.317140	-0.448080	0.575881
59804	-8.925317	-1.294910	3.796916	0.032312	0.034885	-0.027373	-0.605828	-0.317137	-0.448074	0.575870
59805	-8.933508	-1.307754	3.783513	0.017297	0.048842	-0.023404	-0.605867	-0.317117	-0.448047	0.575860
59806	-8.957843	-1.286692	3.826164	0.047148	0.024538	0.012548	-0.605910	-0.317072	-0.448001	0.575877
59807	-8.969339	-1.332440	3.816961	0.001375	0.032361	0.025635	-0.605961	-0.316989	-0.447980	0.575885
59808	-8.944382	-1.349582	3.805144	-0.019320	0.032246	0.000622	-0.606010	-0.316928	-0.447909	0.575923
59809	-8.915505	-1.331210	3.819469	-0.000736	0.012315	-0.022562	-0.606065	-0.316853	-0.447851	0.575950
59810	-8.939489	-1.316155	3.804864	0.012434	0.039702	-0.008505	-0.606124	-0.316791	-0.447774	0.575982
59811	-8.918562	-1.309957	3.820581	0.019688	0.020195	-0.022244	-0.606194	-0.316705	-0.447710	0.576006
59812	-8.958300	-1.316799	3.837968	0.018897	0.022532	0.021652	-0.606245	-0.316598	-0.447635	0.576068
59813	-8.953256	-1.335606	3.856306	0.003817	0.003754	0.026810	-0.606282	-0.316518	-0.447582	0.576115
59814	-8.924302	-1.321020	3.841501	0.013865	0.009782	-0.007326	-0.606315	-0.316411	-0.447533	0.576177
59815	-8.927931	-1.305848	3.797309	0.021390	0.055863	-0.023450	-0.606327	-0.316321	-0.447472	0.576261
59816	-8.927060	-1.301813	3.842600	0.034353	0.017800	-0.007016	-0.606369	-0.316228	-0.447414	0.576313
59817	-8.966775	-1.310860	3.845333	0.029367	0.033012	0.031399	-0.606397	-0.316096	-0.447371	0.576389
59818	-8.933399	-1.315719	3.847168	0.023923	0.019644	0.002428	-0.606409	-0.315986	-0.447338	0.576463
59819	-8.895856	-1.340732	3.850814	-0.001045	-0.000365	-0.026851	-0.606423	-0.315869	-0.447308	0.576536
59820	-8.883127	-1.353679	3.809134	-0.021726	0.032345	-0.053057	-0.606448	-0.315800	-0.447255	0.576589
59821	-8.911301	-1.313111	3.850336	0.027915	0.014544	-0.016788	-0.606472	-0.315745	-0.447213	0.576626
59822	-8.951484	-1.321358	3.852278	0.022866	0.029876	0.021624	-0.606502	-0.315688	-0.447162	0.576665
59823	-8.946736	-1.340101	3.869855	0.007670	0.011267	0.026802	-0.606511	-0.315628	-0.447108	0.576730
59824	-8.934085	-1.349378	3.857133	-0.004556	0.018086	0.011560	-0.606548	-0.315579	-0.447040	0.576772
59825	-8.880808	-1.347033	3.872477	-0.003083	-0.015563	-0.031119	-0.606574	-0.315529	-0.446990	0.576810
59826	-8.897414	-1.322690	3.826464	0.013014	0.037238	-0.037528	-0.606597	-0.315522	-0.446966	0.576808
59827	-8.921970	-1.303177	3.853942	0.038874	0.025879	-0.007051	-0.606610	-0.315496	-0.446975	0.576802
59828	-8.946254	-1.337976	3.871705	0.009861	0.014999	0.026795	-0.606613	-0.315487	-0.446988	0.576794
59829	-8.930085	-1.365809	3.873789	-0.017768	0.002295	0.016747	-0.606611	-0.315474	-0.446997	0.576795
59830	-8.890222	-1.360883	3.828215	-0.024509	0.027202	-0.038131	-0.606621	-0.315520	-0.446997	0.576760
59831	-8.903453	-1.295866	3.850399	0.043376	0.021544	-0.026270	-0.606626	-0.315573	-0.446973	0.576744
59832	-8.920365	-1.320251	3.836972	0.017278	0.035917	-0.012854	-0.606622	-0.315631	-0.447016	0.576684
59833	-8.949549	-1.335597	3.837044	0.003802	0.044298	0.015801	-0.606609	-0.315669	-0.447038	0.576658
59834	-8.901661	-1.312561	3.847940	0.024911	0.017156	-0.026569	-0.606593	-0.315724	-0.447045	0.576641
59835	-8.930893	-1.329444	3.833434	0.007391	0.038493	-0.003408	-0.606568	-0.315771	-0.447092	0.576604
59836	-8.906725	-1.394168	3.867667	-0.051365	-0.012932	-0.003024	-0.606559	-0.315811	-0.447113	0.576577
59837	-8.940802	-1.284065	3.855632	0.055891	0.027100	0.008148	-0.606573	-0.315854	-0.447104	0.576544
59838	-8.928907	-1.346340	3.831381	-0.011074	0.034253	-0.003702	-0.606555	-0.315897	-0.447116	0.576531
59839	-8.946124	-1.317282	3.827162	0.017511	0.048340	0.006320	-0.606548	-0.315932	-0.447146	0.576496
59840	-8.906035	-1.362247	3.815196	-0.031435	0.034734	-0.028685	-0.606529	-0.315963	-0.447202	0.576455
59841	-8.923284	-1.330159	3.839874	0.005609	0.022967	-0.007668	-0.606524	-0.316023	-0.447215	0.576417
59842	-8.932478	-1.286996	3.848982	0.049526	0.023806	-0.001613	-0.606515	-0.316073	-0.447222	0.576394
59843	-8.924931	-1.327687	3.836902	0.006438	0.024422	-0.007672	-0.606514	-0.316118	-0.447259	0.576342
59844	-8.933945	-1.340268	3.821754	-0.008521	0.038455	-0.003715	-0.606499	-0.316173	-0.447297	0.576297
59845	-8.930956	-1.306958	3.816833	0.022749	0.045248	-0.012904	-0.606496	-0.316203	-0.447323	0.576264
59846	-8.935589	-1.336686	3.833155	-0.003531	0.026961	0.001783	-0.606491	-0.316271	-0.447337	0.576222
59847	-8.899942	-1.354689	3.877103	-0.016057	-0.031723	-0.010911	-0.606486	-0.316361	-0.447388	0.576138
59848	-8.905714	-1.339635	3.799595	-0.016865	0.040012	-0.038159	-0.606498	-0.316485	-0.447420	0.576032
59849	-8.931757	-1.316569	3.838856	0.013067	0.015794	-0.002181	-0.606494	-0.316628	-0.447467	0.575921
59850	-8.949996	-1.290046	3.789074	0.029057	0.068774	-0.008701	-0.606486	-0.316782	-0.447507	0.575814
59851	-8.923090	-1.322193	3.804073	-0.002943	0.036278	-0.022929	-0.606490	-0.316903	-0.447567	0.575696
59852	-8.941143	-1.288578	3.827327	0.033981	0.024482	-0.001921	-0.606501	-0.317028	-0.447623	0.575572
59853	-8.926520	-1.314336	3.826882	0.006165	0.011782	-0.011917	-0.606511	-0.317155	-0.447703	0.575429
59854	-8.940734	-1.303694	3.822318	0.014993	0.019403	-0.002190	-0.606502	-0.317323	-0.447778	0.575288
59855	-8.950819	-1.317297	3.776032	-0.008339	0.059211	-0.009256	-0.606502	-0.317493	-0.447833	0.575152
59856	-8.956868	-1.288357	3.828923	0.028527	0.014773	0.013043	-0.606506	-0.317627	-0.447887	0.575032
59857	-8.978743	-1.292837	3.797233	0.017961	0.048614	0.021210	-0.606512	-0.317743	-0.447926	0.574930
59858	-8.947743	-1.294306	3.794947	0.012555	0.035109	-0.007711	-0.606514	-0.317866	-0.447966	0.574829
59859	-8.957354	-1.303889	3.793447	0.001777	0.036253	0.001753	-0.606526	-0.317991	-0.447994	0.574726
59860	-8.950701	-1.287734	3.804360	0.017541	0.023649	-0.002204	-0.606535	-0.318100	-0.448014	0.574640
59861	-8.943755	-1.274791	3.786547	0.024996	0.036871	-0.017189	-0.606571	-0.318164	-0.448038	0.574548
59862	-8.969183	-1.257980	3.768501	0.038274	0.064339	-0.003265	-0.606568	-0.318264	-0.448036	0.574497
59863	-8.966052	-1.274976	3.783505	0.023224	0.045602	0.001993	-0.606568	-0.318312	-0.448054	0.574456
59864	-8.954580	-1.283399	3.768325	0.010920	0.052294	-0.013247	-0.606572	-0.318343	-0.448085	0.574411
59865	-8.967251	-1.275720	3.752040	0.015723	0.072738	-0.009050	-0.606597	-0.318354	-0.448065	0.574394
59866	-8.967573	-1.271605	3.781035	0.024487	0.047604	0.001981	-0.606634	-0.318353	-0.448039	0.574377
59867	-8.951465	-1.295862	3.813243	0.005056	0.009077	0.003050	-0.606677	-0.318335	-0.447999	0.574371
59868	-8.951435	-1.296293	3.798989	0.001321	0.022734	-0.002470	-0.606722	-0.318315	-0.447966	0.574361
59869	-8.947347	-1.262997	3.796196	0.032638	0.029412	-0.011700	-0.606768	-0.318281	-0.447927	0.574362
59870	-8.939029	-1.302618	3.800929	-0.006249	0.017008	-0.012188	-0.606824	-0.318234	-0.447900	0.574350
59871	-8.947155	-1.312532	3.817036	-0.012813	0.005267	0.002805	-0.606854	-0.318217	-0.447877	0.574345
59872	-8.927058	-1.308813	3.801899	-0.013957	0.011504	-0.021903	-0.606898	-0.318231	-0.447862	0.574303
59873	-8.931420	-1.289030	3.784858	0.001941	0.031579	-0.027188	-0.606914	-0.318222	-0.447861	0.574292
59874	-8.939972	-1.300301	3.785330	-0.008789	0.032748	-0.017716	-0.606930	-0.318244	-0.447872	0.574254
59875	-8.924355	-1.274933	3.781833	0.013972	0.032615	-0.036667	-0.606931	-0.318279	-0.447881	0.574227
59876	-8.949591	-1.307153	3.813170	-0.010689	0.008806	0.002805	-0.606941	-0.318326	-0.447909	0.574168
59877	-8.922000	-1.289679	3.810086	0.003381	0.001720	-0.025854	-0.606959	-0.318366	-0.447932	0.574109
59878	-8.935178	-1.282931	3.778054	0.003819	0.035250	-0.027201	-0.606961	-0.318466	-0.447970	0.574022
59879	-8.932526	-1.298509	3.806779	-0.007039	0.003668	-0.016379	-0.606956	-0.318537	-0.448023	0.573946
59880	-8.958204	-1.282031	3.787856	0.006182	0.031109	-0.002495	-0.606955	-0.318646	-0.448079	0.573842
59881	-8.955667	-1.298965	3.801685	-0.008854	0.012401	0.002803	-0.606949	-0.318728	-0.448144	0.573753
59882	-8.944682	-1.256000	3.765330	0.025188	0.044471	-0.026985	-0.606928	-0.318813	-0.448220	0.573669
59883	-8.954440	-1.319171	3.768632	-0.035972	0.033077	-0.008484	-0.606903	-0.318921	-0.448304	0.573569
59884	-8.960318	-1.295406	3.777670	-0.011677	0.027429	-0.002730	-0.606868	-0.319082	-0.448361	0.573472
59885	-8.945813	-1.267500	3.786597	0.015342	0.014345	-0.016157	-0.606864	-0.319182	-0.448430	0.573367
59886	-8.992202	-1.254385	3.767029	0.026051	0.049123	0.016890	-0.606826	-0.319363	-0.448501	0.573251
59887	-8.981902	-1.258770	3.779012	0.022174	0.029906	0.012719	-0.606808	-0.319467	-0.448568	0.573160
59888	-8.999175	-1.232995	3.729627	0.038174	0.082615	0.006033	-0.606796	-0.319574	-0.448605	0.573083
59889	-8.972312	-1.263518	3.774910	0.014492	0.024250	0.003015	-0.606771	-0.319642	-0.448647	0.573039
59890	-8.977175	-1.243545	3.756379	0.030383	0.044385	-0.002307	-0.606759	-0.319703	-0.448665	0.573003
59891	-8.977997	-1.241024	3.769592	0.034928	0.032267	0.003225	-0.606757	-0.319727	-0.448671	0.572987
59892	-8.970383	-1.283743	3.743380	-0.012366	0.045809	-0.008280	-0.606739	-0.319748	-0.448699	0.572972
59893	-8.962838	-1.269811	3.755694	0.003348	0.033114	-0.012228	-0.606729	-0.319749	-0.448719	0.572967
59894	-8.967348	-1.247457	3.767456	0.027673	0.027372	-0.006481	-0.606725	-0.319781	-0.448702	0.572967
59895	-8.951643	-1.274919	3.769666	-0.000078	0.014768	-0.016387	-0.606718	-0.319795	-0.448707	0.572963
59896	-8.956194	-1.252713	3.781283	0.024228	0.009069	-0.010640	-0.606706	-0.319800	-0.448721	0.572962
59897	-8.952668	-1.273922	3.767569	0.000732	0.016138	-0.016389	-0.606694	-0.319827	-0.448758	0.572930
59898	-8.965543	-1.265315	3.765111	0.009727	0.023745	-0.006700	-0.606673	-0.319847	-0.448804	0.572905
59899	-8.958261	-1.306625	3.752958	-0.033385	0.024264	-0.012652	-0.606652	-0.319896	-0.448848	0.572866
59900	-8.983361	-1.233997	3.773490	0.042917	0.025636	0.008731	-0.606660	-0.319920	-0.448861	0.572834
59901	-8.967515	-1.265888	3.731464	0.002540	0.051620	-0.017794	-0.606654	-0.319947	-0.448889	0.572804
59902	-8.972224	-1.244802	3.727925	0.022612	0.058901	-0.017597	-0.606637	-0.319996	-0.448905	0.572782
59903	-8.945022	-1.277371	3.759353	-0.005335	0.013485	-0.026084	-0.606631	-0.320037	-0.448940	0.572737
59904	-8.990275	-1.265616	3.741670	0.005352	0.048417	0.006913	-0.606615	-0.320074	-0.448949	0.572726
59905	-8.970605	-1.260608	3.740218	0.008491	0.041671	-0.012263	-0.606611	-0.320115	-0.448963	0.572697
59906	-8.991868	-1.260604	3.768342	0.014636	0.023947	0.018000	-0.606602	-0.320151	-0.448977	0.572675
59907	-8.963899	-1.245165	3.751069	0.024692	0.029666	-0.016211	-0.606588	-0.320185	-0.449006	0.572648
59908	-8.984974	-1.248309	3.749769	0.022525	0.037801	0.002957	-0.606556	-0.320236	-0.449024	0.572640
59909	-8.965483	-1.242010	3.762757	0.029665	0.018167	-0.010667	-0.606550	-0.320272	-0.449038	0.572614
59910	-8.970032	-1.276574	3.735601	-0.009192	0.038653	-0.012471	-0.606540	-0.320290	-0.449061	0.572598
59911	-8.962570	-1.262469	3.747831	0.006653	0.026056	-0.016413	-0.606514	-0.320318	-0.449076	0.572598
59912	-8.987568	-1.244224	3.759347	0.028290	0.027721	0.008494	-0.606497	-0.320333	-0.449099	0.572589
59913	-8.955758	-1.247979	3.758646	0.022817	0.014068	-0.020356	-0.606457	-0.320375	-0.449138	0.572577
59914	-8.952831	-1.266097	3.773432	0.007706	-0.004489	-0.014989	-0.606425	-0.320433	-0.449170	0.572553
59915	-8.973816	-1.271984	3.742519	-0.002833	0.029405	-0.006929	-0.606389	-0.320508	-0.449195	0.572530
59916	-8.962985	-1.276110	3.770603	-0.002550	-0.002708	-0.005496	-0.606363	-0.320572	-0.449242	0.572485
59917	-8.967846	-1.256349	3.751721	0.013347	0.017310	-0.010871	-0.606327	-0.320647	-0.449293	0.572441
59918	-8.977390	-1.265940	3.764942	0.006710	0.005605	0.004177	-0.606296	-0.320727	-0.449350	0.572385
59919	-8.970279	-1.254233	3.746608	0.014075	0.018727	-0.010875	-0.606266	-0.320806	-0.449414	0.572322
59920	-8.995741	-1.238199	3.727241	0.027520	0.046149	0.002909	-0.606212	-0.320911	-0.449485	0.572264
59921	-8.973055	-1.251905	3.740736	0.015084	0.020182	-0.010879	-0.606154	-0.321003	-0.449551	0.572222
59922	-8.982428	-1.264462	3.724364	0.000150	0.034165	-0.006945	-0.606103	-0.321099	-0.449616	0.572171
59923	-8.971700	-1.271507	3.722327	-0.007910	0.027950	-0.016616	-0.606031	-0.321215	-0.449680	0.572132
59924	-8.985913	-1.257989	3.761776	0.013703	-0.002965	0.009733	-0.605943	-0.321324	-0.449759	0.572101
59925	-8.986823	-1.262806	3.699752	-0.002693	0.049315	-0.012514	-0.605861	-0.321475	-0.449848	0.572035
59926	-9.009210	-1.264107	3.710355	-0.000678	0.044637	0.012208	-0.605784	-0.321595	-0.449958	0.571962
59927	-8.986219	-1.226828	3.703404	0.033150	0.043901	-0.016289	-0.605717	-0.321711	-0.450023	0.571916
59928	-9.004167	-1.249824	3.702298	0.011397	0.045622	0.002703	-0.605632	-0.321838	-0.450092	0.571881
59929	-8.981479	-1.264795	3.700972	-0.005309	0.032516	-0.016628	-0.605564	-0.321973	-0.450144	0.571836
59930	-9.003415	-1.267269	3.697671	-0.007426	0.040579	0.002532	-0.605486	-0.322111	-0.450216	0.571785
59931	-9.000618	-1.233658	3.691207	0.023763	0.047337	-0.006809	-0.605430	-0.322219	-0.450273	0.571738
59932	-8.998226	-1.251509	3.705102	0.008720	0.028701	-0.001407	-0.605358	-0.322302	-0.450327	0.571725
59933	-9.035099	-1.229561	3.670596	0.026411	0.076010	0.016434	-0.605310	-0.322342	-0.450378	0.571713
59934	-9.003515	-1.232415	3.684552	0.025191	0.049487	-0.006823	-0.605254	-0.322339	-0.450416	0.571744
59935	-9.004070	-1.231408	3.698212	0.029824	0.037378	-0.001259	-0.605222	-0.322311	-0.450434	0.571779
59936	-9.003576	-1.235085	3.668828	0.021871	0.063785	-0.012403	-0.605203	-0.322247	-0.450445	0.571827
59937	-8.999789	-1.253599	3.700597	0.011036	0.032329	-0.001421	-0.605196	-0.322128	-0.450443	0.571903
59938	-8.994985	-1.276716	3.689251	-0.012303	0.039439	-0.007147	-0.605198	-0.322010	-0.450422	0.571983
59939	-8.994279	-1.277899	3.690561	-0.011792	0.040180	-0.007149	-0.605204	-0.321897	-0.450395	0.572062
59940	-8.994060	-1.276020	3.721040	-0.003105	0.015204	0.003994	-0.605227	-0.321782	-0.450363	0.572127
59941	-9.005374	-1.270018	3.706601	0.001777	0.035646	0.008072	-0.605245	-0.321706	-0.450338	0.572171
59942	-8.996501	-1.258604	3.706887	0.013417	0.035888	-0.001436	-0.605262	-0.321583	-0.450291	0.572259
59943	-8.996111	-1.256662	3.737770	0.022175	0.010780	0.009712	-0.605306	-0.321450	-0.450261	0.572311
59944	-8.962605	-1.263477	3.725699	0.012420	0.009947	-0.024672	-0.605329	-0.321321	-0.450240	0.572375
59945	-8.966023	-1.298245	3.715531	-0.022134	0.017557	-0.020886	-0.605355	-0.321219	-0.450226	0.572416
59946	-8.989367	-1.285429	3.685289	-0.013019	0.057978	-0.012745	-0.605375	-0.321142	-0.450196	0.572462
59947	-8.969159	-1.278717	3.715079	-0.001547	0.025435	-0.020747	-0.605399	-0.321083	-0.450178	0.572484
59948	-8.993155	-1.262232	3.713765	0.015991	0.039913	-0.001455	-0.605445	-0.321022	-0.450149	0.572491
59949	-8.988731	-1.283587	3.702088	-0.007476	0.046964	-0.007175	-0.605475	-0.320977	-0.450112	0.572514
59950	-8.984420	-1.249345	3.714218	0.027966	0.040844	-0.010972	-0.605513	-0.320933	-0.450064	0.572538
59951	-8.972461	-1.254234	3.745134	0.028311	0.008742	-0.009458	-0.605541	-0.320870	-0.450040	0.572561
59952	-8.988140	-1.281028	3.719004	-0.001845	0.036188	-0.001603	-0.605583	-0.320818	-0.449995	0.572581
59953	-8.976002	-1.287206	3.735303	-0.005687	0.016908	-0.005665	-0.605624	-0.320769	-0.449977	0.572580
59954	-8.972016	-1.251390	3.761754	0.034037	-0.002210	-0.003881	-0.605659	-0.320733	-0.449948	0.572586
59955	-8.983781	-1.299557	3.722761	-0.020015	0.031588	-0.001739	-0.605698	-0.320694	-0.449925	0.572584
59956	-8.967552	-1.273106	3.735473	0.006800	0.018389	-0.015180	-0.605739	-0.320682	-0.449889	0.572576
59957	-8.959404	-1.259981	3.734571	0.018328	0.018567	-0.024694	-0.605784	-0.320667	-0.449862	0.572558
59958	-8.979916	-1.263167	3.734505	0.016276	0.026726	-0.005545	-0.605792	-0.320649	-0.449870	0.572552
59959	-8.984206	-1.296443	3.722820	-0.018270	0.034424	-0.001745	-0.605810	-0.320631	-0.449857	0.572554
59960	-8.980152	-1.263512	3.719224	0.012881	0.041107	-0.011138	-0.605820	-0.320634	-0.449858	0.572541
59961	-8.980859	-1.259924	3.747933	0.021666	0.016178	0.000034	-0.605835	-0.320625	-0.449839	0.572546
59962	-8.976920	-1.281064	3.735210	-0.001660	0.023381	-0.005677	-0.605840	-0.320607	-0.449833	0.572555
59963	-8.980841	-1.261719	3.718170	0.014229	0.043440	-0.011150	-0.605850	-0.320608	-0.449827	0.572549
59964	-8.976975	-1.282812	3.705288	-0.009143	0.050537	-0.016861	-0.605856	-0.320597	-0.449823	0.572551
59965	-8.969395	-1.267341	3.733007	0.010846	0.025019	-0.015198	-0.605858	-0.320584	-0.449819	0.572561
59966	-8.990262	-1.269023	3.747194	0.012956	0.020265	0.009538	-0.605876	-0.320599	-0.449815	0.572535
59967	-8.978830	-1.274682	3.762003	0.009023	0.001094	0.005499	-0.605884	-0.320619	-0.449823	0.572509
59968	-8.967300	-1.281961	3.761906	0.000782	-0.005130	-0.004130	-0.605866	-0.320662	-0.449831	0.572499
59969	-8.994852	-1.251880	3.683919	0.017082	0.080338	-0.012734	-0.605879	-0.320668	-0.449838	0.572476
59970	-8.979935	-1.275124	3.729991	0.001728	0.028974	-0.005692	-0.605888	-0.320676	-0.449844	0.572457
59971	-8.976499	-1.294736	3.731217	-0.017437	0.023116	-0.005801	-0.605887	-0.320684	-0.449867	0.572436
59972	-8.957072	-1.287204	3.759413	-0.006051	-0.009337	-0.013754	-0.605890	-0.320696	-0.449868	0.572424
59973	-8.981349	-1.272789	3.727382	0.003150	0.031053	-0.005698	-0.605893	-0.320731	-0.449866	0.572404
59974	-8.993806	-1.265028	3.710775	0.008025	0.051555	-0.001675	-0.605883	-0.320760	-0.449879	0.572387
59975	-8.994677	-1.261315	3.739194	0.016811	0.026545	0.009518	-0.605887	-0.320764	-0.449864	0.572394
59976	-8.962346	-1.266439	3.724914	0.007042	0.025718	-0.024849	-0.605872	-0.320782	-0.449870	0.572395
59977	-8.995104	-1.261745	3.723382	0.013563	0.040803	0.003912	-0.605865	-0.320766	-0.449867	0.572413
59978	-8.974531	-1.259123	3.708794	0.012261	0.046885	-0.020834	-0.605879	-0.320731	-0.449842	0.572437
59979	-8.982985	-1.269415	3.724591	0.005796	0.035317	-0.005714	-0.605887	-0.320711	-0.449822	0.572456
59980	-8.982445	-1.216641	3.719507	0.056791	0.048378	-0.015050	-0.605896	-0.320665	-0.449802	0.572488
59981	-8.970556	-1.277559	3.726384	-0.001917	0.029690	-0.015337	-0.605916	-0.320590	-0.449782	0.572523
59982	-8.978570	-1.289872	3.727918	-0.012472	0.030917	-0.005815	-0.605919	-0.320543	-0.449775	0.572553
59983	-8.978283	-1.291215	3.713526	-0.016195	0.044568	-0.011421	-0.605924	-0.320517	-0.449748	0.572583
59984	-8.982351	-1.269100	3.726226	0.008072	0.038925	-0.005729	-0.605954	-0.320482	-0.449722	0.572591
59985	-8.970196	-1.276830	3.727499	-0.000054	0.032556	-0.015346	-0.605988	-0.320441	-0.449711	0.572586
59986	-8.966816	-1.293537	3.758869	-0.010914	0.001073	-0.004222	-0.606019	-0.320424	-0.449691	0.572580
59987	-8.982682	-1.265726	3.741202	0.013543	0.028098	-0.000131	-0.606054	-0.320410	-0.449668	0.572568
59988	-8.970829	-1.271470	3.757050	0.009683	0.008938	-0.004137	-0.606096	-0.320386	-0.449627	0.572569
59989	-8.986750	-1.242330	3.754308	0.038344	0.023052	0.005555	-0.606130	-0.320347	-0.449613	0.572567
59990	-8.958394	-1.279824	3.744169	-0.002171	0.016074	-0.019358	-0.606174	-0.320311	-0.449591	0.572558
59991	-8.982356	-1.264201	3.727879	0.011158	0.043622	-0.005752	-0.606204	-0.320288	-0.449563	0.572560
59992	-8.990586	-1.275712	3.729185	0.000479	0.044809	0.003773	-0.606226	-0.320256	-0.449544	0.572570
59993	-8.982270	-1.263211	3.728421	0.011993	0.044946	-0.005759	-0.606274	-0.320206	-0.449526	0.572561
59994	-8.978731	-1.279961	3.760163	0.001193	0.013385	0.005385	-0.606317	-0.320165	-0.449496	0.572563
59995	-8.969724	-1.271658	3.715792	0.000146	0.052153	-0.020984	-0.606350	-0.320133	-0.449471	0.572564
59996	-8.969880	-1.269652	3.730711	0.004608	0.040002	-0.015374	-0.606392	-0.320093	-0.449443	0.572565
59997	-8.989912	-1.274552	3.716599	-0.001546	0.060973	-0.001857	-0.606414	-0.320053	-0.449427	0.572576
59998	-8.969941	-1.267260	3.745983	0.009755	0.028421	-0.009765	-0.606441	-0.320030	-0.449397	0.572584
59999	-8.977860	-1.280427	3.732882	-0.005229	0.042539	-0.005852	-0.606465	-0.319982	-0.449369	0.572608
60000	-8.989871	-1.272079	3.732149	0.003861	0.050350	0.003745	-0.606469	-0.319949	-0.449353	0.572634
60001	-8.990128	-1.268992	3.761786	0.012793	0.025351	0.014976	-0.606485	-0.319894	-0.449309	0.572683
60002	-8.957359	-1.273330	3.763453	0.007256	0.011534	-0.013757	-0.606492	-0.319839	-0.449285	0.572725
60003	-8.992924	-1.251821	3.731990	0.025018	0.058890	0.003798	-0.606512	-0.319773	-0.449256	0.572763
60004	-8.980725	-1.257614	3.763225	0.025355	0.026791	0.005434	-0.606536	-0.319657	-0.449235	0.572818
60005	-8.991747	-1.253177	3.734368	0.026030	0.060209	0.003787	-0.606547	-0.319560	-0.449204	0.572886
60006	-8.955172	-1.275765	3.767830	0.009206	0.014152	-0.013762	-0.606561	-0.319441	-0.449180	0.572957
60007	-8.970528	-1.246870	3.780930	0.042239	0.015425	0.001510	-0.606591	-0.319312	-0.449141	0.573026
60008	-8.961596	-1.291241	3.757520	-0.005099	0.028898	-0.009851	-0.606612	-0.319194	-0.449117	0.573088
60009	-8.969037	-1.304371	3.760157	-0.015749	0.030120	-0.000316	-0.606623	-0.319077	-0.449072	0.573178
60010	-8.963854	-1.273243	3.758505	0.015443	0.036699	-0.009800	-0.606632	-0.318960	-0.449051	0.573250
60011	-8.943139	-1.324512	3.750277	-0.036307	0.030390	-0.025124	-0.606643	-0.318854	-0.449028	0.573315
60012	-8.958866	-1.293925	3.777645	0.000809	0.018950	-0.004234	-0.606669	-0.318756	-0.448978	0.573381
60013	-8.945880	-1.305268	3.750543	-0.015751	0.038371	-0.025076	-0.606687	-0.318700	-0.448947	0.573417
60014	-8.962139	-1.273814	3.776942	0.021295	0.026811	-0.004188	-0.606699	-0.318673	-0.448939	0.573426
60015	-8.950018	-1.281825	3.778006	0.013210	0.020488	-0.013778	-0.606708	-0.318633	-0.448924	0.573450
60016	-8.978552	-1.297777	3.779343	0.000039	0.029189	0.014886	-0.606706	-0.318596	-0.448923	0.573474
60017	-8.945753	-1.304941	3.750960	-0.014016	0.041038	-0.025084	-0.606722	-0.318565	-0.448925	0.573473
60018	-8.950560	-1.278453	3.806947	0.022903	-0.003171	-0.002526	-0.606728	-0.318560	-0.448911	0.573480
60019	-8.966810	-1.305168	3.779722	-0.007356	0.024365	0.005296	-0.606743	-0.318524	-0.448917	0.573480
60020	-8.958969	-1.291518	3.792762	0.008504	0.011649	0.001383	-0.606742	-0.318505	-0.448937	0.573476
60021	-8.963186	-1.326594	3.766273	-0.030206	0.032111	-0.000378	-0.606749	-0.318471	-0.448953	0.573475
60022	-8.959254	-1.292527	3.777203	0.005260	0.025782	-0.004251	-0.606751	-0.318471	-0.448960	0.573467
60023	-8.959679	-1.292012	3.776370	0.005737	0.026397	-0.004253	-0.606743	-0.318480	-0.448988	0.573449
60024	-8.956015	-1.313204	3.763097	-0.017691	0.033549	-0.009924	-0.606744	-0.318477	-0.448983	0.573453
60025	-8.960530	-1.290979	3.774704	0.006660	0.027867	-0.004258	-0.606735	-0.318490	-0.449017	0.573429
60026	-8.957341	-1.310649	3.775382	-0.012583	0.022072	-0.004292	-0.606718	-0.318521	-0.449049	0.573405
60027	-8.961797	-1.291116	3.757083	0.003402	0.041965	-0.009897	-0.606693	-0.318569	-0.449094	0.573369
60028	-8.962715	-1.290289	3.755179	0.003897	0.042541	-0.009900	-0.606654	-0.318631	-0.449138	0.573342
60029	-8.967742	-1.267719	3.765677	0.028314	0.036835	-0.004238	-0.606614	-0.318695	-0.449178	0.573317
60030	-8.968660	-1.267129	3.763689	0.028681	0.037491	-0.004242	-0.606571	-0.318736	-0.449229	0.573300
60031	-8.969593	-1.267081	3.761481	0.029214	0.038190	-0.004246	-0.606490	-0.318782	-0.449305	0.573300
60032	-8.970438	-1.267252	3.759408	0.029624	0.038859	-0.004250	-0.606450	-0.318792	-0.449362	0.573291
60033	-8.963218	-1.309261	3.747289	-0.013485	0.039431	-0.009939	-0.606420	-0.318806	-0.449423	0.573269
60034	-8.955645	-1.297031	3.744653	-0.001941	0.039607	-0.019490	-0.606396	-0.318821	-0.449458	0.573258
60035	-8.952210	-1.318298	3.730771	-0.025429	0.046673	-0.025154	-0.606386	-0.318843	-0.449491	0.573231
60036	-8.965231	-1.307698	3.743017	-0.012279	0.041455	-0.009946	-0.606394	-0.318891	-0.449500	0.573188
60037	-8.966081	-1.304868	3.756590	-0.007698	0.029386	-0.004306	-0.606416	-0.318923	-0.449485	0.573159
60038	-8.974882	-1.315455	3.756871	-0.018291	0.030651	0.005242	-0.606440	-0.318952	-0.449481	0.573120
60039	-8.975802	-1.312166	3.770451	-0.013700	0.018577	0.010884	-0.606461	-0.319027	-0.449459	0.573074
60040	-8.972451	-1.275926	3.780719	0.021810	0.012288	0.006991	-0.606506	-0.319109	-0.449438	0.572997
60041	-8.972435	-1.277810	3.736186	0.009609	0.051563	-0.009947	-0.606545	-0.319160	-0.449397	0.572959
60042	-8.976863	-1.254068	3.748476	0.033905	0.045903	-0.004294	-0.606604	-0.319176	-0.449348	0.572927
60043	-8.961705	-1.277778	3.780695	0.014521	0.007441	-0.002578	-0.606647	-0.319199	-0.449311	0.572897
60044	-8.977332	-1.250672	3.748488	0.034855	0.047293	-0.004304	-0.606691	-0.319193	-0.449272	0.572885
60045	-8.969799	-1.289761	3.752930	-0.004025	0.035096	-0.004323	-0.606736	-0.319195	-0.449223	0.572874
60046	-8.970663	-1.283886	3.796792	0.008957	-0.002716	0.012621	-0.606780	-0.319206	-0.449184	0.572852
60047	-8.953513	-1.262858	3.751111	0.018933	0.035414	-0.023437	-0.606824	-0.319192	-0.449139	0.572848
60048	-8.970173	-1.285921	3.753354	-0.002759	0.037193	-0.004330	-0.606833	-0.319195	-0.449120	0.572852
60049	-8.962648	-1.269781	3.781153	0.017287	0.011695	-0.002586	-0.606855	-0.319220	-0.449091	0.572838
60050	-8.958738	-1.291810	3.753631	-0.010312	0.031469	-0.013891	-0.606872	-0.319218	-0.449101	0.572813
60051	-8.979688	-1.293217	3.767742	-0.008056	0.026831	0.010871	-0.606893	-0.319227	-0.449097	0.572788
60052	-8.951445	-1.276185	3.766065	0.005925	0.019345	-0.017799	-0.606917	-0.319248	-0.449088	0.572759
60053	-8.976005	-1.258674	3.763413	0.023663	0.034059	0.001306	-0.606923	-0.319255	-0.449088	0.572748
60054	-8.976376	-1.257830	3.762810	0.024310	0.034634	0.001303	-0.606928	-0.319260	-0.449096	0.572734
60055	-8.981147	-1.289675	3.765478	-0.006048	0.029397	0.010865	-0.606928	-0.319236	-0.449107	0.572740
60056	-8.964599	-1.266528	3.748307	0.012338	0.041769	-0.013910	-0.606941	-0.319252	-0.449096	0.572725
60057	-8.984870	-1.270969	3.733704	0.006165	0.062863	-0.000460	-0.606956	-0.319229	-0.449062	0.572749
60058	-8.973082	-1.277225	3.749367	0.002289	0.043689	-0.004357	-0.606956	-0.319218	-0.449055	0.572760
60059	-8.973306	-1.275463	3.764080	0.006976	0.031491	0.001297	-0.606975	-0.319170	-0.449030	0.572786
60060	-8.972612	-1.278195	3.735514	-0.000861	0.057790	-0.010021	-0.606988	-0.319124	-0.449003	0.572819
60061	-8.988552	-1.246944	3.762429	0.036400	0.046347	0.010822	-0.607004	-0.319032	-0.448970	0.572879
60062	-8.963834	-1.264121	3.765594	0.019689	0.032929	-0.008273	-0.607009	-0.318936	-0.448948	0.572945
60063	-8.975052	-1.258208	3.751196	0.024577	0.053435	-0.004392	-0.607027	-0.318829	-0.448923	0.573004
60064	-8.962051	-1.268809	3.738990	0.012211	0.059969	-0.019601	-0.607033	-0.318723	-0.448885	0.573087
60065	-8.993653	-1.265639	3.739623	0.018742	0.075276	0.009043	-0.607044	-0.318586	-0.448852	0.573177
60066	-8.980956	-1.272439	3.771850	0.019028	0.043243	0.010820	-0.607067	-0.318433	-0.448796	0.573282
60067	-8.947984	-1.330794	3.780459	-0.037204	0.017016	-0.008218	-0.607089	-0.318290	-0.448723	0.573395
60068	-8.950383	-1.256405	3.804555	0.041909	0.010643	-0.006532	-0.607111	-0.318145	-0.448686	0.573481
60069	-8.961812	-1.303677	3.796340	-0.003615	0.018922	0.006960	-0.607121	-0.317991	-0.448639	0.573593
60070	-8.964267	-1.286506	3.781819	0.012408	0.038880	0.001266	-0.607128	-0.317841	-0.448599	0.573700
60071	-8.974701	-1.284257	3.738985	0.008904	0.085034	-0.006196	-0.607126	-0.317706	-0.448571	0.573799
60072	-8.902038	-1.328096	3.819972	-0.021244	-0.020731	-0.035090	-0.607142	-0.317527	-0.448520	0.573921
60073	-8.952285	-1.282552	3.757652	0.016410	0.065922	-0.019645	-0.607139	-0.317407	-0.448493	0.574011
60074	-8.939777	-1.289345	3.789226	0.016747	0.033804	-0.017850	-0.607139	-0.317278	-0.448474	0.574097
60075	-8.931781	-1.328645	3.823683	-0.013762	-0.004142	-0.006447	-0.607131	-0.317147	-0.448491	0.574165
60076	-8.919213	-1.338480	3.825207	-0.021921	-0.010564	-0.015979	-0.607113	-0.317057	-0.448513	0.574217
60077	-8.930748	-1.335490	3.780111	-0.025559	0.035690	-0.023453	-0.607078	-0.317046	-0.448546	0.574234
60078	-8.947351	-1.306015	3.790359	0.007386	0.037115	-0.008293	-0.607007	-0.317061	-0.448586	0.574270
60079	-8.951951	-1.284865	3.801345	0.031841	0.031330	-0.002666	-0.606944	-0.317060	-0.448648	0.574289
60080	-8.936577	-1.313942	3.802883	0.004050	0.018529	-0.012157	-0.606879	-0.317061	-0.448703	0.574314
60081	-8.921396	-1.342869	3.804018	-0.023751	0.005632	-0.021643	-0.606803	-0.317097	-0.448784	0.574311
60082	-8.946121	-1.329521	3.770574	-0.014522	0.046056	-0.013932	-0.606724	-0.317155	-0.448843	0.574317
60083	-8.951490	-1.306185	3.795101	0.013951	0.027618	-0.002635	-0.606646	-0.317236	-0.448908	0.574303
60084	-8.931701	-1.306321	3.748527	0.004232	0.059114	-0.038758	-0.606557	-0.317325	-0.448973	0.574297
60085	-8.977709	-1.292129	3.758270	0.023694	0.068705	0.005060	-0.606467	-0.317394	-0.449065	0.574282
60086	-8.963227	-1.319182	3.773017	0.000121	0.043004	0.001256	-0.606387	-0.317451	-0.449155	0.574264
60087	-8.968056	-1.299142	3.768493	0.020293	0.050107	0.001201	-0.606307	-0.317486	-0.449220	0.574279
60088	-8.977384	-1.309858	3.782122	0.013895	0.038525	0.016449	-0.606244	-0.317530	-0.449269	0.574282
60089	-8.965819	-1.319750	3.766654	0.001624	0.044985	0.001247	-0.606165	-0.317546	-0.449335	0.574305
60090	-8.966506	-1.320007	3.764929	0.002052	0.045584	0.001244	-0.606108	-0.317582	-0.449372	0.574317
60091	-8.962862	-1.286243	3.775076	0.037616	0.039304	-0.002715	-0.606050	-0.317596	-0.449388	0.574358
60092	-8.978858	-1.314956	3.732876	0.003362	0.079670	-0.000603	-0.606013	-0.317569	-0.449390	0.574410
60093	-8.967415	-1.319259	3.777680	0.007845	0.034904	0.006914	-0.605987	-0.317523	-0.449368	0.574480
60094	-8.958878	-1.308006	3.776998	0.019350	0.034950	-0.002667	-0.605947	-0.317463	-0.449357	0.574563
60095	-8.965922	-1.325522	3.735084	-0.003908	0.074686	-0.010136	-0.605928	-0.317377	-0.449330	0.574654
60096	-8.969982	-1.301840	3.777628	0.028924	0.043369	0.006840	-0.605926	-0.317293	-0.449313	0.574715
60097	-8.944928	-1.320753	3.766183	0.007884	0.042745	-0.017874	-0.605917	-0.317183	-0.449282	0.574808
60098	-8.960724	-1.346028	3.769592	-0.013769	0.044567	0.001283	-0.605907	-0.317095	-0.449252	0.574891
60099	-8.952053	-1.333629	3.784269	0.001968	0.031830	-0.002616	-0.605897	-0.316991	-0.449227	0.574979
60100	-8.943117	-1.322688	3.784431	0.013563	0.031829	-0.012199	-0.605900	-0.316888	-0.449201	0.575053
60101	-8.947284	-1.353159	3.818008	-0.008248	0.001002	0.008822	-0.605887	-0.316787	-0.449173	0.575144
60102	-8.934482	-1.363702	3.805211	-0.020696	0.007391	-0.006373	-0.605870	-0.316736	-0.449165	0.575196
60103	-8.933205	-1.314727	3.771242	0.021877	0.045979	-0.027477	-0.605847	-0.316673	-0.449148	0.575269
60104	-8.950002	-1.336719	3.802643	0.008650	0.022281	0.003059	-0.605805	-0.316630	-0.449166	0.575321
60105	-8.938236	-1.344134	3.817743	0.004813	0.003058	-0.000761	-0.605761	-0.316608	-0.449188	0.575364
60106	-8.946261	-1.359373	3.788974	-0.014169	0.029962	-0.002554	-0.605723	-0.316611	-0.449203	0.575390
60107	-8.942216	-1.327132	3.785004	0.016989	0.036516	-0.012221	-0.605693	-0.316605	-0.449220	0.575412
60108	-8.938547	-1.348875	3.771476	-0.006394	0.043591	-0.017833	-0.605646	-0.316622	-0.449251	0.575427
60109	-8.955199	-1.318889	3.781935	0.026534	0.044952	-0.002725	-0.605631	-0.316618	-0.449262	0.575437
60110	-8.939215	-1.348784	3.769924	-0.005423	0.044878	-0.017838	-0.605622	-0.316584	-0.449285	0.575447
60111	-8.948587	-1.356291	3.813839	-0.003300	0.007732	0.008822	-0.605599	-0.316605	-0.449315	0.575436
60112	-8.952458	-1.338609	3.781553	0.008417	0.040556	-0.002652	-0.605595	-0.316594	-0.449333	0.575432
60113	-8.961024	-1.350317	3.781984	-0.002163	0.041869	0.006933	-0.605588	-0.316594	-0.449332	0.575441
60114	-8.952797	-1.339012	3.765964	0.005037	0.054745	-0.008352	-0.605607	-0.316600	-0.449310	0.575434
60115	-8.944910	-1.324617	3.779517	0.020741	0.041939	-0.012250	-0.605636	-0.316582	-0.449277	0.575440
60116	-8.985284	-1.333139	3.765461	0.012176	0.070712	0.020223	-0.605658	-0.316553	-0.449243	0.575459
60117	-8.964901	-1.327598	3.780725	0.019275	0.050895	0.006828	-0.605680	-0.316483	-0.449209	0.575501
60118	-8.960496	-1.347738	3.784152	0.000072	0.045131	0.006919	-0.605721	-0.316414	-0.449131	0.575557
60119	-8.938989	-1.346519	3.756648	-0.005529	0.063691	-0.023563	-0.605764	-0.316338	-0.449064	0.575606
60120	-8.946868	-1.355480	3.788936	-0.007613	0.039418	-0.002581	-0.605832	-0.316226	-0.448971	0.575669
60121	-8.949724	-1.335037	3.789280	0.012590	0.046488	-0.002682	-0.605877	-0.316136	-0.448871	0.575748
60122	-8.932738	-1.307891	3.818553	0.043553	0.020259	-0.010472	-0.605921	-0.316044	-0.448784	0.575821
60123	-8.923448	-1.353089	3.780989	-0.007997	0.046480	-0.027371	-0.605953	-0.315932	-0.448734	0.575887
60124	-8.919262	-1.370786	3.813916	-0.018796	0.015039	-0.015869	-0.605997	-0.315837	-0.448682	0.575934
60125	-8.918747	-1.370705	3.815148	-0.018292	0.015800	-0.015869	-0.606010	-0.315795	-0.448629	0.575984
60126	-8.934867	-1.339115	3.841957	0.018977	0.004325	0.004916	-0.606021	-0.315750	-0.448595	0.576024
60127	-8.942556	-1.353764	3.814284	0.000045	0.031247	0.003104	-0.606025	-0.315734	-0.448573	0.576045
60128	-8.934273	-1.341311	3.813425	0.011712	0.031245	-0.006493	-0.606029	-0.315698	-0.448552	0.576077
60129	-8.905533	-1.326324	3.797687	0.021416	0.036406	-0.040876	-0.606035	-0.315704	-0.448538	0.576078
60130	-8.929956	-1.309395	3.795367	0.039082	0.051218	-0.021912	-0.606037	-0.315691	-0.448532	0.576088
60131	-8.954683	-1.345402	3.798717	0.006473	0.053757	0.006873	-0.606044	-0.315644	-0.448513	0.576121
60132	-8.938143	-1.319918	3.811707	0.033376	0.040237	-0.006620	-0.606051	-0.315580	-0.448493	0.576164
60133	-8.929582	-1.363475	3.787655	-0.014008	0.053652	-0.017803	-0.606072	-0.315516	-0.448448	0.576212
60134	-8.937289	-1.320362	3.813556	0.034344	0.041603	-0.006629	-0.606073	-0.315439	-0.448425	0.576272
60135	-8.916966	-1.369527	3.819731	-0.013183	0.022377	-0.015873	-0.606085	-0.315358	-0.448385	0.576334
60136	-8.932270	-1.342878	3.803006	0.011286	0.049401	-0.012225	-0.606085	-0.315307	-0.448346	0.576392
60137	-8.932295	-1.340349	3.832948	0.020269	0.024550	-0.000811	-0.606083	-0.315231	-0.448318	0.576458
60138	-8.947789	-1.369698	3.791953	-0.014054	0.064966	0.001256	-0.606059	-0.315158	-0.448324	0.576519
60139	-8.915619	-1.372080	3.821960	-0.011332	0.025237	-0.015878	-0.606033	-0.315098	-0.448354	0.576555
60140	-8.912000	-1.391390	3.838344	-0.026246	0.006719	-0.010041	-0.606001	-0.315080	-0.448348	0.576603
60141	-8.919683	-1.352448	3.819192	0.009410	0.033071	-0.016009	-0.605960	-0.315081	-0.448350	0.576644
60142	-8.956060	-1.329296	3.801026	0.031543	0.067820	0.006694	-0.605920	-0.315096	-0.448342	0.576684
60143	-8.956599	-1.326252	3.829952	0.040380	0.042938	0.018115	-0.605900	-0.315080	-0.448310	0.576740
60144	-8.931778	-1.345853	3.803111	0.015215	0.055024	-0.012261	-0.605857	-0.315037	-0.448290	0.576823
60145	-8.923746	-1.387130	3.807695	-0.023615	0.042828	-0.011998	-0.605828	-0.314969	-0.448288	0.576893
60146	-8.947103	-1.318742	3.801100	0.044571	0.069863	-0.002936	-0.605816	-0.314928	-0.448228	0.576974
60147	-8.918664	-1.354286	3.820919	0.012356	0.037129	-0.016027	-0.605803	-0.314847	-0.448187	0.577064
60148	-8.929808	-1.348451	3.806814	0.017172	0.057693	-0.012279	-0.605809	-0.314741	-0.448133	0.577157
60149	-8.913278	-1.374957	3.840907	-0.002324	0.019233	-0.010176	-0.605830	-0.314613	-0.448080	0.577246
60150	-8.952099	-1.334097	3.808668	0.035295	0.073144	0.006643	-0.605849	-0.314502	-0.448016	0.577336
60151	-8.907029	-1.398570	3.832763	-0.025466	0.026912	-0.015756	-0.605881	-0.314359	-0.447933	0.577445
60152	-8.897796	-1.385652	3.848791	-0.009719	0.014081	-0.019644	-0.605925	-0.314254	-0.447839	0.577529
60153	-8.896941	-1.384359	3.865718	-0.005078	0.002071	-0.013924	-0.605963	-0.314151	-0.447748	0.577616
60154	-8.916032	-1.391381	3.838656	-0.015367	0.036140	-0.006296	-0.605986	-0.314067	-0.447680	0.577689
60155	-8.903247	-1.399704	3.841128	-0.023692	0.029828	-0.015760	-0.606022	-0.313983	-0.447629	0.577737
60156	-8.894837	-1.386074	3.855473	-0.007970	0.017121	-0.019647	-0.606036	-0.313950	-0.447592	0.577769
60157	-8.907010	-1.376118	3.869480	0.005349	0.012094	-0.004465	-0.606067	-0.313901	-0.447575	0.577776
60158	-8.906362	-1.380254	3.826084	-0.006874	0.051150	-0.021639	-0.606082	-0.313868	-0.447554	0.577795
60159	-8.910511	-1.356480	3.853596	0.021714	0.032622	-0.010345	-0.606128	-0.313835	-0.447513	0.577796
60160	-8.918704	-1.366173	3.870106	0.015437	0.021128	0.004988	-0.606176	-0.313796	-0.447456	0.577811
60161	-8.909765	-1.356454	3.840860	0.018541	0.046677	-0.016077	-0.606215	-0.313730	-0.447419	0.577835
60162	-8.905681	-1.374859	3.858525	0.003657	0.028098	-0.010198	-0.606260	-0.313667	-0.447381	0.577851
60163	-8.925980	-1.376579	3.874010	0.006001	0.023638	0.014594	-0.606300	-0.313641	-0.447341	0.577854
60164	-8.897518	-1.358043	3.887845	0.024101	0.003055	-0.008359	-0.606356	-0.313624	-0.447300	0.577837
60165	-8.901622	-1.392019	3.862126	-0.014551	0.023468	-0.010043	-0.606383	-0.313632	-0.447274	0.577824
60166	-8.897567	-1.358392	3.858690	0.016643	0.029874	-0.019820	-0.606419	-0.313645	-0.447260	0.577790
60167	-8.898087	-1.355554	3.872948	0.021365	0.017800	-0.014094	-0.606432	-0.313669	-0.447226	0.577790
60168	-8.918622	-1.361441	3.843036	0.010982	0.051726	-0.006491	-0.606432	-0.313684	-0.447280	0.577740
60169	-8.923844	-1.391625	3.859488	-0.015057	0.033831	0.009017	-0.606441	-0.313695	-0.447305	0.577705
60170	-8.907447	-1.370964	3.812432	-0.005104	0.071471	-0.027410	-0.606441	-0.313729	-0.447321	0.577674
60171	-8.921055	-1.354456	3.883282	0.025185	0.015147	0.010693	-0.606447	-0.313741	-0.447344	0.577644
60172	-8.921261	-1.356587	3.853104	0.017261	0.041342	-0.000775	-0.606450	-0.313761	-0.447368	0.577611
60173	-8.909825	-1.363766	3.852889	0.008989	0.034968	-0.010223	-0.606459	-0.313795	-0.447385	0.577570
60174	-8.910520	-1.362619	3.851688	0.009420	0.035646	-0.010226	-0.606461	-0.313833	-0.447391	0.577542
60175	-8.911246	-1.361364	3.850452	0.009839	0.036380	-0.010229	-0.606468	-0.313879	-0.447404	0.577500
60176	-8.924166	-1.350161	3.863127	0.023174	0.031412	0.004945	-0.606493	-0.313918	-0.447371	0.577478
60177	-8.928894	-1.382288	3.851155	-0.011380	0.039168	0.009003	-0.606520	-0.313953	-0.447357	0.577441
60178	-8.913159	-1.355219	3.862689	0.015287	0.025670	-0.004502	-0.606543	-0.313989	-0.447354	0.577400
60179	-8.901614	-1.361936	3.862926	0.007051	0.019309	-0.013944	-0.606561	-0.314027	-0.447331	0.577378
60180	-8.930216	-1.324002	3.857976	0.044497	0.040665	0.004750	-0.606557	-0.314062	-0.447337	0.577359
60181	-8.906726	-1.337999	3.873683	0.031819	0.014386	-0.008392	-0.606566	-0.314072	-0.447332	0.577348
60182	-8.923194	-1.364250	3.846251	0.001832	0.041911	-0.000631	-0.606574	-0.314072	-0.447330	0.577341
60183	-8.927256	-1.343369	3.843839	0.022009	0.048978	-0.000819	-0.606587	-0.314056	-0.447326	0.577339
60184	-8.923751	-1.361705	3.860367	0.006937	0.030428	0.005104	-0.606591	-0.314041	-0.447311	0.577355
60185	-8.899603	-1.379232	3.847365	-0.014277	0.029633	-0.019509	-0.606591	-0.314041	-0.447326	0.577343
60186	-8.911996	-1.372014	3.830816	-0.009346	0.050232	-0.015819	-0.606567	-0.314069	-0.447344	0.577339
60187	-8.908607	-1.336179	3.855457	0.030396	0.030973	-0.014150	-0.606543	-0.314097	-0.447381	0.577321
60188	-8.889472	-1.384375	3.859439	-0.017200	0.011757	-0.023201	-0.606518	-0.314117	-0.447394	0.577326
60189	-8.965958	-1.317442	3.821113	0.046411	0.087065	0.021703	-0.606497	-0.314133	-0.447413	0.577325
60190	-8.910601	-1.333148	3.866438	0.035923	0.020237	-0.008416	-0.606461	-0.314195	-0.447428	0.577317
60191	-8.940005	-1.347112	3.881047	0.027072	0.016613	0.026007	-0.606447	-0.314183	-0.447448	0.577322
60192	-8.915573	-1.366680	3.853459	0.001735	0.028697	-0.004345	-0.606440	-0.314141	-0.447453	0.577349
60193	-8.943756	-1.328638	3.863945	0.043531	0.037113	0.020057	-0.606454	-0.314096	-0.447451	0.577360
60194	-8.907691	-1.408521	3.843215	-0.040899	0.029875	-0.009697	-0.606465	-0.314075	-0.447437	0.577371
60195	-8.927056	-1.362107	3.808970	-0.000944	0.076191	-0.012172	-0.606497	-0.314060	-0.447397	0.577377
60196	-8.903449	-1.374389	3.840191	-0.009405	0.037069	-0.019528	-0.606525	-0.314083	-0.447359	0.577364
60197	-8.928457	-1.353559	3.866880	0.016889	0.026454	0.010818	-0.606543	-0.314113	-0.447348	0.577337
60198	-8.932961	-1.330761	3.878607	0.041271	0.020788	0.016360	-0.606553	-0.314116	-0.447356	0.577319
60199	-8.908734	-1.349579	3.850829	0.015941	0.032739	-0.013990	-0.606561	-0.314104	-0.447373	0.577304
60200	-8.909371	-1.347659	3.864575	0.020669	0.020738	-0.008242	-0.606545	-0.314116	-0.447391	0.577301
60201	-8.926559	-1.369679	3.880573	0.003315	0.010004	0.016769	-0.606554	-0.314116	-0.447387	0.577295
60202	-8.938856	-1.362259	3.864244	0.008210	0.030432	0.020434	-0.606553	-0.314131	-0.447412	0.577267
60203	-8.919040	-1.357771	3.863134	0.010978	0.023369	0.001382	-0.606545	-0.314151	-0.447424	0.577256
60204	-8.910919	-1.348112	3.831723	0.014046	0.048979	-0.019762	-0.606510	-0.314180	-0.447447	0.577259
60205	-8.932000	-1.350330	3.845256	0.016282	0.044667	0.005039	-0.606498	-0.314160	-0.447482	0.577255
60206	-8.913034	-1.397560	3.863918	-0.027169	0.012638	0.001807	-0.606477	-0.314177	-0.447515	0.577242
60207	-8.941348	-1.361663	3.844114	0.006113	0.046742	0.014664	-0.606481	-0.314203	-0.447513	0.577225
60208	-8.885732	-1.378390	3.875414	-0.008645	-0.007275	-0.021115	-0.606482	-0.314243	-0.447504	0.577210
60209	-8.917254	-1.326143	3.809722	0.031521	0.071626	-0.025761	-0.606468	-0.314298	-0.447515	0.577185
60210	-8.926434	-1.335961	3.824080	0.025214	0.060235	-0.010374	-0.606458	-0.314302	-0.447549	0.577167
60211	-8.919816	-1.373284	3.856353	-0.005227	0.022520	0.001586	-0.606454	-0.314289	-0.447584	0.577153
60212	-8.920270	-1.373067	3.855380	-0.004656	0.023099	0.001584	-0.606442	-0.314288	-0.447614	0.577141
60213	-8.892950	-1.409054	3.858368	-0.041356	0.003118	-0.017011	-0.606440	-0.314335	-0.447631	0.577105
60214	-8.896592	-1.337682	3.819934	0.020700	0.048069	-0.038850	-0.606421	-0.314440	-0.447654	0.577050
60215	-8.946485	-1.300282	3.842864	0.064326	0.051770	0.010302	-0.606422	-0.314484	-0.447692	0.576996
60216	-8.931913	-1.383164	3.820174	-0.022454	0.052298	-0.000313	-0.606408	-0.314542	-0.447746	0.576938
60217	-8.945729	-1.369202	3.860958	-0.000588	0.021739	0.026384	-0.606411	-0.314601	-0.447768	0.576885
60218	-8.910042	-1.395197	3.833177	-0.034667	0.026658	-0.013363	-0.606414	-0.314680	-0.447788	0.576823
60219	-8.922830	-1.330885	3.839252	0.029253	0.033847	-0.008300	-0.606407	-0.314789	-0.447820	0.576746
60220	-8.907401	-1.305914	3.820031	0.047478	0.045854	-0.033347	-0.606416	-0.314909	-0.447857	0.576642
60221	-8.961367	-1.303169	3.817007	0.051960	0.069233	0.014134	-0.606437	-0.314957	-0.447879	0.576577
60222	-8.939333	-1.369011	3.837199	-0.011007	0.030703	0.011207	-0.606440	-0.315036	-0.447918	0.576500
60223	-8.928361	-1.375769	3.836254	-0.019366	0.024335	0.001804	-0.606446	-0.315081	-0.447957	0.576438
60224	-8.924752	-1.341865	3.831402	0.011724	0.030681	-0.008078	-0.606476	-0.315154	-0.447962	0.576364
60225	-8.949767	-1.323172	3.827938	0.029526	0.045551	0.010718	-0.606506	-0.315227	-0.447955	0.576298
60226	-8.938084	-1.332231	3.798476	0.012741	0.064754	-0.010226	-0.606520	-0.315307	-0.447951	0.576243
60227	-8.924103	-1.354357	3.843761	-0.002434	0.013554	-0.002071	-0.606525	-0.315382	-0.447965	0.576185
60228	-8.912110	-1.308360	3.837940	0.039650	0.019288	-0.021602	-0.606544	-0.315433	-0.447979	0.576126
60229	-8.946115	-1.356297	3.825891	-0.008188	0.035615	0.011193	-0.606534	-0.315509	-0.448006	0.576073
60230	-8.930929	-1.329104	3.836155	0.018481	0.022107	-0.002322	-0.606512	-0.315617	-0.448036	0.576014
60231	-8.923710	-1.315317	3.833123	0.029946	0.022155	-0.011968	-0.606505	-0.315693	-0.448038	0.575979
60232	-8.953324	-1.329479	3.832597	0.017056	0.031438	0.016709	-0.606491	-0.315761	-0.448045	0.575951
60233	-8.921443	-1.334316	3.817610	0.006833	0.030036	-0.017497	-0.606501	-0.315786	-0.448076	0.575903
60234	-8.914910	-1.316996	3.858397	0.030993	-0.008346	-0.009816	-0.606486	-0.315834	-0.448142	0.575841
60235	-8.943843	-1.336207	3.813490	0.005505	0.039164	0.001533	-0.606458	-0.315898	-0.448193	0.575795
60236	-8.908710	-1.360250	3.814724	-0.020073	0.018438	-0.026637	-0.606433	-0.315929	-0.448249	0.575760
60237	-8.958130	-1.324616	3.823037	0.019437	0.034907	0.016693	-0.606409	-0.316016	-0.448267	0.575724
60238	-8.939030	-1.318031	3.835847	0.026324	0.015017	0.003435	-0.606408	-0.316067	-0.448293	0.575678
60239	-8.931882	-1.360515	3.809378	-0.021150	0.028511	-0.007606	-0.606398	-0.316104	-0.448317	0.575648
60240	-8.948498	-1.329046	3.819839	0.012035	0.029967	0.007297	-0.606439	-0.316137	-0.448279	0.575617
60241	-8.944120	-1.294978	3.816596	0.043029	0.036454	-0.002617	-0.606491	-0.316148	-0.448230	0.575595
60242	-8.968210	-1.277200	3.814746	0.060870	0.051327	0.016146	-0.606551	-0.316102	-0.448204	0.575577
60243	-8.939812	-1.315226	3.805441	0.020000	0.044069	-0.008142	-0.606597	-0.316007	-0.448168	0.575608
60244	-8.931866	-1.355802	3.811096	-0.018979	0.031822	-0.007611	-0.606671	-0.315908	-0.448128	0.575615
60245	-8.940050	-1.365768	3.828005	-0.025320	0.020513	0.007821	-0.606736	-0.315859	-0.448066	0.575623
60246	-8.911358	-1.347777	3.842454	-0.007296	-0.000129	-0.015075	-0.606784	-0.315813	-0.448032	0.575623
60247	-8.914339	-1.329179	3.811852	0.004231	0.032658	-0.026918	-0.606874	-0.315797	-0.447965	0.575589
60248	-8.939076	-1.308082	3.839143	0.030637	0.021946	0.003410	-0.606914	-0.315797	-0.447947	0.575561
60249	-8.942598	-1.287975	3.822529	0.046562	0.041975	-0.002655	-0.606974	-0.315777	-0.447910	0.575538
60250	-8.931785	-1.347669	3.828909	-0.012149	0.023442	-0.001834	-0.607012	-0.315767	-0.447899	0.575512
60251	-8.943554	-1.341377	3.798229	-0.011509	0.056849	-0.004037	-0.607037	-0.315769	-0.447903	0.575481
60252	-8.915796	-1.321648	3.825815	0.010584	0.023434	-0.021142	-0.607067	-0.315789	-0.447881	0.575456
60253	-8.916601	-1.318897	3.839641	0.015254	0.011347	-0.015354	-0.607078	-0.315823	-0.447887	0.575421
60254	-8.913599	-1.338202	3.840603	-0.003969	0.005522	-0.015075	-0.607088	-0.315834	-0.447927	0.575374
60255	-8.965891	-1.285306	3.817809	0.046761	0.053872	0.016341	-0.607067	-0.315895	-0.447984	0.575317
60256	-8.920285	-1.368450	3.839925	-0.033671	0.001034	-0.005138	-0.607060	-0.315953	-0.448031	0.575256
60257	-8.900422	-1.366001	3.808808	-0.039487	0.019431	-0.035747	-0.607065	-0.316054	-0.448046	0.575184
60258	-8.948328	-1.279381	3.782379	0.042016	0.073656	-0.014290	-0.607066	-0.316163	-0.448066	0.575108
60259	-8.951394	-1.326977	3.814385	0.000531	0.036755	0.007522	-0.607052	-0.316250	-0.448116	0.575035
60260	-8.964279	-1.318544	3.796460	0.005346	0.057357	0.011092	-0.607057	-0.316323	-0.448145	0.574968
60261	-8.972471	-1.276369	3.790498	0.045112	0.070977	0.010508	-0.607073	-0.316374	-0.448155	0.574915
60262	-8.942082	-1.331934	3.795524	-0.011274	0.044556	-0.007649	-0.607096	-0.316428	-0.448168	0.574850
60263	-8.954794	-1.321837	3.793364	-0.002135	0.052351	0.001713	-0.607128	-0.316471	-0.448147	0.574810
60264	-8.950484	-1.288175	3.789576	0.029065	0.058754	-0.008242	-0.607148	-0.316475	-0.448148	0.574786
60265	-8.939408	-1.292530	3.819525	0.029421	0.026717	-0.006014	-0.607172	-0.316470	-0.448124	0.574781
60266	-8.951456	-1.283438	3.818561	0.038529	0.034465	0.003346	-0.607208	-0.316433	-0.448108	0.574776
60267	-8.944160	-1.323856	3.823092	-0.000514	0.022216	0.003938	-0.607241	-0.316370	-0.448113	0.574773
60268	-8.943983	-1.324056	3.823436	-0.000197	0.022895	0.003936	-0.607269	-0.316302	-0.448104	0.574787
60269	-8.935098	-1.313466	3.808268	0.006969	0.035669	-0.011527	-0.607291	-0.316269	-0.448070	0.574808
60270	-8.959361	-1.294637	3.820994	0.029082	0.037919	0.012990	-0.607310	-0.316264	-0.448025	0.574827
60271	-8.923173	-1.318969	3.824991	0.003367	0.017166	-0.015088	-0.607344	-0.316212	-0.447971	0.574861
60272	-8.955362	-1.313907	3.824406	0.010194	0.032905	0.013286	-0.607356	-0.316186	-0.447949	0.574880
60273	-8.941660	-1.271253	3.806062	0.047999	0.051195	-0.012149	-0.607369	-0.316115	-0.447936	0.574916
60274	-8.946382	-1.302424	3.824579	0.022021	0.033514	0.003619	-0.607394	-0.316033	-0.447907	0.574957
60275	-8.953733	-1.317522	3.797368	0.002878	0.060442	0.001667	-0.607428	-0.315964	-0.447876	0.574984
60276	-8.929900	-1.331352	3.829767	-0.005689	0.021284	-0.005433	-0.607461	-0.315886	-0.447829	0.575027
60277	-8.909009	-1.328075	3.830871	-0.002967	0.014078	-0.024450	-0.607488	-0.315793	-0.447817	0.575060
60278	-8.912615	-1.306486	3.843971	0.021458	0.008325	-0.018955	-0.607503	-0.315753	-0.447792	0.575084
60279	-8.932705	-1.309952	3.844667	0.019635	0.016955	0.000059	-0.607526	-0.315693	-0.447743	0.575132
60280	-8.928280	-1.333063	3.818168	-0.008133	0.036736	-0.011247	-0.607530	-0.315664	-0.447733	0.575151
60281	-8.907945	-1.329082	3.818216	-0.005419	0.029601	-0.030264	-0.607543	-0.315648	-0.447712	0.575163
60282	-8.944378	-1.302075	3.829382	0.025246	0.039001	0.003591	-0.607552	-0.315643	-0.447695	0.575168
60283	-8.912036	-1.306398	3.830555	0.019223	0.024652	-0.024775	-0.607568	-0.315608	-0.447674	0.575187
60284	-8.932842	-1.308353	3.844893	0.021712	0.020353	0.000048	-0.607569	-0.315587	-0.447698	0.575179
60285	-8.928924	-1.331470	3.817216	-0.006078	0.040170	-0.011259	-0.607564	-0.315572	-0.447719	0.575176
60286	-8.934545	-1.361920	3.833871	-0.032105	0.022466	0.004540	-0.607531	-0.315612	-0.447738	0.575176
60287	-8.930270	-1.329924	3.814607	-0.005356	0.041630	-0.011265	-0.607541	-0.315690	-0.447745	0.575116
60288	-8.932115	-1.325226	3.841527	0.003693	0.016813	0.000362	-0.607513	-0.315789	-0.447802	0.575046
60289	-8.936442	-1.306213	3.807607	0.015235	0.049483	-0.011596	-0.607495	-0.315889	-0.447843	0.574979
60290	-8.929748	-1.291189	3.818448	0.030836	0.036652	-0.015452	-0.607478	-0.315983	-0.447909	0.574894
60291	-8.947941	-1.313761	3.817721	0.009356	0.038947	0.003881	-0.607442	-0.316064	-0.447967	0.574842
60292	-8.925254	-1.329250	3.817356	-0.007705	0.025149	-0.014801	-0.607418	-0.316149	-0.448029	0.574773
60293	-8.957284	-1.272343	3.793720	0.045272	0.065888	-0.002605	-0.607395	-0.316211	-0.448093	0.574712
60294	-8.919269	-1.315132	3.811412	0.004245	0.025918	-0.024475	-0.607368	-0.316280	-0.448139	0.574667
60295	-8.941177	-1.315920	3.823603	0.006635	0.021832	0.000351	-0.607342	-0.316370	-0.448176	0.574616
60296	-8.903717	-1.356878	3.855629	-0.030314	-0.030976	-0.015683	-0.607316	-0.316467	-0.448247	0.574535
60297	-8.935235	-1.302439	3.802432	0.014018	0.035154	-0.015146	-0.607292	-0.316581	-0.448302	0.574454
60298	-8.941973	-1.331607	3.817149	-0.012063	0.017393	0.000683	-0.607273	-0.316681	-0.448373	0.574364
60299	-8.950613	-1.289300	3.809842	0.027746	0.031016	0.000005	-0.607248	-0.316798	-0.448428	0.574283
60300	-8.937240	-1.314215	3.824303	0.003983	0.005455	-0.003168	-0.607204	-0.316978	-0.448478	0.574191
60301	-8.920470	-1.359402	3.840669	-0.039485	-0.026607	-0.005994	-0.607190	-0.317099	-0.448565	0.574071
60302	-8.962251	-1.245010	3.766098	0.059959	0.071357	-0.012341	-0.607172	-0.317222	-0.448623	0.573977
60303	-8.970432	-1.326486	3.786124	-0.016365	0.041605	0.013856	-0.607162	-0.317304	-0.448700	0.573882
60304	-8.963301	-1.312528	3.782742	-0.004933	0.041415	0.004180	-0.607159	-0.317427	-0.448695	0.573821
60305	-8.910192	-1.324287	3.857206	-0.007134	-0.051124	-0.013676	-0.607153	-0.317540	-0.448717	0.573748
60306	-8.985859	-1.312421	3.763729	-0.010551	0.063515	0.017349	-0.607148	-0.317692	-0.448694	0.573687
60307	-8.938550	-1.287978	3.790348	0.013919	0.022152	-0.018678	-0.607193	-0.317733	-0.448733	0.573587
60308	-8.985058	-1.202700	3.749710	0.091214	0.089090	-0.003415	-0.607170	-0.317853	-0.448688	0.573579
60309	-8.933293	-1.325558	3.776599	-0.028719	0.023450	-0.023808	-0.607131	-0.317992	-0.448718	0.573520
60310	-8.942555	-1.279834	3.798680	0.019518	0.011467	-0.012854	-0.607102	-0.318125	-0.448746	0.573455
60311	-8.972105	-1.296179	3.767477	-0.001732	0.046394	0.004159	-0.607065	-0.318255	-0.448790	0.573387
60312	-8.961947	-1.302190	3.765233	-0.010054	0.039979	-0.005166	-0.607023	-0.318440	-0.448847	0.573285
60313	-8.982351	-1.252082	3.741396	0.034216	0.073381	-0.002395	-0.606978	-0.318608	-0.448898	0.573199
60314	-8.980831	-1.269933	3.739716	0.015015	0.067678	-0.002044	-0.606917	-0.318795	-0.448971	0.573103
60315	-8.961944	-1.265383	3.721543	0.013397	0.073163	-0.026882	-0.606885	-0.318959	-0.449025	0.573002
60316	-8.979393	-1.232906	3.729584	0.046444	0.074679	-0.012095	-0.606863	-0.319079	-0.449063	0.572930
60317	-9.002369	-1.230196	3.770628	0.057561	0.045087	0.024402	-0.606827	-0.319166	-0.449089	0.572899
60318	-8.983170	-1.282596	3.730570	-0.002859	0.063900	-0.001701	-0.606811	-0.319203	-0.449143	0.572853
60319	-8.999752	-1.251570	3.740185	0.030158	0.065473	0.013082	-0.606823	-0.319225	-0.449163	0.572812
60320	-8.964834	-1.274675	3.757624	0.008656	0.031810	-0.009030	-0.606831	-0.319208	-0.449170	0.572807
60321	-8.956588	-1.262335	3.756241	0.020017	0.031730	-0.018715	-0.606838	-0.319205	-0.449167	0.572804
60322	-8.977629	-1.264081	3.770207	0.022489	0.027605	0.006117	-0.606845	-0.319166	-0.449176	0.572811
60323	-8.970453	-1.306342	3.759577	-0.020782	0.028274	0.001014	-0.606848	-0.319128	-0.449208	0.572805
60324	-8.959221	-1.313288	3.774776	-0.024801	0.008981	-0.002457	-0.606857	-0.319104	-0.449226	0.572794
60325	-8.965417	-1.275437	3.740833	0.006485	0.047982	-0.014886	-0.606870	-0.319077	-0.449236	0.572789
60326	-8.969529	-1.253332	3.752796	0.030925	0.042278	-0.009421	-0.606881	-0.319059	-0.449247	0.572778
60327	-8.957823	-1.261338	3.753630	0.022654	0.035718	-0.018734	-0.606898	-0.319037	-0.449255	0.572766
60328	-8.986328	-1.277914	3.739715	0.005698	0.057840	0.004097	-0.606919	-0.318991	-0.449243	0.572778
60329	-8.951517	-1.299720	3.772539	-0.011565	0.011551	-0.012141	-0.606940	-0.318982	-0.449232	0.572770
60330	-8.963290	-1.291859	3.756352	-0.006652	0.032141	-0.008680	-0.606963	-0.318993	-0.449223	0.572745
60331	-8.955178	-1.278673	3.754933	0.004716	0.032051	-0.018368	-0.606995	-0.319016	-0.449202	0.572716
60332	-8.976462	-1.279130	3.768763	0.007103	0.028013	0.006466	-0.607031	-0.319044	-0.449175	0.572683
60333	-8.944644	-1.282311	3.769628	0.001011	0.013642	-0.021830	-0.607058	-0.319095	-0.449151	0.572645
60334	-8.958160	-1.269078	3.796533	0.018682	-0.003942	-0.000833	-0.607076	-0.319150	-0.449147	0.572599
60335	-8.989557	-1.268374	3.735200	0.008664	0.062897	0.004063	-0.607063	-0.319229	-0.449170	0.572551
60336	-8.971115	-1.260609	3.762535	0.019857	0.030076	-0.003232	-0.607041	-0.319291	-0.449224	0.572497
60337	-8.980052	-1.273038	3.747093	0.005051	0.044307	0.000604	-0.607026	-0.319330	-0.449244	0.572474
60338	-8.980844	-1.272155	3.745495	0.005552	0.044912	0.000601	-0.607000	-0.319383	-0.449282	0.572443
60339	-8.992536	-1.265871	3.713680	0.006241	0.078218	-0.001806	-0.606989	-0.319409	-0.449298	0.572428
60340	-8.973971	-1.257430	3.756785	0.021669	0.032660	-0.003244	-0.606978	-0.319407	-0.449311	0.572430
60341	-8.981304	-1.273582	3.713522	-0.001668	0.072409	-0.011114	-0.606974	-0.319388	-0.449308	0.572448
60342	-8.974370	-1.257053	3.755958	0.022526	0.034178	-0.003251	-0.606969	-0.319372	-0.449303	0.572465
60343	-8.982971	-1.268946	3.756678	0.011994	0.035724	0.006437	-0.606964	-0.319330	-0.449305	0.572493
60344	-8.971021	-1.277451	3.757990	0.003774	0.029190	-0.002860	-0.606972	-0.319290	-0.449291	0.572517
60345	-8.982687	-1.269179	3.757277	0.012922	0.037092	0.006430	-0.606994	-0.319210	-0.449269	0.572556
60346	-8.972788	-1.260785	3.728103	0.015803	0.062436	-0.014978	-0.607004	-0.319128	-0.449243	0.572612
60347	-8.958382	-1.285741	3.776190	0.000534	0.011299	-0.006301	-0.607022	-0.319034	-0.449225	0.572659
60348	-8.980876	-1.272696	3.745235	0.009772	0.051868	0.000563	-0.607015	-0.318962	-0.449222	0.572709
60349	-8.964474	-1.246979	3.772912	0.040651	0.025478	-0.007112	-0.607011	-0.318870	-0.449230	0.572758
60350	-8.969609	-1.278653	3.791295	0.014754	0.007827	0.008844	-0.607015	-0.318780	-0.449212	0.572819
60351	-8.967355	-1.285229	3.733747	-0.001797	0.059378	-0.014596	-0.607018	-0.318713	-0.449203	0.572859
60352	-8.947205	-1.280904	3.748859	0.005059	0.039298	-0.027721	-0.607010	-0.318651	-0.449219	0.572890
60353	-8.970818	-1.264785	3.746668	0.023033	0.054325	-0.009153	-0.607003	-0.318579	-0.449208	0.572945
60354	-8.967451	-1.284168	3.764215	0.007886	0.035942	-0.002885	-0.607020	-0.318507	-0.449166	0.573001
60355	-8.975515	-1.296272	3.766127	-0.002594	0.037495	0.006809	-0.607043	-0.318441	-0.449127	0.573044
60356	-8.973417	-1.243754	3.761858	0.048199	0.050148	-0.003718	-0.607074	-0.318372	-0.449084	0.573083
60357	-8.950735	-1.312916	3.770905	-0.019320	0.024412	-0.011761	-0.607135	-0.318299	-0.449023	0.573107
60358	-8.976647	-1.277864	3.738454	0.009898	0.071350	-0.005344	-0.607205	-0.318258	-0.448958	0.573107
60359	-8.940931	-1.300505	3.758098	-0.011683	0.037727	-0.027326	-0.607293	-0.318190	-0.448883	0.573110
60360	-8.968518	-1.259681	3.784175	0.034456	0.033763	0.002544	-0.607365	-0.318100	-0.448830	0.573125
60361	-8.948889	-1.309682	3.776408	-0.017633	0.027178	-0.011765	-0.607428	-0.318049	-0.448781	0.573125
60362	-8.934481	-1.266396	3.758850	0.020171	0.045335	-0.037453	-0.607513	-0.317964	-0.448745	0.573110
60363	-8.951169	-1.289353	3.761807	-0.001359	0.047686	-0.018058	-0.607581	-0.317921	-0.448689	0.573105
60364	-8.937035	-1.312443	3.809653	-0.016583	-0.003516	-0.009307	-0.607669	-0.317886	-0.448656	0.573057
60365	-8.964350	-1.273784	3.805345	0.020981	0.017907	0.008819	-0.607739	-0.317879	-0.448636	0.573003
60366	-8.948394	-1.303794	3.779617	-0.015489	0.030435	-0.011771	-0.607806	-0.317885	-0.448598	0.572958
60367	-8.968232	-1.250082	3.803155	0.041671	0.025707	0.008386	-0.607851	-0.317888	-0.448576	0.572925
60368	-8.949461	-1.299223	3.793768	-0.010348	0.019047	-0.005902	-0.607887	-0.317907	-0.448565	0.572886
60369	-8.945523	-1.262871	3.819457	0.029230	-0.000072	-0.004292	-0.607900	-0.317916	-0.448535	0.572890
60370	-8.946380	-1.318695	3.780407	-0.033520	0.026814	-0.011346	-0.607914	-0.317951	-0.448539	0.572853
60371	-8.947539	-1.315611	3.793840	-0.028783	0.014812	-0.005472	-0.607928	-0.318017	-0.448530	0.572808
60372	-8.951386	-1.294567	3.775702	-0.012920	0.034723	-0.011781	-0.607932	-0.318121	-0.448513	0.572760
60373	-8.944894	-1.277081	3.802092	0.006864	0.009151	-0.009737	-0.607945	-0.318253	-0.448502	0.572681
60374	-8.969109	-1.260486	3.768268	0.016307	0.049709	-0.002955	-0.607929	-0.318381	-0.448522	0.572612
60375	-8.962824	-1.243482	3.793994	0.036208	0.024127	-0.000911	-0.607911	-0.318489	-0.448554	0.572545
60376	-8.941365	-1.313830	3.769970	-0.039705	0.023852	-0.020615	-0.607895	-0.318610	-0.448601	0.572458
60377	-8.978073	-1.287399	3.748992	-0.017320	0.058921	0.001300	-0.607890	-0.318759	-0.448609	0.572375
60378	-8.974387	-1.252244	3.743249	0.013687	0.065211	-0.008851	-0.607884	-0.318918	-0.448618	0.572285
60379	-8.964441	-1.256547	3.756445	0.009615	0.045961	-0.012240	-0.607870	-0.319043	-0.448642	0.572211
60380	-8.986689	-1.256026	3.768302	0.012161	0.042019	0.012605	-0.607864	-0.319165	-0.448651	0.572143
60381	-8.975590	-1.263830	3.752708	-0.000456	0.048166	-0.002540	-0.607849	-0.319264	-0.448684	0.572077
60382	-8.960629	-1.235314	3.777747	0.030433	0.021745	-0.010196	-0.607833	-0.319360	-0.448708	0.572021
60383	-8.989634	-1.251732	3.747474	0.009185	0.056780	0.006712	-0.607838	-0.319426	-0.448704	0.571983
60384	-8.978567	-1.258575	3.747349	0.000822	0.050295	-0.002551	-0.607845	-0.319484	-0.448712	0.571937
60385	-8.955647	-1.273971	3.748437	-0.016267	0.036516	-0.021069	-0.607842	-0.319550	-0.448719	0.571898
60386	-8.954192	-1.289439	3.778332	-0.026916	0.005282	-0.008849	-0.607855	-0.319632	-0.448716	0.571841
60387	-8.973204	-1.239410	3.756438	0.017369	0.038743	-0.006386	-0.607849	-0.319755	-0.448705	0.571787
60388	-8.961998	-1.247099	3.741142	0.004770	0.044951	-0.021530	-0.607836	-0.319860	-0.448718	0.571732
60389	-8.952944	-1.248837	3.783735	0.009175	0.000308	-0.013128	-0.607823	-0.319996	-0.448740	0.571653
60390	-8.965254	-1.241021	3.750635	0.009894	0.033602	-0.015650	-0.607811	-0.320110	-0.448786	0.571565
60391	-8.972775	-1.269145	3.765089	-0.016029	0.015994	0.000406	-0.607778	-0.320295	-0.448837	0.571456
60392	-8.954220	-1.262683	3.762023	-0.013390	0.008583	-0.018557	-0.607768	-0.320472	-0.448863	0.571347
60393	-8.952974	-1.279580	3.760591	-0.032702	0.002903	-0.018096	-0.607762	-0.320675	-0.448923	0.571193
60394	-8.990810	-1.250390	3.752456	-0.006014	0.025376	0.009653	-0.607741	-0.320896	-0.448973	0.571052
60395	-8.960460	-1.252896	3.735083	-0.016490	0.023488	-0.024449	-0.607702	-0.321187	-0.449006	0.570904
60396	-9.014442	-1.261957	3.773600	-0.018507	0.003042	0.040860	-0.607626	-0.321528	-0.449054	0.570755
60397	-8.926256	-1.245900	3.828971	-0.001114	-0.086495	-0.020657	-0.607569	-0.321898	-0.449104	0.570568
60398	-8.982972	-1.225282	3.745222	0.002130	0.007452	-0.003420	-0.607530	-0.322278	-0.449197	0.570321
60399	-9.004008	-1.231065	3.649890	-0.025162	0.092402	-0.019823	-0.607458	-0.322757	-0.449291	0.570053
60400	-8.954291	-1.253279	3.779957	-0.030197	-0.057472	-0.012999	-0.607424	-0.323162	-0.449393	0.569779
60401	-9.008045	-1.181061	3.660229	0.014819	0.074021	-0.018233	-0.607361	-0.323750	-0.449402	0.569506
60402	-9.004876	-1.157943	3.680604	0.034658	0.048533	-0.016163	-0.607332	-0.324180	-0.449482	0.569229
60403	-9.011936	-1.130450	3.670925	0.054704	0.055660	-0.016643	-0.607270	-0.324645	-0.449528	0.568993
60404	-9.034487	-1.143110	3.710119	0.046151	0.019827	0.020477	-0.607247	-0.324951	-0.449570	0.568810
60405	-9.023617	-1.222348	3.684970	-0.040788	0.020382	0.010587	-0.607224	-0.325259	-0.449620	0.568619
60406	-9.027112	-1.143707	3.671965	0.029659	0.039364	-0.000566	-0.607206	-0.325623	-0.449622	0.568429
60407	-9.005943	-1.227325	3.677517	-0.057527	0.007310	-0.007888	-0.607224	-0.325954	-0.449639	0.568206
60408	-8.990534	-1.213011	3.716407	-0.042086	-0.038255	-0.009140	-0.607223	-0.326317	-0.449671	0.567973
60409	-9.041277	-1.156790	3.644368	-0.003938	0.048579	0.003722	-0.607197	-0.326803	-0.449615	0.567765
60410	-9.037462	-1.120043	3.606497	0.018680	0.080200	-0.018288	-0.607201	-0.327170	-0.449631	0.567538
60411	-9.065765	-1.078006	3.566436	0.047790	0.127160	-0.012116	-0.607158	-0.327651	-0.449583	0.567344
60412	-9.049522	-1.064612	3.591110	0.059004	0.094370	-0.019275	-0.607131	-0.327987	-0.449548	0.567206
60413	-9.078809	-1.019918	3.596510	0.100969	0.103139	0.004596	-0.607106	-0.328254	-0.449512	0.567107
60414	-9.074437	-1.042711	3.538187	0.064731	0.148301	-0.018545	-0.607082	-0.328403	-0.449468	0.567081
60415	-9.049431	-1.090627	3.617138	0.029568	0.058212	-0.006512	-0.607067	-0.328465	-0.449471	0.567060
60416	-9.075660	-1.053300	3.596265	0.063013	0.092442	0.005544	-0.607056	-0.328503	-0.449438	0.567075
60417	-9.055182	-1.049808	3.597058	0.065565	0.085049	-0.013416	-0.607056	-0.328449	-0.449406	0.567132
60418	-9.051030	-1.145036	3.593485	-0.027949	0.073808	-0.007629	-0.607050	-0.328380	-0.449392	0.567189
60419	-9.044897	-1.113436	3.591002	0.003093	0.080030	-0.017853	-0.607059	-0.328315	-0.449354	0.567248
60420	-9.023035	-1.126174	3.638930	-0.001163	0.028181	-0.018585	-0.607091	-0.328229	-0.449294	0.567310
60421	-9.044271	-1.126368	3.668877	0.005625	0.011500	0.012181	-0.607137	-0.328122	-0.449261	0.567350
60422	-9.033464	-1.118146	3.640445	0.008427	0.036736	-0.009365	-0.607165	-0.328044	-0.449198	0.567414
60423	-9.041723	-1.130033	3.642470	-0.002092	0.038231	0.000357	-0.607188	-0.327976	-0.449175	0.567447
60424	-9.012786	-1.114035	3.657696	0.015675	0.017254	-0.022407	-0.607208	-0.327890	-0.449149	0.567496
60425	-9.029278	-1.139276	3.645571	-0.009965	0.032426	-0.008870	-0.607220	-0.327846	-0.449126	0.567527
60426	-9.016689	-1.149517	3.632937	-0.022601	0.038521	-0.024004	-0.607239	-0.327789	-0.449114	0.567548
60427	-9.031994	-1.119076	3.643804	0.010622	0.040129	-0.009380	-0.607233	-0.327750	-0.449115	0.567577
60428	-9.022618	-1.108995	3.628212	0.017686	0.052721	-0.025025	-0.607228	-0.327730	-0.449113	0.567596
60429	-9.043818	-1.110465	3.642050	0.020339	0.048732	-0.000169	-0.607235	-0.327683	-0.449110	0.567618
60430	-9.042312	-1.114076	3.613109	0.012158	0.074831	-0.012005	-0.607231	-0.327616	-0.449120	0.567652
60431	-9.022302	-1.124081	3.688728	0.016370	-0.002386	-0.000861	-0.607207	-0.327579	-0.449130	0.567691
60432	-9.031111	-1.122363	3.629198	0.008527	0.056343	-0.015315	-0.607220	-0.327496	-0.449122	0.567732
60433	-9.041639	-1.130113	3.674208	0.010941	0.019793	0.012163	-0.607213	-0.327413	-0.449131	0.567780
60434	-9.029765	-1.139642	3.675792	0.002743	0.013209	0.002948	-0.607193	-0.327351	-0.449159	0.567815
60435	-9.029108	-1.142163	3.660861	-0.001105	0.026540	-0.002972	-0.607171	-0.327291	-0.449206	0.567836
60436	-9.029812	-1.141286	3.675165	0.003570	0.014552	0.002946	-0.607166	-0.327244	-0.449203	0.567871
60437	-9.026049	-1.163594	3.663061	-0.020056	0.021639	-0.002455	-0.607162	-0.327198	-0.449195	0.567907
60438	-9.034777	-1.103007	3.656417	0.039487	0.041533	-0.004022	-0.607177	-0.327112	-0.449179	0.567954
60439	-9.045992	-1.167693	3.663408	-0.021359	0.031250	0.016483	-0.607181	-0.327054	-0.449168	0.567992
60440	-9.033413	-1.177752	3.650789	-0.033954	0.037533	0.001351	-0.607200	-0.327033	-0.449116	0.568025
60441	-9.004936	-1.160300	3.665338	-0.016272	0.016532	-0.021399	-0.607234	-0.327048	-0.449079	0.568010
60442	-9.022837	-1.109786	3.658995	0.032336	0.037233	-0.013248	-0.607245	-0.327053	-0.449054	0.568015
60443	-9.043459	-1.112207	3.658192	0.030684	0.046059	0.005686	-0.607250	-0.327038	-0.449042	0.568027
60444	-9.028134	-1.142673	3.647341	-0.001665	0.045855	-0.008918	-0.607241	-0.327005	-0.449042	0.568056
60445	-9.036205	-1.155933	3.633620	-0.016530	0.060092	-0.005114	-0.607259	-0.326977	-0.449025	0.568066
60446	-9.017770	-1.147608	3.678152	-0.001169	0.014563	-0.006272	-0.607281	-0.326959	-0.448985	0.568085
60447	-9.042738	-1.112434	3.644130	0.027976	0.061530	-0.000260	-0.607298	-0.326942	-0.448941	0.568111
60448	-9.052030	-1.122199	3.660015	0.021790	0.050402	0.015398	-0.607317	-0.326892	-0.448918	0.568137
60449	-9.018303	-1.130940	3.633403	0.007033	0.061218	-0.024601	-0.607320	-0.326847	-0.448902	0.568173
60450	-9.027514	-1.141169	3.649345	0.000824	0.050045	-0.008939	-0.607339	-0.326785	-0.448869	0.568214
60451	-9.035910	-1.152713	3.651133	-0.009757	0.051664	0.000794	-0.607370	-0.326743	-0.448809	0.568252
60452	-9.007793	-1.134253	3.680810	0.012239	0.017900	-0.016016	-0.607398	-0.326711	-0.448768	0.568274
60453	-9.030352	-1.118260	3.663879	0.025998	0.045865	-0.003559	-0.607410	-0.326661	-0.448738	0.568314
60454	-9.024127	-1.159065	3.669226	-0.013014	0.033910	-0.002478	-0.607411	-0.326612	-0.448697	0.568373
60455	-9.000399	-1.176298	3.672896	-0.030155	0.020107	-0.020868	-0.607437	-0.326564	-0.448662	0.568401
60456	-9.011929	-1.167297	3.672005	-0.020925	0.028039	-0.011675	-0.607454	-0.326533	-0.448623	0.568430
60457	-9.034838	-1.150770	3.654396	-0.007226	0.055867	0.000773	-0.607461	-0.326567	-0.448610	0.568413
60458	-9.005954	-1.134778	3.653686	0.006192	0.047507	-0.027901	-0.607466	-0.326596	-0.448574	0.568421
60459	-9.030214	-1.115147	3.665168	0.028449	0.050152	-0.003587	-0.607474	-0.326569	-0.448549	0.568446
60460	-9.030153	-1.114789	3.665428	0.028769	0.050954	-0.003592	-0.607488	-0.326547	-0.448504	0.568480
60461	-9.026932	-1.134852	3.668492	0.009500	0.045240	-0.003045	-0.607509	-0.326495	-0.448456	0.568526
60462	-9.003803	-1.150493	3.686926	-0.003423	0.018756	-0.015485	-0.607531	-0.326435	-0.448421	0.568564
60463	-8.994219	-1.140103	3.671961	0.003528	0.031319	-0.031168	-0.607543	-0.326423	-0.448388	0.568584
60464	-9.014751	-1.142471	3.671423	0.001805	0.040077	-0.012242	-0.607567	-0.326417	-0.448361	0.568583
60465	-9.026462	-1.133413	3.670094	0.011080	0.048042	-0.003060	-0.607572	-0.326374	-0.448346	0.568614
60466	-9.026325	-1.133310	3.670462	0.011519	0.048702	-0.003064	-0.607597	-0.326328	-0.448323	0.568632
60467	-9.011502	-1.161914	3.674760	-0.016601	0.035712	-0.011692	-0.607628	-0.326299	-0.448292	0.568640
60468	-9.026126	-1.132265	3.671274	0.012330	0.050112	-0.003072	-0.607648	-0.326279	-0.448253	0.568660
60469	-9.012109	-1.159116	3.689860	-0.011494	0.024513	-0.005752	-0.607659	-0.326262	-0.448230	0.568677
60470	-9.007637	-1.123599	3.715889	0.028173	0.005323	-0.004170	-0.607660	-0.326222	-0.448210	0.568714
60471	-9.001165	-1.165674	3.705806	-0.015066	0.005957	-0.008988	-0.607658	-0.326223	-0.448226	0.568703
60472	-9.035898	-1.140887	3.686325	0.007481	0.041170	0.012602	-0.607660	-0.326209	-0.448208	0.568723
60473	-8.992129	-1.154526	3.689741	-0.007662	0.019217	-0.024681	-0.607667	-0.326220	-0.448182	0.568730
60474	-9.015913	-1.136304	3.686206	0.010408	0.034447	-0.006327	-0.607665	-0.326244	-0.448180	0.568721
60475	-9.016442	-1.135233	3.685241	0.010847	0.035091	-0.006330	-0.607678	-0.326274	-0.448194	0.568678
60476	-9.017041	-1.133869	3.684197	0.011271	0.035738	-0.006333	-0.607693	-0.326318	-0.448188	0.568642
60477	-9.025098	-1.147312	3.654802	-0.007820	0.062642	-0.008489	-0.607695	-0.326372	-0.448198	0.568600
60478	-9.015441	-1.151574	3.684077	-0.007614	0.030656	-0.005765	-0.607698	-0.326404	-0.448217	0.568564
60479	-9.005938	-1.141855	3.652930	-0.004835	0.055818	-0.027417	-0.607693	-0.326455	-0.448213	0.568543
60480	-9.020436	-1.126989	3.693738	0.017202	0.025682	-0.000393	-0.607693	-0.326518	-0.448225	0.568498
60481	-9.038658	-1.149244	3.694154	-0.004195	0.028137	0.019102	-0.607695	-0.326537	-0.448245	0.568470
60482	-8.987309	-1.149261	3.710252	-0.004116	-0.007440	-0.021955	-0.607685	-0.326587	-0.448253	0.568444
60483	-9.018966	-1.145554	3.677320	-0.005583	0.034090	-0.005775	-0.607659	-0.326666	-0.448277	0.568408
60484	-9.011139	-1.132439	3.674573	0.005695	0.033988	-0.015527	-0.607646	-0.326741	-0.448286	0.568372
60485	-9.025241	-1.119110	3.700164	0.023397	0.016573	0.005549	-0.607623	-0.326825	-0.448318	0.568322
60486	-9.033783	-1.132448	3.669539	0.004380	0.043664	0.003384	-0.607587	-0.326934	-0.448348	0.568274
60487	-9.009430	-1.166964	3.686891	-0.028304	0.010832	-0.008409	-0.607553	-0.327036	-0.448389	0.568221
60488	-9.024104	-1.139550	3.650759	-0.007772	0.050527	-0.011746	-0.607479	-0.327177	-0.448463	0.568160
60489	-9.036744	-1.144548	3.691641	-0.005398	0.014144	0.015879	-0.607429	-0.327331	-0.448519	0.568080
60490	-9.016633	-1.142408	3.659498	-0.011445	0.032033	-0.014956	-0.607357	-0.327525	-0.448569	0.568006
60491	-9.021605	-1.133229	3.713496	0.006024	-0.017946	0.008883	-0.607302	-0.327739	-0.448629	0.567893
60492	-9.035454	-1.107533	3.646908	0.017922	0.047145	-0.006391	-0.607229	-0.327966	-0.448689	0.567794
60493	-9.023961	-1.131662	3.660634	-0.005905	0.021551	-0.009000	-0.607152	-0.328230	-0.448748	0.567677
60494	-9.039448	-1.102261	3.622671	0.014550	0.061257	-0.012362	-0.607084	-0.328479	-0.448809	0.567558
60495	-9.021067	-1.082115	3.558130	0.019722	0.110820	-0.055729	-0.607012	-0.328702	-0.448877	0.567452
60496	-9.045859	-1.091840	3.657721	0.028362	0.024549	0.005519	-0.606990	-0.328802	-0.448951	0.567358
60497	-9.067142	-1.094914	3.638990	0.022431	0.046095	0.018463	-0.606931	-0.328927	-0.449043	0.567276
60498	-9.065872	-1.114116	3.637800	0.003110	0.040441	0.019059	-0.606878	-0.329025	-0.449132	0.567205
