// General information: 
//  MT Manager version: 2021.0.0 
//  XDA version: 2021.0.0 build 5908 rev 109668 built on 2021-04-19
// Device information: 
//  DeviceId: 00B43DFB
//  ProductCode: MTW2-3A7G6
//  Firmware Version: 4.3.5
//  Hardware Version: 1.1.0
// Device settings: 
//  Filter Profile: human(46.1)
//  Option Flags: Orientation Smoother Disabled, Position/Velocity Smoother Disabled, Continuous Zero Rotation Update Disabled, AHS Disabled, ICC Disabled
// Coordinate system: ENU
PacketCounter	Acc_X	Acc_Y	Acc_Z	FreeAcc_E	FreeAcc_N	FreeAcc_U	Quat_q0	Quat_q1	Quat_q2	Quat_q3
54636	-9.411433	0.673330	2.642667	-0.131897	-0.090376	-0.015414	0.147806	0.605401	0.074492	-0.778520
54637	-9.421779	0.709380	2.642249	-0.115729	-0.120221	-0.003163	0.147793	0.605332	0.074295	-0.778595
54638	-9.435856	0.860300	2.658557	-0.078495	-0.262429	0.024405	0.147864	0.605239	0.074136	-0.778669
54639	-9.462083	0.868743	2.607751	-0.021078	-0.248154	0.037392	0.148159	0.605102	0.074131	-0.778720
54640	-9.498759	0.790170	2.609832	-0.037566	-0.165086	0.068272	0.148609	0.604976	0.074229	-0.778723
54641	-9.494005	0.697477	2.653310	-0.106092	-0.086361	0.068808	0.149091	0.604826	0.074340	-0.778737
54642	-9.513968	0.645461	2.673096	-0.134703	-0.035566	0.089749	0.149446	0.604724	0.074333	-0.778749
54643	-9.492649	0.708020	2.691127	-0.134767	-0.098454	0.078015	0.149770	0.604608	0.074310	-0.778779
54644	-9.459232	0.723887	2.634216	-0.083271	-0.097101	0.032302	0.150139	0.604502	0.074323	-0.778789
54645	-9.503368	0.709889	2.597184	-0.042841	-0.062391	0.064437	0.150590	0.604419	0.074415	-0.778757
54646	-9.383077	0.586689	2.584267	-0.096668	0.043647	-0.063147	0.151000	0.604346	0.074590	-0.778718
54647	-9.416407	0.543443	2.561024	-0.081478	0.097233	-0.039929	0.151171	0.604332	0.074727	-0.778682
54648	-9.532805	0.712468	2.618063	-0.053749	-0.062231	0.098391	0.151240	0.604322	0.074757	-0.778674
54649	-9.571559	0.790356	2.709415	-0.104821	-0.156555	0.164529	0.151251	0.604371	0.074708	-0.778638
54650	-9.548524	0.719211	2.647776	-0.078279	-0.073563	0.121634	0.151291	0.604481	0.074628	-0.778552
54651	-9.553919	0.815738	2.658499	-0.058243	-0.165392	0.136166	0.151408	0.604522	0.074565	-0.778504
54652	-9.466806	0.819579	2.705254	-0.121146	-0.192852	0.064491	0.151734	0.604555	0.074602	-0.778411
54653	-9.421736	0.674480	2.637893	-0.117258	-0.039588	-0.006200	0.152179	0.604537	0.074748	-0.778325
54654	-9.398420	0.604502	2.577251	-0.090725	0.043412	-0.049090	0.152447	0.604585	0.074805	-0.778229
54655	-9.438826	0.645035	2.571700	-0.066277	0.015120	-0.008784	0.152547	0.604695	0.074667	-0.778137
54656	-9.479926	0.687726	2.598764	-0.070938	-0.025025	0.040732	0.152595	0.604762	0.074593	-0.778083
54657	-9.523988	0.694080	2.595612	-0.058323	-0.022835	0.082836	0.152586	0.604850	0.074555	-0.778020
54658	-9.573298	0.655107	2.602113	-0.068106	0.019664	0.129303	0.152521	0.604933	0.074443	-0.777979
54659	-9.588019	0.675848	2.657873	-0.111406	-0.013225	0.159202	0.152391	0.605011	0.074240	-0.777963
54660	-9.514699	0.685086	2.683492	-0.150350	-0.038905	0.095685	0.152160	0.605124	0.073952	-0.777948
54661	-9.499672	0.700231	2.707248	-0.172787	-0.061492	0.088305	0.151865	0.605218	0.073687	-0.777958
54662	-9.475165	0.789209	2.686182	-0.131867	-0.143023	0.065538	0.151434	0.605315	0.073383	-0.777995
54663	-9.495183	0.884464	2.696240	-0.107672	-0.234085	0.094082	0.151147	0.605397	0.073247	-0.778000
54664	-9.452722	0.870375	2.682861	-0.110531	-0.225699	0.048656	0.151013	0.605480	0.073366	-0.777951
54665	-9.474679	0.801330	2.652181	-0.100729	-0.152231	0.057085	0.150987	0.605553	0.073595	-0.777877
54666	-9.500270	0.709727	2.669961	-0.141156	-0.070971	0.079864	0.151019	0.605551	0.073841	-0.777849
54667	-9.501972	0.684308	2.631324	-0.113079	-0.038583	0.069890	0.150938	0.605571	0.073963	-0.777837
54668	-9.547875	0.666519	2.624618	-0.101722	-0.015737	0.111233	0.150767	0.605540	0.073988	-0.777892
54669	-9.545586	0.674303	2.584872	-0.061800	-0.013835	0.099449	0.150483	0.605530	0.073899	-0.777964
54670	-9.532169	0.683241	2.663630	-0.133168	-0.049294	0.107183	0.150143	0.605512	0.073795	-0.778053
54671	-9.529073	0.705495	2.649212	-0.111794	-0.069074	0.102049	0.149756	0.605487	0.073695	-0.778157
54672	-9.538609	0.766155	2.697154	-0.132656	-0.142282	0.127577	0.149401	0.605452	0.073678	-0.778253
54673	-9.525301	0.755010	2.718642	-0.156359	-0.144211	0.119441	0.149097	0.605379	0.073789	-0.778358
54674	-9.537781	0.760514	2.678945	-0.112301	-0.141536	0.121685	0.148842	0.605321	0.073994	-0.778433
54675	-9.528484	0.706957	2.690349	-0.138578	-0.102133	0.112036	0.148606	0.605228	0.074312	-0.778520
54676	-9.520136	0.646442	2.722686	-0.184685	-0.063752	0.108286	0.148284	0.605075	0.074703	-0.778662
54677	-9.483460	0.558861	2.719301	-0.211240	0.005609	0.066496	0.147936	0.604883	0.075104	-0.778840
54678	-9.445351	0.494793	2.753856	-0.265611	0.042445	0.034689	0.147461	0.604732	0.075272	-0.779030
54679	-9.417132	0.615285	2.747153	-0.222091	-0.080391	0.013401	0.146860	0.604601	0.075274	-0.779245
54680	-9.476439	0.745466	2.737979	-0.153756	-0.198609	0.076299	0.146356	0.604444	0.075283	-0.779461
54681	-9.514070	0.802858	2.755884	-0.137212	-0.258420	0.120660	0.146046	0.604203	0.075472	-0.779688
54682	-9.520129	0.713988	2.742256	-0.142086	-0.175912	0.117643	0.145917	0.603821	0.075941	-0.779963
54683	-9.575862	0.561134	2.734165	-0.158249	-0.030121	0.160361	0.145697	0.603384	0.076556	-0.780281
54684	-9.544444	0.384128	2.739001	-0.209788	0.120871	0.121468	0.145383	0.602711	0.077233	-0.780793
54685	-9.508585	0.228034	2.698369	-0.211100	0.264083	0.068206	0.144679	0.602098	0.077633	-0.781358
54686	-9.655469	0.190615	2.763530	-0.230248	0.289226	0.225481	0.143554	0.601553	0.077584	-0.781989
54687	-9.769618	0.369826	2.940211	-0.288266	0.073425	0.392140	0.141883	0.600799	0.077188	-0.782912
54688	-9.862745	0.409035	3.105556	-0.372831	-0.010138	0.528795	0.140165	0.599424	0.077087	-0.784284
54689	-9.704183	0.211750	3.262235	-0.564588	0.098039	0.411279	0.138375	0.597314	0.077422	-0.786177
54690	-9.861366	0.041412	3.576929	-0.801550	0.174643	0.645288	0.136279	0.594952	0.077570	-0.788317
54691	-9.924592	-0.154114	3.865688	-1.035501	0.279150	0.785148	0.133851	0.592304	0.076848	-0.790794
54692	-9.898796	-0.051972	4.194986	-1.228258	0.093340	0.867608	0.130863	0.589123	0.075213	-0.793821
54693	-9.801728	0.298466	4.489794	-1.320049	-0.316953	0.886711	0.127594	0.585087	0.073320	-0.797507
54694	-9.885419	0.669867	4.659360	-1.220460	-0.689442	1.046105	0.124656	0.580003	0.071856	-0.801807
54695	-10.021551	0.788505	4.717462	-1.045902	-0.786911	1.214193	0.122598	0.573779	0.071255	-0.806641
54696	-9.892230	0.560048	4.718689	-0.970650	-0.568355	1.103709	0.121300	0.566754	0.071140	-0.811797
54697	-9.825500	0.025502	4.798470	-1.015903	-0.063585	1.074319	0.120302	0.559206	0.070948	-0.817179
54698	-9.702185	-0.412926	4.865501	-1.028748	0.358285	0.994034	0.118854	0.550968	0.069640	-0.823078
54699	-9.660748	-0.338766	4.988807	-0.908676	0.304317	1.022894	0.116410	0.542103	0.066645	-0.829537
54700	-9.641823	-0.162806	5.079375	-0.706379	0.183154	1.061726	0.113398	0.532363	0.062552	-0.836551
54701	-9.492954	0.056159	5.117755	-0.489855	0.026660	0.960613	0.109948	0.522278	0.057888	-0.843674
54702	-9.619042	0.163013	5.311599	-0.315876	-0.017353	1.171801	0.106505	0.511833	0.053255	-0.850792
54703	-9.581911	0.233097	5.756010	-0.418087	-0.089912	1.359075	0.103096	0.500434	0.048625	-0.858238
54704	-9.188045	0.010242	5.939957	-0.512832	0.133964	1.114985	0.100035	0.488330	0.044121	-0.865783
54705	-9.040953	-0.356991	5.973312	-0.382751	0.563774	1.007353	0.096712	0.475699	0.038985	-0.873406
54706	-8.988105	-0.110051	6.287515	-0.298742	0.376468	1.145867	0.092385	0.462581	0.032372	-0.881156
54707	-9.038586	0.309899	6.603154	-0.113006	0.053719	1.384048	0.087944	0.448794	0.025163	-0.888941
54708	-8.813303	0.548007	6.844006	-0.046812	-0.109489	1.358222	0.083784	0.434334	0.018327	-0.896660
54709	-8.598018	0.528021	6.862699	0.160234	0.001346	1.199298	0.080229	0.419294	0.012169	-0.904217
54710	-8.319630	0.507592	6.886546	0.321564	0.097256	0.993502	0.077150	0.403881	0.006177	-0.911531
54711	-8.218931	0.564140	7.076494	0.484408	0.129479	1.035460	0.074006	0.388205	0.000040	-0.918597
54712	-8.091316	0.820693	7.351345	0.598441	-0.036666	1.133242	0.070811	0.372377	-0.006533	-0.925353
54713	-8.024659	1.007430	7.709848	0.696696	-0.116879	1.338077	0.067811	0.356153	-0.013214	-0.931870
54714	-7.855045	1.018236	7.977226	0.776317	-0.026792	1.401474	0.065090	0.339530	-0.019671	-0.938134
54715	-7.289131	0.866216	7.966774	0.720395	0.172940	0.994207	0.062820	0.322515	-0.025880	-0.944123
54716	-6.742154	0.567598	7.886092	0.686720	0.517857	0.541867	0.060468	0.305346	-0.032442	-0.949766
54717	-6.467609	0.728343	8.087821	0.730568	0.457712	0.532224	0.057995	0.288043	-0.039600	-0.955039
54718	-6.166429	0.996909	8.175313	0.819557	0.293524	0.438365	0.055482	0.270731	-0.047138	-0.959898
54719	-6.076272	1.489171	8.487777	0.976039	-0.041167	0.685608	0.052815	0.253633	-0.054965	-0.964292
54720	-5.717243	1.751963	8.748714	0.914342	-0.188612	0.742516	0.050525	0.236353	-0.061535	-0.968400
54721	-5.096307	1.748283	8.762701	0.716009	-0.149469	0.447314	0.048601	0.219150	-0.066659	-0.972198
54722	-4.664620	1.423333	8.619213	0.713473	0.189513	0.062558	0.046993	0.202180	-0.070722	-0.975660
54723	-4.374336	1.398963	8.560006	0.802827	0.250142	-0.135449	0.045485	0.185229	-0.075015	-0.978772
54724	-4.100140	1.420891	8.665076	0.835890	0.292580	-0.162815	0.043917	0.168512	-0.079491	-0.981507
54725	-3.941604	1.590487	9.017029	0.899027	0.243819	0.111813	0.042128	0.152173	-0.084003	-0.983876
54726	-3.778090	1.669265	9.038483	1.059014	0.231177	0.065111	0.040167	0.136120	-0.087972	-0.985961
54727	-3.302562	1.841519	8.957332	0.942156	0.071142	-0.136370	0.037925	0.120220	-0.091899	-0.987757
54728	-2.572907	1.921329	8.832180	0.566899	-0.035654	-0.432455	0.035833	0.104394	-0.095098	-0.989330
54729	-2.144343	1.926889	8.700312	0.456640	-0.050736	-0.659040	0.033907	0.089439	-0.097774	-0.990602
54730	-2.092735	1.906813	8.759836	0.656154	0.024880	-0.630458	0.032270	0.075186	-0.100449	-0.991572
54731	-2.240891	2.069147	9.075862	1.018440	-0.002995	-0.292655	0.030575	0.061224	-0.103894	-0.992231
54732	-1.831681	2.396057	9.168076	0.874321	-0.268595	-0.205018	0.028702	0.047414	-0.107387	-0.992671
54733	-1.139348	2.498875	9.027465	0.455154	-0.384635	-0.395826	0.027017	0.033997	-0.110299	-0.992949
54734	-0.707396	2.362468	8.940925	0.262595	-0.246228	-0.545133	0.025665	0.021135	-0.112600	-0.993084
54735	-0.583160	2.280817	9.092430	0.354596	-0.091033	-0.427800	0.024477	0.008961	-0.115108	-0.993011
54736	-0.590070	2.609184	9.059444	0.595669	-0.365650	-0.392656	0.023477	-0.002727	-0.117771	-0.992760
54737	-0.457205	2.605100	8.922290	0.670732	-0.355826	-0.537839	0.022623	-0.013930	-0.119622	-0.992464
54738	-0.192862	2.298965	8.853246	0.590042	-0.054507	-0.683177	0.021888	-0.024928	-0.121002	-0.992098
54739	0.161144	2.033500	8.946726	0.422713	0.237436	-0.649349	0.021256	-0.035591	-0.122003	-0.991664
54740	0.363269	2.000659	8.889438	0.403445	0.275706	-0.706917	0.020605	-0.045702	-0.123592	-0.991066
54741	0.381274	2.195454	8.930232	0.575046	0.133347	-0.627731	0.019963	-0.055088	-0.125571	-0.990353
54742	0.528158	2.119515	8.704800	0.568240	0.187022	-0.858104	0.019149	-0.064347	-0.127818	-0.989523
54743	1.102212	2.010876	8.628742	0.140977	0.304801	-0.890870	0.018173	-0.072930	-0.130142	-0.988643
54744	1.148497	2.191471	8.659973	0.256906	0.190145	-0.811989	0.017121	-0.081097	-0.133061	-0.987636
54745	1.403504	2.468653	8.770700	0.179356	0.006116	-0.595573	0.016162	-0.088802	-0.135748	-0.986623
54746	1.124343	2.568111	8.876391	0.612441	-0.006171	-0.524367	0.015032	-0.096058	-0.138201	-0.985620
54747	1.558863	2.814586	9.022175	0.358029	-0.157224	-0.242050	0.013660	-0.103167	-0.140183	-0.984641
54748	1.947301	2.694287	9.229346	0.137259	0.045315	-0.004023	0.012134	-0.109470	-0.140509	-0.983934
54749	2.092024	2.649406	9.021663	0.063256	0.034509	-0.180442	0.010395	-0.115335	-0.139968	-0.983361
54750	2.074592	2.200943	8.797803	0.106434	0.388635	-0.518264	0.008345	-0.120504	-0.138495	-0.982969
54751	2.082738	2.071734	8.879776	0.198725	0.520432	-0.476234	0.006120	-0.125099	-0.137672	-0.982527
54752	2.387427	2.495683	8.785543	-0.019048	0.084972	-0.373094	0.004032	-0.129480	-0.136863	-0.982083
54753	2.461396	2.648336	8.568179	-0.072036	-0.130954	-0.514126	0.001888	-0.132820	-0.135704	-0.981804
54754	2.068444	2.433670	8.505050	0.330151	0.031335	-0.733758	-0.000374	-0.135384	-0.134673	-0.981598
54755	2.632788	2.106796	8.518136	-0.183992	0.355477	-0.660176	-0.002635	-0.137560	-0.133424	-0.981462
54756	2.773609	2.083789	8.336668	-0.342385	0.330599	-0.795562	-0.004274	-0.138706	-0.133464	-0.981290
54757	2.363536	2.688501	8.762096	0.203781	-0.139301	-0.350783	-0.005566	-0.139787	-0.134856	-0.980940
54758	2.751963	2.616023	8.866247	-0.127925	0.002640	-0.168477	-0.006926	-0.140596	-0.135749	-0.980692
54759	2.663360	2.404604	8.579290	-0.119882	0.146595	-0.515165	-0.007821	-0.140845	-0.136873	-0.980494
54760	2.713926	2.698695	8.750869	-0.109735	-0.061836	-0.262287	-0.008497	-0.141142	-0.138152	-0.980266
54761	2.645510	2.905798	9.062288	0.046245	-0.154919	0.063610	-0.008955	-0.140819	-0.139228	-0.980156
54762	2.603127	2.754319	9.128337	0.093207	0.024743	0.070620	-0.009511	-0.140366	-0.139894	-0.980121
54763	2.384851	2.321044	9.125650	0.276670	0.444770	-0.113316	-0.009902	-0.139264	-0.140930	-0.980126
54764	2.357494	2.724581	9.305786	0.341020	0.136494	0.159459	-0.010144	-0.138323	-0.142862	-0.979977
54765	2.516429	2.916368	9.462375	0.212105	0.043779	0.401375	-0.010321	-0.136955	-0.144584	-0.979915
54766	2.206355	2.856394	9.568026	0.509355	0.144894	0.399733	-0.010695	-0.135513	-0.145943	-0.979909
54767	2.429889	2.951896	9.691218	0.299290	0.128841	0.600355	-0.011117	-0.134115	-0.147047	-0.979932
54768	2.369586	2.783422	9.587336	0.297717	0.278779	0.439772	-0.011354	-0.132739	-0.148084	-0.979960
54769	2.110768	2.918262	9.734266	0.561144	0.205214	0.549281	-0.011696	-0.131463	-0.149700	-0.979883
54770	2.459398	3.230760	9.640150	0.181666	-0.074030	0.645822	-0.012009	-0.130455	-0.150399	-0.979907
54771	2.417603	3.042615	9.465706	0.150060	0.061320	0.418421	-0.012135	-0.129200	-0.150656	-0.980032
54772	2.110204	2.901013	9.663407	0.473566	0.238921	0.481432	-0.012226	-0.128339	-0.150691	-0.980139
54773	2.264761	2.527303	9.556034	0.274980	0.573723	0.308054	-0.012490	-0.127690	-0.150722	-0.980215
54774	2.321995	2.922316	9.717384	0.255622	0.260658	0.590476	-0.012680	-0.127293	-0.151770	-0.980103
54775	2.340046	3.143616	9.784092	0.249617	0.088467	0.723747	-0.012803	-0.126849	-0.152347	-0.980069
54776	2.143610	3.075749	9.689658	0.406819	0.123556	0.568256	-0.013127	-0.126548	-0.152804	-0.980033
54777	2.380481	2.980978	9.437193	0.105887	0.160369	0.364571	-0.013444	-0.126244	-0.153000	-0.980037
54778	2.132935	3.001890	9.393011	0.328491	0.118509	0.270341	-0.013736	-0.125996	-0.153465	-0.979992
54779	2.083072	2.954459	9.403985	0.374679	0.172569	0.253731	-0.014128	-0.125894	-0.153813	-0.979945
54780	2.178015	2.920063	9.402345	0.277912	0.218967	0.264486	-0.014650	-0.125697	-0.154157	-0.979909
54781	2.294974	2.961057	9.215804	0.112649	0.142000	0.133816	-0.015166	-0.125417	-0.154768	-0.979841
54782	2.219069	2.939551	9.234647	0.184058	0.177121	0.126058	-0.015734	-0.125142	-0.155449	-0.979759
54783	2.031039	2.889190	9.226224	0.355622	0.226484	0.057366	-0.016289	-0.124710	-0.156377	-0.979657
54784	1.983589	2.785686	9.298933	0.409272	0.365422	0.079923	-0.016991	-0.124268	-0.157514	-0.979519
54785	2.096053	2.832963	9.323359	0.298296	0.360921	0.143459	-0.017744	-0.123960	-0.158704	-0.979353
54786	2.205006	3.160740	9.210706	0.158995	0.052308	0.170365	-0.018357	-0.123574	-0.160255	-0.979138
54787	2.115203	3.519188	9.368256	0.275630	-0.212614	0.409921	-0.018835	-0.122921	-0.161688	-0.978975
54788	2.137217	3.487965	9.349892	0.234169	-0.164013	0.388896	-0.019400	-0.122142	-0.162399	-0.978944
54789	2.051895	3.463913	9.295180	0.286061	-0.153332	0.311737	-0.019940	-0.121347	-0.162739	-0.978976
54790	2.081634	3.504056	9.365868	0.257481	-0.162479	0.397032	-0.020430	-0.120626	-0.162676	-0.979065
54791	1.975835	3.243305	9.406239	0.353001	0.089800	0.324748	-0.021019	-0.119863	-0.162773	-0.979130
54792	2.100993	3.145134	9.277125	0.183173	0.158304	0.202922	-0.021547	-0.119041	-0.163243	-0.979141
54793	2.096082	3.011819	9.165717	0.144556	0.264913	0.055637	-0.021909	-0.118213	-0.164345	-0.979049
54794	1.889206	3.243598	9.320508	0.365587	0.107643	0.228057	-0.022128	-0.117392	-0.166004	-0.978863
54795	1.916465	3.464475	9.383839	0.338210	-0.044922	0.366475	-0.022322	-0.116637	-0.167503	-0.978693
54796	1.932871	3.193229	9.282409	0.282679	0.204857	0.186006	-0.022578	-0.115693	-0.168530	-0.978623
54797	1.920530	3.510293	9.362077	0.293686	-0.047837	0.364270	-0.022667	-0.114781	-0.169448	-0.978570
54798	2.005981	3.723782	9.447621	0.210885	-0.202582	0.534414	-0.022753	-0.113854	-0.169517	-0.978664
54799	1.905749	3.628301	9.443780	0.287173	-0.127467	0.477243	-0.022699	-0.112768	-0.168945	-0.978890
54800	1.709095	3.458407	9.485370	0.467224	0.015988	0.416448	-0.022553	-0.111735	-0.168178	-0.979144
54801	1.700684	3.321803	9.407515	0.438134	0.103417	0.297967	-0.022398	-0.110754	-0.167512	-0.979373
54802	1.804928	3.397389	9.475333	0.332583	0.049039	0.408315	-0.022249	-0.109890	-0.166833	-0.979590
54803	1.866764	3.119295	9.579414	0.279479	0.337061	0.423925	-0.022166	-0.109047	-0.166277	-0.979780
54804	1.772306	3.144043	9.615270	0.362769	0.311555	0.446494	-0.021977	-0.108253	-0.166225	-0.979881
54805	1.760931	3.404144	9.605780	0.353957	0.064452	0.523202	-0.021791	-0.107394	-0.166475	-0.979938
54806	1.822164	3.397035	9.585943	0.275243	0.069786	0.515419	-0.021564	-0.106754	-0.166276	-0.980046
54807	1.708327	3.323856	9.524379	0.361426	0.102268	0.411749	-0.021383	-0.106172	-0.165768	-0.980200
54808	1.641143	3.247029	9.635269	0.440437	0.192138	0.475365	-0.021343	-0.105708	-0.164988	-0.980382
54809	1.687943	3.046119	9.499798	0.357902	0.326080	0.293732	-0.021364	-0.105332	-0.164287	-0.980540
54810	1.749520	3.088399	9.464674	0.282854	0.269414	0.288129	-0.021451	-0.105049	-0.163981	-0.980619
54811	1.674016	3.262303	9.518261	0.360803	0.111031	0.380435	-0.021665	-0.104796	-0.163697	-0.980689
54812	1.681596	3.454954	9.528182	0.348202	-0.074098	0.454931	-0.021852	-0.104558	-0.163265	-0.980783
54813	1.691171	3.205556	9.523811	0.333539	0.150360	0.370866	-0.022222	-0.104304	-0.162650	-0.980903
54814	1.725631	2.945854	9.463024	0.282539	0.370904	0.236556	-0.022562	-0.104020	-0.162426	-0.980963
54815	1.643072	2.998983	9.411698	0.347551	0.300298	0.190445	-0.022853	-0.103941	-0.162834	-0.980897
54816	1.737198	3.263707	9.453702	0.259841	0.082048	0.334620	-0.023109	-0.103866	-0.163454	-0.980796
54817	1.739611	3.179153	9.386307	0.240290	0.150279	0.244931	-0.023364	-0.103595	-0.163751	-0.980769
54818	1.693872	3.249166	9.364007	0.273855	0.079215	0.238663	-0.023609	-0.103350	-0.163980	-0.980751
54819	1.831788	3.241867	9.227327	0.103781	0.055128	0.136930	-0.023727	-0.102975	-0.163907	-0.980799
54820	1.735234	3.075811	9.190793	0.183941	0.190893	0.029673	-0.023831	-0.102519	-0.163808	-0.980861
54821	1.584127	3.089562	9.267280	0.337827	0.191021	0.076029	-0.023919	-0.102017	-0.163943	-0.980889
54822	1.541077	3.141884	9.373133	0.391437	0.177014	0.183183	-0.024106	-0.101551	-0.164249	-0.980881
54823	1.607243	3.207768	9.576578	0.358840	0.193153	0.405814	-0.024314	-0.101150	-0.164629	-0.980854
54824	1.703219	3.369163	9.527105	0.243660	0.041831	0.432155	-0.024529	-0.100703	-0.165086	-0.980818
54825	1.656549	3.429412	9.462242	0.264798	-0.031464	0.383779	-0.024588	-0.100135	-0.165397	-0.980822
54826	1.677742	3.441940	9.432653	0.226907	-0.044878	0.364896	-0.024580	-0.099602	-0.165678	-0.980829
54827	1.610530	3.348950	9.378595	0.271034	0.026945	0.271613	-0.024514	-0.098894	-0.166093	-0.980832
54828	1.542621	3.355496	9.433964	0.336041	0.042404	0.312725	-0.024517	-0.098302	-0.166553	-0.980814
54829	1.647197	3.389298	9.544314	0.244137	0.062308	0.445530	-0.024444	-0.097758	-0.166788	-0.980830
54830	1.593413	3.383969	9.603958	0.298603	0.087616	0.489223	-0.024378	-0.097260	-0.167040	-0.980838
54831	1.627068	3.401417	9.558653	0.247256	0.062664	0.459594	-0.024196	-0.096809	-0.167144	-0.980870
54832	1.552489	3.363719	9.563441	0.314401	0.096795	0.437971	-0.023949	-0.096449	-0.167351	-0.980876
54833	1.544678	3.301285	9.612107	0.327851	0.170874	0.460599	-0.023755	-0.096286	-0.167163	-0.980929
54834	1.606035	3.264707	9.507299	0.244189	0.172803	0.362621	-0.023485	-0.096051	-0.167099	-0.980969
54835	1.490984	3.263862	9.450550	0.342276	0.144617	0.289325	-0.023320	-0.095863	-0.167054	-0.980999
54836	1.433084	3.075528	9.437839	0.395099	0.310629	0.203940	-0.023200	-0.095632	-0.166852	-0.981059
54837	1.433446	3.116435	9.457528	0.394701	0.280403	0.236061	-0.023115	-0.095492	-0.167239	-0.981009
54838	1.643372	3.401965	9.597054	0.210975	0.081505	0.498779	-0.022984	-0.095431	-0.167629	-0.980951
54839	1.553581	3.450688	9.558372	0.289297	0.022330	0.463457	-0.022830	-0.095260	-0.167863	-0.980931
54840	1.482410	3.476457	9.605165	0.365946	0.007183	0.502763	-0.022697	-0.095197	-0.167562	-0.980992
54841	1.678666	3.267899	9.471640	0.148825	0.165412	0.344061	-0.022464	-0.095121	-0.167016	-0.981098
54842	1.568367	3.050611	9.399817	0.244787	0.331330	0.184956	-0.022062	-0.095051	-0.166951	-0.981125
54843	1.377420	3.145578	9.566524	0.464184	0.286792	0.336825	-0.021575	-0.095068	-0.167500	-0.981040
54844	1.448982	3.302142	9.619914	0.405547	0.173003	0.451426	-0.021327	-0.095179	-0.168028	-0.980945
54845	1.662644	3.362150	9.485780	0.173093	0.094846	0.385818	-0.021100	-0.095325	-0.168202	-0.980906
54846	1.553273	3.341411	9.494633	0.285223	0.110838	0.367298	-0.020836	-0.095386	-0.168218	-0.980903
54847	1.449644	3.411051	9.524325	0.394582	0.045377	0.399646	-0.020541	-0.095489	-0.168025	-0.980932
54848	1.604490	3.406818	9.464225	0.234536	0.034965	0.370442	-0.020224	-0.095648	-0.167710	-0.980977
54849	1.494421	3.286721	9.563003	0.366488	0.167984	0.401240	-0.019930	-0.095808	-0.167609	-0.980985
54850	1.595154	3.233497	9.495482	0.259517	0.201007	0.338985	-0.019719	-0.096035	-0.167558	-0.980975
54851	1.660675	3.121722	9.456390	0.192806	0.298640	0.276908	-0.019447	-0.096187	-0.167716	-0.980939
54852	1.426782	3.235038	9.505486	0.435926	0.199575	0.317740	-0.019205	-0.096402	-0.168357	-0.980813
54853	1.704951	3.415800	9.448444	0.157512	0.040130	0.376582	-0.019003	-0.096707	-0.168733	-0.980722
54854	1.668484	3.353860	9.430331	0.195403	0.092454	0.332096	-0.018762	-0.096860	-0.168649	-0.980726
54855	1.528785	3.272196	9.408237	0.332562	0.149433	0.258383	-0.018547	-0.097065	-0.168491	-0.980737
54856	1.647672	3.085234	9.335432	0.206229	0.304344	0.149673	-0.018409	-0.097226	-0.168181	-0.980777
54857	1.578432	3.072470	9.361854	0.282766	0.319128	0.156968	-0.018240	-0.097372	-0.168394	-0.980729
54858	1.608261	3.317118	9.414902	0.267224	0.115134	0.294017	-0.018072	-0.097533	-0.168853	-0.980637
54859	1.721774	3.313527	9.334003	0.142780	0.105923	0.238977	-0.017848	-0.097563	-0.169071	-0.980601
54860	1.581672	3.330371	9.391291	0.292332	0.104956	0.271604	-0.017564	-0.097527	-0.169412	-0.980551
54861	1.627359	3.368066	9.445480	0.259091	0.094910	0.342761	-0.017345	-0.097560	-0.169523	-0.980532
54862	1.705195	3.367416	9.376526	0.169112	0.077486	0.293341	-0.017035	-0.097430	-0.169432	-0.980566
54863	1.573062	3.320327	9.393198	0.299917	0.114969	0.268388	-0.016725	-0.097271	-0.169215	-0.980625
54864	1.564494	3.222468	9.375730	0.302209	0.196166	0.217589	-0.016465	-0.097096	-0.169033	-0.980678
54865	1.622602	3.131436	9.270845	0.221548	0.249627	0.100732	-0.016183	-0.096885	-0.169157	-0.980682
54866	1.608489	3.373079	9.444368	0.266635	0.083708	0.340286	-0.015923	-0.096694	-0.169503	-0.980645
54867	1.650457	3.421216	9.465648	0.226334	0.051549	0.384044	-0.015653	-0.096451	-0.169518	-0.980671
54868	1.631499	3.349612	9.531976	0.253187	0.137023	0.417532	-0.015461	-0.096195	-0.169263	-0.980743
54869	1.595015	3.292630	9.515399	0.281778	0.178506	0.376377	-0.015223	-0.096021	-0.169133	-0.980787
54870	1.597734	3.239063	9.378699	0.249615	0.181899	0.232653	-0.014980	-0.095832	-0.169146	-0.980807
54871	1.591265	3.342378	9.394213	0.256604	0.090278	0.280917	-0.014764	-0.095670	-0.169242	-0.980809
54872	1.537074	3.366767	9.489757	0.324337	0.096816	0.367619	-0.014615	-0.095384	-0.169256	-0.980837
54873	1.698792	3.203839	9.539837	0.170148	0.275428	0.388007	-0.014420	-0.095198	-0.169152	-0.980876
54874	1.629202	3.252970	9.503577	0.228520	0.215174	0.358623	-0.014090	-0.094978	-0.169516	-0.980839
54875	1.573483	3.408625	9.544090	0.289771	0.086155	0.438792	-0.013671	-0.094860	-0.169894	-0.980791
54876	1.511919	3.248621	9.523759	0.344119	0.231392	0.354390	-0.013349	-0.094727	-0.170070	-0.980778
54877	1.500666	3.090552	9.538761	0.356423	0.386087	0.312300	-0.013079	-0.094724	-0.170097	-0.980777
54878	1.604730	3.070284	9.462681	0.241357	0.387751	0.253868	-0.012908	-0.094829	-0.170313	-0.980731
54879	1.609966	3.211879	9.481349	0.244170	0.265332	0.320136	-0.012723	-0.094991	-0.170523	-0.980682
54880	1.613819	3.380868	9.629893	0.273194	0.159143	0.515408	-0.012586	-0.095089	-0.170567	-0.980666
54881	1.597677	3.413217	9.709826	0.307554	0.153182	0.597177	-0.012512	-0.095257	-0.170389	-0.980682
54882	1.726812	3.292670	9.465980	0.137109	0.187026	0.354641	-0.012540	-0.095466	-0.170118	-0.980708
54883	1.655197	3.357624	9.391856	0.198958	0.094768	0.295315	-0.012542	-0.095776	-0.170171	-0.980669
54884	1.701264	3.369332	9.237505	0.130630	0.034364	0.165286	-0.012484	-0.096091	-0.170108	-0.980650
54885	1.542198	3.324829	9.294758	0.302924	0.085503	0.173619	-0.012414	-0.096325	-0.170092	-0.980630
54886	1.557627	3.297876	9.379317	0.309874	0.139930	0.245055	-0.012378	-0.096685	-0.170096	-0.980595
54887	1.769400	3.115508	9.314362	0.093930	0.301275	0.162026	-0.012301	-0.096924	-0.170069	-0.980577
54888	1.694179	3.244087	9.328696	0.176111	0.182466	0.205027	-0.012093	-0.097076	-0.170270	-0.980530
54889	1.671795	3.388396	9.267200	0.189963	0.026859	0.193326	-0.011948	-0.097094	-0.170294	-0.980525
54890	1.638953	3.460464	9.319399	0.233013	-0.031063	0.259895	-0.011821	-0.097041	-0.169713	-0.980633
54891	1.562271	3.304320	9.343827	0.310245	0.106369	0.215211	-0.011694	-0.096984	-0.169003	-0.980763
54892	1.668461	3.092738	9.371664	0.206472	0.307052	0.189310	-0.011549	-0.096767	-0.168393	-0.980891
54893	1.637901	3.038380	9.401291	0.236861	0.360470	0.192946	-0.011428	-0.096489	-0.168438	-0.980912
54894	1.700902	3.336603	9.412236	0.176202	0.091065	0.315335	-0.011265	-0.096289	-0.168830	-0.980866
54895	1.680725	3.535767	9.444170	0.199765	-0.081249	0.408482	-0.011116	-0.095961	-0.169003	-0.980870
54896	1.544951	3.407941	9.439687	0.324341	0.026713	0.336338	-0.010932	-0.095611	-0.168513	-0.980990
54897	1.592300	3.116985	9.501555	0.279712	0.313505	0.304329	-0.010866	-0.095300	-0.168023	-0.981106
54898	1.606792	2.972745	9.470299	0.251904	0.433730	0.229920	-0.010861	-0.095022	-0.167935	-0.981148
54899	1.537680	3.151351	9.488457	0.320465	0.273285	0.294186	-0.010919	-0.094816	-0.168544	-0.981062
54900	1.589377	3.358824	9.540227	0.277912	0.108811	0.421308	-0.011037	-0.094631	-0.168974	-0.981005
54901	1.648042	3.487403	9.462725	0.202914	-0.031145	0.403919	-0.011208	-0.094438	-0.168891	-0.981036
54902	1.514993	3.265615	9.470061	0.328294	0.169570	0.311786	-0.011332	-0.094267	-0.168631	-0.981096
54903	1.632941	3.191987	9.520088	0.217307	0.258002	0.354592	-0.011508	-0.094118	-0.168491	-0.981132
54904	1.745098	3.200289	9.360639	0.074895	0.204207	0.230294	-0.011766	-0.094089	-0.168706	-0.981095
54905	1.675341	3.483510	9.407560	0.154781	-0.046986	0.356758	-0.012056	-0.094182	-0.168789	-0.981068
54906	1.634007	3.307842	9.424690	0.196556	0.119364	0.305795	-0.012254	-0.094134	-0.168433	-0.981131
54907	1.610771	3.185349	9.505284	0.230536	0.256808	0.334842	-0.012443	-0.093959	-0.168427	-0.981147
54908	1.791661	3.113593	9.407338	0.030990	0.305112	0.252523	-0.012507	-0.093874	-0.168737	-0.981101
54909	1.789570	3.218264	9.391407	0.029561	0.211976	0.272573	-0.012469	-0.093800	-0.169485	-0.980980
54910	1.659815	3.495632	9.402428	0.160863	-0.037958	0.353568	-0.012270	-0.093742	-0.170174	-0.980868
54911	1.697278	3.571072	9.321812	0.108753	-0.125545	0.311634	-0.012100	-0.093621	-0.170329	-0.980855
54912	1.674815	3.381587	9.361683	0.133649	0.061272	0.279866	-0.011926	-0.093401	-0.169862	-0.980959
54913	1.566432	3.124678	9.397554	0.241134	0.303099	0.206361	-0.011752	-0.093253	-0.169783	-0.980989
54914	1.705677	3.190403	9.346765	0.092596	0.232430	0.206665	-0.011576	-0.093056	-0.169951	-0.980981
54915	1.626638	3.521179	9.408949	0.182656	-0.058830	0.362584	-0.011354	-0.092938	-0.170122	-0.980965
54916	1.695756	3.525601	9.445976	0.119977	-0.050596	0.410568	-0.011167	-0.092828	-0.169619	-0.981065
54917	1.639497	3.335878	9.498264	0.179351	0.127894	0.384591	-0.010997	-0.092560	-0.168747	-0.981242
54918	1.628933	3.239166	9.450809	0.174973	0.187036	0.306492	-0.010773	-0.092312	-0.168146	-0.981371
54919	1.618086	3.238863	9.558409	0.201556	0.212129	0.404259	-0.010517	-0.092130	-0.167767	-0.981456
54920	1.538708	3.158888	9.620227	0.288091	0.300058	0.420686	-0.010298	-0.092061	-0.167806	-0.981458
54921	1.620128	3.228518	9.531308	0.192180	0.210040	0.376175	-0.010046	-0.092021	-0.167895	-0.981449
54922	1.606594	3.240424	9.418499	0.185336	0.164446	0.273354	-0.009748	-0.092005	-0.168221	-0.981398
54923	1.630844	3.357962	9.493008	0.177724	0.084367	0.386041	-0.009435	-0.092022	-0.168385	-0.981371
54924	1.497715	3.417855	9.522322	0.315884	0.029993	0.409779	-0.009159	-0.092022	-0.168145	-0.981415
54925	1.493819	3.269423	9.565672	0.327309	0.175226	0.399308	-0.008997	-0.092143	-0.167563	-0.981505
54926	1.605867	3.110276	9.470276	0.200032	0.288594	0.277677	-0.008915	-0.092264	-0.167162	-0.981562
54927	1.589122	3.327802	9.526412	0.232362	0.096782	0.399498	-0.008750	-0.092361	-0.167127	-0.981561
54928	1.549657	3.275453	9.475565	0.263584	0.126921	0.327864	-0.008534	-0.092455	-0.167143	-0.981551
54929	1.616317	3.211941	9.423526	0.190257	0.172653	0.270263	-0.008321	-0.092563	-0.167154	-0.981541
54930	1.580753	3.268214	9.433034	0.230290	0.123266	0.291465	-0.008102	-0.092629	-0.167385	-0.981497
54931	1.600360	3.245969	9.379352	0.202996	0.130094	0.237764	-0.007891	-0.092709	-0.167455	-0.981479
54932	1.683489	3.307746	9.461217	0.138771	0.098790	0.349051	-0.007713	-0.092717	-0.167012	-0.981555
54933	1.641735	3.150298	9.426917	0.170946	0.221743	0.257468	-0.007454	-0.092677	-0.166300	-0.981682
54934	1.573134	3.152619	9.496366	0.250137	0.227363	0.310575	-0.007234	-0.092571	-0.165872	-0.981766
54935	1.641950	3.159209	9.379128	0.159783	0.177627	0.216647	-0.006987	-0.092490	-0.165552	-0.981830
54936	1.593281	3.186172	9.427828	0.216155	0.161011	0.262110	-0.006729	-0.092419	-0.165414	-0.981861
54937	1.642340	3.226710	9.559056	0.192151	0.164032	0.405955	-0.006535	-0.092379	-0.165199	-0.981903
54938	1.641017	3.284900	9.480689	0.179781	0.078270	0.352377	-0.006408	-0.092336	-0.164945	-0.981950
54939	1.636939	3.241375	9.462397	0.179367	0.107996	0.320387	-0.006233	-0.092315	-0.164717	-0.981991
54940	1.594310	3.207910	9.529281	0.232422	0.153382	0.363862	-0.006069	-0.092255	-0.164359	-0.982058
54941	1.561659	3.357087	9.590357	0.277076	0.023703	0.463811	-0.005921	-0.092137	-0.164025	-0.982126
54942	1.577247	3.130907	9.551086	0.247721	0.215509	0.356173	-0.005779	-0.091987	-0.163444	-0.982238
54943	1.540811	2.992970	9.526421	0.274635	0.328364	0.281936	-0.005690	-0.091950	-0.163266	-0.982271
54944	1.727349	3.024477	9.505533	0.088059	0.298124	0.306093	-0.005495	-0.091949	-0.163337	-0.982261
54945	1.604820	3.154727	9.424360	0.196973	0.146126	0.251415	-0.005194	-0.091929	-0.163541	-0.982230
54946	1.528731	3.038855	9.373102	0.260786	0.239374	0.152321	-0.004902	-0.091927	-0.163722	-0.982202
54947	1.561986	2.962583	9.490124	0.248454	0.355371	0.241721	-0.004776	-0.091943	-0.164016	-0.982152
54948	1.737561	3.022895	9.444019	0.069429	0.293908	0.249883	-0.004701	-0.091959	-0.164095	-0.982138
54949	1.611958	3.215844	9.466563	0.202213	0.115732	0.311619	-0.004642	-0.092018	-0.164184	-0.982117
54950	1.687922	3.399229	9.451311	0.129385	-0.063007	0.371143	-0.004505	-0.091991	-0.163767	-0.982190
54951	1.617739	3.159437	9.468579	0.194728	0.155621	0.296267	-0.004385	-0.091851	-0.163151	-0.982306
54952	1.632247	2.988144	9.504890	0.181357	0.319973	0.276956	-0.004296	-0.091793	-0.162817	-0.982368
54953	1.632666	2.974899	9.355838	0.152117	0.282400	0.134395	-0.004211	-0.091672	-0.162989	-0.982351
54954	1.581057	3.110452	9.403829	0.211428	0.173520	0.213870	-0.004112	-0.091439	-0.163390	-0.982306
54955	1.539913	3.140728	9.452845	0.257248	0.166700	0.261925	-0.004031	-0.091216	-0.163733	-0.982270
54956	1.794388	3.108266	9.397330	-0.008360	0.193338	0.244822	-0.003955	-0.090945	-0.163850	-0.982276
54957	1.527809	2.979300	9.454845	0.255152	0.330188	0.208809	-0.003833	-0.090576	-0.164367	-0.982224
54958	1.479631	3.070906	9.485607	0.304230	0.261313	0.258840	-0.003846	-0.090323	-0.164782	-0.982178
54959	1.648275	3.091912	9.513552	0.137985	0.264553	0.321185	-0.003905	-0.089998	-0.165116	-0.982152
54960	1.534530	3.147891	9.486485	0.240071	0.206401	0.294595	-0.003978	-0.089702	-0.165539	-0.982107
54961	1.547521	3.291206	9.461943	0.220633	0.070935	0.321488	-0.004098	-0.089459	-0.165824	-0.982081
54962	1.610415	3.294490	9.545320	0.168792	0.101777	0.410883	-0.004297	-0.089278	-0.165917	-0.982081
54963	1.725958	3.267275	9.520737	0.045076	0.125683	0.399101	-0.004531	-0.089022	-0.165986	-0.982091
54964	1.616234	3.376993	9.508408	0.147925	0.016696	0.405138	-0.004786	-0.088824	-0.166149	-0.982080
54965	1.509616	3.160012	9.531527	0.247865	0.226896	0.336288	-0.005018	-0.088650	-0.166153	-0.982094
54966	1.459289	3.052320	9.635487	0.310024	0.366259	0.388221	-0.005222	-0.088543	-0.166649	-0.982019
54967	1.583992	2.943340	9.542955	0.168464	0.459097	0.286871	-0.005409	-0.088633	-0.167670	-0.981836
54968	1.661893	3.228420	9.511075	0.093282	0.208183	0.365378	-0.005640	-0.088693	-0.169066	-0.981590
54969	1.643053	3.645132	9.442939	0.109173	-0.183405	0.439636	-0.005874	-0.088765	-0.169977	-0.981424
54970	1.579355	3.478104	9.455216	0.171525	-0.016286	0.383537	-0.006096	-0.088833	-0.169853	-0.981438
54971	1.496973	3.033938	9.427532	0.239289	0.385613	0.193216	-0.006196	-0.088825	-0.169653	-0.981473
54972	1.484233	2.915287	9.523533	0.267089	0.533360	0.239363	-0.006257	-0.088910	-0.170268	-0.981358
54973	1.604075	3.114766	9.474724	0.146224	0.351612	0.281874	-0.006228	-0.088987	-0.171340	-0.981165
54974	1.482978	3.380097	9.471306	0.271448	0.121052	0.348096	-0.006202	-0.089008	-0.172710	-0.980923
54975	1.573813	3.756000	9.393442	0.177568	-0.234762	0.421301	-0.006236	-0.089135	-0.173255	-0.980815
54976	1.718412	3.698408	9.241310	0.008454	-0.227320	0.285887	-0.006324	-0.089144	-0.172639	-0.980923
54977	1.588881	3.644019	9.369012	0.156009	-0.155489	0.362441	-0.006410	-0.089072	-0.171549	-0.981120
54978	1.569063	3.216350	9.408060	0.170845	0.235692	0.248807	-0.006487	-0.088875	-0.170385	-0.981340
54979	1.594973	2.800406	9.369846	0.127020	0.601310	0.076828	-0.006481	-0.088713	-0.170206	-0.981386
54980	1.557440	3.139494	9.478024	0.186780	0.330221	0.285381	-0.006246	-0.088575	-0.171653	-0.981148
54981	1.512478	3.728967	9.459551	0.237817	-0.201715	0.462456	-0.005925	-0.088435	-0.173147	-0.980900
54982	1.577228	3.696424	9.475750	0.174277	-0.142667	0.477614	-0.005634	-0.088216	-0.173640	-0.980834
54983	1.569048	3.499323	9.429210	0.166527	0.029485	0.365160	-0.005373	-0.087963	-0.173539	-0.980876
54984	1.488387	3.292391	9.363179	0.224997	0.193639	0.219068	-0.005260	-0.087644	-0.173286	-0.980950
54985	1.440805	3.442351	9.435601	0.282579	0.075047	0.329836	-0.005239	-0.087448	-0.173462	-0.980936
54986	1.492716	3.576685	9.615923	0.261376	0.018058	0.551588	-0.005201	-0.087231	-0.173758	-0.980904
54987	1.495984	3.519860	9.619301	0.253562	0.079028	0.535636	-0.005136	-0.087030	-0.174078	-0.980865
54988	1.480119	3.490791	9.565276	0.255825	0.097577	0.473026	-0.004953	-0.086828	-0.174790	-0.980757
54989	1.529886	3.666724	9.607362	0.216303	-0.036443	0.581479	-0.004788	-0.086796	-0.175463	-0.980641
54990	1.556417	3.522973	9.470310	0.162530	0.058958	0.409379	-0.004550	-0.086639	-0.175524	-0.980645
54991	1.379832	3.305838	9.489273	0.333031	0.261725	0.321384	-0.004249	-0.086528	-0.175468	-0.980666
54992	1.500921	3.161765	9.486796	0.209570	0.399331	0.289066	-0.003896	-0.086502	-0.175455	-0.980672
54993	1.580007	3.287264	9.377869	0.116757	0.247644	0.245742	-0.003546	-0.086491	-0.175598	-0.980649
54994	1.453489	3.451493	9.450102	0.258885	0.112297	0.348524	-0.003223	-0.086519	-0.175305	-0.980700
54995	1.323534	3.484006	9.486985	0.395721	0.078043	0.372116	-0.003050	-0.086602	-0.174472	-0.980842
54996	1.606545	3.246110	9.423693	0.101886	0.267477	0.279004	-0.002906	-0.086674	-0.173201	-0.981061
54997	1.667253	2.973680	9.314717	0.019147	0.464894	0.095387	-0.002714	-0.086837	-0.172244	-0.981216
54998	1.740036	3.224713	9.274081	-0.050029	0.203459	0.156825	-0.002495	-0.086947	-0.171803	-0.981284
54999	1.664794	3.366292	9.406433	0.052627	0.098873	0.315090	-0.002314	-0.087028	-0.170880	-0.981438
55000	1.746326	3.269115	9.460580	-0.018402	0.189204	0.346208	-0.002184	-0.087187	-0.169665	-0.981635
55001	1.716043	3.003815	9.291863	-0.021814	0.357526	0.095799	-0.002120	-0.087287	-0.168601	-0.981810
55002	1.754902	3.000211	9.219580	-0.070572	0.321730	0.034805	-0.002107	-0.087402	-0.168044	-0.981895
55003	1.622561	3.077861	9.350836	0.084666	0.281027	0.160172	-0.002131	-0.087341	-0.167890	-0.981927
55004	1.571215	3.199568	9.446856	0.154395	0.194351	0.281243	-0.002252	-0.087379	-0.167797	-0.981939
55005	1.675466	3.205463	9.440900	0.050280	0.189127	0.295451	-0.002429	-0.087329	-0.167752	-0.981951
55006	1.570607	3.263150	9.474277	0.157794	0.143189	0.327898	-0.002712	-0.087156	-0.167843	-0.981950
55007	1.634737	3.486195	9.506872	0.101272	-0.053757	0.443696	-0.002984	-0.086979	-0.167722	-0.981985
55008	1.565472	3.514762	9.492201	0.162485	-0.093091	0.427970	-0.003144	-0.086728	-0.167321	-0.982075
55009	1.527703	3.383788	9.421649	0.179203	-0.002704	0.312491	-0.003296	-0.086518	-0.166905	-0.982164
55010	1.529577	3.133172	9.406706	0.163331	0.221497	0.215610	-0.003403	-0.086216	-0.166609	-0.982241
55011	1.505618	3.165891	9.487559	0.197046	0.214817	0.297632	-0.003518	-0.086117	-0.166715	-0.982231
55012	1.553006	3.136422	9.440423	0.139730	0.230952	0.251988	-0.003544	-0.086036	-0.166828	-0.982219
55013	1.513356	3.247035	9.510725	0.190979	0.152888	0.347407	-0.003730	-0.085921	-0.167119	-0.982179
55014	1.560157	3.592248	9.597323	0.163288	-0.143812	0.550690	-0.003966	-0.085730	-0.166632	-0.982277
55015	1.625323	3.285633	9.529414	0.076338	0.106310	0.396603	-0.004224	-0.085583	-0.165273	-0.982518
55016	1.531036	2.963234	9.509135	0.154148	0.375396	0.256262	-0.004387	-0.085340	-0.164162	-0.982725
55017	1.481917	2.952052	9.431234	0.185065	0.342954	0.172651	-0.004510	-0.085230	-0.163704	-0.982811
55018	1.653413	3.107434	9.405059	0.012448	0.190335	0.227665	-0.004620	-0.085146	-0.163794	-0.982802
55019	1.563445	3.311522	9.442862	0.108587	0.010472	0.314814	-0.004688	-0.084961	-0.164074	-0.982771
55020	1.520207	3.290152	9.445235	0.146834	0.032341	0.302943	-0.004774	-0.084732	-0.164031	-0.982798
55021	1.602557	3.094988	9.420953	0.053540	0.211956	0.229907	-0.004849	-0.084557	-0.164082	-0.982804
55022	1.605831	3.201142	9.467362	0.056939	0.130993	0.308407	-0.004875	-0.084425	-0.164420	-0.982759
55023	1.611778	3.460728	9.406899	0.043191	-0.128602	0.338460	-0.004859	-0.084274	-0.164579	-0.982745
55024	1.594494	3.476395	9.431988	0.060995	-0.137758	0.364121	-0.004904	-0.084065	-0.164231	-0.982821
55025	1.551647	3.231750	9.455113	0.097129	0.089954	0.298368	-0.004892	-0.083764	-0.163674	-0.982940
55026	1.488056	2.950466	9.394083	0.138899	0.325629	0.139349	-0.004832	-0.083509	-0.163470	-0.982996
55027	1.673449	2.913613	9.427369	-0.043955	0.379925	0.188241	-0.004656	-0.083244	-0.163882	-0.982950
55028	1.701437	3.141041	9.379752	-0.079713	0.160893	0.222676	-0.004283	-0.082948	-0.164545	-0.982866
55029	1.647823	3.063867	9.320745	-0.043297	0.221949	0.133555	-0.003843	-0.082573	-0.164894	-0.982841
55030	1.561221	2.847694	9.330313	0.033790	0.430614	0.057213	-0.003307	-0.082258	-0.165077	-0.982839
55031	1.552878	2.777900	9.336301	0.035707	0.502385	0.038252	-0.002844	-0.081861	-0.165401	-0.982819
55032	1.476502	3.192098	9.404830	0.124704	0.138229	0.226522	-0.002533	-0.081474	-0.165796	-0.982785
55033	1.424234	3.514131	9.534611	0.196585	-0.122148	0.445616	-0.002464	-0.081018	-0.165654	-0.982847
55034	1.434599	3.408073	9.432231	0.157427	-0.065918	0.317014	-0.002462	-0.080463	-0.164800	-0.983036
55035	1.399347	3.287025	9.483351	0.185171	0.049198	0.319436	-0.002484	-0.079806	-0.164214	-0.983188
55036	1.474093	3.345466	9.493941	0.101454	-0.006021	0.360300	-0.002450	-0.079189	-0.164246	-0.983233
55037	1.496023	3.471948	9.554243	0.079346	-0.098010	0.461559	-0.002334	-0.078520	-0.164914	-0.983175
55038	1.310703	3.701151	9.588230	0.259933	-0.294867	0.540866	-0.002141	-0.077851	-0.165608	-0.983112
55039	1.276036	3.469457	9.547958	0.270961	-0.080258	0.422010	-0.001984	-0.077268	-0.165930	-0.983104
55040	1.452309	3.280478	9.567932	0.085139	0.117282	0.404701	-0.001705	-0.076741	-0.166370	-0.983071
55041	1.462772	3.247434	9.519685	0.057338	0.145100	0.350263	-0.001370	-0.076220	-0.167183	-0.982974
55042	1.410705	3.458656	9.527649	0.105525	-0.037725	0.420391	-0.001053	-0.075677	-0.167882	-0.982897
55043	1.295330	3.464503	9.543809	0.212499	-0.032932	0.420528	-0.000712	-0.075142	-0.168007	-0.982918
55044	1.331192	3.149275	9.539346	0.159815	0.262008	0.316228	-0.000352	-0.074693	-0.167792	-0.982989
55045	1.324329	2.966712	9.411163	0.135304	0.390177	0.134909	0.000057	-0.074238	-0.167993	-0.982989
55046	1.365542	3.271229	9.448536	0.099684	0.122325	0.277683	0.000512	-0.073744	-0.168390	-0.982958
55047	1.283225	3.661988	9.581670	0.202174	-0.198255	0.520997	0.000874	-0.073250	-0.168497	-0.982976
55048	1.396082	3.652190	9.525643	0.072834	-0.216433	0.481642	0.001246	-0.072689	-0.167377	-0.983209
55049	1.252594	3.312450	9.428914	0.181832	0.041545	0.257609	0.001735	-0.072140	-0.165963	-0.983488
55050	1.281357	3.086314	9.581671	0.159570	0.280689	0.329863	0.002313	-0.071664	-0.164966	-0.983690
55051	1.409738	3.004244	9.549326	0.016767	0.334531	0.291286	0.002925	-0.071109	-0.164551	-0.983798
55052	1.274833	3.259363	9.610717	0.156842	0.105729	0.413687	0.003534	-0.070542	-0.164491	-0.983846
55053	1.274632	3.437660	9.574711	0.149346	-0.081087	0.438576	0.004083	-0.070105	-0.163989	-0.983959
55054	1.380477	3.227856	9.392935	0.005604	0.040183	0.214790	0.004708	-0.069599	-0.162735	-0.984201
55055	1.247857	3.063732	9.426157	0.128108	0.179477	0.174673	0.005389	-0.069117	-0.161619	-0.984415
55056	1.217410	3.025198	9.559142	0.166535	0.235820	0.283238	0.006018	-0.068603	-0.160573	-0.984619
55057	1.185819	3.045550	9.658781	0.204027	0.229523	0.379431	0.006466	-0.068210	-0.159854	-0.984760
55058	1.361766	3.157989	9.622082	0.022281	0.096533	0.405039	0.006891	-0.067831	-0.159057	-0.984912
55059	1.262917	3.277346	9.591309	0.112418	-0.044870	0.400759	0.007427	-0.067266	-0.158212	-0.985083
55060	1.179369	3.252772	9.620301	0.189020	-0.030970	0.409099	0.008060	-0.066752	-0.157385	-0.985246
55061	1.222503	3.114172	9.638548	0.134780	0.089933	0.388681	0.008696	-0.066218	-0.156687	-0.985388
55062	1.162919	3.037832	9.685032	0.188461	0.165076	0.400924	0.009407	-0.065733	-0.156328	-0.985470
55063	1.191690	2.945285	9.717609	0.153546	0.256517	0.406774	0.010172	-0.065345	-0.156123	-0.985521
55064	1.241840	2.984470	9.668935	0.093908	0.200633	0.379881	0.010950	-0.064984	-0.156092	-0.985542
55065	1.236997	3.013291	9.738154	0.103570	0.192335	0.453470	0.011739	-0.064643	-0.155962	-0.985576
55066	1.135012	2.956517	9.724989	0.196793	0.236738	0.410320	0.012430	-0.064408	-0.155623	-0.985636
55067	1.398817	2.861647	9.591502	-0.086480	0.271279	0.289863	0.013106	-0.064345	-0.154825	-0.985757
55068	1.370764	2.819994	9.506933	-0.070684	0.269030	0.194098	0.013836	-0.064240	-0.154186	-0.985854
55069	1.214832	3.017149	9.550830	0.099259	0.081919	0.275959	0.014488	-0.064207	-0.153478	-0.985957
55070	1.117549	2.830303	9.681903	0.202594	0.285043	0.330116	0.015020	-0.064083	-0.152682	-0.986081
55071	1.065496	2.700186	9.756911	0.257253	0.422785	0.354843	0.015405	-0.064137	-0.152572	-0.986089
55072	1.329757	2.803371	9.627315	-0.011804	0.283447	0.298289	0.015615	-0.064346	-0.152864	-0.986027
55073	1.363059	3.246910	9.489601	-0.034281	-0.174234	0.307656	0.015769	-0.064541	-0.153276	-0.985947
55074	1.223572	3.532153	9.556183	0.130403	-0.422547	0.439060	0.016018	-0.064633	-0.152956	-0.985987
55075	1.097322	3.463779	9.619084	0.262218	-0.353834	0.460318	0.016199	-0.064708	-0.151630	-0.986184
55076	1.230250	3.059719	9.538004	0.100767	-0.024515	0.278798	0.016347	-0.064687	-0.150165	-0.986407
55077	1.338103	2.919096	9.424553	-0.026551	0.048369	0.143756	0.016517	-0.064718	-0.149151	-0.986556
55078	1.308510	2.809040	9.389365	-0.006784	0.130048	0.073977	0.016788	-0.064665	-0.148892	-0.986594
55079	1.222013	2.967014	9.501732	0.101601	0.014155	0.215716	0.017098	-0.064696	-0.149153	-0.986547
55080	1.312284	2.762991	9.478817	-0.001537	0.204069	0.145351	0.017460	-0.064581	-0.149292	-0.986527
55081	1.037633	2.880592	9.590832	0.288209	0.137293	0.249947	0.017804	-0.064363	-0.149915	-0.986441
55082	1.336322	3.016888	9.535888	-0.010620	-0.011430	0.277916	0.018141	-0.064119	-0.149592	-0.986500
55083	1.183693	2.686447	9.453677	0.105924	0.268592	0.082096	0.018406	-0.063608	-0.148712	-0.986661
55084	1.244279	2.638384	9.417236	0.029013	0.284230	0.041853	0.018770	-0.063022	-0.147833	-0.986824
55085	1.334826	2.303192	9.265329	-0.110580	0.540816	-0.188341	0.019099	-0.062166	-0.147160	-0.986972
55086	1.176689	2.313824	9.304583	0.034751	0.537500	-0.167818	0.019245	-0.061240	-0.147095	-0.987037
55087	1.255726	2.742426	9.418769	-0.022320	0.157054	0.075982	0.019216	-0.060509	-0.146836	-0.987121
55088	1.305475	2.871947	9.564935	-0.065016	0.066108	0.258643	0.019022	-0.059535	-0.146169	-0.987283
55089	1.165387	2.853561	9.600581	0.055452	0.082081	0.270081	0.018794	-0.058405	-0.145397	-0.987469
55090	0.918325	3.000794	9.697829	0.293831	-0.039119	0.375936	0.018523	-0.057059	-0.144827	-0.987637
55091	0.761674	3.079102	9.766198	0.433854	-0.103694	0.445996	0.018208	-0.055817	-0.144190	-0.987807
55092	0.921561	3.081673	9.798025	0.253934	-0.111290	0.496064	0.017898	-0.054733	-0.143785	-0.987932
55093	1.054975	2.954230	9.798528	0.092392	0.004612	0.475315	0.017740	-0.053683	-0.143889	-0.987978
55094	0.888771	2.781219	9.653359	0.212074	0.139296	0.269375	0.017626	-0.052589	-0.144624	-0.987931
55095	0.859765	2.994975	9.549913	0.220091	-0.079595	0.229976	0.017588	-0.051563	-0.145422	-0.987869
55096	1.128267	2.972982	9.330130	-0.089052	-0.120152	0.043303	0.017520	-0.050574	-0.145497	-0.987910
55097	1.392663	2.577803	8.951134	-0.428868	0.131885	-0.404926	0.017469	-0.049292	-0.144548	-0.988115
55098	1.436096	2.289318	8.430274	-0.561037	0.224447	-0.980502	0.017668	-0.047503	-0.142284	-0.988528
55099	1.238076	1.873393	7.934119	-0.470816	0.430291	-1.591663	0.017716	-0.044082	-0.138406	-0.989235
55100	1.057910	1.291707	7.409911	-0.436263	0.766703	-2.268493	0.017323	-0.037819	-0.132495	-0.990310
55101	0.102539	0.921031	7.253943	0.381306	1.014413	-2.580664	0.016289	-0.029448	-0.126511	-0.991394
55102	0.619901	1.157683	6.998786	-0.256307	0.617525	-2.723348	0.015300	-0.021387	-0.120327	-0.992386
55103	1.377282	0.947677	6.529295	-1.163900	0.603946	-3.201697	0.014326	-0.010932	-0.114790	-0.993226
55104	0.600839	1.480273	6.421417	-0.532108	0.020794	-3.217206	0.012911	0.002653	-0.111600	-0.993666
55105	-0.663354	1.776481	6.554048	0.534925	-0.246084	-3.015603	0.011197	0.019261	-0.108934	-0.993799
55106	-2.999465	1.587945	7.149656	2.592686	0.105502	-2.336325	0.008766	0.037145	-0.108412	-0.993373
55107	-2.571542	2.369234	7.657264	1.869664	-0.553460	-1.624164	0.006093	0.052666	-0.109903	-0.992527
55108	-0.705795	2.408829	7.676332	-0.254526	-0.614844	-1.764236	0.004635	0.069653	-0.111012	-0.991364
55109	-1.871704	2.805268	7.792506	0.581323	-0.909122	-1.391144	0.004303	0.089089	-0.114211	-0.989445
55110	-2.679614	3.993185	7.997832	0.986296	-1.921607	-0.734439	0.004592	0.108937	-0.118617	-0.986935
55111	-3.886261	4.187972	8.667006	1.628260	-1.845908	0.271215	0.005439	0.130567	-0.119680	-0.984175
55112	-4.611121	3.990394	8.883779	1.850282	-1.566264	0.685629	0.006166	0.151627	-0.117407	-0.981421
55113	-4.024854	2.816352	8.055154	1.149114	-0.715977	-0.476274	0.007926	0.174204	-0.110254	-0.978486
55114	-3.947540	1.232567	7.305244	0.966634	0.556294	-1.493403	0.010354	0.198195	-0.102855	-0.974696
55115	-5.475012	0.296337	6.691699	2.205550	1.379027	-1.562972	0.012115	0.224586	-0.099077	-0.969329
55116	-8.413350	1.516155	7.452302	3.979083	0.534663	0.792571	0.010425	0.249985	-0.100666	-0.962946
55117	-7.267571	3.869783	8.519190	1.799384	-1.637055	1.781274	0.008774	0.275585	-0.099304	-0.956093
55118	-6.403759	2.586975	8.255911	0.666448	-0.581238	0.913417	0.010682	0.302141	-0.090356	-0.948911
55119	-6.970534	0.323102	7.005573	1.370044	1.343808	-0.114197	0.013867	0.328875	-0.081875	-0.940716
55120	-7.996661	0.253765	6.392340	1.998164	1.357825	0.137653	0.015478	0.355149	-0.080971	-0.931168
55121	-10.200870	2.029209	7.508021	2.214159	0.002859	2.820634	0.016029	0.380976	-0.082774	-0.920733
55122	-9.971590	2.911972	7.720361	1.169027	-0.828672	3.048956	0.017438	0.406474	-0.080737	-0.909921
55123	-9.647270	2.437340	8.164790	-0.052581	-0.408544	3.050587	0.021368	0.431639	-0.072380	-0.898884
55124	-8.298877	1.788269	8.113481	-1.478512	-0.090237	1.835055	0.026751	0.455491	-0.060735	-0.887763
55125	-8.052546	1.650805	8.096087	-2.176693	-0.203569	1.514526	0.034044	0.477942	-0.048544	-0.876388
55126	-9.344415	2.357000	8.011425	-1.941061	-0.987681	2.527706	0.042802	0.498634	-0.037148	-0.864958
55127	-11.097779	2.705531	9.064195	-2.502955	-1.339242	4.489465	0.054946	0.517030	-0.024015	-0.853864
55128	-9.474906	2.083132	8.113790	-2.882848	-1.179607	2.444012	0.070117	0.531405	-0.007429	-0.844178
55129	-9.827675	0.569032	8.200764	-3.340259	0.014993	2.555626	0.088189	0.545427	0.013023	-0.833404
55130	-10.687547	-1.278151	7.737488	-3.266976	1.613893	2.931858	0.104997	0.555621	0.032868	-0.824124
55131	-9.803343	-2.228745	6.353883	-2.876847	2.321992	1.490478	0.118222	0.563928	0.048951	-0.815851
55132	-10.590590	-2.319799	5.941315	-2.575105	2.369505	2.044151	0.127669	0.571916	0.059945	-0.808096
55133	-11.030363	-0.493972	6.082605	-2.336465	0.504742	2.564407	0.134514	0.578453	0.065186	-0.801903
55134	-11.117721	0.463919	6.070175	-2.219086	-0.452898	2.658640	0.141397	0.583502	0.068800	-0.796742
55135	-10.673224	0.171423	5.500210	-2.043897	-0.108379	2.019865	0.148251	0.586221	0.072051	-0.793205
55136	-10.263676	-0.360107	5.144685	-2.075541	0.426069	1.476724	0.154195	0.587410	0.074687	-0.790945
55137	-9.890847	-0.500238	4.940986	-2.071332	0.560400	1.044934	0.159052	0.587245	0.076738	-0.789909
55138	-9.520939	-0.162726	4.667960	-1.808181	0.271569	0.633428	0.162784	0.586180	0.078472	-0.789770
55139	-9.319610	0.302354	4.296318	-1.341506	-0.076991	0.365684	0.165952	0.584516	0.080349	-0.790155
55140	-9.486139	0.849399	3.938432	-0.742393	-0.441925	0.457312	0.168923	0.582333	0.082427	-0.790923
55141	-9.593176	1.343330	3.673103	-0.239565	-0.791384	0.514033	0.172232	0.579487	0.084989	-0.792028
55142	-9.565618	1.628992	3.371241	0.201478	-0.950356	0.413535	0.176356	0.576215	0.088040	-0.793173
55143	-9.511066	1.582886	3.063934	0.518526	-0.794751	0.259681	0.181145	0.572969	0.091313	-0.794075
55144	-9.498999	1.330873	2.832788	0.691218	-0.457928	0.154206	0.186277	0.569772	0.094381	-0.794829
55145	-9.383348	0.990552	2.641156	0.750135	-0.066281	-0.043518	0.191159	0.566835	0.096861	-0.795471
55146	-9.040329	0.642964	2.587829	0.604434	0.239376	-0.409767	0.195499	0.564202	0.098569	-0.796078
55147	-8.970927	0.427093	2.631799	0.491852	0.439540	-0.477216	0.198921	0.562190	0.099558	-0.796531
55148	-8.786773	0.165922	2.731091	0.268360	0.632458	-0.635453	0.201684	0.560508	0.099906	-0.796978
55149	-8.581844	-0.101829	3.063881	-0.170772	0.733935	-0.730954	0.203413	0.559229	0.099532	-0.797483
55150	-8.523610	-0.249799	3.378968	-0.503464	0.760635	-0.685824	0.204128	0.558204	0.098691	-0.798123
55151	-8.652691	-0.257107	3.678219	-0.707588	0.704112	-0.460257	0.203462	0.557532	0.097178	-0.798948
55152	-9.031399	0.142993	4.101592	-0.769071	0.287917	0.073426	0.201723	0.556982	0.095101	-0.800022
55153	-9.496152	0.774259	4.207663	-0.433831	-0.203745	0.591689	0.199707	0.556236	0.093469	-0.801238
55154	-9.417019	1.275593	4.416119	-0.401109	-0.741219	0.632365	0.198171	0.555221	0.092424	-0.802444
55155	-9.485324	1.372572	4.403832	-0.304474	-0.808399	0.699344	0.197949	0.554381	0.092825	-0.803033
55156	-9.639535	1.261632	4.681230	-0.508464	-0.781793	0.937028	0.198632	0.552834	0.094117	-0.803780
55157	-9.408808	1.096910	4.576396	-0.510816	-0.653678	0.674628	0.200745	0.550654	0.096718	-0.804442
55158	-9.248703	0.797016	4.173481	-0.290836	-0.277976	0.357345	0.203658	0.548219	0.099758	-0.805002
55159	-9.167136	0.681388	3.898174	-0.080545	-0.096741	0.171318	0.206910	0.545778	0.103234	-0.805393
55160	-9.210134	0.527616	3.757782	0.034608	0.094215	0.148014	0.210449	0.543250	0.107018	-0.805691
55161	-9.087760	0.185444	3.724092	-0.081239	0.375452	0.002753	0.214145	0.540626	0.110711	-0.805983
55162	-9.025786	-0.181677	3.820918	-0.306825	0.643691	-0.035743	0.217134	0.538337	0.113170	-0.806374
55163	-8.985781	-0.228702	3.960672	-0.419788	0.627965	-0.019180	0.219106	0.536347	0.113867	-0.807068
55164	-8.944776	-0.051240	3.991895	-0.342627	0.475069	-0.034977	0.220110	0.534675	0.112995	-0.808026
55165	-8.834256	0.136991	4.075051	-0.329466	0.287153	-0.092725	0.220418	0.533179	0.111093	-0.809194
55166	-8.675101	0.342614	4.074425	-0.262527	0.110382	-0.226530	0.220334	0.532116	0.108867	-0.810218
55167	-8.748467	0.715605	4.149647	-0.109354	-0.191515	-0.106063	0.220150	0.531303	0.106664	-0.811094
55168	-8.820549	1.026688	4.112222	0.101564	-0.398526	-0.035300	0.220244	0.530615	0.105009	-0.811734
55169	-8.980619	1.166273	4.075082	0.260568	-0.440439	0.104776	0.220821	0.529978	0.104183	-0.812101
55170	-8.958467	0.995172	3.996830	0.246088	-0.245991	0.041148	0.221785	0.529445	0.104218	-0.812181
55171	-9.007882	0.775935	3.993609	0.170322	-0.031566	0.069767	0.222767	0.529048	0.104825	-0.812093
55172	-8.978063	0.544246	4.030217	0.026650	0.147365	0.042364	0.223641	0.528833	0.105954	-0.811846
55173	-8.933114	0.309769	4.072410	-0.130413	0.315063	0.003866	0.224494	0.528672	0.107243	-0.811546
55174	-8.528305	-0.024079	4.110909	-0.455116	0.478024	-0.368298	0.225012	0.528581	0.108435	-0.811304
55175	-8.590187	-0.001729	4.251596	-0.537936	0.403667	-0.251565	0.224756	0.528808	0.108893	-0.811165
55176	-8.643299	0.119981	4.518368	-0.676564	0.192998	-0.084292	0.224095	0.528674	0.108867	-0.811439
55177	-8.442352	0.075568	4.746292	-0.944298	0.084806	-0.173839	0.223031	0.528572	0.108613	-0.811833
55178	-8.599109	0.188979	4.934750	-0.982601	-0.057691	0.054597	0.221558	0.528472	0.108290	-0.812344
55179	-8.660403	0.399431	4.724391	-0.682747	-0.148512	0.035855	0.219872	0.528358	0.107832	-0.812937
55180	-8.710138	0.762877	4.623510	-0.406395	-0.426157	0.060435	0.218031	0.528427	0.107612	-0.813417
55181	-9.203460	1.206219	4.682964	-0.072789	-0.742765	0.557064	0.216612	0.528510	0.108233	-0.813660
55182	-9.268148	1.337392	4.714035	-0.002571	-0.883607	0.633768	0.216359	0.528051	0.109956	-0.813794
55183	-9.234701	0.878161	4.424879	0.026043	-0.399178	0.457186	0.216908	0.527573	0.112278	-0.813641
55184	-9.265972	0.531651	4.265655	0.018322	-0.048620	0.401711	0.217319	0.527241	0.114062	-0.813498
55185	-9.120663	0.374601	4.186711	-0.033921	0.069211	0.229693	0.217634	0.527072	0.115166	-0.813368
55186	-8.987066	0.328766	4.040370	0.020323	0.129484	0.045449	0.217644	0.526995	0.115476	-0.813371
55187	-8.859258	0.416389	3.928313	0.108030	0.067405	-0.113448	0.217393	0.527106	0.115190	-0.813407
55188	-8.795416	0.437068	3.937954	0.084139	0.033565	-0.166463	0.216988	0.527347	0.114553	-0.813449
55189	-8.772798	0.251479	4.052760	-0.108662	0.149038	-0.147488	0.216510	0.527578	0.113967	-0.813509
55190	-8.580583	-0.036344	4.104385	-0.355971	0.341026	-0.313704	0.215745	0.527819	0.113235	-0.813658
55191	-8.703735	-0.022477	4.174106	-0.370019	0.332510	-0.172606	0.214299	0.528524	0.111983	-0.813756
55192	-8.803701	0.255375	4.258666	-0.288914	0.079396	-0.034303	0.212462	0.529456	0.110370	-0.813852
55193	-8.944599	0.644409	4.285280	-0.103001	-0.241096	0.122903	0.210520	0.530633	0.108707	-0.813814
55194	-8.910297	0.878241	4.422632	-0.146261	-0.512495	0.159287	0.208874	0.531883	0.107578	-0.813572
55195	-8.906159	1.006548	4.570791	-0.239779	-0.692322	0.221656	0.207596	0.533254	0.106878	-0.813093
55196	-8.909603	1.155229	4.660861	-0.273456	-0.869731	0.267389	0.206962	0.534385	0.106856	-0.812515
55197	-8.833243	1.047585	4.629820	-0.344211	-0.792386	0.177931	0.206972	0.535345	0.107487	-0.811797
55198	-8.811060	0.976048	4.500126	-0.294042	-0.698825	0.100119	0.207360	0.536087	0.108458	-0.811079
55199	-8.781533	0.925994	4.392131	-0.252413	-0.636683	0.025731	0.208052	0.536850	0.109848	-0.810210
55200	-8.884935	0.873592	4.489022	-0.334988	-0.627893	0.154761	0.209025	0.537456	0.111601	-0.809317
55201	-8.778019	0.542441	4.349231	-0.415819	-0.324456	-0.015471	0.210220	0.537860	0.113590	-0.808462
55202	-8.960667	0.345346	4.245001	-0.370963	-0.092235	0.101275	0.211031	0.538528	0.115323	-0.807560
55203	-8.945722	0.406855	4.221875	-0.341313	-0.164330	0.080348	0.211531	0.539078	0.116760	-0.806856
55204	-8.935002	0.513092	4.230605	-0.315336	-0.288076	0.077361	0.211942	0.539795	0.118259	-0.806050
55205	-9.144286	0.591268	4.403486	-0.366476	-0.409945	0.338954	0.212199	0.540498	0.119690	-0.805300
55206	-9.142806	0.551896	4.487563	-0.464918	-0.435087	0.367107	0.212496	0.540936	0.121019	-0.804729
55207	-9.135628	0.510812	4.288460	-0.331035	-0.337742	0.281263	0.212798	0.541395	0.122175	-0.804165
55208	-9.067263	0.664866	4.229193	-0.239927	-0.480804	0.200035	0.213273	0.541764	0.123303	-0.803619
55209	-9.079048	0.820387	4.234971	-0.174756	-0.633409	0.217534	0.214065	0.542112	0.124536	-0.802983
55210	-9.081553	0.793573	4.262988	-0.214306	-0.635405	0.228615	0.215227	0.542185	0.125994	-0.802396
55211	-9.098114	0.699739	4.243007	-0.237732	-0.553825	0.232469	0.216610	0.542077	0.127572	-0.801847
55212	-9.086533	0.628655	4.291119	-0.312528	-0.526450	0.237146	0.217974	0.541868	0.129066	-0.801379
55213	-9.052647	0.517476	4.319687	-0.397048	-0.458619	0.212775	0.219304	0.541629	0.130406	-0.800960
55214	-9.065895	0.552699	4.181100	-0.258056	-0.432606	0.173492	0.220839	0.541226	0.131801	-0.800583
55215	-9.022221	0.539495	4.177295	-0.269427	-0.434337	0.131159	0.222543	0.540832	0.133251	-0.800137
55216	-9.093531	0.511377	4.107085	-0.196469	-0.368306	0.169682	0.224414	0.540212	0.134855	-0.799764
55217	-9.064747	0.455899	4.029336	-0.161329	-0.295580	0.112011	0.226359	0.539610	0.136480	-0.799347
55218	-8.996526	0.261678	4.052165	-0.290829	-0.157901	0.052224	0.228242	0.539007	0.138098	-0.798941
55219	-8.944563	0.152139	4.092839	-0.388723	-0.101294	0.016774	0.229763	0.538587	0.139683	-0.798512
55220	-9.055283	0.272768	4.133150	-0.317946	-0.210002	0.137704	0.231056	0.538164	0.141225	-0.798153
55221	-9.133072	0.272266	4.099125	-0.259074	-0.185675	0.196726	0.232247	0.537686	0.142496	-0.797904
55222	-9.246699	0.350159	4.050420	-0.136172	-0.209667	0.285206	0.233588	0.537168	0.143688	-0.797647
55223	-9.308195	0.495385	3.881894	0.101181	-0.240490	0.281317	0.235260	0.536528	0.144854	-0.797375
55224	-9.206395	0.547926	3.794550	0.174841	-0.260614	0.155163	0.237326	0.535797	0.145952	-0.797054
55225	-9.107279	0.314199	3.763643	0.050580	-0.061455	0.046315	0.239657	0.535149	0.147111	-0.796579
55226	-9.068871	0.088966	3.629011	0.025364	0.194516	-0.046236	0.241874	0.534671	0.148052	-0.796056
55227	-9.109731	0.048833	3.701175	-0.043224	0.213021	0.017929	0.243702	0.534431	0.148467	-0.795582
55228	-9.099113	-0.004886	3.735886	-0.108501	0.251186	0.019700	0.245358	0.534248	0.148712	-0.795150
55229	-9.074471	-0.037578	3.745168	-0.147303	0.279773	-0.000770	0.246845	0.534116	0.148997	-0.794725
55230	-8.999436	-0.065950	3.788504	-0.226314	0.274709	-0.054600	0.248350	0.534022	0.149247	-0.794272
55231	-8.981734	-0.130961	3.789857	-0.276534	0.333915	-0.072886	0.249884	0.533984	0.149541	-0.793761
55232	-9.106346	-0.204801	3.756763	-0.263991	0.450212	0.026436	0.251190	0.534114	0.149709	-0.793230
55233	-9.180253	0.017901	3.754721	-0.128728	0.291715	0.100617	0.252212	0.534359	0.149711	-0.792740
55234	-9.195744	0.115771	3.772805	-0.096673	0.210381	0.124895	0.253084	0.534711	0.149895	-0.792190
55235	-9.109800	0.023217	3.771576	-0.186416	0.266450	0.041653	0.253789	0.535141	0.150362	-0.791585
55236	-9.081475	0.029818	3.887334	-0.296192	0.188728	0.059601	0.254118	0.535870	0.150819	-0.790899
55237	-9.077589	0.115038	4.060957	-0.399811	0.018859	0.124465	0.254140	0.536525	0.151213	-0.790372
55238	-9.054561	0.157219	4.103546	-0.429826	-0.055575	0.120137	0.253743	0.537274	0.151502	-0.789936
55239	-9.172336	0.351623	4.144541	-0.332101	-0.225136	0.250691	0.253096	0.538095	0.151854	-0.789517
55240	-9.094268	0.502386	4.239055	-0.353690	-0.434552	0.217952	0.252750	0.538527	0.152571	-0.789195
55241	-9.052933	0.384068	4.260280	-0.451586	-0.377925	0.182625	0.252905	0.538729	0.153954	-0.788738
55242	-8.994919	0.180224	4.271961	-0.590582	-0.251111	0.126066	0.253198	0.538703	0.155364	-0.788386
55243	-8.883428	0.109472	4.073146	-0.505145	-0.136798	-0.053391	0.253321	0.538651	0.156647	-0.788128
55244	-8.899470	0.107161	3.955682	-0.406960	-0.091576	-0.082043	0.253179	0.538686	0.157901	-0.787900
55245	-9.018821	0.196644	3.967598	-0.327406	-0.168881	0.035351	0.252903	0.538816	0.159336	-0.787610
55246	-9.167152	0.290693	3.874343	-0.156607	-0.190305	0.140750	0.252775	0.538954	0.160699	-0.787279
55247	-9.252507	0.246401	3.961282	-0.221776	-0.201964	0.250679	0.252532	0.539044	0.161668	-0.787098
55248	-9.324532	0.024894	4.004151	-0.356832	-0.041210	0.328896	0.252088	0.539086	0.162061	-0.787131
55249	-9.368715	0.037086	3.881494	-0.241286	0.015701	0.325445	0.251223	0.539309	0.161648	-0.787339
55250	-9.306171	0.353912	4.004508	-0.174882	-0.323891	0.317992	0.250202	0.539440	0.160901	-0.787728
55251	-9.043026	0.416387	4.115213	-0.299735	-0.489515	0.114810	0.249472	0.539392	0.160461	-0.788081
55252	-8.979633	0.225782	4.232857	-0.512645	-0.406872	0.095568	0.249025	0.539319	0.160324	-0.788300
55253	-9.113025	0.128584	4.332469	-0.599276	-0.346013	0.254844	0.248754	0.539000	0.159938	-0.788683
55254	-9.257682	0.261922	4.197683	-0.369599	-0.344197	0.343036	0.248644	0.538577	0.159178	-0.789160
55255	-9.209617	0.448780	4.207943	-0.276011	-0.496338	0.306732	0.248754	0.537815	0.158268	-0.789827
55256	-9.074426	0.433065	4.076709	-0.208627	-0.424111	0.133611	0.249140	0.536941	0.157548	-0.790445
55257	-9.133618	0.339929	4.030838	-0.192682	-0.288114	0.170598	0.249734	0.536080	0.156913	-0.790967
55258	-9.055456	0.135221	4.020598	-0.308216	-0.108649	0.090743	0.250361	0.535181	0.156296	-0.791500
55259	-9.054135	0.052795	3.976912	-0.307036	0.004864	0.071726	0.250608	0.534409	0.155310	-0.792138
55260	-9.080561	0.223396	3.996373	-0.205198	-0.114381	0.108110	0.250595	0.533630	0.153951	-0.792932
55261	-8.980780	0.403020	4.145083	-0.236093	-0.334501	0.078260	0.250652	0.532799	0.152681	-0.793718
55262	-8.837720	0.483159	4.078908	-0.169362	-0.376000	-0.075845	0.250939	0.531919	0.151798	-0.794386
55263	-8.961537	0.564531	4.031310	-0.033749	-0.367977	0.023099	0.251432	0.530995	0.151153	-0.794971
55264	-8.968996	0.559026	4.047050	-0.030271	-0.347067	0.036809	0.251982	0.530009	0.150455	-0.795587
55265	-9.035572	0.421733	4.108753	-0.119519	-0.225568	0.118881	0.252380	0.529301	0.149678	-0.796079
55266	-9.045007	0.449023	3.908452	0.061958	-0.125140	0.049880	0.252637	0.528812	0.148853	-0.796476
55267	-9.151329	0.611459	3.916949	0.182577	-0.221400	0.156306	0.252752	0.528656	0.148092	-0.796686
55268	-9.097561	0.748432	4.109293	0.093282	-0.432723	0.188118	0.252909	0.528597	0.147671	-0.796753
55269	-9.158119	0.763736	4.275709	-0.008624	-0.508137	0.310446	0.253210	0.528585	0.147740	-0.796653
55270	-9.136219	0.623975	4.276035	-0.095080	-0.398848	0.285639	0.253843	0.528622	0.148345	-0.796314
55271	-9.336107	0.614765	4.267480	-0.035762	-0.341090	0.465181	0.254614	0.528789	0.148883	-0.795857
55272	-9.521026	0.808405	4.153654	0.208804	-0.399881	0.596577	0.255746	0.529041	0.149455	-0.795219
55273	-9.609005	0.729670	4.078136	0.239156	-0.273311	0.645069	0.257620	0.529142	0.150403	-0.794368
55274	-9.031373	0.298044	4.018678	-0.146025	-0.032649	0.075785	0.260062	0.529099	0.152108	-0.793275
55275	-8.946537	-0.157831	4.289596	-0.646249	0.171610	0.087765	0.262477	0.528939	0.154210	-0.792179
55276	-8.861216	-0.695407	4.176405	-0.899226	0.633678	-0.053746	0.265158	0.528344	0.156506	-0.791233
55277	-8.899149	-1.206251	4.022063	-1.072427	1.132425	-0.097009	0.267375	0.527919	0.157626	-0.790548
55278	-8.891029	-0.868582	4.284556	-1.078700	0.729179	0.009069	0.268510	0.527466	0.157059	-0.790579
55279	-8.997862	-0.551708	4.211622	-0.801028	0.567462	0.088822	0.269061	0.526669	0.155600	-0.791211
55280	-9.057937	-0.235126	4.044155	-0.461512	0.448687	0.088943	0.269265	0.525979	0.154094	-0.791895
55281	-9.036271	0.014103	4.072405	-0.333975	0.257497	0.089886	0.269348	0.525344	0.152601	-0.792577
55282	-8.958932	0.102586	4.153706	-0.360171	0.151549	0.055114	0.269560	0.524899	0.151271	-0.793055
55283	-8.935102	0.075508	4.225098	-0.433789	0.158096	0.060507	0.269631	0.524569	0.149729	-0.793541
55284	-8.887242	0.185817	4.290863	-0.432106	0.053895	0.048315	0.269442	0.524248	0.147625	-0.794211
55285	-8.822252	0.414177	4.326628	-0.346640	-0.129549	0.015146	0.269044	0.524006	0.145037	-0.794983
55286	-8.816194	0.660954	4.432764	-0.289611	-0.343948	0.067049	0.268536	0.523837	0.142180	-0.795781
55287	-8.873847	0.924701	4.499473	-0.177866	-0.534074	0.163708	0.268025	0.523805	0.139360	-0.796473
55288	-9.003962	1.132828	4.641185	-0.137439	-0.694872	0.355563	0.267821	0.523813	0.136524	-0.797028
55289	-8.776650	1.054779	4.715182	-0.316640	-0.686535	0.177474	0.268107	0.523537	0.134129	-0.797519
55290	-8.791612	0.798196	4.569644	-0.348278	-0.357615	0.115147	0.268835	0.523061	0.132348	-0.797884
55291	-8.996354	0.757121	4.555657	-0.292900	-0.217105	0.293180	0.270135	0.522070	0.131027	-0.798312
55292	-9.025185	0.849749	4.671879	-0.308121	-0.299651	0.376405	0.271802	0.520816	0.129987	-0.798735
55293	-9.207517	0.712486	4.784105	-0.397168	-0.145201	0.579361	0.273424	0.519356	0.129070	-0.799281
55294	-9.167870	0.392929	4.739531	-0.530044	0.167930	0.500315	0.275105	0.517382	0.128400	-0.800092
55295	-8.845772	0.082452	4.639159	-0.695348	0.412187	0.143347	0.276465	0.515139	0.127690	-0.801183
55296	-8.675650	0.118610	4.546620	-0.618886	0.412357	-0.045424	0.277294	0.512965	0.126858	-0.802422
55297	-8.688985	0.212593	4.611075	-0.568890	0.342829	0.003843	0.277314	0.510913	0.125801	-0.803890
55298	-8.819250	0.304809	4.628811	-0.443953	0.330485	0.136756	0.276674	0.508903	0.124669	-0.805560
55299	-8.882656	0.543333	4.664884	-0.269195	0.164415	0.230131	0.275628	0.506984	0.123493	-0.807307
55300	-8.953617	0.954887	4.906095	-0.147962	-0.240928	0.437613	0.274525	0.505002	0.122347	-0.809098
55301	-8.887467	1.048768	5.037394	-0.170192	-0.377037	0.448452	0.273616	0.503033	0.121261	-0.810794
55302	-8.664260	1.049410	4.941846	-0.129442	-0.379465	0.208866	0.272717	0.501002	0.120089	-0.812528
55303	-8.410525	1.178004	4.862152	-0.042472	-0.504113	-0.039816	0.271889	0.499002	0.118826	-0.814220
55304	-8.260388	1.296380	4.750842	0.095507	-0.572876	-0.213332	0.271549	0.496960	0.117845	-0.815723
55305	-8.141391	1.270624	4.704158	0.112599	-0.543333	-0.340741	0.271787	0.495015	0.117177	-0.816922
55306	-8.263882	1.053627	4.546810	0.188645	-0.228112	-0.326507	0.272411	0.493272	0.116832	-0.817817
55307	-8.269012	0.788955	4.649530	-0.004707	-0.030381	-0.293439	0.272959	0.491805	0.116103	-0.818621
55308	-8.121332	0.504489	4.592956	-0.152412	0.207473	-0.472483	0.273249	0.490575	0.115077	-0.819407
55309	-8.182393	0.516108	4.626753	-0.133055	0.230223	-0.402375	0.272934	0.489865	0.113436	-0.820166
55310	-8.407686	0.857982	4.823392	0.003579	-0.037309	-0.081863	0.272306	0.489267	0.111615	-0.820981
55311	-8.548558	1.114012	4.885802	0.158780	-0.202637	0.093049	0.271845	0.488746	0.109961	-0.821667
55312	-8.681577	1.053910	4.893241	0.175263	-0.085886	0.206603	0.271870	0.488319	0.108715	-0.822078
55313	-8.739883	0.944170	4.823214	0.190989	0.080789	0.212149	0.272191	0.488024	0.107454	-0.822313
55314	-8.825181	0.982208	4.878227	0.199561	0.082810	0.316423	0.272754	0.487877	0.105971	-0.822406
55315	-8.864122	1.035938	4.977367	0.162557	0.040652	0.404544	0.273723	0.487728	0.104600	-0.822348
55316	-8.825746	0.978328	5.053404	0.053473	0.076086	0.403920	0.274951	0.487402	0.103372	-0.822287
55317	-8.556806	0.781274	5.010554	-0.126314	0.196365	0.131174	0.276312	0.486965	0.102430	-0.822207
55318	-8.224253	0.551099	5.000685	-0.371307	0.302005	-0.183577	0.277462	0.486585	0.101543	-0.822155
55319	-8.038245	0.580695	5.137523	-0.529872	0.177533	-0.271598	0.277885	0.486482	0.100256	-0.822231
55320	-8.083708	1.007520	5.278391	-0.391214	-0.196428	-0.115721	0.277394	0.486746	0.098569	-0.822445
55321	-8.261016	1.505546	5.388870	-0.146365	-0.573240	0.147278	0.276642	0.487094	0.097043	-0.822673
55322	-8.243356	1.797718	5.535313	-0.115476	-0.871123	0.239784	0.276101	0.487480	0.096011	-0.822747
55323	-8.345740	1.910303	5.583042	-0.065107	-0.939114	0.364974	0.275857	0.487948	0.095239	-0.822642
55324	-8.383571	2.017917	5.641130	-0.049460	-1.030586	0.439825	0.275938	0.488309	0.094553	-0.822479
55325	-8.368428	2.011474	5.541139	0.006062	-0.977001	0.376829	0.276533	0.488501	0.094030	-0.822225
55326	-8.372941	1.801878	5.437804	-0.036084	-0.742085	0.305148	0.277503	0.488508	0.093496	-0.821955
55327	-8.444900	1.553151	5.408587	-0.129620	-0.477279	0.323228	0.278660	0.488453	0.092870	-0.821668
55328	-8.399613	1.318663	5.286268	-0.188861	-0.223483	0.194876	0.279976	0.488310	0.091992	-0.821404
55329	-8.137934	0.995447	5.180909	-0.387604	0.019507	-0.122073	0.281316	0.488028	0.091066	-0.821217
55330	-8.181021	0.860701	5.324293	-0.559754	0.115227	-0.030493	0.282214	0.487908	0.089823	-0.821117
55331	-8.471376	1.050558	5.458339	-0.458798	0.043250	0.309015	0.282795	0.487767	0.088115	-0.821186
55332	-8.543052	1.257108	5.510401	-0.365123	-0.084799	0.423911	0.283347	0.487441	0.086268	-0.821385
55333	-8.469460	1.400548	5.627020	-0.405709	-0.242603	0.440755	0.284000	0.487129	0.084707	-0.821507
55334	-8.627583	1.543132	5.650270	-0.291103	-0.275221	0.607553	0.284661	0.486777	0.083301	-0.821631
55335	-8.617940	1.667429	5.665273	-0.238054	-0.355216	0.625780	0.285514	0.486231	0.082143	-0.821775
55336	-8.593761	1.739721	5.611357	-0.160605	-0.372515	0.589334	0.286683	0.485434	0.081502	-0.821903
55337	-8.450198	1.678016	5.654442	-0.266086	-0.369991	0.482289	0.288401	0.484368	0.081456	-0.821935
55338	-8.297154	1.530366	5.541704	-0.298990	-0.240656	0.274328	0.290421	0.483044	0.081788	-0.821970
55339	-8.102409	1.272304	5.462014	-0.430991	-0.055164	0.031729	0.292436	0.481711	0.082321	-0.821985
55340	-8.128524	1.300411	5.326823	-0.284019	0.003969	-0.011755	0.294123	0.480495	0.082754	-0.822051
55341	-8.290355	1.483872	5.328445	-0.103353	-0.066354	0.152705	0.295678	0.479313	0.083214	-0.822137
55342	-8.343811	1.452288	5.319359	-0.074275	-0.002044	0.188230	0.297254	0.478143	0.083805	-0.822190
55343	-8.258170	1.199029	5.252856	-0.179610	0.207327	0.043897	0.298747	0.477018	0.084434	-0.822238
55344	-8.125615	0.957702	5.275431	-0.365102	0.350061	-0.090696	0.299949	0.476077	0.084639	-0.822325
55345	-8.024379	0.813389	5.314026	-0.500692	0.423759	-0.176255	0.300728	0.475312	0.084251	-0.822522
55346	-7.976300	1.008250	5.420448	-0.476338	0.218218	-0.130506	0.300964	0.474766	0.083671	-0.822811
55347	-8.095315	1.379388	5.539717	-0.301097	-0.069292	0.088314	0.300927	0.474364	0.083223	-0.823102
55348	-8.296840	1.612807	5.729423	-0.225623	-0.246885	0.392856	0.300862	0.474009	0.083177	-0.823334
55349	-8.477515	1.633582	5.837327	-0.219116	-0.232798	0.604079	0.300835	0.473774	0.083328	-0.823464
55350	-8.360662	1.727142	5.811414	-0.186324	-0.346880	0.507253	0.300604	0.473762	0.083236	-0.823564
55351	-8.199939	1.751340	5.787864	-0.211705	-0.423499	0.364807	0.300381	0.473565	0.083194	-0.823763
55352	-7.859947	1.501588	5.724863	-0.424645	-0.337826	0.011422	0.300306	0.473045	0.083510	-0.824057
55353	-7.622175	1.325834	5.618183	-0.519451	-0.254618	-0.268858	0.300356	0.472347	0.084232	-0.824366
55354	-7.631744	1.345126	5.506555	-0.404653	-0.228332	-0.317472	0.300302	0.471662	0.085164	-0.824682
55355	-7.975645	1.473317	5.452089	-0.144360	-0.178083	-0.042618	0.300212	0.471070	0.086127	-0.824953
55356	-8.271147	1.425498	5.412428	-0.014572	-0.011671	0.174200	0.300138	0.470502	0.086917	-0.825221
55357	-8.212589	1.173590	5.316804	-0.096158	0.199204	0.038373	0.300087	0.470005	0.087536	-0.825458
55358	-8.141131	0.872631	5.162370	-0.173432	0.471774	-0.146410	0.299673	0.469843	0.087691	-0.825684
55359	-8.332259	0.900932	5.331532	-0.206725	0.453177	0.107763	0.298800	0.470181	0.087193	-0.825861
55360	-8.413000	1.177413	5.429680	-0.094649	0.223302	0.266373	0.297759	0.470508	0.086241	-0.826150
55361	-8.265841	1.272024	5.601507	-0.228208	0.018130	0.250446	0.296796	0.470856	0.085450	-0.826381
55362	-8.331138	1.381583	5.891266	-0.358220	-0.162089	0.476581	0.295979	0.471063	0.084833	-0.826620
55363	-8.062134	1.566746	5.819148	-0.305558	-0.391451	0.240600	0.295261	0.471162	0.084451	-0.826859
55364	-7.962052	1.720426	5.940123	-0.346318	-0.611772	0.244400	0.294534	0.471328	0.084535	-0.827015
55365	-7.917668	1.752416	5.951293	-0.350168	-0.674862	0.217279	0.293919	0.471347	0.085409	-0.827133
55366	-7.938589	1.627688	5.754120	-0.259669	-0.505650	0.109877	0.293594	0.471296	0.086761	-0.827137
55367	-8.017032	1.429816	5.635934	-0.245485	-0.287538	0.083672	0.293513	0.471228	0.088107	-0.827062
55368	-8.284886	1.274517	5.535624	-0.150868	-0.030897	0.231372	0.293480	0.471256	0.089037	-0.826958
55369	-8.432075	1.130974	5.452121	-0.111328	0.169285	0.289964	0.293329	0.471228	0.089285	-0.827001
55370	-8.265330	0.969759	5.561646	-0.345590	0.185348	0.189024	0.292966	0.471313	0.089038	-0.827108
55371	-8.388430	1.048075	5.999151	-0.579931	-0.009152	0.537076	0.292098	0.471798	0.088090	-0.827239
55372	-8.475148	1.371688	6.198508	-0.521064	-0.313656	0.759032	0.291009	0.472170	0.086906	-0.827536
55373	-8.308623	1.512304	6.153258	-0.478186	-0.469467	0.614863	0.290516	0.472175	0.086448	-0.827755
55374	-8.073916	1.521242	6.027161	-0.464160	-0.514598	0.353369	0.290804	0.471543	0.086651	-0.827993
55375	-7.870266	1.542280	5.736405	-0.298673	-0.489869	0.030931	0.291560	0.470445	0.087295	-0.828283
55376	-8.054982	1.438495	5.435486	-0.038592	-0.205890	0.008339	0.292879	0.469101	0.088654	-0.828436
55377	-8.083727	1.162380	5.124279	0.074175	0.160596	-0.172945	0.294349	0.467496	0.089979	-0.828680
55378	-7.992790	0.939443	5.125719	-0.059804	0.306784	-0.276310	0.295579	0.466134	0.090996	-0.828898
55379	-7.800966	0.750405	5.070935	-0.179992	0.410439	-0.488972	0.296037	0.465071	0.091210	-0.829308
55380	-7.793433	0.959423	5.188826	-0.132737	0.196457	-0.403874	0.295571	0.464523	0.090611	-0.829847
55381	-7.972742	1.088991	5.207819	0.006365	0.165568	-0.229137	0.294562	0.464291	0.089608	-0.830444
55382	-7.976590	1.123066	5.028052	0.160894	0.224663	-0.320996	0.293307	0.464216	0.088288	-0.831071
55383	-7.771055	1.336618	5.031959	0.199030	-0.024581	-0.460884	0.292053	0.464183	0.087065	-0.831660
55384	-7.689232	1.329470	4.950928	0.220461	-0.014941	-0.573930	0.291058	0.464401	0.086528	-0.831943
55385	-7.816307	1.112842	4.948655	0.144673	0.210023	-0.498332	0.290000	0.465114	0.086135	-0.831955
55386	-8.113983	0.929475	5.082601	0.047208	0.416525	-0.202396	0.288601	0.466379	0.085506	-0.831799
55387	-8.284124	0.831514	5.343278	-0.156313	0.450466	0.068674	0.286838	0.468064	0.084355	-0.831579
55388	-8.102995	0.822676	5.403304	-0.314684	0.356171	-0.050261	0.284471	0.470344	0.082548	-0.831288
55389	-8.151844	1.019214	5.671681	-0.434041	0.103343	0.160277	0.281600	0.472898	0.080238	-0.831042
55390	-8.235104	1.367567	5.813906	-0.372072	-0.211957	0.351222	0.278608	0.475431	0.078067	-0.830812
55391	-8.533439	1.861553	5.853299	-0.073243	-0.531886	0.687674	0.275837	0.477694	0.076424	-0.830591
55392	-8.452920	2.255019	6.118516	-0.139634	-1.011312	0.814204	0.273968	0.479310	0.075961	-0.830321
55393	-8.210834	1.844817	6.176210	-0.519421	-0.809178	0.581638	0.273297	0.480532	0.077174	-0.829724
55394	-8.180797	1.317696	5.995340	-0.686777	-0.345026	0.386088	0.272829	0.481614	0.078782	-0.829099
55395	-8.123292	1.158222	5.671899	-0.561513	-0.144596	0.145397	0.272112	0.482687	0.080164	-0.828578
55396	-8.278534	1.469124	5.480492	-0.207208	-0.309624	0.216735	0.271340	0.483746	0.081509	-0.828082
55397	-8.559700	1.611931	5.383091	0.037222	-0.323269	0.421493	0.270749	0.484654	0.082909	-0.827606
55398	-8.675047	1.380542	5.210066	0.081643	-0.051334	0.399939	0.270248	0.485404	0.084221	-0.827198
55399	-8.664417	0.975099	5.186906	-0.128703	0.266962	0.328271	0.269457	0.486314	0.084901	-0.826851
55400	-8.674034	0.925462	5.328816	-0.277653	0.238326	0.402873	0.267958	0.487583	0.084234	-0.826659
55401	-8.732584	1.216764	5.502367	-0.264139	-0.059297	0.576788	0.265759	0.489089	0.082415	-0.826663
55402	-8.677964	1.678490	5.706736	-0.235756	-0.543773	0.691590	0.263401	0.490363	0.080103	-0.826890
55403	-8.433721	1.930563	5.707440	-0.226607	-0.836797	0.515816	0.261729	0.491129	0.078555	-0.827115
55404	-8.265222	1.871886	5.593221	-0.245402	-0.799915	0.306694	0.260926	0.491433	0.078065	-0.827235
55405	-8.229181	1.669347	5.402923	-0.215493	-0.572368	0.153439	0.260738	0.491415	0.078544	-0.827259
55406	-8.392176	1.644463	5.399796	-0.158066	-0.504692	0.287360	0.260807	0.491273	0.079529	-0.827228
55407	-8.567092	1.623157	5.232099	0.037127	-0.377980	0.349019	0.260949	0.491025	0.080877	-0.827199
55408	-8.704640	1.434896	5.179679	0.045699	-0.168994	0.416099	0.260967	0.490803	0.082172	-0.827198
55409	-8.573906	1.126960	5.073252	-0.069242	0.069847	0.212784	0.260798	0.490677	0.083172	-0.827226
55410	-8.377966	0.855972	4.944969	-0.178129	0.266583	-0.051903	0.260151	0.490810	0.083611	-0.827307
55411	-8.296711	0.834870	4.862850	-0.156920	0.276327	-0.164955	0.258962	0.491193	0.083463	-0.827467
55412	-8.227747	1.016143	4.789314	-0.039378	0.116037	-0.239241	0.257369	0.491771	0.083004	-0.827667
55413	-8.358984	1.274759	4.834941	0.096721	-0.091267	-0.073254	0.255689	0.492606	0.082783	-0.827714
55414	-8.511076	1.398684	5.047352	0.038678	-0.246669	0.177713	0.254112	0.493606	0.082829	-0.827599
55415	-8.468951	1.267603	5.170441	-0.154105	-0.216827	0.186942	0.252703	0.494597	0.082946	-0.827427
55416	-8.455096	1.106683	5.215119	-0.291078	-0.121670	0.177871	0.251222	0.495731	0.083078	-0.827186
55417	-8.517584	1.322210	5.286928	-0.234709	-0.334627	0.290875	0.249668	0.496763	0.082985	-0.827046
55418	-8.286689	1.479762	5.164771	-0.164617	-0.521126	0.048095	0.248282	0.497621	0.083293	-0.826917
55419	-8.318093	1.488795	5.056998	-0.075179	-0.505860	0.021882	0.247126	0.498502	0.084385	-0.826622
55420	-8.358202	1.507282	5.026566	-0.034643	-0.534356	0.041800	0.246417	0.499198	0.086190	-0.826227
55421	-8.244999	1.292597	5.070696	-0.220045	-0.443662	-0.059874	0.246128	0.499716	0.088470	-0.825759
55422	-8.410145	1.093822	4.968685	-0.178471	-0.222188	0.012456	0.245913	0.500428	0.090621	-0.825158
55423	-8.716542	1.211589	4.953137	0.000354	-0.259029	0.282481	0.245530	0.501122	0.092130	-0.824684
55424	-8.795530	1.281075	4.903070	0.094114	-0.304469	0.333296	0.245116	0.501878	0.093173	-0.824230
55425	-8.845797	1.226981	4.892810	0.080500	-0.263402	0.366569	0.244620	0.502836	0.093984	-0.823701
55426	-8.752051	1.025713	4.975897	-0.136564	-0.174124	0.304673	0.244110	0.503849	0.094592	-0.823164
55427	-8.464517	0.706218	5.012055	-0.449153	-0.021252	0.039481	0.243318	0.505008	0.095007	-0.822640
55428	-8.389227	0.580221	4.955741	-0.516742	0.066161	-0.065705	0.242143	0.506361	0.095221	-0.822130
55429	-8.506652	0.969727	4.934139	-0.287726	-0.249951	0.061718	0.240671	0.507643	0.095389	-0.821752
55430	-8.653430	1.516941	4.840987	0.089787	-0.670817	0.195308	0.239474	0.508574	0.096144	-0.821439
55431	-8.858071	1.689208	4.751770	0.312975	-0.758423	0.347278	0.238948	0.508997	0.097948	-0.821116
55432	-8.932286	1.321572	4.546650	0.327116	-0.374520	0.284684	0.238771	0.509096	0.100257	-0.820828
55433	-8.948469	0.884830	4.303397	0.316806	0.069049	0.150846	0.238203	0.509350	0.102038	-0.820616
55434	-9.118873	0.981460	4.208007	0.503912	0.041018	0.265446	0.236701	0.509757	0.102591	-0.820729
55435	-9.180664	1.374745	4.148350	0.767165	-0.284060	0.322107	0.234787	0.510059	0.102575	-0.821093
55436	-9.053198	1.295934	4.107323	0.715027	-0.258328	0.183906	0.232730	0.510475	0.102557	-0.821422
55437	-9.073895	0.899207	3.924836	0.675458	0.142556	0.090437	0.230483	0.510984	0.102379	-0.821761
55438	-9.315325	0.700308	3.597032	0.929951	0.491686	0.142098	0.228078	0.511522	0.101709	-0.822180
55439	-9.505159	0.712961	3.401241	1.164528	0.590942	0.223219	0.225609	0.511885	0.100833	-0.822743
55440	-9.319175	0.381286	3.463677	0.901178	0.789736	0.064235	0.223234	0.511602	0.100507	-0.823607
55441	-9.359230	0.203788	3.244451	1.028333	1.014722	-0.010854	0.219513	0.511798	0.099995	-0.824547
55442	-9.439324	0.461310	3.578634	0.927092	0.638210	0.229885	0.215161	0.512098	0.099636	-0.825551
55443	-9.268232	-0.137515	3.594888	0.590484	1.070607	0.053776	0.210247	0.513094	0.099529	-0.826211
55444	-9.584026	-0.129004	3.861933	0.510549	0.978155	0.461887	0.203255	0.514378	0.098578	-0.827275
55445	-8.901627	0.960120	4.001958	0.615965	-0.289079	-0.029391	0.194266	0.515303	0.097483	-0.828988
55446	-8.613961	2.115693	4.463649	0.608970	-1.660101	-0.041662	0.185220	0.516281	0.097639	-0.830430
55447	-8.191476	2.080210	4.784323	0.162021	-1.942237	-0.298625	0.178002	0.516795	0.101066	-0.831279
55448	-8.025753	1.585434	4.627731	0.046265	-1.600772	-0.551167	0.171199	0.516824	0.106268	-0.832040
55449	-8.468920	1.322597	4.784722	0.039821	-1.490837	-0.110184	0.164166	0.515425	0.112590	-0.833492
55450	-8.308770	0.928649	5.300395	-0.512055	-1.494811	-0.040667	0.156548	0.511636	0.118794	-0.836427
55451	-7.492803	0.268603	5.308965	-0.990006	-1.152930	-0.752518	0.149351	0.506605	0.125765	-0.839779
55452	-7.008231	-0.887350	4.948401	-1.203437	-0.157651	-1.273782	0.142656	0.501088	0.133359	-0.843075
55453	-7.131211	-1.805936	5.200243	-1.547419	0.478394	-0.950888	0.135551	0.495650	0.139793	-0.846413
55454	-8.065523	-1.891224	5.950947	-1.588119	0.244518	0.259947	0.126621	0.490666	0.143729	-0.850033
55455	-9.069199	-1.669160	6.975593	-1.679707	-0.374628	1.621046	0.116488	0.486104	0.146246	-0.853666
55456	-10.543511	-1.251590	7.715306	-1.234386	-1.069056	3.209912	0.105598	0.482420	0.148028	-0.856859
55457	-11.350213	-0.643543	7.992697	-0.721708	-1.844491	3.942277	0.094583	0.480117	0.149237	-0.859227
55458	-11.471843	0.160982	8.048978	-0.388735	-2.757254	3.922664	0.084100	0.479064	0.149752	-0.860813
55459	-10.675614	0.642838	7.812218	-0.460778	-3.263805	3.014884	0.075506	0.479051	0.151077	-0.861385
55460	-9.461700	0.353909	7.427092	-0.884811	-2.967612	1.815720	0.069391	0.480093	0.153638	-0.860867
55461	-8.099050	-0.303442	6.784103	-1.291911	-2.205805	0.442804	0.065768	0.482053	0.157083	-0.859432
55462	-6.978342	-0.680391	6.090632	-1.461419	-1.664866	-0.793385	0.064069	0.484547	0.160300	-0.857562
55463	-6.010999	-0.747281	5.168979	-1.283475	-1.308802	-2.063608	0.063666	0.487494	0.162564	-0.855493
55464	-5.539907	-0.306891	4.746770	-1.117362	-1.588718	-2.773953	0.064116	0.490718	0.163677	-0.853402
55465	-5.044370	0.255491	4.427831	-1.006469	-1.996861	-3.478965	0.065960	0.493781	0.164393	-0.851354
55466	-4.529325	0.628141	4.231596	-1.042450	-2.257957	-4.100370	0.069455	0.496859	0.165252	-0.849117
55467	-4.191144	0.750041	4.054483	-1.061303	-2.296593	-4.505492	0.074768	0.499898	0.166577	-0.846619
55468	-4.117014	0.556482	3.799575	-0.968821	-2.022588	-4.648704	0.081420	0.502759	0.168209	-0.843985
55469	-4.377761	0.219598	3.809468	-0.975903	-1.717487	-4.351655	0.088536	0.504874	0.169865	-0.841671
55470	-4.565156	0.107505	3.631741	-0.791950	-1.547553	-4.243160	0.095547	0.505941	0.172000	-0.839828
55471	-5.089590	0.199419	3.528013	-0.431950	-1.599866	-3.842393	0.103093	0.505825	0.175806	-0.838215
55472	-6.747735	-0.210220	2.999351	0.634450	-1.028899	-2.524953	0.111494	0.505202	0.182229	-0.836142
55473	-11.774433	-0.351426	2.612278	3.229305	-0.721966	1.790548	0.120124	0.503872	0.189781	-0.834066
55474	-16.019018	-0.768532	2.320360	5.301408	-0.106225	5.499583	0.130502	0.499479	0.197013	-0.833472
55475	-17.748004	-1.760533	1.860855	6.105042	1.209306	7.004412	0.143185	0.495075	0.202516	-0.832698
55476	-17.804392	-2.957486	1.772295	5.650242	2.574159	7.226247	0.155159	0.492361	0.204297	-0.831727
55477	-16.704466	-3.584408	2.352466	4.304492	3.022449	6.611446	0.164337	0.492469	0.204116	-0.829943
55478	-16.124212	-3.960466	2.937224	3.265239	3.176492	6.421458	0.171308	0.494151	0.204589	-0.827413
55479	-14.770626	-4.381316	2.707699	2.466435	3.621931	5.203816	0.176259	0.496086	0.205764	-0.824920
55480	-13.131257	-4.298567	2.352750	1.916537	3.611105	3.593609	0.178235	0.498798	0.206174	-0.822755
55481	-11.601740	-3.080654	2.548654	1.599557	2.330913	2.128582	0.177650	0.502737	0.204766	-0.820833
55482	-9.918644	-1.777930	2.425457	1.518061	1.124825	0.378139	0.175968	0.507290	0.202325	-0.818998
55483	-8.178436	-1.096163	2.020522	1.339714	0.585848	-1.444160	0.173798	0.512260	0.200066	-0.816920
55484	-6.482996	-0.707436	1.611055	1.070655	0.301393	-3.187908	0.171991	0.516824	0.199075	-0.814666
55485	-5.029146	-0.682308	0.928495	0.970634	0.488037	-4.768935	0.171299	0.520799	0.199980	-0.812055
55486	-4.181969	-0.988149	0.311476	0.928372	0.979173	-5.721047	0.171799	0.524111	0.202306	-0.809237
55487	-3.634107	-1.576428	0.144318	0.528593	1.515392	-6.188219	0.172827	0.526175	0.205421	-0.806891
55488	-4.323777	-2.035528	0.253096	0.468028	1.875931	-5.434988	0.171897	0.526941	0.207972	-0.805936
55489	-6.169417	-2.193273	1.300348	0.299566	1.554246	-3.327516	0.169186	0.525377	0.209538	-0.807124
55490	-7.531357	-3.631599	2.320451	-0.598169	2.320372	-1.472931	0.166003	0.521480	0.209666	-0.810273
55491	-8.992849	-4.977772	3.017539	-1.081730	3.218396	0.347275	0.159265	0.519057	0.204949	-0.814377
55492	-12.430858	-4.417719	4.685309	-0.570502	2.157594	4.007974	0.147761	0.519422	0.193643	-0.819066
55493	-14.277955	-2.416720	6.235618	-0.057322	-0.071987	5.953411	0.135023	0.520460	0.177364	-0.824277
55494	-13.148610	-0.935023	6.581606	-0.222330	-1.357121	4.856363	0.123330	0.523140	0.160481	-0.827865
55495	-12.338572	0.053662	7.518428	-1.091644	-2.442463	4.386164	0.115039	0.527364	0.147941	-0.828714
55496	-11.564818	-0.570477	7.862134	-2.060652	-1.883814	3.901790	0.115420	0.530968	0.144853	-0.826903
55497	-10.313354	-2.994058	6.620015	-2.463922	0.787660	2.534852	0.122402	0.533140	0.148593	-0.823833
55498	-9.543715	-5.577440	5.808260	-3.136651	3.408414	1.783357	0.129957	0.535142	0.152364	-0.820682
55499	-9.366918	-6.802928	5.738505	-3.735828	4.549011	1.689402	0.133433	0.538000	0.151165	-0.818475
55500	-9.192099	-5.951028	5.760624	-3.581137	3.828005	1.395085	0.131986	0.541302	0.144497	-0.817736
55501	-8.891036	-4.010508	5.510280	-2.801990	2.262883	0.795008	0.126758	0.544772	0.133647	-0.818104
55502	-7.919191	-2.097213	5.291731	-2.338739	0.667313	-0.368283	0.120630	0.547766	0.121898	-0.818866
55503	-6.876047	-1.167538	4.910127	-2.125669	-0.000876	-1.552392	0.115934	0.550134	0.111837	-0.819392
55504	-6.362321	-0.995812	4.722416	-2.128365	-0.020317	-2.115898	0.113423	0.551631	0.103601	-0.819821
55505	-5.962689	-1.199866	4.541089	-2.191138	0.300727	-2.551658	0.112729	0.552060	0.096821	-0.820456
55506	-5.614471	-1.595782	4.436128	-2.337408	0.772987	-2.907153	0.112610	0.551533	0.090687	-0.821527
55507	-5.594130	-1.890638	4.404220	-2.381742	1.153371	-2.937936	0.111656	0.550491	0.083984	-0.823067
55508	-5.858300	-1.713272	4.450759	-2.248524	1.093412	-2.684445	0.109360	0.549248	0.076369	-0.824945
55509	-6.275557	-1.096308	4.516047	-1.957854	0.631231	-2.279671	0.105855	0.547928	0.067625	-0.827041
55510	-6.700232	-0.245623	4.628014	-1.662959	-0.058592	-1.837610	0.101541	0.546771	0.058254	-0.829058
55511	-7.296580	0.308586	4.854779	-1.497168	-0.463508	-1.184440	0.097420	0.545788	0.049342	-0.830777
55512	-7.643386	0.536580	5.073865	-1.506326	-0.572549	-0.765289	0.093851	0.545179	0.040971	-0.832042
55513	-7.844655	0.482520	5.544910	-1.867127	-0.457390	-0.388204	0.090551	0.545096	0.032933	-0.832819
55514	-7.777216	0.177888	5.752217	-2.148209	-0.082570	-0.379654	0.087517	0.545537	0.025771	-0.833106
55515	-7.938889	0.153051	5.847237	-2.200776	0.050986	-0.200578	0.084196	0.546916	0.019136	-0.832723
55516	-8.123342	0.428871	6.112844	-2.363282	-0.143460	0.083431	0.080696	0.548270	0.013700	-0.832286
55517	-7.945246	0.333019	5.817778	-2.211485	0.018072	-0.210960	0.077837	0.549682	0.010522	-0.831673
55518	-8.359061	0.284866	5.371097	-1.688335	0.181288	-0.018800	0.075551	0.551479	0.008816	-0.830714
55519	-8.916398	0.494517	5.132947	-1.260612	0.060937	0.409884	0.074096	0.552275	0.008507	-0.830319
55520	-8.706404	0.361437	4.489929	-0.776277	0.212086	-0.043146	0.073910	0.552318	0.009649	-0.830295
55521	-8.924238	0.230722	3.943786	-0.209092	0.396022	-0.063425	0.074373	0.552278	0.011133	-0.830262
55522	-9.303362	0.492953	3.552950	0.333433	0.197411	0.150687	0.074359	0.551838	0.012278	-0.830539
55523	-9.994277	1.111800	3.334993	0.889820	-0.337569	0.738998	0.073219	0.551353	0.012759	-0.830955
55524	-10.866197	1.859045	3.688300	1.011239	-1.042495	1.720932	0.070996	0.550724	0.012605	-0.831567
55525	-11.114916	2.019859	4.010561	0.850101	-1.235851	2.080827	0.068347	0.549928	0.012312	-0.832320
55526	-10.728817	1.376434	3.976991	0.660321	-0.663335	1.673933	0.064948	0.550073	0.011248	-0.832511
55527	-10.640300	1.051700	3.924665	0.617022	-0.367295	1.554340	0.059992	0.551218	0.008389	-0.832160
55528	-10.448930	1.718995	3.856063	0.635562	-1.054072	1.389504	0.053964	0.552463	0.004188	-0.831778
55529	-10.194123	2.645112	3.773237	0.645889	-2.001710	1.175023	0.048095	0.553514	0.000439	-0.831450
55530	-10.260716	3.131451	3.534610	0.883022	-2.494336	1.168209	0.044066	0.554169	-0.000581	-0.831237
55531	-10.248404	2.873659	3.186237	1.165823	-2.269361	1.000749	0.042625	0.554157	0.001451	-0.831319
55532	-10.127252	1.973282	3.144573	1.111712	-1.434725	0.819750	0.043220	0.553534	0.005525	-0.831686
55533	-9.800407	0.703918	3.079566	0.983693	-0.244658	0.434232	0.044202	0.552327	0.009846	-0.832396
55534	-9.315938	-0.391215	2.713095	1.074871	0.791401	-0.194018	0.044246	0.551317	0.012521	-0.833028
55535	-9.007682	-0.611213	2.428478	1.224321	0.983234	-0.596201	0.041771	0.550299	0.011600	-0.833842
55536	-8.948823	0.245715	2.515588	1.218542	0.110399	-0.594614	0.037498	0.548938	0.008277	-0.834980
55537	-8.998242	1.013574	2.835471	1.024977	-0.669359	-0.403282	0.032455	0.547428	0.003993	-0.836213
55538	-9.324295	1.293048	3.121453	0.930295	-0.940492	0.016245	0.027218	0.546054	-0.000219	-0.837307
55539	-9.685099	1.325845	3.390752	0.846076	-0.961415	0.454543	0.021694	0.544955	-0.004616	-0.838172
55540	-9.782607	1.332435	3.984582	0.349246	-0.961505	0.784727	0.015615	0.544264	-0.009738	-0.838712
55541	-9.324195	1.415175	4.539870	-0.350958	-1.035382	0.596850	0.009099	0.544045	-0.015400	-0.838866
55542	-8.624393	1.728518	4.934810	-1.021029	-1.329153	0.132711	0.002865	0.544244	-0.020613	-0.838669
55543	-8.131677	2.277759	5.152380	-1.464897	-1.854334	-0.206713	-0.001768	0.544739	-0.023942	-0.838262
55544	-8.068751	2.691685	5.387343	-1.747023	-2.248357	-0.155248	-0.003979	0.545145	-0.024719	-0.837968
55545	-8.128506	2.294044	5.201833	-1.545535	-1.881667	-0.196825	-0.003556	0.545196	-0.022189	-0.838007
55546	-8.175089	1.370270	4.927861	-1.234936	-1.019701	-0.303302	-0.001475	0.545084	-0.017950	-0.838188
55547	-8.437293	0.474319	4.774552	-0.955751	-0.177214	-0.155349	0.001012	0.544980	-0.013928	-0.838333
55548	-8.936333	0.364663	4.559527	-0.548192	-0.101301	0.210759	0.002802	0.544706	-0.011441	-0.838544
55549	-9.301516	0.677232	4.494315	-0.334109	-0.424398	0.525783	0.003944	0.544280	-0.010431	-0.838829
55550	-9.360967	0.821677	4.365627	-0.181048	-0.569135	0.531627	0.005064	0.543807	-0.010164	-0.839134
55551	-9.161995	0.692548	4.265591	-0.159396	-0.435721	0.306688	0.006435	0.543529	-0.010017	-0.839306
55552	-8.996528	0.593649	4.265677	-0.222842	-0.328324	0.153679	0.008456	0.543620	-0.009482	-0.839235
55553	-8.790830	0.413538	4.142668	-0.199231	-0.143084	-0.088942	0.011142	0.544073	-0.008507	-0.838921
55554	-8.764638	0.124553	4.136258	-0.219187	0.156025	-0.124004	0.014382	0.544834	-0.007161	-0.838390
55555	-8.720051	-0.343263	4.075543	-0.210942	0.633178	-0.204270	0.017970	0.545908	-0.005654	-0.837633
55556	-8.766498	-0.525679	4.029996	-0.187062	0.832340	-0.187680	0.021052	0.547284	-0.004882	-0.836668
55557	-8.845418	-0.376265	4.081514	-0.236047	0.705174	-0.092162	0.023762	0.548725	-0.004469	-0.835653
55558	-8.683207	-0.262258	4.053268	-0.308403	0.604004	-0.250482	0.026039	0.550242	-0.004263	-0.834588
55559	-8.720261	-0.126647	4.087575	-0.360638	0.486319	-0.200168	0.028226	0.551968	-0.003856	-0.833379
55560	-8.710375	-0.323309	3.930584	-0.269265	0.699548	-0.280499	0.030652	0.553621	-0.003276	-0.832198
55561	-8.549179	-0.549010	3.811864	-0.271350	0.935321	-0.486833	0.033068	0.555121	-0.003007	-0.831107
55562	-8.741022	-0.728705	3.826963	-0.256390	1.146242	-0.315194	0.035109	0.556365	-0.003190	-0.830190
55563	-9.101153	-0.819284	4.324491	-0.610151	1.271793	0.197986	0.036466	0.556975	-0.004248	-0.829717
55564	-9.105998	-0.690365	4.604878	-0.872607	1.170177	0.310050	0.036762	0.557210	-0.006219	-0.829534
55565	-9.316422	-0.144796	4.729231	-0.887345	0.673585	0.576784	0.036066	0.557474	-0.008543	-0.829367
55566	-9.177465	0.409155	4.921484	-1.095037	0.137785	0.550523	0.035552	0.557432	-0.010206	-0.829398
55567	-8.995737	0.538243	4.773728	-1.020480	0.015432	0.334226	0.036148	0.557394	-0.010302	-0.829397
55568	-9.161086	0.460864	4.625174	-0.826175	0.114101	0.426186	0.037356	0.557562	-0.009984	-0.829234
55569	-9.208174	0.386667	4.631177	-0.819396	0.197956	0.467254	0.039178	0.557503	-0.009333	-0.829197
55570	-9.041789	0.212002	4.436266	-0.707281	0.369097	0.229367	0.041559	0.557237	-0.008150	-0.829273
55571	-8.997012	-0.068219	4.393716	-0.695065	0.649132	0.154816	0.044029	0.556868	-0.006871	-0.829405
55572	-8.894048	-0.352500	4.200302	-0.565153	0.936640	-0.031369	0.045897	0.556352	-0.006327	-0.829654
55573	-8.759671	-0.348228	4.050068	-0.467816	0.941279	-0.213143	0.046628	0.555898	-0.007055	-0.829912
55574	-8.747596	-0.085025	4.168106	-0.553976	0.696111	-0.163374	0.046387	0.555402	-0.008645	-0.830242
55575	-8.604568	0.203988	4.241033	-0.645630	0.417512	-0.248413	0.045766	0.554878	-0.010387	-0.830607
55576	-8.469294	0.458450	4.258478	-0.690077	0.173451	-0.348680	0.044933	0.554681	-0.012059	-0.830762
55577	-8.626046	0.627934	4.227540	-0.593093	0.036838	-0.204257	0.044070	0.554858	-0.013487	-0.830668
55578	-8.659020	0.703124	4.179539	-0.539889	-0.021636	-0.187221	0.043287	0.555260	-0.014550	-0.830422
55579	-8.645011	0.667956	3.947418	-0.346374	0.022614	-0.291975	0.042625	0.556009	-0.015141	-0.829945
55580	-8.651326	0.622666	3.826309	-0.254203	0.070336	-0.336181	0.041933	0.556991	-0.015459	-0.829315
55581	-8.512450	0.366620	3.661480	-0.193278	0.310949	-0.546161	0.041186	0.558458	-0.015513	-0.828365
55582	-8.588550	0.212364	3.532836	-0.092438	0.463925	-0.535551	0.040115	0.560597	-0.015602	-0.826970
55583	-8.835004	0.229018	3.400472	0.071146	0.457688	-0.354456	0.038399	0.563040	-0.016001	-0.825382
55584	-9.100100	0.371091	3.336659	0.173479	0.322751	-0.120000	0.036199	0.565791	-0.016525	-0.823588
55585	-8.987660	0.281071	3.361963	0.041736	0.383684	-0.220479	0.033879	0.568700	-0.016844	-0.821674
55586	-8.842350	0.086937	3.313873	-0.040490	0.541129	-0.384990	0.031189	0.572044	-0.016893	-0.819456
55587	-9.120060	0.013546	3.248857	0.036777	0.601651	-0.150039	0.028438	0.575547	-0.016663	-0.817104
55588	-8.967285	-0.357843	3.145456	-0.003203	0.928170	-0.348435	0.026410	0.578934	-0.016053	-0.814788
55589	-8.727770	-0.876982	3.011522	-0.040045	1.399184	-0.644674	0.023974	0.582425	-0.015703	-0.812379
55590	-8.805823	-0.876176	2.951847	-0.030544	1.369097	-0.585134	0.020186	0.585897	-0.016114	-0.809974
55591	-8.940976	-0.952259	2.981966	-0.089934	1.417705	-0.446715	0.016022	0.589522	-0.016886	-0.807417
55592	-8.985536	-1.024952	3.167629	-0.323645	1.462488	-0.348006	0.010851	0.592911	-0.018455	-0.804984
55593	-8.928435	-0.833415	3.270578	-0.506156	1.239667	-0.362036	0.004292	0.596236	-0.020725	-0.802530
55594	-9.049595	-0.666551	3.431396	-0.690371	1.050036	-0.193208	-0.003579	0.599186	-0.023738	-0.800250
55595	-9.101129	-0.485231	3.601701	-0.904481	0.846750	-0.091431	-0.012338	0.601960	-0.027185	-0.797968
55596	-9.631108	0.226730	3.940017	-1.196321	0.134319	0.525759	-0.021480	0.605019	-0.030781	-0.795326
55597	-10.297578	1.325751	4.225064	-1.467117	-0.970094	1.257744	-0.030174	0.607515	-0.033646	-0.793021
55598	-10.507700	1.810181	4.133231	-1.461150	-1.508713	1.428311	-0.037336	0.609564	-0.034861	-0.791089
55599	-10.754065	1.726263	3.733557	-1.086820	-1.530286	1.547134	-0.042581	0.611498	-0.034739	-0.789336
55600	-10.670766	1.683603	3.342973	-0.792130	-1.592949	1.354661	-0.045869	0.613044	-0.033363	-0.788010
55601	-10.387293	1.686178	2.854259	-0.438889	-1.705311	0.947641	-0.048193	0.614314	-0.031352	-0.786964
55602	-10.572968	1.548649	2.747160	-0.312015	-1.652441	1.091645	-0.050129	0.615369	-0.028862	-0.786114
55603	-10.783221	1.514695	2.776901	-0.312829	-1.692215	1.292332	-0.051984	0.615880	-0.026345	-0.785681
55604	-10.618314	1.386657	2.607266	-0.183294	-1.643184	1.083882	-0.053778	0.615826	-0.023880	-0.785682
55605	-10.562708	1.028975	2.535595	-0.084672	-1.355924	1.013800	-0.055644	0.615553	-0.021856	-0.785825
55606	-10.461789	0.756309	2.395130	0.067289	-1.148132	0.884731	-0.058085	0.614811	-0.021000	-0.786252
55607	-10.471588	0.979317	2.367245	0.085494	-1.417347	0.873786	-0.061255	0.613650	-0.021176	-0.786914
55608	-10.304471	1.387044	2.196704	0.183043	-1.869697	0.646855	-0.064346	0.611975	-0.021343	-0.787966
55609	-9.862826	1.503017	2.282303	0.012079	-1.982226	0.227914	-0.066785	0.610132	-0.020805	-0.789206
55610	-9.729775	1.271629	2.242272	0.087144	-1.790923	0.091758	-0.068372	0.608356	-0.019299	-0.790478
55611	-9.721668	1.007273	2.123163	0.278958	-1.588888	0.058001	-0.069457	0.606337	-0.017355	-0.791979
55612	-9.585368	1.027915	2.014367	0.396188	-1.654243	-0.112187	-0.070373	0.604075	-0.015517	-0.793663
55613	-9.624357	1.140625	2.089390	0.377523	-1.800957	-0.070593	-0.071045	0.601459	-0.013798	-0.795619
55614	-9.610187	1.209953	1.992666	0.522633	-1.914577	-0.125007	-0.071185	0.598698	-0.011980	-0.797715
55615	-9.523207	1.077434	1.983637	0.597019	-1.805650	-0.212176	-0.070860	0.595704	-0.010182	-0.800008
55616	-9.270040	0.928356	1.888003	0.711687	-1.664260	-0.480845	-0.070166	0.592654	-0.008712	-0.802348
55617	-9.266275	0.860982	1.670902	1.002442	-1.630812	-0.553525	-0.069176	0.589413	-0.007650	-0.804828
55618	-9.503443	0.958557	1.608817	1.200740	-1.757788	-0.363330	-0.067912	0.586053	-0.007229	-0.807389
55619	-9.966511	1.030035	1.679825	1.354864	-1.854235	0.083751	-0.065784	0.582541	-0.007062	-0.810104
55620	-10.161403	0.867821	2.000668	1.231783	-1.653129	0.373518	-0.062967	0.578850	-0.007256	-0.812967
55621	-10.267000	0.623192	2.316055	1.098893	-1.349791	0.586027	-0.060096	0.575309	-0.008071	-0.815686
55622	-10.507842	0.308754	2.673868	0.972210	-0.971510	0.946942	-0.057142	0.572249	-0.009766	-0.818028
55623	-10.753053	0.085067	3.123046	0.740965	-0.653538	1.341305	-0.054564	0.569762	-0.013030	-0.819893
55624	-10.478827	-0.081181	3.677813	0.220915	-0.323214	1.286148	-0.052471	0.567288	-0.017378	-0.821662
55625	-10.179159	-0.062404	3.660035	0.192292	-0.224899	1.000568	-0.051168	0.565526	-0.022033	-0.822847
55626	-10.029416	0.250242	3.971609	-0.138627	-0.408851	0.968706	-0.048634	0.564099	-0.024816	-0.823900
55627	-9.336832	0.057472	3.955683	-0.313502	-0.119041	0.322125	-0.044032	0.563111	-0.024870	-0.824832
55628	-8.896154	-0.424401	3.797828	-0.256509	0.400154	-0.142154	-0.036864	0.562741	-0.021601	-0.825529
55629	-8.560538	-1.559562	3.279010	0.198039	1.513743	-0.640105	-0.027935	0.562433	-0.015630	-0.826223
55630	-8.263854	-2.674256	2.825454	0.552760	2.609369	-1.077038	-0.019397	0.562143	-0.009093	-0.826763
55631	-8.045582	-3.275867	2.540787	0.717714	3.202056	-1.377652	-0.012928	0.561895	-0.003606	-0.827100
55632	-8.157992	-3.525251	2.540280	0.721178	3.442760	-1.265150	-0.008768	0.562078	0.000512	-0.827038
55633	-8.380999	-3.337855	3.007488	0.331863	3.247821	-0.881345	-0.007135	0.562391	0.002520	-0.826837
55634	-8.550633	-2.663611	3.825150	-0.387308	2.568125	-0.426813	-0.007027	0.562284	0.003156	-0.826908
55635	-8.666114	-2.529173	4.233873	-0.720862	2.428169	-0.168608	-0.007018	0.561748	0.003450	-0.827271
55636	-8.874002	-2.338062	4.464661	-0.850220	2.243300	0.106604	-0.007761	0.561600	0.001857	-0.827370
55637	-9.084080	-1.849921	5.071865	-1.340960	1.789958	0.515151	-0.009148	0.562124	-0.001121	-0.827002
55638	-9.157905	-1.105191	5.763771	-1.983592	1.104061	0.824787	-0.011253	0.563180	-0.004711	-0.826244
55639	-9.092276	-0.573319	6.143805	-2.402299	0.631825	0.891237	-0.013550	0.564627	-0.007785	-0.825198
55640	-8.773259	-0.555312	6.152401	-2.561466	0.655708	0.586314	-0.015794	0.566256	-0.010088	-0.824016
55641	-8.366381	-1.006005	6.245552	-2.806831	1.139442	0.229154	-0.018153	0.567587	-0.011760	-0.823029
55642	-8.046372	-1.746595	6.413287	-3.052475	1.905047	-0.015845	-0.021019	0.567852	-0.013071	-0.822759
55643	-7.707698	-2.311231	5.724757	-2.484193	2.445926	-0.573130	-0.024815	0.567546	-0.014531	-0.822840
55644	-7.980299	-1.984332	5.319347	-2.007567	2.092361	-0.458017	-0.029668	0.567536	-0.016711	-0.822644
55645	-7.998263	-1.478144	4.978908	-1.701879	1.565836	-0.560747	-0.034623	0.567383	-0.018921	-0.822508
55646	-7.803007	-1.183957	4.616553	-1.443981	1.251341	-0.871194	-0.039414	0.567388	-0.021099	-0.822236
55647	-7.737045	-1.084113	4.378811	-1.249828	1.130754	-1.016639	-0.043682	0.567687	-0.022822	-0.821768
55648	-7.477788	-1.253551	4.137717	-1.100632	1.285120	-1.342358	-0.047702	0.568292	-0.024738	-0.821071
55649	-7.174847	-1.569916	3.961101	-1.013782	1.600315	-1.685904	-0.052080	0.569492	-0.027485	-0.819885
55650	-7.410414	-1.777479	4.026836	-0.979723	1.813246	-1.443618	-0.057113	0.571047	-0.031158	-0.818335
55651	-7.664947	-1.411871	4.338744	-1.242707	1.502175	-1.108178	-0.063140	0.572375	-0.036572	-0.816739
55652	-7.710449	-0.994480	4.565700	-1.507634	1.167591	-1.000816	-0.069565	0.573347	-0.043197	-0.815210
55653	-7.575517	-0.779590	4.574775	-1.602098	1.032416	-1.135607	-0.075937	0.574256	-0.050546	-0.813578
55654	-7.569618	-0.719955	4.698376	-1.738922	1.071938	-1.111036	-0.081621	0.575498	-0.057738	-0.811669
55655	-7.770921	-0.663072	4.867139	-1.856280	1.115271	-0.878163	-0.086146	0.576808	-0.064301	-0.809776
55656	-7.799281	-0.736238	5.028813	-1.993153	1.300665	-0.812977	-0.089798	0.577814	-0.070591	-0.808136
55657	-7.792533	-1.142903	5.255014	-2.110633	1.830670	-0.766238	-0.093359	0.578401	-0.076766	-0.806748
55658	-7.594975	-1.439564	5.116754	-1.967982	2.182928	-1.020739	-0.096949	0.579359	-0.083316	-0.804986
55659	-8.005062	-1.217050	5.045940	-1.836996	2.020383	-0.671227	-0.101114	0.580937	-0.090852	-0.802517
55660	-8.685074	-0.600982	5.303615	-2.045092	1.561178	0.051358	-0.106303	0.582084	-0.098451	-0.800116
55661	-9.125398	0.006646	5.185409	-1.999422	1.016957	0.440546	-0.111697	0.583073	-0.105231	-0.797795
55662	-10.307987	0.695421	4.995699	-1.717140	0.323830	1.529318	-0.116890	0.583771	-0.111683	-0.795660
55663	-10.985679	1.365979	4.221211	-1.062854	-0.519389	1.975858	-0.120502	0.583781	-0.117113	-0.794332
55664	-11.508035	2.083861	3.444922	-0.466512	-1.410546	2.288433	-0.121622	0.583565	-0.121479	-0.793664
55665	-11.876261	2.192504	3.257651	-0.219583	-1.521582	2.601054	-0.120595	0.582879	-0.124589	-0.793843
55666	-12.723245	1.778557	3.127322	0.325510	-1.133626	3.356683	-0.118720	0.581476	-0.127984	-0.794614
55667	-13.296384	1.222478	2.975073	0.889232	-0.590763	3.825428	-0.117192	0.579351	-0.132161	-0.795708
55668	-13.268362	0.792429	3.174418	0.936671	-0.015431	3.820918	-0.116677	0.576816	-0.137287	-0.796757
55669	-12.456224	0.243912	3.146393	0.998198	0.605310	2.983894	-0.117271	0.573750	-0.143230	-0.797837
55670	-11.483692	0.369178	2.901790	0.964474	0.508943	1.987361	-0.119524	0.570067	-0.150753	-0.798756
55671	-10.855325	0.974692	2.818872	0.716381	0.012728	1.422049	-0.122852	0.565584	-0.159152	-0.799808
55672	-10.416124	1.374952	2.974616	0.398064	-0.206682	1.097473	-0.126572	0.560089	-0.167674	-0.801352
55673	-9.904275	1.402146	3.054520	0.273898	-0.118671	0.641965	-0.130450	0.553744	-0.176144	-0.803320
55674	-9.324611	1.311625	2.997893	0.293607	0.012379	0.064950	-0.134596	0.546779	-0.184919	-0.805433
55675	-8.663809	1.540857	2.750983	0.297150	-0.233144	-0.600774	-0.139499	0.539328	-0.194289	-0.807414
55676	-8.074506	2.118531	2.659935	0.019576	-0.720491	-1.081125	-0.144991	0.531467	-0.203686	-0.809341
55677	-7.526859	2.664603	2.777661	-0.427556	-1.076270	-1.438511	-0.150529	0.523593	-0.212402	-0.811219
55678	-7.312915	2.800189	2.832128	-0.520265	-1.117505	-1.577377	-0.155403	0.516104	-0.219371	-0.813242
55679	-7.545795	2.670282	2.824522	-0.255449	-0.988562	-1.386301	-0.159987	0.508861	-0.225478	-0.815245
55680	-7.878049	2.743305	2.845566	-0.064675	-1.031468	-1.059535	-0.164745	0.501679	-0.231278	-0.817122
55681	-8.150456	3.093427	2.836636	-0.017635	-1.326551	-0.741583	-0.169518	0.494710	-0.236819	-0.818806
55682	-8.281565	3.356927	2.965273	-0.098221	-1.467465	-0.513096	-0.174069	0.488264	-0.241902	-0.820232
55683	-8.414691	3.125764	3.115168	0.058258	-1.192811	-0.386393	-0.178235	0.482683	-0.246081	-0.821397
55684	-8.442859	2.703886	3.257170	0.266628	-0.769128	-0.403169	-0.182437	0.477934	-0.249897	-0.822099
55685	-8.264890	2.484103	3.362403	0.281466	-0.520054	-0.569577	-0.186884	0.474165	-0.253583	-0.822155
55686	-8.092783	2.463408	3.421231	0.203408	-0.455790	-0.701312	-0.191505	0.471294	-0.257058	-0.821662
55687	-7.782564	2.632178	3.471580	-0.059657	-0.533543	-0.909862	-0.196217	0.469168	-0.260192	-0.820780
55688	-7.608895	2.796962	3.539853	-0.284604	-0.606795	-0.992277	-0.200859	0.467856	-0.262417	-0.819697
55689	-7.521446	2.860927	3.546274	-0.384945	-0.658269	-1.051893	-0.205226	0.467333	-0.262899	-0.818759
55690	-7.609482	2.762972	3.504161	-0.288658	-0.649736	-1.019984	-0.209311	0.467605	-0.261800	-0.817921
55691	-7.786950	2.662011	3.667566	-0.292721	-0.534441	-0.823683	-0.213230	0.468301	-0.259892	-0.817119
55692	-8.095920	2.538162	3.609215	-0.083082	-0.566246	-0.610267	-0.217349	0.469061	-0.257569	-0.816333
55693	-8.364763	2.577976	3.528426	0.017294	-0.743121	-0.404615	-0.222357	0.469725	-0.255569	-0.815230
55694	-8.488737	2.578622	3.564539	-0.017117	-0.797593	-0.285008	-0.228474	0.470885	-0.254513	-0.813198
55695	-8.966408	2.580316	3.844146	-0.075498	-0.736440	0.251247	-0.235683	0.472756	-0.254252	-0.810130
55696	-9.279905	2.689957	4.284931	-0.405534	-0.627347	0.730255	-0.244241	0.474761	-0.254579	-0.806311
55697	-9.478279	2.969774	4.660082	-0.874512	-0.666793	1.103464	-0.253579	0.477025	-0.254839	-0.801999
55698	-9.531490	3.111598	4.796517	-1.182011	-0.735466	1.214444	-0.262826	0.479520	-0.254463	-0.797641
55699	-9.367699	2.960177	4.716662	-1.253193	-0.702404	0.989954	-0.271376	0.482425	-0.252963	-0.793493
55700	-9.824877	2.841916	4.645311	-1.115812	-0.812482	1.335209	-0.279219	0.485834	-0.250803	-0.789367
55701	-10.668514	2.837530	5.111061	-1.262434	-0.725034	2.264954	-0.285870	0.489378	-0.248745	-0.785438
55702	-11.468010	2.295687	5.274676	-0.871150	-0.455855	2.979432	-0.290754	0.492927	-0.246041	-0.782272
55703	-11.369635	1.902877	4.926487	-0.564414	-0.451666	2.702717	-0.295530	0.495829	-0.244139	-0.779238
55704	-10.825344	1.681210	4.862345	-0.684578	-0.259119	2.150576	-0.299265	0.499114	-0.242840	-0.776115
55705	-9.656056	0.520444	5.071961	-0.493273	0.934785	1.055464	-0.301380	0.503061	-0.240873	-0.773356
55706	-8.100858	-0.918751	4.854586	0.069629	2.126814	-0.565750	-0.302691	0.507387	-0.238449	-0.770765
55707	-7.619407	-1.318311	4.461691	0.361335	2.241579	-1.178793	-0.305034	0.511182	-0.237530	-0.767611
55708	-8.164626	-0.412692	4.584333	-0.285836	1.563841	-0.575817	-0.308325	0.513806	-0.236814	-0.764761
55709	-8.488484	0.213982	4.687122	-0.785348	1.105484	-0.209050	-0.311042	0.516141	-0.235066	-0.762624
55710	-9.080581	0.050542	4.491315	-0.460238	0.919549	0.265674	-0.312794	0.518819	-0.232657	-0.760827
55711	-9.256321	0.072711	4.446919	-0.480483	0.804084	0.413842	-0.314691	0.521124	-0.230677	-0.759070
55712	-9.223852	0.535309	4.570794	-0.973516	0.551574	0.434545	-0.316837	0.523049	-0.229288	-0.757272
55713	-8.867296	0.955370	4.596962	-1.445355	0.339959	0.110456	-0.318752	0.524581	-0.227582	-0.755922
55714	-8.136711	1.144731	4.718904	-1.891892	0.440200	-0.538463	-0.320444	0.525857	-0.225611	-0.754911
55715	-7.603540	1.395291	4.588277	-2.166617	0.275817	-1.092464	-0.321336	0.527701	-0.222763	-0.754090
55716	-7.339299	1.830838	4.440222	-2.501440	-0.100157	-1.406429	-0.321245	0.530134	-0.218958	-0.753536
55717	-7.407031	2.235176	4.428850	-2.828159	-0.462415	-1.371019	-0.319216	0.533576	-0.213071	-0.753657
55718	-7.652277	2.437428	4.386285	-2.950036	-0.773972	-1.185109	-0.314950	0.537873	-0.205465	-0.754508
55719	-7.992819	2.224755	4.319068	-2.739048	-0.846971	-0.909423	-0.308057	0.542868	-0.196260	-0.756226
55720	-8.162177	1.549069	4.099284	-2.143902	-0.626814	-0.821868	-0.299323	0.548122	-0.186681	-0.758366
55721	-8.348947	1.260573	4.103674	-1.968510	-0.526973	-0.648584	-0.289768	0.553219	-0.177670	-0.760537
55722	-8.398269	1.254777	4.055801	-1.965193	-0.620533	-0.630777	-0.279869	0.558046	-0.169245	-0.762636
55723	-8.350855	1.468596	3.995515	-2.100915	-0.862555	-0.718760	-0.269342	0.562997	-0.160809	-0.764611
55724	-8.469882	1.751096	3.944889	-2.235002	-1.196923	-0.650854	-0.257661	0.568259	-0.151750	-0.766593
55725	-8.548964	1.814406	3.822925	-2.178588	-1.389694	-0.630435	-0.244027	0.573808	-0.141326	-0.768910
55726	-8.430052	1.609880	3.541735	-1.879355	-1.395742	-0.828202	-0.228294	0.579677	-0.129327	-0.771447
55727	-8.729851	1.416660	3.266448	-1.492800	-1.474288	-0.621131	-0.210684	0.585671	-0.116060	-0.774036
55728	-9.179397	1.329251	2.988207	-1.108783	-1.645682	-0.272256	-0.191157	0.591394	-0.101377	-0.776810
55729	-9.684994	1.140209	2.670071	-0.618656	-1.713549	0.132635	-0.169835	0.596955	-0.085344	-0.779434
55730	-10.562489	0.841644	2.270324	0.070898	-1.709071	0.887914	-0.147408	0.602250	-0.068703	-0.781566
55731	-11.427073	0.695417	1.790232	0.779221	-1.786363	1.609560	-0.124445	0.606770	-0.051959	-0.783354
55732	-11.845702	0.485910	1.173152	1.539793	-1.685230	1.880071	-0.100746	0.610350	-0.035260	-0.784907
55733	-11.803325	0.110978	0.678635	2.105538	-1.250700	1.754120	-0.076367	0.613098	-0.019152	-0.786074
55734	-11.840341	-0.402744	0.232706	2.628041	-0.600973	1.725854	-0.052136	0.614933	-0.004459	-0.786842
55735	-12.029835	-0.744989	-0.252517	3.165323	-0.063483	1.819436	-0.028929	0.615642	0.007917	-0.787455
55736	-12.242420	-0.472506	-0.678404	3.619726	-0.074276	1.911002	-0.006836	0.614994	0.018261	-0.788290
55737	-12.104406	-0.100270	-1.029585	3.964449	-0.128351	1.669682	0.014825	0.612802	0.027761	-0.789610
55738	-11.321417	-0.265428	-1.215003	3.994287	0.367800	0.846736	0.036129	0.609357	0.036712	-0.791221
55739	-10.625638	-0.943488	-1.122998	3.702415	1.314366	0.167981	0.055777	0.605084	0.044623	-0.792951
55740	-10.317161	-1.209024	-0.740720	3.251017	1.760605	-0.077133	0.072161	0.600070	0.050345	-0.795094
55741	-9.959346	-1.228877	-0.375085	2.854062	1.899398	-0.374315	0.084801	0.594441	0.053404	-0.797870
55742	-9.710886	-0.977266	0.116330	2.446418	1.705401	-0.518927	0.093379	0.588794	0.053172	-0.801108
55743	-9.630108	-0.398729	0.451619	2.325671	1.205329	-0.526250	0.099236	0.583190	0.050647	-0.804659
55744	-9.443694	0.183560	0.658028	2.308355	0.703380	-0.657113	0.103569	0.577695	0.046925	-0.808295
55745	-9.393269	0.713529	0.863633	2.319319	0.256890	-0.645277	0.106707	0.572796	0.042512	-0.811610
55746	-9.653503	1.512683	1.191133	2.367567	-0.443946	-0.268417	0.109025	0.568362	0.037972	-0.814639
55747	-9.783941	2.325791	1.422484	2.462319	-1.162268	-0.027851	0.111709	0.564208	0.034738	-0.817303
55748	-9.862456	2.812638	1.638908	2.488019	-1.575227	0.146834	0.115906	0.560156	0.034065	-0.819531
55749	-9.772566	2.881198	1.677099	2.541337	-1.581641	0.069391	0.122449	0.555888	0.036464	-0.821380
55750	-9.364541	2.649484	1.538305	2.581607	-1.321193	-0.396266	0.130985	0.551527	0.041601	-0.822758
55751	-9.220944	1.978521	1.574559	2.430093	-0.639507	-0.587496	0.140543	0.547370	0.048306	-0.823590
55752	-9.284518	1.314580	1.679929	2.259679	0.041838	-0.558289	0.149824	0.543277	0.055010	-0.824243
55753	-9.418007	1.133151	1.833356	2.190364	0.254635	-0.406258	0.157947	0.539478	0.060479	-0.824838
55754	-9.702843	1.325430	2.152072	2.139987	0.096150	-0.017584	0.164692	0.536428	0.064362	-0.825215
55755	-10.135386	1.660785	2.315535	2.317441	-0.124494	0.456664	0.170281	0.534405	0.066989	-0.825184
55756	-10.383821	1.976787	2.629911	2.273963	-0.407283	0.832069	0.174973	0.533478	0.068615	-0.824668
55757	-10.086815	1.936030	3.057358	1.777417	-0.515314	0.742622	0.179598	0.534130	0.070114	-0.823125
55758	-9.435468	1.521050	3.284239	1.152870	-0.315021	0.222213	0.184345	0.536185	0.072241	-0.820551
55759	-8.503497	1.472881	3.361329	0.668175	-0.498999	-0.588731	0.189177	0.539701	0.075271	-0.816866
55760	-7.902142	1.902709	3.337421	0.566993	-1.041822	-1.106653	0.194597	0.544028	0.080190	-0.812241
55761	-7.458759	2.392358	3.162520	0.696960	-1.573678	-1.542544	0.201642	0.548345	0.088497	-0.806738
55762	-7.651189	2.688828	2.764465	1.179562	-1.717306	-1.501745	0.210924	0.552052	0.101139	-0.800325
55763	-8.559086	2.673463	2.384418	1.748156	-1.422990	-0.812166	0.222161	0.554508	0.117177	-0.793369
55764	-9.484793	2.449707	1.923054	2.281228	-0.892751	-0.134922	0.235257	0.555476	0.135670	-0.785935
55765	-10.225686	2.106983	1.290224	2.807419	-0.187592	0.323969	0.249752	0.555050	0.155214	-0.778108
55766	-10.548267	1.638339	0.675091	3.083347	0.576070	0.413102	0.265306	0.553382	0.174367	-0.770050
55767	-10.800563	0.954539	0.138631	3.075831	1.501227	0.476491	0.281179	0.551230	0.191745	-0.761786
55768	-10.910653	0.139389	-0.203227	2.714497	2.404525	0.480553	0.296557	0.549164	0.205807	-0.753735
55769	-10.941881	-0.715802	-0.077598	1.900485	3.017780	0.556574	0.309828	0.548246	0.215063	-0.746445
55770	-10.930197	-1.026630	0.442391	1.160424	2.941300	0.709620	0.319503	0.548638	0.219354	-0.740809
55771	-10.713628	-0.638180	0.917132	0.937453	2.338274	0.660258	0.325731	0.550029	0.220520	-0.736708
55772	-10.652584	0.306474	1.246789	1.277519	1.474732	0.738059	0.329479	0.552028	0.220466	-0.733555
55773	-10.386228	1.281493	1.566738	1.641563	0.539479	0.626874	0.332721	0.553466	0.221224	-0.730775
55774	-10.037582	1.534484	1.705840	1.620394	0.192585	0.353662	0.336702	0.554003	0.224406	-0.727568
55775	-9.730721	1.065325	1.794066	1.135645	0.365417	0.067457	0.341547	0.553473	0.229577	-0.724090
55776	-9.549330	0.476484	1.788166	0.652830	0.694914	-0.132549	0.346447	0.552446	0.235586	-0.720609
55777	-9.429377	0.225355	1.834708	0.405700	0.765369	-0.242963	0.350426	0.551121	0.241194	-0.717839
55778	-9.197793	0.304621	1.779852	0.473279	0.665954	-0.474997	0.352962	0.549617	0.246226	-0.716039
55779	-9.151740	0.656536	1.728245	0.795456	0.434545	-0.520194	0.353612	0.548158	0.250419	-0.715383
55780	-9.193217	1.181038	1.781260	1.221423	0.036312	-0.453766	0.352535	0.546559	0.253841	-0.715931
55781	-9.492511	1.702213	1.891858	1.670210	-0.348088	-0.134206	0.350102	0.544727	0.256708	-0.717498
55782	-9.878680	2.294039	1.902624	2.270137	-0.687409	0.229420	0.346855	0.542358	0.259079	-0.720012
55783	-9.947569	2.649976	1.929626	2.645795	-0.955078	0.276232	0.344217	0.538879	0.261766	-0.722913
55784	-9.909004	2.523375	1.767226	2.758249	-0.789759	0.159561	0.342341	0.534631	0.265276	-0.725673
55785	-9.849390	2.232042	1.881759	2.582702	-0.722908	0.103909	0.341021	0.529680	0.269057	-0.728528
55786	-9.802385	1.747941	1.990847	2.271486	-0.522579	0.070174	0.340025	0.524216	0.273250	-0.731379
55787	-10.014520	1.407598	2.438989	1.942847	-0.613168	0.388671	0.338632	0.518300	0.277320	-0.734702
55788	-10.238340	1.028620	2.823351	1.641534	-0.628471	0.711615	0.336739	0.512353	0.280576	-0.738497
55789	-10.733205	0.576732	3.404048	1.241617	-0.682115	1.372699	0.334422	0.507160	0.282236	-0.742491
55790	-10.682356	-0.115028	4.197142	0.377111	-0.842256	1.627988	0.332244	0.503161	0.282029	-0.746259
55791	-10.227457	-0.797290	4.771553	-0.498722	-0.901650	1.454153	0.330006	0.500159	0.280184	-0.749956
55792	-9.577581	-1.379956	4.796767	-1.070401	-0.633844	0.915551	0.328176	0.497758	0.277686	-0.753278
55793	-9.346190	-1.482856	4.649588	-1.077139	-0.448703	0.666185	0.326389	0.496062	0.275053	-0.756134
55794	-9.307409	-0.881896	4.779134	-0.657973	-0.889613	0.628630	0.325296	0.494198	0.273743	-0.758298
55795	-9.412843	-0.668882	4.869049	-0.466790	-1.048711	0.743767	0.325504	0.492051	0.274833	-0.759210
55796	-9.864902	-1.102322	5.142036	-0.764516	-0.885657	1.304990	0.326867	0.490007	0.278130	-0.758746
55797	-10.287238	-1.549630	5.156756	-0.939020	-0.566484	1.746621	0.328672	0.488247	0.282659	-0.757426
55798	-10.194512	-1.807491	4.918861	-0.995454	-0.312443	1.602271	0.330172	0.486926	0.287059	-0.755968
55799	-9.543518	-1.876021	4.706094	-1.105291	-0.315508	0.930868	0.331211	0.486161	0.290742	-0.754596
55800	-8.679553	-1.742001	4.420676	-1.097404	-0.423582	0.012161	0.331976	0.485987	0.293789	-0.753191
55801	-7.891755	-1.328527	3.982660	-0.777464	-0.555546	-0.924879	0.332961	0.486267	0.296313	-0.751585
55802	-7.361077	-1.036681	3.615032	-0.521035	-0.598216	-1.584736	0.334667	0.486680	0.298703	-0.749611
55803	-6.754672	-1.233076	3.381370	-0.748949	-0.455621	-2.209323	0.337353	0.486930	0.301104	-0.747281
55804	-6.331778	-1.572949	3.328502	-1.137901	-0.326294	-2.584748	0.340555	0.487463	0.303277	-0.744598
55805	-6.229572	-1.872490	3.334575	-1.441260	-0.198062	-2.649128	0.343582	0.488573	0.304497	-0.741977
55806	-6.385695	-1.749693	3.436129	-1.391698	-0.328049	-2.491425	0.345482	0.490592	0.304105	-0.739920
55807	-7.216966	-0.838600	3.703107	-0.616213	-0.888668	-1.729922	0.345928	0.493455	0.301978	-0.738678
55808	-7.689794	0.296114	4.038049	0.190010	-1.697744	-1.291676	0.346759	0.496012	0.299312	-0.737660
55809	-7.470593	0.609467	4.019874	0.330321	-1.894298	-1.527594	0.349201	0.498264	0.297618	-0.735673
55810	-7.456383	0.420558	3.976965	0.129782	-1.735641	-1.532530	0.352708	0.500794	0.296263	-0.732824
55811	-7.476388	0.382328	4.120210	-0.048499	-1.803374	-1.460227	0.356892	0.503550	0.294874	-0.729462
55812	-7.515044	0.448349	4.135805	-0.077398	-1.826558	-1.419903	0.361436	0.506476	0.293557	-0.725720
55813	-7.724294	0.612171	4.099034	0.033064	-1.826035	-1.239165	0.365834	0.509689	0.292107	-0.721843
55814	-7.752160	0.613015	4.070523	-0.040518	-1.780505	-1.218021	0.370318	0.512925	0.290626	-0.717850
55815	-7.617228	0.353958	3.838174	-0.257293	-1.468132	-1.406940	0.374859	0.516345	0.289336	-0.713550
55816	-7.707739	0.395095	3.632801	-0.200062	-1.296346	-1.384097	0.379553	0.519879	0.288203	-0.708946
55817	-8.199124	0.719537	3.587722	0.072475	-1.310935	-0.930666	0.384606	0.523198	0.287185	-0.704179
55818	-8.525649	0.636555	3.386512	0.049626	-1.009943	-0.672837	0.390162	0.526082	0.286396	-0.699277
55819	-8.767353	0.132172	3.013791	-0.264068	-0.361468	-0.551734	0.395522	0.529081	0.285202	-0.694474
55820	-9.314876	0.077830	2.613033	-0.159980	0.149405	-0.140484	0.399924	0.532464	0.283003	-0.690255
55821	-10.582114	0.902888	2.329644	0.692086	0.294902	1.034236	0.403422	0.536119	0.279819	-0.686680
55822	-12.564186	2.006543	2.045787	1.818498	0.500129	2.935274	0.406653	0.539579	0.275723	-0.683714
55823	-14.493252	2.885858	1.771405	2.702779	0.849767	4.798591	0.411408	0.541769	0.271690	-0.680745
55824	-15.202430	2.550773	1.433930	2.456346	1.631616	5.385168	0.419497	0.542199	0.268990	-0.676525
