// General information: 
//  MT Manager version: 2021.0.0 
//  XDA version: 2021.0.0 build 5908 rev 109668 built on 2021-04-19
// Device information: 
//  DeviceId: 00B43DEE
//  ProductCode: MTW2-3A7G6
//  Firmware Version: 4.3.5
//  Hardware Version: 1.1.0
// Device settings: 
//  Filter Profile: human(46.1)
//  Option Flags: Orientation Smoother Disabled, Position/Velocity Smoother Disabled, Continuous Zero Rotation Update Disabled, AHS Disabled, ICC Disabled
// Coordinate system: ENU
PacketCounter	Acc_X	Acc_Y	Acc_Z	FreeAcc_E	FreeAcc_N	FreeAcc_U	Quat_q0	Quat_q1	Quat_q2	Quat_q3
54636	-9.628103	0.803470	-1.513362	-0.015964	0.127018	-0.034149	0.517643	0.510615	0.559611	-0.397685
54637	-9.619685	0.837141	-1.514191	0.017581	0.135128	-0.039594	0.517667	0.510568	0.559626	-0.397692
54638	-9.578118	0.825604	-1.465238	0.017374	0.092726	-0.088491	0.517627	0.510554	0.559609	-0.397789
54639	-9.565814	0.826635	-1.432642	0.025758	0.063635	-0.105171	0.517544	0.510591	0.559563	-0.397912
54640	-9.611929	0.810568	-1.441166	0.007333	0.062736	-0.059782	0.517462	0.510612	0.559557	-0.398001
54641	-9.617936	0.877521	-1.415548	0.078468	0.047162	-0.052046	0.517430	0.510587	0.559562	-0.398066
54642	-9.647191	0.845222	-1.441061	0.041935	0.063269	-0.022202	0.517427	0.510541	0.559594	-0.398085
54643	-9.632859	0.851843	-1.460909	0.046946	0.086577	-0.033006	0.517446	0.510475	0.559614	-0.398117
54644	-9.600271	0.835645	-1.465336	0.033051	0.094762	-0.065860	0.517476	0.510392	0.559626	-0.398169
54645	-9.617360	0.850093	-1.447951	0.049901	0.079008	-0.050305	0.517498	0.510336	0.559606	-0.398239
54646	-9.521787	0.830967	-1.462511	0.035113	0.106203	-0.144112	0.517519	0.510248	0.559653	-0.398257
54647	-9.628815	0.823403	-1.513222	0.014200	0.138742	-0.031969	0.517535	0.510186	0.559719	-0.398225
54648	-9.634783	0.804342	-1.503749	-0.002390	0.126370	-0.028961	0.517546	0.510101	0.559746	-0.398281
54649	-9.558605	0.826605	-1.503085	0.025379	0.141642	-0.102447	0.517565	0.509996	0.559826	-0.398278
54650	-9.604631	0.810903	-1.511655	0.006889	0.140829	-0.057088	0.517599	0.509904	0.559926	-0.398211
54651	-9.554747	0.778728	-1.535207	-0.025097	0.165959	-0.105561	0.517610	0.509831	0.560040	-0.398130
54652	-9.550360	0.745670	-1.504677	-0.051555	0.129955	-0.116817	0.517509	0.509881	0.560126	-0.398078
54653	-9.611089	0.753323	-1.404247	-0.030098	0.020975	-0.070455	0.517347	0.510006	0.560150	-0.398093
54654	-9.603258	0.762535	-1.386653	-0.016833	0.003648	-0.079932	0.517207	0.510140	0.560148	-0.398105
54655	-9.626875	0.779703	-1.332362	0.008191	-0.052703	-0.062969	0.517103	0.510217	0.560176	-0.398103
54656	-9.624218	0.740506	-1.396224	-0.040194	0.002530	-0.059650	0.517052	0.510279	0.560173	-0.398094
54657	-9.619139	0.719375	-1.449994	-0.069095	0.051025	-0.058691	0.516917	0.510412	0.560146	-0.398137
54658	-9.631056	0.714054	-1.486565	-0.079935	0.082598	-0.042131	0.516760	0.510545	0.560085	-0.398256
54659	-9.587735	0.780806	-1.538001	-0.018371	0.148341	-0.072183	0.516573	0.510687	0.560023	-0.398404
54660	-9.547979	0.848370	-1.569245	0.047324	0.193784	-0.101540	0.516418	0.510783	0.560010	-0.398500
54661	-9.541721	0.863173	-1.582769	0.061447	0.208559	-0.104578	0.516321	0.510850	0.560038	-0.398501
54662	-9.573800	0.845374	-1.527580	0.051652	0.145363	-0.082220	0.516253	0.510888	0.560077	-0.398484
54663	-9.573284	0.857038	-1.468456	0.073139	0.087449	-0.090257	0.516159	0.510970	0.560114	-0.398449
54664	-9.558035	0.821894	-1.499585	0.034396	0.112357	-0.103595	0.516084	0.511073	0.560142	-0.398375
54665	-9.560743	0.766551	-1.554418	-0.029297	0.154047	-0.097389	0.515956	0.511225	0.560164	-0.398315
54666	-9.574425	0.744406	-1.603062	-0.059569	0.192356	-0.078572	0.515749	0.511465	0.560125	-0.398329
54667	-9.608989	0.782490	-1.606401	-0.023887	0.191761	-0.040884	0.515494	0.511724	0.560086	-0.398382
54668	-9.573031	0.785319	-1.605853	-0.018212	0.193117	-0.076118	0.515285	0.511950	0.560061	-0.398397
54669	-9.601271	0.767087	-1.572940	-0.032146	0.150235	-0.054442	0.515115	0.512134	0.560043	-0.398405
54670	-9.602190	0.798359	-1.483976	0.012818	0.065258	-0.063986	0.515028	0.512234	0.560030	-0.398409
54671	-9.621267	0.808952	-1.417912	0.032858	-0.002900	-0.053970	0.514954	0.512279	0.560111	-0.398332
54672	-9.645089	0.813276	-1.426466	0.035141	-0.000092	-0.028888	0.514894	0.512285	0.560211	-0.398260
54673	-9.622005	0.855304	-1.448772	0.075081	0.029936	-0.045040	0.514902	0.512234	0.560300	-0.398192
54674	-9.633504	0.807323	-1.492612	0.020398	0.063187	-0.031090	0.514959	0.512157	0.560396	-0.398080
54675	-9.614670	0.740620	-1.487475	-0.043570	0.050902	-0.055716	0.514982	0.512118	0.560443	-0.398036
54676	-9.609658	0.732173	-1.477195	-0.049757	0.040291	-0.062835	0.514959	0.512126	0.560439	-0.398060
54677	-9.627876	0.753349	-1.493595	-0.032170	0.056654	-0.040783	0.514933	0.512150	0.560410	-0.398105
54678	-9.635064	0.740860	-1.515893	-0.047965	0.076436	-0.031424	0.514949	0.512109	0.560375	-0.398185
54679	-9.591899	0.777982	-1.510008	-0.007412	0.084533	-0.071912	0.514976	0.512051	0.560366	-0.398239
54680	-9.558102	0.786085	-1.536221	-0.000810	0.117961	-0.100772	0.515010	0.511948	0.560417	-0.398255
54681	-9.588499	0.802743	-1.585668	0.007220	0.164755	-0.062259	0.515004	0.511892	0.560455	-0.398280
54682	-9.550029	0.846802	-1.593061	0.052723	0.184635	-0.095636	0.514960	0.511888	0.560474	-0.398316
54683	-9.561113	0.878563	-1.588026	0.084835	0.182437	-0.082934	0.514956	0.511878	0.560498	-0.398299
54684	-9.566770	0.830441	-1.525097	0.047053	0.112605	-0.090355	0.514979	0.511847	0.560549	-0.398239
54685	-9.584357	0.778859	-1.496062	-0.000362	0.073164	-0.081327	0.514993	0.511827	0.560607	-0.398164
54686	-9.636267	0.790432	-1.487974	0.009360	0.057374	-0.030401	0.514958	0.511853	0.560674	-0.398082
54687	-9.600433	0.750319	-1.492546	-0.028711	0.060329	-0.068226	0.514953	0.511834	0.560711	-0.398061
54688	-9.594256	0.765743	-1.505115	-0.014563	0.075046	-0.071248	0.514924	0.511811	0.560792	-0.398013
54689	-9.663095	0.750036	-1.487474	-0.030737	0.044044	-0.007196	0.514982	0.511735	0.560865	-0.397934
54690	-9.580463	0.747977	-1.505112	-0.030988	0.074080	-0.086247	0.515051	0.511636	0.560938	-0.397869
54691	-9.606819	0.734647	-1.521162	-0.048286	0.083721	-0.058957	0.515079	0.511613	0.560967	-0.397821
54692	-9.617494	0.723980	-1.523918	-0.060015	0.083240	-0.048870	0.515077	0.511625	0.560937	-0.397851
54693	-9.580748	0.708157	-1.549144	-0.077758	0.111549	-0.082653	0.515065	0.511660	0.560899	-0.397875
54694	-9.568726	0.710535	-1.516751	-0.069400	0.082327	-0.099073	0.514975	0.511750	0.560813	-0.397996
54695	-9.547563	0.801591	-1.561138	0.015320	0.142656	-0.106242	0.514892	0.511812	0.560754	-0.398107
54696	-9.589027	0.821679	-1.550181	0.035461	0.128609	-0.065387	0.514825	0.511862	0.560707	-0.398196
54697	-9.633776	0.830323	-1.581197	0.036999	0.153483	-0.016038	0.514768	0.511952	0.560600	-0.398304
54698	-9.614788	0.873829	-1.581114	0.081063	0.163136	-0.031355	0.514690	0.512054	0.560499	-0.398415
54699	-9.587726	0.841795	-1.575810	0.052009	0.157589	-0.061342	0.514632	0.512129	0.560430	-0.398492
54700	-9.561725	0.785637	-1.548429	0.002654	0.126688	-0.095415	0.514573	0.512190	0.560380	-0.398561
54701	-9.545394	0.744064	-1.544792	-0.036914	0.119421	-0.115320	0.514553	0.512240	0.560345	-0.398571
54702	-9.581262	0.715491	-1.530852	-0.065575	0.095281	-0.084243	0.514530	0.512321	0.560316	-0.398537
54703	-9.611134	0.674009	-1.473267	-0.100041	0.027166	-0.066511	0.514494	0.512410	0.560276	-0.398525
54704	-9.619486	0.682073	-1.466662	-0.092338	0.019913	-0.058616	0.514466	0.512495	0.560206	-0.398551
54705	-9.598775	0.707384	-1.497218	-0.071738	0.056618	-0.072555	0.514455	0.512555	0.560141	-0.398579
54706	-9.608938	0.734097	-1.459315	-0.040548	0.022241	-0.065993	0.514448	0.512589	0.560079	-0.398632
54707	-9.636454	0.807225	-1.458125	0.029748	0.028479	-0.033255	0.514494	0.512578	0.560017	-0.398673
54708	-9.607893	0.756599	-1.481955	-0.022780	0.050024	-0.061933	0.514529	0.512559	0.559997	-0.398680
54709	-9.619243	0.869355	-1.427341	0.096047	0.012175	-0.049822	0.514561	0.512534	0.559972	-0.398707
54710	-9.577152	0.913557	-1.454098	0.137625	0.052214	-0.083908	0.514645	0.512438	0.560030	-0.398641
54711	-9.580385	0.870352	-1.442652	0.096591	0.034858	-0.085818	0.514702	0.512353	0.560083	-0.398602
54712	-9.594936	0.860447	-1.424734	0.088875	0.014105	-0.074877	0.514769	0.512264	0.560151	-0.398535
54713	-9.632680	0.850141	-1.379674	0.083643	-0.037093	-0.045068	0.514869	0.512125	0.560272	-0.398413
54714	-9.616394	0.808402	-1.375827	0.044116	-0.044272	-0.064994	0.514951	0.511994	0.560392	-0.398306
54715	-9.636862	0.811587	-1.401816	0.042159	-0.021017	-0.040756	0.515099	0.511798	0.560519	-0.398188
54716	-9.626184	0.850090	-1.454510	0.072638	0.039362	-0.040541	0.515302	0.511504	0.560709	-0.398037
54717	-9.594540	0.840563	-1.489820	0.059946	0.079436	-0.067360	0.515554	0.511124	0.560965	-0.397837
54718	-9.550020	0.858545	-1.513659	0.077180	0.114396	-0.106395	0.515775	0.510758	0.561231	-0.397647
54719	-9.576127	0.911175	-1.542723	0.123978	0.147697	-0.072295	0.515953	0.510441	0.561514	-0.397421
54720	-9.618864	0.937240	-1.563338	0.144830	0.165884	-0.025119	0.516127	0.510153	0.561738	-0.397249
54721	-9.615807	0.977373	-1.575979	0.183342	0.185612	-0.023171	0.516200	0.509988	0.561880	-0.397166
54722	-9.608842	0.986063	-1.555524	0.196633	0.168148	-0.032356	0.516255	0.509840	0.562040	-0.397057
54723	-9.576790	0.976969	-1.593144	0.183989	0.208179	-0.059212	0.516359	0.509650	0.562234	-0.396891
54724	-9.589934	1.028080	-1.556923	0.239457	0.178813	-0.047520	0.516523	0.509457	0.562387	-0.396710
54725	-9.563338	1.077042	-1.501117	0.297212	0.137505	-0.078030	0.516861	0.509080	0.562637	-0.396399
54726	-9.562751	1.033271	-1.509227	0.252122	0.140453	-0.080867	0.517188	0.508601	0.563029	-0.396030
54727	-9.685533	1.029406	-1.606683	0.225472	0.216545	0.054072	0.517570	0.508032	0.563552	-0.395518
54728	-9.795072	1.086561	-1.747105	0.249986	0.345019	0.187058	0.518094	0.507462	0.564114	-0.394760
54729	-9.606314	0.989008	-1.834842	0.142109	0.443970	0.006108	0.518762	0.507043	0.564407	-0.394003
54730	-9.667060	1.076595	-1.520501	0.269107	0.143794	0.027532	0.519183	0.507161	0.564130	-0.393693
54731	-9.712503	0.982526	-1.269250	0.207861	-0.120417	0.028622	0.519574	0.507177	0.563857	-0.393548
54732	-9.775795	0.800560	-1.432823	-0.008801	0.000013	0.099929	0.519605	0.507268	0.563859	-0.393386
54733	-9.716071	0.642064	-1.653162	-0.200392	0.194429	0.059965	0.519547	0.507207	0.564119	-0.393169
54734	-9.603116	0.653657	-1.808311	-0.208790	0.359408	-0.027785	0.519414	0.507268	0.564374	-0.392898
54735	-9.607881	0.686691	-1.703838	-0.160119	0.253913	-0.035373	0.519337	0.507551	0.564520	-0.392426
54736	-9.587334	0.528072	-1.642282	-0.309421	0.160609	-0.077629	0.518863	0.508514	0.564098	-0.392413
54737	-9.467788	0.536706	-1.660483	-0.301925	0.190040	-0.192033	0.517878	0.510076	0.563021	-0.393234
54738	-9.281550	0.566956	-1.888575	-0.297825	0.439170	-0.338842	0.516301	0.511892	0.561883	-0.394571
54739	-9.218801	0.764823	-1.835165	-0.080944	0.417437	-0.391528	0.514912	0.513104	0.561403	-0.395496
54740	-9.372040	0.883998	-1.855089	0.034053	0.417349	-0.227147	0.514222	0.513465	0.561739	-0.395447
54741	-9.399345	0.974028	-1.581932	0.169064	0.149093	-0.234164	0.514275	0.513239	0.562327	-0.394835
54742	-9.421362	1.005147	-1.232856	0.253445	-0.193542	-0.263310	0.515014	0.512428	0.563011	-0.393949
54743	-9.277900	0.992191	-1.044772	0.276597	-0.354045	-0.434331	0.516048	0.511244	0.564058	-0.392636
54744	-9.354953	0.693450	-1.219767	-0.053591	-0.244824	-0.356417	0.517187	0.509756	0.565539	-0.390938
54745	-9.534646	0.555050	-1.533852	-0.255088	0.001794	-0.142880	0.517949	0.508525	0.567004	-0.389406
54746	-9.634829	0.593562	-1.734423	-0.258160	0.177934	-0.010027	0.518600	0.507407	0.568305	-0.388100
54747	-9.668724	0.531247	-1.896546	-0.350623	0.311686	0.043440	0.519148	0.506478	0.569374	-0.387013
54748	-9.605534	0.608541	-1.859610	-0.265173	0.295289	-0.017932	0.519619	0.505786	0.570081	-0.386245
54749	-9.677334	0.663889	-1.538827	-0.154072	-0.018402	0.007468	0.519961	0.505259	0.570462	-0.385910
54750	-9.578720	0.787066	-1.405131	0.000029	-0.108102	-0.100116	0.520042	0.504870	0.570835	-0.385760
54751	-9.689029	0.640908	-1.416580	-0.146680	-0.141226	-0.001812	0.520074	0.504560	0.571088	-0.385748
54752	-9.794587	0.628679	-1.470874	-0.169021	-0.107174	0.109641	0.519846	0.504506	0.571128	-0.386065
54753	-9.804564	0.606926	-1.567421	-0.202495	-0.016054	0.132833	0.519664	0.504376	0.571113	-0.386503
54754	-9.647451	0.630721	-1.607268	-0.171023	0.058533	-0.013619	0.519362	0.504361	0.570954	-0.387163
54755	-9.590454	0.730023	-1.594419	-0.060253	0.079242	-0.063739	0.519024	0.504437	0.570715	-0.387868
54756	-9.540102	0.810095	-1.445139	0.055628	-0.037238	-0.130036	0.518870	0.504377	0.570573	-0.388360
54757	-9.422742	0.841206	-1.503152	0.084781	0.049363	-0.234299	0.518972	0.504144	0.570575	-0.388524
54758	-9.461649	0.798106	-1.530395	0.037295	0.064588	-0.195187	0.519064	0.503928	0.570750	-0.388425
54759	-9.582707	0.727348	-1.619415	-0.053947	0.117795	-0.067790	0.519171	0.503729	0.570995	-0.388180
54760	-9.701428	0.607949	-1.688273	-0.190011	0.140720	0.050460	0.519235	0.503626	0.571244	-0.387861
54761	-9.659766	0.494255	-1.671876	-0.296861	0.108180	-0.001943	0.519216	0.503653	0.571307	-0.387758
54762	-9.645301	0.498977	-1.566078	-0.270993	0.007517	-0.032099	0.519037	0.503840	0.571183	-0.387938
54763	-9.678582	0.566312	-1.417385	-0.176466	-0.130308	-0.016948	0.518661	0.504215	0.570888	-0.388388
54764	-9.593133	0.701981	-1.382085	-0.029982	-0.125335	-0.095973	0.518388	0.504454	0.570633	-0.388816
54765	-9.569587	0.739448	-1.494435	-0.011203	-0.004190	-0.098936	0.518384	0.504407	0.570615	-0.388910
54766	-9.581619	0.652730	-1.654809	-0.126265	0.134765	-0.069086	0.518488	0.504238	0.570769	-0.388763
54767	-9.620287	0.775843	-1.634131	-0.003536	0.130613	-0.024676	0.518647	0.504031	0.570907	-0.388616
54768	-9.587117	0.829827	-1.650409	0.047256	0.161784	-0.050676	0.518827	0.503812	0.571117	-0.388353
54769	-9.586170	0.755476	-1.608064	-0.019222	0.107323	-0.063873	0.519075	0.503587	0.571290	-0.388058
54770	-9.617872	0.619644	-1.517672	-0.138781	-0.009236	-0.057105	0.519267	0.503439	0.571337	-0.387925
54771	-9.635872	0.595922	-1.414658	-0.144685	-0.114589	-0.057056	0.519375	0.503372	0.571294	-0.387930
54772	-9.673599	0.676264	-1.401298	-0.065827	-0.116879	-0.015673	0.519462	0.503290	0.571247	-0.387987
54773	-9.647937	0.726711	-1.468801	-0.028552	-0.034792	-0.026670	0.519614	0.503161	0.571189	-0.388039
54774	-9.645116	0.672582	-1.539044	-0.096060	0.027657	-0.022933	0.519818	0.502995	0.571166	-0.388014
54775	-9.622829	0.620978	-1.615521	-0.161886	0.100042	-0.037303	0.519999	0.502887	0.571056	-0.388074
54776	-9.579890	0.723846	-1.710358	-0.078102	0.222430	-0.057279	0.520013	0.502939	0.570795	-0.388371
54777	-9.578464	0.800171	-1.676284	0.003292	0.207941	-0.058000	0.519961	0.503065	0.570505	-0.388703
54778	-9.586223	0.823568	-1.654701	0.030318	0.193767	-0.051872	0.519798	0.503324	0.570124	-0.389145
54779	-9.506877	0.847133	-1.669210	0.055433	0.227924	-0.126120	0.519552	0.503650	0.569738	-0.389616
54780	-9.415109	0.966275	-1.684600	0.174868	0.280078	-0.205044	0.519345	0.503935	0.569481	-0.389901
54781	-9.535375	0.918003	-1.667863	0.124181	0.235217	-0.092753	0.519284	0.504126	0.569343	-0.389934
54782	-9.516565	0.935446	-1.740602	0.126562	0.310744	-0.098925	0.519292	0.504259	0.569260	-0.389874
54783	-9.619463	0.909618	-1.700040	0.101018	0.248674	-0.005569	0.519310	0.504404	0.569170	-0.389795
54784	-9.646581	0.842490	-1.643127	0.041691	0.175824	0.007370	0.519285	0.504582	0.569041	-0.389784
54785	-9.636169	0.821237	-1.589457	0.029571	0.121077	-0.012635	0.519206	0.504760	0.568877	-0.389898
54786	-9.596352	0.818248	-1.571854	0.030817	0.109972	-0.054758	0.519112	0.504981	0.568661	-0.390054
54787	-9.556540	0.815486	-1.554118	0.032078	0.098865	-0.096878	0.518994	0.505246	0.568408	-0.390235
54788	-9.583616	0.846347	-1.561406	0.058245	0.106954	-0.066655	0.518912	0.505462	0.568198	-0.390371
54789	-9.585143	0.829116	-1.572917	0.037469	0.115051	-0.064774	0.518917	0.505576	0.568071	-0.390401
54790	-9.590747	0.783392	-1.637206	-0.021122	0.169114	-0.053204	0.518972	0.505598	0.568009	-0.390390
54791	-9.622730	0.782487	-1.570088	-0.012445	0.099375	-0.031871	0.519008	0.505591	0.567967	-0.390411
54792	-9.599935	0.819175	-1.554861	0.026896	0.096678	-0.053726	0.519102	0.505533	0.567877	-0.390494
54793	-9.606884	0.836956	-1.501988	0.052898	0.050339	-0.053418	0.519203	0.505474	0.567789	-0.390563
54794	-9.618662	0.900914	-1.545689	0.106130	0.105567	-0.030201	0.519298	0.505447	0.567618	-0.390721
54795	-9.575972	0.903529	-1.576665	0.104484	0.146922	-0.067484	0.519376	0.505409	0.567488	-0.390855
54796	-9.528445	0.898771	-1.596577	0.097985	0.176334	-0.111790	0.519451	0.505384	0.567374	-0.390953
54797	-9.543415	0.859657	-1.650372	0.048236	0.221999	-0.092199	0.519517	0.505359	0.567297	-0.391010
54798	-9.523349	0.825307	-1.697843	0.005970	0.267227	-0.107713	0.519536	0.505419	0.567171	-0.391091
54799	-9.528057	0.832342	-1.709972	0.009629	0.280329	-0.100736	0.519490	0.505528	0.567057	-0.391174
54800	-9.577106	0.878409	-1.680070	0.057352	0.251267	-0.053140	0.519411	0.505661	0.566946	-0.391270
54801	-9.563874	0.869531	-1.710300	0.043339	0.281203	-0.062408	0.519380	0.505759	0.566847	-0.391328
54802	-9.563010	0.823517	-1.594203	0.018675	0.160452	-0.084135	0.519333	0.505847	0.566780	-0.391372
54803	-9.585481	0.874845	-1.516986	0.081671	0.090304	-0.069319	0.519310	0.505880	0.566755	-0.391397
54804	-9.568827	0.901238	-1.526239	0.106567	0.106373	-0.082250	0.519373	0.505818	0.566811	-0.391312
54805	-9.579675	0.830296	-1.549425	0.031474	0.114939	-0.073792	0.519467	0.505727	0.566893	-0.391186
54806	-9.599548	0.834972	-1.576369	0.029304	0.138431	-0.049829	0.519483	0.505746	0.566892	-0.391142
54807	-9.568972	0.779285	-1.570457	-0.023748	0.127646	-0.085304	0.519501	0.505802	0.566842	-0.391119
54808	-9.549152	0.781360	-1.578825	-0.023201	0.138731	-0.103427	0.519476	0.505873	0.566814	-0.391101
54809	-9.592047	0.777596	-1.547452	-0.024269	0.099776	-0.066094	0.519443	0.505965	0.566763	-0.391097
54810	-9.619949	0.715544	-1.522611	-0.082815	0.059339	-0.047269	0.519347	0.506113	0.566698	-0.391130
54811	-9.607869	0.710886	-1.459322	-0.075476	-0.002413	-0.068950	0.519223	0.506276	0.566605	-0.391216
54812	-9.622046	0.761198	-1.423316	-0.020320	-0.031984	-0.056275	0.519121	0.506421	0.566495	-0.391325
54813	-9.647540	0.808435	-1.420374	0.025193	-0.030792	-0.027776	0.519088	0.506480	0.566411	-0.391413
54814	-9.644763	0.849641	-1.431531	0.063738	-0.011311	-0.025531	0.519135	0.506434	0.566375	-0.391462
54815	-9.608171	0.841463	-1.486442	0.047715	0.048792	-0.054109	0.519207	0.506367	0.566317	-0.391537
54816	-9.583588	0.866191	-1.533818	0.064806	0.105476	-0.069345	0.519232	0.506349	0.566234	-0.391649
54817	-9.548961	0.869092	-1.526108	0.071155	0.106067	-0.104409	0.519217	0.506372	0.566130	-0.391788
54818	-9.546040	0.880932	-1.610216	0.067993	0.192012	-0.093931	0.519231	0.506372	0.566068	-0.391859
54819	-9.571512	0.860297	-1.594148	0.049269	0.169901	-0.072874	0.519223	0.506386	0.566021	-0.391920
54820	-9.546065	0.878319	-1.611499	0.065417	0.194288	-0.093958	0.519213	0.506387	0.566021	-0.391931
54821	-9.576819	0.901313	-1.567458	0.094335	0.149898	-0.068285	0.519209	0.506380	0.566076	-0.391867
54822	-9.598951	0.855780	-1.551775	0.051246	0.122899	-0.052437	0.519250	0.506316	0.566135	-0.391810
54823	-9.604421	0.897672	-1.523808	0.097633	0.101754	-0.047811	0.519248	0.506259	0.566205	-0.391785
54824	-9.595170	0.948748	-1.513933	0.150739	0.102379	-0.054296	0.519335	0.506103	0.566331	-0.391688
54825	-9.608541	0.894903	-1.505973	0.098899	0.083790	-0.046620	0.519486	0.505876	0.566525	-0.391502
54826	-9.607570	0.857899	-1.548355	0.054874	0.119155	-0.044290	0.519659	0.505642	0.566720	-0.391291
54827	-9.589261	0.773781	-1.554551	-0.028168	0.113846	-0.068174	0.519830	0.505401	0.566934	-0.391065
54828	-9.590776	0.755011	-1.566400	-0.048933	0.121990	-0.066439	0.519914	0.505274	0.567041	-0.390963
54829	-9.585442	0.739241	-1.523939	-0.056167	0.079028	-0.079231	0.519965	0.505181	0.567117	-0.390906
54830	-9.592169	0.755984	-1.474279	-0.030317	0.032612	-0.078586	0.519970	0.505106	0.567199	-0.390876
54831	-9.594208	0.743580	-1.518262	-0.050044	0.072989	-0.071074	0.520033	0.505006	0.567275	-0.390811
54832	-9.572967	0.762021	-1.515431	-0.029969	0.077004	-0.090955	0.520039	0.504970	0.567307	-0.390805
54833	-9.585466	0.800482	-1.541193	0.002851	0.106960	-0.071756	0.520041	0.504942	0.567320	-0.390818
54834	-9.555771	0.818033	-1.578917	0.015150	0.151653	-0.094062	0.520064	0.504881	0.567372	-0.390792
54835	-9.585776	0.804245	-1.575962	0.001187	0.141544	-0.066019	0.520078	0.504806	0.567457	-0.390746
54836	-9.608767	0.832797	-1.604273	0.023295	0.170058	-0.036892	0.520082	0.504789	0.567487	-0.390719
54837	-9.586942	0.844245	-1.570204	0.042318	0.141839	-0.062516	0.520049	0.504788	0.567530	-0.390702
54838	-9.599516	0.843750	-1.511403	0.052642	0.082033	-0.058844	0.520059	0.504730	0.567601	-0.390659
54839	-9.577207	0.826213	-1.550251	0.029983	0.120290	-0.076496	0.520103	0.504636	0.567677	-0.390613
54840	-9.535268	0.811500	-1.595667	0.009280	0.168423	-0.112298	0.520196	0.504528	0.567795	-0.390456
54841	-9.568833	0.792031	-1.541430	-0.001789	0.105792	-0.088763	0.520212	0.504475	0.567918	-0.390324
54842	-9.605946	0.743880	-1.540961	-0.050738	0.089352	-0.056071	0.520212	0.504447	0.568013	-0.390223
54843	-9.596582	0.795416	-1.532459	0.002359	0.089930	-0.062435	0.520168	0.504441	0.568106	-0.390154
54844	-9.615762	0.791650	-1.529134	-0.000875	0.081270	-0.044308	0.520117	0.504447	0.568173	-0.390117
54845	-9.621686	0.780018	-1.554264	-0.016697	0.101305	-0.035650	0.520090	0.504455	0.568223	-0.390070
54846	-9.619536	0.788997	-1.513707	0.000393	0.063242	-0.043076	0.520088	0.504394	0.568284	-0.390062
54847	-9.610588	0.839830	-1.503331	0.053549	0.063798	-0.049400	0.520112	0.504318	0.568339	-0.390050
54848	-9.584832	0.850539	-1.488172	0.068694	0.055847	-0.076197	0.520226	0.504140	0.568453	-0.389959
54849	-9.594243	0.803372	-1.531896	0.014017	0.089850	-0.064183	0.520385	0.503919	0.568579	-0.389850
54850	-9.582559	0.776304	-1.571338	-0.019306	0.126685	-0.072011	0.520550	0.503686	0.568731	-0.389708
54851	-9.569251	0.767004	-1.600679	-0.033150	0.156529	-0.081530	0.520660	0.503516	0.568861	-0.389592
54852	-9.537389	0.735146	-1.615763	-0.065493	0.170928	-0.113233	0.520744	0.503385	0.568972	-0.389487
54853	-9.570561	0.746580	-1.613843	-0.055159	0.165815	-0.079909	0.520734	0.503344	0.569020	-0.389483
54854	-9.576280	0.727446	-1.605656	-0.072032	0.153643	-0.076998	0.520715	0.503352	0.569003	-0.389524
54855	-9.572810	0.754057	-1.553556	-0.035560	0.108602	-0.086035	0.520683	0.503375	0.568981	-0.389568
54856	-9.566448	0.762629	-1.532967	-0.022357	0.090830	-0.094675	0.520615	0.503418	0.568983	-0.389601
54857	-9.583141	0.801188	-1.539687	0.014267	0.100439	-0.074164	0.520478	0.503542	0.568946	-0.389678
54858	-9.595096	0.832246	-1.535018	0.046010	0.098067	-0.060608	0.520349	0.503655	0.568913	-0.389753
54859	-9.593372	0.848166	-1.526851	0.064123	0.092180	-0.062260	0.520265	0.503722	0.568894	-0.389806
54860	-9.593552	0.853803	-1.560781	0.063845	0.125542	-0.056591	0.520244	0.503727	0.568907	-0.389808
54861	-9.608598	0.849896	-1.576416	0.056718	0.137195	-0.039739	0.520233	0.503712	0.568946	-0.389785
54862	-9.580595	0.757607	-1.592305	-0.034920	0.140401	-0.072242	0.520213	0.503705	0.568970	-0.389786
54863	-9.583287	0.773751	-1.563499	-0.012979	0.114224	-0.072595	0.520131	0.503739	0.568991	-0.389820
54864	-9.599719	0.805071	-1.538074	0.022591	0.091560	-0.057713	0.520090	0.503755	0.569017	-0.389816
54865	-9.589069	0.760131	-1.589746	-0.030075	0.135365	-0.064041	0.520116	0.503689	0.569054	-0.389814
54866	-9.568076	0.778197	-1.586284	-0.009958	0.139314	-0.083841	0.520133	0.503615	0.569095	-0.389827
54867	-9.584742	0.809364	-1.559673	0.025564	0.116732	-0.068939	0.520143	0.503556	0.569151	-0.389807
54868	-9.578872	0.824811	-1.570681	0.039896	0.131170	-0.071880	0.520120	0.503518	0.569189	-0.389831
54869	-9.550157	0.817418	-1.587085	0.031978	0.150439	-0.098324	0.520104	0.503492	0.569222	-0.389839
54870	-9.593882	0.818593	-1.587558	0.031518	0.143965	-0.055060	0.520125	0.503422	0.569297	-0.389792
54871	-9.608997	0.814398	-1.602712	0.024403	0.155734	-0.038236	0.520148	0.503356	0.569337	-0.389787
54872	-9.573789	0.810099	-1.565125	0.029887	0.123817	-0.078876	0.520112	0.503316	0.569433	-0.389747
54873	-9.564456	0.800614	-1.576094	0.019910	0.133324	-0.087169	0.520098	0.503290	0.569495	-0.389708
54874	-9.555103	0.791681	-1.586858	0.009949	0.142875	-0.095468	0.520126	0.503228	0.569591	-0.389611
54875	-9.549546	0.722884	-1.598064	-0.059422	0.141200	-0.104611	0.520180	0.503141	0.569727	-0.389452
54876	-9.571959	0.744748	-1.595926	-0.038417	0.137477	-0.081107	0.520098	0.503195	0.569793	-0.389397
54877	-9.597309	0.784092	-1.563743	0.005837	0.106480	-0.057840	0.519969	0.503287	0.569851	-0.389363
54878	-9.610301	0.790346	-1.539135	0.017042	0.078944	-0.048214	0.519860	0.503350	0.569906	-0.389348
54879	-9.590034	0.783909	-1.517064	0.016735	0.057569	-0.071991	0.519761	0.503442	0.569910	-0.389356
54880	-9.625239	0.745710	-1.474728	-0.014105	0.002092	-0.046627	0.519686	0.503513	0.569932	-0.389330
54881	-9.670296	0.736924	-1.519376	-0.032964	0.034958	0.003823	0.519600	0.503602	0.569909	-0.389364
54882	-9.692934	0.758338	-1.516479	-0.012048	0.031280	0.027365	0.519555	0.503623	0.569931	-0.389364
54883	-9.623555	0.773607	-1.535008	0.003583	0.062936	-0.037026	0.519525	0.503612	0.569940	-0.389406
54884	-9.560422	0.778211	-1.574690	0.004710	0.113519	-0.092913	0.519576	0.503487	0.569983	-0.389437
54885	-9.483437	0.760172	-1.578418	-0.008758	0.128288	-0.169643	0.519648	0.503318	0.570060	-0.389447
54886	-9.498699	0.755314	-1.592644	-0.015924	0.140022	-0.152851	0.519705	0.503185	0.570160	-0.389395
54887	-9.569566	0.733328	-1.651894	-0.051392	0.182125	-0.075783	0.519708	0.503144	0.570219	-0.389360
54888	-9.600009	0.779882	-1.629928	-0.002354	0.162993	-0.045473	0.519585	0.503248	0.570224	-0.389381
54889	-9.577100	0.808964	-1.586505	0.036164	0.127507	-0.072323	0.519451	0.503385	0.570216	-0.389394
54890	-9.575878	0.747104	-1.610447	-0.028339	0.137887	-0.074653	0.519294	0.503552	0.570144	-0.389493
54891	-9.593459	0.746410	-1.532492	-0.014468	0.057746	-0.069147	0.519141	0.503723	0.570059	-0.389601
54892	-9.606950	0.759903	-1.538510	-0.002218	0.062449	-0.053894	0.518998	0.503861	0.570001	-0.389697
54893	-9.611303	0.765583	-1.552997	0.001380	0.075543	-0.046964	0.518887	0.503952	0.569983	-0.389754
54894	-9.571887	0.775681	-1.600641	0.005315	0.128352	-0.077788	0.518743	0.504066	0.569981	-0.389801
54895	-9.549366	0.811740	-1.588542	0.044942	0.125130	-0.099032	0.518668	0.504128	0.569977	-0.389827
54896	-9.549519	0.732072	-1.621999	-0.038868	0.142476	-0.099897	0.518658	0.504093	0.570056	-0.389768
54897	-9.606815	0.740957	-1.594774	-0.026959	0.107404	-0.046882	0.518611	0.504088	0.570099	-0.389775
54898	-9.624975	0.754324	-1.579853	-0.010928	0.091783	-0.030227	0.518557	0.504101	0.570116	-0.389807
54899	-9.584202	0.767935	-1.551653	0.010318	0.072952	-0.073650	0.518504	0.504147	0.570105	-0.389834
54900	-9.600368	0.746135	-1.578017	-0.016230	0.091729	-0.055370	0.518453	0.504185	0.570078	-0.389891
54901	-9.549458	0.783964	-1.611233	0.018014	0.138781	-0.097584	0.518357	0.504246	0.570050	-0.389980
54902	-9.555058	0.771840	-1.636226	0.002190	0.158947	-0.089167	0.518235	0.504359	0.570034	-0.390020
54903	-9.573129	0.793032	-1.654199	0.019319	0.175595	-0.066978	0.518154	0.504450	0.570012	-0.390043
54904	-9.538132	0.804124	-1.681308	0.027159	0.208013	-0.096445	0.518056	0.504550	0.570007	-0.390052
54905	-9.472889	0.820780	-1.681006	0.046847	0.219155	-0.159457	0.517951	0.504680	0.570003	-0.390027
54906	-9.554969	0.789539	-1.544697	0.037570	0.064370	-0.101799	0.517786	0.504860	0.570036	-0.389964
54907	-9.647634	0.776639	-1.539518	0.021862	0.037470	-0.012267	0.517615	0.505023	0.570088	-0.389906
54908	-9.689575	0.795758	-1.533319	0.040573	0.024178	0.029565	0.517445	0.505179	0.570084	-0.389933
54909	-9.638189	0.812542	-1.472768	0.071489	-0.025595	-0.029120	0.517393	0.505185	0.570169	-0.389872
54910	-9.618499	0.728020	-1.480172	-0.011329	-0.030732	-0.053826	0.517435	0.505103	0.570236	-0.389824
54911	-9.648450	0.713642	-1.477728	-0.025508	-0.040549	-0.025796	0.517410	0.505052	0.570299	-0.389831
54912	-9.642582	0.813605	-1.489443	0.072488	-0.010175	-0.022160	0.517387	0.504964	0.570341	-0.389915
54913	-9.648559	0.885489	-1.512921	0.140338	0.025948	-0.007212	0.517425	0.504837	0.570369	-0.389988
54914	-9.568193	0.856579	-1.578311	0.105076	0.100225	-0.078520	0.517514	0.504652	0.570423	-0.390030
54915	-9.564138	0.782419	-1.659945	0.018587	0.170279	-0.075594	0.517631	0.504445	0.570466	-0.390079
54916	-9.534648	0.806433	-1.726356	0.032551	0.246961	-0.092703	0.517724	0.504244	0.570536	-0.390113
54917	-9.539688	0.825468	-1.801304	0.038331	0.324553	-0.074877	0.517839	0.504015	0.570665	-0.390067
54918	-9.554962	0.820265	-1.815113	0.031186	0.336274	-0.058164	0.517944	0.503791	0.570809	-0.390007
54919	-9.545876	0.803367	-1.791595	0.020155	0.313473	-0.072036	0.518113	0.503523	0.570989	-0.389865
54920	-9.532033	0.765247	-1.692465	0.002020	0.214160	-0.103732	0.518290	0.503281	0.571145	-0.389714
54921	-9.508789	0.726697	-1.634782	-0.023646	0.155513	-0.138343	0.518378	0.503091	0.571345	-0.389550
54922	-9.568517	0.699950	-1.629239	-0.050876	0.134818	-0.082318	0.518460	0.502922	0.571537	-0.389377
54923	-9.569306	0.673493	-1.610561	-0.072750	0.110747	-0.086355	0.518509	0.502791	0.571710	-0.389226
54924	-9.568990	0.664751	-1.581094	-0.075111	0.079567	-0.091816	0.518559	0.502676	0.571854	-0.389098
54925	-9.588360	0.660838	-1.577072	-0.078601	0.071046	-0.073628	0.518576	0.502613	0.571938	-0.389033
54926	-9.590629	0.702105	-1.568889	-0.036149	0.069964	-0.069570	0.518600	0.502546	0.571996	-0.389001
54927	-9.620530	0.695610	-1.597977	-0.049284	0.092476	-0.036133	0.518693	0.502433	0.572063	-0.388926
54928	-9.605526	0.697204	-1.584494	-0.044630	0.082846	-0.052873	0.518823	0.502249	0.572191	-0.388801
54929	-9.584809	0.723462	-1.612274	-0.023116	0.118828	-0.067086	0.518918	0.502097	0.572289	-0.388727
54930	-9.544483	0.744827	-1.614324	-0.000603	0.132101	-0.104932	0.519002	0.501969	0.572373	-0.388655
54931	-9.559427	0.740873	-1.629204	-0.007800	0.143923	-0.088230	0.519077	0.501846	0.572463	-0.388581
54932	-9.574413	0.729623	-1.611979	-0.016138	0.123428	-0.076943	0.519180	0.501713	0.572535	-0.388511
54933	-9.592974	0.743619	-1.595514	-0.000213	0.107839	-0.060141	0.519274	0.501587	0.572616	-0.388427
54934	-9.579019	0.727449	-1.593076	-0.014958	0.105361	-0.075473	0.519349	0.501470	0.572700	-0.388356
54935	-9.578997	0.718827	-1.562001	-0.017426	0.074147	-0.080887	0.519406	0.501402	0.572734	-0.388316
54936	-9.568563	0.735614	-1.592291	-0.006764	0.108816	-0.085302	0.519468	0.501353	0.572753	-0.388268
54937	-9.597436	0.732566	-1.546479	-0.002856	0.059646	-0.064074	0.519549	0.501291	0.572772	-0.388214
54938	-9.596901	0.661511	-1.610737	-0.085473	0.109425	-0.060082	0.519610	0.501228	0.572803	-0.388166
54939	-9.585405	0.703269	-1.661953	-0.054215	0.169303	-0.060505	0.519629	0.501211	0.572785	-0.388189
54940	-9.602970	0.727417	-1.602752	-0.020065	0.114306	-0.050438	0.519664	0.501194	0.572759	-0.388202
54941	-9.548776	0.734486	-1.601065	-0.010902	0.123916	-0.103592	0.519737	0.501137	0.572749	-0.388192
54942	-9.583330	0.728530	-1.609599	-0.020408	0.126190	-0.068692	0.519755	0.501133	0.572739	-0.388188
54943	-9.570693	0.788222	-1.650483	0.030258	0.178882	-0.070479	0.519791	0.501114	0.572761	-0.388132
54944	-9.565849	0.772905	-1.608571	0.022942	0.135788	-0.082765	0.519816	0.501113	0.572787	-0.388061
54945	-9.564043	0.704836	-1.599591	-0.042617	0.114032	-0.090980	0.519822	0.501136	0.572794	-0.388013
54946	-9.576742	0.729279	-1.561915	-0.012220	0.079381	-0.082376	0.519783	0.501192	0.572761	-0.388042
54947	-9.578167	0.781092	-1.510803	0.048392	0.038828	-0.084889	0.519759	0.501227	0.572746	-0.388052
54948	-9.641485	0.780156	-1.505853	0.045175	0.023181	-0.023311	0.519803	0.501215	0.572760	-0.387988
54949	-9.609662	0.747259	-1.595333	-0.003814	0.109152	-0.043493	0.519850	0.501192	0.572752	-0.387966
54950	-9.597306	0.791894	-1.571543	0.044526	0.097219	-0.055962	0.519909	0.501148	0.572732	-0.387974
54951	-9.559154	0.771316	-1.562842	0.027167	0.092332	-0.096435	0.519976	0.501102	0.572728	-0.387949
54952	-9.575056	0.750382	-1.588476	0.000557	0.111324	-0.078437	0.519990	0.501098	0.572713	-0.387959
54953	-9.563612	0.777200	-1.576325	0.029529	0.106474	-0.089555	0.519970	0.501135	0.572685	-0.387978
54954	-9.574787	0.748758	-1.590861	-0.002045	0.113532	-0.078463	0.519992	0.501139	0.572668	-0.387967
54955	-9.575712	0.723056	-1.571095	-0.023901	0.089515	-0.082486	0.520004	0.501149	0.572659	-0.387953
54956	-9.580184	0.729890	-1.583985	-0.020348	0.102624	-0.075608	0.520014	0.501163	0.572631	-0.387962
54957	-9.559347	0.756889	-1.612081	0.001253	0.138433	-0.089846	0.519992	0.501216	0.572576	-0.388005
54958	-9.567588	0.781103	-1.593664	0.027951	0.124109	-0.082711	0.519970	0.501268	0.572504	-0.388073
54959	-9.581423	0.795209	-1.597951	0.040109	0.128815	-0.067367	0.519956	0.501306	0.572472	-0.388091
54960	-9.594156	0.827092	-1.591967	0.071666	0.126358	-0.053324	0.519976	0.501283	0.572525	-0.388014
54961	-9.554495	0.839251	-1.637935	0.076102	0.178879	-0.084494	0.520012	0.501237	0.572597	-0.387920
54962	-9.546929	0.788703	-1.638262	0.026230	0.170290	-0.095686	0.520113	0.501131	0.572718	-0.387742
54963	-9.556962	0.770849	-1.611223	0.012985	0.137773	-0.091236	0.520156	0.501067	0.572849	-0.387574
54964	-9.587583	0.732539	-1.589395	-0.022041	0.102929	-0.067255	0.520159	0.501068	0.572905	-0.387485
54965	-9.658290	0.766717	-1.523374	0.020814	0.032471	-0.005057	0.520150	0.501096	0.572926	-0.387430
54966	-9.659207	0.733472	-1.472950	-0.002269	-0.023844	-0.014357	0.520191	0.501039	0.573023	-0.387307
54967	-9.626540	0.695253	-1.456363	-0.035232	-0.042001	-0.051968	0.520288	0.500921	0.573100	-0.387215
54968	-9.590045	0.646969	-1.501939	-0.090165	-0.000384	-0.084624	0.520376	0.500814	0.573170	-0.387132
54969	-9.608552	0.668336	-1.517585	-0.073188	0.016340	-0.062385	0.520386	0.500798	0.573151	-0.387166
54970	-9.586749	0.719914	-1.565793	-0.031026	0.077317	-0.072626	0.520348	0.500857	0.573045	-0.387297
54971	-9.550040	0.774138	-1.599973	0.017174	0.127376	-0.099503	0.520295	0.500936	0.572958	-0.387394
54972	-9.561200	0.745487	-1.614258	-0.014450	0.134415	-0.088499	0.520261	0.501027	0.572864	-0.387463
54973	-9.544243	0.694618	-1.654122	-0.071617	0.166430	-0.102983	0.520174	0.501166	0.572742	-0.387580
54974	-9.610422	0.728031	-1.607800	-0.032501	0.116293	-0.042289	0.520008	0.501359	0.572633	-0.387714
54975	-9.587728	0.782127	-1.583173	0.026716	0.105507	-0.064311	0.519939	0.501451	0.572560	-0.387796
54976	-9.580951	0.816389	-1.582910	0.060584	0.112686	-0.068440	0.519937	0.501476	0.572531	-0.387808
54977	-9.593026	0.770125	-1.608068	0.009642	0.126870	-0.056206	0.519972	0.501432	0.572540	-0.387805
54978	-9.567802	0.789007	-1.623284	0.026440	0.150662	-0.077338	0.519986	0.501422	0.572458	-0.387921
54979	-9.522630	0.825683	-1.707979	0.048001	0.248606	-0.106230	0.520032	0.501378	0.572442	-0.387939
54980	-9.559271	0.769480	-1.674957	-0.002790	0.200720	-0.079396	0.520100	0.501319	0.572499	-0.387841
54981	-9.555257	0.743900	-1.676304	-0.028308	0.196985	-0.085061	0.520027	0.501410	0.572488	-0.387836
54982	-9.553933	0.760670	-1.668110	-0.010143	0.190903	-0.086316	0.519963	0.501483	0.572481	-0.387838
54983	-9.557375	0.777628	-1.639822	0.011728	0.164452	-0.085923	0.519895	0.501587	0.572469	-0.387814
54984	-9.628993	0.801730	-1.616819	0.036185	0.133499	-0.017013	0.519845	0.501676	0.572424	-0.387831
54985	-9.598890	0.813587	-1.621801	0.048215	0.145311	-0.045016	0.519815	0.501706	0.572378	-0.387901
54986	-9.571337	0.870076	-1.540951	0.120869	0.083033	-0.080239	0.519847	0.501650	0.572356	-0.387963
54987	-9.575755	0.890731	-1.615941	0.126764	0.160779	-0.062926	0.519984	0.501441	0.572448	-0.387914
54988	-9.611217	0.873402	-1.666443	0.098851	0.202659	-0.021644	0.520174	0.501135	0.572654	-0.387750
54989	-9.583300	0.849282	-1.691360	0.071976	0.228793	-0.047233	0.520401	0.500792	0.572873	-0.387566
54990	-9.563145	0.860693	-1.654195	0.091227	0.199944	-0.071918	0.520630	0.500486	0.573080	-0.387346
54991	-9.518590	0.765299	-1.622829	0.004934	0.160061	-0.127793	0.520889	0.500202	0.573279	-0.387071
54992	-9.542180	0.669386	-1.566226	-0.079913	0.083363	-0.120370	0.521022	0.500038	0.573444	-0.386858
54993	-9.580061	0.585867	-1.588522	-0.168466	0.082220	-0.085968	0.521030	0.500055	0.573460	-0.386803
54994	-9.657665	0.583881	-1.524577	-0.161151	0.005981	-0.019335	0.520892	0.500203	0.573412	-0.386869
54995	-9.603188	0.590496	-1.524843	-0.151596	0.015191	-0.072470	0.520724	0.500398	0.573279	-0.387039
54996	-9.628717	0.663618	-1.468030	-0.069193	-0.030200	-0.050414	0.520571	0.500585	0.573095	-0.387276
54997	-9.644664	0.744347	-1.481840	0.007089	-0.002646	-0.026503	0.520515	0.500660	0.572922	-0.387510
54998	-9.626986	0.820027	-1.529089	0.073579	0.063085	-0.031071	0.520456	0.500712	0.572749	-0.387778
54999	-9.609455	0.895383	-1.575955	0.140113	0.128849	-0.035636	0.520417	0.500750	0.572562	-0.388057
55000	-9.554561	0.933223	-1.625035	0.171479	0.195504	-0.079566	0.520355	0.500763	0.572450	-0.388290
55001	-9.577533	0.970142	-1.608263	0.211427	0.184766	-0.056767	0.520318	0.500766	0.572362	-0.388464
55002	-9.584851	0.930087	-1.683693	0.157969	0.251752	-0.041253	0.520375	0.500689	0.572313	-0.388559
55003	-9.572092	0.895645	-1.690062	0.123976	0.256302	-0.055517	0.520441	0.500595	0.572282	-0.388637
55004	-9.545212	0.846312	-1.693700	0.076593	0.257216	-0.085206	0.520490	0.500501	0.572300	-0.388665
55005	-9.533221	0.786564	-1.680460	0.022018	0.236725	-0.103496	0.520541	0.500370	0.572370	-0.388665
55006	-9.612297	0.758200	-1.593191	0.008639	0.135351	-0.040738	0.520620	0.500218	0.572457	-0.388626
55007	-9.589851	0.716262	-1.609265	-0.033886	0.148272	-0.063592	0.520745	0.500004	0.572570	-0.388566
55008	-9.576198	0.691700	-1.573916	-0.049725	0.113338	-0.084177	0.520848	0.499825	0.572664	-0.388522
55009	-9.551903	0.692873	-1.599893	-0.052292	0.144165	-0.104183	0.520977	0.499645	0.572756	-0.388443
55010	-9.550826	0.606099	-1.599968	-0.137216	0.129685	-0.111662	0.521099	0.499481	0.572829	-0.388383
55011	-9.576294	0.576708	-1.553204	-0.157926	0.075861	-0.095705	0.521156	0.499405	0.572864	-0.388352
55012	-9.620157	0.577358	-1.553722	-0.159218	0.070090	-0.052331	0.521128	0.499445	0.572806	-0.388423
55013	-9.629558	0.583383	-1.545899	-0.152055	0.062803	-0.043784	0.521053	0.499555	0.572679	-0.388570
55014	-9.620667	0.677292	-1.543326	-0.058733	0.080701	-0.046017	0.520935	0.499710	0.572477	-0.388827
55015	-9.609072	0.721009	-1.518319	-0.010417	0.068569	-0.057965	0.520917	0.499788	0.572298	-0.389016
55016	-9.545752	0.720653	-1.523671	-0.009211	0.086033	-0.119659	0.520894	0.499851	0.572159	-0.389169
55017	-9.549343	0.759817	-1.588023	0.016199	0.156580	-0.103707	0.520813	0.500014	0.571964	-0.389355
55018	-9.564112	0.756263	-1.603053	0.008862	0.168566	-0.087181	0.520662	0.500251	0.571765	-0.389544
55019	-9.557482	0.790637	-1.603260	0.042739	0.175549	-0.091146	0.520464	0.500539	0.571551	-0.389754
55020	-9.550916	0.817579	-1.572296	0.075357	0.150241	-0.100206	0.520254	0.500846	0.571349	-0.389936
55021	-9.581334	0.778820	-1.550732	0.040063	0.115721	-0.076245	0.520079	0.501093	0.571204	-0.390063
55022	-9.636641	0.734498	-1.577565	-0.011018	0.123266	-0.020970	0.519921	0.501314	0.571070	-0.390187
55023	-9.603943	0.806668	-1.582561	0.060443	0.145715	-0.047133	0.519781	0.501497	0.570916	-0.390363
55024	-9.620315	0.872936	-1.534829	0.134310	0.108587	-0.033202	0.519716	0.501559	0.570870	-0.390437
55025	-9.609307	0.899300	-1.522456	0.163360	0.103657	-0.043963	0.519782	0.501460	0.570910	-0.390417
55026	-9.616021	0.855206	-1.492132	0.125729	0.066528	-0.045115	0.519928	0.501258	0.571024	-0.390317
55027	-9.607485	0.828732	-1.511386	0.096548	0.083099	-0.052635	0.520059	0.501063	0.571149	-0.390208
55028	-9.584454	0.790289	-1.453118	0.071058	0.024150	-0.086834	0.520192	0.500883	0.571281	-0.390069
55029	-9.592060	0.726650	-1.509120	-0.003010	0.066103	-0.075711	0.520335	0.500737	0.571388	-0.389910
55030	-9.619426	0.652871	-1.527786	-0.080800	0.066252	-0.051395	0.520397	0.500661	0.571468	-0.389807
55031	-9.612523	0.576887	-1.506514	-0.151197	0.032542	-0.066967	0.520413	0.500659	0.571469	-0.389787
55032	-9.642556	0.555418	-1.471811	-0.167143	-0.009177	-0.044086	0.520376	0.500740	0.571342	-0.389920
55033	-9.654456	0.621282	-1.442553	-0.097018	-0.025957	-0.031819	0.520261	0.500848	0.571193	-0.390151
55034	-9.640884	0.722095	-1.491358	-0.006197	0.044504	-0.030551	0.520274	0.500847	0.571045	-0.390351
55035	-9.614486	0.782855	-1.514462	0.050828	0.086027	-0.048732	0.520339	0.500740	0.570963	-0.390523
55036	-9.590322	0.798051	-1.601289	0.050842	0.181598	-0.058728	0.520498	0.500533	0.570928	-0.390627
55037	-9.545121	0.851717	-1.671976	0.092212	0.272092	-0.089122	0.520704	0.500271	0.570949	-0.390657
55038	-9.515959	0.862816	-1.672671	0.104372	0.283746	-0.117103	0.520950	0.499927	0.571093	-0.390560
55039	-9.576188	0.835140	-1.663155	0.076164	0.263857	-0.061200	0.521237	0.499581	0.571215	-0.390441
55040	-9.562776	0.811684	-1.625524	0.060357	0.228922	-0.081716	0.521547	0.499189	0.571409	-0.390245
55041	-9.568944	0.785347	-1.582116	0.042111	0.184613	-0.083931	0.521887	0.498760	0.571612	-0.390041
55042	-9.586733	0.713637	-1.563078	-0.025941	0.153614	-0.074430	0.522248	0.498303	0.571854	-0.389786
55043	-9.563566	0.690420	-1.566403	-0.048930	0.159351	-0.098559	0.522561	0.497893	0.572075	-0.389567
55044	-9.581889	0.729287	-1.569071	-0.012705	0.168999	-0.077303	0.522850	0.497518	0.572305	-0.389321
55045	-9.593755	0.675563	-1.561348	-0.065039	0.151151	-0.070652	0.523124	0.497172	0.572539	-0.389051
55046	-9.609583	0.646741	-1.554192	-0.093023	0.138111	-0.058194	0.523299	0.496958	0.572615	-0.388977
55047	-9.553725	0.698893	-1.486042	-0.026165	0.092882	-0.119332	0.523396	0.496845	0.572627	-0.388973
55048	-9.627714	0.678534	-1.450064	-0.042510	0.044562	-0.052965	0.523498	0.496758	0.572621	-0.388957
55049	-9.613566	0.670980	-1.478290	-0.055741	0.074250	-0.063453	0.523568	0.496731	0.572567	-0.388975
55050	-9.568037	0.719490	-1.519986	-0.015576	0.132310	-0.098903	0.523580	0.496767	0.572489	-0.389028
55051	-9.581998	0.741462	-1.555528	-0.002318	0.169471	-0.078449	0.523546	0.496852	0.572393	-0.389107
55052	-9.573102	0.716300	-1.576087	-0.031466	0.186145	-0.086137	0.523551	0.496909	0.572336	-0.389110
55053	-9.558717	0.701328	-1.574554	-0.045944	0.183535	-0.101644	0.523498	0.497021	0.572270	-0.389136
55054	-9.616910	0.693973	-1.483870	-0.038048	0.084668	-0.057699	0.523402	0.497187	0.572135	-0.389252
55055	-9.590287	0.748912	-1.477905	0.017765	0.093674	-0.080803	0.523326	0.497323	0.571983	-0.389403
55056	-9.593573	0.782839	-1.436975	0.058846	0.059922	-0.080918	0.523187	0.497531	0.571833	-0.389545
55057	-9.606188	0.832275	-1.419182	0.109518	0.050298	-0.067377	0.523174	0.497638	0.571679	-0.389651
55058	-9.637810	0.781669	-1.512406	0.039010	0.127424	-0.026575	0.523229	0.497632	0.571618	-0.389676
55059	-9.638059	0.773294	-1.480236	0.036505	0.096169	-0.031548	0.523313	0.497558	0.571600	-0.389684
55060	-9.607758	0.803008	-1.471985	0.068135	0.100390	-0.060464	0.523491	0.497334	0.571705	-0.389575
55061	-9.590312	0.759910	-1.541882	0.012519	0.164958	-0.070943	0.523707	0.497049	0.571844	-0.389445
55062	-9.560918	0.764220	-1.512437	0.023519	0.144027	-0.103859	0.523939	0.496760	0.571997	-0.389276
55063	-9.570746	0.755127	-1.440136	0.028123	0.072173	-0.105093	0.524121	0.496536	0.572158	-0.389082
55064	-9.576699	0.727620	-1.474430	-0.007113	0.099863	-0.096385	0.524357	0.496295	0.572325	-0.388826
55065	-9.594702	0.637901	-1.545105	-0.111477	0.148144	-0.075224	0.524479	0.496189	0.572429	-0.388642
55066	-9.623938	0.618624	-1.437204	-0.110750	0.034582	-0.063074	0.524494	0.496203	0.572453	-0.388571
55067	-9.634085	0.592515	-1.378343	-0.125497	-0.030108	-0.063336	0.524470	0.496274	0.572429	-0.388547
55068	-9.633469	0.593912	-1.305722	-0.109922	-0.101004	-0.074152	0.524369	0.496431	0.572326	-0.388634
55069	-9.612644	0.629713	-1.365779	-0.086675	-0.033126	-0.083545	0.524271	0.496620	0.572164	-0.388764
55070	-9.680035	0.653263	-1.361373	-0.066843	-0.043086	-0.015910	0.524186	0.496830	0.571957	-0.388914
55071	-9.652969	0.732266	-1.450467	-0.007110	0.063018	-0.024130	0.524061	0.497051	0.571740	-0.389121
55072	-9.565963	0.846821	-1.502913	0.097947	0.150136	-0.094078	0.524020	0.497156	0.571577	-0.389279
55073	-9.549596	0.899079	-1.530140	0.144175	0.190472	-0.102518	0.524044	0.497139	0.571533	-0.389334
55074	-9.593997	0.890054	-1.573419	0.124415	0.224658	-0.053247	0.524055	0.497157	0.571505	-0.389338
55075	-9.633289	0.875623	-1.531046	0.116567	0.174799	-0.021521	0.524017	0.497231	0.571441	-0.389387
55076	-9.597608	0.907734	-1.469981	0.161478	0.127379	-0.062990	0.524033	0.497234	0.571416	-0.389399
55077	-9.509631	0.903827	-1.471656	0.161065	0.141648	-0.149885	0.524100	0.497139	0.571527	-0.389268
55078	-9.501325	0.853001	-1.472823	0.111370	0.133209	-0.161685	0.524209	0.496951	0.571767	-0.389008
55079	-9.590630	0.803263	-1.508953	0.051025	0.142968	-0.072086	0.524350	0.496760	0.572029	-0.388676
55080	-9.645551	0.751951	-1.505637	-0.001848	0.118597	-0.022133	0.524473	0.496594	0.572305	-0.388316
55081	-9.614530	0.782750	-1.501717	0.029939	0.122728	-0.050972	0.524536	0.496488	0.572502	-0.388076
55082	-9.631744	0.831431	-1.466568	0.084125	0.092722	-0.035319	0.524527	0.496420	0.572702	-0.387880
55083	-9.648547	0.751387	-1.423179	0.014679	0.029489	-0.030898	0.524494	0.496392	0.572859	-0.387728
55084	-9.627095	0.789741	-1.336372	0.071606	-0.046701	-0.061625	0.524444	0.496384	0.573003	-0.387594
55085	-9.656652	0.767177	-1.305788	0.055340	-0.088264	-0.038552	0.524402	0.496358	0.573162	-0.387449
55086	-9.631875	0.761704	-1.304249	0.051762	-0.089862	-0.063661	0.524451	0.496263	0.573369	-0.387197
55087	-9.580789	0.665546	-1.372369	-0.054341	-0.037682	-0.111477	0.524542	0.496144	0.573582	-0.386911
55088	-9.621470	0.597492	-1.441386	-0.137180	0.006238	-0.066487	0.524490	0.496182	0.573699	-0.386760
55089	-9.679030	0.612760	-1.448483	-0.125812	0.004640	-0.007518	0.524339	0.496334	0.573643	-0.386853
55090	-9.627514	0.678148	-1.501208	-0.069414	0.075441	-0.045804	0.524183	0.496482	0.573560	-0.386997
55091	-9.577042	0.717709	-1.532601	-0.033690	0.121117	-0.088085	0.524056	0.496589	0.573481	-0.387149
55092	-9.512611	0.732772	-1.603836	-0.029211	0.202673	-0.140196	0.523916	0.496683	0.573456	-0.387254
55093	-9.529648	0.796050	-1.630718	0.027519	0.237384	-0.114748	0.523890	0.496675	0.573515	-0.387213
55094	-9.572753	0.804469	-1.665730	0.027058	0.264385	-0.066468	0.523901	0.496619	0.573674	-0.387034
55095	-9.542016	0.825421	-1.704122	0.040798	0.308099	-0.089580	0.523961	0.496525	0.573850	-0.386812
55096	-9.575608	0.828484	-1.673662	0.048774	0.271346	-0.060570	0.523913	0.496507	0.574001	-0.386676
55097	-9.544584	0.876737	-1.583401	0.116767	0.196139	-0.100694	0.523881	0.496470	0.574114	-0.386601
55098	-9.588840	0.869880	-1.480568	0.130472	0.086351	-0.072557	0.523867	0.496383	0.574300	-0.386454
55099	-9.604948	0.814413	-1.457527	0.081607	0.048366	-0.064165	0.523893	0.496227	0.574547	-0.386252
55100	-9.619169	0.809585	-1.475998	0.074142	0.060475	-0.047789	0.523881	0.496092	0.574804	-0.386060
55101	-9.678465	0.945167	-1.385373	0.224606	-0.012395	0.007429	0.523867	0.495988	0.575026	-0.385881
55102	-9.727585	0.926637	-1.380273	0.206837	-0.030884	0.053720	0.523881	0.495871	0.575199	-0.385754
55103	-9.628245	0.820662	-1.360223	0.113466	-0.056297	-0.055088	0.523807	0.495832	0.575268	-0.385802
55104	-9.557263	0.733994	-1.389521	0.028340	-0.034472	-0.127193	0.523629	0.495889	0.575285	-0.385946
55105	-9.449131	0.729027	-1.471992	0.014172	0.060649	-0.222044	0.523425	0.495952	0.575302	-0.386116
55106	-9.554914	0.748869	-1.565907	0.012890	0.136703	-0.102363	0.523290	0.495944	0.575459	-0.386075
55107	-9.668183	0.683471	-1.621793	-0.065075	0.156854	0.012905	0.523286	0.495806	0.575709	-0.385885
55108	-9.666535	0.553011	-1.618168	-0.190060	0.124900	0.001306	0.523250	0.495724	0.575913	-0.385734
55109	-9.616976	0.404983	-1.570295	-0.320504	0.054964	-0.065363	0.523097	0.495760	0.575969	-0.385812
55110	-9.540452	0.499265	-1.593945	-0.227310	0.108236	-0.130396	0.522869	0.495906	0.575879	-0.386069
55111	-9.600075	0.622443	-1.618500	-0.111736	0.147019	-0.059005	0.522752	0.495948	0.575852	-0.386213
55112	-9.689827	0.535588	-1.676097	-0.211220	0.171807	0.031842	0.522751	0.495976	0.575779	-0.386287
55113	-9.732695	0.416438	-1.625888	-0.318737	0.093807	0.058072	0.522675	0.496059	0.575678	-0.386433
55114	-9.677696	0.501819	-1.533994	-0.212750	0.033329	-0.003692	0.522578	0.496125	0.575457	-0.386809
55115	-9.526082	0.719844	-1.518574	0.012574	0.091636	-0.139946	0.522598	0.495936	0.575330	-0.387213
55116	-9.409831	0.868408	-1.660535	0.136076	0.285351	-0.223293	0.522909	0.495458	0.575338	-0.387394
55117	-9.618383	0.805598	-1.610882	0.076946	0.200671	-0.029486	0.523357	0.494932	0.575464	-0.387274
55118	-9.775193	0.659908	-1.509556	-0.051933	0.055371	0.100075	0.523736	0.494513	0.575585	-0.387116
55119	-9.710845	0.730154	-1.466105	0.027646	0.042865	0.035180	0.523938	0.494257	0.575576	-0.387184
55120	-9.436269	0.799398	-1.486630	0.102316	0.125894	-0.228015	0.524204	0.493883	0.575589	-0.387282
55121	-9.312912	0.653245	-1.625559	-0.065047	0.256061	-0.340111	0.524537	0.493520	0.575677	-0.387163
55122	-9.457040	0.354362	-1.689001	-0.378752	0.237526	-0.209874	0.524815	0.493376	0.575720	-0.386906
55123	-9.617163	0.193966	-1.660956	-0.540276	0.151392	-0.067360	0.524726	0.493775	0.575519	-0.386817
55124	-9.653673	0.278721	-1.598307	-0.450251	0.097610	-0.034476	0.524335	0.494562	0.575060	-0.387024
55125	-9.630672	0.568921	-1.590218	-0.167534	0.147078	-0.037586	0.523874	0.495410	0.574455	-0.387461
55126	-9.580880	0.758678	-1.619164	0.011581	0.218236	-0.068829	0.523630	0.495921	0.574035	-0.387761
55127	-9.579361	0.793638	-1.672147	0.032285	0.276687	-0.060124	0.523619	0.496161	0.573739	-0.387907
55128	-9.673303	0.800366	-1.502150	0.066526	0.100590	0.008478	0.523628	0.496379	0.573415	-0.388095
55129	-9.668095	0.990426	-1.527030	0.244899	0.165302	0.020803	0.523682	0.496476	0.573163	-0.388269
55130	-9.646419	1.240681	-1.609674	0.472181	0.301473	0.029563	0.523801	0.496429	0.572975	-0.388446
55131	-9.587665	1.445300	-1.660472	0.663632	0.405895	-0.006352	0.524089	0.496122	0.572912	-0.388544
55132	-9.566656	1.361916	-1.661397	0.581550	0.400880	-0.033268	0.524512	0.495638	0.573074	-0.388350
55133	-9.628608	1.113684	-1.517896	0.364128	0.208771	-0.010737	0.524890	0.495149	0.573363	-0.388037
55134	-9.711502	0.963293	-1.433887	0.230189	0.087405	0.048175	0.525074	0.494911	0.573518	-0.387862
55135	-9.646525	0.845441	-1.388752	0.126785	0.031303	-0.030980	0.525127	0.494845	0.573552	-0.387826
55136	-9.658949	0.729288	-1.459541	-0.001782	0.075360	-0.017191	0.525054	0.494937	0.573461	-0.387941
55137	-9.588897	0.592493	-1.520985	-0.144657	0.118986	-0.087653	0.524931	0.495082	0.573322	-0.388127
55138	-9.539358	0.418286	-1.526174	-0.312338	0.095900	-0.148487	0.524554	0.495452	0.573179	-0.388375
55139	-9.611875	0.240743	-1.468865	-0.474000	-0.009786	-0.097808	0.523882	0.496108	0.572926	-0.388820
55140	-9.663876	0.109152	-1.353078	-0.576051	-0.160570	-0.072276	0.522724	0.497279	0.572287	-0.389822
55141	-9.648035	0.168939	-1.193956	-0.478234	-0.304449	-0.106131	0.521324	0.498710	0.571318	-0.391286
55142	-9.642255	0.404828	-1.118119	-0.225087	-0.333788	-0.105727	0.520166	0.499884	0.570354	-0.392733
55143	-9.690801	0.613500	-1.128217	-0.019906	-0.290915	-0.041513	0.519762	0.500339	0.569784	-0.393517
55144	-9.719387	0.675084	-1.108296	0.043692	-0.296797	-0.011639	0.519998	0.500149	0.569542	-0.393795
55145	-9.686590	0.641844	-1.186663	-0.003873	-0.210869	-0.034872	0.520391	0.499861	0.569249	-0.394065
55146	-9.681428	0.710992	-1.153097	0.068804	-0.218810	-0.039634	0.520448	0.499928	0.568693	-0.394707
55147	-9.621324	0.800271	-1.256572	0.139537	-0.082741	-0.078061	0.520415	0.500065	0.568131	-0.395386
55148	-9.555617	0.900594	-1.520167	0.192742	0.210660	-0.099281	0.520389	0.500165	0.567647	-0.395989
55149	-9.544094	1.015162	-1.627123	0.286786	0.345242	-0.088163	0.520502	0.500085	0.567327	-0.396401
55150	-9.585467	0.978700	-1.661146	0.242522	0.375109	-0.045451	0.520836	0.499773	0.567174	-0.396573
55151	-9.592829	0.945159	-1.579217	0.222661	0.298451	-0.052003	0.521337	0.499252	0.567171	-0.396576
55152	-9.653908	0.909978	-1.530825	0.192144	0.246975	-0.000884	0.521973	0.498584	0.567268	-0.396441
55153	-9.532806	0.934076	-1.426895	0.237795	0.178965	-0.133104	0.522752	0.497703	0.567538	-0.396136
55154	-9.461064	0.935604	-1.463717	0.233428	0.236000	-0.199188	0.523543	0.496734	0.567971	-0.395685
55155	-9.531882	0.887069	-1.494468	0.175156	0.255819	-0.128629	0.524378	0.495663	0.568567	-0.395066
55156	-9.607298	0.838865	-1.506411	0.120294	0.255347	-0.055974	0.525314	0.494473	0.569299	-0.394259
55157	-9.627508	0.620506	-1.541502	-0.104251	0.251124	-0.046612	0.526216	0.493371	0.570021	-0.393393
55158	-9.599410	0.584901	-1.499351	-0.133032	0.212077	-0.082519	0.526993	0.492481	0.570526	-0.392735
55159	-9.542281	0.529547	-1.407664	-0.169919	0.125654	-0.154924	0.527657	0.491801	0.570821	-0.392268
55160	-9.632087	0.463876	-1.372550	-0.233803	0.071508	-0.075316	0.528112	0.491340	0.570937	-0.392063
55161	-9.723145	0.577228	-1.310772	-0.116016	0.028200	0.014652	0.528489	0.490954	0.570905	-0.392086
55162	-9.703450	0.639157	-1.307413	-0.054923	0.048645	-0.000990	0.528893	0.490491	0.570896	-0.392132
55163	-9.664719	0.686533	-1.320823	-0.010348	0.085543	-0.034382	0.529291	0.490022	0.570910	-0.392163
55164	-9.622051	0.700037	-1.377196	-0.007873	0.157463	-0.068678	0.529691	0.489582	0.570912	-0.392169
55165	-9.602611	0.737079	-1.354544	0.032469	0.152949	-0.088297	0.529987	0.489304	0.570868	-0.392179
55166	-9.584963	0.679623	-1.357587	-0.025259	0.152777	-0.109468	0.530243	0.489105	0.570757	-0.392244
55167	-9.552079	0.659338	-1.399791	-0.054655	0.198813	-0.138297	0.530356	0.489119	0.570568	-0.392348
55168	-9.557992	0.633093	-1.431950	-0.089803	0.226645	-0.130380	0.530406	0.489246	0.570347	-0.392444
55169	-9.533767	0.646826	-1.489572	-0.090269	0.289424	-0.146354	0.530370	0.489490	0.570117	-0.392523
55170	-9.509929	0.609927	-1.507666	-0.132187	0.302197	-0.170332	0.530297	0.489810	0.569857	-0.392598
55171	-9.597469	0.622292	-1.540389	-0.134113	0.323339	-0.078782	0.530156	0.490235	0.569522	-0.392745
55172	-9.638218	0.713692	-1.410134	-0.023047	0.209322	-0.048019	0.530074	0.490587	0.569153	-0.392951
55173	-9.644614	0.852736	-1.354265	0.120807	0.183021	-0.038657	0.530087	0.490796	0.568862	-0.393095
55174	-9.628505	0.909461	-1.304637	0.184056	0.150637	-0.056626	0.530273	0.490748	0.568735	-0.393088
55175	-9.603582	0.949687	-1.305234	0.221065	0.166277	-0.078325	0.530616	0.490502	0.568733	-0.392933
55176	-9.618342	0.974146	-1.336704	0.234234	0.203462	-0.058100	0.531020	0.490152	0.568872	-0.392623
55177	-9.634766	0.921087	-1.382083	0.168516	0.237717	-0.040156	0.531437	0.489785	0.569046	-0.392265
55178	-9.636298	0.871010	-1.413753	0.109161	0.260810	-0.038453	0.531857	0.489410	0.569232	-0.391894
55179	-9.559883	0.800689	-1.417092	0.039411	0.262720	-0.118873	0.532344	0.488960	0.569454	-0.391471
55180	-9.609173	0.743931	-1.321931	-0.002362	0.154857	-0.085758	0.532787	0.488589	0.569641	-0.391060
55181	-9.663364	0.703179	-1.270411	-0.037840	0.091424	-0.041341	0.533130	0.488366	0.569693	-0.390795
55182	-9.656518	0.758519	-1.180167	0.032023	0.018443	-0.054864	0.533386	0.488209	0.569703	-0.390627
55183	-9.744601	0.770160	-1.209443	0.030020	0.039758	0.036712	0.533582	0.488119	0.569657	-0.390540
55184	-9.721592	0.740504	-1.255756	-0.010372	0.084784	0.017233	0.533820	0.487960	0.569581	-0.390524
55185	-9.615965	0.681319	-1.261748	-0.066101	0.096623	-0.091099	0.534007	0.487780	0.569539	-0.390555
55186	-9.606748	0.664827	-1.235728	-0.076944	0.073377	-0.104582	0.534193	0.487597	0.569506	-0.390575
55187	-9.618052	0.610354	-1.226393	-0.129426	0.055821	-0.098593	0.534355	0.487454	0.569424	-0.390652
55188	-9.646463	0.638907	-1.153643	-0.088214	-0.007615	-0.076903	0.534471	0.487394	0.569239	-0.390838
55189	-9.640566	0.716411	-1.155826	-0.014082	0.016631	-0.076712	0.534555	0.487425	0.568966	-0.391083
55190	-9.620422	0.788638	-1.187111	0.048342	0.069359	-0.087640	0.534756	0.487345	0.568817	-0.391126
55191	-9.646725	0.742045	-1.223045	-0.009124	0.095476	-0.060940	0.534966	0.487287	0.568644	-0.391161
55192	-9.622917	0.781405	-1.297500	0.011297	0.183237	-0.073030	0.535140	0.487251	0.568454	-0.391243
55193	-9.593179	0.847097	-1.338494	0.065622	0.244233	-0.092901	0.535160	0.487378	0.568186	-0.391447
55194	-9.602154	0.896893	-1.336920	0.112557	0.254719	-0.080494	0.535108	0.487556	0.567905	-0.391704
55195	-9.669613	0.936389	-1.317995	0.150780	0.237915	-0.012891	0.535071	0.487702	0.567693	-0.391880
55196	-9.653743	0.939598	-1.228432	0.172416	0.155455	-0.038602	0.535120	0.487746	0.567559	-0.391953
55197	-9.589565	0.951207	-1.191293	0.193162	0.131753	-0.105522	0.535272	0.487656	0.567545	-0.391879
55198	-9.561667	0.913623	-1.227794	0.148005	0.164695	-0.131849	0.535538	0.487428	0.567643	-0.391657
55199	-9.591188	0.900682	-1.224069	0.132701	0.155773	-0.104001	0.535788	0.487160	0.567847	-0.391353
55200	-9.655072	0.881671	-1.229048	0.107874	0.149069	-0.041584	0.536111	0.486821	0.568093	-0.390974
55201	-9.694327	0.883949	-1.248660	0.101945	0.164347	-0.000293	0.536388	0.486514	0.568308	-0.390663
55202	-9.685273	0.850995	-1.235886	0.071786	0.148436	-0.013252	0.536716	0.486124	0.568477	-0.390452
55203	-9.703462	0.889728	-1.160616	0.124195	0.085778	-0.000805	0.537130	0.485600	0.568703	-0.390207
55204	-9.636047	0.822604	-1.078852	0.079385	0.007185	-0.081930	0.537700	0.484885	0.568982	-0.389903
55205	-9.678833	0.890083	-1.025531	0.154310	-0.027415	-0.040318	0.538323	0.484060	0.569328	-0.389564
55206	-9.704872	0.874008	-1.034792	0.135445	-0.015993	-0.014697	0.539010	0.483109	0.569730	-0.389205
55207	-9.677800	0.883904	-1.105114	0.131709	0.067044	-0.033089	0.539637	0.482131	0.570202	-0.388859
55208	-9.737568	0.893694	-1.099084	0.142182	0.065913	0.026130	0.540278	0.481085	0.570673	-0.388573
55209	-9.735721	0.853857	-1.132928	0.098804	0.101936	0.024827	0.541004	0.479913	0.571141	-0.388325
55210	-9.704212	0.818495	-1.136915	0.068215	0.115389	-0.008797	0.541720	0.478759	0.571538	-0.388167
55211	-9.757711	0.781766	-0.988901	0.068255	-0.027590	0.025838	0.542491	0.477537	0.571946	-0.387994
55212	-9.729224	0.742401	-0.895623	0.057572	-0.106745	-0.014914	0.543273	0.476266	0.572292	-0.387953
55213	-9.618859	0.796602	-0.904169	0.117879	-0.054453	-0.119511	0.544074	0.474930	0.572642	-0.387952
55214	-9.690062	0.773917	-0.904501	0.097666	-0.049034	-0.050393	0.544886	0.473548	0.573078	-0.387857
55215	-9.791616	0.702768	-0.924498	0.024592	-0.038609	0.047444	0.545800	0.472049	0.573475	-0.387812
55216	-9.847873	0.724943	-0.914980	0.050922	-0.026825	0.103965	0.546650	0.470671	0.573713	-0.387938
55217	-9.711939	0.691885	-0.994482	0.009355	0.079634	-0.025809	0.547621	0.469129	0.574020	-0.387982
55218	-9.528585	0.730918	-1.122499	0.026544	0.254929	-0.193829	0.548505	0.467679	0.574310	-0.388054
55219	-9.448577	0.685679	-1.112564	-0.007559	0.262146	-0.277764	0.549246	0.466443	0.574605	-0.388057
55220	-9.527379	0.591415	-1.047819	-0.081755	0.184211	-0.211749	0.549867	0.465424	0.574802	-0.388111
55221	-9.710619	0.575365	-1.052095	-0.102730	0.180924	-0.030522	0.550399	0.464549	0.574894	-0.388268
55222	-9.847486	0.599186	-0.989620	-0.065911	0.128944	0.101462	0.550893	0.463722	0.574918	-0.388520
55223	-9.830478	0.623067	-0.862869	-0.005405	0.031429	0.075184	0.551334	0.462937	0.574886	-0.388879
55224	-9.651638	0.560564	-0.975088	-0.084234	0.158389	-0.097393	0.551740	0.462194	0.574724	-0.389426
55225	-9.488559	0.491865	-0.868417	-0.111650	0.071813	-0.272709	0.552023	0.461566	0.574526	-0.390060
55226	-9.410381	0.450498	-0.939301	-0.162146	0.151095	-0.347415	0.552275	0.460939	0.574578	-0.390368
55227	-9.491532	0.457513	-0.862588	-0.133524	0.080805	-0.272342	0.552480	0.460400	0.574774	-0.390427
55228	-9.601104	0.500406	-0.886988	-0.098949	0.110804	-0.158865	0.552707	0.459896	0.575025	-0.390329
55229	-9.684953	0.602491	-0.763755	0.031101	0.015688	-0.079064	0.553009	0.459400	0.575262	-0.390136
55230	-9.756392	0.591344	-0.713260	0.032283	-0.038987	-0.012532	0.553397	0.458802	0.575651	-0.389716
55231	-9.712885	0.485485	-0.853095	-0.105118	0.072188	-0.051164	0.553655	0.458388	0.576001	-0.389320
55232	-9.560779	0.435127	-0.968588	-0.178702	0.181980	-0.196506	0.553648	0.458320	0.576171	-0.389158
55233	-9.640460	0.420456	-1.023137	-0.208793	0.219015	-0.113693	0.553315	0.458648	0.576190	-0.389217
55234	-9.731053	0.476914	-0.861374	-0.112053	0.065645	-0.032813	0.552963	0.459029	0.576077	-0.389435
55235	-9.702761	0.544635	-0.769260	-0.019664	-0.006087	-0.064276	0.552748	0.459247	0.576074	-0.389487
55236	-9.618326	0.559394	-0.744420	0.004552	-0.021348	-0.149416	0.552739	0.459266	0.576156	-0.389356
55237	-9.635832	0.440218	-0.848219	-0.138614	0.042527	-0.130668	0.552673	0.459321	0.576252	-0.389244
55238	-9.818970	0.449709	-0.792261	-0.119394	-0.027952	0.047691	0.552414	0.459531	0.576191	-0.389454
55239	-9.853339	0.637368	-0.633042	0.105101	-0.133825	0.080053	0.552324	0.459527	0.576080	-0.389751
55240	-9.643296	0.689800	-0.731976	0.139066	-0.001815	-0.118079	0.552386	0.459294	0.576112	-0.389890
55241	-9.676228	0.625089	-0.699530	0.086833	-0.048778	-0.091600	0.552463	0.459058	0.576153	-0.389998
55242	-9.640611	0.556077	-0.663677	0.034223	-0.093062	-0.133781	0.552580	0.458674	0.576252	-0.390137
55243	-9.603382	0.491802	-0.582718	-0.000529	-0.177278	-0.180713	0.552713	0.458235	0.576300	-0.390394
55244	-9.889235	0.606417	-0.577329	0.106776	-0.167565	0.109940	0.552868	0.457770	0.576221	-0.390835
55245	-9.971202	0.592922	-0.505806	0.115682	-0.230273	0.185604	0.553201	0.457045	0.575984	-0.391562
55246	-9.738579	0.568277	-0.494189	0.108701	-0.204329	-0.047777	0.553688	0.456078	0.575736	-0.392366
55247	-9.886110	0.324379	-0.630382	-0.159624	-0.125535	0.096727	0.554205	0.454921	0.575739	-0.392974
55248	-9.966375	0.294275	-0.520337	-0.152171	-0.220768	0.167995	0.554675	0.453778	0.575676	-0.393724
55249	-9.698804	0.412592	-0.636798	-0.052434	-0.031499	-0.084442	0.555111	0.452704	0.575628	-0.394415
55250	-9.482142	0.403948	-0.929332	-0.125414	0.283476	-0.281594	0.555351	0.451928	0.575642	-0.394947
55251	-9.509782	0.462067	-1.011694	-0.085636	0.390299	-0.246429	0.555451	0.451447	0.575560	-0.395474
55252	-9.581157	0.609217	-0.968908	0.070751	0.394014	-0.171721	0.555479	0.451211	0.575408	-0.395925
55253	-9.534515	0.606323	-0.986085	0.067637	0.420826	-0.217621	0.555421	0.451212	0.575147	-0.396385
55254	-9.536924	0.550944	-0.860786	0.049550	0.291024	-0.225704	0.555176	0.451570	0.574664	-0.397020
55255	-9.638535	0.614214	-0.457668	0.216471	-0.083385	-0.146547	0.554718	0.452206	0.574039	-0.397841
55256	-9.723357	0.538734	-0.427054	0.151382	-0.136759	-0.067193	0.554423	0.452442	0.573828	-0.398287
55257	-9.850765	0.328897	-0.511020	-0.073373	-0.116410	0.055846	0.554377	0.452335	0.573706	-0.398649
55258	-9.920135	0.235266	-0.630487	-0.192717	-0.020752	0.128357	0.554497	0.451896	0.573534	-0.399226
55259	-9.939928	0.578830	-0.365983	0.213679	-0.172068	0.147025	0.554573	0.451470	0.573278	-0.399970
55260	-9.703492	0.671787	-0.342596	0.321116	-0.137864	-0.086215	0.555061	0.450528	0.573354	-0.400247
55261	-9.379625	0.554587	-0.661058	0.135678	0.177165	-0.396101	0.555786	0.449385	0.573473	-0.400354
55262	-9.468387	0.505520	-0.729080	0.071261	0.241644	-0.306165	0.556330	0.448434	0.573540	-0.400569
55263	-9.704336	0.665501	-0.782670	0.209447	0.336036	-0.062160	0.556786	0.447555	0.573714	-0.400669
55264	-9.719359	0.537346	-1.114561	0.000349	0.633225	-0.035370	0.557109	0.446881	0.573754	-0.400915
55265	-9.587939	0.565674	-0.932286	0.083727	0.483539	-0.175421	0.557082	0.446700	0.573601	-0.401372
55266	-9.665672	0.579575	-0.970728	0.088647	0.526121	-0.095755	0.557140	0.446443	0.573625	-0.401545
55267	-9.603537	0.510110	-1.092271	-0.006692	0.631617	-0.154416	0.557007	0.446469	0.573567	-0.401782
55268	-9.771669	0.736472	-0.930551	0.253076	0.526260	0.013443	0.556815	0.446704	0.573502	-0.401880
55269	-9.769671	0.711980	-1.075325	0.189739	0.655017	0.018114	0.556802	0.446860	0.573581	-0.401612
55270	-9.696287	0.840191	-1.271607	0.259322	0.872327	-0.039629	0.556438	0.447538	0.573625	-0.401300
55271	-9.942992	0.726921	-0.965714	0.223112	0.513897	0.187822	0.555834	0.448603	0.573717	-0.400816
55272	-10.108603	0.378632	-0.728585	-0.057545	0.157835	0.327814	0.554962	0.450047	0.573633	-0.400525
55273	-9.814054	0.317973	-0.645125	-0.091883	0.054693	0.027102	0.553940	0.451687	0.573368	-0.400474
55274	-9.482360	0.243568	-0.948073	-0.239390	0.322132	-0.288394	0.552972	0.453210	0.573433	-0.399996
55275	-9.439183	0.038599	-0.979130	-0.449416	0.272493	-0.337348	0.552247	0.454525	0.573647	-0.399199
55276	-9.528030	-0.163701	-1.098091	-0.684184	0.298388	-0.249282	0.551638	0.455648	0.574028	-0.398212
55277	-9.656928	-0.027489	-1.068060	-0.553661	0.262882	-0.116192	0.550802	0.456979	0.574335	-0.397400
55278	-9.705056	0.242782	-1.138944	-0.316180	0.363884	-0.049913	0.549928	0.458296	0.574638	-0.396655
55279	-9.670517	0.421647	-0.926010	-0.091237	0.175343	-0.090804	0.548848	0.459925	0.574631	-0.396275
55280	-9.739393	0.455184	-0.649308	0.005551	-0.118731	-0.041793	0.547830	0.461516	0.574524	-0.395989
55281	-9.842859	0.294168	-0.435700	-0.103632	-0.400986	0.035493	0.546748	0.463106	0.574293	-0.395963
55282	-9.887809	0.424998	-0.308989	0.049932	-0.517707	0.075402	0.545748	0.464510	0.573979	-0.396153
55283	-9.911217	0.642154	-0.356416	0.245727	-0.437537	0.113026	0.544976	0.465576	0.573616	-0.396490
55284	-9.829964	0.685294	-0.260961	0.310931	-0.520476	0.025928	0.544668	0.466141	0.573330	-0.396664
55285	-9.713074	0.670433	-0.293072	0.288694	-0.483633	-0.088392	0.544821	0.466174	0.573194	-0.396612
55286	-9.677586	0.602798	-0.606552	0.144129	-0.190415	-0.100329	0.545245	0.465842	0.573219	-0.396383
55287	-9.738981	0.479755	-0.911719	-0.055167	0.073200	-0.019795	0.545518	0.465689	0.573143	-0.396295
55288	-9.743021	0.441812	-1.049889	-0.129682	0.201318	-0.006231	0.545745	0.465649	0.572930	-0.396338
55289	-9.650427	0.511368	-1.157658	-0.091391	0.336752	-0.085887	0.546098	0.465638	0.572551	-0.396413
55290	-9.539390	0.395398	-1.232461	-0.226199	0.397801	-0.196771	0.546389	0.465786	0.572094	-0.396499
55291	-9.486233	0.466151	-1.051728	-0.118761	0.250423	-0.260974	0.546380	0.466229	0.571445	-0.396925
55292	-9.418684	0.593645	-1.300051	-0.057221	0.531729	-0.301213	0.546154	0.466799	0.570763	-0.397547
55293	-9.720438	0.759922	-1.190569	0.119359	0.439500	-0.000733	0.545606	0.467618	0.570078	-0.398320
55294	-9.894217	0.814859	-1.107127	0.186960	0.355976	0.168474	0.545324	0.468058	0.569666	-0.398778
55295	-9.600476	0.817414	-1.225819	0.171418	0.500335	-0.114222	0.545250	0.468235	0.569367	-0.399100
55296	-9.362261	0.883914	-1.236837	0.241508	0.548407	-0.346752	0.545017	0.468587	0.569176	-0.399276
55297	-9.399811	0.892436	-1.218859	0.253043	0.524263	-0.310077	0.544612	0.469102	0.569096	-0.399337
55298	-9.583209	0.818388	-1.230223	0.173944	0.492079	-0.130297	0.543897	0.469922	0.568895	-0.399634
55299	-9.765075	0.860670	-0.990641	0.266467	0.242929	0.033570	0.543239	0.470750	0.568565	-0.400026
55300	-9.820439	0.762336	-0.963898	0.175159	0.182245	0.081118	0.542917	0.471252	0.568393	-0.400115
55301	-9.793832	0.639640	-0.971518	0.053465	0.159748	0.048538	0.542739	0.471604	0.568231	-0.400172
55302	-9.698390	0.548172	-0.952712	-0.029226	0.124656	-0.053050	0.542363	0.472153	0.568086	-0.400241
55303	-9.663466	0.488016	-1.001872	-0.098090	0.152899	-0.086873	0.541771	0.472929	0.567947	-0.400323
55304	-9.587333	0.420236	-1.173246	-0.199550	0.298935	-0.151380	0.541110	0.473756	0.567886	-0.400327
55305	-9.591127	0.489242	-1.197904	-0.136728	0.321917	-0.140991	0.540335	0.474656	0.567912	-0.400270
55306	-9.665726	0.576735	-1.121543	-0.035024	0.242532	-0.068116	0.539623	0.475416	0.568023	-0.400170
55307	-9.627657	0.600325	-1.045243	0.009481	0.160913	-0.111208	0.538638	0.476471	0.567904	-0.400412
55308	-9.672199	0.718971	-0.887269	0.161598	0.011392	-0.074652	0.537506	0.477776	0.567565	-0.400859
55309	-9.632277	0.822244	-0.891714	0.264878	0.025141	-0.107989	0.536511	0.479002	0.567210	-0.401231
55310	-9.640036	0.916916	-0.843840	0.368288	-0.019359	-0.099446	0.535607	0.480102	0.567030	-0.401379
55311	-9.644022	0.952008	-0.893022	0.392503	0.018594	-0.088669	0.535086	0.480728	0.567171	-0.401124
55312	-9.679816	0.996284	-1.107005	0.389866	0.216622	-0.029132	0.534773	0.481022	0.567583	-0.400606
55313	-9.678986	1.014223	-1.184791	0.391441	0.282384	-0.020743	0.534719	0.480963	0.568212	-0.399855
55314	-9.579527	0.975270	-1.230344	0.347277	0.317305	-0.116763	0.534713	0.480864	0.568864	-0.399055
55315	-9.573171	0.952861	-1.317896	0.305341	0.385598	-0.114829	0.534881	0.480631	0.569649	-0.397990
55316	-9.599059	0.762269	-1.410259	0.094562	0.418811	-0.090164	0.535150	0.480391	0.570432	-0.396796
55317	-9.701794	0.618806	-1.329399	-0.036803	0.282068	-0.004829	0.535296	0.480354	0.571171	-0.395579
55318	-9.838173	0.339574	-1.307926	-0.314800	0.167621	0.111445	0.535313	0.480516	0.571716	-0.394571
55319	-9.605663	0.237631	-1.326578	-0.414087	0.176463	-0.123393	0.535192	0.480775	0.572012	-0.393989
55320	-9.447659	0.290188	-1.300499	-0.353162	0.168221	-0.279549	0.534883	0.481133	0.572336	-0.393501
55321	-9.573029	0.387327	-1.235526	-0.248827	0.095787	-0.156170	0.534524	0.481508	0.572710	-0.392985
55322	-9.786266	0.458092	-1.151741	-0.169180	-0.012622	0.050301	0.534035	0.482096	0.572909	-0.392639
55323	-9.843534	0.508180	-1.072884	-0.104526	-0.100463	0.101113	0.533441	0.482766	0.572951	-0.392563
55324	-9.817888	0.573213	-1.109761	-0.046534	-0.060296	0.084042	0.532784	0.483458	0.572894	-0.392685
55325	-9.768572	0.650909	-1.053448	0.046014	-0.103334	0.033410	0.532104	0.484178	0.572782	-0.392884
55326	-9.728727	0.666184	-1.032640	0.069201	-0.124607	-0.007691	0.531605	0.484699	0.572711	-0.393021
55327	-9.586365	0.676408	-1.037481	0.084939	-0.106493	-0.147610	0.531175	0.485183	0.572591	-0.393180
55328	-9.544457	0.587275	-1.230863	-0.040757	0.061532	-0.171571	0.530831	0.485547	0.572563	-0.393237
55329	-9.553863	0.609594	-1.217130	-0.014641	0.046886	-0.162460	0.530452	0.485936	0.572403	-0.393499
55330	-9.465151	0.641758	-1.273758	0.010200	0.116218	-0.241387	0.530021	0.486376	0.572247	-0.393763
55331	-9.572920	0.653279	-1.188968	0.037534	0.017709	-0.144208	0.529620	0.486812	0.572087	-0.393998
55332	-9.693298	0.651266	-1.310106	0.007127	0.115257	-0.010279	0.529298	0.487176	0.571898	-0.394253
55333	-9.711891	0.635964	-1.351969	-0.015493	0.147433	0.012337	0.528872	0.487647	0.571658	-0.394591
55334	-9.721190	0.639533	-1.349399	-0.008861	0.140275	0.021521	0.528220	0.488330	0.571320	-0.395109
55335	-9.715157	0.713160	-1.437729	0.048850	0.236623	0.031171	0.527559	0.489061	0.570929	-0.395653
55336	-9.569770	0.793322	-1.340389	0.155367	0.172727	-0.119777	0.527002	0.489685	0.570594	-0.396105
55337	-9.569920	0.861253	-1.303282	0.231456	0.143878	-0.119938	0.526470	0.490299	0.570399	-0.396334
55338	-9.681281	0.855632	-1.288544	0.225986	0.104981	-0.011792	0.525995	0.490852	0.570324	-0.396389
55339	-9.683593	0.792708	-1.354922	0.152119	0.147982	-0.004980	0.525594	0.491291	0.570331	-0.396368
55340	-9.702148	0.694822	-1.307469	0.065757	0.072605	0.001299	0.525233	0.491705	0.570285	-0.396399
55341	-9.667029	0.640693	-1.305658	0.015016	0.060859	-0.037067	0.525102	0.491847	0.570250	-0.396445
55342	-9.658047	0.591155	-1.231513	-0.017878	-0.019888	-0.058547	0.525042	0.491886	0.570183	-0.396573
55343	-9.709709	0.548709	-1.052903	-0.024986	-0.206794	-0.032874	0.525061	0.491793	0.570157	-0.396701
55344	-9.767837	0.507194	-1.088066	-0.073657	-0.184693	0.026634	0.525232	0.491554	0.570158	-0.396770
55345	-9.773288	0.511438	-1.094992	-0.070333	-0.171417	0.033297	0.525483	0.491220	0.570103	-0.396930
55346	-9.637510	0.620631	-1.146167	0.032158	-0.073750	-0.087770	0.525796	0.490827	0.570047	-0.397082
55347	-9.582690	0.676066	-1.325962	0.052728	0.128239	-0.116092	0.526233	0.490317	0.570081	-0.397084
55348	-9.626090	0.637076	-1.416597	-0.005743	0.211200	-0.064375	0.526551	0.489971	0.570054	-0.397128
55349	-9.670083	0.556489	-1.424762	-0.087905	0.204188	-0.024903	0.526587	0.489922	0.569859	-0.397422
55350	-9.612344	0.531086	-1.386392	-0.101280	0.174182	-0.088455	0.526336	0.490154	0.569548	-0.397913
55351	-9.595014	0.635825	-1.324148	0.016753	0.139357	-0.106904	0.526138	0.490339	0.569252	-0.398370
55352	-9.541762	0.643922	-1.320002	0.028902	0.146448	-0.159710	0.526067	0.490415	0.569121	-0.398557
55353	-9.557204	0.640764	-1.260158	0.037530	0.086649	-0.151952	0.526073	0.490394	0.569120	-0.398578
55354	-9.599415	0.533647	-1.326913	-0.081839	0.127149	-0.108493	0.526138	0.490307	0.569092	-0.398639
55355	-9.722149	0.558394	-1.313954	-0.058766	0.105415	0.012987	0.526074	0.490353	0.568963	-0.398850
55356	-9.856283	0.533065	-1.142775	-0.054207	-0.079292	0.123468	0.526165	0.490260	0.568778	-0.399107
55357	-9.704748	0.406633	-1.111726	-0.166027	-0.106137	-0.037996	0.526289	0.490098	0.568546	-0.399473
55358	-9.575442	0.491875	-1.047987	-0.064355	-0.126308	-0.168559	0.526423	0.489913	0.568319	-0.399848
55359	-9.621504	0.591294	-1.048837	0.031721	-0.102943	-0.116739	0.526768	0.489537	0.568178	-0.400053
55360	-9.705466	0.647071	-1.134026	0.065780	-0.009610	-0.020019	0.527218	0.489086	0.568093	-0.400132
55361	-9.867038	0.569032	-1.122955	-0.016124	-0.043913	0.134225	0.527773	0.488538	0.567981	-0.400228
55362	-9.808245	0.406560	-1.088775	-0.167567	-0.086743	0.062371	0.528155	0.488120	0.567690	-0.400647
55363	-9.634509	0.405668	-1.000400	-0.143832	-0.136885	-0.119923	0.528226	0.488008	0.567193	-0.401395
55364	-9.616991	0.446759	-1.003975	-0.101636	-0.109460	-0.134270	0.528214	0.488001	0.566614	-0.402235
55365	-9.668734	0.535322	-0.948607	-0.003789	-0.138787	-0.083785	0.528261	0.487908	0.566073	-0.403047
55366	-9.603500	0.645476	-1.001938	0.098098	-0.043317	-0.136106	0.528513	0.487582	0.565681	-0.403663
55367	-9.630775	0.711943	-1.024144	0.158934	0.003744	-0.102782	0.528963	0.487077	0.565371	-0.404116
55368	-9.748569	0.615783	-0.941236	0.076227	-0.090095	-0.000157	0.529520	0.486490	0.564971	-0.404653
55369	-9.894444	0.424531	-0.938656	-0.116606	-0.123519	0.133791	0.530128	0.485850	0.564527	-0.405245
55370	-9.846255	0.289010	-0.982443	-0.255708	-0.076995	0.083074	0.530429	0.485507	0.563770	-0.406315
55371	-9.779619	0.335343	-0.772626	-0.165204	-0.241341	-0.001226	0.530482	0.485376	0.562863	-0.407656
55372	-9.669383	0.342135	-0.735524	-0.143988	-0.240659	-0.113392	0.530525	0.485215	0.562008	-0.408971
55373	-9.631146	0.477830	-0.809248	-0.019984	-0.116742	-0.136525	0.530735	0.484909	0.561289	-0.410048
55374	-9.716651	0.539619	-1.038936	-0.002833	0.134315	-0.026688	0.531268	0.484244	0.560755	-0.410871
55375	-9.774446	0.598597	-1.004749	0.060989	0.132079	0.030402	0.531991	0.483350	0.560337	-0.411559
55376	-9.616799	0.609135	-0.985471	0.081189	0.158201	-0.127991	0.532918	0.482242	0.560028	-0.412079
55377	-9.490851	0.663757	-1.037376	0.129554	0.257559	-0.246611	0.533667	0.481375	0.559641	-0.412650
55378	-9.542168	0.558652	-1.092078	0.014844	0.310385	-0.197017	0.534204	0.480718	0.559223	-0.413286
55379	-9.652910	0.535868	-1.105820	-0.012235	0.332199	-0.087559	0.534676	0.480079	0.558760	-0.414045
55380	-9.447935	0.520397	-1.167584	-0.030153	0.431162	-0.288472	0.535351	0.479197	0.558430	-0.414639
55381	-9.444610	0.604667	-1.038290	0.078387	0.342698	-0.298451	0.535907	0.478496	0.558108	-0.415163
55382	-9.624398	0.761318	-0.947333	0.243363	0.288165	-0.119195	0.536637	0.477653	0.557935	-0.415424
55383	-9.843470	0.847692	-0.918421	0.325558	0.278598	0.100554	0.537342	0.476830	0.557753	-0.415701
55384	-9.774364	0.860482	-0.810745	0.361059	0.201523	0.024229	0.538074	0.475889	0.557670	-0.415944
55385	-9.623596	0.731726	-0.851652	0.233380	0.246704	-0.129765	0.538697	0.474985	0.557779	-0.416026
55386	-9.592903	0.533117	-0.901875	0.031553	0.274348	-0.166699	0.539448	0.473930	0.558119	-0.415799
55387	-9.682300	0.299950	-0.938119	-0.205782	0.269484	-0.086332	0.540016	0.473121	0.558356	-0.415666
55388	-9.750520	0.342802	-0.866585	-0.151680	0.213995	-0.021246	0.540690	0.472301	0.558495	-0.415535
55389	-9.731353	0.344549	-0.958812	-0.169128	0.316521	-0.034729	0.541250	0.471684	0.558582	-0.415390
55390	-9.749056	0.435841	-0.940492	-0.079168	0.324312	-0.014365	0.541633	0.471380	0.558431	-0.415440
55391	-9.679715	0.584266	-0.797500	0.093110	0.227241	-0.085717	0.541901	0.471377	0.558009	-0.415660
55392	-9.621067	0.679331	-0.723350	0.197465	0.184459	-0.144356	0.542316	0.471194	0.557869	-0.415514
55393	-9.563821	0.573246	-0.816641	0.071378	0.263846	-0.200847	0.542684	0.471004	0.557735	-0.415428
55394	-9.639903	0.679438	-0.802733	0.171659	0.270511	-0.120882	0.542784	0.471077	0.557508	-0.415521
55395	-9.847443	0.729438	-0.818665	0.206942	0.284192	0.089375	0.542889	0.471146	0.557359	-0.415505
55396	-9.868767	0.736191	-0.747349	0.223227	0.216374	0.106810	0.543181	0.471019	0.557314	-0.415327
55397	-9.731445	0.770349	-0.716822	0.262970	0.205663	-0.030211	0.543639	0.470703	0.557384	-0.414993
55398	-9.624403	0.815339	-0.702497	0.308543	0.210688	-0.135507	0.544252	0.470180	0.557714	-0.414338
55399	-9.644757	0.623951	-0.629005	0.130582	0.099911	-0.128718	0.545003	0.469451	0.558280	-0.413413
55400	-9.630190	0.457543	-0.634310	-0.037480	0.071362	-0.151127	0.545736	0.468725	0.558891	-0.412445
55401	-9.627491	0.236099	-0.616128	-0.253830	0.004501	-0.165953	0.546133	0.468367	0.559360	-0.411689
55402	-9.717952	0.157706	-0.516734	-0.315650	-0.120279	-0.085593	0.546284	0.468334	0.559581	-0.411226
55403	-9.746552	0.007564	-0.609402	-0.486403	-0.068607	-0.059462	0.546192	0.468638	0.559503	-0.411107
55404	-9.750361	-0.093867	-0.662874	-0.600392	-0.042987	-0.057923	0.545905	0.469200	0.559252	-0.411188
55405	-9.755412	0.072446	-0.576001	-0.423190	-0.097017	-0.049666	0.545532	0.469896	0.558796	-0.411508
55406	-9.681246	0.369166	-0.497096	-0.117741	-0.108613	-0.112983	0.545278	0.470474	0.558286	-0.411877
55407	-9.658137	0.628431	-0.491544	0.133508	-0.058109	-0.122747	0.545138	0.470921	0.557785	-0.412231
55408	-9.691165	0.779082	-0.490140	0.276017	-0.028660	-0.081867	0.545100	0.471172	0.557405	-0.412508
55409	-9.720487	0.877237	-0.541662	0.357413	0.043500	-0.044312	0.545327	0.471027	0.557288	-0.412530
55410	-9.741544	0.863876	-0.573512	0.334737	0.075892	-0.022127	0.545721	0.470638	0.557343	-0.412379
55411	-9.733380	0.769645	-0.539050	0.248615	0.029729	-0.037263	0.546081	0.470238	0.557390	-0.412295
55412	-9.713761	0.746064	-0.425511	0.249733	-0.078330	-0.064543	0.546420	0.469798	0.557497	-0.412204
55413	-9.705868	0.563203	-0.448360	0.067084	-0.087118	-0.080780	0.546626	0.469512	0.557457	-0.412310
55414	-9.737044	0.449713	-0.538573	-0.063595	-0.017821	-0.050620	0.546852	0.469230	0.557371	-0.412448
55415	-9.826903	0.487648	-0.535859	-0.029664	-0.009364	0.040840	0.547209	0.468819	0.557228	-0.412635
55416	-9.758533	0.500947	-0.605645	-0.029923	0.078398	-0.022914	0.547875	0.468096	0.557186	-0.412630
55417	-9.727127	0.514170	-0.522411	0.000282	0.016201	-0.057996	0.548457	0.467451	0.557070	-0.412744
55418	-9.674409	0.574216	-0.379712	0.090479	-0.092348	-0.114679	0.548904	0.466946	0.556805	-0.413079
55419	-9.614090	0.582554	-0.217790	0.135955	-0.230666	-0.182224	0.549144	0.466605	0.556493	-0.413565
55420	-9.603643	0.527691	-0.300435	0.067094	-0.146283	-0.191214	0.549502	0.466031	0.556278	-0.414027
55421	-9.671443	0.549553	-0.423927	0.062219	-0.008604	-0.116577	0.549807	0.465495	0.555999	-0.414598
55422	-9.901967	0.826694	-0.332386	0.347031	-0.035244	0.123165	0.550055	0.464965	0.555755	-0.415191
55423	-9.955079	0.798035	-0.380266	0.310683	0.020594	0.176711	0.550584	0.464131	0.555652	-0.415561
55424	-9.872726	0.618344	-0.368778	0.144049	-0.006398	0.085204	0.551152	0.463259	0.555665	-0.415763
55425	-9.819829	0.324776	-0.267956	-0.112728	-0.150700	0.014361	0.551300	0.462584	0.555812	-0.416122
55426	-9.875255	0.399864	0.019530	0.030346	-0.405903	0.062292	0.551268	0.462043	0.555824	-0.416749
55427	-9.929166	0.449105	0.235415	0.132935	-0.593405	0.110800	0.551265	0.461543	0.555544	-0.417680
55428	-9.845564	0.398553	0.551327	0.163341	-0.886299	0.015114	0.551409	0.460888	0.554976	-0.418964
55429	-9.815406	0.355153	0.486372	0.117400	-0.800833	-0.012194	0.551309	0.460397	0.554018	-0.420900
55430	-9.984844	0.875771	0.922254	0.722352	-1.091991	0.167308	0.550722	0.460420	0.552650	-0.423434
55431	-10.073162	1.158843	1.036009	1.026027	-1.102979	0.267751	0.551644	0.459104	0.551103	-0.425673
55432	-9.981062	1.142835	0.474929	0.897785	-0.486684	0.192805	0.553691	0.456816	0.549641	-0.427364
55433	-10.291767	1.146917	0.408041	0.877791	-0.349719	0.507635	0.556352	0.453452	0.549229	-0.428021
55434	-10.111187	0.386614	-0.073238	0.042127	0.042031	0.305953	0.558923	0.450046	0.548604	-0.429065
55435	-9.349803	0.242553	-0.488385	-0.160057	0.497722	-0.461623	0.559608	0.449076	0.546013	-0.432481
55436	-8.811779	0.771264	-0.063677	0.465533	0.260821	-0.983118	0.559363	0.449500	0.542315	-0.436986
55437	-8.602438	1.192095	0.299010	0.958266	0.037753	-1.175984	0.559416	0.449365	0.540340	-0.439497
55438	-8.971892	0.629686	0.701961	0.480356	-0.430973	-0.814491	0.560301	0.447782	0.540281	-0.440059
55439	-8.810367	0.082209	0.829470	-0.021395	-0.638746	-0.986089	0.560586	0.447358	0.539167	-0.441490
55440	-9.310927	0.380200	1.496521	0.384663	-1.198764	-0.458948	0.560520	0.447519	0.537959	-0.442882
55441	-9.506388	0.473221	0.738303	0.319500	-0.410353	-0.280116	0.561602	0.446243	0.537874	-0.442902
55442	-9.223495	1.110326	-0.057877	0.792507	0.514225	-0.570583	0.562817	0.445011	0.537670	-0.442847
55443	-9.101430	1.471994	-0.487688	1.058435	1.026355	-0.698582	0.564498	0.442990	0.538735	-0.441436
55444	-9.316259	0.902062	-0.745866	0.434834	1.178056	-0.507538	0.565898	0.441158	0.540255	-0.439617
55445	-9.045721	1.210705	-0.426673	0.806880	0.927581	-0.759431	0.567041	0.439759	0.541446	-0.438078
55446	-8.534419	1.544127	-0.863570	1.046955	1.412930	-1.276066	0.568184	0.438276	0.543122	-0.436004
55447	-8.084474	1.698555	-1.272806	1.113707	1.826314	-1.732585	0.568776	0.437088	0.545344	-0.433644
55448	-7.970135	2.111922	-1.719005	1.411658	2.334969	-1.844416	0.569330	0.435190	0.549092	-0.430083
55449	-8.193505	1.430321	-3.112749	0.401151	3.494169	-1.658046	0.569495	0.433043	0.553939	-0.425794
55450	-8.386472	1.132979	-3.402183	0.032810	3.645988	-1.452265	0.567943	0.433714	0.557107	-0.423042
55451	-9.053202	1.569414	-1.092731	1.037195	1.460790	-0.734829	0.564718	0.437753	0.556709	-0.423722
55452	-8.780723	0.675514	0.842393	0.668687	-0.700544	-1.019011	0.561295	0.440969	0.557507	-0.423888
55453	-8.152169	-2.536937	0.731318	-2.430456	-1.413233	-1.717996	0.557757	0.441794	0.560080	-0.424305
55454	-9.927674	-0.445200	0.293018	-0.472174	-0.571919	0.101542	0.551605	0.445646	0.561162	-0.426882
55455	-12.992102	2.939393	2.703488	3.408354	-2.304415	3.141663	0.546228	0.448870	0.561185	-0.430375
55456	-17.677635	2.914670	4.301732	3.816017	-4.087318	7.743750	0.544226	0.447679	0.565370	-0.428671
55457	-16.029869	2.130529	-0.166830	2.149062	0.168859	6.214641	0.548661	0.440001	0.569585	-0.425375
55458	-11.641657	-0.145374	-4.886093	-1.229132	4.374433	1.967659	0.552204	0.432621	0.575567	-0.420277
55459	-9.949079	-1.332022	-4.709504	-2.394265	3.871509	0.297481	0.552678	0.431199	0.580192	-0.414718
55460	-10.730960	-3.113315	-3.515462	-3.809561	2.045120	1.073326	0.552609	0.431496	0.585997	-0.406253
55461	-12.533394	-4.444570	-1.236819	-4.420066	-0.837873	2.762118	0.549909	0.434323	0.591027	-0.399563
55462	-11.907562	-3.658242	0.671455	-3.083499	-2.609773	1.989895	0.544996	0.437604	0.595933	-0.395406
55463	-11.549863	-2.216161	3.402994	-0.872318	-4.956603	1.347884	0.535827	0.445154	0.598723	-0.395295
55464	-11.290288	1.165493	7.698976	3.549063	-8.260574	0.544289	0.528788	0.450878	0.599339	-0.397347
55465	-9.370632	1.052538	6.754297	3.128302	-7.233155	-1.301987	0.531238	0.448491	0.600912	-0.394394
55466	-9.000463	0.102601	4.580086	1.605349	-5.346011	-1.396119	0.533253	0.449076	0.598085	-0.395305
55467	-9.521295	3.159565	9.217690	5.679251	-8.952534	-1.257362	0.536774	0.450797	0.588254	-0.403254
55468	-8.427818	4.163485	10.718530	6.852401	-9.867272	-2.137629	0.550099	0.444309	0.577196	-0.408443
55469	-8.955910	2.859044	8.934497	5.052250	-8.144457	-1.076857	0.569253	0.431600	0.566234	-0.411159
55470	-7.964517	3.153918	7.753911	4.996917	-6.393620	-1.590109	0.593335	0.413369	0.554118	-0.412350
55471	-9.078174	1.750155	3.674287	2.303425	-2.327394	-0.419916	0.618942	0.390019	0.546857	-0.407116
55472	-11.658658	1.434621	0.408459	0.522187	1.403976	1.843714	0.641134	0.365118	0.541096	-0.403548
55473	-12.296392	-0.426909	-7.747357	-4.713848	8.595120	0.924039	0.658092	0.339310	0.539193	-0.401316
55474	-15.327902	-4.863787	-7.662659	-9.219132	7.422745	3.499224	0.666119	0.328046	0.531606	-0.407514
55475	-16.117959	-5.172180	-5.653204	-8.816551	6.229390	4.396854	0.671779	0.324256	0.515850	-0.421272
55476	-11.741788	1.260064	-3.800693	-1.738399	6.801166	0.415377	0.670869	0.337661	0.492170	-0.440100
55477	-9.982385	5.380929	2.039255	4.329963	2.860411	0.474611	0.672741	0.343531	0.477583	-0.448688
55478	-10.321295	1.851437	-2.223791	-0.497860	5.591008	-0.680674	0.675767	0.343350	0.471448	-0.450762
55479	-9.471266	2.154760	-1.687124	0.046656	5.013072	-1.323802	0.674236	0.351096	0.463754	-0.455048
55480	-8.657508	1.940772	-1.037440	0.156876	4.094091	-1.874874	0.672641	0.355310	0.462736	-0.455175
55481	-7.392659	0.890791	-1.566520	-0.777478	3.810019	-3.272224	0.669538	0.360431	0.463793	-0.454647
55482	-5.909345	1.468309	-1.558569	0.029973	3.493223	-4.587659	0.664687	0.367688	0.466251	-0.453439
55483	-4.666673	1.212526	-2.998617	-0.369156	4.317989	-6.144320	0.657512	0.379520	0.467227	-0.453146
55484	-3.231212	2.442965	-2.366962	1.260663	3.645935	-7.143080	0.648010	0.396576	0.464566	-0.454960
55485	-2.751033	2.002655	-0.799016	1.328013	1.843655	-7.156907	0.637940	0.413567	0.462511	-0.456155
55486	-3.269698	0.596245	0.553268	0.160501	0.226727	-6.454986	0.625053	0.434461	0.459558	-0.457557
55487	-5.610736	0.719179	2.805050	0.196728	-1.680274	-3.730145	0.608973	0.458314	0.455473	-0.460048
55488	-8.619141	1.123018	6.741300	0.315595	-5.354063	-0.210688	0.588274	0.485815	0.449247	-0.464859
55489	-14.726671	5.133322	19.740238	3.206765	-17.685410	7.784044	0.569157	0.509729	0.434654	-0.476773
55490	-12.156442	5.129985	12.536332	2.822884	-11.071896	4.353889	0.566220	0.513101	0.426084	-0.484329
55491	-11.945943	7.234915	4.991932	4.974372	-3.704384	3.659429	0.557134	0.519314	0.421998	-0.491764
55492	-16.796883	3.577359	4.517825	0.823699	-2.755143	7.710250	0.562147	0.507982	0.443608	-0.478703
55493	-20.946658	-0.486124	-12.915212	-3.898454	15.060543	9.258582	0.585261	0.466630	0.466320	-0.471457
55494	-5.055837	-3.617530	0.673713	-4.050702	-0.438506	-5.069461	0.579892	0.457255	0.476207	-0.477358
55495	-14.943281	-3.160578	2.899356	-4.183107	-1.404807	5.094497	0.573913	0.462419	0.476957	-0.478858
55496	-7.143367	-6.335695	-19.098966	-8.903093	19.021766	-5.968366	0.589132	0.445362	0.472446	-0.481010
55497	-4.371993	-4.547331	-7.285053	-5.634947	7.271791	-6.944611	0.576596	0.462537	0.469908	-0.482477
55498	-14.462659	-3.377083	-0.129210	-4.697159	1.524994	4.194233	0.561615	0.479543	0.469379	-0.484056
55499	-13.735394	-1.142089	-1.823739	-2.408895	3.029266	3.540476	0.547389	0.492917	0.466560	-0.489612
55500	-11.763902	1.529012	-1.064512	0.557239	1.944376	1.924542	0.535756	0.501957	0.468261	-0.491667
55501	-10.606430	1.304883	-0.314904	0.508462	0.886915	0.829160	0.526059	0.509323	0.470501	-0.492423
55502	-9.314694	1.014629	0.334440	0.333238	0.005685	-0.442949	0.517604	0.517626	0.469261	-0.493906
55503	-8.372241	1.820666	0.208274	1.189301	-0.052791	-1.325384	0.511546	0.525545	0.465806	-0.495125
55504	-8.119051	2.140251	0.143345	1.482124	-0.112710	-1.547717	0.506658	0.533299	0.461821	-0.495591
55505	-8.303292	1.570388	0.400513	0.825872	-0.415391	-1.403423	0.502578	0.539828	0.459161	-0.495149
55506	-8.250439	0.642156	0.267725	-0.121639	-0.285876	-1.538833	0.498646	0.544985	0.458425	-0.494156
55507	-8.630578	-0.088844	0.822018	-0.960925	-0.848132	-1.237889	0.493938	0.550276	0.457858	-0.493546
55508	-9.110246	-0.281640	1.086963	-1.253742	-1.165784	-0.794591	0.488014	0.556438	0.455270	-0.494923
55509	-9.024931	0.101148	0.740567	-0.857816	-0.919038	-0.844560	0.481617	0.562795	0.451254	-0.497671
55510	-9.427417	-0.441613	0.187312	-1.378775	-0.340836	-0.480538	0.475688	0.568567	0.447280	-0.500393
55511	-10.200797	-0.634176	0.240944	-1.669440	-0.400655	0.265452	0.470214	0.573801	0.442689	-0.503664
55512	-10.500602	-0.416743	0.528074	-1.550791	-0.727159	0.569097	0.466441	0.577146	0.438873	-0.506681
55513	-9.864479	0.082968	0.420809	-0.983916	-0.681171	-0.011678	0.463395	0.579330	0.435071	-0.510250
55514	-9.527758	1.367464	0.478154	0.287716	-0.968842	-0.228570	0.461118	0.581089	0.431490	-0.513344
55515	-10.188916	2.276548	0.499776	1.096112	-1.174565	0.515203	0.461398	0.580971	0.429813	-0.514632
55516	-10.012989	2.037839	-0.756843	1.150164	0.159396	0.367529	0.464522	0.578163	0.429693	-0.515083
55517	-9.656601	1.611473	-1.616741	0.950312	1.165607	-0.004603	0.468337	0.574795	0.430583	-0.514655
55518	-9.536051	1.239235	-1.370948	0.545229	1.057525	-0.172372	0.471424	0.572090	0.431778	-0.513848
55519	-9.548691	1.313637	0.200758	0.313695	-0.452599	-0.187719	0.473933	0.569827	0.431975	-0.513890
55520	-9.188282	1.377806	0.764837	0.314890	-0.960459	-0.545228	0.476522	0.567154	0.431152	-0.515142
55521	-9.414144	1.807903	1.096973	0.667735	-1.286825	-0.273529	0.479040	0.564292	0.429640	-0.517209
55522	-10.488343	2.253604	1.046339	1.034251	-1.196280	0.849248	0.483524	0.559720	0.429331	-0.518260
55523	-11.431331	1.831150	0.231725	0.704700	-0.167352	1.743956	0.489697	0.553504	0.431056	-0.517708
55524	-11.550573	0.983142	-0.086203	-0.056283	0.398549	1.772949	0.494845	0.547545	0.433838	-0.516824
55525	-11.384599	-0.137443	0.385995	-1.174200	0.166061	1.517366	0.498647	0.542258	0.436142	-0.516805
55526	-11.736409	-1.228233	0.761446	-2.275031	0.048313	1.791282	0.501555	0.537043	0.436054	-0.519503
55527	-10.892451	-1.445368	0.095070	-2.268494	0.828645	0.906832	0.502544	0.533295	0.431902	-0.525839
55528	-9.801168	-0.134630	-0.121470	-0.802088	0.950264	-0.089153	0.501021	0.532094	0.424575	-0.534406
55529	-8.804557	1.912895	-0.295670	1.359923	0.841544	-0.940899	0.498709	0.532131	0.417843	-0.541787
55530	-8.361893	2.573826	-0.949654	2.186305	1.389315	-1.402142	0.498400	0.530851	0.414945	-0.545542
55531	-7.558099	1.848144	-1.797999	1.695065	2.282647	-2.350144	0.497651	0.530982	0.413535	-0.547166
55532	-7.545213	1.407378	-1.328666	1.188621	1.897193	-2.351848	0.496806	0.531497	0.413559	-0.547415
55533	-6.531183	0.137232	-1.948167	0.116484	2.593283	-3.509373	0.495578	0.532646	0.414870	-0.546419
55534	-6.352662	0.940888	-1.742412	0.869323	2.180476	-3.586384	0.492950	0.536403	0.417137	-0.543387
55535	-7.951134	3.009224	-1.253601	2.679920	1.385567	-1.766325	0.489806	0.542073	0.419870	-0.538476
55536	-9.638562	3.489748	-0.562101	2.856435	0.618774	0.028653	0.488938	0.545728	0.425866	-0.530809
55537	-11.911399	0.648836	-0.094272	-0.249539	0.612882	2.098215	0.487301	0.550139	0.430273	-0.524166
55538	-12.798298	-0.394689	2.651532	-1.893317	-2.053518	2.961447	0.483200	0.556272	0.430333	-0.521434
55539	-12.517520	0.140946	4.915459	-1.840281	-4.507965	2.723645	0.478355	0.562141	0.428486	-0.521128
55540	-11.484342	1.139318	4.934956	-0.879639	-4.803121	1.750064	0.473365	0.567157	0.424479	-0.523523
55541	-9.575475	2.257688	3.324218	0.633450	-3.519677	-0.063449	0.469636	0.570400	0.420756	-0.526356
55542	-8.892956	2.887303	1.683855	1.634623	-2.080046	-0.688107	0.469022	0.570883	0.420063	-0.526933
55543	-9.047281	1.754135	0.061016	0.880054	-0.237759	-0.641921	0.472581	0.567605	0.423889	-0.524223
55544	-9.403469	0.734931	-1.271335	0.133164	1.299074	-0.385264	0.476774	0.563506	0.428496	-0.521093
55545	-9.405161	0.602063	-1.660128	0.070833	1.713202	-0.398046	0.479580	0.560540	0.432183	-0.518668
55546	-9.293270	0.232429	-1.325909	-0.344186	1.437377	-0.539481	0.479901	0.559925	0.434197	-0.517350
55547	-9.688956	0.212978	-0.645311	-0.513721	0.752985	-0.142802	0.478026	0.561460	0.433873	-0.517695
55548	-9.838384	0.495244	-0.385191	-0.293226	0.423730	0.032202	0.475535	0.563577	0.432640	-0.518720
55549	-9.910429	0.459432	-0.299505	-0.347788	0.321630	0.101591	0.473405	0.565301	0.432009	-0.519317
55550	-9.934628	0.460835	-0.379186	-0.330318	0.372456	0.127387	0.471997	0.566369	0.432230	-0.519252
55551	-10.024681	0.632239	-0.095290	-0.221466	0.035818	0.229855	0.470781	0.567207	0.432442	-0.519264
55552	-9.899175	1.087367	0.262194	0.168156	-0.425197	0.138979	0.469838	0.567837	0.432653	-0.519254
55553	-10.008085	1.239316	0.141117	0.333338	-0.357590	0.260968	0.469258	0.568247	0.433491	-0.518629
55554	-9.906886	1.231463	-0.261030	0.412462	0.012661	0.165323	0.468808	0.568700	0.434455	-0.517734
55555	-9.648526	0.962793	-0.822363	0.277051	0.587653	-0.103150	0.467887	0.569706	0.434934	-0.517059
55556	-9.402079	1.009963	-0.892380	0.350883	0.616498	-0.341037	0.466745	0.571099	0.435184	-0.516342
55557	-9.377394	0.772101	-0.821101	0.096037	0.560968	-0.384970	0.465788	0.572495	0.435402	-0.515477
55558	-9.576117	0.666291	-0.398010	-0.122737	0.132215	-0.206871	0.464623	0.574237	0.435297	-0.514679
55559	-9.971597	0.329300	0.162428	-0.616232	-0.387022	0.139093	0.463617	0.575839	0.435165	-0.513907
55560	-10.159975	-0.023492	0.275973	-1.016632	-0.455644	0.289817	0.462631	0.577212	0.434785	-0.513577
55561	-10.024929	-0.041313	0.177535	-1.012655	-0.368354	0.155826	0.461582	0.578395	0.434029	-0.513829
55562	-9.984502	0.127420	0.243361	-0.865714	-0.475762	0.126624	0.460386	0.579619	0.433073	-0.514329
55563	-9.971494	0.420075	0.204540	-0.577318	-0.501395	0.140418	0.459952	0.580137	0.432252	-0.514824
55564	-9.804790	0.305098	-0.222986	-0.585951	-0.048735	-0.018250	0.459858	0.580304	0.431534	-0.515321
55565	-9.716531	0.304345	-0.562269	-0.507353	0.292827	-0.092781	0.459714	0.580501	0.430914	-0.515747
55566	-9.611104	0.273705	-1.126411	-0.407830	0.858618	-0.178712	0.459735	0.580644	0.430428	-0.515972
55567	-9.751907	0.350296	-1.211799	-0.332202	0.927569	-0.029022	0.459483	0.581156	0.429629	-0.516287
55568	-9.831472	0.430572	-1.130482	-0.284335	0.833088	0.053737	0.458890	0.581979	0.428428	-0.516885
55569	-9.652688	0.776006	-0.812230	-0.006415	0.449389	-0.105252	0.457660	0.583287	0.426909	-0.517758
55570	-9.426914	1.170376	-0.707321	0.368961	0.255776	-0.297688	0.456441	0.584626	0.425543	-0.518447
55571	-9.463780	1.280949	-0.700959	0.461521	0.215561	-0.250480	0.455902	0.585648	0.424692	-0.518466
55572	-9.615393	1.027083	-0.783208	0.206249	0.347048	-0.119334	0.455815	0.586392	0.424050	-0.518227
55573	-9.702180	0.918276	-0.786530	0.078731	0.372938	-0.042894	0.455827	0.587012	0.423355	-0.518082
55574	-9.630002	0.883602	-1.024136	0.094542	0.610712	-0.107811	0.455616	0.587832	0.422728	-0.517850
55575	-9.575837	0.882076	-1.204627	0.127466	0.779929	-0.153429	0.455037	0.588997	0.421860	-0.517744
55576	-9.480003	0.934369	-1.028505	0.132451	0.586400	-0.250267	0.453922	0.590609	0.420662	-0.517860
55577	-9.543581	1.039170	-0.861316	0.171441	0.381924	-0.183234	0.452801	0.592266	0.419531	-0.517867
55578	-9.591097	1.068429	-0.841195	0.173777	0.338856	-0.133160	0.451593	0.593982	0.418141	-0.518081
55579	-9.679821	1.215723	-0.544480	0.215366	0.000398	-0.044015	0.450494	0.595571	0.416679	-0.518390
55580	-9.647071	0.906232	-0.311040	-0.153785	-0.152334	-0.120572	0.449680	0.596900	0.415370	-0.518619
55581	-9.693423	0.659622	-0.207502	-0.438106	-0.192436	-0.106421	0.449283	0.597864	0.414396	-0.518633
55582	-9.820215	0.503695	-0.214510	-0.615174	-0.147597	0.002409	0.449138	0.598572	0.413553	-0.518614
55583	-9.900691	0.590460	-0.173847	-0.565950	-0.209312	0.088748	0.448801	0.599399	0.412452	-0.518828
55584	-9.761518	0.868306	-0.099006	-0.315856	-0.346284	-0.023341	0.448630	0.600023	0.411164	-0.519275
55585	-9.638555	0.852457	0.015054	-0.357995	-0.435801	-0.152949	0.448540	0.600537	0.409611	-0.519986
55586	-9.540553	0.805267	0.159275	-0.439502	-0.538756	-0.262163	0.448922	0.600575	0.408170	-0.520746
55587	-9.594291	0.742583	0.242641	-0.535059	-0.576741	-0.218848	0.450126	0.599902	0.407598	-0.520930
55588	-9.714754	0.553204	0.262033	-0.739114	-0.516404	-0.120520	0.451937	0.598636	0.407477	-0.520913
55589	-9.928286	0.403089	0.250173	-0.905204	-0.434204	0.076090	0.454088	0.596952	0.407711	-0.520791
55590	-10.194086	0.116367	0.267021	-1.211101	-0.335952	0.307808	0.455839	0.595269	0.407200	-0.521588
55591	-10.138376	0.459295	0.907221	-1.032445	-0.991275	0.275514	0.456650	0.594005	0.405466	-0.523666
55592	-9.937224	0.733416	0.905352	-0.730752	-1.000888	0.115547	0.457748	0.592430	0.403653	-0.525887
55593	-9.802363	0.525754	0.868059	-0.888272	-0.846308	-0.034617	0.458609	0.591031	0.401640	-0.528248
55594	-10.012295	0.160035	1.555877	-1.432012	-1.337009	0.129831	0.459023	0.589774	0.398902	-0.531359
55595	-10.447751	0.130750	2.343505	-1.703211	-1.984476	0.571171	0.459463	0.587765	0.395568	-0.535679
55596	-11.046763	0.504990	2.645702	-1.459466	-2.228278	1.241194	0.460540	0.584521	0.391560	-0.541220
55597	-11.618360	1.379339	2.397572	-0.557914	-2.036233	1.942147	0.462380	0.580009	0.387138	-0.547648
55598	-11.892672	2.677342	2.361518	0.733609	-2.153718	2.393864	0.464617	0.575070	0.382623	-0.554098
55599	-11.449053	4.048541	2.835252	2.017342	-2.819196	2.165949	0.468408	0.568886	0.378554	-0.560053
55600	-10.124922	3.435533	1.806370	1.939280	-1.566405	0.740042	0.475395	0.559912	0.377565	-0.563864
55601	-9.120651	1.996709	-0.516758	1.382408	1.118051	-0.632449	0.480990	0.552231	0.377834	-0.566508
55602	-9.096222	1.179523	-1.350620	0.877582	2.256803	-0.863259	0.483628	0.547941	0.375757	-0.569799
55603	-8.982223	1.041756	-2.424246	1.084806	3.389289	-1.153712	0.484070	0.546066	0.372429	-0.573397
55604	-9.013310	1.416753	-1.786145	1.294144	2.743649	-1.024362	0.483644	0.546027	0.368767	-0.576154
55605	-8.469671	1.572669	-1.275357	1.343445	2.166832	-1.485920	0.483956	0.545639	0.366404	-0.577765
55606	-8.076599	1.987791	-0.403552	1.512661	1.180426	-1.709350	0.483729	0.546230	0.365214	-0.578151
55607	-8.315692	1.589416	0.050958	0.979324	0.898049	-1.451228	0.483964	0.546326	0.365879	-0.577442
55608	-8.384218	1.107723	0.138058	0.483508	0.944792	-1.421337	0.483152	0.547415	0.366054	-0.576980
55609	-8.629199	1.291458	0.275833	0.594207	0.776678	-1.137976	0.482001	0.548953	0.366389	-0.576268
55610	-8.654189	1.364818	0.118967	0.695867	0.870839	-1.121940	0.480354	0.551055	0.366714	-0.575430
55611	-8.750845	1.306058	0.201087	0.594701	0.768091	-1.016129	0.477537	0.554174	0.367369	-0.574361
55612	-9.007853	1.274745	0.430648	0.467270	0.531616	-0.732459	0.474011	0.557353	0.367061	-0.574402
55613	-8.671859	2.002454	1.105122	0.967671	-0.427807	-0.906929	0.470252	0.560380	0.366361	-0.574993
55614	-8.477420	2.604254	1.079739	1.553875	-0.676971	-1.041065	0.467061	0.562760	0.367571	-0.574497
55615	-8.088784	2.725297	1.087756	1.692768	-0.844572	-1.418663	0.464713	0.564656	0.370360	-0.572747
55616	-7.804888	2.533847	0.828531	1.616884	-0.644823	-1.750886	0.464234	0.565309	0.375468	-0.569155
55617	-8.020470	2.251678	-0.043635	1.604141	0.222712	-1.640992	0.465090	0.565199	0.382782	-0.563666
55618	-9.032839	2.009781	-0.323162	1.375545	0.573843	-0.674112	0.466417	0.565054	0.391444	-0.556724
55619	-10.406351	2.301824	0.492234	1.322363	-0.284879	0.770396	0.468017	0.564709	0.400925	-0.548929
55620	-11.084106	1.266318	0.886677	0.177673	-0.497657	1.366131	0.470729	0.563006	0.411546	-0.540433
55621	-11.837764	-0.033124	2.694418	-1.530249	-2.089201	2.048331	0.472566	0.561702	0.421266	-0.532642
55622	-12.880203	-2.138662	4.902313	-4.058558	-3.965025	2.927347	0.474648	0.559556	0.429637	-0.526326
55623	-12.636750	-2.737797	3.467330	-4.288220	-2.586876	2.601984	0.475058	0.558866	0.432553	-0.524296
55624	-11.359232	-0.613114	2.133122	-1.867695	-1.721145	1.479234	0.471948	0.562009	0.428417	-0.527134
55625	-10.290813	1.479085	2.204895	0.204900	-2.210338	0.580695	0.469655	0.564352	0.424474	-0.529861
55626	-9.753102	0.995452	0.736172	0.068167	-0.681751	-0.005219	0.469109	0.564620	0.424350	-0.530159
55627	-8.921252	-0.125617	-0.332147	-0.728224	0.570629	-0.932434	0.468648	0.564633	0.424872	-0.530134
55628	-8.735115	-0.891196	-1.642637	-1.177688	1.990472	-1.184494	0.469251	0.563557	0.427414	-0.528701
55629	-8.792616	-0.344595	-2.671911	-0.425711	2.878371	-1.089061	0.468095	0.564190	0.425960	-0.530223
55630	-8.272786	2.166816	-1.414237	1.808807	1.097899	-1.406923	0.463515	0.568372	0.420477	-0.534141
55631	-8.072199	2.023651	-0.983184	1.587282	0.679650	-1.612640	0.460817	0.571235	0.417020	-0.536127
55632	-8.690170	0.246058	-1.827157	0.017007	1.932757	-1.141917	0.460664	0.571824	0.415799	-0.536580
55633	-8.885268	-0.559748	-1.112280	-0.958769	1.445337	-1.009834	0.460610	0.572547	0.414807	-0.536622
55634	-10.391697	0.250681	0.054653	-0.591915	0.145407	0.564287	0.457885	0.575369	0.412929	-0.537384
55635	-11.224217	-0.266323	0.290017	-1.224133	0.045977	1.351427	0.456772	0.576247	0.412680	-0.537582
55636	-10.919541	-1.684046	-0.635601	-2.330769	1.272620	0.930881	0.456608	0.576296	0.413806	-0.536802
55637	-11.107382	-1.258993	-0.316893	-2.021537	0.839412	1.153997	0.454331	0.578683	0.412284	-0.537336
55638	-10.786579	0.065995	-0.105908	-0.787809	0.272140	0.942363	0.451862	0.581268	0.409999	-0.538376
55639	-10.506134	0.246049	-0.380081	-0.533119	0.470085	0.679149	0.450185	0.583222	0.408388	-0.538892
55640	-10.367910	-0.161070	-0.760289	-0.821762	0.940453	0.509027	0.449666	0.584303	0.406976	-0.539223
55641	-10.270952	0.322938	-1.515287	-0.154895	1.535762	0.459132	0.448910	0.585686	0.405092	-0.539771
55642	-9.609994	1.202440	-2.104566	0.891899	1.844162	-0.115751	0.448139	0.587596	0.402781	-0.540065
55643	-9.553164	1.177395	-1.571222	0.691825	1.326522	-0.175286	0.447421	0.589973	0.401232	-0.539221
55644	-9.283357	0.965192	-1.745679	0.527490	1.530920	-0.456534	0.447066	0.592191	0.399795	-0.538150
55645	-9.240020	0.623424	-2.090863	0.265223	1.937988	-0.522264	0.446710	0.594680	0.398723	-0.536493
55646	-8.828283	0.168556	-2.021790	-0.190879	1.972471	-0.973724	0.446271	0.597471	0.397676	-0.534531
55647	-8.669978	0.115040	-1.972317	-0.290808	1.899705	-1.130645	0.445720	0.600597	0.397609	-0.531530
55648	-8.870631	-0.279917	-1.883286	-0.776084	1.875678	-0.970062	0.444417	0.604858	0.397100	-0.528160
55649	-8.970767	-0.344599	-1.485756	-1.036903	1.447151	-0.889090	0.441359	0.610925	0.394948	-0.525347
55650	-9.254971	-0.233263	-1.029876	-1.186693	0.898598	-0.617435	0.437720	0.617665	0.392471	-0.522358
55651	-9.452549	-0.167204	-0.785161	-1.316831	0.560991	-0.434780	0.433902	0.624547	0.389554	-0.519536
55652	-9.360405	-0.072674	-0.257584	-1.478314	-0.037766	-0.566023	0.429879	0.631602	0.385796	-0.517150
55653	-9.628452	-0.190121	0.105361	-1.856838	-0.411283	-0.371505	0.426355	0.638558	0.382031	-0.514313
55654	-10.191596	0.087257	0.839707	-2.072161	-1.271404	0.120562	0.423946	0.644790	0.377978	-0.511515
55655	-10.124481	-0.109241	0.369173	-2.194100	-0.790749	0.046971	0.423369	0.649385	0.374666	-0.508609
55656	-10.139774	-0.677779	0.597050	-2.906499	-0.804950	-0.089820	0.421917	0.654366	0.370396	-0.506556
55657	-10.098151	-0.960313	1.375263	-3.543507	-1.407538	-0.312819	0.420290	0.659232	0.365330	-0.505275
55658	-10.106536	-1.143780	1.747847	-3.955597	-1.647909	-0.424305	0.418604	0.663899	0.359497	-0.504748
55659	-10.184249	-0.703741	1.826789	-3.716100	-1.844491	-0.308037	0.416043	0.668766	0.352031	-0.505701
55660	-10.770323	-0.374327	2.084826	-3.769849	-2.165416	0.266214	0.414126	0.672656	0.344836	-0.507071
55661	-11.337068	-0.424416	1.494400	-3.801692	-1.541927	0.869576	0.412733	0.675634	0.337838	-0.508956
55662	-11.973619	-0.250465	1.927683	-4.069699	-1.925857	1.451128	0.411624	0.678084	0.331344	-0.510862
55663	-13.067701	-0.982042	3.515210	-5.741644	-2.900091	2.133283	0.410920	0.679540	0.324187	-0.514075
55664	-14.187127	-2.006563	5.697973	-7.938401	-4.114672	2.749481	0.410020	0.679024	0.313893	-0.521807
55665	-14.434413	-0.932666	7.054951	-7.743049	-5.346702	3.241769	0.410073	0.674587	0.299093	-0.536018
55666	-13.489522	-0.422369	3.413949	-5.193702	-1.985870	2.949117	0.417137	0.663881	0.293883	-0.546709
55667	-13.070912	-1.432490	0.544528	-4.284559	1.351310	2.556469	0.425320	0.650113	0.291919	-0.557888
55668	-11.933086	0.072955	-0.450242	-2.005064	1.712741	1.833724	0.431566	0.636585	0.291706	-0.568699
55669	-12.300442	1.746481	-2.785399	0.768514	3.281397	2.464958	0.435391	0.625283	0.292962	-0.577606
55670	-13.019671	3.106486	-3.061028	2.238453	3.196463	3.351443	0.435324	0.616887	0.292722	-0.586735
55671	-11.974989	1.868242	-2.415624	1.291821	3.177046	2.059744	0.433706	0.608099	0.293804	-0.596485
55672	-10.075326	-2.184257	-3.078183	-1.392984	5.402471	-0.613618	0.428403	0.600003	0.294647	-0.607989
55673	-8.658338	-5.556336	-3.645198	-3.580138	7.313150	-2.545384	0.415474	0.597238	0.291602	-0.621012
55674	-9.637667	-3.822761	-2.114209	-2.515507	5.408211	-1.073431	0.396408	0.598305	0.283170	-0.636165
55675	-9.514649	-1.376412	-2.687504	0.283543	4.582542	-0.949842	0.377337	0.597469	0.273565	-0.652540
55676	-8.874448	0.477344	-2.998743	2.368906	3.585700	-1.476357	0.357873	0.596516	0.263331	-0.668396
55677	-8.825185	0.654245	-2.569378	2.583100	3.019959	-1.499362	0.340352	0.594557	0.254634	-0.682513
55678	-7.922311	0.849097	-2.672326	3.038515	2.697270	-2.456810	0.321926	0.592817	0.243426	-0.696904
55679	-7.998887	1.437039	-2.000289	3.271017	1.687967	-2.296481	0.302276	0.592440	0.230194	-0.710391
55680	-8.316238	1.512872	-1.495961	3.203470	1.189254	-1.938361	0.282578	0.592565	0.216813	-0.722502
55681	-8.369661	1.411181	-1.105681	3.018712	0.869193	-1.850709	0.263161	0.593083	0.204681	-0.732875
55682	-8.469561	1.446198	-1.194138	3.257391	0.744216	-1.807522	0.244799	0.593968	0.194523	-0.741240
55683	-8.112606	2.016749	-0.917914	3.400893	-0.097585	-2.122065	0.228601	0.594774	0.187316	-0.747595
55684	-7.668659	2.247006	-0.732146	3.345904	-0.606020	-2.544337	0.215799	0.595247	0.184295	-0.751762
55685	-7.226869	2.208711	-0.669951	3.214263	-0.800199	-2.987637	0.204501	0.596302	0.183179	-0.754353
55686	-6.800124	2.795276	-0.436980	3.232637	-1.603077	-3.392052	0.193143	0.598826	0.182059	-0.755617
55687	-6.662707	2.930560	-0.652193	3.411029	-1.771383	-3.597377	0.181278	0.603052	0.179377	-0.755837
55688	-6.681483	3.123865	-0.318147	3.144893	-2.244739	-3.522196	0.168337	0.608315	0.172802	-0.756145
55689	-6.724265	3.048184	0.353732	2.426673	-2.607787	-3.336527	0.156184	0.614102	0.166133	-0.755569
55690	-7.803349	2.262562	1.595031	1.091502	-2.495803	-1.993915	0.145428	0.619814	0.160597	-0.754248
55691	-8.967324	1.561995	3.544054	-0.830442	-2.694429	-0.460578	0.136392	0.624667	0.156061	-0.752884
55692	-10.038776	0.736065	5.304736	-2.646298	-2.668675	0.926636	0.130232	0.628365	0.155591	-0.750992
55693	-10.964191	-0.734122	6.024666	-3.762994	-1.716437	2.016903	0.127769	0.630894	0.162248	-0.747880
55694	-12.504784	-2.655737	5.658743	-3.941297	-0.095479	3.599632	0.129708	0.631302	0.176388	-0.743990
55695	-11.893290	-2.627753	4.564909	-3.055107	0.052185	2.830588	0.129452	0.630124	0.186688	-0.742519
55696	-9.826882	-0.138674	5.200332	-2.927401	-2.552002	0.605905	0.126078	0.630122	0.190063	-0.742244
55697	-10.131379	1.298067	5.835381	-2.851905	-4.219552	0.791216	0.124157	0.631940	0.192339	-0.740434
55698	-11.449201	0.924234	5.193220	-2.235081	-3.743509	2.015167	0.124242	0.633077	0.194556	-0.738868
55699	-11.149786	-0.137325	2.977347	-0.789053	-1.836999	1.554102	0.124429	0.634244	0.194415	-0.737872
55700	-12.279488	-1.098345	1.541197	0.215766	-0.417080	2.602875	0.124873	0.637120	0.193572	-0.735537
55701	-13.787016	-0.699339	0.401306	1.530168	-0.339924	3.908573	0.125829	0.640915	0.189738	-0.733072
55702	-14.623671	0.774249	-1.199258	3.614034	-0.930662	4.398590	0.122910	0.642626	0.177362	-0.735165
55703	-12.727110	-0.736850	-1.130808	2.622547	0.623486	2.698645	0.120225	0.645057	0.166210	-0.736085
55704	-11.309393	-1.296749	-2.471873	3.434222	1.772607	1.176298	0.115284	0.645622	0.157037	-0.738391
55705	-6.217188	5.658422	-4.380643	6.990748	-3.844085	-4.692793	0.112207	0.643386	0.152366	-0.741788
55706	-3.016780	9.207930	-11.211776	14.132040	-4.392781	-9.065697	0.122870	0.642181	0.166354	-0.738128
55707	-6.548789	4.275499	-6.872109	8.813243	-1.455954	-4.465577	0.121712	0.653781	0.167023	-0.727915
55708	-11.639444	2.612166	1.775761	0.606366	-3.565570	1.692075	0.119929	0.665935	0.163341	-0.717960
55709	-12.533555	-2.160040	-2.065485	2.078235	2.244130	2.703686	0.126555	0.671774	0.169606	-0.709885
55710	-10.467579	-2.625571	-3.703874	3.014301	3.420769	0.646384	0.129310	0.676853	0.169509	-0.704568
55711	-9.962593	-1.119316	-1.606758	1.503751	1.226432	0.153257	0.133522	0.681456	0.172810	-0.698517
55712	-9.919090	-1.648063	-2.258755	1.717707	1.974486	0.155021	0.137912	0.685264	0.176559	-0.692980
55713	-9.719289	-0.718147	-0.943810	0.771593	0.575764	-0.068828	0.140801	0.689143	0.179113	-0.687878
55714	-9.948069	-0.333934	-0.464394	0.389779	-0.007068	0.144132	0.144638	0.692073	0.182855	-0.683139
55715	-9.336119	1.576688	0.524201	0.254046	-2.128105	-0.575255	0.148613	0.694186	0.184930	-0.679574
55716	-9.283754	2.038675	0.638080	0.316098	-2.577757	-0.647175	0.157651	0.695077	0.192169	-0.674600
55717	-9.394965	0.613644	-1.161896	1.190086	-0.450183	-0.412030	0.169177	0.694806	0.201255	-0.669418
55718	-9.836279	-0.820044	-1.171255	0.392599	0.818968	0.085332	0.180127	0.694638	0.209519	-0.664179
55719	-10.402688	-1.760430	-0.755048	-0.579092	1.393475	0.656641	0.189926	0.694376	0.217305	-0.659203
55720	-10.775655	-1.973922	-0.131771	-1.333138	1.213127	0.993739	0.198405	0.693682	0.223672	-0.655295
55721	-10.600855	-2.045986	0.000847	-1.551982	1.199545	0.804107	0.206577	0.692119	0.229851	-0.652277
55722	-10.317992	-1.697003	-0.170001	-1.250477	1.024841	0.519570	0.213635	0.690386	0.235083	-0.649972
55723	-9.741324	-1.287959	-0.656788	-0.624884	1.020218	-0.037607	0.219562	0.688549	0.239111	-0.648474
55724	-9.776877	-0.831533	-0.040469	-0.859810	0.302897	-0.042870	0.224804	0.687120	0.242295	-0.647010
55725	-9.533538	-0.406964	-0.063907	-0.582363	0.014312	-0.288054	0.231954	0.684741	0.247031	-0.645216
55726	-9.317444	0.253811	-0.480608	0.158004	-0.193818	-0.482764	0.240262	0.682038	0.252338	-0.642980
55727	-9.525045	1.209648	-0.398182	0.698330	-0.922693	-0.272835	0.250600	0.678927	0.258442	-0.639895
55728	-9.578115	1.507380	-0.653905	1.089927	-0.878709	-0.196098	0.264871	0.673885	0.267147	-0.635889
55729	-9.390977	0.673707	-1.653910	1.232702	0.554649	-0.349574	0.282638	0.667015	0.278506	-0.630588
55730	-9.143728	-1.108043	-2.525861	0.465215	2.550596	-0.620815	0.301840	0.659495	0.291936	-0.623484
55731	-9.963965	-3.063337	-2.843648	-1.035806	4.130585	0.117652	0.318551	0.653343	0.304136	-0.615768
55732	-10.484059	-2.469833	-1.928513	-1.368496	3.052805	0.605562	0.331695	0.649043	0.312964	-0.608913
55733	-10.065379	-1.897570	-1.590492	-1.242090	2.441737	0.184094	0.344031	0.645122	0.321206	-0.601902
55734	-9.800893	-1.192471	-1.425046	-0.870000	1.911755	-0.060898	0.354301	0.642161	0.327449	-0.595716
55735	-10.529569	-0.086038	-0.914968	-0.375502	0.907635	0.711139	0.362641	0.639998	0.332026	-0.590468
55736	-11.534131	1.245032	-0.260364	0.260491	-0.295464	1.784657	0.369875	0.637772	0.334896	-0.586757
55737	-11.755922	3.221674	0.326781	1.611049	-1.722428	2.150774	0.377068	0.634220	0.337560	-0.584498
55738	-10.678444	5.696449	0.520921	3.777462	-3.005827	1.297817	0.384968	0.629341	0.340882	-0.582692
55739	-9.240257	6.756974	0.563419	4.893667	-3.386758	-0.018186	0.396964	0.621818	0.348550	-0.578165
55740	-8.496402	5.876976	-0.093482	4.584336	-2.163512	-0.810907	0.412471	0.611967	0.360319	-0.570556
55741	-7.927349	5.453184	0.094356	4.288012	-1.882243	-1.407364	0.431234	0.598886	0.377033	-0.559659
55742	-7.907045	5.121161	-0.266246	4.235484	-1.078906	-1.463928	0.454334	0.580932	0.400790	-0.543567
55743	-8.460142	4.099673	-1.607136	3.634665	0.891558	-1.040758	0.479804	0.557847	0.430571	-0.522688
55744	-9.904927	1.480194	-3.648880	1.180084	3.654607	0.130040	0.502438	0.533364	0.460453	-0.501061
55745	-8.941368	0.638185	-3.745650	0.198519	3.865615	-0.902029	0.518182	0.513590	0.481693	-0.485473
55746	-7.807341	0.475615	-3.200014	-0.061529	3.314977	-2.039244	0.530720	0.496975	0.498778	-0.471776
55747	-7.534253	-0.612357	-4.067545	-1.328387	4.080351	-2.378448	0.541256	0.481860	0.514627	-0.458271
55748	-6.845067	-1.354385	-4.792987	-2.282751	4.601053	-3.083898	0.549245	0.469478	0.529089	-0.444955
55749	-7.155327	-1.782502	-5.369974	-2.985161	4.930807	-2.742866	0.554854	0.459491	0.542873	-0.431617
55750	-7.169632	-1.670693	-5.083227	-2.969841	4.470642	-2.655707	0.557997	0.452947	0.554745	-0.419208
55751	-8.321866	-1.079924	-3.964426	-2.282149	3.282446	-1.437157	0.559693	0.449180	0.565039	-0.407077
55752	-10.288979	-0.968490	-3.515096	-2.196738	2.565280	0.567348	0.560824	0.447191	0.574159	-0.394762
55753	-12.349862	-0.586360	-2.308748	-1.593939	1.125609	2.612263	0.558496	0.449133	0.581084	-0.385620
55754	-13.646783	0.961233	-0.851482	0.282950	-0.197900	3.889807	0.554336	0.453020	0.586296	-0.379133
55755	-14.603156	1.895607	0.848974	1.668576	-1.927538	4.715180	0.548527	0.459700	0.589401	-0.374701
55756	-14.322010	1.546136	5.314115	2.581029	-6.558794	3.827618	0.538538	0.471982	0.588278	-0.375683
55757	-14.153940	-0.326226	11.752531	2.196069	-13.433236	2.567305	0.528912	0.484902	0.581152	-0.383907
55758	-10.093520	2.026344	9.683053	3.771346	-10.360503	-0.970950	0.529806	0.487097	0.572436	-0.392885
55759	-8.871468	2.172821	3.828528	2.639441	-4.387374	-1.335443	0.537997	0.478330	0.575625	-0.387835
55760	-10.112405	2.876396	1.531092	2.786880	-2.018790	0.238898	0.546233	0.468143	0.580961	-0.380731
55761	-11.125009	4.509252	0.532824	4.084252	-0.570912	1.473222	0.555654	0.454060	0.590427	-0.369424
55762	-11.041148	3.082869	-1.057736	2.232558	0.709205	1.458516	0.566112	0.437116	0.601183	-0.356406
55763	-10.253956	2.364389	-2.219216	1.114062	1.776249	0.735340	0.574232	0.424661	0.606573	-0.349271
55764	-9.185399	2.391678	-1.655341	1.324045	1.511112	-0.389639	0.579829	0.417763	0.606724	-0.348079
55765	-8.330216	2.272725	0.309278	1.982093	-0.135685	-1.404035	0.583469	0.415540	0.603006	-0.351104
55766	-8.425137	1.205135	1.807111	1.553797	-1.841709	-1.452442	0.587368	0.414002	0.598613	-0.353925
55767	-8.901578	-0.246570	1.851033	0.158440	-2.393809	-1.039523	0.592285	0.412053	0.594031	-0.355722
55768	-9.002777	-0.158601	1.397941	-0.029563	-1.849873	-0.890525	0.597393	0.410858	0.588894	-0.357102
55769	-9.382403	1.380250	0.780448	1.016636	-0.596963	-0.370641	0.603940	0.407654	0.585681	-0.355039
55770	-9.228206	2.357608	-2.343120	0.507337	2.761470	-0.414735	0.613802	0.399636	0.584895	-0.348477
55771	-8.640640	2.981964	-4.412014	0.029939	5.011336	-0.986600	0.622798	0.392764	0.583916	-0.341909
55772	-7.948504	4.383807	-3.415849	1.607691	4.817881	-1.550347	0.627880	0.391088	0.582463	-0.336977
55773	-8.080217	5.008918	-0.756630	3.252440	2.736067	-1.275329	0.630125	0.392763	0.581327	-0.332773
55774	-8.257690	5.438522	0.971856	4.321046	1.380897	-0.973437	0.633329	0.392745	0.581582	-0.326202
55775	-8.855293	4.961069	1.248715	3.866496	0.900373	-0.387924	0.638055	0.390441	0.583352	-0.316451
55776	-9.515506	4.189201	2.139368	3.454441	-0.240984	0.221201	0.644559	0.384618	0.586613	-0.304133
55777	-9.536897	1.762553	1.557573	1.033001	-0.929515	-0.088811	0.652580	0.373980	0.592039	-0.289425
55778	-9.377962	-0.463851	0.770339	-1.238632	-1.460576	-0.588413	0.659919	0.363853	0.595790	-0.277763
55779	-8.858214	-0.956602	0.671237	-1.615675	-1.652967	-1.181883	0.664993	0.355225	0.599630	-0.268409
55780	-8.622653	-0.843352	1.352747	-1.060073	-2.136774	-1.374580	0.668822	0.348193	0.602692	-0.261152
55781	-8.494364	-0.196477	1.710750	-0.300423	-2.010781	-1.387371	0.671455	0.343955	0.603793	-0.257443
55782	-8.794783	1.363148	2.202572	1.162362	-1.421980	-0.830231	0.673121	0.341578	0.603976	-0.255825
55783	-9.727243	1.580067	3.339784	1.898470	-2.180921	0.182762	0.675287	0.338708	0.603131	-0.255926
55784	-9.081327	1.573111	5.213454	3.167443	-3.513398	-0.339166	0.677274	0.334585	0.602193	-0.258294
55785	-8.138620	0.909733	2.812422	1.332911	-1.923101	-1.476172	0.679295	0.324265	0.606187	-0.256804
55786	-8.867716	-0.191382	-1.199147	-2.077206	0.445563	-1.118085	0.678369	0.312936	0.614548	-0.253412
55787	-10.972620	3.385520	-2.206120	-0.228773	3.495560	1.343199	0.673923	0.310977	0.620232	-0.253836
55788	-12.403723	9.263170	1.748074	6.762296	4.334240	3.536241	0.667952	0.316235	0.622163	-0.258358
55789	-12.652125	4.509530	5.497361	5.815447	-1.687264	3.376901	0.667010	0.311994	0.626685	-0.254996
55790	-9.168764	2.161817	-1.553659	-0.240035	2.199170	-0.525099	0.667479	0.303641	0.631579	-0.251758
55791	-8.194246	2.535599	-5.824228	-2.866732	5.603792	-1.574175	0.670952	0.286671	0.640171	-0.240466
55792	-6.778591	-1.019503	-9.161997	-7.772777	5.314006	-3.311139	0.672407	0.272888	0.647811	-0.231823
55793	-9.569272	-4.514530	-5.427554	-7.495819	-0.125790	-0.582504	0.664953	0.270012	0.658928	-0.225267
55794	-12.857282	-6.123482	-4.707866	-7.875081	-2.221685	2.757160	0.657770	0.265138	0.669954	-0.219548
55795	-11.841435	-5.129231	-2.807758	-5.498036	-2.793115	1.865369	0.649119	0.267270	0.676553	-0.222456
55796	-10.700460	-2.075111	-3.188622	-3.583796	-0.195685	0.961754	0.642645	0.268533	0.681181	-0.225588
55797	-10.946918	-0.593495	-2.934106	-2.226091	0.696405	1.293733	0.635737	0.270385	0.686170	-0.227819
55798	-11.252247	0.920543	-0.809766	0.543502	0.329109	1.488206	0.629999	0.271841	0.690453	-0.229080
55799	-10.184356	1.103038	-0.664678	0.847238	0.404161	0.409703	0.626401	0.269521	0.695392	-0.226738
55800	-8.979201	1.531489	-1.371429	0.619327	1.253718	-0.707941	0.623743	0.266873	0.699974	-0.223071
55801	-8.761473	1.734087	-0.948266	1.118877	1.099454	-0.969138	0.621105	0.262990	0.705801	-0.216585
55802	-9.028550	1.058623	-0.634358	1.006386	0.300823	-0.760958	0.619222	0.257685	0.711889	-0.208270
55803	-8.680690	0.001400	-0.477019	0.496625	-0.642812	-1.156986	0.618190	0.250463	0.718381	-0.197584
55804	-9.036548	-1.961868	-0.986849	-0.971334	-2.013521	-0.785948	0.617244	0.242533	0.724829	-0.186573
55805	-8.735919	-2.961676	-1.319500	-1.743841	-2.697877	-1.065846	0.615498	0.236931	0.730233	-0.178284
55806	-9.040544	-3.471672	-1.081110	-1.690919	-3.380581	-0.831400	0.612647	0.234223	0.734733	-0.173121
55807	-8.715674	-2.439531	-1.070876	-1.044568	-2.559280	-1.128262	0.608960	0.234274	0.738121	-0.171641
55808	-9.408059	-0.841592	0.026156	0.934933	-1.987915	-0.626089	0.604418	0.235597	0.741617	-0.170814
55809	-10.084890	-1.099101	-0.163884	0.834661	-2.247705	0.045803	0.599749	0.236834	0.745144	-0.170209
55810	-10.635452	-0.821747	0.513888	1.735174	-2.528747	0.416944	0.594114	0.239289	0.748547	-0.171598
55811	-10.165297	-0.109895	1.108545	2.643230	-2.261591	-0.196480	0.588074	0.242886	0.751455	-0.174616
55812	-10.633094	0.152496	1.864306	3.583509	-2.606645	0.032305	0.581939	0.246253	0.754409	-0.177688
55813	-10.626571	0.843353	2.237888	4.368715	-2.321209	-0.108627	0.576948	0.250046	0.755958	-0.182034
55814	-10.604269	1.952470	3.272536	5.891849	-2.086709	-0.437026	0.572636	0.253795	0.756827	-0.186783
55815	-10.900881	2.222582	4.239509	6.904916	-2.542564	-0.453222	0.569931	0.255594	0.757722	-0.188967
55816	-10.748100	1.434894	4.431223	6.574285	-3.255495	-0.680516	0.570149	0.252667	0.759396	-0.185493
55817	-10.558692	0.659341	3.439716	5.335637	-3.215612	-0.596246	0.572276	0.247776	0.760696	-0.180138
55818	-10.878795	1.074371	3.193407	5.471833	-2.735899	-0.206755	0.574564	0.243701	0.761355	-0.175569
55819	-11.137909	1.453014	3.526643	5.993174	-2.587295	-0.015318	0.578666	0.238656	0.761189	-0.169647
55820	-12.197685	0.642708	2.786651	5.119925	-2.927234	1.240737	0.584612	0.231650	0.760400	-0.162355
55821	-14.104171	-0.451613	3.943748	5.728441	-4.636294	2.851036	0.591890	0.228033	0.756176	-0.160824
