// General information: 
//  MT Manager version: 2021.0.0 
//  XDA version: 2021.0.0 build 5908 rev 109668 built on 2021-04-19
// Device information: 
//  DeviceId: 00B43E23
//  ProductCode: MTW2-3A7G6
//  Firmware Version: 4.3.5
//  Hardware Version: 1.1.0
// Device settings: 
//  Filter Profile: human(46.1)
//  Option Flags: Orientation Smoother Disabled, Position/Velocity Smoother Disabled, Continuous Zero Rotation Update Disabled, AHS Disabled, ICC Disabled
// Coordinate system: ENU
PacketCounter	Acc_X	Acc_Y	Acc_Z	FreeAcc_E	FreeAcc_N	FreeAcc_U	Quat_q0	Quat_q1	Quat_q2	Quat_q3
54636	-0.045613	0.080321	9.792831	-0.016086	-0.013790	-0.019444	0.999953	-0.000726	-0.000672	0.009648
54637	-0.048354	0.099906	9.785250	-0.018961	0.005780	-0.026828	0.999953	-0.000739	-0.000658	0.009634
54638	-0.017658	0.096523	9.768115	0.011812	0.003326	-0.044087	0.999953	-0.000743	-0.000664	0.009641
54639	-0.063620	0.110499	9.757390	-0.034440	0.016445	-0.054538	0.999953	-0.000732	-0.000658	0.009623
54640	-0.029620	0.086893	9.800612	0.000170	-0.007105	-0.011648	0.999953	-0.000723	-0.000661	0.009629
54641	-0.042198	0.078087	9.780334	-0.012409	-0.016007	-0.031972	0.999953	-0.000726	-0.000669	0.009614
54642	-0.017717	0.114639	9.780674	0.011208	0.021045	-0.031355	0.999953	-0.000729	-0.000677	0.009598
54643	-0.038628	0.093784	9.760280	-0.009429	-0.000107	-0.051885	0.999953	-0.000717	-0.000676	0.009598
54644	-0.035309	0.091484	9.780431	-0.006025	-0.002679	-0.031766	0.999954	-0.000713	-0.000680	0.009590
54645	-0.044216	0.115206	9.785310	-0.015379	0.020931	-0.026634	0.999953	-0.000729	-0.000676	0.009600
54646	-0.053084	0.103478	9.785189	-0.023991	0.009054	-0.026841	0.999954	-0.000715	-0.000677	0.009577
54647	-0.028479	0.104605	9.780531	0.000375	0.010644	-0.031562	0.999954	-0.000723	-0.000698	0.009590
54648	-0.033507	0.089916	9.800572	-0.004303	-0.004170	-0.011647	0.999954	-0.000732	-0.000674	0.009589
54649	-0.050341	0.083828	9.760130	-0.020812	-0.010142	-0.052095	0.999954	-0.000727	-0.000665	0.009580
54650	-0.040760	0.077174	9.767823	-0.010949	-0.016756	-0.044495	0.999954	-0.000725	-0.000661	0.009577
54651	-0.052224	0.102397	9.805315	-0.022786	0.007959	-0.006729	0.999954	-0.000734	-0.000666	0.009571
54652	-0.023295	0.082797	9.775629	0.006417	-0.010731	-0.036688	0.999954	-0.000732	-0.000662	0.009568
54653	-0.036073	0.109419	9.760336	-0.006910	0.015795	-0.051687	0.999954	-0.000736	-0.000663	0.009558
54654	-0.040956	0.095024	9.780376	-0.011549	0.000970	-0.031771	0.999954	-0.000717	-0.000674	0.009584
54655	-0.058066	0.106847	9.785124	-0.028941	0.012323	-0.026858	0.999954	-0.000726	-0.000671	0.009584
54656	-0.025379	0.084528	9.775609	0.004206	-0.009313	-0.036685	0.999954	-0.000712	-0.000666	0.009578
54657	-0.042650	0.096349	9.780356	-0.013187	0.002036	-0.031773	0.999954	-0.000718	-0.000663	0.009591
54658	-0.026691	0.120851	9.780579	0.002366	0.026863	-0.031363	0.999954	-0.000715	-0.000659	0.009589
54659	-0.047583	0.099943	9.760179	-0.018214	0.005673	-0.051899	0.999953	-0.000709	-0.000666	0.009599
54660	-0.044258	0.097576	9.780336	-0.014824	0.003100	-0.031776	0.999953	-0.000707	-0.000663	0.009596
54661	-0.034591	0.090874	9.788039	-0.004967	-0.003482	-0.024167	0.999953	-0.000709	-0.000663	0.009598
54662	-0.028835	0.087082	9.775577	0.000951	-0.007152	-0.036682	0.999953	-0.000697	-0.000650	0.009597
54663	-0.046183	0.098837	9.780315	-0.016441	0.004187	-0.031779	0.999953	-0.000706	-0.000647	0.009597
54664	-0.025651	0.102586	9.755517	0.003957	0.008711	-0.056602	0.999953	-0.000711	-0.000646	0.009610
54665	-0.047266	0.099534	9.780302	-0.017550	0.004881	-0.031781	0.999953	-0.000693	-0.000651	0.009619
54666	-0.041393	0.095771	9.767842	-0.011645	0.001206	-0.044295	0.999953	-0.000696	-0.000645	0.009626
54667	-0.038194	0.093246	9.788003	-0.008252	-0.001372	-0.024169	0.999953	-0.000701	-0.000643	0.009639
54668	-0.028584	0.121975	9.800679	0.000824	0.027500	-0.011246	0.999953	-0.000704	-0.000648	0.009647
54669	-0.043055	0.096681	9.767826	-0.013282	0.002272	-0.044297	0.999953	-0.000703	-0.000644	0.009644
54670	-0.008716	0.090801	9.770917	0.021483	-0.003069	-0.041369	0.999953	-0.000695	-0.000617	0.009653
54671	-0.065654	0.094144	9.792594	-0.035346	-0.001201	-0.019485	0.999953	-0.000685	-0.000634	0.009636
54672	-0.046815	0.117154	9.760200	-0.017283	0.022523	-0.051713	0.999953	-0.000701	-0.000641	0.009647
54673	-0.051867	0.102595	9.780247	-0.021907	0.007698	-0.031792	0.999953	-0.000688	-0.000627	0.009647
54674	-0.025636	0.084733	9.783232	0.004807	-0.009859	-0.029061	0.999953	-0.000681	-0.000625	0.009633
54675	-0.042904	0.096553	9.787952	-0.012606	0.001482	-0.024174	0.999953	-0.000678	-0.000621	0.009631
54676	-0.035353	0.108949	9.788060	-0.005116	0.014079	-0.023969	0.999953	-0.000687	-0.000607	0.009630
54677	-0.036134	0.109266	9.788053	-0.005682	0.014427	-0.023970	0.999953	-0.000683	-0.000597	0.009645
54678	-0.040568	0.077011	9.762925	-0.009360	-0.017798	-0.049395	0.999953	-0.000674	-0.000585	0.009632
54679	-0.032993	0.089461	9.763034	-0.001884	-0.005183	-0.049189	0.999953	-0.000684	-0.000583	0.009632
54680	-0.021403	0.099302	9.783313	0.009525	0.004525	-0.028853	0.999953	-0.000657	-0.000591	0.009642
54681	-0.044799	0.079857	9.795522	-0.013568	-0.015576	-0.016759	0.999953	-0.000675	-0.000594	0.009635
54682	-0.020579	0.116377	9.795862	0.009980	0.021538	-0.016142	0.999953	-0.000672	-0.000589	0.009632
54683	-0.051833	0.102429	9.767725	-0.020944	0.007227	-0.044313	0.999953	-0.000671	-0.000578	0.009635
54684	-0.033976	0.107824	9.775563	-0.003050	0.012886	-0.036480	0.999953	-0.000672	-0.000578	0.009638
54685	-0.030750	0.105424	9.795729	0.000330	0.010338	-0.016348	0.999953	-0.000669	-0.000574	0.009635
54686	-0.024843	0.101466	9.783283	0.006282	0.006665	-0.028851	0.999953	-0.000677	-0.000577	0.009630
54687	-0.035641	0.108929	9.775544	-0.004678	0.013975	-0.036482	0.999953	-0.000667	-0.000572	0.009611
54688	-0.040578	0.094545	9.795596	-0.009280	-0.000851	-0.016555	0.999953	-0.000663	-0.000581	0.009628
54689	-0.044778	0.097556	9.775418	-0.013772	0.002431	-0.036690	0.999953	-0.000680	-0.000585	0.009620
54690	-0.043300	0.078631	9.783034	-0.011965	-0.016420	-0.029263	0.999953	-0.000676	-0.000587	0.009636
54691	-0.045865	0.098213	9.775407	-0.014882	0.003133	-0.036692	0.999953	-0.000674	-0.000582	0.009633
54692	-0.042553	0.095895	9.795575	-0.011498	0.000593	-0.016558	0.999953	-0.000667	-0.000591	0.009621
54693	-0.042969	0.096380	9.795568	-0.012046	0.000946	-0.016558	0.999953	-0.000662	-0.000594	0.009614
54694	-0.057610	0.106505	9.767649	-0.026912	0.011116	-0.044331	0.999953	-0.000674	-0.000585	0.009619
54695	-0.021228	0.116903	9.783349	0.009353	0.022124	-0.028646	0.999953	-0.000669	-0.000589	0.009612
54696	-0.033803	0.107891	9.763054	-0.003147	0.013108	-0.048988	0.999953	-0.000678	-0.000588	0.009612
54697	-0.047035	0.081260	9.782995	-0.015817	-0.013967	-0.029264	0.999953	-0.000668	-0.000592	0.009618
54698	-0.032842	0.089534	9.770668	-0.001890	-0.005371	-0.041555	0.999953	-0.000670	-0.000594	0.009620
54699	-0.043684	0.096916	9.762921	-0.012840	0.001914	-0.049196	0.999953	-0.000673	-0.000587	0.009628
54700	-0.042471	0.113685	9.775463	-0.011836	0.018545	-0.036496	0.999953	-0.000667	-0.000588	0.009621
54701	-0.051247	0.101932	9.775342	-0.020395	0.006624	-0.036703	0.999953	-0.000672	-0.000586	0.009634
54702	-0.031272	0.088074	9.790826	-0.000135	-0.006869	-0.021417	0.999953	-0.000679	-0.000591	0.009630
54703	-0.050173	0.083494	9.782961	-0.019090	-0.011857	-0.029268	0.999953	-0.000660	-0.000599	0.009615
54704	-0.048963	0.100439	9.795499	-0.018111	0.004782	-0.016569	0.999953	-0.000659	-0.000587	0.009617
54705	-0.036619	0.092267	9.770629	-0.005676	-0.002921	-0.041556	0.999953	-0.000658	-0.000595	0.009615
54706	-0.028888	0.104787	9.770738	0.001773	0.009702	-0.041350	0.999953	-0.000655	-0.000591	0.009612
54707	-0.044096	0.097361	9.783048	-0.013281	0.001842	-0.029064	0.999953	-0.000654	-0.000599	0.009610
54708	-0.054852	0.104770	9.775292	-0.024231	0.009111	-0.036714	0.999954	-0.000656	-0.000595	0.009595
54709	-0.045228	0.098144	9.783035	-0.014392	0.002545	-0.029066	0.999953	-0.000649	-0.000591	0.009605
54710	-0.039433	0.094137	9.770601	-0.008446	-0.001127	-0.041557	0.999954	-0.000665	-0.000583	0.009597
54711	-0.040034	0.094431	9.770595	-0.009009	-0.000777	-0.041558	0.999954	-0.000657	-0.000587	0.009602
54712	-0.050761	0.101964	9.762835	-0.019968	0.006490	-0.049210	0.999954	-0.000652	-0.000590	0.009595
54713	-0.055839	0.087466	9.782895	-0.024626	-0.008315	-0.029276	0.999954	-0.000655	-0.000579	0.009585
54714	-0.004831	0.105795	9.786315	0.026145	0.011001	-0.025840	0.999954	-0.000656	-0.000579	0.009587
54715	-0.040626	0.112316	9.783111	-0.010063	0.018603	-0.028870	0.999953	-0.000748	-0.000589	0.009624
54716	-0.043099	0.096221	9.770565	-0.012121	0.002643	-0.041562	0.999953	-0.000747	-0.000579	0.009627
54717	-0.039947	0.093882	9.790741	-0.008778	0.000119	-0.021419	0.999953	-0.000742	-0.000582	0.009620
54718	-0.030166	0.087231	9.798494	0.001055	-0.006441	-0.013761	0.999953	-0.000745	-0.000589	0.009628
54719	-0.038396	0.093123	9.758121	-0.007300	-0.000332	-0.054049	0.999953	-0.000740	-0.000570	0.009620
54720	-0.033586	0.107244	9.790836	-0.002475	0.013453	-0.021216	0.999953	-0.000735	-0.000572	0.009613
54721	-0.060903	0.090442	9.782838	-0.029461	-0.003827	-0.029287	0.999953	-0.000735	-0.000564	0.009614
54722	-0.049324	0.064660	9.798241	-0.017184	-0.029542	-0.014169	0.999953	-0.000733	-0.000559	0.009612
54723	-0.020887	0.116285	9.778509	0.010331	0.022791	-0.033497	0.999953	-0.000734	-0.000549	0.009614
54724	-0.028100	0.121021	9.790923	0.003262	0.027175	-0.021015	0.999953	-0.000724	-0.000540	0.009619
54725	-0.047188	0.116371	9.783035	-0.015693	0.022152	-0.028885	0.999953	-0.000725	-0.000541	0.009622
54726	-0.047392	0.081111	9.778146	-0.015309	-0.012978	-0.034111	0.999953	-0.000732	-0.000547	0.009617
54727	-0.033378	0.089310	9.765836	-0.001381	-0.004352	-0.046387	0.999953	-0.000728	-0.000529	0.009608
54728	-0.023753	0.082704	9.773598	0.008438	-0.010877	-0.038720	0.999953	-0.000730	-0.000543	0.009611
54729	-0.045703	0.115060	9.803193	-0.014114	0.020755	-0.008744	0.999953	-0.000727	-0.000539	0.009609
54730	-0.031255	0.087798	9.786006	0.000805	-0.006134	-0.026239	0.999953	-0.000722	-0.000542	0.009602
54731	-0.060471	0.090109	9.770344	-0.028571	-0.004251	-0.041783	0.999953	-0.000724	-0.000544	0.009603
54732	-0.025895	0.084341	9.773579	0.006168	-0.009423	-0.038717	0.999954	-0.000719	-0.000537	0.009595
54733	-0.043226	0.096136	9.778216	-0.011354	0.001869	-0.033910	0.999954	-0.000711	-0.000542	0.009600
54734	-0.015435	0.130082	9.798743	0.015886	0.036227	-0.013149	0.999954	-0.000728	-0.000535	0.009592
54735	-0.054864	0.103506	9.770431	-0.022904	0.009493	-0.041585	0.999954	-0.000744	-0.000520	0.009601
54736	-0.041312	0.094020	9.798391	-0.009203	0.000094	-0.013763	0.999954	-0.000739	-0.000547	0.009595
54737	-0.011973	0.074788	9.768918	0.020229	-0.018529	-0.043514	0.999954	-0.000718	-0.000538	0.009597
54738	-0.029488	0.086561	9.773549	0.002733	-0.007239	-0.038713	0.999954	-0.000728	-0.000525	0.009596
54739	-0.040360	0.093809	9.765767	-0.008252	0.000014	-0.046390	0.999953	-0.000733	-0.000531	0.009604
54740	-0.028754	0.103583	9.786068	0.003018	0.009817	-0.026034	0.999954	-0.000729	-0.000547	0.009597
54741	-0.016088	0.095452	9.761239	0.015528	0.002121	-0.050981	0.999954	-0.000728	-0.000555	0.009594
54742	-0.042121	0.077507	9.806018	-0.010214	-0.016866	-0.006292	0.999954	-0.000717	-0.000567	0.009595
54743	-0.038214	0.092840	9.785935	-0.006701	-0.001356	-0.026240	0.999954	-0.000718	-0.000558	0.009596
54744	-0.032760	0.124619	9.778374	-0.001752	0.030456	-0.033512	0.999954	-0.000704	-0.000554	0.009591
54745	-0.049628	0.100936	9.778137	-0.018267	0.006246	-0.033923	0.999954	-0.000696	-0.000570	0.009597
54746	-0.021396	0.099449	9.793812	0.009948	0.005149	-0.018354	0.999954	-0.000704	-0.000564	0.009591
54747	-0.052394	0.085188	9.765602	-0.020841	-0.009330	-0.046600	0.999954	-0.000706	-0.000566	0.009593
54748	-0.034498	0.090762	9.773495	-0.003056	-0.003555	-0.038711	0.999954	-0.000699	-0.000567	0.009580
54749	-0.048156	0.099642	9.798304	-0.016703	0.004878	-0.013774	0.999954	-0.000711	-0.000558	0.009585
54750	-0.046059	0.098386	9.765697	-0.014577	0.004040	-0.046398	0.999954	-0.000705	-0.000555	0.009595
54751	-0.020015	0.115998	9.773707	0.011217	0.022109	-0.038303	0.999954	-0.000715	-0.000552	0.009595
54752	-0.045145	0.079898	9.773360	-0.013246	-0.014394	-0.038916	0.999954	-0.000711	-0.000556	0.009587
54753	-0.055983	0.087466	9.765562	-0.024223	-0.007163	-0.046606	0.999953	-0.000695	-0.000549	0.009618
54754	-0.036513	0.109587	9.785977	-0.005020	0.014958	-0.026042	0.999953	-0.000693	-0.000547	0.009615
54755	-0.017511	0.097101	9.748759	0.014041	0.003226	-0.063439	0.999953	-0.000698	-0.000554	0.009622
54756	-0.052290	0.102432	9.798254	-0.020708	0.007432	-0.013783	0.999953	-0.000696	-0.000551	0.009619
54757	-0.041984	0.113406	9.765761	-0.010657	0.018883	-0.046201	0.999954	-0.000695	-0.000545	0.009598
54758	-0.045007	0.080048	9.793515	-0.012899	-0.015027	-0.018762	0.999953	-0.000671	-0.000548	0.009614
54759	-0.047525	0.099591	9.785828	-0.015904	0.004493	-0.026251	0.999953	-0.000691	-0.000556	0.009611
54760	-0.034940	0.091250	9.761021	-0.003391	-0.003203	-0.051178	0.999953	-0.000687	-0.000561	0.009603
54761	-0.038305	0.093208	9.793614	-0.006693	-0.001629	-0.018558	0.999953	-0.000691	-0.000557	0.009611
54762	-0.052859	0.103277	9.765612	-0.021522	0.008421	-0.046413	0.999953	-0.000687	-0.000561	0.009603
54763	-0.068121	0.095845	9.777890	-0.036617	0.000539	-0.034159	0.999954	-0.000686	-0.000558	0.009600
54764	-0.018805	0.098114	9.768910	0.012655	0.003722	-0.043276	0.999954	-0.000675	-0.000558	0.009599
54765	-0.027565	0.086425	9.768791	0.004129	-0.008215	-0.043480	0.999953	-0.000678	-0.000557	0.009625
54766	-0.043275	0.114404	9.785894	-0.012059	0.019369	-0.026056	0.999954	-0.000683	-0.000556	0.009596
54767	-0.026834	0.103569	9.781292	0.004326	0.008844	-0.030815	0.999953	-0.000672	-0.000584	0.009616
54768	-0.043461	0.079794	9.781060	-0.012155	-0.015384	-0.031225	0.999953	-0.000668	-0.000588	0.009608
54769	-0.042426	0.096598	9.793564	-0.011352	0.001327	-0.018562	0.999954	-0.000674	-0.000579	0.009597
54770	-0.040246	0.095385	9.760961	-0.009180	0.000465	-0.051181	0.999954	-0.000669	-0.000582	0.009590
54771	-0.037149	0.093065	9.781156	-0.005906	-0.001999	-0.031020	0.999954	-0.000673	-0.000571	0.009579
54772	-0.058248	0.107302	9.765538	-0.027283	0.012080	-0.046432	0.999954	-0.000678	-0.000577	0.009586
54773	-0.048326	0.100826	9.773338	-0.017452	0.005602	-0.038727	0.999954	-0.000661	-0.000596	0.009595
54774	-0.048653	0.101285	9.773331	-0.018028	0.005969	-0.038729	0.999954	-0.000669	-0.000602	0.009590
54775	-0.047186	0.082454	9.781021	-0.016148	-0.012819	-0.031227	0.999954	-0.000670	-0.000592	0.009591
54776	-0.046301	0.099214	9.793520	-0.015387	0.003899	-0.018568	0.999954	-0.000675	-0.000584	0.009580
54777	-0.044085	0.097949	9.760919	-0.013214	0.003029	-0.051186	0.999954	-0.000675	-0.000590	0.009601
54778	-0.037233	0.092996	9.801318	-0.006130	-0.002211	-0.010860	0.999954	-0.000671	-0.000583	0.009592
54779	-0.033324	0.108308	9.781221	-0.002596	0.013283	-0.030819	0.999953	-0.000666	-0.000592	0.009602
54780	-0.052211	0.103530	9.773289	-0.021533	0.008185	-0.038737	0.999953	-0.000668	-0.000595	0.009605
54781	-0.034391	0.109050	9.781209	-0.003755	0.014030	-0.030821	0.999953	-0.000672	-0.000589	0.009611
54782	-0.032963	0.090290	9.788905	-0.001881	-0.004741	-0.023312	0.999953	-0.000671	-0.000587	0.009608
54783	-0.037980	0.075888	9.808991	-0.006575	-0.019485	-0.003351	0.999954	-0.000667	-0.000592	0.009600
54784	-0.044438	0.097954	9.781078	-0.013468	0.002830	-0.031028	0.999953	-0.000682	-0.000578	0.009609
54785	-0.041471	0.095519	9.801277	-0.010217	0.000386	-0.010863	0.999953	-0.000680	-0.000575	0.009606
54786	-0.031052	0.106209	9.768794	-0.000122	0.011837	-0.043274	0.999954	-0.000707	-0.000578	0.009595
54787	-0.041864	0.113355	9.760971	-0.011111	0.019040	-0.050993	0.999954	-0.000700	-0.000578	0.009582
54788	-0.036632	0.092032	9.788875	-0.005377	-0.002527	-0.023313	0.999954	-0.000698	-0.000579	0.009597
54789	-0.037364	0.092524	9.788868	-0.005960	-0.002159	-0.023313	0.999954	-0.000689	-0.000560	0.009601
54790	-0.037918	0.092996	9.788861	-0.006529	-0.001783	-0.023313	0.999954	-0.000689	-0.000580	0.009599
54791	-0.033972	0.107988	9.768765	-0.003007	0.013694	-0.043277	0.999954	-0.000712	-0.000566	0.009582
54792	-0.041961	0.094992	9.821444	-0.010464	0.000191	0.009300	0.999954	-0.000704	-0.000570	0.009587
54793	-0.060032	0.107596	9.773201	-0.029107	0.012988	-0.038762	0.999954	-0.000720	-0.000582	0.009574
54794	-0.040028	0.093941	9.788844	-0.008890	-0.000305	-0.023315	0.999954	-0.000718	-0.000580	0.009571
54795	-0.032516	0.106425	9.788952	-0.001544	0.012383	-0.023110	0.999954	-0.000726	-0.000575	0.009565
54796	-0.032941	0.106734	9.788948	-0.002134	0.012761	-0.023111	0.999954	-0.000726	-0.000596	0.009564
54797	-0.026718	0.102878	9.776560	0.003868	0.009093	-0.035554	0.999954	-0.000722	-0.000601	0.009556
54798	-0.053614	0.085914	9.768500	-0.022986	-0.008355	-0.043693	0.999954	-0.000721	-0.000622	0.009554
54799	-0.046197	0.098286	9.768608	-0.015665	0.004332	-0.043489	0.999954	-0.000739	-0.000586	0.009549
54800	-0.028688	0.103787	9.776545	0.002075	0.010191	-0.035555	0.999954	-0.000731	-0.000591	0.009554
54801	-0.027009	0.085232	9.784254	0.003984	-0.008584	-0.028029	0.999954	-0.000721	-0.000602	0.009554
54802	-0.029526	0.104689	9.776533	0.000927	0.010925	-0.035556	0.999954	-0.000734	-0.000606	0.009559
54803	-0.044687	0.097055	9.788794	-0.014183	0.003015	-0.023321	0.999954	-0.000734	-0.000615	0.009557
54804	-0.043632	0.113818	9.801280	-0.013446	0.019746	-0.010679	0.999954	-0.000742	-0.000610	0.009551
54805	-0.047349	0.081271	9.776290	-0.016665	-0.012597	-0.035967	0.999954	-0.000737	-0.000619	0.009561
54806	-0.043306	0.096445	9.756188	-0.013132	0.002879	-0.055935	0.999954	-0.000745	-0.000626	0.009556
54807	-0.035038	0.107928	9.809095	-0.004818	0.014058	-0.002947	0.999954	-0.000741	-0.000609	0.009547
54808	-0.044668	0.097058	9.756176	-0.014323	0.003620	-0.055937	0.999954	-0.000757	-0.000618	0.009557
54809	-0.020997	0.080762	9.792056	0.009711	-0.012419	-0.020288	0.999954	-0.000756	-0.000615	0.009554
54810	-0.035416	0.090847	9.764002	-0.005085	-0.002454	-0.048201	0.999954	-0.000746	-0.000627	0.009554
54811	-0.032630	0.124241	9.788972	-0.003067	0.030634	-0.022921	0.999954	-0.000745	-0.000637	0.009552
54812	-0.044971	0.115124	9.768639	-0.015369	0.021457	-0.043302	0.999954	-0.000743	-0.000635	0.009549
54813	-0.041272	0.077315	9.784084	-0.010980	-0.016436	-0.028231	0.999954	-0.000743	-0.000644	0.009546
54814	-0.054087	0.103972	9.768509	-0.024460	0.009877	-0.043511	0.999954	-0.000719	-0.000647	0.009562
54815	-0.037768	0.093411	9.763969	-0.008007	-0.000599	-0.048202	0.999954	-0.000715	-0.000650	0.009554
54816	-0.034624	0.091077	9.784178	-0.004778	-0.003012	-0.028026	0.999954	-0.000725	-0.000649	0.009554
54817	-0.052166	0.102580	9.788700	-0.022425	0.008201	-0.023340	0.999954	-0.000723	-0.000638	0.009550
54818	-0.046373	0.098743	9.776321	-0.016393	0.004532	-0.035773	0.999954	-0.000719	-0.000630	0.009542
54819	-0.049915	0.100945	9.808897	-0.019816	0.006163	-0.003166	0.999954	-0.000704	-0.000631	0.009554
54820	-0.047498	0.099838	9.776304	-0.017571	0.005253	-0.035775	0.999954	-0.000703	-0.000640	0.009552
54821	-0.029550	0.105559	9.784257	0.000176	0.011144	-0.027823	0.999954	-0.000694	-0.000644	0.009558
54822	-0.048406	0.100676	9.776291	-0.018764	0.005988	-0.035778	0.999954	-0.000703	-0.000653	0.009552
54823	-0.042431	0.096683	9.763918	-0.012741	0.002320	-0.048207	0.999954	-0.000704	-0.000644	0.009554
54824	-0.032891	0.090268	9.771759	-0.002915	-0.004111	-0.040457	0.999954	-0.000690	-0.000639	0.009548
54825	-0.039957	0.095043	9.784120	-0.010117	0.000285	-0.028030	0.999954	-0.000692	-0.000653	0.009551
54826	-0.057235	0.106668	9.788628	-0.027741	0.011477	-0.023357	0.999954	-0.000685	-0.000653	0.009539
54827	-0.026240	0.103803	9.771854	0.003262	0.009291	-0.040252	0.999954	-0.000685	-0.000654	0.009541
54828	-0.045048	0.098843	9.763884	-0.015632	0.004125	-0.048212	0.999954	-0.000691	-0.000668	0.009531
54829	-0.045449	0.099202	9.763879	-0.016186	0.004487	-0.048213	0.999954	-0.000687	-0.000671	0.009524
54830	-0.034123	0.109054	9.784204	-0.005088	0.014430	-0.027828	0.999954	-0.000699	-0.000677	0.009506
54831	-0.042858	0.097158	9.784087	-0.013581	0.002454	-0.028034	0.999954	-0.000695	-0.000668	0.009521
54832	-0.036941	0.093180	9.771718	-0.007506	-0.001230	-0.040459	0.999954	-0.000705	-0.000666	0.009521
54833	-0.035914	0.110050	9.784186	-0.006806	0.015507	-0.027831	0.999954	-0.000692	-0.000672	0.009516
54834	-0.048215	0.100894	9.763848	-0.019071	0.006275	-0.048220	0.999954	-0.000702	-0.000673	0.009516
54835	-0.038497	0.094335	9.771700	-0.009013	0.000770	-0.040460	0.999954	-0.000741	-0.000665	0.009575
54836	-0.045599	0.099056	9.784055	-0.016218	0.005191	-0.028039	0.999954	-0.000743	-0.000666	0.009577
54837	-0.043911	0.080463	9.791797	-0.014281	-0.013560	-0.020481	0.999954	-0.000729	-0.000678	0.009591
54838	-0.050010	0.102481	9.763823	-0.021124	0.008665	-0.048226	0.999954	-0.000750	-0.000692	0.009571
54839	-0.038611	0.112288	9.784151	-0.010034	0.018630	-0.027839	0.999954	-0.000743	-0.000696	0.009577
54840	-0.047307	0.100686	9.784030	-0.018494	0.006641	-0.028044	0.999954	-0.000728	-0.000691	0.009572
54841	-0.022963	0.102103	9.779639	0.005876	0.008520	-0.032494	0.999954	-0.000738	-0.000689	0.009572
54842	-0.038264	0.094400	9.791882	-0.009211	0.000595	-0.020280	0.999954	-0.000746	-0.000688	0.009584
54843	-0.034428	0.109447	9.771767	-0.005633	0.016036	-0.040262	0.999954	-0.000753	-0.000680	0.009579
54844	-0.057889	0.089751	9.783894	-0.028605	-0.004260	-0.028254	0.999954	-0.000741	-0.000679	0.009580
54845	-0.042164	0.114576	9.784109	-0.013434	0.020786	-0.027847	0.999954	-0.000745	-0.000687	0.009587
54846	-0.017021	0.080281	9.775016	0.012206	-0.012830	-0.037343	0.999954	-0.000753	-0.000693	0.009583
54847	-0.036480	0.110922	9.771743	-0.007941	0.017457	-0.040266	0.999954	-0.000744	-0.000697	0.009589
54848	-0.041570	0.096521	9.791848	-0.012640	0.002743	-0.020284	0.999954	-0.000749	-0.000687	0.009577
54849	-0.027545	0.104820	9.779599	0.001323	0.011420	-0.032495	0.999954	-0.000744	-0.000684	0.009588
54850	-0.053140	0.104244	9.783963	-0.024167	0.010249	-0.028060	0.999954	-0.000743	-0.000680	0.009585
54851	-0.047002	0.100335	9.771604	-0.018081	0.006559	-0.040475	0.999954	-0.000743	-0.000692	0.009589
54852	-0.043823	0.098098	9.791823	-0.014876	0.004184	-0.020288	0.999954	-0.000741	-0.000688	0.009586
54853	-0.031213	0.089824	9.767113	-0.002169	-0.003531	-0.045113	0.999954	-0.000752	-0.000688	0.009586
54854	-0.045036	0.098675	9.791811	-0.016037	0.004893	-0.020290	0.999954	-0.000749	-0.000685	0.009585
54855	-0.055847	0.105993	9.783929	-0.027030	0.012026	-0.028069	0.999954	-0.000745	-0.000690	0.009577
54856	-0.042974	0.098006	9.759220	-0.014296	0.004305	-0.052892	0.999954	-0.000728	-0.000708	0.009586
54857	-0.056752	0.107037	9.783913	-0.028173	0.012746	-0.028073	0.999954	-0.000735	-0.000690	0.009580
54858	-0.050765	0.103161	9.771555	-0.022065	0.009079	-0.040485	0.999954	-0.000725	-0.000700	0.009581
54859	-0.044663	0.099281	9.759199	-0.015980	0.005399	-0.052895	0.999954	-0.000733	-0.000694	0.009576
54860	-0.046140	0.082194	9.799537	-0.016918	-0.012031	-0.012719	0.999954	-0.000731	-0.000691	0.009573
54861	-0.039987	0.078458	9.787183	-0.010799	-0.015703	-0.025127	0.999954	-0.000715	-0.000703	0.009564
54862	-0.035982	0.093841	9.767058	-0.007239	-0.000275	-0.045115	0.999954	-0.000709	-0.000699	0.009574
54863	-0.039519	0.095995	9.799627	-0.010728	0.001397	-0.012516	0.999954	-0.000705	-0.000703	0.009567
54864	-0.054170	0.105827	9.771508	-0.025437	0.011225	-0.040495	0.999954	-0.000710	-0.000679	0.009579
54865	-0.034196	0.092460	9.787269	-0.005185	-0.001909	-0.024923	0.999954	-0.000704	-0.000705	0.009586
54866	-0.038157	0.095548	9.767034	-0.009509	0.001180	-0.045117	0.999953	-0.000699	-0.000703	0.009596
54867	-0.035759	0.128992	9.791935	-0.007669	0.034326	-0.019900	0.999954	-0.000694	-0.000706	0.009589
54868	-0.044254	0.117393	9.791816	-0.016103	0.022322	-0.020106	0.999954	-0.000674	-0.000719	0.009593
54869	-0.042584	0.098843	9.799586	-0.014137	0.003584	-0.012521	0.999953	-0.000678	-0.000714	0.009600
54870	-0.028375	0.107207	9.787345	-0.000177	0.012259	-0.024721	0.999953	-0.000667	-0.000725	0.009601
54871	-0.040518	0.098139	9.766998	-0.012364	0.002985	-0.045120	0.999953	-0.000660	-0.000729	0.009607
54872	-0.030760	0.091380	9.774885	-0.002525	-0.003400	-0.037328	0.999953	-0.000695	-0.000732	0.009612
54873	-0.048137	0.102642	9.779334	-0.020155	0.007741	-0.032721	0.999953	-0.000686	-0.000735	0.009618
54874	-0.034700	0.093652	9.807449	-0.006567	-0.001358	-0.004732	0.999953	-0.000685	-0.000743	0.009616
54875	-0.049092	0.103542	9.779319	-0.021275	0.008458	-0.032723	0.999953	-0.000679	-0.000740	0.009626
54876	-0.039442	0.097001	9.787205	-0.011411	0.002069	-0.024929	0.999953	-0.000689	-0.000737	0.009626
54877	-0.016557	0.081767	9.770415	0.011745	-0.012393	-0.041931	0.999953	-0.000696	-0.000733	0.009621
54878	-0.039129	0.114094	9.799643	-0.011409	0.019183	-0.012328	0.999953	-0.000686	-0.000744	0.009622
54879	-0.044851	0.100742	9.766953	-0.016881	0.005845	-0.045128	0.999953	-0.000677	-0.000724	0.009627
54880	-0.033766	0.110819	9.787288	-0.005841	0.015854	-0.024728	0.999953	-0.000678	-0.000736	0.009631
54881	-0.043777	0.082445	9.774728	-0.015444	-0.012541	-0.037534	0.999953	-0.000680	-0.000733	0.009615
54882	-0.026173	0.088210	9.782728	0.002246	-0.006544	-0.029529	0.999953	-0.000675	-0.000718	0.009625
54883	-0.051886	0.087588	9.787050	-0.023278	-0.007778	-0.025139	0.999953	-0.000673	-0.000716	0.009622
54884	-0.037788	0.095925	9.774816	-0.009324	0.000907	-0.037332	0.999953	-0.000671	-0.000713	0.009620
54885	-0.042050	0.098888	9.754575	-0.013610	0.003965	-0.057531	0.999953	-0.000671	-0.000707	0.009640
54886	-0.057332	0.091250	9.766794	-0.028700	-0.004010	-0.045342	0.999953	-0.000679	-0.000713	0.009636
54887	-0.022794	0.085817	9.770368	0.006114	-0.008794	-0.041922	0.999953	-0.000673	-0.000691	0.009628
54888	-0.038828	0.114005	9.787233	-0.010379	0.018746	-0.024737	0.999953	-0.000660	-0.000709	0.009624
54889	-0.037163	0.095546	9.795019	-0.008403	0.000012	-0.017135	0.999953	-0.000649	-0.000697	0.009624
54890	-0.036859	0.113365	9.754647	-0.008556	0.018128	-0.057332	0.999953	-0.000651	-0.000709	0.009627
54891	-0.038214	0.096296	9.795008	-0.009520	0.000734	-0.017136	0.999953	-0.000658	-0.000703	0.009622
54892	-0.038802	0.096464	9.795004	-0.010091	0.001111	-0.017137	0.999953	-0.000672	-0.000707	0.009627
54893	-0.046643	0.101864	9.754523	-0.018073	0.006853	-0.057540	0.999953	-0.000669	-0.000695	0.009642
54894	-0.048065	0.084946	9.794883	-0.019046	-0.010538	-0.017342	0.999953	-0.000666	-0.000706	0.009618
54895	-0.025737	0.105401	9.782767	0.002753	0.010536	-0.029325	0.999953	-0.000677	-0.000705	0.009617
54896	-0.034486	0.093443	9.782653	-0.005669	-0.001463	-0.029529	0.999953	-0.000678	-0.000695	0.009619
54897	-0.036488	0.077314	9.770211	-0.007365	-0.017517	-0.042121	0.999953	-0.000677	-0.000703	0.009618
54898	-0.048017	0.120130	9.766927	-0.019768	0.025066	-0.044955	0.999953	-0.000675	-0.000699	0.009616
54899	-0.053047	0.105776	9.787050	-0.024436	0.010346	-0.024958	0.999953	-0.000670	-0.000701	0.009610
54900	-0.034532	0.076135	9.790433	-0.005335	-0.019134	-0.021917	0.999953	-0.000656	-0.000696	0.009605
54901	-0.047591	0.102654	9.774705	-0.018901	0.007033	-0.037348	0.999953	-0.000645	-0.000696	0.009605
54902	-0.026772	0.106531	9.750159	0.001770	0.011690	-0.061917	0.999953	-0.000671	-0.000697	0.009595
54903	-0.050033	0.086734	9.762261	-0.021156	-0.008655	-0.049940	0.999953	-0.000645	-0.000705	0.009606
54904	-0.038809	0.097040	9.782602	-0.010183	0.001393	-0.029532	0.999954	-0.000644	-0.000709	0.009587
54905	-0.046140	0.101759	9.794919	-0.017454	0.005789	-0.017149	0.999954	-0.000638	-0.000694	0.009596
54906	-0.054987	0.090045	9.794802	-0.025845	-0.006245	-0.017354	0.999953	-0.000629	-0.000686	0.009602
54907	-0.051278	0.105179	9.774660	-0.022258	0.009158	-0.037357	0.999953	-0.000638	-0.000671	0.009602
54908	-0.041560	0.098693	9.782574	-0.012411	0.002806	-0.029535	0.999953	-0.000631	-0.000686	0.009608
54909	-0.033784	0.111350	9.782677	-0.005161	0.015550	-0.029332	0.999953	-0.000633	-0.000699	0.009612
54910	-0.038589	0.096995	9.802806	-0.009837	0.000856	-0.009330	0.999953	-0.000626	-0.000709	0.009600
54911	-0.029543	0.091351	9.757916	-0.000676	-0.004186	-0.054300	0.999953	-0.000631	-0.000684	0.009612
54912	-0.040049	0.097735	9.802793	-0.010929	0.001564	-0.009331	0.999953	-0.000627	-0.000686	0.009605
54913	-0.029381	0.108558	9.770333	-0.000647	0.012936	-0.041716	0.999953	-0.000634	-0.000691	0.009601
54914	-0.044559	0.100825	9.782539	-0.015751	0.004952	-0.029541	0.999954	-0.000642	-0.000697	0.009596
54915	-0.038430	0.096813	9.770216	-0.009586	0.001267	-0.041921	0.999954	-0.000644	-0.000692	0.009581
54916	-0.045729	0.101464	9.782527	-0.016859	0.005663	-0.029543	0.999954	-0.000642	-0.000688	0.009579
54917	-0.046358	0.101831	9.782521	-0.017435	0.006022	-0.029544	0.999954	-0.000644	-0.000685	0.009564
54918	-0.038843	0.114376	9.782623	-0.010185	0.018760	-0.029342	0.999954	-0.000648	-0.000691	0.009572
54919	-0.029006	0.108144	9.790545	-0.000331	0.012439	-0.021510	0.999954	-0.000623	-0.000699	0.009583
54920	-0.027293	0.089580	9.798361	0.001707	-0.006276	-0.013881	0.999954	-0.000637	-0.000697	0.009570
54921	-0.038114	0.096582	9.790426	-0.009287	0.000778	-0.021715	0.999954	-0.000642	-0.000699	0.009561
54922	-0.042165	0.099448	9.770174	-0.013513	0.003784	-0.041926	0.999954	-0.000640	-0.000705	0.009560
54923	-0.038987	0.097310	9.790415	-0.010357	0.001460	-0.021716	0.999954	-0.000637	-0.000712	0.009559
54924	-0.032823	0.093427	9.778096	-0.004181	-0.002233	-0.034091	0.999954	-0.000635	-0.000707	0.009557
54925	-0.050295	0.105005	9.782468	-0.021881	0.008869	-0.029555	0.999954	-0.000626	-0.000713	0.009540
54926	-0.025758	0.106572	9.778191	0.002477	0.010900	-0.033888	0.999954	-0.000631	-0.000720	0.009548
54927	-0.034407	0.094692	9.778078	-0.005895	-0.001124	-0.034092	0.999954	-0.000628	-0.000709	0.009563
54928	-0.043213	0.082845	9.777964	-0.014249	-0.013167	-0.034296	0.999954	-0.000628	-0.000698	0.009565
54929	-0.046033	0.102143	9.770129	-0.017424	0.006273	-0.041934	0.999954	-0.000640	-0.000704	0.009548
54930	-0.036249	0.095630	9.778063	-0.007558	-0.000056	-0.034093	0.999954	-0.000636	-0.000706	0.009541
54931	-0.036833	0.095968	9.778057	-0.008111	0.000301	-0.034093	0.999954	-0.000643	-0.000699	0.009536
54932	-0.044148	0.100618	9.790360	-0.015392	0.004699	-0.021724	0.999954	-0.000636	-0.000698	0.009524
54933	-0.048252	0.103657	9.770102	-0.019632	0.007703	-0.041939	0.999954	-0.000628	-0.000701	0.009530
54934	-0.030426	0.109468	9.778146	-0.001928	0.013767	-0.033891	0.999954	-0.000635	-0.000704	0.009526
54935	-0.041243	0.116699	9.770196	-0.012881	0.020802	-0.041738	0.999954	-0.000621	-0.000697	0.009521
54936	-0.039874	0.098102	9.778024	-0.010806	0.002073	-0.034096	0.999954	-0.000626	-0.000671	0.009533
54937	-0.048805	0.086372	9.777908	-0.019161	-0.009968	-0.034300	0.999954	-0.000606	-0.000660	0.009536
54938	-0.016360	0.100366	9.773755	0.013034	0.004459	-0.038413	0.999954	-0.000604	-0.000667	0.009535
54939	-0.031648	0.092832	9.785948	-0.002063	-0.003556	-0.026249	0.999954	-0.000599	-0.000659	0.009528
54940	-0.050591	0.087694	9.777887	-0.020819	-0.008906	-0.034303	0.999954	-0.000609	-0.000656	0.009527
54941	-0.036068	0.095150	9.818494	-0.006218	-0.001440	0.006332	0.999954	-0.000613	-0.000649	0.009535
54942	-0.050450	0.104676	9.790287	-0.020878	0.008231	-0.021736	0.999954	-0.000624	-0.000655	0.009518
54943	-0.058953	0.092758	9.790173	-0.029213	-0.003820	-0.021941	0.999954	-0.000616	-0.000658	0.009524
54944	-0.051503	0.105554	9.790272	-0.021955	0.008934	-0.021739	0.999954	-0.000605	-0.000650	0.009507
54945	-0.031916	0.093102	9.753361	-0.002293	-0.002801	-0.058830	0.999954	-0.000613	-0.000660	0.009520
54946	-0.047024	0.085445	9.765551	-0.017373	-0.010808	-0.046671	0.999954	-0.000612	-0.000667	0.009519
54947	-0.039510	0.098095	9.765652	-0.010139	0.001943	-0.046468	0.999954	-0.000610	-0.000664	0.009517
54948	-0.034352	0.076951	9.793748	-0.004408	-0.019409	-0.018598	0.999954	-0.000608	-0.000659	0.009515
54949	-0.029028	0.108617	9.786001	0.000241	0.012413	-0.026048	0.999954	-0.000609	-0.000670	0.009519
54950	-0.047693	0.103424	9.777934	-0.018522	0.007036	-0.034110	0.999954	-0.000617	-0.000675	0.009515
54951	-0.031337	0.092639	9.773587	-0.001926	-0.003308	-0.038612	0.999954	-0.000617	-0.000665	0.009517
54952	-0.045238	0.101770	9.798175	-0.015967	0.005110	-0.013893	0.999954	-0.000596	-0.000681	0.009540
54953	-0.032266	0.093699	9.773574	-0.003014	-0.002600	-0.038612	0.999954	-0.000604	-0.000674	0.009534
54954	-0.031538	0.110577	9.785972	-0.002505	0.014186	-0.026051	0.999954	-0.000599	-0.000676	0.009528
54955	-0.044547	0.083964	9.806009	-0.014026	-0.011628	-0.006235	0.999954	-0.000664	-0.000627	0.009571
54956	-0.040702	0.099122	9.785852	-0.010442	0.003745	-0.026255	0.999954	-0.000659	-0.000618	0.009565
54957	-0.034708	0.095299	9.773550	-0.004224	0.000054	-0.038612	0.999954	-0.000653	-0.000608	0.009558
54958	-0.041827	0.099767	9.785841	-0.011529	0.004440	-0.026256	0.999954	-0.000676	-0.000631	0.009563
54959	-0.027389	0.107960	9.773650	0.002465	0.013165	-0.038412	0.999954	-0.000668	-0.000633	0.009570
54960	-0.060971	0.095121	9.777758	-0.030840	-0.000595	-0.034325	0.999954	-0.000651	-0.000628	0.009578
54961	-0.037995	0.080310	9.761128	-0.007483	-0.014963	-0.051169	0.999954	-0.000652	-0.000618	0.009580
54962	-0.044065	0.101452	9.785814	-0.013759	0.005873	-0.026260	0.999954	-0.000657	-0.000618	0.009571
54963	-0.026334	0.107248	9.793882	0.003891	0.011996	-0.018191	0.999954	-0.000658	-0.000617	0.009574
54964	-0.053157	0.089842	9.785696	-0.022614	-0.005813	-0.026463	0.999954	-0.000659	-0.000617	0.009577
54965	-0.041004	0.117308	9.765642	-0.011231	0.021988	-0.046285	0.999954	-0.000649	-0.000637	0.009580
54966	-0.053957	0.090836	9.785682	-0.023671	-0.005081	-0.026465	0.999954	-0.000643	-0.000622	0.009566
54967	-0.031912	0.111420	9.773597	-0.001919	0.016073	-0.038416	0.999954	-0.000653	-0.000621	0.009567
54968	-0.030066	0.092781	9.781457	0.000153	-0.002621	-0.030745	0.999954	-0.000641	-0.000638	0.009563
54969	-0.047495	0.104254	9.785768	-0.017558	0.008421	-0.026268	0.999954	-0.000648	-0.000630	0.009559
54970	-0.048129	0.104447	9.785763	-0.018127	0.008780	-0.026269	0.999954	-0.000659	-0.000629	0.009559
54971	-0.033961	0.112684	9.773576	-0.004126	0.017511	-0.038419	0.999954	-0.000660	-0.000629	0.009563
54972	-0.050310	0.088395	9.773360	-0.020193	-0.006979	-0.038821	0.999954	-0.000670	-0.000648	0.009565
54973	-0.049306	0.105006	9.785751	-0.019716	0.009808	-0.026273	0.999954	-0.000689	-0.000654	0.009565
54974	-0.039566	0.098469	9.793721	-0.009842	0.003521	-0.018397	0.999954	-0.000683	-0.000649	0.009576
54975	-0.033444	0.094507	9.781429	-0.003617	-0.000152	-0.030745	0.999954	-0.000694	-0.000647	0.009576
54976	-0.050747	0.105849	9.785735	-0.021335	0.010881	-0.026278	0.999954	-0.000690	-0.000671	0.009571
54977	-0.051039	0.106199	9.785730	-0.021912	0.011243	-0.026279	0.999954	-0.000696	-0.000673	0.009561
54978	-0.026702	0.107740	9.781522	0.002519	0.013349	-0.030545	0.999954	-0.000697	-0.000660	0.009564
54979	-0.068256	0.082221	9.785505	-0.038505	-0.012882	-0.026683	0.999954	-0.000707	-0.000669	0.009565
54980	-0.025456	0.089218	9.789386	0.004085	-0.004994	-0.022864	0.999954	-0.000708	-0.000669	0.009569
54981	-0.039800	0.098910	9.761137	-0.010491	0.004593	-0.050975	0.999954	-0.000697	-0.000665	0.009570
54982	-0.058258	0.093127	9.805855	-0.028703	-0.002015	-0.006260	0.999954	-0.000704	-0.000669	0.009567
54983	-0.045394	0.084845	9.781283	-0.015660	-0.009744	-0.030948	0.999954	-0.000704	-0.000656	0.009570
54984	-0.037937	0.097463	9.781384	-0.008459	0.003036	-0.030748	0.999954	-0.000706	-0.000668	0.009574
54985	-0.036278	0.078757	9.789256	-0.006358	-0.015650	-0.023062	0.999954	-0.000710	-0.000650	0.009581
54986	-0.022353	0.087169	9.777075	0.007620	-0.006894	-0.035204	0.999954	-0.000702	-0.000642	0.009586
54987	-0.027385	0.072891	9.797229	0.002934	-0.021539	-0.015173	0.999954	-0.000701	-0.000650	0.009584
54988	-0.040359	0.099086	9.781358	-0.010710	0.004500	-0.030751	0.999954	-0.000697	-0.000653	0.009577
54989	-0.034089	0.095135	9.769074	-0.004471	0.000833	-0.043092	0.999954	-0.000706	-0.000658	0.009573
54990	-0.058374	0.110790	9.785638	-0.029005	0.015899	-0.026304	0.999954	-0.000701	-0.000654	0.009583
54991	-0.052100	0.106912	9.773352	-0.022762	0.012211	-0.038646	0.999954	-0.000702	-0.000665	0.009587
54992	-0.053931	0.090514	9.760964	-0.024247	-0.003899	-0.051186	0.999954	-0.000721	-0.000647	0.009585
54993	-0.029196	0.091433	9.809588	0.000642	-0.002929	-0.002630	0.999954	-0.000707	-0.000663	0.009583
54994	-0.043416	0.101095	9.781324	-0.013956	0.006643	-0.030756	0.999954	-0.000711	-0.000656	0.009590
54995	-0.037232	0.097066	9.769043	-0.007702	0.002960	-0.043094	0.999954	-0.000719	-0.000660	0.009586
54996	-0.027444	0.090657	9.777030	0.002159	-0.003291	-0.035199	0.999954	-0.000715	-0.000663	0.009579
54997	-0.036868	0.114561	9.781411	-0.007858	0.020159	-0.030560	0.999954	-0.000696	-0.000676	0.009583
54998	-0.028172	0.091884	9.777017	0.001056	-0.002578	-0.035199	0.999954	-0.000688	-0.000685	0.009573
54999	-0.035258	0.096584	9.789286	-0.006281	0.001832	-0.022864	0.999954	-0.000691	-0.000696	0.009576
55000	-0.039442	0.099333	9.769012	-0.010461	0.004783	-0.043098	0.999954	-0.000697	-0.000672	0.009587
55001	-0.046828	0.103807	9.781280	-0.017800	0.009165	-0.030765	0.999954	-0.000709	-0.000687	0.009571
55002	-0.051617	0.089331	9.801440	-0.022482	-0.005486	-0.010732	0.999954	-0.000708	-0.000695	0.009570
55003	-0.043212	0.119145	9.761105	-0.014796	0.024901	-0.050802	0.999954	-0.000712	-0.000689	0.009577
55004	-0.034572	0.095576	9.809531	-0.005443	0.001068	-0.002631	0.999954	-0.000711	-0.000684	0.009575
55005	-0.050160	0.088717	9.768878	-0.020989	-0.005856	-0.043302	0.999954	-0.000696	-0.000684	0.009588
55006	-0.041616	0.117956	9.781352	-0.012877	0.023403	-0.030572	0.999954	-0.000709	-0.000676	0.009593
55007	-0.051329	0.089287	9.768867	-0.022099	-0.005161	-0.043304	0.999954	-0.000714	-0.000687	0.009585
55008	-0.036096	0.114355	9.769069	-0.007182	0.020080	-0.042906	0.999954	-0.000696	-0.000658	0.009592
55009	-0.033542	0.112415	9.789331	-0.004142	0.017878	-0.022670	0.999954	-0.000702	-0.000647	0.009581
55010	-0.050029	0.088145	9.789115	-0.020172	-0.006622	-0.023071	0.999954	-0.000704	-0.000659	0.009584
55011	-0.039172	0.098903	9.756676	-0.009815	0.004716	-0.055437	0.999954	-0.000709	-0.000666	0.009592
55012	-0.046430	0.103500	9.768938	-0.017196	0.009110	-0.043110	0.999953	-0.000710	-0.000667	0.009595
55013	-0.050464	0.106282	9.748659	-0.021338	0.012023	-0.063349	0.999953	-0.000711	-0.000667	0.009599
55014	-0.037155	0.097577	9.776932	-0.007883	0.003199	-0.035202	0.999953	-0.000700	-0.000677	0.009601
55015	-0.029610	0.110378	9.777030	-0.000705	0.016004	-0.035003	0.999954	-0.000696	-0.000680	0.009594
55016	-0.046087	0.086101	9.776815	-0.016745	-0.008514	-0.035403	0.999953	-0.000706	-0.000679	0.009594
55017	-0.045428	0.103019	9.789179	-0.016361	0.008315	-0.022879	0.999953	-0.000698	-0.000681	0.009600
55018	-0.033643	0.078377	9.752275	-0.004190	-0.015878	-0.060054	0.999953	-0.000693	-0.000676	0.009611
55019	-0.042071	0.118744	9.768993	-0.013336	0.024027	-0.042921	0.999953	-0.000685	-0.000679	0.009618
55020	-0.040290	0.100167	9.776893	-0.011221	0.005342	-0.035206	0.999953	-0.000686	-0.000680	0.009621
55021	-0.034059	0.096189	9.764626	-0.004967	0.001661	-0.047530	0.999953	-0.000691	-0.000681	0.009612
55022	-0.048280	0.105184	9.789142	-0.019150	0.010077	-0.022885	0.999953	-0.000679	-0.000667	0.009612
55023	-0.031943	0.094564	9.784888	-0.002481	-0.000198	-0.027290	0.999953	-0.000689	-0.000666	0.009613
55024	-0.042784	0.101856	9.776865	-0.013439	0.006754	-0.035210	0.999953	-0.000657	-0.000664	0.009614
55025	-0.039951	0.099947	9.797133	-0.010407	0.004555	-0.014970	0.999953	-0.000674	-0.000655	0.009606
55026	-0.033921	0.095860	9.784869	-0.004146	0.000880	-0.027291	0.999953	-0.000675	-0.000644	0.009608
55027	-0.049243	0.088217	9.797017	-0.019257	-0.007179	-0.015171	0.999953	-0.000674	-0.000652	0.009607
55028	-0.038368	0.098966	9.764582	-0.008865	0.004148	-0.047534	0.999953	-0.000681	-0.000662	0.009621
55029	-0.050030	0.088784	9.797008	-0.020362	-0.006449	-0.015172	0.999953	-0.000685	-0.000667	0.009629
55030	-0.022180	0.088482	9.760337	0.007266	-0.005756	-0.051929	0.999953	-0.000693	-0.000672	0.009625
55031	-0.039782	0.099931	9.764566	-0.010493	0.005210	-0.047536	0.999953	-0.000675	-0.000664	0.009634
55032	-0.047282	0.104744	9.776814	-0.017880	0.009611	-0.035219	0.999953	-0.000676	-0.000653	0.009636
55033	-0.047935	0.105090	9.776807	-0.018440	0.009975	-0.035221	0.999953	-0.000678	-0.000654	0.009639
55034	-0.014447	0.083610	9.768338	0.015454	-0.010875	-0.043999	0.999953	-0.000666	-0.000649	0.009633
55035	-0.055866	0.110376	9.789044	-0.026424	0.014750	-0.022908	0.999953	-0.000665	-0.000657	0.009632
55036	-0.053046	0.108821	9.756505	-0.023706	0.013602	-0.055470	0.999953	-0.000671	-0.000654	0.009646
55037	-0.046645	0.104295	9.797058	-0.017079	0.008859	-0.014982	0.999953	-0.000670	-0.000655	0.009627
55038	-0.051659	0.090394	9.764417	-0.022086	-0.004737	-0.047742	0.999953	-0.000679	-0.000669	0.009646
55039	-0.037386	0.098892	9.752262	-0.008111	0.004054	-0.059857	0.999953	-0.000659	-0.000664	0.009667
55040	-0.048079	0.105664	9.797037	-0.018758	0.009918	-0.014986	0.999953	-0.000654	-0.000667	0.009661
55041	-0.049733	0.089314	9.784677	-0.020211	-0.006200	-0.027499	0.999953	-0.000671	-0.000670	0.009653
55042	-0.035583	0.097460	9.772526	-0.006227	0.002586	-0.039613	0.999953	-0.000679	-0.000664	0.009648
55043	-0.025933	0.091011	9.780553	0.003660	-0.003642	-0.031678	0.999953	-0.000684	-0.000663	0.009639
55044	-0.039072	0.117124	9.764587	-0.009995	0.022292	-0.047350	0.999953	-0.000672	-0.000660	0.009641
55045	-0.044224	0.102911	9.784756	-0.014688	0.007654	-0.027304	0.999953	-0.000669	-0.000649	0.009656
55046	-0.038213	0.099097	9.772500	-0.008411	0.003981	-0.039615	0.999953	-0.000662	-0.000636	0.009643
55047	-0.031020	0.111562	9.772600	-0.001251	0.016798	-0.039416	0.999953	-0.000691	-0.000629	0.009638
55048	-0.035954	0.097060	9.792774	-0.005966	0.002181	-0.019368	0.999953	-0.000679	-0.000647	0.009634
55049	-0.039839	0.099973	9.772484	-0.010090	0.005075	-0.039617	0.999953	-0.000678	-0.000643	0.009631
55050	-0.047271	0.104654	9.784724	-0.017466	0.009462	-0.027310	0.999953	-0.000676	-0.000637	0.009629
55051	-0.022856	0.106368	9.780614	0.006937	0.011697	-0.031478	0.999953	-0.000678	-0.000638	0.009632
55052	-0.039201	0.082150	9.780401	-0.008981	-0.012869	-0.031876	0.999953	-0.000673	-0.000643	0.009644
55053	-0.041971	0.101637	9.772458	-0.012238	0.006505	-0.039620	0.999953	-0.000665	-0.000646	0.009650
55054	-0.032407	0.095367	9.780492	-0.002376	0.000300	-0.031677	0.999953	-0.000668	-0.000627	0.009657
55055	-0.047758	0.087618	9.792627	-0.017476	-0.007778	-0.019571	0.999953	-0.000673	-0.000639	0.009649
55056	-0.018679	0.104069	9.768343	0.011062	0.009422	-0.043783	0.999953	-0.000664	-0.000642	0.009656
55057	-0.050824	0.107490	9.784675	-0.021315	0.011933	-0.027320	0.999953	-0.000659	-0.000661	0.009668
55058	-0.048830	0.088987	9.792609	-0.019142	-0.006724	-0.019573	0.999953	-0.000652	-0.000664	0.009674
55059	-0.048201	0.106071	9.804946	-0.018853	0.010128	-0.007072	0.999953	-0.000647	-0.000666	0.009667
55060	-0.036218	0.081298	9.768115	-0.006506	-0.014081	-0.044180	0.999953	-0.000649	-0.000665	0.009671
55061	-0.027575	0.110567	9.780555	0.001479	0.015224	-0.031480	0.999953	-0.000648	-0.000678	0.009653
55062	-0.054144	0.093026	9.772298	-0.024860	-0.002790	-0.039829	0.999953	-0.000643	-0.000674	0.009663
55063	-0.021774	0.107164	9.768303	0.007221	0.011910	-0.043782	0.999953	-0.000639	-0.000677	0.009657
55064	-0.026570	0.092756	9.788485	0.002550	-0.002714	-0.023728	0.999953	-0.000650	-0.000697	0.009658
55065	-0.048722	0.089888	9.760041	-0.019653	-0.005766	-0.052133	0.999953	-0.000636	-0.000679	0.009654
55066	-0.056188	0.094686	9.772270	-0.027078	-0.001384	-0.039835	0.999953	-0.000634	-0.000687	0.009652
55067	-0.038542	0.100679	9.780417	-0.009493	0.004897	-0.031682	0.999953	-0.000638	-0.000678	0.009660
55068	-0.032264	0.096736	9.768175	-0.003160	0.001210	-0.043981	0.999953	-0.000636	-0.000684	0.009659
55069	-0.039669	0.101390	9.780405	-0.010564	0.005603	-0.031684	0.999953	-0.000638	-0.000673	0.009662
55070	-0.040278	0.101706	9.780399	-0.011119	0.005974	-0.031685	0.999953	-0.000643	-0.000677	0.009670
55071	-0.045289	0.087883	9.747767	-0.016043	-0.007672	-0.064435	0.999953	-0.000634	-0.000680	0.009676
55072	-0.041153	0.102536	9.780387	-0.012220	0.006677	-0.031686	0.999953	-0.000636	-0.000692	0.009680
55073	-0.023445	0.108563	9.788538	0.005355	0.012952	-0.023529	0.999953	-0.000633	-0.000686	0.009679
55074	-0.018302	0.088042	9.763964	0.010855	-0.007221	-0.048317	0.999953	-0.000635	-0.000686	0.009682
55075	-0.039390	0.101613	9.747846	-0.008493	0.006001	-0.064238	0.999953	-0.000634	-0.000580	0.009610
55076	-0.051281	0.091566	9.780261	-0.020030	-0.004597	-0.031885	0.999953	-0.000623	-0.000577	0.009611
55077	-0.045059	0.087806	9.768022	-0.013707	-0.008262	-0.044180	0.999953	-0.000618	-0.000572	0.009621
55078	-0.044690	0.104906	9.780346	-0.013449	0.008598	-0.031690	0.999953	-0.000611	-0.000559	0.009609
55079	-0.050822	0.073983	9.788198	-0.018939	-0.022543	-0.024122	0.999954	-0.000615	-0.000570	0.009600
55080	-0.034363	0.115494	9.800728	-0.003315	0.019262	-0.011238	0.999953	-0.000622	-0.000567	0.009614
55081	-0.043989	0.086991	9.788288	-0.012350	-0.009346	-0.023926	0.999953	-0.000609	-0.000561	0.009608
55082	-0.050375	0.108826	9.760026	-0.019186	0.012526	-0.051951	0.999953	-0.000611	-0.000561	0.009611
55083	-0.045274	0.087733	9.788276	-0.013462	-0.008610	-0.023927	0.999953	-0.000622	-0.000548	0.009610
55084	-0.041514	0.102710	9.768079	-0.009881	0.006713	-0.043988	0.999954	-0.000620	-0.000543	0.009608
55085	-0.039859	0.084141	9.776036	-0.007642	-0.011939	-0.036218	0.999953	-0.000617	-0.000530	0.009624
55086	-0.037173	0.082424	9.796322	-0.004645	-0.014066	-0.015960	0.999953	-0.000592	-0.000520	0.009616
55087	-0.029748	0.095561	9.743604	0.002264	-0.000265	-0.068569	0.999953	-0.000618	-0.000537	0.009624
55088	-0.048408	0.089502	9.788245	-0.016183	-0.006793	-0.023929	0.999953	-0.000624	-0.000526	0.009613
55089	-0.055879	0.094183	9.800463	-0.023600	-0.002399	-0.011641	0.999953	-0.000617	-0.000528	0.009618
55090	-0.025683	0.075055	9.771855	0.006883	-0.020658	-0.040535	0.999953	-0.000625	-0.000522	0.009613
55091	-0.052549	0.109493	9.780257	-0.020598	0.013293	-0.031707	0.999953	-0.000629	-0.000527	0.009621
55092	-0.050732	0.090857	9.788221	-0.018369	-0.005354	-0.023932	0.999953	-0.000628	-0.000521	0.009619
55093	-0.043465	0.103378	9.788318	-0.011241	0.007487	-0.023737	0.999953	-0.000648	-0.000516	0.009616
55094	-0.030410	0.095037	9.763869	0.002003	-0.000224	-0.048309	0.999953	-0.000642	-0.000510	0.009627
55095	-0.041232	0.102134	9.755787	-0.008937	0.006638	-0.056284	0.999953	-0.000638	-0.000511	0.009621
55096	-0.038224	0.100131	9.776079	-0.005957	0.004494	-0.036024	0.999953	-0.000642	-0.000523	0.009613
55097	-0.038719	0.100576	9.776072	-0.006502	0.004857	-0.036025	0.999954	-0.000629	-0.000516	0.009608
55098	-0.040423	0.083932	9.816558	-0.007667	-0.012234	0.004302	0.999954	-0.000640	-0.000514	0.009608
55099	-0.037710	0.082283	9.784036	-0.004867	-0.013437	-0.028243	0.999954	-0.000638	-0.000498	0.009606
55100	-0.040774	0.101627	9.776053	-0.008177	0.005937	-0.036026	0.999954	-0.000640	-0.000498	0.009608
55101	-0.031166	0.095374	9.784126	0.001670	-0.000208	-0.028047	0.999953	-0.000638	-0.000488	0.009623
55102	-0.042126	0.102416	9.776039	-0.009265	0.006655	-0.036028	0.999953	-0.000636	-0.000482	0.009621
55103	-0.043727	0.086251	9.763713	-0.010574	-0.009513	-0.048506	0.999953	-0.000628	-0.000484	0.009627
55104	-0.033011	0.096821	9.784106	0.000076	0.000836	-0.028046	0.999953	-0.000613	-0.000476	0.009623
55105	-0.033486	0.097149	9.784101	-0.000445	0.001208	-0.028047	0.999953	-0.000632	-0.000489	0.009616
55106	-0.052047	0.091616	9.775912	-0.019065	-0.004404	-0.036227	0.999953	-0.000634	-0.000489	0.009619
55107	-0.027511	0.093411	9.771878	0.005376	-0.002100	-0.040326	0.999953	-0.000632	-0.000494	0.009617
55108	-0.034888	0.098087	9.784087	-0.002043	0.002288	-0.028047	0.999953	-0.000631	-0.000488	0.009615
55109	-0.038854	0.100850	9.763780	-0.006079	0.005102	-0.048312	0.999954	-0.000626	-0.000489	0.009609
55110	-0.039328	0.101176	9.763775	-0.006602	0.005471	-0.048313	0.999954	-0.000635	-0.000492	0.009604
55111	-0.053572	0.109963	9.788196	-0.020954	0.013909	-0.023759	0.999953	-0.000643	-0.000490	0.009616
55112	-0.044827	0.087233	9.783963	-0.011834	-0.008758	-0.028244	0.999953	-0.000620	-0.000497	0.009615
55113	-0.040832	0.102605	9.763754	-0.008215	0.006563	-0.048314	0.999953	-0.000610	-0.000493	0.009616
55114	-0.023226	0.108842	9.771938	0.009295	0.012912	-0.040128	0.999954	-0.000606	-0.000496	0.009609
55115	-0.048893	0.107704	9.775951	-0.016196	0.011293	-0.036041	0.999954	-0.000615	-0.000481	0.009609
55116	-0.039218	0.101454	9.784036	-0.006321	0.005154	-0.028050	0.999954	-0.000605	-0.000490	0.009611
55117	-0.015715	0.086790	9.767704	0.017375	-0.009059	-0.044604	0.999953	-0.000599	-0.000484	0.009622
55118	-0.041265	0.085719	9.771714	-0.008142	-0.010672	-0.040520	0.999953	-0.000603	-0.000489	0.009630
55119	-0.059095	0.096987	9.775820	-0.026039	0.000215	-0.036242	0.999953	-0.000599	-0.000470	0.009622
55120	-0.041587	0.103117	9.784009	-0.008528	0.006559	-0.028052	0.999953	-0.000600	-0.000481	0.009626
55121	-0.031755	0.096841	9.792101	0.001339	0.000449	-0.020056	0.999953	-0.000603	-0.000481	0.009628
55122	-0.042672	0.103796	9.783997	-0.009636	0.007297	-0.028054	0.999953	-0.000604	-0.000470	0.009631
55123	-0.036543	0.099948	9.771784	-0.003272	0.003617	-0.040325	0.999953	-0.000596	-0.000461	0.009636
55124	-0.043980	0.104689	9.783982	-0.010732	0.008010	-0.028056	0.999953	-0.000595	-0.000468	0.009634
55125	-0.038531	0.084276	9.759466	-0.005116	-0.012178	-0.052791	0.999953	-0.000582	-0.000473	0.009629
55126	-0.044948	0.105743	9.783966	-0.011852	0.008743	-0.028058	0.999953	-0.000577	-0.000469	0.009640
55127	-0.046236	0.089394	9.771658	-0.013110	-0.007432	-0.040522	0.999953	-0.000590	-0.000498	0.009665
55128	-0.028416	0.095510	9.779856	0.004388	-0.001082	-0.032325	0.999953	-0.000576	-0.000492	0.009662
55129	-0.035859	0.100216	9.792053	-0.003066	0.003307	-0.020057	0.999953	-0.000584	-0.000496	0.009657
55130	-0.039808	0.102783	9.771742	-0.007090	0.006132	-0.040328	0.999953	-0.000589	-0.000487	0.009664
55131	-0.040576	0.103129	9.771735	-0.007661	0.006499	-0.040329	0.999953	-0.000588	-0.000472	0.009660
55132	-0.037921	0.101092	9.792036	-0.004728	0.004417	-0.020058	0.999953	-0.000599	-0.000471	0.009660
55133	-0.034961	0.099426	9.759523	-0.001810	0.003194	-0.052596	0.999953	-0.000595	-0.000471	0.009653
55134	-0.057208	0.095877	9.783818	-0.023828	-0.000880	-0.028262	0.999953	-0.000613	-0.000461	0.009644
55135	-0.032944	0.097541	9.779822	0.000630	0.001462	-0.032324	0.999953	-0.000614	-0.000448	0.009647
55136	-0.048370	0.090137	9.791911	-0.014491	-0.006655	-0.020255	0.999953	-0.000582	-0.000447	0.009648
55137	-0.042018	0.086608	9.779703	-0.008144	-0.010329	-0.032519	0.999953	-0.000574	-0.000450	0.009654
55138	-0.034741	0.099333	9.779797	-0.001059	0.002536	-0.032324	0.999953	-0.000582	-0.000443	0.009649
55139	-0.053498	0.093963	9.771579	-0.019646	-0.003121	-0.040531	0.999953	-0.000572	-0.000441	0.009649
55140	-0.028979	0.095926	9.767589	0.004772	-0.000764	-0.044586	0.999953	-0.000571	-0.000447	0.009647
55141	-0.033943	0.081659	9.787793	0.000106	-0.015366	-0.024506	0.999953	-0.000568	-0.000447	0.009664
55142	-0.037897	0.084369	9.767478	-0.003944	-0.012572	-0.044780	0.999953	-0.000567	-0.000443	0.009662
55143	-0.044662	0.105583	9.791960	-0.010756	0.008373	-0.020066	0.999953	-0.000578	-0.000419	0.009659
55144	-0.028276	0.095055	9.787877	0.006051	-0.001770	-0.024310	0.999953	-0.000570	-0.000420	0.009665
55145	-0.046779	0.089588	9.779655	-0.012521	-0.007455	-0.032521	0.999953	-0.000584	-0.000434	0.009672
55146	-0.022261	0.091389	9.775676	0.011896	-0.005084	-0.036568	0.999953	-0.000576	-0.000424	0.009677
55147	-0.054761	0.094548	9.791835	-0.020552	-0.002692	-0.020264	0.999953	-0.000585	-0.000429	0.009671
55148	-0.048474	0.090539	9.779638	-0.014123	-0.006368	-0.032522	0.999953	-0.000586	-0.000415	0.009674
55149	-0.042252	0.086676	9.767440	-0.007739	-0.010043	-0.044780	0.999953	-0.000579	-0.000413	0.009662
55150	-0.056526	0.095741	9.791814	-0.022176	-0.001631	-0.020268	0.999953	-0.000572	-0.000423	0.009650
55151	-0.025038	0.093462	9.775650	0.009198	-0.003292	-0.036564	0.999953	-0.000564	-0.000424	0.009657
55152	-0.050548	0.092442	9.779610	-0.016286	-0.004956	-0.032525	0.999953	-0.000560	-0.000425	0.009650
55153	-0.043308	0.105255	9.779701	-0.009237	0.007930	-0.032331	0.999953	-0.000557	-0.000416	0.009642
55154	-0.044773	0.088994	9.767408	-0.010463	-0.008253	-0.044780	0.999953	-0.000559	-0.000428	0.009645
55155	-0.034018	0.099522	9.787814	0.000073	0.002183	-0.024308	0.999953	-0.000548	-0.000426	0.009646
55156	-0.044820	0.106644	9.779679	-0.010890	0.008999	-0.032334	0.999953	-0.000540	-0.000428	0.009652
55157	-0.028101	0.096409	9.775613	0.005939	-0.001133	-0.036561	0.999953	-0.000522	-0.000434	0.009638
55158	-0.049343	0.109865	9.812162	-0.015451	0.011307	0.000195	0.999953	-0.000516	-0.000430	0.009649
55159	-0.036984	0.084858	9.775504	-0.002780	-0.012935	-0.036754	0.999953	-0.000537	-0.000437	0.009647
55160	-0.039991	0.103957	9.767468	-0.006145	0.006390	-0.044589	0.999953	-0.000538	-0.000426	0.009649
55161	-0.037137	0.102153	9.787776	-0.003225	0.004335	-0.024310	0.999953	-0.000526	-0.000442	0.009646
55162	-0.037587	0.102777	9.787767	-0.003767	0.004698	-0.024310	0.999953	-0.000513	-0.000435	0.009641
55163	-0.054038	0.078548	9.787564	-0.019522	-0.019978	-0.024699	0.999953	-0.000511	-0.000418	0.009637
55164	-0.035535	0.101686	9.755254	-0.001382	0.003812	-0.056840	0.999953	-0.000510	-0.000414	0.009635
55165	-0.037248	0.085036	9.795784	-0.002603	-0.013189	-0.016473	0.999953	-0.000520	-0.000416	0.009653
55166	-0.026494	0.095745	9.763379	0.007930	-0.001918	-0.048807	0.999953	-0.000513	-0.000402	0.009640
55167	-0.034113	0.100363	9.775554	0.000418	0.002473	-0.036559	0.999953	-0.000524	-0.000401	0.009640
55168	-0.034520	0.100750	9.775548	-0.000131	0.002849	-0.036559	0.999953	-0.000512	-0.000417	0.009636
55169	-0.039511	0.086579	9.795762	-0.004839	-0.011732	-0.016472	0.999953	-0.000514	-0.000406	0.009638
55170	-0.043440	0.089219	9.775438	-0.008839	-0.008957	-0.036754	0.999953	-0.000513	-0.000413	0.009636
55171	-0.029113	0.097645	9.763352	0.005166	-0.000096	-0.048805	0.999953	-0.000518	-0.000417	0.009644
55172	-0.036579	0.102230	9.775525	-0.002356	0.004299	-0.036560	0.999953	-0.000521	-0.000413	0.009629
55173	-0.055263	0.096737	9.767281	-0.020914	-0.001414	-0.044794	0.999953	-0.000523	-0.000413	0.009631
55174	-0.045589	0.090545	9.775416	-0.011052	-0.007494	-0.036755	0.999953	-0.000522	-0.000409	0.009629
55175	-0.039274	0.086571	9.763235	-0.004624	-0.011172	-0.048998	0.999953	-0.000529	-0.000406	0.009642
55176	-0.039001	0.103666	9.775501	-0.004511	0.005748	-0.036562	0.999953	-0.000516	-0.000397	0.009637
55177	-0.047395	0.091741	9.775396	-0.012642	-0.006419	-0.036756	0.999953	-0.000520	-0.000401	0.009645
55178	-0.034368	0.083168	9.803857	0.000684	-0.014882	-0.008428	0.999953	-0.000529	-0.000394	0.009639
55179	-0.030485	0.098091	9.783630	0.004272	0.000420	-0.028519	0.999953	-0.000531	-0.000394	0.009641
55180	-0.031945	0.081880	9.771353	0.003112	-0.015770	-0.040952	0.999953	-0.000521	-0.000391	0.009642
55181	-0.049653	0.093350	9.775370	-0.014808	-0.004952	-0.036758	0.999953	-0.000504	-0.000395	0.009651
55182	-0.035395	0.101718	9.763290	-0.000820	0.003908	-0.048804	0.999953	-0.000531	-0.000396	0.009640
55183	-0.040414	0.087254	9.783510	-0.005506	-0.010649	-0.028712	0.999953	-0.000524	-0.000398	0.009645
55184	-0.043436	0.106794	9.775449	-0.008921	0.008670	-0.036567	0.999953	-0.000507	-0.000393	0.009653
55185	-0.041517	0.088291	9.783497	-0.006652	-0.009929	-0.028712	0.999953	-0.000519	-0.000403	0.009654
55186	-0.052143	0.094985	9.775341	-0.017624	-0.003141	-0.036762	0.999953	-0.000530	-0.000412	0.009655
55187	-0.044752	0.107703	9.775433	-0.010581	0.009761	-0.036570	0.999953	-0.000523	-0.000414	0.009660
55188	-0.032593	0.082569	9.791637	0.002110	-0.015241	-0.020660	0.999953	-0.000535	-0.000412	0.009659
55189	-0.049278	0.110427	9.755099	-0.015152	0.012894	-0.056859	0.999953	-0.000549	-0.000404	0.009664
55190	-0.037254	0.085207	9.771306	-0.002472	-0.012120	-0.040947	0.999953	-0.000548	-0.000400	0.009661
55191	-0.030089	0.098143	9.771396	0.004545	0.000781	-0.040753	0.999953	-0.000531	-0.000394	0.009669
55192	-0.045298	0.090662	9.783458	-0.010566	-0.007370	-0.028713	0.999953	-0.000522	-0.000411	0.009653
55193	-0.035489	0.084539	9.791610	-0.000692	-0.013429	-0.020657	0.999953	-0.000526	-0.000403	0.009660
55194	-0.049723	0.093703	9.763121	-0.015090	-0.004262	-0.049003	0.999953	-0.000521	-0.000399	0.009671
55195	-0.032212	0.100011	9.771370	0.001479	0.003637	-0.040753	0.999953	-0.000591	-0.000445	0.009646
55196	-0.037231	0.085724	9.791593	-0.003214	-0.010912	-0.020654	0.999953	-0.000597	-0.000445	0.009635
55197	-0.047082	0.109311	9.795687	-0.013606	0.012434	-0.016294	0.999953	-0.000591	-0.000455	0.009623
55198	-0.051668	0.095267	9.763096	-0.018169	-0.001396	-0.049007	0.999953	-0.000595	-0.000459	0.009632
55199	-0.031846	0.082572	9.779415	0.002134	-0.013869	-0.032882	0.999953	-0.000591	-0.000437	0.009624
55200	-0.031619	0.099679	9.791667	0.002145	0.003062	-0.020462	0.999953	-0.000589	-0.000450	0.009640
55201	-0.032863	0.083307	9.779405	0.000996	-0.013145	-0.032881	0.999953	-0.000598	-0.000455	0.009635
55202	-0.042720	0.106927	9.783492	-0.009389	0.010200	-0.028528	0.999953	-0.000585	-0.000460	0.009631
55203	-0.061377	0.101594	9.775221	-0.027924	0.004431	-0.036786	0.999953	-0.000581	-0.000451	0.009623
55204	-0.029209	0.115875	9.771413	0.004071	0.019443	-0.040564	0.999953	-0.000593	-0.000448	0.009623
55205	-0.066228	0.104236	9.807694	-0.032569	0.006812	-0.004272	0.999953	-0.000589	-0.000449	0.009616
55206	-0.027864	0.097709	9.779474	0.005828	0.001205	-0.032688	0.999953	-0.000584	-0.000445	0.009627
55207	-0.048200	0.127566	9.775386	-0.014996	0.030953	-0.036411	0.999953	-0.000613	-0.000439	0.009621
55208	-0.037005	0.085729	9.779369	-0.002869	-0.010594	-0.032878	0.999953	-0.000594	-0.000433	0.009641
55209	-0.047875	0.092769	9.771191	-0.013842	-0.003818	-0.040949	0.999953	-0.000600	-0.000433	0.009630
55210	-0.037340	0.103177	9.791611	-0.003410	0.006708	-0.020465	0.999953	-0.000607	-0.000431	0.009644
55211	-0.049053	0.093324	9.771180	-0.014939	-0.003099	-0.040951	0.999953	-0.000606	-0.000426	0.009641
55212	-0.039539	0.087237	9.779346	-0.005089	-0.009134	-0.032878	0.999953	-0.000601	-0.000411	0.009651
55213	-0.035831	0.102121	9.759108	-0.001495	0.006140	-0.052982	0.999953	-0.000619	-0.000401	0.009642
55214	-0.043388	0.106523	9.771258	-0.009054	0.010537	-0.040762	0.999953	-0.000628	-0.000406	0.009637
55215	-0.033741	0.100281	9.779429	0.000810	0.004516	-0.032687	0.999953	-0.000630	-0.000395	0.009639
55216	-0.059352	0.099211	9.783300	-0.024738	0.002756	-0.028736	0.999953	-0.000612	-0.000403	0.009625
55217	-0.032317	0.082315	9.787497	0.002567	-0.013716	-0.024800	0.999953	-0.000625	-0.000404	0.009631
55218	-0.025023	0.094989	9.787590	0.009562	-0.000786	-0.024609	0.999953	-0.000622	-0.000407	0.009623
55219	-0.050522	0.093741	9.791460	-0.015965	-0.002543	-0.020661	0.999953	-0.000627	-0.000411	0.009631
55220	-0.036235	0.102259	9.779400	-0.001966	0.006347	-0.032688	0.999953	-0.000621	-0.000414	0.009636
55221	-0.041190	0.088043	9.799629	-0.006670	-0.008191	-0.012582	0.999953	-0.000624	-0.000421	0.009621
55222	-0.037164	0.103241	9.779386	-0.003070	0.007070	-0.032689	0.999953	-0.000600	-0.000421	0.009638
55223	-0.045518	0.091326	9.779283	-0.011186	-0.005117	-0.032880	0.999953	-0.000612	-0.000420	0.009638
55224	-0.035711	0.085063	9.787462	-0.001316	-0.011145	-0.024797	0.999953	-0.000613	-0.000431	0.009642
55225	-0.031755	0.099988	9.767221	0.002279	0.004144	-0.044904	0.999953	-0.000620	-0.000419	0.009630
55226	-0.036104	0.102354	9.799696	-0.001874	0.006192	-0.012392	0.999953	-0.000622	-0.000419	0.009632
55227	-0.043262	0.107191	9.759023	-0.009246	0.011268	-0.052991	0.999953	-0.000618	-0.000415	0.009642
55228	-0.048396	0.093030	9.779253	-0.013935	-0.003261	-0.032883	0.999953	-0.000614	-0.000410	0.009652
55229	-0.049859	0.076675	9.767004	-0.015016	-0.019476	-0.045286	0.999953	-0.000623	-0.000403	0.009646
55230	-0.046341	0.091396	9.799575	-0.011620	-0.004885	-0.012584	0.999953	-0.000627	-0.000407	0.009655
55231	-0.032856	0.083226	9.775280	0.001870	-0.012576	-0.037006	0.999953	-0.000620	-0.000409	0.009660
55232	-0.043749	0.090152	9.767083	-0.009103	-0.005826	-0.045096	0.999953	-0.000623	-0.000398	0.009662
55233	-0.033327	0.100532	9.787510	0.001266	0.004759	-0.024605	0.999953	-0.000641	-0.000401	0.009654
55234	-0.033875	0.100622	9.787507	0.000741	0.005104	-0.024605	0.999953	-0.000651	-0.000397	0.009654
55235	-0.036009	0.067567	9.763023	-0.000842	-0.027707	-0.049403	0.999953	-0.000644	-0.000399	0.009660
55236	-0.041928	0.105666	9.799638	-0.007378	0.009864	-0.012398	0.999953	-0.000646	-0.000399	0.009663
55237	-0.036393	0.084988	9.775252	-0.001440	-0.010381	-0.037004	0.999953	-0.000652	-0.000388	0.009652
55238	-0.049839	0.110750	9.758952	-0.015314	0.015294	-0.053004	0.999953	-0.000648	-0.000385	0.009661
55239	-0.043861	0.106824	9.799617	-0.009088	0.010971	-0.012400	0.999953	-0.000641	-0.000388	0.009667
55240	-0.040597	0.105026	9.767135	-0.006012	0.009646	-0.044910	0.999953	-0.000658	-0.000395	0.009678
55241	-0.038679	0.086404	9.775231	-0.003672	-0.008901	-0.037003	0.999953	-0.000651	-0.000385	0.009682
55242	-0.039312	0.086831	9.775225	-0.004239	-0.008514	-0.037003	0.999953	-0.000655	-0.000386	0.009683
55243	-0.042501	0.106099	9.767115	-0.007693	0.010774	-0.044912	0.999953	-0.000653	-0.000371	0.009680
55244	-0.043137	0.106488	9.767108	-0.008271	0.011145	-0.044913	0.999953	-0.000653	-0.000379	0.009678
55245	-0.030910	0.081526	9.783408	0.004491	-0.013788	-0.028902	0.999953	-0.000649	-0.000374	0.009688
55246	-0.030860	0.098710	9.795634	0.004446	0.003164	-0.016509	0.999953	-0.000642	-0.000359	0.009675
55247	-0.045178	0.107777	9.767085	-0.009903	0.012224	-0.044916	0.999953	-0.000648	-0.000348	0.009664
55248	-0.057411	0.097888	9.799454	-0.021620	0.001712	-0.012600	0.999953	-0.000634	-0.000340	0.009660
55249	-0.029190	0.097963	9.763140	0.006467	0.002540	-0.049014	0.999953	-0.000633	-0.000346	0.009659
55250	-0.048128	0.092417	9.807645	-0.012319	-0.003927	-0.004498	0.999953	-0.000621	-0.000352	0.009654
55251	-0.037165	0.103254	9.775260	-0.001708	0.007305	-0.036814	0.999953	-0.000620	-0.000348	0.009651
55252	-0.037779	0.103526	9.775255	-0.002290	0.007658	-0.036815	0.999953	-0.000631	-0.000347	0.009652
55253	-0.038304	0.103705	9.775251	-0.002864	0.008032	-0.036815	0.999953	-0.000640	-0.000353	0.009646
55254	-0.059278	0.116895	9.758828	-0.024266	0.021095	-0.053033	0.999953	-0.000644	-0.000359	0.009655
55255	-0.032230	0.100059	9.763109	0.003024	0.004738	-0.049014	0.999953	-0.000638	-0.000363	0.009660
55256	-0.027022	0.079307	9.791560	0.008721	-0.016131	-0.020786	0.999953	-0.000650	-0.000361	0.009659
55257	-0.040417	0.105065	9.775228	-0.005146	0.009511	-0.036817	0.999953	-0.000638	-0.000355	0.009654
55258	-0.038529	0.086650	9.783337	-0.002837	-0.009039	-0.028895	0.999953	-0.000640	-0.000356	0.009656
55259	-0.038370	0.103720	9.795556	-0.002931	0.007938	-0.016511	0.999953	-0.000640	-0.000352	0.009653
55260	-0.049243	0.110669	9.787334	-0.013890	0.014672	-0.024625	0.999953	-0.000631	-0.000350	0.009652
55261	-0.047263	0.092199	9.795446	-0.011564	-0.003871	-0.016701	0.999953	-0.000637	-0.000355	0.009660
55262	-0.043390	0.107236	9.775191	-0.007993	0.011398	-0.036821	0.999953	-0.000627	-0.000343	0.009659
55263	-0.033233	0.117719	9.795625	0.002310	0.022016	-0.016324	0.999953	-0.000651	-0.000328	0.009642
55264	-0.049336	0.092981	9.795429	-0.013287	-0.002763	-0.016703	0.999953	-0.000654	-0.000340	0.009645
55265	-0.023936	0.111730	9.803834	0.011615	0.016412	-0.008208	0.999953	-0.000654	-0.000346	0.009643
55266	-0.046471	0.091776	9.762947	-0.010700	-0.003721	-0.049205	0.999953	-0.000638	-0.000340	0.009650
55267	-0.029851	0.081367	9.759037	0.006182	-0.013728	-0.053277	0.999953	-0.000659	-0.000337	0.009647
55268	-0.054714	0.096636	9.775059	-0.018894	0.001028	-0.037016	0.999953	-0.000651	-0.000339	0.009653
55269	-0.030367	0.098606	9.771248	0.005507	0.003603	-0.040897	0.999953	-0.000668	-0.000324	0.009661
55270	-0.038727	0.086559	9.771146	-0.002545	-0.008589	-0.041086	0.999953	-0.000652	-0.000333	0.009687
55271	-0.035328	0.101586	9.803702	0.000706	0.006066	-0.008397	0.999953	-0.000657	-0.000322	0.009677
55272	-0.032090	0.099774	9.771230	0.003838	0.004712	-0.040897	0.999953	-0.000660	-0.000334	0.009680
55273	-0.044033	0.089873	9.803595	-0.007924	-0.005776	-0.008586	0.999953	-0.000653	-0.000337	0.009686
55274	-0.047698	0.092585	9.783242	-0.011839	-0.003103	-0.028898	0.999953	-0.000643	-0.000347	0.009687
55275	-0.033473	0.101239	9.771211	0.002204	0.005795	-0.040897	0.999953	-0.000639	-0.000336	0.009679
55276	-0.038553	0.087050	9.791456	-0.002499	-0.008717	-0.020773	0.999953	-0.000639	-0.000342	0.009677
55277	-0.041590	0.106360	9.783316	-0.005993	0.010558	-0.028712	0.999953	-0.000634	-0.000339	0.009687
55278	-0.049879	0.094258	9.783215	-0.014057	-0.001660	-0.028901	0.999953	-0.000643	-0.000345	0.009682
55279	-0.035722	0.102718	9.771187	-0.000062	0.007268	-0.040898	0.999953	-0.000642	-0.000334	0.009697
55280	-0.034112	0.084158	9.779317	0.002264	-0.011253	-0.032956	0.999953	-0.000650	-0.000310	0.009707
55281	-0.034860	0.084587	9.779310	0.001728	-0.010878	-0.032955	0.999953	-0.000638	-0.000314	0.009702
55282	-0.034675	0.101693	9.791516	0.001592	0.006108	-0.020584	0.999953	-0.000650	-0.000312	0.009701
55283	-0.038538	0.104074	9.771162	-0.002304	0.008767	-0.040899	0.999953	-0.000655	-0.000305	0.009709
55284	-0.025692	0.095893	9.799740	0.010887	0.000515	-0.012451	0.999953	-0.000645	-0.000304	0.009709
55285	-0.054672	0.096825	9.783165	-0.017985	0.000927	-0.028907	0.999953	-0.000643	-0.000287	0.009706
55286	-0.023174	0.094534	9.767266	0.013510	-0.000504	-0.044945	0.999952	-0.000654	-0.000301	0.009725
55287	-0.045597	0.090969	9.791390	-0.008685	-0.004671	-0.020773	0.999953	-0.000650	-0.000281	0.009717
55288	-0.031460	0.099551	9.779368	0.005337	0.004252	-0.032765	0.999952	-0.000649	-0.000292	0.009733
55289	-0.024739	0.095633	9.767252	0.011860	0.000573	-0.044943	0.999952	-0.000650	-0.000303	0.009737
55290	-0.027762	0.114989	9.759101	0.008394	0.019836	-0.052894	0.999952	-0.000637	-0.000296	0.009732
55291	-0.050949	0.094844	9.771013	-0.014220	-0.000935	-0.041092	0.999952	-0.000642	-0.000289	0.009739
55292	-0.041374	0.088651	9.779249	-0.004360	-0.006888	-0.032952	0.999952	-0.000651	-0.000282	0.009734
55293	-0.044560	0.107827	9.771096	-0.007802	0.012365	-0.040906	0.999952	-0.000650	-0.000276	0.009732
55294	-0.042580	0.089244	9.779238	-0.005420	-0.006166	-0.032952	0.999952	-0.000659	-0.000280	0.009727
55295	-0.046315	0.091610	9.758882	-0.009293	-0.003532	-0.053271	0.999952	-0.000666	-0.000277	0.009740
55296	-0.028784	0.097896	9.767218	0.008047	0.003109	-0.044940	0.999952	-0.000668	-0.000289	0.009743
55297	-0.054269	0.096616	9.770977	-0.017456	0.001207	-0.041097	0.999952	-0.000657	-0.000285	0.009744
55298	-0.033666	0.101048	9.799664	0.003210	0.005579	-0.012447	0.999952	-0.000648	-0.000283	0.009744
55299	-0.045101	0.091227	9.779209	-0.008173	-0.004368	-0.032953	0.999952	-0.000647	-0.000291	0.009743
55300	-0.045580	0.091547	9.779204	-0.008732	-0.003976	-0.032954	0.999952	-0.000655	-0.000292	0.009731
55301	-0.023742	0.112454	9.767284	0.012771	0.017543	-0.044752	0.999952	-0.000657	-0.000279	0.009733
55302	-0.036641	0.085959	9.787440	0.000594	-0.009555	-0.024806	0.999952	-0.000638	-0.000279	0.009737
55303	-0.039606	0.105371	9.779277	-0.002913	0.009708	-0.032768	0.999952	-0.000640	-0.000292	0.009740
55304	-0.040063	0.105611	9.779273	-0.003490	0.010086	-0.032768	0.999952	-0.000652	-0.000290	0.009740
55305	-0.045219	0.091409	9.799526	-0.008196	-0.004406	-0.012635	0.999952	-0.000640	-0.000283	0.009734
55306	-0.038733	0.087540	9.787418	-0.001667	-0.008055	-0.024805	0.999952	-0.000650	-0.000288	0.009729
55307	-0.028452	0.098068	9.807864	0.008607	0.002621	-0.004296	0.999952	-0.000657	-0.000273	0.009741
55308	-0.052894	0.113358	9.770992	-0.016080	0.017837	-0.040924	0.999952	-0.000655	-0.000268	0.009739
55309	-0.036940	0.086490	9.754944	0.000485	-0.008743	-0.057294	0.999952	-0.000636	-0.000256	0.009742
55310	-0.026639	0.097319	9.775388	0.010711	0.001948	-0.036785	0.999952	-0.000641	-0.000262	0.009750
55311	-0.049182	0.093797	9.799484	-0.011501	-0.002232	-0.012638	0.999952	-0.000638	-0.000241	0.009741
55312	-0.027981	0.098070	9.775377	0.009644	0.002658	-0.036784	0.999952	-0.000639	-0.000250	0.009746
55313	-0.043211	0.090386	9.787373	-0.005455	-0.005563	-0.024804	0.999952	-0.000624	-0.000247	0.009759
55314	-0.039190	0.105482	9.767103	-0.001827	0.009648	-0.044941	0.999952	-0.000623	-0.000253	0.009758
55315	-0.051946	0.078830	9.787266	-0.015142	-0.017947	-0.024994	0.999953	-0.000598	-0.000306	0.009693
55316	-0.037829	0.087297	9.775259	-0.001102	-0.009016	-0.036969	0.999953	-0.000606	-0.000298	0.009688
55317	-0.038466	0.087684	9.775253	-0.001629	-0.008649	-0.036969	0.999953	-0.000596	-0.000294	0.009688
55318	-0.038529	0.104993	9.787433	-0.001832	0.008338	-0.024619	0.999953	-0.000586	-0.000281	0.009687
55319	-0.046168	0.109726	9.799520	-0.009506	0.012730	-0.012458	0.999953	-0.000589	-0.000294	0.009691
55320	-0.030027	0.082626	9.783500	0.007094	-0.013852	-0.028804	0.999953	-0.000591	-0.000282	0.009693
55321	-0.048626	0.076964	9.775134	-0.011318	-0.019806	-0.037156	0.999953	-0.000587	-0.000283	0.009686
55322	-0.033759	0.102381	9.775314	0.003042	0.005735	-0.036781	0.999953	-0.000576	-0.000282	0.009687
55323	-0.049243	0.094568	9.787305	-0.012054	-0.002494	-0.024809	0.999953	-0.000586	-0.000267	0.009686
55324	-0.049904	0.094901	9.787299	-0.012601	-0.002139	-0.024810	0.999953	-0.000579	-0.000269	0.009692
55325	-0.043376	0.090912	9.775203	-0.006026	-0.005813	-0.036969	0.999953	-0.000594	-0.000265	0.009679
55326	-0.029122	0.099265	9.763204	0.007974	0.003131	-0.048939	0.999953	-0.000599	-0.000271	0.009687
55327	-0.047556	0.093599	9.754833	-0.010433	-0.002833	-0.057296	0.999953	-0.000591	-0.000272	0.009693
55328	-0.044345	0.108829	9.787367	-0.007322	0.011894	-0.024625	0.999953	-0.000574	-0.000264	0.009701
55329	-0.028177	0.081941	9.771364	0.009317	-0.014680	-0.040954	0.999953	-0.000574	-0.000270	0.009699
55330	-0.048683	0.111959	9.766988	-0.011719	0.014878	-0.044954	0.999953	-0.000564	-0.000257	0.009698
55331	-0.039771	0.089331	9.763076	-0.002202	-0.007689	-0.049125	0.999953	-0.000559	-0.000252	0.009709
55332	-0.019282	0.093710	9.791802	0.018404	-0.003240	-0.020436	0.999953	-0.000558	-0.000248	0.009706
55333	-0.037759	0.087990	9.783427	-0.000031	-0.009206	-0.028796	0.999953	-0.000562	-0.000255	0.009692
55334	-0.031198	0.084091	9.771337	0.006532	-0.012857	-0.040949	0.999953	-0.000558	-0.000251	0.009701
55335	-0.030548	0.118037	9.795684	0.006674	0.020763	-0.016269	0.999953	-0.000554	-0.000252	0.009695
55336	-0.046576	0.093494	9.795492	-0.008797	-0.004087	-0.016643	0.999953	-0.000556	-0.000241	0.009696
55337	-0.032411	0.101982	9.783496	0.005218	0.004869	-0.028608	0.999953	-0.000562	-0.000245	0.009704
55338	-0.033538	0.085653	9.771316	0.004326	-0.011390	-0.040946	0.999953	-0.000553	-0.000243	0.009703
55339	-0.048240	0.094643	9.795473	-0.010470	-0.002978	-0.016645	0.999953	-0.000557	-0.000248	0.009712
55340	-0.040984	0.107439	9.795560	-0.003566	0.009984	-0.016458	0.999953	-0.000556	-0.000254	0.009710
55341	-0.031163	0.101382	9.803839	0.006295	0.004079	-0.008277	0.999953	-0.000561	-0.000259	0.009718
55342	-0.042563	0.091347	9.783376	-0.004966	-0.005943	-0.028795	0.999953	-0.000560	-0.000253	0.009716
55343	-0.043269	0.091708	9.783370	-0.005518	-0.005591	-0.028795	0.999953	-0.000561	-0.000241	0.009718
55344	-0.018734	0.094021	9.779663	0.018910	-0.002915	-0.032573	0.999953	-0.000545	-0.000257	0.009728
55345	-0.037197	0.088563	9.771276	0.000513	-0.008895	-0.040943	0.999953	-0.000535	-0.000243	0.009727
55346	-0.045020	0.093325	9.783347	-0.007145	-0.004505	-0.028796	0.999953	-0.000535	-0.000237	0.009724
55347	-0.027673	0.099811	9.791722	0.010154	0.002195	-0.020423	0.999952	-0.000532	-0.000237	0.009741
55348	-0.046136	0.094141	9.783334	-0.008256	-0.003796	-0.028796	0.999952	-0.000529	-0.000239	0.009733
55349	-0.049885	0.096555	9.762961	-0.012070	-0.001219	-0.049129	0.999953	-0.000537	-0.000232	0.009728
55350	-0.039573	0.107317	9.783413	-0.001896	0.009518	-0.028610	0.999952	-0.000526	-0.000240	0.009730
55351	-0.058078	0.101669	9.775021	-0.020271	0.003505	-0.036987	0.999952	-0.000528	-0.000227	0.009732
55352	-0.041360	0.091394	9.771234	-0.003283	-0.006420	-0.040941	0.999953	-0.000524	-0.000230	0.009725
55353	-0.034803	0.087610	9.759153	0.003290	-0.010064	-0.053084	0.999953	-0.000515	-0.000228	0.009725
55354	-0.021301	0.096472	9.799975	0.016734	-0.001542	-0.012229	0.999953	-0.000506	-0.000236	0.009726
55355	-0.039735	0.090844	9.791581	-0.001647	-0.007557	-0.020607	0.999953	-0.000504	-0.000230	0.009724
55356	-0.051221	0.080787	9.771116	-0.012879	-0.017596	-0.041128	0.999952	-0.000509	-0.000222	0.009731
55357	-0.036439	0.105978	9.771293	0.001433	0.008008	-0.040756	0.999953	-0.000518	-0.000227	0.009726
55358	-0.037554	0.089510	9.759126	0.000615	-0.008288	-0.053082	0.999953	-0.000516	-0.000221	0.009724
55359	-0.052203	0.098614	9.783259	-0.014212	0.000129	-0.028802	0.999952	-0.000500	-0.000237	0.009733
55360	-0.037921	0.107317	9.771272	-0.000186	0.009086	-0.040756	0.999952	-0.000502	-0.000224	0.009735
55361	-0.035978	0.088859	9.779477	0.002250	-0.009448	-0.032745	0.999953	-0.000498	-0.000226	0.009729
55362	-0.036571	0.089217	9.779471	0.001673	-0.009073	-0.032745	0.999952	-0.000503	-0.000220	0.009736
55363	-0.047440	0.095885	9.771163	-0.009313	-0.002465	-0.040944	0.999952	-0.000506	-0.000222	0.009738
55364	-0.030063	0.102332	9.779552	0.007955	0.004274	-0.032558	0.999952	-0.000508	-0.000222	0.009741
55365	-0.024751	0.081759	9.808133	0.013624	-0.016452	-0.004206	0.999953	-0.000508	-0.000237	0.009722
55366	-0.048765	0.096872	9.771147	-0.011007	-0.001393	-0.040945	0.999952	-0.000513	-0.000242	0.009731
55367	-0.046106	0.095190	9.791512	-0.008267	-0.003262	-0.020608	0.999952	-0.000505	-0.000242	0.009737
55368	-0.031870	0.103717	9.779531	0.005761	0.005704	-0.032557	0.999952	-0.000516	-0.000240	0.009736
55369	-0.043220	0.093638	9.759064	-0.005433	-0.004347	-0.053081	0.999952	-0.000509	-0.000240	0.009742
55370	-0.033011	0.104442	9.779520	0.004694	0.006420	-0.032557	0.999952	-0.000514	-0.000233	0.009749
55371	-0.034148	0.088032	9.767361	0.003880	-0.009873	-0.044876	0.999952	-0.000510	-0.000235	0.009742
55372	-0.027009	0.100899	9.767445	0.010756	0.003113	-0.044690	0.999952	-0.000512	-0.000234	0.009745
55373	-0.052122	0.116333	9.783251	-0.014506	0.017755	-0.028633	0.999952	-0.000496	-0.000227	0.009753
55374	-0.022562	0.081010	9.796027	0.015895	-0.017253	-0.016327	0.999952	-0.000498	-0.000222	0.009738
55375	-0.036026	0.106428	9.779488	0.001934	0.008209	-0.032558	0.999952	-0.000510	-0.000220	0.009738
55376	-0.033584	0.104604	9.799857	0.004657	0.006350	-0.012218	0.999952	-0.000511	-0.000207	0.009740
55377	-0.027583	0.083945	9.775641	0.011012	-0.013959	-0.036663	0.999952	-0.000507	-0.000214	0.009751
55378	-0.035257	0.088767	9.787694	0.003307	-0.009567	-0.024533	0.999952	-0.000495	-0.000206	0.009745
55379	-0.030881	0.120502	9.779551	0.007180	0.022285	-0.032374	0.999952	-0.000504	-0.000199	0.009740
55380	-0.039682	0.091508	9.767308	-0.001065	-0.006640	-0.044873	0.999952	-0.000506	-0.000200	0.009743
55381	-0.029519	0.102240	9.787768	0.009025	0.004144	-0.024346	0.999952	-0.000510	-0.000194	0.009750
55382	-0.037746	0.089954	9.787674	0.001068	-0.008130	-0.024531	0.999952	-0.000523	-0.000198	0.009733
55383	-0.023578	0.098390	9.775704	0.015080	0.000841	-0.036472	0.999952	-0.000525	-0.000187	0.009735
55384	-0.031778	0.086230	9.775609	0.007139	-0.011444	-0.036656	0.999952	-0.000526	-0.000197	0.009739
55385	-0.042016	0.109818	9.779426	-0.003542	0.011803	-0.032562	0.999952	-0.000514	-0.000188	0.009733
55386	-0.032448	0.104098	9.787739	0.006304	0.005941	-0.024345	0.999953	-0.000501	-0.000181	0.009728
55387	-0.050524	0.115169	9.791462	-0.011793	0.016538	-0.020439	0.999952	-0.000506	-0.000173	0.009736
55388	-0.024053	0.081802	9.783908	0.015435	-0.016238	-0.028434	0.999952	-0.000501	-0.000166	0.009746
55389	-0.037571	0.107300	9.767342	0.001493	0.009189	-0.044688	0.999952	-0.000509	-0.000158	0.009741
55390	-0.042859	0.093140	9.787623	-0.003246	-0.005271	-0.024529	0.999952	-0.000500	-0.000145	0.009740
55391	-0.031844	0.103939	9.755276	0.007556	0.005878	-0.056811	0.999952	-0.000491	-0.000146	0.009747
55392	-0.043932	0.094096	9.787609	-0.004332	-0.004546	-0.024529	0.999952	-0.000495	-0.000157	0.009749
55393	-0.036767	0.106983	9.787693	0.002515	0.008444	-0.024345	0.999952	-0.000490	-0.000153	0.009760
55394	-0.023049	0.098899	9.763587	0.016327	0.000766	-0.048586	0.999952	-0.000483	-0.000154	0.009765
55395	-0.031330	0.086824	9.763492	0.008384	-0.011517	-0.048770	0.999952	-0.000485	-0.000142	0.009767
55396	-0.039114	0.091529	9.775534	0.000672	-0.007146	-0.036649	0.999952	-0.000477	-0.000143	0.009773
55397	-0.054047	0.100481	9.799622	-0.014205	0.001263	-0.012411	0.999952	-0.000483	-0.000130	0.009762
55398	-0.032593	0.104727	9.775612	0.007007	0.006226	-0.036465	0.999952	-0.000483	-0.000148	0.009761
55399	-0.047954	0.096923	9.787563	-0.008082	-0.002041	-0.024531	0.999952	-0.000479	-0.000125	0.009752
55400	-0.041670	0.093062	9.775509	-0.001440	-0.005714	-0.036649	0.999952	-0.000477	-0.000112	0.009767
55401	-0.028425	0.101875	9.816354	0.011879	0.002919	0.004228	0.999952	-0.000476	-0.000118	0.009766
55402	-0.028022	0.101962	9.763542	0.012071	0.003617	-0.048581	0.999952	-0.000485	-0.000110	0.009760
55403	-0.040835	0.075137	9.783741	-0.000008	-0.023502	-0.028601	0.999952	-0.000492	-0.000106	0.009773
55404	-0.036385	0.106735	9.775577	0.003821	0.008351	-0.036465	0.999952	-0.000494	-0.000105	0.009776
55405	-0.044248	0.111414	9.787612	-0.003921	0.012748	-0.024350	0.999952	-0.000490	-0.000089	0.009784
55406	-0.035092	0.088819	9.783813	0.005759	-0.009758	-0.028415	0.999952	-0.000481	-0.000097	0.009785
55407	-0.038665	0.091208	9.763426	0.002007	-0.007218	-0.048762	0.999952	-0.000492	-0.000093	0.009785
55408	-0.025487	0.100027	9.804274	0.015307	0.001425	-0.007882	0.999952	-0.000479	-0.000085	0.009780
55409	-0.032266	0.104620	9.763501	0.008318	0.006146	-0.048578	0.999952	-0.000476	-0.000087	0.009773
55410	-0.040445	0.092407	9.763407	0.000393	-0.006132	-0.048761	0.999952	-0.000488	-0.000084	0.009772
55411	-0.023000	0.098887	9.771836	0.017683	0.000684	-0.040340	0.999952	-0.000485	-0.000095	0.009765
55412	-0.031063	0.086672	9.771743	0.009780	-0.011615	-0.040522	0.999952	-0.000496	-0.000091	0.009765
55413	-0.049072	0.097586	9.775430	-0.008348	-0.001054	-0.036650	0.999952	-0.000489	-0.000087	0.009753
55414	-0.054138	0.083396	9.795719	-0.013048	-0.015518	-0.016484	0.999952	-0.000498	-0.000090	0.009748
55415	-0.039369	0.108726	9.795892	0.001179	0.010156	-0.016118	0.999952	-0.000495	-0.000092	0.009740
55416	-0.030127	0.085919	9.792109	0.010867	-0.012334	-0.020169	0.999952	-0.000507	-0.000088	0.009739
55417	-0.026114	0.100834	9.771808	0.014477	0.002850	-0.040335	0.999952	-0.000495	-0.000093	0.009735
55418	-0.041408	0.093080	9.783749	-0.000631	-0.005415	-0.028410	0.999952	-0.000497	-0.000092	0.009737
55419	-0.027076	0.101543	9.771798	0.013405	0.003582	-0.040334	0.999952	-0.000509	-0.000100	0.009738
55420	-0.031600	0.104094	9.804214	0.008883	0.005791	-0.007875	0.999953	-0.000505	-0.000101	0.009731
55421	-0.031096	0.104118	9.751404	0.009152	0.006457	-0.060684	0.999952	-0.000519	-0.000101	0.009735
55422	-0.032681	0.104560	9.804206	0.007833	0.006511	-0.007875	0.999953	-0.000523	-0.000096	0.009720
55423	-0.054340	0.100690	9.775371	-0.013708	0.002572	-0.036657	0.999953	-0.000525	-0.000084	0.009721
55424	-0.037599	0.090383	9.771686	0.003337	-0.007257	-0.040514	0.999952	-0.000534	-0.000082	0.009733
55425	-0.037706	0.107505	9.783802	0.002948	0.009785	-0.028227	0.999953	-0.000531	-0.000084	0.009726
55426	-0.020988	0.097283	9.780121	0.019991	-0.000044	-0.032081	0.999952	-0.000536	-0.000066	0.009732
55427	-0.040089	0.074720	9.759548	0.001500	-0.022840	-0.052798	0.999953	-0.000524	-0.000059	0.009727
55428	-0.050452	0.098309	9.763303	-0.009301	0.000381	-0.048764	0.999953	-0.000523	-0.000066	0.009725
55429	-0.040749	0.092340	9.771656	0.000582	-0.005433	-0.040512	0.999953	-0.000528	-0.000057	0.009732
55430	-0.023367	0.098744	9.780101	0.017817	0.001418	-0.032077	0.999952	-0.000543	-0.000071	0.009737
55431	-0.034008	0.105300	9.771737	0.006879	0.007949	-0.040330	0.999953	-0.000540	-0.000072	0.009730
55432	-0.049214	0.097444	9.783670	-0.008231	-0.000339	-0.028412	0.999952	-0.000541	-0.000082	0.009734
55433	-0.031858	0.104140	9.792113	0.009038	0.006505	-0.019975	0.999953	-0.000529	-0.000072	0.009729
55434	-0.050381	0.098450	9.783654	-0.009277	0.000370	-0.028413	0.999952	-0.000524	-0.000067	0.009739
55435	-0.036183	0.107078	9.771710	0.003463	0.009863	-0.040330	0.999953	-0.000552	-0.000132	0.009730
55436	-0.044430	0.094941	9.771615	-0.004435	-0.002447	-0.040512	0.999953	-0.000548	-0.000122	0.009722
55437	-0.037861	0.091094	9.759583	0.002264	-0.006113	-0.052608	0.999953	-0.000545	-0.000122	0.009715
55438	-0.035369	0.089534	9.779967	0.004936	-0.007899	-0.032251	0.999953	-0.000541	-0.000116	0.009725
55439	-0.039047	0.091839	9.759571	0.001217	-0.005401	-0.052607	0.999953	-0.000552	-0.000112	0.009725
55440	-0.046694	0.096355	9.771590	-0.006529	-0.001010	-0.040513	0.999953	-0.000554	-0.000122	0.009728
55441	-0.029345	0.102893	9.780042	0.010729	0.005831	-0.032068	0.999952	-0.000558	-0.000113	0.009736
55442	-0.032930	0.105311	9.759645	0.007019	0.008320	-0.052425	0.999952	-0.000548	-0.000120	0.009737
55443	-0.045261	0.095425	9.791963	-0.004892	-0.002108	-0.020156	0.999952	-0.000559	-0.000105	0.009736
55444	-0.031491	0.087127	9.767916	0.009039	-0.009814	-0.044341	0.999952	-0.000558	-0.000109	0.009735
55445	-0.040654	0.075279	9.820626	0.000272	-0.022383	0.008286	0.999952	-0.000556	-0.000109	0.009751
55446	-0.025057	0.100486	9.767993	0.015335	0.003552	-0.044158	0.999952	-0.000549	-0.000093	0.009738
55447	-0.047756	0.096917	9.791936	-0.007040	-0.000701	-0.020157	0.999952	-0.000553	-0.000091	0.009763
55448	-0.026222	0.101189	9.767983	0.014196	0.004304	-0.044157	0.999952	-0.000557	-0.000104	0.009766
55449	-0.033812	0.105902	9.779995	0.006426	0.008675	-0.032066	0.999952	-0.000548	-0.000107	0.009749
55450	-0.041912	0.093810	9.779901	-0.001461	-0.003628	-0.032248	0.999952	-0.000550	-0.000106	0.009752
55451	-0.034868	0.106663	9.779983	0.005404	0.009371	-0.032066	0.999952	-0.000551	-0.000103	0.009755
55452	-0.046060	0.096454	9.759496	-0.005653	-0.000813	-0.052608	0.999952	-0.000553	-0.000101	0.009758
55453	-0.036059	0.107201	9.779973	0.004337	0.010065	-0.032067	0.999952	-0.000566	-0.000091	0.009763
55454	-0.036746	0.107439	9.779968	0.003793	0.010424	-0.032067	0.999952	-0.000565	-0.000086	0.009761
55455	-0.052410	0.082736	9.779785	-0.011438	-0.014551	-0.032429	0.999952	-0.000568	-0.000096	0.009764
55456	-0.047802	0.114347	9.771577	-0.007681	0.017300	-0.040342	0.999952	-0.000574	-0.000106	0.009754
55457	-0.045847	0.079235	9.767762	-0.005243	-0.017875	-0.044515	0.999952	-0.000554	-0.000116	0.009759
55458	-0.038739	0.092323	9.767842	0.001575	-0.004853	-0.044333	0.999952	-0.000553	-0.000110	0.009757
55459	-0.021657	0.098934	9.776306	0.018804	0.002025	-0.035875	0.999952	-0.000556	-0.000091	0.009741
55460	-0.029668	0.103588	9.788312	0.011010	0.006418	-0.023790	0.999952	-0.000553	-0.000082	0.009732
55461	-0.041025	0.093549	9.767821	-0.000023	-0.003786	-0.044333	0.999952	-0.000542	-0.000071	0.009750
55462	-0.044286	0.112658	9.759518	-0.003618	0.015379	-0.052432	0.999953	-0.000557	-0.000074	0.009720
55463	-0.028907	0.085957	9.796593	0.012485	-0.011362	-0.015689	0.999953	-0.000544	-0.000066	0.009716
55464	-0.050094	0.099128	9.779810	-0.008904	0.001293	-0.032251	0.999953	-0.000528	-0.000060	0.009723
55465	-0.033156	0.089006	9.776183	0.008200	-0.008501	-0.036050	0.999953	-0.000540	-0.000069	0.009724
55466	-0.043819	0.095471	9.767790	-0.002766	-0.002013	-0.044333	0.999952	-0.000545	-0.000074	0.009732
55467	-0.051924	0.083181	9.767698	-0.010663	-0.014335	-0.044513	0.999952	-0.000552	-0.000072	0.009745
55468	-0.034283	0.106602	9.788265	0.006630	0.009257	-0.023789	0.999952	-0.000549	-0.000073	0.009738
55469	-0.035171	0.090166	9.776165	0.006025	-0.007094	-0.036048	0.999952	-0.000550	-0.000071	0.009741
55470	-0.035500	0.107427	9.788251	0.005548	0.009988	-0.023789	0.999952	-0.000542	-0.000057	0.009740
55471	-0.043650	0.095334	9.788157	-0.002364	-0.002332	-0.023969	0.999952	-0.000544	-0.000070	0.009743
55472	-0.054450	0.101911	9.779758	-0.013306	0.004165	-0.032257	0.999952	-0.000546	-0.000057	0.009745
55473	-0.037450	0.108554	9.788232	0.003884	0.011093	-0.023789	0.999952	-0.000547	-0.000040	0.009740
55474	-0.027868	0.102596	9.796622	0.013728	0.005315	-0.015500	0.999952	-0.000555	-0.000045	0.009736
55475	-0.031791	0.088073	9.764127	0.009940	-0.008917	-0.048120	0.999952	-0.000551	-0.000040	0.009746
55476	-0.049859	0.098989	9.767727	-0.008266	0.001590	-0.044336	0.999952	-0.000553	-0.000040	0.009749
55477	-0.025385	0.101275	9.764205	0.016185	0.004482	-0.047939	0.999952	-0.000561	-0.000037	0.009762
55478	-0.040366	0.110043	9.788204	0.001119	0.012878	-0.023791	0.999952	-0.000570	-0.000041	0.009757
55479	-0.023942	0.083017	9.772508	0.018157	-0.013601	-0.039823	0.999952	-0.000567	-0.000020	0.009748
55480	-0.052263	0.100343	9.767700	-0.010473	0.003033	-0.044338	0.999952	-0.000551	-0.000037	0.009757
55481	-0.034884	0.107173	9.776181	0.006727	0.009951	-0.035864	0.999952	-0.000550	-0.000030	0.009754
55482	-0.025613	0.084491	9.772492	0.016537	-0.012501	-0.039819	0.999952	-0.000551	-0.000024	0.009751
55483	-0.053915	0.101656	9.767678	-0.012043	0.004121	-0.044340	0.999952	-0.000547	-0.000024	0.009744
55484	-0.048744	0.081291	9.796390	-0.006378	-0.016412	-0.015855	0.999952	-0.000551	-0.000025	0.009746
55485	-0.030013	0.104395	9.764159	0.011825	0.007414	-0.047934	0.999952	-0.000552	-0.000018	0.009765
55486	-0.027665	0.102765	9.784556	0.014404	0.005679	-0.027565	0.999952	-0.000556	-0.000013	0.009750
55487	-0.043364	0.078081	9.784376	-0.000779	-0.019328	-0.027923	0.999952	-0.000550	-0.000015	0.009755
55488	-0.036398	0.091187	9.784455	0.005983	-0.006269	-0.027743	0.999952	-0.000538	-0.000008	0.009750
55489	-0.037362	0.074948	9.772367	0.005386	-0.022626	-0.039989	0.999952	-0.000528	-0.000005	0.009750
55490	-0.040439	0.110907	9.776118	0.001780	0.013249	-0.035866	0.999952	-0.000539	0.000009	0.009749
55491	-0.038347	0.092444	9.784436	0.004338	-0.005193	-0.027742	0.999952	-0.000534	0.000001	0.009737
55492	-0.046548	0.080238	9.784344	-0.003504	-0.017527	-0.027920	0.999953	-0.000542	0.000021	0.009731
55493	-0.042705	0.095053	9.764020	0.000137	-0.002390	-0.048111	0.999953	-0.000539	0.000020	0.009724
55494	-0.042968	0.112285	9.776091	-0.000355	0.014696	-0.035868	0.999953	-0.000539	0.000026	0.009720
55495	-0.040895	0.093771	9.784413	0.002176	-0.003720	-0.027740	0.999953	-0.000552	0.000028	0.009719
55496	-0.041537	0.094150	9.784407	0.001611	-0.003348	-0.027740	0.999953	-0.000540	0.000035	0.009713
55497	-0.042066	0.094528	9.784401	0.001066	-0.003009	-0.027740	0.999953	-0.000551	0.000026	0.009715
55498	-0.027703	0.103126	9.772494	0.015090	0.006028	-0.039624	0.999953	-0.000544	0.000024	0.009720
55499	-0.050491	0.082831	9.784303	-0.007328	-0.014982	-0.027918	0.999953	-0.000534	0.000016	0.009721
55500	-0.056645	0.103988	9.755559	-0.014108	0.006265	-0.056422	0.999953	-0.000537	0.000016	0.009724
55501	-0.051386	0.083595	9.784291	-0.008420	-0.014261	-0.027918	0.999953	-0.000539	0.000005	0.009727
55502	-0.054432	0.102770	9.775952	-0.012083	0.004906	-0.036052	0.999953	-0.000534	-0.000004	0.009715
55503	-0.026872	0.103238	9.792872	0.015448	0.005760	-0.019248	0.999953	-0.000542	-0.000003	0.009728
55504	-0.063104	0.090980	9.775853	-0.020497	-0.007067	-0.036232	0.999953	-0.000530	0.000005	0.009723
55505	-0.041331	0.112252	9.764030	0.000868	0.014664	-0.047935	0.999953	-0.000534	0.000003	0.009731
55506	-0.043375	0.096173	9.804753	-0.000740	-0.001810	-0.007367	0.999953	-0.000533	0.000001	0.009722
55507	-0.035155	0.108675	9.752034	0.007055	0.011397	-0.059994	0.999953	-0.000538	0.000008	0.009729
55508	-0.030011	0.088294	9.780775	0.012722	-0.009110	-0.031481	0.999953	-0.000538	0.000001	0.009727
55509	-0.040479	0.111603	9.784414	0.001761	0.014065	-0.027563	0.999953	-0.000550	0.000003	0.009727
55510	-0.041572	0.078139	9.760274	0.001189	-0.019005	-0.052031	0.999952	-0.000555	-0.000001	0.009734
55511	-0.056665	0.087136	9.784231	-0.013929	-0.010612	-0.027920	0.999953	-0.000543	0.000006	0.009730
55512	-0.039612	0.093954	9.792736	0.003225	-0.003644	-0.019422	0.999953	-0.000545	0.000019	0.009731
55513	-0.050365	0.100423	9.784303	-0.007727	0.002797	-0.027743	0.999953	-0.000553	0.000003	0.009728
55514	-0.051010	0.083897	9.772232	-0.008285	-0.013569	-0.039975	0.999953	-0.000550	0.000001	0.009721
55515	-0.044047	0.096861	9.772311	-0.001549	-0.000502	-0.039797	0.999953	-0.000550	0.000006	0.009718
55516	-0.040203	0.111701	9.751980	0.002082	0.014637	-0.059996	0.999953	-0.000553	0.000018	0.009719
55517	-0.050000	0.083129	9.792622	-0.006835	-0.014546	-0.019598	0.999953	-0.000547	0.000020	0.009707
55518	-0.042858	0.096121	9.792701	-0.000110	-0.001477	-0.019421	0.999953	-0.000547	0.000001	0.009706
55519	-0.035983	0.092103	9.780719	0.006663	-0.005137	-0.031472	0.999953	-0.000558	0.000005	0.009705
55520	-0.039739	0.094390	9.760303	0.003001	-0.002690	-0.051848	0.999953	-0.000549	0.000027	0.009721
55521	-0.040187	0.111619	9.772357	0.002435	0.014418	-0.039621	0.999953	-0.000559	0.000022	0.009715
55522	-0.040671	0.111932	9.772351	0.001914	0.014779	-0.039622	0.999953	-0.000556	0.000022	0.009708
55523	-0.028351	0.087350	9.789132	0.014870	-0.009738	-0.023141	0.999953	-0.000558	0.000033	0.009710
55524	-0.049442	0.100095	9.772253	-0.006485	0.002798	-0.039800	0.999953	-0.000558	0.000027	0.009708
55525	-0.057223	0.104800	9.784219	-0.014317	0.007174	-0.027753	0.999953	-0.000553	0.000030	0.009695
55526	-0.050637	0.084003	9.760182	-0.007547	-0.013212	-0.052024	0.999953	-0.000563	0.000017	0.009714
55527	-0.047989	0.099407	9.792644	-0.005006	0.001829	-0.019422	0.999953	-0.000542	0.000034	0.009710
55528	-0.033988	0.091591	9.768691	0.009052	-0.005849	-0.043514	0.999953	-0.000526	0.000019	0.009720
55529	-0.044425	0.115194	9.772297	-0.001888	0.017302	-0.039626	0.999953	-0.000521	0.000026	0.009730
55530	-0.024843	0.086292	9.777121	0.018406	-0.011215	-0.035178	0.999953	-0.000530	0.000034	0.009725
55531	-0.040068	0.095135	9.801056	0.003256	-0.002829	-0.011088	0.999953	-0.000529	0.000039	0.009722
55532	-0.046620	0.099218	9.760224	-0.003487	0.001640	-0.051848	0.999953	-0.000541	0.000042	0.009722
55533	-0.044093	0.097593	9.780633	-0.000947	-0.000053	-0.031468	0.999953	-0.000538	0.000028	0.009715
55534	-0.026697	0.104289	9.789157	0.016217	0.006940	-0.022954	0.999953	-0.000546	0.000026	0.009711
55535	-0.037618	0.094157	9.768653	0.005319	-0.003376	-0.043510	0.999953	-0.000520	0.000021	0.009723
55536	-0.042446	0.097031	9.801028	0.000577	-0.001059	-0.011087	0.999953	-0.000531	0.000024	0.009723
55537	-0.031525	0.090618	9.756674	0.011541	-0.006672	-0.055550	0.999953	-0.000534	0.000036	0.009724
55538	-0.043735	0.097617	9.801016	-0.000552	-0.000308	-0.011087	0.999953	-0.000535	0.000029	0.009722
55539	-0.039823	0.095620	9.768630	0.003131	-0.001920	-0.043509	0.999953	-0.000535	0.000023	0.009720
55540	-0.030150	0.089673	9.777075	0.012963	-0.007614	-0.035166	0.999953	-0.000549	0.000031	0.009724
55541	-0.040836	0.112820	9.780670	0.001966	0.015536	-0.031294	0.999953	-0.000561	0.000034	0.009723
55542	-0.038679	0.094545	9.789030	0.004542	-0.002872	-0.023126	0.999952	-0.000539	0.000034	0.009739
55543	-0.034695	0.109498	9.768690	0.008201	0.012250	-0.043333	0.999952	-0.000550	0.000038	0.009739
55544	-0.060206	0.107608	9.772112	-0.017326	0.009953	-0.039817	0.999952	-0.000552	0.000028	0.009743
55545	-0.040267	0.095786	9.789012	0.002961	-0.001815	-0.023125	0.999952	-0.000533	0.000042	0.009745
55546	-0.041025	0.096409	9.789002	0.002431	-0.001465	-0.023125	0.999952	-0.000526	0.000052	0.009751
55547	-0.023825	0.103307	9.797534	0.019555	0.005555	-0.014601	0.999952	-0.000520	0.000044	0.009739
55548	-0.044900	0.099316	9.768571	-0.001758	0.001303	-0.043509	0.999952	-0.000511	0.000035	0.009740
55549	-0.049915	0.102230	9.800940	-0.006543	0.003628	-0.011090	0.999952	-0.000503	0.000057	0.009744
55550	-0.053875	0.087708	9.768472	-0.010124	-0.010700	-0.043684	0.999952	-0.000504	0.000061	0.009741
55551	-0.026499	0.088209	9.785468	0.017419	-0.009726	-0.026806	0.999952	-0.000515	0.000065	0.009741
55552	-0.057558	0.106996	9.760084	-0.014355	0.008788	-0.051862	0.999952	-0.000512	0.000039	0.009735
55553	-0.052356	0.086708	9.788875	-0.008664	-0.011666	-0.023300	0.999952	-0.000517	0.000059	0.009742
55554	-0.030896	0.107890	9.777075	0.012640	0.010132	-0.034981	0.999952	-0.000520	0.000072	0.009743
55555	-0.042006	0.097521	9.756568	0.000638	-0.000436	-0.055541	0.999952	-0.000511	0.000015	0.009744
55556	-0.029199	0.106768	9.797482	0.013480	0.008587	-0.014593	0.999952	-0.000502	0.000017	0.009744
55557	-0.040077	0.096432	9.776975	0.002596	-0.001735	-0.035155	0.999952	-0.000513	0.000003	0.009762
55558	-0.022656	0.103211	9.785518	0.019683	0.005310	-0.026620	0.999952	-0.000503	-0.000006	0.009763
55559	-0.051129	0.103299	9.768499	-0.008925	0.005045	-0.043514	0.999952	-0.000516	-0.000004	0.009762
55560	-0.034221	0.093238	9.765005	0.008269	-0.004665	-0.047182	0.999952	-0.000503	0.000004	0.009758
55561	-0.042286	0.097929	9.776951	0.000392	-0.000309	-0.035154	0.999952	-0.000510	0.000019	0.009770
55562	-0.039994	0.096291	9.797367	0.002903	-0.001961	-0.014767	0.999952	-0.000516	0.000014	0.009777
55563	-0.033167	0.092401	9.785409	0.009665	-0.005609	-0.026792	0.999952	-0.000509	0.000011	0.009783
55564	-0.036607	0.094746	9.764982	0.006068	-0.003217	-0.047180	0.999952	-0.000507	0.000010	0.009775
55565	-0.052079	0.086759	9.776845	-0.009046	-0.011574	-0.035330	0.999952	-0.000514	0.000026	0.009787
55566	-0.045275	0.099748	9.776919	-0.002349	0.001505	-0.035155	0.999952	-0.000503	0.000027	0.009765
55567	-0.038537	0.095837	9.764964	0.004464	-0.002149	-0.047178	0.999952	-0.000515	0.000030	0.009764
55568	-0.046449	0.100292	9.776908	-0.003423	0.002240	-0.035155	0.999952	-0.000523	0.000033	0.009776
55569	-0.039684	0.096337	9.764954	0.003362	-0.001412	-0.047178	0.999952	-0.000520	0.000031	0.009768
55570	-0.037289	0.094802	9.785372	0.005857	-0.003053	-0.026788	0.999952	-0.000528	0.000031	0.009757
55571	-0.048255	0.084371	9.764862	-0.004983	-0.013413	-0.047352	0.999952	-0.000530	0.000032	0.009760
55572	-0.030931	0.108117	9.785442	0.012003	0.010403	-0.026612	0.999952	-0.000521	0.000035	0.009760
55573	-0.049448	0.085067	9.764850	-0.006069	-0.012683	-0.047352	0.999952	-0.000542	0.000040	0.009756
55574	-0.049790	0.102190	9.776872	-0.006687	0.004418	-0.035158	0.999952	-0.000532	0.000034	0.009757
55575	-0.032664	0.092261	9.773399	0.010536	-0.005277	-0.038805	0.999952	-0.000528	0.000033	0.009751
55576	-0.043551	0.098780	9.764914	-0.000374	0.001111	-0.047177	0.999952	-0.000531	0.000047	0.009752
55577	-0.036823	0.094890	9.752964	0.006408	-0.002541	-0.059195	0.999952	-0.000527	0.000040	0.009763
55578	-0.052050	0.103879	9.776843	-0.008838	0.005844	-0.035160	0.999952	-0.000524	0.000050	0.009755
55579	-0.049997	0.068767	9.773212	-0.006082	-0.029308	-0.039151	0.999952	-0.000514	0.000043	0.009756
55580	-0.035496	0.094393	9.773369	0.007863	-0.003475	-0.038802	0.999952	-0.000517	0.000044	0.009758
55581	-0.032973	0.092788	9.793790	0.010387	-0.005116	-0.018409	0.999952	-0.000526	0.000030	0.009754
55582	-0.050941	0.103666	9.797241	-0.007931	0.005284	-0.014771	0.999952	-0.000508	0.000030	0.009757
55583	-0.036858	0.095554	9.773353	0.006272	-0.002396	-0.038800	0.999952	-0.000519	0.000035	0.009757
55584	-0.037638	0.095840	9.773347	0.005704	-0.002043	-0.038800	0.999952	-0.000516	0.000056	0.009748
55585	-0.038261	0.096268	9.773340	0.005150	-0.001665	-0.038800	0.999952	-0.000514	0.000042	0.009741
55586	-0.038655	0.096695	9.773335	0.004615	-0.001300	-0.038799	0.999952	-0.000511	0.000041	0.009733
55587	-0.031644	0.109694	9.773409	0.011331	0.011798	-0.038625	0.999953	-0.000511	0.000036	0.009731
55588	-0.071967	0.099577	9.788628	-0.028799	0.000713	-0.023331	0.999953	-0.000507	0.000035	0.009724
55589	-0.037181	0.096145	9.793743	0.006050	-0.002236	-0.018404	0.999952	-0.000497	0.000033	0.009743
55590	-0.043478	0.100236	9.752883	-0.000559	0.002125	-0.059193	0.999952	-0.000506	0.000030	0.009738
55591	-0.041106	0.115335	9.785322	0.001795	0.017233	-0.026615	0.999952	-0.000526	0.000047	0.009734
55592	-0.056644	0.090275	9.785157	-0.013192	-0.007878	-0.026962	0.999952	-0.000529	0.000036	0.009737
55593	-0.042321	0.099156	9.773295	0.000843	0.001223	-0.038798	0.999952	-0.000509	0.000042	0.009734
55594	-0.035603	0.095346	9.761353	0.007665	-0.002419	-0.050807	0.999952	-0.000521	0.000045	0.009733
55595	-0.043542	0.099968	9.773281	-0.000198	0.001942	-0.038798	0.999952	-0.000511	0.000050	0.009734
55596	-0.041274	0.081708	9.781690	0.002459	-0.016448	-0.030583	0.999953	-0.000511	0.000045	0.009732
55597	-0.037095	0.113462	9.773347	0.006012	0.015393	-0.038625	0.999953	-0.000504	0.000052	0.009719
55598	-0.044910	0.101465	9.773259	-0.001722	0.003009	-0.038799	0.999953	-0.000486	0.000031	0.009724
55599	-0.035380	0.095695	9.781751	0.008165	-0.002635	-0.030408	0.999953	-0.000507	0.000073	0.009717
55600	-0.046496	0.102225	9.773244	-0.002746	0.003710	-0.038799	0.999953	-0.000481	0.000069	0.009730
55601	-0.039748	0.081587	9.749299	0.004283	-0.016694	-0.062982	0.999953	-0.000491	0.000072	0.009706
55602	-0.029880	0.109543	9.781811	0.013843	0.011190	-0.030234	0.999953	-0.000488	0.000078	0.009715
55603	-0.065753	0.113876	9.776649	-0.022059	0.014803	-0.035190	0.999953	-0.000484	0.000078	0.009708
55604	-0.042991	0.083186	9.802072	0.001393	-0.015585	-0.010180	0.999953	-0.000498	0.000077	0.009713
55605	-0.039001	0.097826	9.781716	0.005061	-0.000483	-0.030406	0.999953	-0.000502	0.000084	0.009697
55606	-0.032066	0.093890	9.769784	0.011936	-0.004149	-0.042407	0.999953	-0.000501	0.000068	0.009696
55607	-0.054805	0.090228	9.793552	-0.010526	-0.008532	-0.018576	0.999953	-0.000498	0.000093	0.009687
55608	-0.043530	0.100773	9.761267	0.000542	0.002547	-0.050804	0.999953	-0.000500	0.000084	0.009691
55609	-0.033720	0.111959	9.781771	0.010281	0.013669	-0.030233	0.999953	-0.000493	0.000097	0.009695
55610	-0.041842	0.099877	9.781684	0.002559	0.001268	-0.030405	0.999953	-0.000483	0.000102	0.009696
55611	-0.035133	0.079209	9.757751	0.009588	-0.019147	-0.054575	0.999953	-0.000480	0.000101	0.009688
55612	-0.042862	0.100768	9.781670	0.001547	0.001987	-0.030405	0.999953	-0.000480	0.000099	0.009686
55613	-0.038713	0.115583	9.761310	0.005242	0.017068	-0.050633	0.999953	-0.000479	0.000095	0.009684
55614	-0.033525	0.095520	9.790168	0.010945	-0.003303	-0.022002	0.999953	-0.000468	0.000098	0.009662
55615	-0.026741	0.091648	9.778241	0.017831	-0.006953	-0.033999	0.999953	-0.000476	0.000103	0.009674
55616	-0.052310	0.106885	9.793562	-0.007840	0.007417	-0.018408	0.999953	-0.000445	0.000109	0.009675
55617	-0.030739	0.111506	9.769790	0.013640	0.012505	-0.042230	0.999953	-0.000457	0.000115	0.009674
55618	-0.043202	0.101752	9.802060	0.001569	0.002141	-0.010004	0.999953	-0.000441	0.000114	0.009683
55619	-0.043916	0.068502	9.778061	0.001451	-0.031038	-0.034337	0.999953	-0.000440	0.000122	0.009680
55620	-0.029603	0.093964	9.778211	0.015346	-0.005179	-0.033994	0.999953	-0.000454	0.000122	0.009685
55621	-0.055139	0.091855	9.781532	-0.010123	-0.007609	-0.030577	0.999953	-0.000462	0.000122	0.009680
55622	-0.040790	0.100428	9.769687	0.003935	0.001493	-0.042400	0.999953	-0.000467	0.000118	0.009688
55623	-0.041275	0.100811	9.769681	0.003437	0.001859	-0.042400	0.999953	-0.000460	0.000119	0.009693
55624	-0.031494	0.094986	9.778195	0.013313	-0.003769	-0.033990	0.999953	-0.000477	0.000114	0.009704
55625	-0.032047	0.095307	9.778190	0.012830	-0.003404	-0.033989	0.999953	-0.000465	0.000125	0.009698
55626	-0.060573	0.112249	9.773057	-0.015869	0.012910	-0.038819	0.999953	-0.000465	0.000133	0.009695
55627	-0.040692	0.100588	9.790090	0.004420	0.001315	-0.021997	0.999953	-0.000450	0.000136	0.009686
55628	-0.038443	0.082334	9.798529	0.007094	-0.017065	-0.013754	0.999953	-0.000455	0.000137	0.009675
55629	-0.054981	0.109159	9.761119	-0.010036	0.009949	-0.050814	0.999953	-0.000464	0.000146	0.009670
55630	-0.024787	0.091277	9.786684	0.020637	-0.007611	-0.025571	0.999953	-0.000454	0.000139	0.009671
55631	-0.025181	0.091498	9.786681	0.020130	-0.007258	-0.025570	0.999953	-0.000479	0.000134	0.009655
55632	-0.046036	0.103766	9.769629	-0.001156	0.005031	-0.042401	0.999953	-0.000480	0.000126	0.009659
55633	-0.025969	0.092012	9.786674	0.019124	-0.006556	-0.025568	0.999953	-0.000473	0.000126	0.009665
55634	-0.047014	0.087778	9.757627	-0.001956	-0.011026	-0.054558	0.999953	-0.000467	0.000127	0.009670
55635	-0.050402	0.106954	9.749169	-0.005666	0.008048	-0.062806	0.999953	-0.000462	0.000135	0.009680
55636	-0.027724	0.093309	9.786657	0.017601	-0.005485	-0.025564	0.999953	-0.000471	0.000144	0.009674
55637	-0.038520	0.099707	9.778123	0.006693	0.000837	-0.033983	0.999953	-0.000467	0.000139	0.009685
55638	-0.039144	0.100170	9.778116	0.006211	0.001196	-0.033982	0.999953	-0.000462	0.000158	0.009671
55639	-0.049964	0.106644	9.769578	-0.004699	0.007534	-0.042403	0.999953	-0.000465	0.000149	0.009674
55640	-0.035792	0.098203	9.745760	0.009610	-0.000136	-0.066372	0.999953	-0.000489	0.000167	0.009657
55641	-0.030841	0.094934	9.786632	0.015061	-0.003680	-0.025559	0.999953	-0.000468	0.000174	0.009655
55642	-0.031466	0.095398	9.786625	0.014552	-0.003337	-0.025558	0.999953	-0.000479	0.000179	0.009654
55643	-0.054254	0.074695	9.798373	-0.007726	-0.024515	-0.013913	0.999953	-0.000476	0.000179	0.009647
55644	-0.042841	0.102151	9.778080	0.003124	0.003336	-0.033981	0.999953	-0.000476	0.000186	0.009644
55645	-0.050862	0.089830	9.777998	-0.004570	-0.009079	-0.034150	0.999953	-0.000482	0.000188	0.009634
55646	-0.041149	0.101189	9.798506	0.005072	0.002104	-0.013574	0.999953	-0.000460	0.000191	0.009650
55647	-0.039803	0.101019	9.745715	0.005992	0.002360	-0.066369	0.999953	-0.000468	0.000172	0.009664
55648	-0.052227	0.091129	9.777978	-0.006147	-0.007998	-0.034150	0.999953	-0.000470	0.000185	0.009666
55649	-0.024996	0.075101	9.783147	0.021565	-0.023559	-0.029272	0.999953	-0.000467	0.000185	0.009658
55650	-0.053473	0.091846	9.777965	-0.007174	-0.007292	-0.034150	0.999953	-0.000472	0.000194	0.009665
55651	-0.039283	0.100462	9.766134	0.006914	0.001830	-0.045960	0.999953	-0.000479	0.000197	0.009655
55652	-0.047320	0.088084	9.766053	-0.000760	-0.010588	-0.046128	0.999953	-0.000484	0.000207	0.009662
55653	-0.022804	0.107646	9.774741	0.023482	0.009371	-0.037360	0.999953	-0.000480	0.000203	0.009672
55654	-0.040855	0.101534	9.766116	0.005412	0.002910	-0.045960	0.999953	-0.000474	0.000197	0.009660
55655	-0.028215	0.094139	9.795096	0.018282	-0.004621	-0.017117	0.999953	-0.000471	0.000198	0.009653
55656	-0.041852	0.102267	9.766105	0.004429	0.003619	-0.045959	0.999953	-0.000483	0.000204	0.009652
55657	-0.047083	0.105106	9.798438	-0.000543	0.006050	-0.013574	0.999953	-0.000473	0.000216	0.009670
55658	-0.032992	0.096985	9.774637	0.013817	-0.001607	-0.037524	0.999953	-0.000478	0.000226	0.009677
55659	-0.041023	0.084641	9.774556	0.006162	-0.014009	-0.037690	0.999953	-0.000481	0.000230	0.009678
55660	-0.023974	0.091569	9.783174	0.023243	-0.006822	-0.029085	0.999953	-0.000481	0.000239	0.009676
55661	-0.042154	0.085358	9.774545	0.005117	-0.013293	-0.037689	0.999953	-0.000481	0.000232	0.009674
55662	-0.030705	0.095879	9.742277	0.016174	-0.002227	-0.069904	0.999953	-0.000481	0.000236	0.009671
55663	-0.043402	0.102982	9.786503	0.003719	0.004221	-0.025548	0.999953	-0.000484	0.000248	0.009672
55664	-0.034039	0.097341	9.795046	0.013550	-0.001350	-0.017108	0.999953	-0.000478	0.000269	0.009676
55665	-0.037469	0.099503	9.774595	0.010018	0.000945	-0.037519	0.999953	-0.000484	0.000252	0.009685
55666	-0.027670	0.093774	9.783144	0.019850	-0.004624	-0.029076	0.999953	-0.000484	0.000256	0.009682
55667	-0.035639	0.098533	9.795028	0.011850	-0.000251	-0.017106	0.999953	-0.000472	0.000252	0.009678
55668	-0.031541	0.096592	9.762685	0.015756	-0.001967	-0.049486	0.999953	-0.000466	0.000249	0.009683
55669	-0.047040	0.105657	9.786457	0.000320	0.006411	-0.025549	0.999953	-0.000457	0.000263	0.009683
55670	-0.015402	0.104266	9.771301	0.032177	0.005615	-0.040873	0.999953	-0.000448	0.000277	0.009682
55671	-0.043765	0.104091	9.754106	0.003717	0.005056	-0.057930	0.999953	-0.000456	0.000259	0.009696
55672	-0.048871	0.107088	9.786433	-0.001264	0.007509	-0.025550	0.999953	-0.000436	0.000279	0.009692
55673	-0.034728	0.115949	9.774611	0.012814	0.016632	-0.037350	0.999953	-0.000444	0.000276	0.009688
55674	-0.050007	0.091006	9.774457	-0.002004	-0.008551	-0.037682	0.999953	-0.000439	0.000277	0.009692
55675	-0.040418	0.102380	9.794970	0.007291	0.002977	-0.017102	0.999953	-0.000448	0.000273	0.009716
55676	-0.026269	0.094274	9.771193	0.021663	-0.004673	-0.041030	0.999953	-0.000448	0.000281	0.009713
55677	-0.051948	0.092360	9.774435	-0.003821	-0.007172	-0.037682	0.999953	-0.000443	0.000287	0.009700
55678	-0.034895	0.099162	9.783067	0.013189	0.000050	-0.029064	0.999953	-0.000466	0.000288	0.009702
55679	-0.060665	0.097163	9.786306	-0.012295	-0.002458	-0.025719	0.999953	-0.000445	0.000308	0.009699
55680	-0.056690	0.112122	9.765922	-0.008628	0.012602	-0.045970	0.999953	-0.000447	0.000298	0.009703
55681	-0.047016	0.089516	9.762525	0.001558	-0.009748	-0.049643	0.999953	-0.000448	0.000317	0.009699
55682	-0.045006	0.105044	9.794922	0.003682	0.005492	-0.017101	0.999953	-0.000448	0.000324	0.009696
55683	-0.038252	0.084200	9.771080	0.010900	-0.014931	-0.041187	0.999953	-0.000451	0.000337	0.009697
55684	-0.041770	0.103231	9.762579	0.007133	0.004133	-0.049477	0.999953	-0.000450	0.000339	0.009713
55685	-0.039472	0.101802	9.783023	0.009573	0.002566	-0.029060	0.999953	-0.000455	0.000337	0.009721
55686	-0.035400	0.099606	9.750688	0.013578	0.000816	-0.061435	0.999953	-0.000454	0.000345	0.009718
55687	-0.030234	0.096619	9.791582	0.018943	-0.002630	-0.020601	0.999953	-0.000439	0.000331	0.009728
55688	-0.043785	0.104896	9.762552	0.005081	0.005558	-0.049476	0.999953	-0.000442	0.000345	0.009729
55689	-0.034150	0.099180	9.771120	0.014977	0.000002	-0.041016	0.999953	-0.000445	0.000341	0.009714
55690	-0.039288	0.085263	9.791491	0.010265	-0.014323	-0.020762	0.999953	-0.000430	0.000350	0.009722
55691	-0.027895	0.095894	9.759230	0.021406	-0.003280	-0.052971	0.999953	-0.000433	0.000353	0.009725
55692	-0.053503	0.093849	9.762451	-0.004097	-0.005802	-0.049641	0.999953	-0.000435	0.000355	0.009727
55693	-0.041083	0.103321	9.803421	0.008395	0.003562	-0.008640	0.999953	-0.000439	0.000357	0.009730
55694	-0.044465	0.088309	9.771018	0.005258	-0.010971	-0.041177	0.999953	-0.000457	0.000369	0.009720
55695	-0.037666	0.101397	9.771084	0.011873	0.002170	-0.041012	0.999952	-0.000432	0.000364	0.009733
55696	-0.048413	0.107911	9.762497	0.000960	0.008425	-0.049477	0.999952	-0.000443	0.000369	0.009732
55697	-0.038686	0.102149	9.771072	0.010854	0.002856	-0.041011	0.999952	-0.000442	0.000365	0.009731
55698	-0.036359	0.100838	9.791518	0.013263	0.001319	-0.020591	0.999952	-0.000435	0.000365	0.009737
55699	-0.036871	0.101336	9.791511	0.012712	0.001704	-0.020591	0.999952	-0.000430	0.000363	0.009742
55700	-0.055061	0.095126	9.782850	-0.005335	-0.004831	-0.029222	0.999952	-0.000430	0.000370	0.009739
55701	-0.020304	0.091861	9.788212	0.029521	-0.007465	-0.024070	0.999952	-0.000431	0.000365	0.009737
55702	-0.031074	0.098243	9.779623	0.018585	-0.001194	-0.032539	0.999952	-0.000431	0.000371	0.009734
55703	-0.049425	0.108632	9.782904	0.000197	0.009071	-0.029059	0.999952	-0.000458	0.000379	0.009740
55704	-0.054578	0.077713	9.791338	-0.004166	-0.022071	-0.020915	0.999952	-0.000427	0.000385	0.009741
55705	-0.035754	0.100933	9.759153	0.014097	0.001775	-0.052957	0.999952	-0.000451	0.000386	0.009743
55706	-0.040974	0.103539	9.791472	0.009004	0.004250	-0.020587	0.999952	-0.000458	0.000387	0.009732
55707	-0.019237	0.108032	9.767805	0.030501	0.009409	-0.044318	0.999952	-0.000452	0.000384	0.009738
55708	-0.044918	0.106068	9.771004	0.004989	0.006862	-0.041008	0.999953	-0.000453	0.000396	0.009717
55709	-0.045546	0.106453	9.770997	0.004477	0.007218	-0.041008	0.999953	-0.000450	0.000396	0.009710
55710	-0.043346	0.105153	9.791445	0.006856	0.005697	-0.020586	0.999953	-0.000447	0.000402	0.009720
55711	-0.040826	0.086998	9.799958	0.009586	-0.012615	-0.012271	0.999952	-0.000437	0.000377	0.009740
55712	-0.044023	0.089173	9.779496	0.006115	-0.010354	-0.032693	0.999952	-0.000441	0.000390	0.009741
55713	-0.040198	0.103729	9.759107	0.009753	0.004705	-0.052953	0.999952	-0.000460	0.000399	0.009732
55714	-0.045565	0.089408	9.779487	0.005022	-0.009607	-0.032692	0.999952	-0.000473	0.000414	0.009730
55715	-0.028593	0.096329	9.788148	0.022004	-0.002338	-0.024048	0.999952	-0.000472	0.000409	0.009729
55716	-0.042157	0.104370	9.759092	0.008137	0.005771	-0.052952	0.999952	-0.000477	0.000416	0.009736
55717	-0.029866	0.097027	9.788138	0.020898	-0.001627	-0.024046	0.999952	-0.000471	0.000426	0.009741
55718	-0.048153	0.090788	9.779462	0.002842	-0.008188	-0.032690	0.999952	-0.000471	0.000432	0.009738
55719	-0.023585	0.093537	9.776267	0.027274	-0.004903	-0.035984	0.999952	-0.000474	0.000420	0.009741
55720	-0.034374	0.099846	9.767664	0.016347	0.001339	-0.044467	0.999952	-0.000477	0.000434	0.009743
55721	-0.027691	0.113000	9.767728	0.022909	0.014504	-0.044304	0.999952	-0.000462	0.000435	0.009733
55722	-0.042891	0.088176	9.767578	0.008145	-0.010743	-0.044627	0.999952	-0.000463	0.000429	0.009731
55723	-0.043585	0.105545	9.779500	0.007210	0.006425	-0.032526	0.999952	-0.000456	0.000438	0.009736
55724	-0.029437	0.114432	9.767707	0.021216	0.015605	-0.044302	0.999953	-0.000452	0.000440	0.009723
55725	-0.027016	0.079198	9.764306	0.024337	-0.019518	-0.048073	0.999953	-0.000459	0.000441	0.009713
55726	-0.035346	0.100692	9.788083	0.015901	0.001669	-0.024036	0.999952	-0.000461	0.000459	0.009732
55727	-0.056313	0.096049	9.758941	-0.005036	-0.003050	-0.053113	0.999952	-0.000463	0.000449	0.009735
55728	-0.039232	0.120225	9.779535	0.011517	0.021064	-0.032364	0.999952	-0.000442	0.000443	0.009734
55729	-0.044208	0.089358	9.787992	0.007164	-0.010065	-0.024195	0.999952	-0.000455	0.000446	0.009734
55730	-0.022556	0.093695	9.764354	0.028698	-0.004887	-0.047902	0.999952	-0.000461	0.000453	0.009740
55731	-0.055648	0.078859	9.767450	-0.003941	-0.020288	-0.044782	0.999952	-0.000466	0.000461	0.009747
55732	-0.048972	0.091810	9.767516	0.002588	-0.007117	-0.044621	0.999952	-0.000470	0.000465	0.009732
55733	-0.024674	0.111431	9.776263	0.026600	0.013010	-0.035803	0.999952	-0.000478	0.000466	0.009744
55734	-0.054853	0.094816	9.799817	-0.003158	-0.004247	-0.012260	0.999952	-0.000488	0.000461	0.009739
55735	-0.035969	0.100814	9.755723	0.015456	0.002786	-0.056390	0.999952	-0.000502	0.000476	0.009760
55736	-0.026474	0.111989	9.776252	0.024845	0.014120	-0.035800	0.999952	-0.000506	0.000463	0.009764
55737	-0.034307	0.099863	9.776173	0.017172	0.001677	-0.035960	0.999952	-0.000485	0.000467	0.009761
55738	-0.027451	0.096055	9.764318	0.024081	-0.001962	-0.047888	0.999952	-0.000497	0.000468	0.009761
55739	-0.025305	0.094691	9.784775	0.026408	-0.003446	-0.027458	0.999952	-0.000489	0.000470	0.009761
55740	-0.036118	0.101096	9.776154	0.015430	0.002780	-0.035957	0.999952	-0.000492	0.000469	0.009763
55741	-0.036766	0.101502	9.776147	0.014850	0.003150	-0.035956	0.999952	-0.000487	0.000478	0.009768
55742	-0.029974	0.097630	9.764295	0.021781	-0.000476	-0.047883	0.999952	-0.000491	0.000482	0.009752
55743	-0.038043	0.102292	9.776134	0.013706	0.003885	-0.035955	0.999952	-0.000485	0.000480	0.009758
55744	-0.042674	0.071336	9.784606	0.009356	-0.027225	-0.027771	0.999952	-0.000492	0.000444	0.009750
55745	-0.031230	0.115623	9.776196	0.019663	0.017447	-0.035793	0.999952	-0.000495	0.000456	0.009751
55746	-0.029050	0.097319	9.784739	0.022396	-0.000851	-0.027447	0.999952	-0.000496	0.000460	0.009748
55747	-0.040023	0.120625	9.788025	0.010994	0.022185	-0.023868	0.999952	-0.000493	0.000457	0.009741
55748	-0.040376	0.104137	9.776105	0.010818	0.005730	-0.035952	0.999952	-0.000487	0.000453	0.009747
55749	-0.043762	0.106201	9.755634	0.007351	0.007941	-0.056383	0.999952	-0.000494	0.000463	0.009736
55750	-0.038841	0.086202	9.784645	0.012972	-0.012217	-0.027602	0.999952	-0.000491	0.000468	0.009746
55751	-0.031833	0.082280	9.772800	0.019910	-0.015854	-0.039523	0.999952	-0.000497	0.000456	0.009736
55752	-0.024866	0.112247	9.784777	0.025960	0.014158	-0.027280	0.999952	-0.000495	0.000428	0.009731
55753	-0.035258	0.101779	9.764235	0.015426	0.003545	-0.047871	0.999952	-0.000482	0.000430	0.009744
55754	-0.040478	0.087897	9.784623	0.010623	-0.010735	-0.027598	0.999952	-0.000484	0.000433	0.009741
55755	-0.040991	0.088356	9.784617	0.010032	-0.010359	-0.027597	0.999952	-0.000475	0.000423	0.009742
55756	-0.051735	0.094769	9.775982	-0.000945	-0.004141	-0.036110	0.999952	-0.000476	0.000426	0.009739
55757	-0.037624	0.120472	9.776115	0.012627	0.021871	-0.035790	0.999953	-0.000480	0.000418	0.009724
55758	-0.045390	0.108064	9.776040	0.004961	0.009413	-0.035950	0.999952	-0.000486	0.000412	0.009732
55759	-0.053244	0.095575	9.775966	-0.002717	-0.003047	-0.036110	0.999952	-0.000499	0.000412	0.009731
55760	-0.033474	0.083824	9.793223	0.017469	-0.014345	-0.019074	0.999953	-0.000510	0.000422	0.009707
55761	-0.036871	0.085750	9.772752	0.014001	-0.012142	-0.039507	0.999953	-0.000513	0.000421	0.009709
55762	-0.029949	0.098729	9.772818	0.020466	0.001062	-0.039346	0.999953	-0.000520	0.000402	0.009718
55763	-0.040622	0.104992	9.764180	0.009475	0.007261	-0.047866	0.999953	-0.000520	0.000405	0.009715
55764	-0.027989	0.080867	9.781371	0.022593	-0.016852	-0.030982	0.999953	-0.000512	0.000394	0.009716
55765	-0.046217	0.091381	9.784566	0.004077	-0.006656	-0.027589	0.999953	-0.000528	0.000394	0.009702
55766	-0.032111	0.100113	9.772797	0.018062	0.002552	-0.039342	0.999953	-0.000520	0.000406	0.009702
55767	-0.068115	0.103909	9.767280	-0.017915	0.005754	-0.044636	0.999953	-0.000533	0.000407	0.009701
55768	-0.030710	0.098946	9.793255	0.019713	0.001473	-0.018904	0.999953	-0.000542	0.000406	0.009713
55769	-0.051549	0.094135	9.764074	-0.001190	-0.003340	-0.048024	0.999953	-0.000545	0.000405	0.009716
55770	-0.031755	0.099434	9.793247	0.018548	0.002191	-0.018902	0.999953	-0.000557	0.000395	0.009716
55771	-0.042338	0.088696	9.772704	0.008028	-0.008447	-0.039497	0.999953	-0.000555	0.000403	0.009708
55772	-0.053632	0.112046	9.775954	-0.003408	0.014580	-0.035956	0.999953	-0.000549	0.000423	0.009712
55773	-0.061729	0.099869	9.775873	-0.011062	0.002121	-0.036116	0.999953	-0.000541	0.000425	0.009712
55774	-0.044609	0.090126	9.772680	0.006273	-0.007333	-0.039494	0.999953	-0.000542	0.000428	0.009709
55775	-0.027697	0.097137	9.781389	0.023149	0.000037	-0.030804	0.999953	-0.000554	0.000430	0.009709
55776	-0.066113	0.102574	9.755382	-0.015671	0.005029	-0.056556	0.999953	-0.000546	0.000412	0.009693
55777	-0.046385	0.108086	9.784559	0.004057	0.010601	-0.027428	0.999953	-0.000550	0.000423	0.009694
55778	-0.036565	0.085652	9.781302	0.014325	-0.011676	-0.030959	0.999953	-0.000539	0.000417	0.009690
55779	-0.047354	0.092066	9.772649	0.003338	-0.005483	-0.039492	0.999953	-0.000540	0.000420	0.009687
55780	-0.055414	0.096694	9.784467	-0.004802	-0.001115	-0.027587	0.999953	-0.000541	0.000411	0.009685
55781	-0.038238	0.086728	9.781287	0.012566	-0.010571	-0.030955	0.999953	-0.000555	0.000421	0.009689
55782	-0.031495	0.099779	9.781351	0.019049	0.002634	-0.030796	0.999953	-0.000543	0.000411	0.009703
55783	-0.067362	0.103660	9.775797	-0.016915	0.005786	-0.036125	0.999953	-0.000546	0.000421	0.009705
55784	-0.035656	0.102312	9.760865	0.015038	0.005182	-0.051234	0.999953	-0.000541	0.000442	0.009708
55785	-0.041158	0.105224	9.793152	0.009756	0.007735	-0.018892	0.999953	-0.000553	0.000432	0.009709
55786	-0.041624	0.105449	9.793147	0.009179	0.008098	-0.018892	0.999953	-0.000556	0.000431	0.009711
55787	-0.031764	0.082904	9.789906	0.019498	-0.014180	-0.022409	0.999953	-0.000557	0.000436	0.009708
55788	-0.032253	0.083246	9.789901	0.018922	-0.013811	-0.022407	0.999953	-0.000560	0.000424	0.009712
55789	-0.035370	0.085274	9.769424	0.015503	-0.011634	-0.042847	0.999953	-0.000558	0.000420	0.009704
55790	-0.036143	0.102399	9.781307	0.014421	0.005572	-0.030789	0.999953	-0.000582	0.000419	0.009706
55791	-0.041275	0.088235	9.801707	0.009628	-0.008710	-0.010505	0.999953	-0.000576	0.000416	0.009712
55792	-0.037326	0.103000	9.781297	0.013250	0.006310	-0.030788	0.999953	-0.000580	0.000427	0.009713
55793	-0.047959	0.092317	9.760747	0.002807	-0.004363	-0.051387	0.999953	-0.000578	0.000424	0.009706
55794	-0.038517	0.103940	9.781282	0.012103	0.007042	-0.030787	0.999953	-0.000560	0.000424	0.009709
55795	-0.028943	0.098635	9.789933	0.020443	0.000221	-0.022236	0.999953	-0.000484	0.000357	0.009696
55796	-0.036882	0.086332	9.789858	0.012829	-0.012255	-0.022395	0.999953	-0.000487	0.000357	0.009699
55797	-0.050630	0.111051	9.772600	-0.001476	0.012555	-0.039333	0.999953	-0.000503	0.000358	0.009685
55798	-0.023215	0.095397	9.778104	0.026281	-0.002667	-0.034126	0.999953	-0.000482	0.000358	0.009701
55799	-0.041310	0.089066	9.769367	0.008286	-0.009356	-0.042835	0.999953	-0.000494	0.000360	0.009701
55800	-0.034490	0.101962	9.769432	0.014761	0.003856	-0.042675	0.999953	-0.000501	0.000348	0.009691
55801	-0.039581	0.087909	9.789833	0.009958	-0.010431	-0.022390	0.999953	-0.000501	0.000352	0.009689
55802	-0.043105	0.106749	9.781233	0.006033	0.008576	-0.030783	0.999953	-0.000516	0.000349	0.009694
55803	-0.033526	0.101039	9.789894	0.015846	0.003150	-0.022228	0.999953	-0.000520	0.000360	0.009695
55804	-0.041595	0.088641	9.789819	0.008239	-0.009331	-0.022387	0.999953	-0.000523	0.000371	0.009697
55805	-0.045146	0.107596	9.781214	0.004312	0.009675	-0.030783	0.999953	-0.000524	0.000364	0.009695
55806	-0.048174	0.109502	9.760733	0.000926	0.011836	-0.051228	0.999953	-0.000535	0.000349	0.009713
55807	-0.035395	0.085308	9.777997	0.014088	-0.012230	-0.034272	0.999953	-0.000529	0.000347	0.009719
55808	-0.038677	0.087460	9.757513	0.010700	-0.010070	-0.054717	0.999953	-0.000521	0.000354	0.009701
55809	-0.047134	0.109109	9.781188	0.002020	0.011133	-0.030784	0.999953	-0.000524	0.000353	0.009704
55810	-0.037445	0.103576	9.789853	0.011836	0.005708	-0.022224	0.999953	-0.000522	0.000351	0.009696
55811	-0.037961	0.103996	9.789847	0.011269	0.006068	-0.022223	0.999953	-0.000519	0.000349	0.009689
55812	-0.048443	0.093286	9.769294	0.000863	-0.004631	-0.042829	0.999953	-0.000523	0.000349	0.009692
55813	-0.039104	0.104702	9.789835	0.010120	0.006802	-0.022222	0.999953	-0.000523	0.000353	0.009689
55814	-0.036572	0.086459	9.798435	0.012892	-0.011464	-0.013818	0.999953	-0.000524	0.000333	0.009688
55815	-0.042306	0.089982	9.757475	0.006706	-0.007522	-0.054711	0.999953	-0.000536	0.000335	0.009687
55816	-0.047236	0.075907	9.777881	0.001912	-0.021795	-0.034422	0.999953	-0.000534	0.000309	0.009681
55817	-0.033187	0.101682	9.778012	0.015387	0.004270	-0.034103	0.999953	-0.000540	0.000327	0.009688
55818	-0.044018	0.107949	9.769329	0.004430	0.010411	-0.042669	0.999953	-0.000533	0.000313	0.009694
55819	-0.041549	0.089717	9.777933	0.007224	-0.007862	-0.034260	0.999953	-0.000539	0.000319	0.009701
55820	-0.042200	0.090118	9.777926	0.006641	-0.007496	-0.034260	0.999953	-0.000530	0.000321	0.009702
