// General information: 
//  MT Manager version: 2021.0.0 
//  XDA version: 2021.0.0 build 5908 rev 109668 built on 2021-04-19
// Device information: 
//  DeviceId: 00B43DFC
//  ProductCode: MTW2-3A7G6
//  Firmware Version: 4.3.5
//  Hardware Version: 1.1.0
// Device settings: 
//  Filter Profile: human(46.1)
//  Option Flags: Orientation Smoother Disabled, Position/Velocity Smoother Disabled, Continuous Zero Rotation Update Disabled, AHS Disabled, ICC Disabled
// Coordinate system: ENU
PacketCounter	Acc_X	Acc_Y	Acc_Z	FreeAcc_E	FreeAcc_N	FreeAcc_U	Quat_q0	Quat_q1	Quat_q2	Quat_q3
54636	-9.651306	-0.969669	-1.471223	0.027776	0.088271	-0.002290	0.345264	0.599374	0.457266	-0.558974
54637	-9.597962	-0.958226	-1.498692	0.046917	0.120084	-0.052127	0.345298	0.599317	0.457249	-0.559028
54638	-9.649628	-0.957537	-1.547417	0.068000	0.157235	0.005528	0.345323	0.599275	0.457256	-0.559051
54639	-9.666167	-0.930397	-1.477256	0.069446	0.081239	0.009292	0.345334	0.599223	0.457244	-0.559110
54640	-9.636375	-0.937173	-1.438100	0.048571	0.053743	-0.024894	0.345341	0.599202	0.457187	-0.559174
54641	-9.695231	-0.958686	-1.376535	0.009121	-0.003758	0.026588	0.345360	0.599187	0.457122	-0.559233
54642	-9.698900	-0.990888	-1.371914	-0.022041	0.004420	0.032726	0.345373	0.599169	0.457037	-0.559314
54643	-9.695406	-0.977428	-1.364883	-0.011676	-0.004121	0.026978	0.345402	0.599134	0.456957	-0.559398
54644	-9.659120	-0.996322	-1.383244	-0.023275	0.027996	-0.004360	0.345453	0.599057	0.456884	-0.559508
54645	-9.725495	-0.955302	-1.439930	0.039595	0.058080	0.064879	0.345547	0.598931	0.456843	-0.559619
54646	-9.639343	-0.994693	-1.483379	0.016078	0.130138	-0.010158	0.345747	0.598771	0.456804	-0.559699
54647	-9.671970	-0.999772	-1.438244	-0.003399	0.088711	0.016210	0.345940	0.598645	0.456819	-0.559701
54648	-9.739631	-0.954229	-1.459633	0.049672	0.084517	0.081345	0.346032	0.598575	0.456738	-0.559785
54649	-9.684525	-0.906327	-1.452170	0.090134	0.073869	0.021267	0.346148	0.598451	0.456631	-0.559934
54650	-9.698472	-0.965444	-1.537749	0.068059	0.176610	0.052468	0.346411	0.598198	0.456619	-0.560051
54651	-9.631882	-0.981448	-1.714915	0.115621	0.361882	0.012434	0.346542	0.598067	0.456523	-0.560189
54652	-9.605251	-0.942443	-1.619295	0.116553	0.266590	-0.030739	0.346401	0.598226	0.456340	-0.560255
54653	-9.619372	-0.850665	-1.372332	0.110530	0.002515	-0.059379	0.346383	0.598458	0.456315	-0.560039
54654	-9.706331	-0.822527	-1.286671	0.103459	-0.104195	0.011944	0.346474	0.598686	0.456359	-0.559703
54655	-9.605649	-1.010045	-1.332143	-0.066013	0.015809	-0.062884	0.346624	0.598871	0.456463	-0.559327
54656	-9.643923	-0.987010	-1.400445	-0.024623	0.061194	-0.017978	0.346575	0.599152	0.456340	-0.559157
54657	-9.758119	-0.846442	-1.420866	0.112896	0.009660	0.083947	0.346367	0.599559	0.456027	-0.559105
54658	-9.689068	-0.947756	-1.409945	0.007413	0.046973	0.024079	0.346399	0.599725	0.455702	-0.559173
54659	-9.508218	-1.144642	-1.358801	-0.204032	0.102322	-0.142597	0.346604	0.599658	0.455603	-0.559197
54660	-9.559262	-1.179865	-1.393618	-0.224411	0.138701	-0.084165	0.346695	0.599689	0.455801	-0.558947
54661	-9.647634	-1.023668	-1.396444	-0.076734	0.068986	-0.011455	0.346835	0.599640	0.456030	-0.558726
54662	-9.644040	-0.971846	-1.410210	-0.024944	0.061223	-0.017979	0.346822	0.599668	0.456178	-0.558583
54663	-9.682466	-0.976754	-1.586939	0.035423	0.217965	0.044990	0.346735	0.599722	0.456103	-0.558640
54664	-9.645409	-1.047071	-1.428363	-0.087783	0.102889	-0.006964	0.346550	0.599812	0.455909	-0.558816
54665	-9.650138	-1.034935	-1.285113	-0.127010	-0.034204	-0.023383	0.346452	0.599857	0.455887	-0.558846
54666	-9.723348	-0.924402	-1.310689	-0.011324	-0.062571	0.041849	0.346259	0.599970	0.455796	-0.558920
54667	-9.666881	-0.842755	-1.358606	0.080374	-0.038165	-0.014896	0.346195	0.600014	0.455695	-0.558994
54668	-9.661557	-0.948100	-1.426737	0.006182	0.062712	-0.000645	0.346312	0.599981	0.455784	-0.558885
54669	-9.664509	-0.945011	-1.475851	0.026221	0.105938	0.008820	0.346369	0.599930	0.455883	-0.558822
54670	-9.701566	-0.864950	-1.358017	0.060159	-0.036750	0.021323	0.346294	0.599944	0.455796	-0.558926
54671	-9.700547	-0.868630	-1.392225	0.069906	-0.002474	0.025428	0.346336	0.599897	0.455760	-0.558979
54672	-9.682544	-1.065381	-1.353924	-0.127787	0.035761	0.021041	0.346374	0.599890	0.455712	-0.559003
54673	-9.654312	-1.048704	-1.287264	-0.137760	-0.025628	-0.017641	0.346551	0.599768	0.455805	-0.558947
54674	-9.620796	-1.052693	-1.519069	-0.059068	0.196104	-0.018122	0.346731	0.599620	0.455946	-0.558880
54675	-9.649651	-0.952987	-1.546545	0.045195	0.182345	0.004668	0.346704	0.599617	0.455929	-0.558914
54676	-9.625738	-0.912664	-1.501111	0.066229	0.130286	-0.029039	0.346570	0.599679	0.455830	-0.559010
54677	-9.645925	-0.995657	-1.481243	-0.016404	0.138369	-0.004024	0.346524	0.599673	0.455752	-0.559110
54678	-9.634350	-0.914481	-1.361743	0.016560	0.001735	-0.039712	0.346390	0.599735	0.455703	-0.559166
54679	-9.675078	-0.932931	-1.457354	0.036614	0.089564	0.015436	0.346348	0.599714	0.455670	-0.559241
54680	-9.664365	-0.910003	-1.398098	0.037311	0.029254	-0.005523	0.346275	0.599724	0.455604	-0.559330
54681	-9.660341	-1.012861	-1.429260	-0.046682	0.095857	0.004619	0.346481	0.599556	0.455741	-0.559271
54682	-9.641971	-1.016859	-1.301471	-0.097071	-0.016989	-0.030780	0.346525	0.599499	0.455826	-0.559235
54683	-9.668319	-1.021118	-1.446949	-0.046891	0.113349	0.015725	0.346533	0.599450	0.455961	-0.559173
54684	-9.677281	-0.875469	-1.443414	0.088737	0.056461	0.010174	0.346486	0.599433	0.455989	-0.559197
54685	-9.673789	-0.940713	-1.490996	0.046161	0.123843	0.019542	0.346386	0.599463	0.455892	-0.559306
54686	-9.723197	-0.917119	-1.343370	0.018344	-0.027856	0.045568	0.346284	0.599454	0.455817	-0.559440
54687	-9.678178	-0.852198	-1.292969	0.059830	-0.089175	-0.011993	0.346471	0.599306	0.455998	-0.559335
54688	-9.632911	-0.944126	-1.384125	0.005203	0.035640	-0.035221	0.346790	0.599070	0.456213	-0.559215
54689	-9.646220	-1.045471	-1.578623	-0.018647	0.249369	0.014423	0.346887	0.598982	0.456318	-0.559163
54690	-9.671714	-0.967962	-1.549759	0.044781	0.192021	0.028139	0.346920	0.598912	0.456341	-0.559200
54691	-9.636820	-1.019562	-1.482237	-0.027819	0.154798	-0.010642	0.346883	0.598891	0.456250	-0.559318
54692	-9.655139	-1.143531	-1.481968	-0.142066	0.196363	0.019244	0.346964	0.598836	0.456264	-0.559316
54693	-9.638663	-1.093913	-1.497441	-0.090649	0.196447	0.000365	0.346850	0.598902	0.456180	-0.559385
54694	-9.614301	-1.018317	-1.503881	-0.018388	0.179409	-0.030005	0.346799	0.598922	0.456185	-0.559390
54695	-9.587942	-0.984349	-1.531017	0.022213	0.195873	-0.055498	0.346807	0.598898	0.456276	-0.559337
54696	-9.589945	-0.924568	-1.519964	0.074505	0.162765	-0.060758	0.346654	0.598972	0.456276	-0.559353
54697	-9.678943	-0.902788	-1.514410	0.097307	0.133563	0.024136	0.346471	0.599063	0.456225	-0.559411
54698	-9.700548	-0.902904	-1.372111	0.048043	-0.002845	0.025821	0.346351	0.599070	0.456265	-0.559445
54699	-9.664816	-0.920039	-1.358535	0.026651	-0.005020	-0.009625	0.346407	0.599005	0.456420	-0.559353
54700	-9.650301	-0.960405	-1.349966	-0.015194	0.002043	-0.021219	0.346643	0.598862	0.456717	-0.559118
54701	-9.692422	-1.051202	-1.464691	-0.057913	0.131526	0.044936	0.346786	0.598780	0.456878	-0.558986
54702	-9.726251	-1.015587	-1.403845	-0.045799	0.056614	0.066424	0.346732	0.598831	0.456861	-0.558978
54703	-9.684734	-0.939977	-1.247465	-0.033693	-0.107540	-0.003452	0.346784	0.598822	0.456869	-0.558950
54704	-9.694769	-0.959318	-1.186320	-0.074185	-0.159002	-0.000174	0.347030	0.598676	0.457113	-0.558753
54705	-9.666079	-1.026975	-1.330520	-0.087651	0.001545	-0.001961	0.347159	0.598600	0.457275	-0.558621
54706	-9.681744	-0.964486	-1.313846	-0.034967	-0.039421	0.005144	0.347043	0.598672	0.457260	-0.558629
54707	-9.735084	-0.922583	-1.344499	0.017671	-0.035761	0.057931	0.346878	0.598769	0.457174	-0.558697
54708	-9.738909	-0.936363	-1.349160	0.007210	-0.027202	0.063677	0.346899	0.598740	0.457141	-0.558744
54709	-9.657415	-0.835245	-1.378921	0.109047	-0.020946	-0.022264	0.346936	0.598713	0.457179	-0.558718
54710	-9.680777	-0.853607	-1.313002	0.068965	-0.080243	-0.006624	0.347000	0.598670	0.457349	-0.558585
54711	-9.603790	-0.913535	-1.301057	0.005036	-0.059646	-0.078392	0.347077	0.598631	0.457504	-0.558451
54712	-9.657832	-0.887577	-1.289024	0.027201	-0.090661	-0.029327	0.347092	0.598562	0.457698	-0.558358
54713	-9.681711	-0.856592	-1.402065	0.098677	-0.002737	0.006952	0.347079	0.598494	0.457826	-0.558334
54714	-9.676290	-0.902620	-1.375543	0.046908	-0.012451	0.002356	0.347093	0.598448	0.458027	-0.558210
54715	-9.735928	-0.848910	-1.349733	0.090290	-0.068397	0.052295	0.347058	0.598456	0.458255	-0.558035
54716	-9.738198	-0.824498	-1.289596	0.091363	-0.136551	0.043700	0.347102	0.598420	0.458470	-0.557869
54717	-9.685983	-0.791082	-1.292447	0.121407	-0.138648	-0.010620	0.347271	0.598261	0.458709	-0.557739
54718	-9.685246	-0.929714	-1.443258	0.045922	0.047888	0.023316	0.347392	0.598143	0.458902	-0.557631
54719	-9.719084	-0.896020	-1.382333	0.058057	-0.027055	0.044806	0.347377	0.598066	0.459073	-0.557582
54720	-9.633940	-0.818810	-1.356816	0.119128	-0.064419	-0.050215	0.347612	0.597795	0.459446	-0.557420
54721	-9.578779	-0.888570	-1.476982	0.095088	0.077594	-0.080834	0.347785	0.597607	0.459874	-0.557161
54722	-9.675598	-0.852466	-1.378404	0.098827	-0.045498	-0.002894	0.347952	0.597393	0.460309	-0.556927
54723	-9.643237	-1.037498	-1.479088	-0.038923	0.112686	-0.002392	0.348024	0.597242	0.460655	-0.556757
54724	-9.582206	-1.095673	-1.510155	-0.082441	0.168647	-0.052334	0.348075	0.596990	0.461009	-0.556703
54725	-9.644139	-0.873225	-1.466900	0.117464	0.038753	-0.019402	0.348091	0.596707	0.461597	-0.556508
54726	-9.778696	-0.707278	-1.308451	0.227127	-0.191567	0.074016	0.348457	0.596241	0.462368	-0.556139
54727	-9.793019	-1.010048	-1.451017	-0.004028	0.035687	0.138573	0.348961	0.595729	0.463239	-0.555647
54728	-9.585654	-0.949259	-1.355168	0.013994	-0.042793	-0.085391	0.349537	0.594937	0.464345	-0.555209
54729	-9.683160	-0.753327	-1.306206	0.193801	-0.171259	-0.016241	0.350944	0.593289	0.466311	-0.554437
54730	-9.532022	-0.639581	-1.754389	0.453585	0.235673	-0.112940	0.352804	0.591280	0.468740	-0.553353
54731	-9.509451	-0.847037	-2.311884	0.443718	0.823740	-0.034318	0.354200	0.589878	0.470916	-0.552109
54732	-9.614154	-0.856524	-2.028154	0.346661	0.536994	0.029592	0.355193	0.588861	0.472601	-0.551116
54733	-9.650458	-1.063199	-1.678990	0.041135	0.260195	0.036746	0.356246	0.587822	0.474251	-0.550128
54734	-9.451047	-1.399119	-1.458914	-0.354788	0.183434	-0.156149	0.357694	0.586259	0.476222	-0.549152
54735	-9.810520	-1.768265	-0.973438	-0.827979	-0.233568	0.166317	0.359036	0.584563	0.478583	-0.548031
54736	-9.892334	-1.169545	-0.671111	-0.332275	-0.716158	0.139859	0.360417	0.582764	0.480757	-0.547136
54737	-9.759609	-0.598704	-0.871249	0.275122	-0.669659	-0.022726	0.362129	0.581099	0.482779	-0.545996
54738	-9.591898	-0.590458	-1.430467	0.438905	-0.111595	-0.107313	0.363560	0.579975	0.483976	-0.545178
54739	-9.448956	-1.066838	-2.098104	0.164706	0.679398	-0.100106	0.364099	0.579588	0.484343	-0.544905
54740	-9.630386	-1.146875	-1.674042	-0.022039	0.266856	0.025523	0.364168	0.579340	0.484928	-0.544602
54741	-9.717858	-1.155804	-1.539980	-0.059563	0.125440	0.093114	0.365119	0.578240	0.486017	-0.544163
54742	-9.558129	-1.199726	-1.760182	-0.045928	0.373851	-0.027314	0.366055	0.577193	0.487252	-0.543542
54743	-9.572339	-1.240481	-1.637976	-0.116381	0.262345	-0.026521	0.366528	0.576652	0.488179	-0.542966
54744	-9.402511	-1.328753	-1.914712	-0.134886	0.569524	-0.143336	0.366392	0.576629	0.488626	-0.542679
54745	-9.371488	-1.426677	-1.954083	-0.219231	0.626425	-0.156697	0.365777	0.577073	0.488809	-0.542457
54746	-9.429631	-1.380395	-1.933440	-0.175922	0.570486	-0.106751	0.365126	0.577499	0.489036	-0.542238
54747	-9.609507	-1.260929	-1.720028	-0.106048	0.290511	0.025778	0.364283	0.577957	0.489199	-0.542170
54748	-9.596387	-0.920683	-1.698730	0.216469	0.167368	-0.027541	0.363624	0.578305	0.489570	-0.541906
54749	-9.652330	-0.737567	-1.619227	0.375050	0.019232	-0.004919	0.363291	0.578464	0.490012	-0.541560
54750	-9.654985	-0.923638	-1.802321	0.247478	0.230913	0.046604	0.363436	0.578316	0.490603	-0.541085
54751	-9.728590	-0.971434	-1.634293	0.158356	0.062264	0.098473	0.363548	0.578234	0.491194	-0.540562
54752	-9.746270	-1.062165	-1.477303	0.026253	-0.075785	0.101643	0.363662	0.578253	0.491702	-0.540003
54753	-9.684161	-1.190422	-1.387318	-0.129456	-0.124319	0.040866	0.364019	0.578088	0.492206	-0.539480
54754	-9.567895	-1.516878	-1.677177	-0.375729	0.250190	0.008447	0.364507	0.577817	0.492840	-0.538861
54755	-9.523689	-1.538587	-1.729892	-0.387908	0.307620	-0.024158	0.364375	0.577911	0.493051	-0.538656
54756	-9.548305	-1.388494	-1.550918	-0.290817	0.088323	-0.044832	0.364000	0.578199	0.493052	-0.538599
54757	-9.656820	-1.257765	-1.458790	-0.183036	-0.058089	0.032481	0.363627	0.578480	0.492963	-0.538632
54758	-9.785185	-1.209542	-1.318547	-0.167665	-0.230730	0.130655	0.363431	0.578758	0.492797	-0.538617
54759	-9.720683	-1.329964	-1.413148	-0.264201	-0.098912	0.095788	0.363277	0.579029	0.492469	-0.538730
54760	-9.631891	-1.340381	-1.505306	-0.257263	0.007795	0.024469	0.362863	0.579529	0.491960	-0.538935
54761	-9.671938	-1.210647	-1.472498	-0.141525	-0.065090	0.044088	0.362405	0.580030	0.491460	-0.539161
54762	-9.678626	-0.985786	-1.414872	0.057018	-0.180979	0.016526	0.361942	0.580479	0.491015	-0.539394
54763	-9.665275	-0.998557	-1.497929	0.065671	-0.096023	0.018127	0.361880	0.580635	0.490724	-0.539533
54764	-9.577055	-1.042734	-1.343248	-0.027301	-0.213292	-0.088215	0.361855	0.580780	0.490576	-0.539528
54765	-9.637747	-1.055024	-1.454319	-0.007141	-0.115825	-0.009585	0.362068	0.580750	0.490648	-0.539352
54766	-9.696750	-1.198313	-1.535756	-0.121712	-0.012229	0.077029	0.362057	0.580946	0.490522	-0.539264
54767	-9.617279	-1.214106	-1.610541	-0.124700	0.077692	0.012707	0.362035	0.581169	0.490232	-0.539301
54768	-9.613927	-1.322727	-1.656466	-0.219269	0.152734	0.028536	0.361990	0.581358	0.489908	-0.539422
54769	-9.578579	-1.231725	-1.581249	-0.156572	0.066498	-0.028122	0.361813	0.581551	0.489579	-0.539631
54770	-9.613478	-1.116430	-1.449363	-0.080997	-0.092887	-0.027452	0.361493	0.581844	0.489096	-0.539967
54771	-9.578799	-1.132524	-1.713666	-0.023933	0.171324	-0.017651	0.361261	0.582108	0.488580	-0.540306
54772	-9.577824	-1.078288	-1.716347	0.027756	0.163546	-0.024135	0.361126	0.582357	0.488112	-0.540551
54773	-9.648516	-1.122427	-1.679781	-0.022268	0.131996	0.044160	0.360990	0.582601	0.487646	-0.540799
54774	-9.617498	-1.023371	-1.615878	0.050796	0.054780	-0.007126	0.360723	0.582967	0.487005	-0.541161
54775	-9.587965	-1.070516	-1.842780	0.066991	0.292838	0.004678	0.360781	0.583104	0.486560	-0.541375
54776	-9.590044	-1.124588	-1.748558	-0.014778	0.223057	-0.002432	0.360850	0.583257	0.486269	-0.541425
54777	-9.541416	-1.138351	-1.739049	-0.036588	0.228674	-0.050253	0.360614	0.583617	0.485839	-0.541581
54778	-9.523070	-1.124693	-1.774108	-0.016803	0.262231	-0.064241	0.360236	0.584098	0.485257	-0.541835
54779	-9.569318	-1.106785	-1.854080	0.024353	0.325130	-0.008192	0.359875	0.584519	0.484749	-0.542076
54780	-9.575820	-1.064665	-1.758705	0.036401	0.223076	-0.021273	0.359393	0.584979	0.484142	-0.542441
54781	-9.558714	-0.927231	-1.705883	0.151326	0.138776	-0.060936	0.358937	0.585385	0.483605	-0.542785
54782	-9.590508	-1.032951	-1.562904	0.008754	0.026723	-0.040957	0.358501	0.585892	0.483196	-0.542890
54783	-9.648694	-1.003341	-1.479250	0.011397	-0.072865	-0.000108	0.358567	0.586079	0.483071	-0.542756
54784	-9.612586	-1.026263	-1.664907	0.038634	0.113833	-0.003891	0.358365	0.586398	0.482826	-0.542763
54785	-9.738428	-0.952989	-1.602390	0.094302	0.010143	0.102142	0.358089	0.586725	0.482471	-0.542906
54786	-9.645159	-0.959812	-1.603699	0.081735	0.030784	0.011495	0.357888	0.586972	0.482108	-0.543094
54787	-9.646374	-0.961313	-1.482758	0.042083	-0.080986	-0.006216	0.357867	0.587159	0.481824	-0.543159
54788	-9.623528	-1.060988	-1.596837	-0.022885	0.061945	-0.000271	0.357948	0.587272	0.481544	-0.543232
54789	-9.670002	-1.100071	-1.618374	-0.053674	0.089371	0.052775	0.358002	0.587358	0.481226	-0.543384
54790	-9.578525	-1.101110	-1.699679	-0.036327	0.187487	-0.024275	0.357891	0.587548	0.480771	-0.543654
54791	-9.619715	-1.080677	-1.602767	-0.044395	0.086798	-0.001157	0.357625	0.587805	0.480326	-0.543946
54792	-9.655871	-0.933160	-1.649062	0.111490	0.082854	0.026354	0.357519	0.587953	0.480112	-0.544044
54793	-9.650997	-0.846558	-1.656256	0.194417	0.067015	0.013771	0.357534	0.588057	0.479895	-0.544114
54794	-9.578022	-0.931363	-1.725909	0.129135	0.173133	-0.038331	0.357556	0.588175	0.479606	-0.544227
54795	-9.581728	-1.034779	-1.744304	0.035075	0.222812	-0.021263	0.357484	0.588305	0.479341	-0.544367
54796	-9.606215	-1.055446	-1.676687	-0.005008	0.163476	-0.005656	0.357536	0.588348	0.479174	-0.544433
54797	-9.647187	-1.022115	-1.384406	-0.061649	-0.126157	-0.014228	0.357503	0.588444	0.479001	-0.544503
54798	-9.606257	-0.998645	-1.645882	0.036914	0.121442	-0.016245	0.357478	0.588577	0.478798	-0.544554
54799	-9.699839	-0.914777	-1.621847	0.111999	0.059225	0.063447	0.357429	0.588735	0.478540	-0.544642
54800	-9.617629	-0.995100	-1.709266	0.056616	0.182160	0.004350	0.357379	0.588883	0.478210	-0.544804
54801	-9.646052	-0.992693	-1.575867	0.017785	0.054657	0.011355	0.357453	0.588935	0.477992	-0.544892
54802	-9.629969	-0.994456	-1.650448	0.036825	0.131006	0.007227	0.357427	0.589030	0.477776	-0.544995
54803	-9.597322	-0.895307	-1.590974	0.109819	0.053786	-0.044043	0.357446	0.589102	0.477624	-0.545038
54804	-9.603549	-0.993420	-1.659378	0.035804	0.146700	-0.017496	0.357549	0.589153	0.477606	-0.544931
54805	-9.604357	-1.006359	-1.736476	0.044738	0.223772	-0.003523	0.357756	0.589089	0.477617	-0.544855
54806	-9.714230	-0.976014	-1.579854	0.028874	0.049573	0.077283	0.357689	0.589238	0.477434	-0.544898
54807	-9.619872	-1.079839	-1.511427	-0.096867	0.033858	-0.015654	0.357714	0.589289	0.477299	-0.544944
54808	-9.605054	-1.080819	-1.551966	-0.087553	0.075962	-0.023898	0.357798	0.589311	0.477279	-0.544883
54809	-9.611585	-1.029619	-1.661905	-0.006203	0.163206	-0.005652	0.357776	0.589381	0.477201	-0.544890
54810	-9.628013	-0.987403	-1.633181	0.025691	0.121890	0.001861	0.357618	0.589505	0.476944	-0.545085
54811	-9.644604	-1.015842	-1.744319	0.034351	0.233965	0.038051	0.357502	0.589616	0.476667	-0.545282
54812	-9.648216	-0.942369	-1.528604	0.038048	0.012002	0.001138	0.357394	0.589710	0.476382	-0.545502
54813	-9.615112	-0.972311	-1.554470	0.015986	0.052599	-0.024473	0.357242	0.589881	0.476182	-0.545591
54814	-9.670425	-0.983613	-1.490457	-0.013025	-0.013514	0.021220	0.357149	0.590031	0.475986	-0.545661
54815	-9.690954	-0.876850	-1.531591	0.101086	-0.010327	0.037130	0.356936	0.590246	0.475747	-0.545775
54816	-9.642621	-0.931384	-1.472180	0.028220	-0.039833	-0.014088	0.356868	0.590331	0.475481	-0.545961
54817	-9.637806	-0.919381	-1.500274	0.048312	-0.014093	-0.015705	0.356741	0.590431	0.475293	-0.546098
54818	-9.678663	-0.822243	-1.468943	0.132902	-0.078812	0.010067	0.356542	0.590597	0.475028	-0.546280
54819	-9.652311	-0.898060	-1.499242	0.069164	-0.021537	-0.003707	0.356548	0.590624	0.474908	-0.546351
54820	-9.628128	-0.951589	-1.500712	0.016476	0.001835	-0.021966	0.356860	0.590474	0.475060	-0.546178
54821	-9.633686	-0.904074	-1.526018	0.068046	0.011639	-0.017320	0.357077	0.590347	0.475174	-0.546073
54822	-9.593220	-0.907501	-1.541546	0.066859	0.035167	-0.054404	0.357078	0.590389	0.475110	-0.546083
54823	-9.647334	-0.901773	-1.520523	0.068224	0.003770	-0.004957	0.356849	0.590536	0.474986	-0.546182
54824	-9.667021	-0.909054	-1.569792	0.078099	0.047696	0.022634	0.356897	0.590491	0.475069	-0.546127
54825	-9.671033	-0.866954	-1.512344	0.099929	-0.020070	0.013670	0.357055	0.590377	0.475251	-0.545988
54826	-9.682500	-0.942757	-1.480037	0.017494	-0.029613	0.027481	0.357345	0.590202	0.475465	-0.545802
54827	-9.606821	-1.033062	-1.622021	-0.028323	0.145081	-0.016396	0.357538	0.590050	0.475558	-0.545759
54828	-9.612765	-1.024755	-1.597376	-0.027831	0.119723	-0.015143	0.357612	0.589985	0.475602	-0.545742
54829	-9.595808	-1.048153	-1.667116	-0.029519	0.195722	-0.018901	0.357781	0.589877	0.475720	-0.545646
54830	-9.641546	-1.055191	-1.621340	-0.048702	0.146430	0.019798	0.357848	0.589804	0.475879	-0.545541
54831	-9.637721	-0.985383	-1.673090	0.033528	0.173405	0.017098	0.357754	0.589873	0.475867	-0.545540
54832	-9.638051	-0.966676	-1.680547	0.054200	0.173796	0.016737	0.357596	0.589959	0.475768	-0.545636
54833	-9.645110	-0.922452	-1.550857	0.056578	0.037426	-0.000469	0.357756	0.589832	0.475931	-0.545526
54834	-9.646067	-1.033009	-1.522893	-0.057485	0.043860	0.007073	0.357947	0.589694	0.476123	-0.545383
54835	-9.599022	-0.937466	-1.470772	0.015294	-0.025516	-0.056543	0.357890	0.589673	0.476144	-0.545423
54836	-9.635996	-0.991773	-1.590717	0.003394	0.095762	0.003484	0.357805	0.589720	0.476159	-0.545416
54837	-9.705784	-1.034814	-1.676609	-0.007250	0.175937	0.089488	0.357872	0.589636	0.476272	-0.545364
54838	-9.661265	-0.956183	-1.545948	0.025334	0.037540	0.017991	0.357918	0.589577	0.476348	-0.545332
54839	-9.593407	-0.964344	-1.572853	0.023377	0.076755	-0.043816	0.357901	0.589537	0.476411	-0.545330
54840	-9.563482	-1.008505	-1.606709	-0.009135	0.125916	-0.063696	0.357838	0.589593	0.476418	-0.545306
54841	-9.626651	-0.972828	-1.498852	-0.005889	0.001036	-0.021603	0.357837	0.589591	0.476551	-0.545192
54842	-9.705535	-1.020833	-1.568526	-0.026423	0.064491	0.071387	0.357830	0.589577	0.476671	-0.545108
54843	-9.642699	-0.948082	-1.552052	0.034999	0.036801	-0.000104	0.357875	0.589496	0.476829	-0.545026
54844	-9.658960	-0.945129	-1.476697	0.015914	-0.039688	0.004012	0.357760	0.589552	0.476887	-0.544992
54845	-9.652018	-0.935523	-1.543617	0.045723	0.020321	0.006524	0.357803	0.589499	0.476933	-0.544979
54846	-9.662672	-0.997203	-1.434642	-0.045840	-0.066426	0.006341	0.357834	0.589462	0.477072	-0.544878
54847	-9.679972	-0.930125	-1.617698	0.076008	0.082087	0.044870	0.357857	0.589356	0.477133	-0.544924
54848	-9.662192	-0.996485	-1.553475	-0.006622	0.045401	0.024087	0.357976	0.589245	0.477218	-0.544891
54849	-9.599720	-1.050352	-1.619951	-0.040448	0.135560	-0.021768	0.358192	0.589081	0.477391	-0.544775
54850	-9.613230	-1.048793	-1.614950	-0.040167	0.127598	-0.009406	0.358228	0.589044	0.477510	-0.544688
54851	-9.644423	-1.039767	-1.617033	-0.029283	0.120793	0.020692	0.358330	0.588928	0.477634	-0.544637
54852	-9.624251	-1.101517	-1.828709	-0.023296	0.342046	0.039530	0.358387	0.588830	0.477677	-0.544667
54853	-9.653886	-1.047053	-1.597279	-0.039392	0.103977	0.027677	0.358173	0.588923	0.477534	-0.544832
54854	-9.558960	-1.023255	-1.563546	-0.030396	0.082245	-0.073193	0.358148	0.588919	0.477508	-0.544877
54855	-9.629300	-1.046417	-1.655890	-0.020232	0.162914	0.012456	0.358060	0.588977	0.477503	-0.544876
54856	-9.589451	-1.012153	-1.686882	0.020005	0.187352	-0.025343	0.357927	0.589079	0.477473	-0.544879
54857	-9.651135	-0.978959	-1.614473	0.032962	0.096739	0.020870	0.357730	0.589172	0.477433	-0.544944
54858	-9.655205	-0.881535	-1.613314	0.126754	0.064527	0.014959	0.357594	0.589216	0.477424	-0.544993
54859	-9.642875	-0.975422	-1.597303	0.033010	0.079163	0.009761	0.357549	0.589227	0.477356	-0.545070
54860	-9.622203	-1.047514	-1.485614	-0.069533	-0.000803	-0.020533	0.357276	0.589360	0.477211	-0.545232
54861	-9.637831	-0.968950	-1.508017	0.013610	-0.007019	-0.009600	0.357350	0.589300	0.477361	-0.545117
54862	-9.655301	-0.995978	-1.587099	0.012443	0.070721	0.022481	0.357494	0.589215	0.477555	-0.544945
54863	-9.623744	-1.040661	-1.656897	-0.010390	0.154066	0.006726	0.357535	0.589150	0.477651	-0.544904
54864	-9.643180	-0.961832	-1.486693	0.013905	-0.032475	-0.008349	0.357421	0.589198	0.477558	-0.545009
54865	-9.643115	-1.033318	-1.626550	-0.009605	0.120890	0.020337	0.357302	0.589241	0.477401	-0.545177
54866	-9.613581	-1.007187	-1.516848	-0.018691	0.016644	-0.028232	0.357319	0.589175	0.477419	-0.545222
54867	-9.621583	-0.992311	-1.660704	0.041171	0.146387	0.000282	0.357296	0.589159	0.477419	-0.545255
54868	-9.663736	-0.987907	-1.608532	0.032507	0.088535	0.033237	0.357146	0.589211	0.477348	-0.545359
54869	-9.615840	-0.931841	-1.542549	0.063939	0.018306	-0.029654	0.357259	0.589102	0.477479	-0.545287
54870	-9.602204	-0.968907	-1.618240	0.051779	0.102796	-0.027671	0.357378	0.588968	0.477632	-0.545221
54871	-9.636134	-1.085471	-1.633477	-0.052057	0.145154	0.019799	0.357384	0.588926	0.477709	-0.545194
54872	-9.648608	-1.031344	-1.600897	-0.009580	0.095360	0.021589	0.357374	0.588912	0.477792	-0.545143
54873	-9.612687	-1.083470	-1.658544	-0.042693	0.169748	0.000456	0.357294	0.588934	0.477828	-0.545140
54874	-9.628464	-0.969917	-1.610356	0.052131	0.086936	-0.002946	0.357236	0.588915	0.477889	-0.545146
54875	-9.597563	-0.925952	-1.545712	0.073477	0.017330	-0.047744	0.357136	0.588954	0.477913	-0.545148
54876	-9.621570	-0.964808	-1.558803	0.042383	0.035066	-0.018184	0.357009	0.589023	0.477917	-0.545153
54877	-9.627830	-0.976252	-1.495138	0.012440	-0.025101	-0.020710	0.356949	0.589056	0.478043	-0.545047
54878	-9.607023	-1.003311	-1.638558	0.030105	0.119456	-0.016197	0.357081	0.588904	0.478236	-0.544955
54879	-9.687623	-1.015626	-1.600171	0.011597	0.071808	0.058320	0.357012	0.588889	0.478299	-0.544961
54880	-9.673568	-1.002376	-1.527923	0.002200	0.002549	0.031967	0.357089	0.588805	0.478337	-0.544967
54881	-9.654050	-1.069552	-1.499815	-0.070601	0.000113	0.015287	0.357068	0.588788	0.478331	-0.545005
54882	-9.642156	-1.047882	-1.595578	-0.020698	0.085874	0.016214	0.357066	0.588777	0.478341	-0.545009
54883	-9.670871	-1.022147	-1.675781	0.030390	0.148089	0.054223	0.356968	0.588820	0.478316	-0.545049
54884	-9.638290	-0.963239	-1.568362	0.052486	0.035737	-0.000440	0.356958	0.588794	0.478293	-0.545103
54885	-9.592220	-1.013428	-1.557965	-0.000376	0.049440	-0.042195	0.357086	0.588691	0.478419	-0.545021
54886	-9.557789	-1.060447	-1.697334	-0.003838	0.201373	-0.049683	0.357248	0.588536	0.478490	-0.545020
54887	-9.574984	-1.072698	-1.697017	-0.014014	0.201987	-0.031589	0.357153	0.588566	0.478512	-0.545030
54888	-9.641902	-1.086462	-1.664431	-0.032934	0.162269	0.030564	0.357055	0.588612	0.478498	-0.545057
54889	-9.608297	-1.082672	-1.621933	-0.043263	0.126143	-0.009400	0.356898	0.588697	0.478436	-0.545122
54890	-9.651594	-1.039304	-1.584024	-0.010495	0.069133	0.022844	0.356802	0.588720	0.478427	-0.545168
54891	-9.619474	-0.974336	-1.680862	0.080618	0.146228	-0.000398	0.356623	0.588815	0.478295	-0.545299
54892	-9.616449	-0.929790	-1.485088	0.063431	-0.050886	-0.038258	0.356437	0.588937	0.478199	-0.545372
54893	-9.649694	-1.008175	-1.550684	0.010714	0.026639	0.012628	0.356500	0.588918	0.478299	-0.545265
54894	-9.637936	-1.023632	-1.598823	0.009441	0.077260	0.010133	0.356579	0.588871	0.478428	-0.545149
54895	-9.636576	-1.063360	-1.585597	-0.032114	0.076339	0.010835	0.356535	0.588846	0.478424	-0.545210
54896	-9.657514	-1.053812	-1.520350	-0.040926	0.008823	0.020308	0.356455	0.588876	0.478359	-0.545287
54897	-9.638474	-1.028634	-1.477367	-0.030182	-0.034678	-0.007649	0.356412	0.588864	0.478283	-0.545395
54898	-9.609079	-1.066481	-1.713237	0.006266	0.203799	0.003900	0.356348	0.588874	0.478256	-0.545449
54899	-9.612792	-0.971629	-1.626721	0.070521	0.094127	-0.015636	0.356473	0.588749	0.478385	-0.545389
54900	-9.631124	-1.052889	-1.731835	0.027067	0.213789	0.027025	0.356440	0.588749	0.478365	-0.545428
54901	-9.601595	-1.025806	-1.623436	0.018108	0.109531	-0.021562	0.356426	0.588775	0.478328	-0.545442
54902	-9.604547	-1.132221	-1.643509	-0.075994	0.159063	-0.004564	0.356263	0.588841	0.478254	-0.545542
54903	-9.602751	-1.026524	-1.588813	0.008334	0.075219	-0.025697	0.356063	0.588981	0.478208	-0.545562
54904	-9.580864	-1.022347	-1.578766	0.008044	0.065564	-0.049170	0.356068	0.588965	0.478395	-0.545413
54905	-9.565225	-0.952781	-1.600748	0.080131	0.066212	-0.068309	0.356086	0.588920	0.478507	-0.545351
54906	-9.708254	-1.020321	-1.588567	0.020811	0.046606	0.077317	0.355767	0.589071	0.478469	-0.545429
54907	-9.715699	-0.920845	-1.517123	0.095192	-0.054020	0.063165	0.355643	0.589100	0.478515	-0.545438
54908	-9.646860	-1.021152	-1.559802	0.009614	0.026219	0.012630	0.355756	0.589050	0.478679	-0.545274
54909	-9.592880	-1.006957	-1.589927	0.028724	0.058089	-0.037158	0.355671	0.589131	0.478702	-0.545222
54910	-9.600403	-0.940753	-1.587970	0.091366	0.034132	-0.036958	0.355578	0.589190	0.478629	-0.545284
54911	-9.621359	-1.004293	-1.544390	0.019722	0.008045	-0.016574	0.355472	0.589197	0.478602	-0.545368
54912	-9.589862	-0.941497	-1.521809	0.071550	-0.026652	-0.057589	0.355523	0.589145	0.478724	-0.545284
54913	-9.641894	-0.973103	-1.608292	0.070896	0.052906	0.010338	0.355574	0.589089	0.478890	-0.545166
54914	-9.633057	-1.022369	-1.653855	0.038507	0.111561	0.013926	0.355544	0.589045	0.478842	-0.545275
54915	-9.623613	-1.076016	-1.613062	-0.023524	0.092705	0.003858	0.355509	0.588979	0.478778	-0.545426
54916	-9.605406	-1.032050	-1.575821	0.007984	0.049621	-0.024448	0.355440	0.588948	0.478733	-0.545543
54917	-9.639751	-1.055794	-1.575586	-0.012235	0.050938	0.011733	0.355525	0.588915	0.478768	-0.545493
54918	-9.591608	-0.995844	-1.629874	0.058552	0.092682	-0.033366	0.355552	0.588887	0.478837	-0.545445
54919	-9.611949	-1.056429	-1.705917	0.026155	0.178468	0.004808	0.355668	0.588732	0.478950	-0.545437
54920	-9.645621	-1.122290	-1.571865	-0.074831	0.066966	0.023888	0.355749	0.588605	0.479051	-0.545433
54921	-9.565264	-1.127694	-1.686621	-0.047508	0.191646	-0.036610	0.355906	0.588411	0.479209	-0.545401
54922	-9.536731	-1.096949	-1.662911	-0.026900	0.164865	-0.071543	0.355916	0.588415	0.479329	-0.545285
54923	-9.625013	-1.041945	-1.622790	0.017292	0.093231	0.003166	0.356040	0.588296	0.479554	-0.545134
54924	-9.638630	-1.056957	-1.695895	0.026490	0.162402	0.029535	0.356031	0.588258	0.479652	-0.545094
54925	-9.617325	-1.090465	-1.634794	-0.024879	0.117519	0.002616	0.356089	0.588194	0.479787	-0.545007
54926	-9.622521	-1.140401	-1.556527	-0.096084	0.056451	0.000761	0.356179	0.588113	0.479955	-0.544888
54927	-9.604255	-1.110407	-1.599984	-0.055705	0.090524	-0.013536	0.356205	0.588110	0.480028	-0.544810
54928	-9.687235	-1.027933	-1.512325	-0.000254	-0.032393	0.045571	0.356260	0.588069	0.480172	-0.544691
54929	-9.653319	-1.108860	-1.688256	-0.025295	0.161868	0.048322	0.356348	0.587980	0.480259	-0.544653
54930	-9.638458	-1.098935	-1.532431	-0.064216	0.014954	0.008287	0.356403	0.587932	0.480374	-0.544568
54931	-9.602218	-1.039000	-1.617366	0.016569	0.083175	-0.020303	0.356463	0.587883	0.480452	-0.544512
54932	-9.643628	-1.015094	-1.608300	0.038322	0.060023	0.016429	0.356490	0.587894	0.480449	-0.544486
54933	-9.638500	-1.075871	-1.659164	-0.004501	0.127213	0.025748	0.356581	0.587819	0.480461	-0.544496
54934	-9.582033	-1.102150	-1.708688	-0.017076	0.192432	-0.019201	0.356640	0.587739	0.480544	-0.544471
54935	-9.621813	-1.102863	-1.608189	-0.045559	0.091182	0.004210	0.356600	0.587736	0.480521	-0.544521
54936	-9.619304	-1.035580	-1.538602	-0.002624	0.006461	-0.016225	0.356653	0.587696	0.480615	-0.544446
54937	-9.628826	-1.106440	-1.746538	-0.006704	0.220542	0.033135	0.356706	0.587682	0.480618	-0.544424
54938	-9.607047	-1.047890	-1.705151	0.035289	0.168953	-0.000900	0.356562	0.587783	0.480467	-0.544541
54939	-9.601949	-1.058574	-1.608234	-0.004708	0.082303	-0.019954	0.356650	0.587739	0.480509	-0.544495
54940	-9.609058	-1.084269	-1.619595	-0.025651	0.099283	-0.008494	0.356678	0.587723	0.480545	-0.544463
54941	-9.670313	-1.104882	-1.610434	-0.045054	0.084849	0.052402	0.356650	0.587754	0.480573	-0.544423
54942	-9.635702	-1.043786	-1.659507	0.026122	0.118742	0.019679	0.356567	0.587811	0.480509	-0.544472
54943	-9.577388	-1.094038	-1.619304	-0.036766	0.105908	-0.038596	0.356429	0.587924	0.480381	-0.544552
54944	-9.582803	-1.048096	-1.646125	0.014780	0.115735	-0.033897	0.356507	0.587903	0.480515	-0.544406
54945	-9.670829	-0.939176	-1.576908	0.101225	0.002289	0.030248	0.356459	0.587956	0.480446	-0.544441
54946	-9.625135	-1.042006	-1.595082	0.006159	0.057726	-0.000964	0.356520	0.587936	0.480468	-0.544404
54947	-9.635502	-1.065275	-1.534811	-0.034104	0.006002	0.002208	0.356519	0.587935	0.480480	-0.544394
54948	-9.607919	-1.030105	-1.595488	0.016185	0.056877	-0.019052	0.356440	0.588011	0.480473	-0.544371
54949	-9.638389	-1.040786	-1.591644	0.006412	0.049611	0.011396	0.356334	0.588082	0.480427	-0.544405
54950	-9.639457	-0.986308	-1.527786	0.038955	-0.026622	-0.003312	0.356356	0.588068	0.480419	-0.544412
54951	-9.618417	-0.974004	-1.718655	0.107464	0.153187	0.004715	0.356483	0.587979	0.480533	-0.544324
54952	-9.647952	-1.045267	-1.573261	-0.003595	0.032622	0.018368	0.356558	0.587953	0.480515	-0.544319
54953	-9.591925	-1.036148	-1.552057	-0.004348	0.021162	-0.040941	0.356570	0.587919	0.480510	-0.544353
54954	-9.630756	-1.068379	-1.641760	-0.005445	0.108531	0.014645	0.356614	0.587898	0.480503	-0.544352
54955	-9.613497	-1.129890	-1.662844	-0.058388	0.149239	0.007463	0.356462	0.588007	0.480411	-0.544415
54956	-9.589220	-1.070311	-1.777755	0.032421	0.243907	-0.004600	0.356418	0.588030	0.480363	-0.544461
54957	-9.605782	-0.978241	-1.602718	0.067509	0.048839	-0.025463	0.356359	0.588080	0.480403	-0.544412
54958	-9.612816	-0.953764	-1.467290	0.049555	-0.087992	-0.042394	0.356437	0.588025	0.480503	-0.544331
54959	-9.606909	-0.976928	-1.570054	0.057754	0.014406	-0.029609	0.356418	0.588076	0.480630	-0.544176
54960	-9.658341	-0.992575	-1.581267	0.048121	0.016797	0.024313	0.356378	0.588104	0.480770	-0.544049
54961	-9.670251	-1.046613	-1.642610	0.015734	0.085081	0.051381	0.356365	0.588100	0.480894	-0.543952
54962	-9.657395	-0.978200	-1.507934	0.039088	-0.060381	0.010288	0.356468	0.588014	0.481027	-0.543859
54963	-9.652843	-1.041860	-1.440042	-0.043012	-0.105149	0.001775	0.356673	0.587892	0.481195	-0.543708
54964	-9.607047	-1.121630	-1.584642	-0.078287	0.062639	-0.011950	0.356849	0.587766	0.481302	-0.543634
54965	-9.606380	-1.045305	-1.683296	0.023724	0.133107	-0.005016	0.356818	0.587801	0.481353	-0.543573
54966	-9.627187	-1.012487	-1.746162	0.074877	0.177910	0.021929	0.356866	0.587754	0.481425	-0.543528
54967	-9.629433	-0.991564	-1.717654	0.085831	0.144013	0.017440	0.356992	0.587671	0.481591	-0.543387
54968	-9.590527	-1.105117	-1.670235	-0.039100	0.139306	-0.016349	0.357081	0.587604	0.481616	-0.543379
54969	-9.612524	-1.090580	-1.689601	-0.018315	0.149382	0.006787	0.357050	0.587628	0.481641	-0.543351
54970	-9.561502	-1.093360	-1.639508	-0.039193	0.112119	-0.050943	0.357025	0.587692	0.481548	-0.543381
54971	-9.543020	-1.120685	-1.626080	-0.070538	0.110439	-0.068349	0.356837	0.587849	0.481415	-0.543452
54972	-9.662942	-1.072292	-1.664923	-0.006557	0.109256	0.050489	0.356668	0.587990	0.481374	-0.543447
54973	-9.684097	-1.003973	-1.658317	0.056509	0.077522	0.063066	0.356738	0.588015	0.481442	-0.543314
54974	-9.635730	-1.023339	-1.530871	-0.004318	-0.028858	-0.002629	0.356658	0.588107	0.481372	-0.543329
54975	-9.606908	-1.027187	-1.576984	0.004429	0.021152	-0.023192	0.356569	0.588172	0.481224	-0.543448
54976	-9.696061	-1.099106	-1.583933	-0.056506	0.032801	0.072969	0.356350	0.588323	0.481026	-0.543603
54977	-9.673279	-1.022303	-1.585135	0.015898	0.016080	0.042746	0.356401	0.588311	0.481025	-0.543584
54978	-9.621830	-1.036754	-1.730966	0.042931	0.167858	0.016896	0.356579	0.588219	0.481061	-0.543536
54979	-9.481385	-1.052713	-1.889568	0.067689	0.349340	-0.094215	0.356605	0.588242	0.480915	-0.543622
54980	-9.596403	-1.055812	-1.696249	0.011464	0.148698	-0.011631	0.356511	0.588365	0.480795	-0.543657
54981	-9.601578	-1.066583	-1.666992	-0.008763	0.122802	-0.010055	0.356562	0.588407	0.480815	-0.543561
54982	-9.594661	-1.077448	-1.608441	-0.038925	0.070417	-0.024990	0.356543	0.588474	0.480893	-0.543430
54983	-9.670639	-1.056954	-1.609066	-0.016547	0.049043	0.047577	0.356581	0.588478	0.480980	-0.543325
54984	-9.665969	-1.025200	-1.646632	0.024142	0.075291	0.045666	0.356527	0.588542	0.480898	-0.543363
54985	-9.667487	-0.920224	-1.434946	0.059818	-0.154630	0.002541	0.356311	0.588699	0.480742	-0.543474
54986	-9.642687	-0.917747	-1.494286	0.078832	-0.095699	-0.012627	0.356450	0.588617	0.480870	-0.543358
54987	-9.644733	-0.857985	-1.514301	0.140915	-0.094286	-0.013638	0.356739	0.588426	0.481084	-0.543186
54988	-9.658665	-0.952164	-1.887709	0.164280	0.282947	0.069257	0.357036	0.588208	0.481242	-0.543086
54989	-9.622008	-1.047981	-1.724694	0.021145	0.166673	0.017249	0.357273	0.588056	0.481305	-0.543039
54990	-9.482827	-1.104907	-1.714326	-0.043999	0.200901	-0.115191	0.357513	0.587873	0.481450	-0.542951
54991	-9.564884	-1.133841	-1.633044	-0.092764	0.118331	-0.044534	0.357832	0.587649	0.481767	-0.542701
54992	-9.579788	-1.180506	-1.741150	-0.105245	0.229856	-0.007912	0.357913	0.587622	0.481869	-0.542587
54993	-9.618341	-1.139256	-1.811076	-0.043534	0.275892	0.036799	0.357790	0.587725	0.481783	-0.542633
54994	-9.630667	-1.105004	-1.770611	-0.021650	0.225693	0.038933	0.357540	0.587891	0.481532	-0.542841
54995	-9.625528	-1.078804	-1.721316	-0.010386	0.174364	0.023319	0.357408	0.587966	0.481290	-0.543061
54996	-9.642906	-1.002309	-1.620597	0.033712	0.056521	0.016467	0.357353	0.588022	0.481146	-0.543164
54997	-9.635522	-0.995260	-1.600822	0.033875	0.039016	0.005346	0.357327	0.588088	0.480969	-0.543266
54998	-9.636130	-0.937078	-1.655081	0.105527	0.074919	0.008497	0.357216	0.588192	0.480766	-0.543407
54999	-9.617289	-0.961661	-1.759160	0.113190	0.185212	0.008950	0.357086	0.588296	0.480496	-0.543618
55000	-9.634776	-0.957874	-1.678761	0.094296	0.108633	0.012992	0.356978	0.588367	0.480189	-0.543884
55001	-9.581214	-0.985714	-1.569466	0.032978	0.027555	-0.053965	0.356907	0.588410	0.479938	-0.544106
55002	-9.628937	-0.954462	-1.533377	0.055388	-0.020851	-0.015996	0.356776	0.588472	0.479695	-0.544338
55003	-9.606334	-0.951569	-1.553733	0.064683	0.003821	-0.035314	0.356641	0.588533	0.479500	-0.544533
55004	-9.603772	-0.992846	-1.573452	0.032730	0.037175	-0.030486	0.356665	0.588473	0.479422	-0.544652
55005	-9.668838	-0.916038	-1.594399	0.116714	0.025193	0.028725	0.356725	0.588382	0.479388	-0.544739
55006	-9.641897	-0.953941	-1.672891	0.103890	0.117433	0.018394	0.357020	0.588147	0.479546	-0.544661
55007	-9.636325	-1.018759	-1.636956	0.031379	0.106934	0.014003	0.357212	0.587956	0.479571	-0.544719
55008	-9.582874	-1.135284	-1.627016	-0.084263	0.144261	-0.028025	0.357305	0.587852	0.479562	-0.544778
55009	-9.560490	-1.242587	-1.620398	-0.188979	0.174854	-0.039950	0.357430	0.587731	0.479670	-0.544732
55010	-9.628061	-1.233212	-1.712444	-0.148150	0.247523	0.039704	0.357609	0.587558	0.479806	-0.544681
55011	-9.648943	-1.111853	-1.674385	-0.042754	0.174000	0.041742	0.357595	0.587562	0.479731	-0.544752
55012	-9.619363	-1.155077	-1.705088	-0.075542	0.222970	0.021856	0.357526	0.587616	0.479496	-0.544946
55013	-9.677105	-1.182253	-1.679112	-0.105266	0.199419	0.077341	0.357379	0.587722	0.479190	-0.545197
55014	-9.588695	-1.113918	-1.548904	-0.083416	0.075749	-0.036682	0.357266	0.587776	0.478978	-0.545399
55015	-9.603042	-1.091193	-1.667282	-0.023485	0.180317	-0.006777	0.357094	0.587886	0.478698	-0.545639
55016	-9.566852	-1.051563	-1.742603	0.036482	0.248222	-0.034950	0.356944	0.588008	0.478429	-0.545842
55017	-9.591510	-1.053696	-1.682110	0.017275	0.189032	-0.019792	0.356759	0.588201	0.478163	-0.545987
55018	-9.623154	-1.044156	-1.682277	0.028178	0.182269	0.010316	0.356543	0.588389	0.477815	-0.546231
55019	-9.615710	-1.039991	-1.543300	-0.010633	0.052716	-0.018692	0.356230	0.588631	0.477533	-0.546421
55020	-9.613419	-0.952911	-1.481158	0.053192	-0.031410	-0.039465	0.355987	0.588815	0.477310	-0.546576
55021	-9.679734	-0.911770	-1.419983	0.076704	-0.112976	0.012092	0.355908	0.588902	0.477214	-0.546617
55022	-9.666881	-0.929540	-1.501681	0.084938	-0.028050	0.013791	0.355853	0.588913	0.477099	-0.546742
55023	-9.629698	-0.910060	-1.571971	0.124251	0.039332	-0.014045	0.355727	0.588990	0.477009	-0.546820
55024	-9.637585	-0.918908	-1.470947	0.084986	-0.055159	-0.020810	0.355611	0.589083	0.476981	-0.546820
55025	-9.685960	-0.885907	-1.403555	0.097936	-0.137944	0.012993	0.355688	0.588992	0.477115	-0.546751
55026	-9.695333	-0.890881	-1.385409	0.088078	-0.154883	0.019951	0.355837	0.588891	0.477195	-0.546693
55027	-9.627861	-1.006519	-1.501832	0.011021	0.002221	-0.016557	0.356013	0.588745	0.477279	-0.546662
55028	-9.639488	-1.025826	-1.524247	0.000208	0.028157	0.000293	0.356101	0.588682	0.477334	-0.546624
55029	-9.646104	-1.032974	-1.577024	0.009393	0.079900	0.015583	0.356409	0.588489	0.477487	-0.546497
55030	-9.616468	-1.110980	-1.679169	-0.035376	0.205471	0.010086	0.356524	0.588411	0.477560	-0.546442
55031	-9.628459	-1.170042	-1.531940	-0.136115	0.083909	0.005535	0.356475	0.588420	0.477436	-0.546574
55032	-9.570588	-1.053078	-1.574470	-0.013280	0.100977	-0.056986	0.356226	0.588542	0.477191	-0.546818
55033	-9.619733	-0.999154	-1.631463	0.059247	0.130790	-0.005617	0.356201	0.588575	0.477107	-0.546873
55034	-9.651946	-0.969592	-1.639278	0.090972	0.124584	0.024162	0.356267	0.588570	0.477076	-0.546862
55035	-9.654446	-0.986837	-1.440788	0.012121	-0.056617	-0.001740	0.356323	0.588557	0.477121	-0.546799
55036	-9.645915	-0.997324	-1.535613	0.030578	0.037345	0.005363	0.356437	0.588493	0.477156	-0.546765
55037	-9.666924	-1.059171	-1.491193	-0.041037	0.011017	0.025662	0.356392	0.588525	0.477101	-0.546807
55038	-9.623543	-0.994953	-1.436940	0.000973	-0.049975	-0.031848	0.356512	0.588433	0.477088	-0.546839
55039	-9.629596	-1.021446	-1.482651	-0.010546	0.001285	-0.016228	0.356826	0.588256	0.477302	-0.546638
55040	-9.624155	-1.027779	-1.505536	-0.011228	0.026624	-0.017459	0.357171	0.588021	0.477541	-0.546456
55041	-9.621375	-0.992356	-1.625922	0.058742	0.130673	-0.005612	0.357414	0.587813	0.477769	-0.546322
55042	-9.632290	-1.030993	-1.642287	0.027226	0.156071	0.011567	0.357680	0.587617	0.477996	-0.546160
55043	-9.626846	-1.040318	-1.544981	-0.012396	0.069397	-0.007565	0.357912	0.587444	0.478135	-0.546073
55044	-9.587281	-1.059049	-1.637457	-0.005016	0.170072	-0.030568	0.358233	0.587253	0.478338	-0.545890
55045	-9.646909	-1.098445	-1.655507	-0.035586	0.189361	0.034800	0.358533	0.587078	0.478510	-0.545731
55046	-9.580513	-1.154590	-1.829332	-0.041020	0.382341	0.001480	0.358865	0.586853	0.478712	-0.545578
55047	-9.584767	-1.076164	-1.700099	-0.006697	0.238116	-0.021902	0.359072	0.586711	0.478901	-0.545428
55048	-9.590820	-1.140770	-1.697295	-0.069143	0.253950	-0.009794	0.359079	0.586715	0.478812	-0.545497
55049	-9.633937	-1.150600	-1.721150	-0.068848	0.273080	0.037168	0.358966	0.586824	0.478626	-0.545617
55050	-9.651177	-1.088720	-1.698641	-0.016067	0.232430	0.044373	0.358918	0.586895	0.478447	-0.545729
55051	-9.584480	-1.113418	-1.681922	-0.048397	0.236840	-0.021243	0.358866	0.586972	0.478327	-0.545786
55052	-9.610794	-1.056646	-1.642625	-0.005295	0.179325	-0.007082	0.358693	0.587143	0.478097	-0.545917
55053	-9.580735	-1.029055	-1.534336	-0.013818	0.075119	-0.055752	0.358424	0.587389	0.477781	-0.546105
55054	-9.684519	-0.915207	-1.386101	0.054206	-0.114654	0.012419	0.358290	0.587528	0.477519	-0.546274
55055	-9.640519	-0.996478	-1.527969	0.018572	0.053040	-0.001260	0.358259	0.587546	0.477290	-0.546474
55056	-9.658012	-1.008063	-1.526037	0.008380	0.053657	0.016821	0.358082	0.587691	0.477100	-0.546601
55057	-9.698394	-0.932201	-1.367661	0.033782	-0.123179	0.025099	0.358021	0.587777	0.476866	-0.546752
55058	-9.720355	-0.897936	-1.426778	0.084803	-0.078174	0.052097	0.358203	0.587718	0.476751	-0.546796
55059	-9.695507	-0.934953	-1.347908	0.023440	-0.132204	0.019699	0.358242	0.587718	0.476472	-0.547014
55060	-9.563638	-0.960788	-1.558716	0.057273	0.101200	-0.076037	0.358398	0.587619	0.476370	-0.547108
55061	-9.642514	-0.956461	-1.473925	0.039884	0.010637	-0.011481	0.358502	0.587495	0.476325	-0.547211
55062	-9.656525	-0.954619	-1.465552	0.040174	0.002791	0.000874	0.358612	0.587433	0.476288	-0.547238
55063	-9.641700	-0.958507	-1.384902	0.010374	-0.067013	-0.025223	0.358771	0.587344	0.476296	-0.547222
55064	-9.600941	-1.126691	-1.589950	-0.089418	0.184782	-0.018132	0.359037	0.587206	0.476359	-0.547141
55065	-9.628386	-1.084420	-1.627442	-0.037693	0.204455	0.010098	0.359189	0.587137	0.476430	-0.547054
55066	-9.615196	-1.084577	-1.631805	-0.038078	0.212383	-0.002258	0.359353	0.587037	0.476443	-0.547042
55067	-9.569620	-1.040887	-1.606401	-0.007158	0.185180	-0.055267	0.359419	0.587006	0.476418	-0.547053
55068	-9.642771	-1.118174	-1.568806	-0.088379	0.161168	0.018930	0.359300	0.587096	0.476266	-0.547167
55069	-9.619084	-1.061094	-1.563326	-0.036591	0.144104	-0.010923	0.359108	0.587261	0.476008	-0.547341
55070	-9.648198	-0.999601	-1.571974	0.026384	0.129895	0.012813	0.358837	0.587487	0.475692	-0.547551
55071	-9.641119	-0.825730	-1.483732	0.163968	-0.003801	-0.024553	0.358515	0.587765	0.475417	-0.547703
55072	-9.628046	-0.845035	-1.447769	0.133278	-0.030891	-0.040755	0.358372	0.587924	0.475285	-0.547740
55073	-9.670075	-0.967453	-1.480670	0.029007	0.028435	0.017727	0.358342	0.587941	0.475303	-0.547726
55074	-9.654505	-1.027782	-1.466273	-0.033598	0.034674	0.006347	0.358405	0.587885	0.475423	-0.547640
55075	-9.671600	-0.947014	-1.453828	0.039999	-0.005313	0.013231	0.358394	0.587882	0.475515	-0.547571
55076	-9.640974	-0.789703	-1.383240	0.166295	-0.114834	-0.043117	0.358342	0.587882	0.475576	-0.547552
55077	-9.591975	-0.843794	-1.446488	0.132562	-0.032707	-0.076587	0.358360	0.587838	0.475736	-0.547448
55078	-9.611019	-0.795907	-1.589446	0.223398	0.081480	-0.041559	0.358413	0.587764	0.475988	-0.547275
55079	-9.685341	-0.965878	-1.379089	0.000571	-0.082643	0.017562	0.358379	0.587767	0.476255	-0.547061
55080	-9.694254	-1.007882	-1.435480	-0.021468	-0.023011	0.038911	0.358374	0.587732	0.476454	-0.546928
55081	-9.651585	-0.887054	-1.406716	0.082731	-0.082373	-0.019569	0.358275	0.587751	0.476661	-0.546792
55082	-9.632312	-0.879083	-1.446246	0.102331	-0.048690	-0.033474	0.358143	0.587786	0.476810	-0.546711
55083	-9.645405	-0.915050	-1.514731	0.090548	0.020068	-0.006722	0.358195	0.587697	0.477113	-0.546509
55084	-9.687029	-0.946088	-1.536014	0.070039	0.038712	0.040564	0.358244	0.587615	0.477343	-0.546364
55085	-9.643937	-0.972626	-1.583329	0.057671	0.095928	0.008002	0.358271	0.587538	0.477544	-0.546253
55086	-9.652676	-0.981436	-1.447164	0.009041	-0.033056	-0.002974	0.358245	0.587472	0.477698	-0.546207
55087	-9.606126	-1.158752	-1.642488	-0.101071	0.209623	-0.001267	0.358281	0.587413	0.477775	-0.546178
55088	-9.588362	-1.241424	-1.656490	-0.174779	0.249620	-0.008152	0.357878	0.587655	0.477496	-0.546428
55089	-9.561673	-1.134562	-1.662189	-0.071110	0.225237	-0.044376	0.357427	0.587962	0.477359	-0.546512
55090	-9.666539	-1.035930	-1.681293	0.034842	0.190356	0.051613	0.357018	0.588243	0.477281	-0.546544
55091	-9.680955	-0.906795	-1.560033	0.121572	0.030951	0.034197	0.356771	0.588382	0.477294	-0.546546
55092	-9.669061	-0.928588	-1.370085	0.042591	-0.142470	-0.004118	0.356544	0.588487	0.477309	-0.546568
55093	-9.710696	-0.996368	-1.460787	0.009934	-0.047267	0.057568	0.356407	0.588517	0.477348	-0.546590
55094	-9.719786	-1.076774	-1.464533	-0.063010	-0.023029	0.075388	0.356269	0.588529	0.477356	-0.546660
55095	-9.678195	-1.102444	-1.474184	-0.084980	-0.000034	0.038649	0.356279	0.588459	0.477474	-0.546627
55096	-9.651995	-1.066237	-1.619103	-0.005596	0.128754	0.031233	0.356135	0.588495	0.477460	-0.546693
55097	-9.614378	-0.975002	-1.670147	0.096662	0.155043	-0.007438	0.355976	0.588530	0.477443	-0.546774
55098	-9.624706	-0.943326	-1.666625	0.128189	0.139168	-0.001130	0.355828	0.588548	0.477457	-0.546839
55099	-9.678605	-0.940251	-1.645516	0.129782	0.107654	0.048285	0.355630	0.588584	0.477424	-0.546958
55100	-9.612709	-0.965459	-1.713013	0.126677	0.189767	-0.003577	0.355391	0.588605	0.477318	-0.547183
55101	-9.497497	-0.972183	-1.702462	0.114283	0.200849	-0.117711	0.355141	0.588669	0.477357	-0.547242
55102	-9.592986	-0.927011	-1.681113	0.158441	0.146943	-0.031881	0.354710	0.588863	0.477245	-0.547411
55103	-9.656671	-0.910391	-1.650013	0.170846	0.099120	0.024163	0.354445	0.588955	0.477129	-0.547585
55104	-9.610860	-1.053893	-1.617229	0.024624	0.118802	-0.010645	0.354179	0.589070	0.476987	-0.547756
55105	-9.576697	-1.107746	-1.516462	-0.057127	0.046671	-0.053874	0.354002	0.589067	0.476902	-0.547948
55106	-9.553962	-1.035706	-1.397892	-0.023460	-0.081781	-0.101986	0.353650	0.589137	0.476748	-0.548234
55107	-9.640265	-0.896260	-1.293661	0.085127	-0.237199	-0.048056	0.353253	0.589235	0.476556	-0.548552
55108	-9.735024	-1.000949	-1.224296	-0.026078	-0.286620	0.045744	0.352877	0.589331	0.476270	-0.548938
55109	-9.773913	-1.184885	-1.350674	-0.153781	-0.117005	0.123122	0.352651	0.589375	0.476017	-0.549255
55110	-9.676044	-1.383342	-1.565935	-0.275966	0.165562	0.081151	0.352792	0.589223	0.476005	-0.549339
55111	-9.546236	-1.261678	-1.665037	-0.135044	0.247972	-0.044624	0.352890	0.589088	0.475949	-0.549469
55112	-9.646250	-1.172674	-1.495879	-0.097649	0.048775	0.018439	0.352829	0.589104	0.475711	-0.549697
55113	-9.738460	-1.258721	-1.536554	-0.159668	0.103005	0.124458	0.352830	0.589116	0.475261	-0.550074
55114	-9.772782	-1.392464	-1.653764	-0.245697	0.256293	0.190067	0.352821	0.589156	0.474769	-0.550461
55115	-9.530526	-1.271005	-1.703172	-0.126766	0.315514	-0.054022	0.352840	0.589083	0.474483	-0.550773
55116	-9.364593	-1.075317	-1.690745	0.047538	0.277363	-0.240262	0.352769	0.589041	0.474356	-0.550973
55117	-9.600606	-1.043797	-1.573430	0.054971	0.118253	-0.029036	0.352489	0.589196	0.474111	-0.551198
55118	-9.713749	-1.153872	-1.468794	-0.075935	0.035060	0.078657	0.352428	0.589294	0.473986	-0.551239
55119	-9.721870	-1.122287	-1.537282	-0.025413	0.087894	0.093329	0.352596	0.589284	0.474065	-0.551075
55120	-9.554468	-1.071740	-1.724770	0.070733	0.278430	-0.049041	0.353013	0.589070	0.474192	-0.550927
55121	-9.321529	-1.190897	-1.778420	-0.039594	0.409212	-0.257433	0.353308	0.588912	0.474247	-0.550859
55122	-9.518738	-1.377578	-1.580312	-0.270817	0.250693	-0.072806	0.353444	0.588947	0.474031	-0.550921
55123	-9.652256	-1.620433	-1.484531	-0.526736	0.216507	0.070195	0.353338	0.589241	0.473578	-0.551064
55124	-9.628568	-1.634907	-1.655696	-0.489869	0.387019	0.073354	0.352982	0.589716	0.473077	-0.551214
55125	-9.608301	-1.275802	-1.710777	-0.136728	0.326693	0.023392	0.352250	0.590438	0.472663	-0.551265
55126	-9.577123	-0.803145	-1.579297	0.262870	0.053395	-0.076746	0.351599	0.591029	0.472382	-0.551288
55127	-9.562810	-0.712151	-1.580065	0.346277	0.020665	-0.100285	0.351124	0.591492	0.472133	-0.551308
55128	-9.706947	-0.736785	-1.463133	0.289616	-0.110378	0.026640	0.350925	0.591796	0.471922	-0.551288
55129	-9.761368	-0.837154	-1.413092	0.177191	-0.136215	0.083373	0.351124	0.591872	0.471914	-0.551087
55130	-9.716145	-0.937314	-1.549866	0.120558	0.030974	0.070057	0.351558	0.591706	0.472193	-0.550749
55131	-9.603222	-0.954401	-1.822060	0.184356	0.308926	0.001753	0.351710	0.591650	0.472436	-0.550504
55132	-9.625050	-0.810775	-1.762956	0.301136	0.201908	-0.000679	0.351481	0.591780	0.472431	-0.550515
55133	-9.525429	-0.792751	-1.839299	0.338928	0.283362	-0.088999	0.351304	0.591895	0.472259	-0.550651
55134	-9.560985	-0.906715	-1.814381	0.225361	0.290665	-0.045841	0.351195	0.592034	0.471982	-0.550809
55135	-9.506826	-1.097538	-1.856144	0.056056	0.403153	-0.072876	0.351185	0.592110	0.471595	-0.551066
55136	-9.435820	-1.277391	-1.896499	-0.103253	0.515039	-0.117988	0.351062	0.592193	0.471254	-0.551346
55137	-9.475840	-1.349063	-1.812056	-0.194376	0.454750	-0.083840	0.350724	0.592377	0.470925	-0.551644
55138	-9.607465	-1.359277	-1.702652	-0.230717	0.332142	0.030407	0.350183	0.592707	0.470639	-0.551877
55139	-9.743850	-1.251003	-1.604584	-0.152328	0.178524	0.138555	0.349635	0.593082	0.470385	-0.552039
55140	-9.742252	-1.197394	-1.462180	-0.148681	0.024734	0.110038	0.349144	0.593466	0.470120	-0.552163
55141	-9.726447	-1.127029	-1.369053	-0.115149	-0.086278	0.073039	0.348746	0.593841	0.469929	-0.552173
55142	-9.703452	-1.067298	-1.335657	-0.072834	-0.137575	0.039006	0.348211	0.594312	0.469626	-0.552262
55143	-9.676406	-0.938090	-1.151487	-0.016217	-0.351128	-0.029272	0.347656	0.594801	0.469312	-0.552354
55144	-9.728183	-0.878279	-1.024470	-0.001311	-0.502012	-0.004199	0.347171	0.595161	0.468998	-0.552536
55145	-9.681180	-0.856966	-1.115125	0.047570	-0.417607	-0.038922	0.346778	0.595420	0.468608	-0.552835
55146	-9.727601	-0.903180	-1.340169	0.084269	-0.200742	0.045843	0.346419	0.595660	0.468170	-0.553172
55147	-9.722522	-0.947771	-1.310113	0.032579	-0.210907	0.041071	0.346120	0.595921	0.467711	-0.553467
55148	-9.623583	-0.980578	-1.205756	-0.039865	-0.277579	-0.068453	0.346087	0.596055	0.467536	-0.553492
55149	-9.577378	-0.899832	-1.235745	0.041932	-0.269157	-0.117909	0.345927	0.596250	0.467465	-0.553442
55150	-9.680553	-0.799047	-1.089887	0.089641	-0.459381	-0.049473	0.345957	0.596279	0.467648	-0.553236
55151	-9.712775	-0.847085	-1.324772	0.126084	-0.234747	0.022941	0.346212	0.596049	0.468080	-0.552958
55152	-9.731158	-0.823358	-1.545667	0.225151	-0.043336	0.072143	0.346455	0.595794	0.468510	-0.552717
55153	-9.681109	-0.804738	-1.590286	0.254396	-0.002307	0.027829	0.346789	0.595604	0.469050	-0.552255
55154	-9.663920	-0.863332	-1.495308	0.162629	-0.073975	0.002643	0.347173	0.595442	0.469700	-0.551636
55155	-9.648103	-0.845282	-1.347698	0.124613	-0.221007	-0.037602	0.347675	0.595186	0.470487	-0.550925
55156	-9.704034	-0.944606	-1.265097	0.002698	-0.281298	0.014921	0.348281	0.594796	0.471221	-0.550335
55157	-9.701291	-1.058114	-1.511017	-0.024733	-0.017284	0.062378	0.349042	0.594260	0.471898	-0.549852
55158	-9.644344	-1.140680	-1.825566	-0.002924	0.313746	0.063991	0.349673	0.593774	0.472387	-0.549556
55159	-9.656640	-1.269117	-1.612332	-0.195585	0.155264	0.056386	0.350226	0.593421	0.472806	-0.549226
55160	-9.570952	-1.375141	-1.643290	-0.292183	0.233723	-0.011946	0.350662	0.593159	0.473118	-0.548961
55161	-9.557489	-1.171461	-1.667424	-0.094709	0.195526	-0.042783	0.350971	0.592967	0.473355	-0.548766
55162	-9.508543	-1.093596	-1.765318	0.006046	0.272635	-0.083848	0.351454	0.592688	0.473639	-0.548513
55163	-9.496078	-1.144560	-2.120062	0.069251	0.623987	-0.035877	0.351943	0.592403	0.473924	-0.548261
55164	-9.515488	-1.113327	-2.336758	0.168122	0.815505	0.013357	0.352053	0.592324	0.473902	-0.548296
55165	-9.581216	-1.128089	-2.133182	0.091279	0.620101	0.047835	0.352028	0.592410	0.473742	-0.548357
55166	-9.536089	-1.158789	-1.805090	-0.047116	0.332071	-0.044082	0.351894	0.592600	0.473531	-0.548419
55167	-9.546595	-1.198305	-1.617551	-0.146365	0.167396	-0.058691	0.351837	0.592753	0.473377	-0.548424
55168	-9.502161	-1.280951	-1.640644	-0.221022	0.222974	-0.090288	0.351792	0.592886	0.473220	-0.548445
55169	-9.558096	-1.196122	-1.769369	-0.098052	0.305830	-0.024151	0.351575	0.593139	0.473039	-0.548466
55170	-9.681358	-1.122812	-1.747243	-0.032247	0.236694	0.086059	0.351302	0.593478	0.472909	-0.548386
55171	-9.660067	-1.078678	-1.551094	-0.058594	0.038342	0.030149	0.351051	0.593814	0.472854	-0.548231
55172	-9.637835	-1.017371	-1.398410	-0.054759	-0.125002	-0.021884	0.350728	0.594186	0.472723	-0.548148
55173	-9.668738	-0.859292	-1.247752	0.043989	-0.325991	-0.031504	0.350539	0.594413	0.472727	-0.548019
55174	-9.737330	-0.811610	-1.239717	0.087412	-0.364234	0.029614	0.350649	0.594409	0.472851	-0.547846
55175	-9.658613	-0.851497	-1.474313	0.121324	-0.119457	-0.006645	0.350843	0.594291	0.473008	-0.547714
55176	-9.698289	-0.882550	-1.647582	0.148724	0.045544	0.062840	0.351086	0.594205	0.473072	-0.547597
55177	-9.643524	-0.942317	-1.730242	0.114073	0.152781	0.028191	0.351320	0.594157	0.473112	-0.547463
55178	-9.622270	-0.971233	-1.786641	0.101563	0.219705	0.019142	0.351455	0.594145	0.473097	-0.547402
55179	-9.511120	-1.005230	-1.771859	0.057810	0.238629	-0.088949	0.351594	0.594122	0.473026	-0.547400
55180	-9.501642	-1.110285	-1.792875	-0.037085	0.295294	-0.084391	0.351814	0.594077	0.472989	-0.547339
55181	-9.590008	-1.124686	-1.890665	-0.017146	0.376995	0.019168	0.351860	0.594141	0.472873	-0.547341
55182	-9.642402	-1.045045	-1.886134	0.056943	0.338813	0.061901	0.351801	0.594291	0.472753	-0.547320
55183	-9.639013	-1.049403	-1.755318	0.008172	0.217607	0.038482	0.351784	0.594393	0.472746	-0.547226
55184	-9.576125	-1.067265	-1.753565	-0.013997	0.230973	-0.021739	0.351735	0.594502	0.472754	-0.547132
55185	-9.598805	-0.976730	-1.720941	0.060442	0.165720	-0.013627	0.351651	0.594616	0.472762	-0.547055
55186	-9.615264	-1.006589	-1.715832	0.029421	0.165617	0.004762	0.351668	0.594711	0.472722	-0.546975
55187	-9.617093	-1.020183	-1.758492	0.028237	0.208366	0.014689	0.351559	0.594914	0.472565	-0.546960
55188	-9.648505	-0.971721	-1.692936	0.051591	0.124956	0.030363	0.351418	0.595155	0.472387	-0.546943
55189	-9.616346	-1.110765	-1.689371	-0.084682	0.170745	0.012055	0.351337	0.595346	0.472143	-0.546997
55190	-9.575447	-1.226593	-1.709219	-0.190630	0.234050	-0.013503	0.351058	0.595618	0.471767	-0.547205
55191	-9.560704	-1.156290	-1.611018	-0.156937	0.123000	-0.050532	0.350537	0.596042	0.471302	-0.547478
55192	-9.569339	-0.994694	-1.563434	-0.019680	0.024651	-0.065637	0.350003	0.596499	0.470805	-0.547749
55193	-9.637353	-0.892167	-1.612261	0.095359	0.022588	-0.001249	0.349537	0.596932	0.470438	-0.547891
55194	-9.673357	-0.818084	-1.653415	0.178527	0.026585	0.033342	0.349113	0.597372	0.470141	-0.547937
55195	-9.690480	-0.678832	-1.585188	0.285378	-0.089291	0.025484	0.348860	0.597662	0.470042	-0.547866
55196	-9.634221	-0.742777	-1.587827	0.221533	-0.059795	-0.022975	0.348845	0.597750	0.470115	-0.547716
55197	-9.654642	-0.748130	-1.519681	0.192452	-0.128057	-0.013310	0.348859	0.597817	0.470222	-0.547543
55198	-9.654717	-0.709066	-1.453390	0.204775	-0.204619	-0.027756	0.348999	0.597814	0.470378	-0.547323
55199	-9.660093	-0.829030	-1.513505	0.109156	-0.113108	-0.000925	0.349251	0.597734	0.470620	-0.547041
55200	-9.623211	-0.936912	-1.632762	0.042403	0.036884	-0.007243	0.349432	0.597723	0.470828	-0.546759
55201	-9.653240	-0.964097	-1.623830	0.011861	0.028964	0.023490	0.349531	0.597745	0.471001	-0.546522
55202	-9.604938	-1.016524	-1.567226	-0.060682	-0.001224	-0.027972	0.349683	0.597694	0.471269	-0.546250
55203	-9.651426	-1.000787	-1.616366	-0.029779	0.027530	0.024110	0.349858	0.597601	0.471586	-0.545966
55204	-9.679695	-0.919607	-1.638763	0.053781	0.014081	0.047568	0.350005	0.597507	0.471884	-0.545718
55205	-9.618739	-0.841453	-1.673718	0.135239	0.030456	-0.014203	0.350209	0.597383	0.472200	-0.545449
55206	-9.582453	-0.799596	-1.803682	0.214446	0.142067	-0.032613	0.350440	0.597210	0.472618	-0.545128
55207	-9.620507	-0.796890	-1.828469	0.225148	0.152693	0.008641	0.350698	0.597009	0.473195	-0.544681
55208	-9.601101	-0.841922	-1.896415	0.202056	0.227938	0.005335	0.350992	0.596776	0.473830	-0.544196
55209	-9.555025	-0.853435	-1.905240	0.190575	0.242410	-0.037120	0.351291	0.596505	0.474511	-0.543706
55210	-9.574584	-0.878520	-1.917077	0.169725	0.251334	-0.013317	0.351629	0.596224	0.475222	-0.543174
55211	-9.702643	-0.912120	-1.796728	0.102735	0.118847	0.095733	0.352008	0.595911	0.475969	-0.542618
55212	-9.646211	-0.961809	-1.641099	0.001561	-0.006607	0.019282	0.352529	0.595528	0.476783	-0.541985
55213	-9.546163	-0.962521	-1.593954	-0.020043	-0.037851	-0.086716	0.352966	0.595146	0.477636	-0.541369
55214	-9.553352	-0.932096	-1.632444	0.020922	-0.019160	-0.076189	0.353291	0.594777	0.478417	-0.540872
55215	-9.556775	-0.886579	-1.749259	0.101435	0.068750	-0.057543	0.353597	0.594393	0.479258	-0.540349
55216	-9.606386	-0.918350	-1.925940	0.129011	0.225946	0.024363	0.353836	0.594039	0.480123	-0.539814
55217	-9.735342	-0.894936	-1.912461	0.153099	0.173165	0.146322	0.354073	0.593726	0.480910	-0.539302
55218	-9.737036	-0.955899	-1.742404	0.043221	0.024692	0.124973	0.354408	0.593369	0.481626	-0.538837
55219	-9.697860	-1.040280	-1.579038	-0.088604	-0.100900	0.066888	0.354874	0.592937	0.482346	-0.538362
55220	-9.742436	-1.034231	-1.495357	-0.106328	-0.193307	0.095496	0.355355	0.592486	0.483057	-0.537903
55221	-9.664175	-0.964541	-1.519496	-0.035535	-0.178086	0.015970	0.355903	0.591957	0.483781	-0.537473
55222	-9.557219	-1.055543	-1.758074	-0.054906	0.089753	-0.038519	0.356353	0.591471	0.484555	-0.537012
55223	-9.551495	-0.983482	-1.897569	0.055971	0.195287	-0.027096	0.356548	0.591140	0.485348	-0.536530
55224	-9.600181	-0.910720	-1.934523	0.139513	0.191543	0.019866	0.356747	0.590822	0.486159	-0.536014
55225	-9.674041	-0.883440	-1.814837	0.134101	0.049628	0.068644	0.357151	0.590407	0.486972	-0.535463
55226	-9.678922	-0.920372	-1.697495	0.064440	-0.054810	0.056606	0.357817	0.589821	0.487738	-0.534968
55227	-9.682112	-0.981863	-1.522366	-0.045471	-0.203284	0.035234	0.358566	0.589213	0.488442	-0.534494
55228	-9.576936	-1.139763	-1.452522	-0.223146	-0.205215	-0.064114	0.359271	0.588714	0.489085	-0.533982
55229	-9.532831	-1.264001	-1.641712	-0.292093	0.012978	-0.061672	0.359427	0.588581	0.489460	-0.533679
55230	-9.622020	-1.166531	-1.700667	-0.177091	0.020674	0.026242	0.359187	0.588654	0.489526	-0.533701
55231	-9.672074	-1.093062	-1.730926	-0.093384	0.016961	0.073207	0.359035	0.588660	0.489551	-0.533773
55232	-9.680805	-1.089306	-1.881150	-0.045468	0.155567	0.107848	0.359050	0.588645	0.489524	-0.533804
55233	-9.721748	-1.056645	-1.745756	-0.051235	0.011907	0.120780	0.359083	0.588692	0.489448	-0.533799
55234	-9.649295	-1.087865	-1.751198	-0.084375	0.041502	0.053933	0.359192	0.588671	0.489358	-0.533832
55235	-9.486195	-1.208307	-1.868117	-0.174762	0.218919	-0.073114	0.359149	0.588734	0.489164	-0.533969
55236	-9.448137	-1.240340	-1.964508	-0.178457	0.328111	-0.090264	0.358666	0.589089	0.488631	-0.534390
55237	-9.513648	-1.151070	-1.907583	-0.102543	0.239303	-0.045111	0.357869	0.589633	0.487816	-0.535069
55238	-9.548807	-1.032622	-1.861933	0.003691	0.158609	-0.030682	0.357090	0.590154	0.487075	-0.535689
55239	-9.654997	-0.992267	-1.821043	0.038300	0.087717	0.062058	0.356455	0.590651	0.486529	-0.536060
55240	-9.583788	-0.919178	-1.735345	0.081020	-0.000083	-0.030115	0.356065	0.590933	0.486169	-0.536336
55241	-9.596153	-0.904877	-1.688230	0.082553	-0.050899	-0.027716	0.355944	0.590996	0.486075	-0.536432
55242	-9.594081	-0.853448	-1.693672	0.134393	-0.058112	-0.034045	0.356049	0.590851	0.486063	-0.536532
55243	-9.625398	-0.859863	-1.768037	0.153559	0.012231	0.010239	0.356233	0.590640	0.485974	-0.536723
55244	-9.493055	-1.082121	-1.972220	-0.001546	0.300322	-0.061353	0.356178	0.590590	0.485511	-0.537233
55245	-9.521419	-1.101252	-1.946149	-0.021438	0.283761	-0.036355	0.355840	0.590703	0.484956	-0.537834
55246	-9.674623	-0.988863	-1.621883	0.001198	-0.076053	0.046364	0.355628	0.590754	0.484547	-0.538287
55247	-9.657078	-0.964870	-1.572726	0.012555	-0.119509	0.018343	0.355779	0.590479	0.484509	-0.538523
55248	-9.669741	-0.943652	-1.689300	0.071831	-0.014637	0.048485	0.355898	0.590213	0.484714	-0.538551
55249	-9.619459	-0.860547	-1.951662	0.230077	0.218462	0.035300	0.355833	0.590109	0.484813	-0.538620
55250	-9.537317	-0.868175	-2.066528	0.256205	0.343375	-0.024882	0.355487	0.590257	0.484652	-0.538830
55251	-9.652583	-0.952442	-2.225972	0.232773	0.493601	0.123943	0.354927	0.590609	0.484199	-0.539221
55252	-9.716725	-0.916337	-1.822025	0.151761	0.092370	0.114176	0.354611	0.590832	0.483792	-0.539549
55253	-9.794058	-0.975240	-1.257492	-0.070263	-0.432332	0.100138	0.355074	0.590523	0.483992	-0.539404
55254	-9.514093	-1.203773	-1.157927	-0.334279	-0.402827	-0.167283	0.356074	0.589936	0.484588	-0.538852
55255	-9.528177	-1.328597	-1.529099	-0.345244	-0.017887	-0.077701	0.356425	0.589761	0.484626	-0.538777
55256	-9.629693	-1.084438	-1.604100	-0.084517	-0.030833	0.009331	0.356046	0.589989	0.483990	-0.539349
55257	-9.676541	-0.925648	-1.634147	0.082275	-0.049254	0.043960	0.355521	0.590279	0.483116	-0.540162
55258	-9.498739	-1.018514	-1.833089	0.051415	0.206033	-0.087538	0.354690	0.590743	0.482064	-0.541139
55259	-9.559071	-0.859627	-1.943942	0.247489	0.257474	-0.026669	0.353578	0.591375	0.480971	-0.542148
55260	-9.528602	-0.743318	-2.056484	0.399982	0.337421	-0.050410	0.352774	0.591735	0.480200	-0.542962
55261	-9.461761	-0.736677	-2.084483	0.418431	0.377421	-0.112422	0.352650	0.591643	0.480072	-0.543257
55262	-9.376153	-1.084855	-2.131357	0.101464	0.543025	-0.152114	0.352933	0.591294	0.480418	-0.543147
55263	-9.416880	-1.179214	-1.926139	-0.048297	0.369345	-0.135940	0.352879	0.591228	0.480705	-0.542999
55264	-9.640671	-1.099400	-1.677135	-0.036124	0.064238	0.034067	0.352322	0.591501	0.480685	-0.543081
55265	-9.661992	-1.054360	-1.632277	-0.002878	-0.002208	0.042772	0.351823	0.591711	0.480700	-0.543163
55266	-9.679072	-1.154289	-1.867808	-0.020032	0.237393	0.109448	0.351410	0.591859	0.480848	-0.543138
55267	-9.780730	-1.193295	-1.807259	-0.068160	0.163810	0.203366	0.350990	0.592048	0.481091	-0.542989
55268	-9.852417	-1.075390	-1.712991	0.019982	0.015956	0.245158	0.350605	0.592181	0.481432	-0.542790
55269	-9.912242	-1.135742	-1.747875	-0.021331	0.043195	0.316240	0.350294	0.592278	0.481882	-0.542485
55270	-9.993982	-1.159743	-1.895537	0.007499	0.159160	0.424125	0.349884	0.592466	0.482304	-0.542170
55271	-9.938510	-0.865462	-1.638153	0.202878	-0.171040	0.293555	0.349928	0.592443	0.482984	-0.541561
55272	-9.809544	-0.764491	-1.417746	0.217800	-0.390649	0.118151	0.350963	0.591965	0.484071	-0.540441
55273	-9.748543	-1.041443	-1.521143	-0.026949	-0.204646	0.106484	0.352312	0.591342	0.485066	-0.539353
55274	-9.593832	-1.391598	-1.432484	-0.403663	-0.155588	-0.022743	0.353103	0.590984	0.485448	-0.538884
55275	-9.349355	-1.499092	-1.207829	-0.589856	-0.284648	-0.289683	0.353525	0.590724	0.485620	-0.538738
55276	-9.301657	-1.526533	-1.321343	-0.584020	-0.158767	-0.313698	0.353398	0.590738	0.485498	-0.538915
55277	-9.327208	-1.478764	-1.609767	-0.446204	0.094619	-0.243631	0.352512	0.591224	0.484799	-0.539591
55278	-9.396669	-1.283434	-1.805852	-0.189669	0.208416	-0.162492	0.351089	0.592077	0.483732	-0.540541
55279	-9.497091	-0.973788	-1.952361	0.163181	0.232761	-0.072364	0.349842	0.592804	0.482878	-0.541316
55280	-9.509681	-0.815185	-1.950386	0.320332	0.178388	-0.077795	0.349097	0.593209	0.482405	-0.541774
55281	-9.467874	-0.820918	-2.050245	0.347752	0.279666	-0.100896	0.348873	0.593295	0.482311	-0.541909
55282	-9.487728	-0.898838	-2.167590	0.313024	0.407812	-0.052614	0.348803	0.593331	0.482281	-0.541941
55283	-9.464788	-1.005790	-2.159897	0.208120	0.437582	-0.064653	0.348776	0.593393	0.482135	-0.542020
55284	-9.511820	-1.120533	-2.166222	0.104129	0.470729	-0.005016	0.348659	0.593487	0.481847	-0.542249
55285	-9.452977	-1.228264	-2.098828	-0.020665	0.455329	-0.062572	0.348452	0.593637	0.481438	-0.542581
55286	-9.327760	-1.339000	-2.104635	-0.128216	0.522783	-0.172160	0.348270	0.593763	0.481065	-0.542890
55287	-9.249608	-1.468061	-2.274743	-0.198152	0.739085	-0.205430	0.347946	0.593973	0.480652	-0.543234
55288	-9.483138	-1.514406	-2.336649	-0.206066	0.767144	0.038825	0.347338	0.594313	0.480076	-0.543761
55289	-9.666237	-1.295314	-2.129911	-0.049595	0.473029	0.158485	0.346640	0.594685	0.479507	-0.544301
55290	-9.714662	-1.055738	-1.738290	0.057798	0.025491	0.112377	0.346100	0.595016	0.479060	-0.544677
55291	-9.478082	-0.892174	-1.613623	0.161460	-0.093832	-0.158728	0.345847	0.595243	0.478709	-0.544898
55292	-9.454284	-0.962280	-1.655235	0.107253	-0.028325	-0.167121	0.345576	0.595509	0.478397	-0.545053
55293	-9.764343	-1.128876	-1.890004	0.043154	0.181234	0.195018	0.345228	0.595702	0.478021	-0.545392
55294	-9.808082	-1.157170	-2.036830	0.070504	0.320984	0.265913	0.344772	0.595937	0.477441	-0.545932
55295	-9.611283	-1.046497	-1.954251	0.142081	0.253835	0.046643	0.344460	0.596111	0.476830	-0.546473
55296	-9.421480	-1.069636	-1.935171	0.107156	0.286244	-0.140052	0.344226	0.596283	0.476351	-0.546850
55297	-9.368031	-1.475964	-2.042516	-0.242930	0.528933	-0.129116	0.344092	0.596565	0.475865	-0.547050
55298	-9.597299	-1.253192	-1.796206	-0.104915	0.185184	0.029045	0.343478	0.597122	0.475355	-0.547271
55299	-9.714204	-1.045554	-1.796991	0.096254	0.094624	0.120585	0.343024	0.597508	0.474917	-0.547514
55300	-9.716093	-0.989144	-1.735573	0.129587	0.018789	0.105777	0.342659	0.597760	0.474560	-0.547778
55301	-9.659924	-1.109563	-1.757395	0.022940	0.089578	0.067856	0.342295	0.597970	0.474176	-0.548109
55302	-9.680956	-1.117908	-1.851900	0.051543	0.176979	0.105286	0.341636	0.598356	0.473556	-0.548634
55303	-9.599580	-1.057227	-1.861728	0.112219	0.183522	0.020390	0.340885	0.598833	0.472807	-0.549226
55304	-9.520300	-0.992015	-1.837131	0.163626	0.155667	-0.068753	0.340342	0.599281	0.472210	-0.549588
55305	-9.560963	-0.988186	-1.822969	0.164853	0.131986	-0.031730	0.339835	0.599689	0.471818	-0.549794
55306	-9.556309	-0.884866	-1.678369	0.211360	-0.037775	-0.072213	0.339382	0.600073	0.471489	-0.549937
55307	-9.449079	-0.821598	-1.668347	0.261898	-0.049861	-0.186036	0.338952	0.600403	0.471181	-0.550106
55308	-9.492791	-0.831714	-1.743951	0.281231	0.012717	-0.129354	0.338598	0.600674	0.470866	-0.550297
55309	-9.603358	-0.890640	-1.769795	0.240651	0.033800	-0.010094	0.338260	0.600964	0.470484	-0.550515
55310	-9.594160	-1.013654	-1.661818	0.086811	-0.022978	-0.023460	0.338056	0.601185	0.470249	-0.550601
55311	-9.568543	-1.031192	-1.546625	0.027215	-0.120240	-0.066035	0.337841	0.601432	0.470152	-0.550545
55312	-9.597804	-1.004944	-1.514199	0.039447	-0.169745	-0.045898	0.337761	0.601567	0.470352	-0.550276
55313	-9.689141	-1.016749	-1.597709	0.059655	-0.113361	0.058963	0.337825	0.601564	0.470710	-0.549934
55314	-9.779258	-1.012351	-1.640009	0.081166	-0.099755	0.153849	0.337919	0.601488	0.471109	-0.549618
55315	-9.781891	-1.027052	-1.648967	0.070506	-0.091417	0.159573	0.337984	0.601372	0.471393	-0.549461
55316	-9.673168	-1.077372	-1.639445	0.016229	-0.064217	0.057181	0.337988	0.601270	0.471598	-0.549394
55317	-9.581529	-1.085050	-1.604168	-0.005460	-0.077898	-0.037705	0.337964	0.601150	0.471806	-0.549362
55318	-9.490641	-1.165082	-1.717545	-0.042531	0.070456	-0.098118	0.338058	0.600935	0.472023	-0.549353
55319	-9.482235	-1.289065	-1.824425	-0.119683	0.212894	-0.073933	0.338286	0.600674	0.472219	-0.549329
55320	-9.576357	-1.427545	-1.988951	-0.186166	0.394733	0.062026	0.338486	0.600465	0.472247	-0.549411
55321	-9.656998	-1.421122	-1.990304	-0.174407	0.381694	0.140323	0.338550	0.600372	0.472154	-0.549552
55322	-9.666714	-1.353727	-1.818216	-0.168757	0.202469	0.112753	0.338544	0.600315	0.472003	-0.549748
55323	-9.646927	-1.256290	-1.875903	-0.056053	0.230590	0.092067	0.338414	0.600329	0.471800	-0.549988
55324	-9.554257	-1.119808	-2.005103	0.115654	0.325627	0.007640	0.338155	0.600385	0.471506	-0.550337
55325	-9.563069	-1.092416	-2.118555	0.185180	0.422179	0.032180	0.337881	0.600501	0.471152	-0.550683
55326	-9.676899	-1.148491	-2.020092	0.106751	0.330738	0.133236	0.337658	0.600624	0.470789	-0.550995
55327	-9.580580	-1.107586	-1.892777	0.098358	0.223069	0.012659	0.337510	0.600655	0.470434	-0.551355
55328	-9.401165	-1.058882	-1.754402	0.088531	0.119952	-0.191937	0.337560	0.600603	0.470198	-0.551582
55329	-9.362695	-1.190241	-1.854945	0.000275	0.268943	-0.197844	0.337624	0.600549	0.470057	-0.551722
55330	-9.503848	-1.224343	-1.922675	0.000585	0.318329	-0.044500	0.337465	0.600619	0.469802	-0.551961
55331	-9.631858	-1.241354	-1.919761	-0.007373	0.298353	0.082263	0.337121	0.600787	0.469455	-0.552283
55332	-9.615886	-1.267173	-1.865502	-0.047955	0.261858	0.060520	0.336801	0.600898	0.469171	-0.552599
55333	-9.496885	-1.224746	-1.897172	0.000829	0.300512	-0.055650	0.336392	0.601076	0.468901	-0.552884
55334	-9.528023	-1.034761	-1.834250	0.160803	0.170455	-0.057509	0.336084	0.601161	0.468840	-0.553030
55335	-9.508423	-1.027931	-1.787414	0.151479	0.126311	-0.085268	0.335979	0.601187	0.468937	-0.552984
55336	-9.550817	-1.076388	-1.764289	0.100760	0.109448	-0.041950	0.335661	0.601395	0.468900	-0.552981
55337	-9.672693	-0.951593	-1.591172	0.161643	-0.122198	0.034001	0.335207	0.601707	0.468840	-0.552968
55338	-9.772067	-0.987711	-1.430195	0.074909	-0.282919	0.108435	0.335053	0.601837	0.468889	-0.552878
55339	-9.835246	-1.132359	-1.342973	-0.088617	-0.328265	0.172415	0.335138	0.601778	0.468990	-0.552806
55340	-9.780598	-1.156470	-1.268994	-0.139755	-0.375472	0.109377	0.335299	0.601621	0.468985	-0.552884
55341	-9.727621	-1.197599	-1.232034	-0.192191	-0.379903	0.056330	0.335536	0.601374	0.468947	-0.553041
55342	-9.701855	-1.238117	-1.350769	-0.186550	-0.244398	0.055897	0.335765	0.601151	0.468750	-0.553310
55343	-9.558017	-1.160365	-1.569350	-0.040047	-0.032711	-0.057570	0.335790	0.601020	0.468375	-0.553756
55344	-9.548239	-1.034588	-1.740088	0.142190	0.092491	-0.053673	0.335721	0.600937	0.467900	-0.554288
55345	-9.582302	-1.066067	-1.932818	0.188133	0.283610	0.014670	0.335819	0.600752	0.467554	-0.554722
55346	-9.560155	-1.159194	-2.038131	0.141565	0.426198	0.020551	0.336017	0.600521	0.467347	-0.555027
55347	-9.481029	-1.258829	-2.033057	0.045381	0.478843	-0.046597	0.336260	0.600265	0.467293	-0.555201
55348	-9.485312	-1.270517	-1.948753	0.006132	0.409133	-0.054841	0.336374	0.600120	0.467325	-0.555263
55349	-9.554445	-1.220656	-1.769971	-0.007348	0.215157	-0.021678	0.336432	0.600065	0.467443	-0.555187
55350	-9.559750	-1.154570	-1.640090	0.007673	0.070587	-0.045051	0.336528	0.599978	0.467667	-0.555034
55351	-9.507849	-1.118350	-1.558836	0.009512	-0.008800	-0.113218	0.336588	0.599911	0.467869	-0.554900
55352	-9.570493	-1.133996	-1.430871	-0.047638	-0.136031	-0.070670	0.336570	0.599898	0.468061	-0.554763
55353	-9.599383	-1.183115	-1.412121	-0.098665	-0.145037	-0.039703	0.336603	0.599860	0.468237	-0.554636
55354	-9.606011	-1.209764	-1.423740	-0.119901	-0.128428	-0.028253	0.336662	0.599871	0.468318	-0.554520
55355	-9.748055	-1.203011	-1.426310	-0.106722	-0.155633	0.110546	0.336743	0.599883	0.468244	-0.554519
55356	-9.853621	-1.268850	-1.469074	-0.148322	-0.109372	0.228629	0.336883	0.599848	0.467922	-0.554745
55357	-9.671570	-1.316308	-1.541058	-0.175789	0.017645	0.067372	0.337080	0.599719	0.467485	-0.555132
55358	-9.614060	-1.366306	-1.605958	-0.200665	0.116477	0.027139	0.337119	0.599691	0.466974	-0.555569
55359	-9.618958	-1.270058	-1.637281	-0.097242	0.120036	0.025718	0.337079	0.599659	0.466613	-0.555931
55360	-9.585926	-1.139812	-1.752436	0.065520	0.192353	-0.003564	0.337109	0.599617	0.466513	-0.556042
55361	-9.538935	-0.990517	-1.799940	0.220118	0.195302	-0.059452	0.337129	0.599569	0.466517	-0.556079
55362	-9.568382	-0.929363	-1.812829	0.282969	0.181680	-0.035626	0.337340	0.599457	0.466621	-0.555983
55363	-9.561307	-1.048856	-1.834312	0.177057	0.245983	-0.025372	0.337611	0.599375	0.466630	-0.555900
55364	-9.615663	-1.164332	-1.683470	0.015545	0.140289	0.017409	0.337889	0.599309	0.466539	-0.555878
55365	-9.569096	-1.301232	-1.590026	-0.150171	0.115105	-0.027332	0.338124	0.599238	0.466371	-0.555953
55366	-9.469174	-1.320011	-1.643913	-0.154302	0.195494	-0.114847	0.338243	0.599188	0.466153	-0.556117
55367	-9.443093	-1.269043	-1.709544	-0.083915	0.247862	-0.136090	0.338176	0.599211	0.465922	-0.556328
55368	-9.552530	-1.127935	-1.709870	0.054368	0.180854	-0.044829	0.338025	0.599303	0.465806	-0.556417
55369	-9.711223	-0.909568	-1.579042	0.219504	-0.045315	0.065486	0.338072	0.599249	0.465964	-0.556315
55370	-9.677993	-0.901002	-1.537106	0.209824	-0.081465	0.025371	0.338460	0.599013	0.466317	-0.556037
55371	-9.651847	-0.991940	-1.520552	0.115504	-0.060483	0.007555	0.338884	0.598797	0.466633	-0.555746
55372	-9.705712	-1.054623	-1.432093	0.025295	-0.129608	0.053747	0.339358	0.598572	0.466908	-0.555469
55373	-9.706720	-1.180145	-1.471524	-0.081095	-0.047939	0.075167	0.339873	0.598337	0.467070	-0.555271
55374	-9.645063	-1.363190	-1.571649	-0.222560	0.123562	0.050923	0.340202	0.598222	0.466893	-0.555341
55375	-9.586242	-1.428896	-1.549359	-0.296667	0.143709	-0.003017	0.340260	0.598319	0.466416	-0.555602
55376	-9.508096	-1.431173	-1.538628	-0.308619	0.156582	-0.081307	0.340211	0.598549	0.465818	-0.555886
55377	-9.540265	-1.362644	-1.511227	-0.254875	0.108616	-0.061764	0.339987	0.598869	0.465163	-0.556227
55378	-9.606845	-1.224558	-1.476238	-0.137133	0.021818	-0.017228	0.339736	0.599219	0.464559	-0.556507
55379	-9.648943	-1.122657	-1.449315	-0.051698	-0.041676	0.008644	0.339545	0.599490	0.464035	-0.556770
55380	-9.522661	-1.073510	-1.582773	0.035145	0.092094	-0.100379	0.339385	0.599668	0.463523	-0.557103
55381	-9.463087	-1.054260	-1.673893	0.082893	0.184854	-0.147163	0.339255	0.599838	0.463099	-0.557351
55382	-9.579986	-0.992635	-1.708616	0.157251	0.175832	-0.033874	0.339170	0.600008	0.462953	-0.557341
55383	-9.650147	-0.864702	-1.650071	0.255255	0.062901	0.012112	0.339354	0.600046	0.463147	-0.557026
55384	-9.659005	-0.865079	-1.637010	0.245618	0.045857	0.019001	0.339684	0.599996	0.463547	-0.556547
55385	-9.603995	-0.921530	-1.603928	0.172432	0.040589	-0.033774	0.340100	0.599921	0.464013	-0.555985
55386	-9.552016	-1.010457	-1.568123	0.067971	0.042905	-0.080546	0.340461	0.599864	0.464474	-0.555439
55387	-9.629935	-1.091822	-1.503811	-0.032886	-0.008283	-0.005138	0.340735	0.599839	0.464911	-0.554933
55388	-9.625576	-1.129672	-1.446377	-0.093567	-0.053304	-0.014306	0.340946	0.599822	0.465302	-0.554493
55389	-9.696030	-1.057847	-1.415873	-0.038374	-0.124947	0.042243	0.341141	0.599822	0.465698	-0.554041
55390	-9.737044	-1.012365	-1.423389	0.004284	-0.147152	0.078686	0.341419	0.599755	0.466168	-0.553547
55391	-9.654060	-0.965963	-1.435691	0.044353	-0.141144	-0.005889	0.341715	0.599645	0.466584	-0.553133
55392	-9.650825	-0.858879	-1.510616	0.167521	-0.111220	-0.008728	0.341955	0.599555	0.466932	-0.552788
55393	-9.691785	-0.852814	-1.582630	0.197209	-0.056957	0.042289	0.342247	0.599456	0.467219	-0.552473
55394	-9.719007	-0.920186	-1.592211	0.134544	-0.032344	0.077804	0.342609	0.599380	0.467511	-0.552084
55395	-9.754737	-0.954020	-1.550691	0.084357	-0.066698	0.109919	0.343061	0.599299	0.467711	-0.551722
55396	-9.779642	-0.965845	-1.484659	0.045268	-0.126847	0.125136	0.343615	0.599154	0.467881	-0.551390
55397	-9.683856	-1.049501	-1.572173	-0.012451	0.003183	0.053927	0.344255	0.598862	0.468122	-0.551103
55398	-9.543019	-1.091099	-1.721027	-0.010365	0.184651	-0.056283	0.344773	0.598612	0.468335	-0.550870
55399	-9.515755	-1.055978	-1.781015	0.039175	0.236364	-0.077222	0.345159	0.598391	0.468537	-0.550697
55400	-9.494659	-1.106141	-1.912458	0.033788	0.380437	-0.071860	0.345562	0.598177	0.468775	-0.550474
55401	-9.543798	-1.198776	-2.009626	-0.021230	0.491832	0.001455	0.345894	0.598055	0.469069	-0.550148
55402	-9.584651	-1.244539	-1.938323	-0.091134	0.431384	0.035008	0.346178	0.598006	0.469313	-0.549814
55403	-9.667682	-1.300801	-1.808125	-0.189561	0.311974	0.101556	0.346459	0.597990	0.469476	-0.549514
55404	-9.662837	-1.321506	-1.705116	-0.248829	0.224088	0.082367	0.346627	0.598061	0.469404	-0.549392
55405	-9.589522	-1.315652	-1.677524	-0.259885	0.211644	0.005236	0.346563	0.598323	0.469059	-0.549442
55406	-9.566393	-1.216228	-1.606091	-0.194862	0.118875	-0.039125	0.346283	0.598706	0.468562	-0.549625
55407	-9.642177	-1.025971	-1.578261	-0.024560	0.017504	0.011477	0.345909	0.599103	0.468078	-0.549841
55408	-9.683749	-0.887797	-1.569002	0.102367	-0.044301	0.036805	0.345615	0.599398	0.467726	-0.550004
55409	-9.672723	-0.773514	-1.621486	0.226004	-0.031846	0.022811	0.345486	0.599568	0.467551	-0.550048
55410	-9.669005	-0.758526	-1.617723	0.236523	-0.040202	0.017088	0.345463	0.599720	0.467446	-0.549987
55411	-9.660896	-0.767722	-1.593202	0.216251	-0.058358	0.006194	0.345498	0.599836	0.467313	-0.549951
55412	-9.664345	-0.777471	-1.513722	0.177216	-0.128023	-0.002102	0.345627	0.599863	0.467225	-0.549915
55413	-9.639689	-0.867642	-1.496602	0.082879	-0.107023	-0.019940	0.345993	0.599739	0.467304	-0.549753
55414	-9.652465	-0.977662	-1.612027	0.015742	0.036334	0.022096	0.346431	0.599603	0.467451	-0.549501
55415	-9.611594	-1.036734	-1.687894	-0.019461	0.135677	-0.000055	0.346718	0.599547	0.467491	-0.549347
55416	-9.554930	-1.008960	-1.794977	0.038301	0.237637	-0.041367	0.346818	0.599556	0.467453	-0.549307
55417	-9.594145	-1.005203	-1.814754	0.048669	0.248354	-0.000076	0.346796	0.599632	0.467347	-0.549328
55418	-9.629468	-0.969341	-1.752957	0.062048	0.173558	0.021190	0.346724	0.599710	0.467202	-0.549411
55419	-9.511577	-0.920763	-1.666368	0.073275	0.099980	-0.113238	0.346710	0.599745	0.467108	-0.549463
55420	-9.503835	-0.799850	-1.647244	0.178767	0.043674	-0.135799	0.346907	0.599673	0.467318	-0.549238
55421	-9.658212	-0.675034	-1.561568	0.268992	-0.108161	-0.010077	0.347458	0.599413	0.468008	-0.548585
55422	-9.771036	-0.764817	-1.622928	0.206007	-0.045357	0.119457	0.348190	0.598902	0.468776	-0.548023
55423	-9.689421	-0.831776	-1.799941	0.197669	0.155564	0.074337	0.348722	0.598492	0.469299	-0.547685
55424	-9.446796	-0.820845	-1.790184	0.193188	0.186671	-0.166531	0.349126	0.598253	0.469802	-0.547258
55425	-9.431187	-0.501016	-1.789924	0.486956	0.077283	-0.212739	0.349651	0.598168	0.470988	-0.545993
55426	-9.853790	-0.642413	-1.503310	0.265408	-0.235718	0.169487	0.350813	0.597528	0.472534	-0.544612
55427	-9.570809	-0.836519	-1.781105	0.155337	0.131458	-0.043805	0.352076	0.596622	0.473792	-0.543696
55428	-9.430604	-0.495140	-1.907531	0.504620	0.163554	-0.192983	0.353023	0.596294	0.475148	-0.542257
55429	-10.052652	-0.399423	-1.387146	0.442481	-0.476130	0.322254	0.354788	0.595241	0.476937	-0.540689
55430	-10.081371	-0.617335	-1.099414	0.139282	-0.682739	0.323304	0.357806	0.593235	0.479298	-0.538814
55431	-9.943787	-1.137587	-1.627838	-0.208412	0.007017	0.325326	0.361551	0.590512	0.481448	-0.537386
55432	-9.404423	-1.202406	-1.929450	-0.210451	0.434328	-0.149420	0.364426	0.588306	0.482804	-0.536647
55433	-9.376148	-1.570807	-2.129151	-0.512249	0.746223	-0.112501	0.366299	0.586729	0.484164	-0.535873
55434	-9.691076	-1.371817	-1.892433	-0.371981	0.415867	0.140645	0.366284	0.586216	0.484634	-0.536019
55435	-9.600028	-0.729624	-1.597279	0.170742	-0.021024	-0.054892	0.365159	0.586365	0.484307	-0.536919
55436	-9.675831	-0.578126	-1.514017	0.311220	-0.157422	-0.008273	0.363935	0.586722	0.483790	-0.537825
55437	-9.938856	-0.621424	-1.123379	0.184098	-0.559898	0.191392	0.363316	0.586609	0.483304	-0.538803
55438	-10.237635	-0.939444	-0.766684	-0.195517	-0.841941	0.460206	0.365092	0.584835	0.483671	-0.539202
55439	-10.046376	-1.434796	-0.858049	-0.633699	-0.542742	0.337588	0.366510	0.582796	0.483097	-0.540959
55440	-9.933925	-0.332385	-0.102122	0.227730	-1.489932	0.012373	0.365972	0.582050	0.481335	-0.543690
55441	-9.882897	0.099872	-0.428929	0.757154	-1.250868	-0.028645	0.365052	0.581680	0.479231	-0.546557
55442	-9.755688	-0.202559	-1.041581	0.667298	-0.534603	-0.036791	0.362887	0.582142	0.476623	-0.549776
55443	-10.019548	-0.235427	-0.459619	0.504792	-1.100148	0.146871	0.358741	0.583734	0.473248	-0.553710
55444	-10.278412	0.053708	0.342919	0.571052	-1.973349	0.264314	0.354287	0.585033	0.469799	-0.558127
55445	-10.536366	0.272089	0.560677	0.751057	-2.270435	0.467601	0.350008	0.586019	0.466007	-0.562952
55446	-10.694782	0.248838	0.834359	0.678933	-2.504460	0.598979	0.347372	0.585769	0.462227	-0.567938
55447	-10.570767	0.296161	1.508289	0.511063	-3.053378	0.410746	0.346031	0.584613	0.457679	-0.573603
55448	-10.637334	0.619999	3.055735	0.285509	-4.489919	0.318046	0.346789	0.582226	0.452193	-0.579890
55449	-10.984264	1.371756	4.647108	0.453970	-6.092297	0.521898	0.350786	0.577504	0.446004	-0.586956
55450	-10.964052	1.930628	6.581008	0.323240	-7.810323	0.489113	0.359848	0.568851	0.439351	-0.594885
55451	-11.364627	2.279011	9.066226	-0.086325	-9.865515	1.103761	0.373116	0.555905	0.429640	-0.605940
55452	-12.053070	-1.025124	6.296383	-1.864619	-5.481007	2.531806	0.391905	0.536260	0.416286	-0.620920
55453	-10.391619	-6.660625	0.109595	-4.915145	2.951344	1.116706	0.404676	0.516432	0.402046	-0.638667
55454	-12.431428	-7.470151	-3.812844	-3.745958	7.744703	2.467904	0.407072	0.504485	0.385366	-0.656719
55455	-13.035702	-4.563980	-5.233041	-0.000288	8.624468	2.174876	0.399085	0.501852	0.359964	-0.677718
55456	-13.298328	-1.544396	-3.437085	2.480266	6.186083	2.295430	0.390998	0.502969	0.337106	-0.693183
55457	-13.291012	0.577111	-0.465656	3.206318	2.881743	2.781417	0.386411	0.505184	0.318299	-0.702966
55458	-11.018542	0.408503	-2.357427	3.551779	4.250963	0.007883	0.388892	0.503288	0.308044	-0.707512
55459	-9.633967	1.399186	-3.145938	4.525867	4.221334	-1.666345	0.393532	0.499317	0.303871	-0.709562
55460	-8.969537	1.899655	-2.760290	4.646393	3.589489	-2.249194	0.396902	0.495957	0.303525	-0.710189
55461	-8.555120	3.030948	-0.783951	4.622068	1.351119	-2.079515	0.400215	0.492656	0.306766	-0.709234
55462	-8.548035	2.467994	0.394720	3.626154	0.701663	-1.708740	0.406372	0.486848	0.317253	-0.705118
55463	-7.239327	0.627043	0.414169	1.796657	1.228300	-2.867499	0.415601	0.477684	0.335328	-0.697603
55464	-5.783164	-1.861765	-0.088873	-0.513068	2.303269	-4.213651	0.424464	0.468896	0.355227	-0.688317
55465	-4.807274	-2.615248	0.958003	-1.775821	1.289698	-4.708956	0.431112	0.462763	0.372165	-0.679327
55466	-3.619208	-1.931777	2.377361	-1.813483	-0.653642	-5.480801	0.434403	0.461645	0.383147	-0.671846
55467	-3.278306	-0.492312	3.414476	-0.841289	-2.252007	-5.705570	0.433326	0.467125	0.387557	-0.666200
55468	-4.536386	0.196639	4.253597	-0.252567	-3.067216	-4.405506	0.430861	0.474884	0.390515	-0.660562
55469	-4.362439	-1.854902	2.650207	-1.778557	-1.036032	-4.786995	0.431347	0.479491	0.395881	-0.653687
55470	-2.742326	-4.070694	-0.785718	-3.169609	2.496796	-6.909717	0.431794	0.485239	0.400483	-0.646305
55471	-5.509759	-1.779393	0.613075	-1.045074	0.827228	-4.145143	0.434662	0.489926	0.408622	-0.635665
55472	-10.544092	-3.690178	4.636687	-3.318930	-1.828100	1.673541	0.438538	0.490807	0.415442	-0.627855
55473	-16.352131	-2.888155	11.309522	-3.533184	-7.757978	8.379823	0.440233	0.491579	0.418495	-0.624025
55474	-22.757114	-5.777591	12.407013	-5.656339	-7.359914	15.067621	0.444138	0.487836	0.425409	-0.619503
55475	-19.307855	-8.625173	-0.872940	-5.503911	5.607909	9.839276	0.444012	0.481499	0.425799	-0.624265
55476	-9.388626	-4.629616	-4.114972	-2.054809	6.494572	-0.862667	0.437036	0.480121	0.418647	-0.634994
55477	-10.038213	2.031449	-7.370212	5.533622	7.817311	-1.598910	0.422651	0.486826	0.411951	-0.643943
55478	-13.069294	8.403675	-6.331472	12.037056	4.893438	0.801035	0.407746	0.495052	0.408015	-0.649762
55479	-14.251892	8.451903	-3.290475	11.457392	1.786212	2.471858	0.401095	0.498152	0.411775	-0.649160
55480	-12.863949	4.634459	-2.494605	7.425888	2.031633	1.759259	0.400050	0.499339	0.419050	-0.644219
55481	-11.745791	1.674838	0.123519	3.622802	0.331603	1.480992	0.399690	0.500882	0.427271	-0.637812
55482	-10.298915	0.010962	0.595169	1.655212	0.158824	0.368434	0.399510	0.501382	0.435726	-0.631783
55483	-9.224796	-0.287976	1.159174	1.035964	-0.494332	-0.582072	0.398583	0.501048	0.444344	-0.626611
55484	-8.276606	-1.148322	1.663341	-0.036212	-0.902918	-1.341020	0.397585	0.498960	0.453900	-0.622045
55485	-7.420193	-2.593967	2.167306	-1.620348	-1.145427	-1.904108	0.395742	0.496249	0.462926	-0.618729
55486	-6.852111	-3.882758	2.608695	-2.984547	-1.349527	-2.190172	0.391346	0.495058	0.468292	-0.618440
55487	-6.252518	-3.968830	2.733444	-3.151731	-1.499829	-2.732147	0.384732	0.494954	0.469452	-0.621786
55488	-6.172260	-3.949772	2.130465	-2.928408	-0.893439	-2.822575	0.376103	0.495388	0.466528	-0.628879
55489	-6.142332	-3.119357	0.666341	-1.665280	0.348100	-3.103984	0.367415	0.494956	0.460782	-0.638517
55490	-6.864818	-2.670824	-2.081972	-0.114302	2.902173	-2.730658	0.358090	0.494878	0.454293	-0.648448
55491	-9.776568	-1.750076	-3.018376	1.966389	3.548461	-0.258032	0.347794	0.495241	0.446697	-0.658966
55492	-13.919814	-2.722135	-3.573983	2.647821	4.475250	3.858410	0.335481	0.499032	0.437675	-0.668476
55493	-16.726643	-2.344608	-1.795934	3.307635	2.654041	6.634656	0.321871	0.505498	0.428341	-0.676309
55494	-14.553595	-1.140473	1.539676	2.462112	-0.971430	4.625867	0.314173	0.508721	0.425645	-0.679209
55495	-10.794205	-4.247996	1.498938	-1.197101	0.394817	1.815599	0.313583	0.506193	0.431146	-0.677899
55496	-8.918428	-7.411267	1.070228	-4.211560	2.065743	0.845805	0.315550	0.500705	0.439686	-0.675573
55497	-8.838638	-9.580676	0.363012	-5.764999	3.473702	1.355959	0.314729	0.497541	0.445583	-0.674429
55498	-10.507498	-8.092595	1.818984	-4.501384	1.383782	2.718400	0.309965	0.499432	0.447660	-0.673861
55499	-10.785513	-6.259579	3.137821	-3.373228	-0.669668	2.577939	0.304735	0.504445	0.447645	-0.672522
55500	-11.038898	-6.190812	3.109751	-3.296440	-0.708851	2.776362	0.297694	0.511952	0.442107	-0.673665
55501	-9.521930	-6.652298	2.286686	-3.839792	0.467506	1.375722	0.285714	0.521676	0.427093	-0.681039
55502	-7.931999	-5.127117	1.826023	-2.822763	0.545171	-0.633196	0.268296	0.533939	0.403312	-0.693013
55503	-7.011948	-3.267677	2.237951	-1.837711	-0.416162	-1.983566	0.247524	0.547021	0.374852	-0.706389
55504	-6.211473	-1.156241	2.573930	-0.757008	-1.657281	-3.238487	0.227623	0.558765	0.347175	-0.717941
55505	-5.872962	-0.142591	2.346600	-0.118414	-1.995955	-3.811159	0.212735	0.568216	0.326248	-0.724870
55506	-6.221950	0.872489	0.980173	1.476654	-1.721160	-3.872094	0.203120	0.576193	0.312428	-0.727415
55507	-6.111868	0.965288	-0.872853	2.750924	-0.540739	-4.228062	0.197045	0.582793	0.302954	-0.727835
55508	-6.675460	1.578147	-1.920720	3.982710	-0.391177	-3.919832	0.191957	0.588720	0.295340	-0.727554
55509	-6.201941	0.303295	-3.255229	4.039144	1.417499	-4.260368	0.188231	0.593564	0.289866	-0.726793
55510	-6.799967	-1.082213	-3.335409	3.366332	2.437216	-3.389040	0.184195	0.598233	0.284787	-0.726007
55511	-7.087611	-1.785416	-2.258815	2.148047	2.242783	-2.821287	0.181289	0.603234	0.281735	-0.723788
55512	-7.637139	-1.990372	-1.451954	1.438716	1.812322	-2.128934	0.179953	0.609404	0.281621	-0.718981
55513	-8.261037	-1.773433	-1.709957	1.773063	1.682871	-1.546130	0.179101	0.615914	0.283155	-0.713019
55514	-9.768399	-2.418291	-2.906548	2.447278	2.687442	0.010910	0.176859	0.623022	0.284285	-0.706927
55515	-9.789264	-3.431379	-2.774679	1.586683	3.282478	0.287171	0.174755	0.630418	0.285494	-0.700376
55516	-9.638243	-4.636300	-2.321773	0.300768	3.836931	0.432486	0.171487	0.640591	0.285943	-0.691717
55517	-10.630619	-3.855162	-0.032217	-1.180094	1.552816	1.325566	0.167154	0.652486	0.285769	-0.681658
55518	-12.040914	-3.823069	1.640152	-2.680713	0.142424	2.640046	0.165324	0.663088	0.288057	-0.670824
55519	-12.025009	-4.032195	1.721982	-3.186921	0.075978	2.582951	0.165018	0.671793	0.291704	-0.660585
55520	-12.694381	-3.846074	2.924275	-4.272679	-1.110449	3.032257	0.163681	0.678760	0.296556	-0.651574
55521	-12.861613	-4.125559	5.130175	-6.364137	-2.474372	2.920309	0.162468	0.682316	0.302502	-0.645401
55522	-10.772270	-2.758677	4.418625	-5.050947	-2.869152	0.648144	0.162797	0.682905	0.310185	-0.641033
55523	-8.295295	-0.801379	2.880462	-2.662984	-3.039539	-1.975672	0.165698	0.683701	0.319770	-0.634700
55524	-7.720676	0.433131	0.072270	0.230401	-2.191671	-2.400288	0.167183	0.687737	0.326815	-0.626307
55525	-10.798385	2.021245	-3.929713	4.122864	-1.725110	0.964655	0.162517	0.696569	0.327335	-0.617439
55526	-15.016787	0.826874	-3.069626	2.359154	-2.621028	5.126197	0.160155	0.702272	0.324934	-0.612848
55527	-14.198026	-0.862934	1.195691	-2.056900	-3.815585	3.787631	0.166334	0.701073	0.327902	-0.610991
55528	-12.090777	-1.441594	4.975220	-5.102789	-5.215251	1.131589	0.177578	0.694452	0.334704	-0.611698
55529	-9.063163	-1.087712	3.007755	-3.157043	-3.442754	-1.413333	0.190036	0.686784	0.341780	-0.612699
55530	-8.387030	-1.767750	-2.512910	0.409874	0.939966	-0.939681	0.193383	0.685133	0.342460	-0.613120
55531	-9.774454	-1.073919	-3.531804	1.614847	0.833908	0.476318	0.188240	0.687308	0.336890	-0.615369
55532	-9.877441	-0.620107	-3.288278	1.792313	0.298261	0.456657	0.180879	0.689491	0.329685	-0.619025
55533	-9.812263	-0.605261	-1.971311	0.870850	-0.575810	0.159419	0.175880	0.690737	0.324661	-0.621727
55534	-9.554050	-1.060120	-1.105615	-0.049751	-0.730889	-0.164404	0.174442	0.690664	0.322397	-0.623389
55535	-9.556719	-1.186281	-0.545777	-0.538158	-0.974914	-0.231670	0.175268	0.689970	0.322053	-0.624103
55536	-9.698464	-1.218176	-1.103725	-0.125318	-0.607983	0.004489	0.176007	0.688991	0.322037	-0.624984
55537	-9.900232	-0.825348	-1.822006	0.701505	-0.468625	0.252283	0.174207	0.688326	0.320188	-0.627168
55538	-10.031859	-0.432432	-1.875388	1.045789	-0.747492	0.320900	0.170134	0.688015	0.316358	-0.630562
55539	-9.936536	-0.430478	-1.524446	0.834135	-0.941116	0.170411	0.165689	0.687799	0.311779	-0.634250
55540	-9.615789	-1.087136	-1.437989	0.404649	-0.409782	-0.046360	0.162690	0.687333	0.307822	-0.637457
55541	-9.380272	-2.197554	-1.586334	-0.125660	0.608947	-0.068544	0.161755	0.686394	0.305390	-0.639871
55542	-9.079679	-3.039206	-1.795710	-0.443812	1.479503	-0.194174	0.162240	0.684993	0.304430	-0.641705
55543	-9.089850	-2.993825	-1.686076	-0.471919	1.401407	-0.208288	0.163163	0.683632	0.304785	-0.642753
55544	-9.220589	-2.690933	-1.679767	-0.263528	1.150926	-0.133438	0.163484	0.682463	0.305197	-0.643717
55545	-9.353926	-1.960755	-1.664955	0.207025	0.561004	-0.129976	0.162631	0.681760	0.304792	-0.644870
55546	-9.343665	-1.375728	-1.794327	0.697940	0.196258	-0.226728	0.161505	0.681304	0.303933	-0.646038
55547	-9.338004	-1.251554	-2.005965	0.965824	0.232863	-0.231377	0.160196	0.680998	0.302716	-0.647257
55548	-9.420059	-1.366347	-2.134256	1.023032	0.384363	-0.119129	0.158752	0.680749	0.301293	-0.648538
55549	-9.489025	-1.595458	-1.823900	0.661848	0.363602	-0.048293	0.157509	0.680588	0.300093	-0.649565
55550	-9.485243	-1.970565	-1.408655	0.120898	0.408912	-0.032328	0.156799	0.680439	0.299527	-0.650155
55551	-9.351637	-2.152315	-1.259011	-0.101725	0.487424	-0.147143	0.156458	0.680345	0.299530	-0.650333
55552	-9.288112	-2.123991	-1.310353	-0.041137	0.504139	-0.208442	0.156300	0.680262	0.299910	-0.650283
55553	-9.276820	-1.948629	-1.387909	0.128298	0.408191	-0.241911	0.155919	0.680299	0.300271	-0.650169
55554	-9.363803	-1.841277	-1.538920	0.316856	0.386045	-0.159194	0.155284	0.680443	0.300425	-0.650099
55555	-9.436763	-1.833351	-1.559020	0.339332	0.364768	-0.086640	0.154566	0.680755	0.300460	-0.649928
55556	-9.543498	-1.937579	-1.359408	0.115557	0.291866	0.014927	0.153969	0.681204	0.300564	-0.649551
55557	-9.588638	-2.063941	-1.129644	-0.151013	0.231329	0.056537	0.153539	0.681686	0.300734	-0.649067
55558	-9.556476	-2.251993	-0.956554	-0.412172	0.270117	0.039715	0.153195	0.682106	0.300909	-0.648627
55559	-9.657529	-2.312216	-0.704570	-0.654364	0.136056	0.120284	0.152722	0.682456	0.300929	-0.648361
55560	-9.754438	-2.216225	-0.578435	-0.697953	-0.041111	0.182635	0.152071	0.682711	0.300666	-0.648367
55561	-9.814002	-2.111291	-0.502890	-0.691569	-0.183662	0.212934	0.151186	0.682880	0.300078	-0.648668
55562	-9.822350	-1.989376	-0.497731	-0.615021	-0.282804	0.198590	0.150194	0.682940	0.299191	-0.649245
55563	-9.927303	-2.040058	-0.619915	-0.534516	-0.189052	0.325163	0.149319	0.682893	0.298159	-0.649971
55564	-9.901983	-2.121154	-0.658721	-0.538979	-0.087883	0.320635	0.148639	0.682736	0.297070	-0.650790
55565	-9.844637	-2.131863	-0.561493	-0.611474	-0.110961	0.256610	0.148174	0.682554	0.296008	-0.651571
55566	-9.761611	-1.995136	-0.477648	-0.587018	-0.233760	0.142135	0.148246	0.682121	0.295263	-0.652345
55567	-9.513896	-2.149655	-0.738546	-0.459091	0.110944	-0.042450	0.148652	0.681517	0.294555	-0.653203
55568	-9.237297	-2.452455	-1.072828	-0.359131	0.624054	-0.222345	0.148861	0.681012	0.293435	-0.654186
55569	-9.091165	-2.589486	-1.370478	-0.188066	0.957979	-0.311120	0.148579	0.680841	0.291891	-0.655118
55570	-9.047577	-2.534265	-1.553718	0.004426	1.049395	-0.347282	0.148044	0.680884	0.290194	-0.655947
55571	-9.141731	-2.378886	-1.658936	0.194670	0.984585	-0.274601	0.147190	0.681062	0.288361	-0.656762
55572	-9.362181	-2.242965	-1.528982	0.185299	0.771664	-0.097273	0.146060	0.681316	0.286416	-0.657603
55573	-9.387493	-2.214232	-1.435539	0.136494	0.702061	-0.087612	0.144937	0.681667	0.284625	-0.658264
55574	-9.342557	-2.092246	-1.461205	0.231797	0.635544	-0.151510	0.143898	0.682156	0.283136	-0.658627
55575	-9.276203	-1.908499	-1.420357	0.299321	0.481395	-0.253064	0.143122	0.682832	0.282010	-0.658579
55576	-9.272360	-1.888558	-1.433003	0.309915	0.473059	-0.258790	0.142687	0.683680	0.281239	-0.658124
55577	-9.325915	-1.851456	-1.456687	0.332570	0.442280	-0.209757	0.142365	0.684717	0.280741	-0.657328
55578	-9.459494	-1.782697	-1.394007	0.297846	0.318611	-0.096052	0.142252	0.685761	0.280558	-0.656341
55579	-9.461821	-1.624682	-1.215667	0.214072	0.084135	-0.138468	0.142456	0.686664	0.280689	-0.655296
55580	-9.486251	-1.586239	-1.100993	0.114992	-0.021702	-0.132628	0.142995	0.687481	0.281015	-0.654180
55581	-9.550228	-1.675513	-1.044815	-0.009564	0.001358	-0.060474	0.143822	0.688261	0.281502	-0.652969
55582	-9.544133	-1.808079	-1.030789	-0.127701	0.098439	-0.045597	0.144843	0.689099	0.281962	-0.651660
55583	-9.576906	-1.936597	-1.055044	-0.214691	0.207201	0.010323	0.145839	0.690005	0.282285	-0.650338
55584	-9.590157	-2.077797	-1.112043	-0.282630	0.350081	0.052528	0.146626	0.690955	0.282263	-0.649160
55585	-9.624285	-2.204902	-1.134783	-0.369647	0.458806	0.108450	0.146893	0.692101	0.281803	-0.648078
55586	-9.588156	-2.156355	-0.929545	-0.540478	0.312565	0.039052	0.146760	0.693342	0.280972	-0.647142
55587	-9.574751	-2.035884	-0.714266	-0.677218	0.100371	-0.021769	0.146861	0.694488	0.280176	-0.646235
55588	-9.559597	-2.033354	-0.597705	-0.799589	0.042667	-0.053772	0.147263	0.695456	0.279400	-0.645438
55589	-9.535889	-1.951953	-0.660722	-0.726762	0.027519	-0.083820	0.147535	0.696379	0.278351	-0.644834
55590	-9.580764	-1.830488	-0.833120	-0.539669	0.029273	-0.038044	0.147386	0.697385	0.276874	-0.644416
55591	-9.627909	-1.657215	-0.860859	-0.440773	-0.092528	-0.015689	0.147111	0.698417	0.275378	-0.644002
55592	-9.234785	-1.453362	-0.969003	-0.248175	-0.110403	-0.418079	0.147142	0.699281	0.274388	-0.643479
55593	-9.035361	-1.282607	-1.059159	-0.093358	-0.155280	-0.627276	0.147376	0.700104	0.274024	-0.642686
55594	-9.124603	-1.354613	-1.147114	-0.085529	-0.065382	-0.517657	0.148062	0.700647	0.274271	-0.641830
55595	-9.432977	-1.413745	-1.265027	-0.052427	-0.015547	-0.190993	0.149063	0.701046	0.275215	-0.640758
55596	-9.404536	-1.163467	-1.094214	-0.071531	-0.316936	-0.279030	0.150513	0.701307	0.277274	-0.639245
55597	-9.089556	-1.372907	-1.542560	0.154157	0.149562	-0.493990	0.152980	0.701561	0.280403	-0.637012
55598	-9.085416	-1.580469	-2.681912	0.910238	0.937412	-0.298084	0.154137	0.702946	0.282912	-0.634090
55599	-9.870987	-1.035171	-3.082819	1.466616	0.529738	0.462510	0.152725	0.705245	0.283407	-0.631652
55600	-10.369130	-0.232924	-2.460600	1.354289	-0.615241	0.742622	0.151492	0.707590	0.283695	-0.629193
55601	-10.662230	0.297060	-1.382345	0.719668	-1.743499	0.776186	0.151910	0.709320	0.284386	-0.626828
55602	-10.625582	-0.128598	-0.534909	-0.260723	-1.885540	0.655469	0.153796	0.710183	0.285242	-0.624999
55603	-10.603118	-0.331930	-0.051564	-0.806776	-1.989503	0.576241	0.155446	0.711018	0.285563	-0.623494
55604	-10.436739	-0.378074	-0.381554	-0.591668	-1.721616	0.478082	0.156333	0.711758	0.285300	-0.622547
55605	-10.184669	-0.395864	-0.860495	-0.225288	-1.373379	0.320806	0.155996	0.712509	0.284222	-0.622265
55606	-10.077745	-0.172851	-1.119487	0.105650	-1.379502	0.233698	0.154167	0.713559	0.282208	-0.622434
55607	-10.108856	0.308159	-0.789976	0.109126	-1.959711	0.139981	0.152568	0.714277	0.280619	-0.622723
55608	-10.130675	0.164354	-0.919004	0.122705	-1.778288	0.203539	0.152608	0.714267	0.280562	-0.622751
55609	-9.859104	-0.367202	-1.425033	0.243085	-1.006269	0.101737	0.153844	0.713648	0.281488	-0.622738
55610	-9.436901	-0.342330	-1.830120	0.619287	-0.699607	-0.239357	0.155353	0.712950	0.282835	-0.622553
55611	-9.165282	-0.153369	-2.158242	1.016290	-0.598918	-0.469649	0.156962	0.712294	0.284531	-0.622128
55612	-9.174891	-0.212577	-2.402995	1.174700	-0.411113	-0.407940	0.158598	0.711769	0.286739	-0.621299
55613	-9.234475	-0.405958	-2.462385	1.095819	-0.240831	-0.312959	0.160139	0.711293	0.289357	-0.620234
55614	-9.512749	-0.720843	-2.125304	0.612490	-0.259548	-0.061462	0.161721	0.710691	0.292269	-0.619147
55615	-9.640312	-1.034154	-1.638178	0.025960	-0.341543	0.014386	0.163374	0.709819	0.295200	-0.618322
55616	-9.716893	-1.259051	-1.034004	-0.586880	-0.555547	0.006646	0.164832	0.708804	0.297898	-0.617806
55617	-9.897719	-1.261705	-0.628045	-0.904344	-0.853296	0.107251	0.165673	0.707773	0.300315	-0.617592
55618	-10.152070	-0.994816	-0.729756	-0.653170	-1.077647	0.336139	0.165408	0.706882	0.302251	-0.617740
55619	-10.101882	-0.746405	-1.258486	-0.056599	-0.965729	0.348659	0.164211	0.706139	0.303498	-0.618297
55620	-10.274628	-0.802201	-1.863530	0.398704	-0.627640	0.633901	0.162351	0.705704	0.304125	-0.618976
55621	-10.725848	-1.041929	-1.838027	0.236920	-0.588596	1.100840	0.160670	0.705120	0.304318	-0.619985
55622	-10.829583	-1.389737	-1.397460	-0.289740	-0.617328	1.173619	0.160250	0.703822	0.304621	-0.621419
55623	-10.650577	-1.891841	-0.772278	-1.031567	-0.549393	0.968962	0.161054	0.701632	0.305017	-0.623489
55624	-10.442516	-2.385934	-0.266070	-1.663271	-0.391792	0.765077	0.162679	0.698797	0.305184	-0.626163
55625	-10.228408	-2.709944	-0.139071	-1.884748	-0.120967	0.599601	0.164572	0.695544	0.304835	-0.629452
55626	-10.069064	-2.939392	-0.280579	-1.829254	0.242202	0.516823	0.165571	0.692215	0.303134	-0.633668
55627	-9.750570	-3.092588	-0.161385	-1.914115	0.437328	0.227585	0.165488	0.688902	0.299951	-0.638794
55628	-9.684621	-3.142207	0.190642	-2.109418	0.373864	0.142720	0.164419	0.685593	0.295388	-0.644729
55629	-9.614119	-3.044901	0.775116	-2.388174	0.075955	0.015415	0.162884	0.681843	0.289925	-0.651538
55630	-9.600137	-2.806546	1.294730	-2.518282	-0.280330	-0.050956	0.161582	0.677082	0.283599	-0.659562
55631	-9.282971	-2.251056	1.222914	-1.985464	-0.467012	-0.401431	0.161545	0.671306	0.277006	-0.668221
55632	-10.640784	-2.564016	4.032916	-4.218974	-1.865522	0.900684	0.162387	0.664564	0.269460	-0.677773
55633	-10.670441	-2.336695	2.785849	-2.851089	-1.103084	1.037374	0.166086	0.655199	0.263868	-0.688116
55634	-10.693517	-4.180188	-1.939504	0.202675	3.302368	1.351254	0.167770	0.647723	0.259327	-0.696460
55635	-10.991016	-3.166065	-1.604968	0.741275	2.416052	1.457183	0.169808	0.640227	0.256183	-0.704020
55636	-10.642049	-3.092672	-3.547746	2.536644	3.635242	0.946004	0.169910	0.633544	0.251957	-0.711526
55637	-10.141521	-3.842049	-3.168308	1.936340	4.181582	0.502877	0.170051	0.626861	0.249321	-0.718309
55638	-9.797140	-4.574511	-2.218373	0.888995	4.353575	0.290962	0.169736	0.619569	0.248285	-0.725037
55639	-8.899086	-4.250956	-1.358988	0.387763	3.715606	-0.584870	0.169395	0.612157	0.248785	-0.731215
55640	-8.789983	-3.874157	-0.947892	0.387920	3.209567	-0.717741	0.169451	0.605540	0.250758	-0.736022
55641	-8.838168	-3.668987	-1.159345	0.804210	3.167739	-0.744258	0.168527	0.600512	0.252527	-0.739739
55642	-9.092430	-3.444403	-0.839011	0.835459	2.773326	-0.493369	0.165086	0.597054	0.253393	-0.743011
55643	-8.533445	-3.131940	-0.464483	0.683745	2.301616	-1.033256	0.160427	0.594047	0.254546	-0.746041
55644	-8.016938	-2.962607	-0.275796	0.595864	2.038133	-1.529305	0.155822	0.591382	0.256768	-0.748369
55645	-7.652367	-2.771316	-0.183536	0.612490	1.793623	-1.895644	0.150879	0.589467	0.259149	-0.750070
55646	-7.393741	-2.510063	-0.365588	0.895583	1.630857	-2.220655	0.145388	0.588448	0.261648	-0.751087
55647	-7.234173	-1.884527	-0.354673	1.218817	1.048101	-2.503388	0.138698	0.588773	0.262373	-0.751844
55648	-7.255907	-1.663358	0.101027	0.993429	0.539815	-2.454261	0.132026	0.590235	0.262102	-0.751994
55649	-7.353098	-2.085736	0.438060	0.536313	0.631599	-2.201947	0.125278	0.592908	0.260983	-0.751434
55650	-7.804738	-2.249069	0.977677	0.109644	0.365485	-1.640652	0.118935	0.596617	0.259252	-0.750127
55651	-8.588610	-1.952373	2.579169	-0.921658	-0.878662	-0.723887	0.116396	0.598734	0.260002	-0.748577
55652	-8.416529	-3.419979	2.876957	-1.941265	0.186642	-0.484897	0.117120	0.598739	0.261965	-0.747776
55653	-8.994586	-4.357501	3.689597	-2.917417	0.478218	0.422699	0.115846	0.598072	0.259004	-0.749538
55654	-8.921155	-4.398596	4.605683	-3.679532	0.158744	0.511078	0.111012	0.597830	0.250150	-0.753459
55655	-8.073303	-3.990911	5.136326	-4.111417	-0.151154	-0.296553	0.105254	0.598373	0.238634	-0.757578
55656	-7.236483	-3.447074	4.024130	-3.105757	0.227214	-1.401868	0.098324	0.600753	0.225038	-0.760780
55657	-6.936590	-2.684488	3.366528	-2.297927	0.085954	-1.979090	0.090174	0.605058	0.209068	-0.762932
55658	-7.468960	-0.473348	2.964508	-1.028420	-1.619583	-1.995159	0.081195	0.610783	0.191355	-0.764025
55659	-9.165538	0.425395	4.049174	-1.446898	-2.887564	-0.318109	0.076151	0.617326	0.177687	-0.762586
55660	-10.846981	0.305352	5.258448	-2.393718	-3.187740	1.567272	0.072355	0.621259	0.164197	-0.762785
55661	-12.235026	-2.871050	3.834353	-1.898381	0.312004	3.184887	0.072385	0.625828	0.157910	-0.760371
55662	-14.583004	-5.264025	7.175696	-5.379758	1.391466	6.342329	0.074596	0.628111	0.154989	-0.758874
55663	-11.062712	1.044396	3.978753	-1.254857	-3.148372	1.492947	0.082923	0.629471	0.156156	-0.756641
55664	-8.435094	-1.250614	-2.401988	3.389674	1.431289	-1.753928	0.097022	0.628848	0.165710	-0.753444
55665	-5.800400	-6.148011	-17.048819	14.778337	11.347785	-5.951590	0.089788	0.632989	0.149828	-0.754198
55666	-7.166503	0.559155	-2.688016	3.854527	-0.075702	-3.177303	0.081427	0.646731	0.134992	-0.746248
55667	-16.853289	3.588721	3.723245	-0.320986	-5.436772	6.952878	0.082139	0.659382	0.131103	-0.735718
55668	-12.083948	-1.756809	-6.852923	7.312054	3.068095	1.728088	0.083591	0.663744	0.127160	-0.732316
55669	-9.979931	0.442895	-1.319296	2.298804	-0.518592	-0.015772	0.081456	0.670678	0.121937	-0.727108
55670	-8.952644	-1.125623	-2.075923	2.351731	1.239851	-0.943820	0.079796	0.677069	0.117872	-0.722022
55671	-9.582439	0.443211	-1.497492	2.095631	-0.474860	-0.344759	0.076467	0.684758	0.113587	-0.715791
55672	-9.894217	0.562312	-1.900598	2.330950	-0.534349	-0.009564	0.073916	0.692703	0.110284	-0.708898
55673	-10.131196	0.061026	-0.983603	1.112177	-0.323207	0.300026	0.071034	0.700683	0.106593	-0.701880
55674	-9.959395	-1.094202	-0.498077	0.152909	0.670004	0.195272	0.068315	0.708479	0.102543	-0.694892
55675	-8.768245	-1.352310	0.050717	-0.596763	0.845898	-1.001343	0.063389	0.715802	0.097306	-0.688579
55676	-8.497889	-1.271194	0.276114	-0.936884	0.715436	-1.297118	0.057345	0.722878	0.092821	-0.682307
55677	-9.116843	-1.148095	0.725246	-1.528711	0.441024	-0.733722	0.051339	0.729262	0.089339	-0.676431
55678	-9.879008	-1.378356	0.536965	-1.578859	0.624119	0.031056	0.045107	0.734587	0.085589	-0.671581
55679	-9.700285	-0.991864	-0.232475	-0.852751	0.355200	-0.102949	0.037650	0.739141	0.080737	-0.667633
55680	-10.328962	0.716786	0.054993	-1.053954	-1.446735	0.385255	0.028130	0.744422	0.072778	-0.663134
55681	-10.393438	1.539539	0.322319	-1.377604	-2.310972	0.348849	0.019154	0.748942	0.064710	-0.659190
55682	-10.095198	1.431946	-0.271494	-0.932880	-2.122404	0.120091	0.009910	0.753333	0.055830	-0.655190
55683	-9.859382	0.704466	0.010338	-1.394372	-1.400512	-0.127831	-0.000059	0.757401	0.046063	-0.651323
55684	-9.264367	0.089573	-0.397039	-1.058835	-0.720230	-0.628273	-0.008661	0.760754	0.038199	-0.647858
55685	-9.135897	-0.259118	-1.521254	-0.048262	-0.348045	-0.554103	-0.015739	0.764734	0.032249	-0.643346
55686	-9.361060	0.608382	-1.809852	0.089786	-1.256257	-0.342356	-0.021804	0.768993	0.027241	-0.638304
55687	-9.830283	0.659032	-2.499035	0.538500	-1.371074	0.244272	-0.026627	0.773000	0.022697	-0.633441
55688	-9.954660	0.179474	-1.841202	-0.270909	-0.899393	0.268654	-0.030450	0.777305	0.018125	-0.628125
55689	-10.290389	-0.257766	0.423683	-2.691590	-0.391650	0.124014	-0.033489	0.781797	0.013618	-0.622484
55690	-9.983421	-0.335053	1.996322	-4.286991	-0.174438	-0.573887	-0.036621	0.786228	0.008599	-0.616791
55691	-10.091781	-0.629539	2.205098	-4.635818	0.199413	-0.562292	-0.040939	0.790759	0.002293	-0.610752
55692	-10.350336	-0.406672	1.879071	-4.531095	0.028591	-0.310495	-0.047485	0.794929	-0.005583	-0.604816
55693	-11.083454	-0.227269	1.567970	-4.565904	-0.128572	0.409221	-0.054913	0.797925	-0.013347	-0.600101
55694	-11.471580	-0.320860	1.116857	-4.325123	-0.037968	0.875562	-0.062806	0.799492	-0.020506	-0.597032
55695	-11.354426	-0.383143	0.841898	-4.069820	0.039638	0.827489	-0.071306	0.799855	-0.028015	-0.595284
55696	-10.706902	-0.264250	1.031868	-4.088459	0.025917	0.139996	-0.079500	0.799344	-0.035881	-0.594510
55697	-10.412951	0.019721	1.173716	-4.177347	-0.162715	-0.203807	-0.086223	0.798597	-0.042820	-0.594116
55698	-11.136797	0.824835	1.791566	-5.105913	-0.797150	0.247739	-0.090231	0.797670	-0.047879	-0.594381
55699	-12.421849	0.982787	1.628175	-5.329349	-0.964462	1.526909	-0.094636	0.795605	-0.053219	-0.596007
55700	-13.428164	1.567434	2.262870	-6.254125	-1.355726	2.309163	-0.099575	0.791956	-0.059159	-0.599492
55701	-14.131224	1.528003	2.919111	-6.900372	-1.097927	2.904296	-0.102513	0.786493	-0.065032	-0.605549
55702	-14.790097	1.185176	4.202329	-7.942997	-0.371622	3.399839	-0.103776	0.779242	-0.070095	-0.614084
55703	-16.251648	-0.525673	9.769012	-12.710809	2.666957	4.011509	-0.099846	0.767883	-0.068742	-0.629016
55704	-12.413472	-5.379133	6.495336	-7.149579	6.397783	1.724710	-0.097584	0.748781	-0.057501	-0.653068
55705	-11.035480	-6.709850	-3.486436	3.533411	5.126836	2.025954	-0.107400	0.731954	-0.053532	-0.670703
55706	-11.558424	-3.997088	-4.755443	4.657336	1.811178	2.318943	-0.123473	0.715776	-0.059057	-0.684785
55707	-12.626815	-3.659408	-7.313663	7.529443	0.324289	3.205461	-0.137354	0.699381	-0.067813	-0.698141
55708	-14.182208	0.080033	-5.812710	5.470761	-3.258973	4.128352	-0.148593	0.683817	-0.080000	-0.709869
55709	-13.643320	2.337131	-4.167071	3.569928	-4.979056	3.279988	-0.159825	0.667742	-0.095316	-0.720758
55710	-12.872245	4.607591	-2.468548	1.461683	-6.490899	2.383233	-0.166612	0.652235	-0.105600	-0.731901
55711	-10.186590	4.359673	-3.083401	2.251993	-6.260975	-0.432174	-0.162512	0.639165	-0.101912	-0.744763
55712	-11.556433	4.397956	-2.765757	2.607492	-6.368126	0.825059	-0.152143	0.627182	-0.090026	-0.758545
55713	-10.849423	2.991456	-1.919916	2.759649	-4.700575	0.217647	-0.136446	0.616080	-0.072843	-0.772348
55714	-9.508925	1.326746	-2.636573	4.146342	-3.106738	-1.311481	-0.120405	0.604867	-0.056641	-0.785131
55715	-8.128890	0.478020	-2.826534	4.563107	-2.048564	-2.793501	-0.106261	0.594731	-0.044585	-0.795623
55716	-7.139615	0.532900	-2.858772	4.549367	-1.858081	-3.873337	-0.093397	0.586324	-0.035362	-0.803897
55717	-6.768646	0.608532	-3.178249	4.901824	-1.796871	-4.425249	-0.079336	0.579611	-0.025372	-0.810625
55718	-6.573205	0.681235	-3.276369	5.068670	-1.682895	-4.725742	-0.063161	0.574616	-0.012447	-0.815887
55719	-6.433289	0.332532	-3.707544	5.588422	-1.146097	-5.048927	-0.044441	0.570969	0.005116	-0.819752
55720	-5.692545	-0.734384	-4.206000	5.936837	0.216047	-5.896645	-0.025059	0.568267	0.025680	-0.822061
55721	-4.397259	-0.835636	-4.830276	6.058923	0.703222	-7.332130	-0.006389	0.566509	0.046726	-0.822705
55722	-3.748314	-1.296978	-4.084779	5.055486	1.431216	-7.620593	0.012277	0.566216	0.068548	-0.821310
55723	-4.243834	-1.883205	-3.963909	4.944299	2.207350	-6.994245	0.030676	0.568592	0.091949	-0.816889
55724	-6.399600	2.881373	-4.153787	6.520350	-2.312896	-5.495261	0.047931	0.573639	0.115855	-0.809456
55725	-10.509426	4.683263	-2.810208	7.082441	-4.346741	-1.373689	0.069401	0.580406	0.145543	-0.798204
55726	-13.512996	0.350251	-0.333727	4.495846	-1.036351	2.897253	0.095264	0.585416	0.179703	-0.784805
55727	-10.997139	-6.400888	4.154899	-3.016329	3.295617	2.803077	0.118189	0.588730	0.212123	-0.770995
55728	-14.732990	-9.836200	15.220545	-13.436584	-0.416485	9.275024	0.148013	0.586361	0.257692	-0.753570
55729	-13.424128	-13.186864	6.673120	-8.993719	5.288547	7.202686	0.188136	0.565992	0.306723	-0.741740
55730	-8.566357	-15.456759	4.128711	-10.412839	7.786684	2.844638	0.208688	0.556016	0.328736	-0.734321
55731	-9.998688	-12.028256	2.636798	-6.975087	5.858704	3.172900	0.215309	0.552750	0.335446	-0.731837
55732	-6.606253	-8.385408	-7.538204	1.336241	10.845077	-2.644737	0.213084	0.555685	0.329138	-0.733129
55733	-8.494748	-4.894136	-11.227930	6.845270	10.895890	-2.289435	0.209107	0.563243	0.322336	-0.731527
55734	-7.397505	1.984277	-17.798328	15.962491	10.240878	-5.851480	0.194309	0.576016	0.304273	-0.733394
55735	-10.037106	3.055436	-12.120030	13.367239	4.759754	-2.357664	0.181095	0.596666	0.289186	-0.726337
55736	-15.464632	1.419869	5.887987	-0.763531	-6.324796	5.522159	0.167461	0.621672	0.284516	-0.710304
55737	-19.152958	4.770032	19.864429	-9.891783	-18.344319	8.888968	0.166522	0.630845	0.294091	-0.698438
55738	-11.036389	2.878719	2.997483	1.245019	-5.607059	0.485709	0.200382	0.615547	0.328068	-0.687983
55739	-8.352631	-1.874825	-5.207464	3.640615	3.928254	-1.345067	0.223861	0.605647	0.355240	-0.675931
55740	-7.266681	2.133224	-4.217766	5.506790	0.893964	-3.178124	0.237484	0.599944	0.374197	-0.666067
55741	-7.567905	2.171742	-4.928625	5.916606	1.514901	-2.814366	0.246072	0.600552	0.387000	-0.654994
55742	-9.635893	0.364464	-2.273501	3.063524	0.142149	-0.392321	0.248441	0.606131	0.392028	-0.645907
55743	-10.324393	-0.935621	1.448449	-0.236000	-2.313961	0.392881	0.254249	0.609628	0.398658	-0.636226
55744	-10.391825	-3.584511	0.960451	-2.221680	-0.602002	0.978880	0.265686	0.608600	0.410902	-0.624641
55745	-10.061162	-4.196014	-0.207839	-2.252216	0.585104	0.839044	0.275520	0.605287	0.421396	-0.616556
55746	-10.170325	-3.674232	-0.010060	-1.955691	0.039540	0.822585	0.278782	0.602932	0.426395	-0.613955
55747	-10.225863	-1.778470	1.810934	-1.244843	-2.478613	0.351833	0.275068	0.603102	0.424853	-0.616527
55748	-10.311113	0.995834	2.900157	0.544869	-4.809677	-0.205849	0.267944	0.606282	0.421038	-0.619157
55749	-11.032054	2.974576	2.027872	2.709826	-5.260115	0.170010	0.267261	0.608044	0.422478	-0.616739
55750	-10.692716	1.107450	-1.046140	2.699967	-1.678226	0.509550	0.274342	0.606042	0.429014	-0.611062
55751	-9.407003	-0.177107	-3.401716	2.594310	1.226733	-0.228414	0.283311	0.602905	0.437860	-0.603754
55752	-8.455206	-0.855464	-4.455620	2.273682	2.658103	-0.877523	0.293464	0.599083	0.448734	-0.594657
55753	-9.596475	-0.937738	-4.854050	2.333954	2.822105	0.342075	0.301354	0.596506	0.458614	-0.585696
55754	-10.940088	-0.517869	-3.795086	2.254405	1.423862	1.467630	0.308214	0.593891	0.466288	-0.578682
55755	-11.086790	-1.605525	-2.752312	0.770839	0.863899	1.664639	0.313378	0.591626	0.470505	-0.574803
55756	-10.361126	-2.083640	-1.610558	-0.231675	0.160385	0.874168	0.316553	0.590330	0.471463	-0.573609
55757	-9.596229	-1.883471	-0.697686	-0.497918	-0.569551	-0.037746	0.318393	0.589836	0.471246	-0.573277
55758	-9.656879	-1.111468	0.560404	-0.273201	-1.992434	-0.285868	0.318516	0.589806	0.470949	-0.573483
55759	-9.374453	-1.147638	0.936917	-0.471445	-2.262061	-0.607469	0.320242	0.588271	0.472381	-0.572920
55760	-9.204026	-2.356103	-0.877962	-0.898231	-0.136393	-0.314757	0.321430	0.586648	0.473799	-0.572749
55761	-8.863080	-2.371140	-2.822078	-0.196107	1.719880	-0.371073	0.320960	0.585406	0.474368	-0.573812
55762	-9.016009	-0.236054	-4.718047	2.535104	2.669198	-0.323088	0.318813	0.584824	0.475519	-0.574648
55763	-9.896044	2.051725	-4.986572	4.872324	1.921411	0.166077	0.318475	0.583136	0.478800	-0.573827
55764	-9.891508	3.039819	-3.864445	5.371762	0.585735	-0.178533	0.323356	0.578691	0.485574	-0.569890
55765	-9.546646	1.582410	-2.787997	3.571965	0.219792	-0.399542	0.332623	0.572335	0.494769	-0.563026
55766	-8.804654	-1.272606	-1.930848	0.463890	0.449903	-0.732407	0.343947	0.565412	0.505078	-0.553991
55767	-8.666286	-3.875765	-1.643090	-2.187471	0.829835	-0.466515	0.352588	0.560021	0.513221	-0.546501
55768	-9.065065	-5.373643	-1.048526	-3.778419	0.437221	0.070754	0.356909	0.556600	0.518599	-0.542095
55769	-9.566290	-4.817197	-0.187975	-3.385385	-0.676348	0.328124	0.357779	0.554302	0.521817	-0.540787
55770	-9.886310	-3.699230	-0.491820	-2.157282	-0.714871	0.507205	0.356421	0.553102	0.523534	-0.541253
55771	-10.065768	-2.209909	-1.070159	-0.518394	-0.517869	0.522279	0.353221	0.553683	0.523030	-0.543240
55772	-10.254730	-0.318868	-1.614944	1.499462	-0.448019	0.454732	0.349743	0.554541	0.522088	-0.545516
55773	-10.355567	0.925868	-1.994691	2.843477	-0.388552	0.377372	0.348624	0.553451	0.522955	-0.546508
55774	-9.777339	1.122984	-2.049809	3.004282	-0.252110	-0.222603	0.349195	0.550818	0.524944	-0.546896
55775	-9.512654	0.782307	-1.655103	2.587031	-0.480228	-0.489686	0.349913	0.547639	0.527279	-0.547384
55776	-9.432695	0.586402	-1.523602	2.411754	-0.526557	-0.563539	0.349693	0.544438	0.529347	-0.548719
55777	-9.422916	-0.002389	-1.983676	2.019895	0.052614	-0.397638	0.348922	0.541376	0.531456	-0.550199
55778	-9.464378	-0.249480	-2.259164	1.921441	0.365791	-0.277784	0.348261	0.538147	0.534327	-0.551005
55779	-9.709982	0.113344	-2.134143	2.349928	0.130945	-0.152901	0.348221	0.534308	0.538144	-0.551053
55780	-10.083796	0.022333	-2.120339	2.398739	0.071947	0.208274	0.348997	0.529492	0.542587	-0.550853
55781	-10.211031	-0.065766	-1.692906	2.326847	-0.328016	0.267636	0.350496	0.523664	0.547706	-0.550406
55782	-9.940717	-0.316912	-1.068885	1.995087	-0.807949	-0.044025	0.352754	0.516848	0.553275	-0.549836
55783	-9.652670	-0.622626	-0.840157	1.695079	-0.893783	-0.294577	0.354484	0.510070	0.558152	-0.550124
55784	-9.784209	-0.508205	-0.846815	1.944149	-0.885620	-0.213690	0.354330	0.504136	0.561477	-0.552305
55785	-10.205523	-0.291890	-0.942448	2.391965	-0.847957	0.121286	0.352653	0.498843	0.563402	-0.556210
55786	-10.798279	0.046730	-1.187948	3.042547	-0.691925	0.592990	0.350607	0.493713	0.564019	-0.561431
55787	-11.190115	0.330034	-0.807335	3.489905	-1.066145	0.801472	0.350360	0.487776	0.563364	-0.567401
55788	-11.406720	-0.499840	-1.357699	2.988716	-0.327754	1.285225	0.351109	0.481146	0.563800	-0.572145
55789	-11.887126	-0.822770	0.554035	2.640840	-2.087252	1.630802	0.354651	0.473278	0.564805	-0.575523
55790	-11.006454	-2.127739	2.084918	1.042670	-3.179576	1.087609	0.360404	0.464429	0.567336	-0.576667
55791	-11.247853	-2.827328	4.551849	0.285571	-5.429393	1.397216	0.366016	0.454581	0.568953	-0.579380
55792	-11.943373	-1.809423	6.966625	1.390149	-7.765122	1.685533	0.372578	0.443181	0.567601	-0.585325
55793	-11.475492	-0.920294	7.050912	2.307644	-7.594317	1.106767	0.382520	0.429931	0.567122	-0.589245
55794	-11.343608	-3.429032	3.900379	0.368316	-3.959391	2.012102	0.395391	0.416107	0.566256	-0.591502
55795	-12.170745	-7.113105	1.702353	-2.599706	-1.197864	4.094546	0.407099	0.404085	0.559442	-0.598339
55796	-11.695850	-5.555618	-1.615987	-1.165812	2.496332	2.941008	0.413020	0.399156	0.545687	-0.610176
55797	-11.397098	-0.736862	-1.270578	3.192904	2.216382	1.000889	0.419209	0.398575	0.529866	-0.620197
55798	-8.843190	2.139782	-2.401717	5.011532	3.099554	-2.476371	0.429196	0.399199	0.516508	-0.624220
55799	-7.732435	3.313145	-2.628641	5.630666	3.230772	-3.852003	0.441407	0.402555	0.507568	-0.620874
55800	-8.674874	2.826081	-1.661488	5.141472	2.579305	-2.539228	0.456118	0.406799	0.503785	-0.610468
55801	-10.702182	0.770326	-1.567084	3.318088	3.066878	0.044025	0.474309	0.407104	0.503628	-0.596369
55802	-10.593195	-0.083101	-1.208305	2.063950	2.878551	0.243288	0.493549	0.404050	0.501828	-0.584228
55803	-9.831847	0.866789	-0.293014	2.517326	2.009785	-0.479189	0.513250	0.399700	0.499679	-0.571957
55804	-9.519849	1.040163	-0.141099	2.327345	1.997241	-0.740063	0.534191	0.392791	0.499832	-0.557247
55805	-10.167145	0.507119	-0.289604	1.533736	2.405561	-0.037160	0.554327	0.385975	0.499801	-0.542166
55806	-9.839619	-0.357195	-0.558115	0.272852	2.621110	-0.309932	0.574863	0.376743	0.501590	-0.525362
55807	-9.030028	-1.977406	-1.297222	-1.818382	2.920429	-1.135668	0.593860	0.366797	0.504152	-0.508548
55808	-8.156864	-2.955408	-2.026474	-3.242969	3.139565	-2.131895	0.609848	0.358783	0.505603	-0.493686
55809	-7.056838	-3.547671	-2.465639	-4.164365	3.038983	-3.341069	0.622408	0.354052	0.505211	-0.481681
55810	-6.474134	-3.454586	-2.150670	-4.153550	2.532994	-3.913295	0.631591	0.353369	0.503420	-0.472008
55811	-6.277822	-3.513354	-0.506979	-3.851833	0.851280	-3.775467	0.639282	0.354368	0.502670	-0.461590
55812	-6.185866	-4.000237	0.602735	-4.068170	-0.470344	-3.659953	0.645456	0.356911	0.503421	-0.450075
55813	-6.497484	-3.323128	1.286896	-3.321488	-0.954995	-3.257589	0.650146	0.361055	0.505043	-0.438042
