// General information: 
//  MT Manager version: 2021.0.0 
//  XDA version: 2021.0.0 build 5908 rev 109668 built on 2021-04-19
// Device information: 
//  DeviceId: 00B43DF2
//  ProductCode: MTW2-3A7G6
//  Firmware Version: 4.3.5
//  Hardware Version: 1.1.0
// Device settings: 
//  Filter Profile: human(46.1)
//  Option Flags: Orientation Smoother Disabled, Position/Velocity Smoother Disabled, Continuous Zero Rotation Update Disabled, AHS Disabled, ICC Disabled
// Coordinate system: ENU
PacketCounter	Acc_X	Acc_Y	Acc_Z	FreeAcc_E	FreeAcc_N	FreeAcc_U	Quat_q0	Quat_q1	Quat_q2	Quat_q3
54636	9.504252	-0.582729	-2.322525	-0.132565	-0.063043	-0.012537	-0.427712	0.592344	0.516702	0.446330
54637	9.472513	-0.517654	-2.330670	-0.069227	-0.083821	-0.044542	-0.427875	0.592216	0.516917	0.446094
54638	9.527360	-0.469567	-2.307806	-0.013834	-0.052832	0.001286	-0.428072	0.592108	0.517091	0.445846
54639	9.507995	-0.479311	-2.314806	-0.022687	-0.062004	-0.015459	-0.428231	0.592059	0.517221	0.445608
54640	9.595568	-0.512705	-2.347760	-0.049684	-0.070955	0.078838	-0.428431	0.591997	0.517263	0.445450
54641	9.541097	-0.593358	-2.345071	-0.130012	-0.074791	0.029135	-0.428683	0.591930	0.517239	0.445324
54642	9.473926	-0.676005	-2.334870	-0.212625	-0.074667	-0.034492	-0.428934	0.591824	0.517274	0.445183
54643	9.444245	-0.662794	-2.290299	-0.195705	-0.041261	-0.074180	-0.429178	0.591646	0.517407	0.445029
54644	9.407369	-0.627545	-2.285360	-0.161235	-0.048129	-0.112844	-0.429367	0.591482	0.517675	0.444753
54645	9.366843	-0.520808	-2.237108	-0.053110	-0.017997	-0.168492	-0.429490	0.591329	0.517987	0.444475
54646	9.459200	-0.603952	-2.309560	-0.134799	-0.055713	-0.057995	-0.429484	0.591253	0.518364	0.444141
54647	9.608003	-0.510472	-2.352270	-0.034526	-0.066370	0.091952	-0.429507	0.591202	0.518665	0.443837
54648	9.570105	-0.389348	-2.328624	0.083516	-0.058314	0.043813	-0.429385	0.591073	0.518969	0.443772
54649	9.583530	-0.490898	-2.335434	-0.021874	-0.050075	0.063359	-0.429218	0.590957	0.519179	0.443841
54650	9.594740	-0.528659	-2.327319	-0.062685	-0.035209	0.074161	-0.429119	0.590865	0.519278	0.443944
54651	9.528696	-0.554486	-2.302131	-0.093983	-0.023568	0.005353	-0.429081	0.590788	0.519341	0.444010
54652	9.511381	-0.528528	-2.233314	-0.065741	0.036276	-0.028631	-0.429112	0.590724	0.519359	0.444043
54653	9.554293	-0.543202	-2.281640	-0.082117	-0.001055	0.024931	-0.429163	0.590622	0.519384	0.444100
54654	9.468441	-0.545302	-2.253171	-0.089056	0.004674	-0.064992	-0.429272	0.590464	0.519395	0.444192
54655	9.418567	-0.559015	-2.254998	-0.108104	-0.009791	-0.112423	-0.429321	0.590290	0.519499	0.444255
54656	9.441571	-0.565165	-2.245121	-0.114345	0.004411	-0.092083	-0.429357	0.590139	0.519643	0.444252
54657	9.491811	-0.530224	-2.298642	-0.082824	-0.038488	-0.032553	-0.429319	0.589994	0.519884	0.444198
54658	9.563329	-0.488646	-2.280621	-0.038625	-0.006429	0.030876	-0.429272	0.589852	0.520135	0.444140
54659	9.536585	-0.465097	-2.294187	-0.020803	-0.025486	0.006935	-0.429208	0.589754	0.520343	0.444089
54660	9.487924	-0.459842	-2.291376	-0.020854	-0.031671	-0.041243	-0.429116	0.589708	0.520524	0.444026
54661	9.433780	-0.408758	-2.286233	0.024717	-0.039421	-0.097339	-0.428947	0.589714	0.520742	0.443925
54662	9.523752	-0.367971	-2.298346	0.067790	-0.028484	-0.008901	-0.428698	0.589793	0.520950	0.443816
54663	9.529486	-0.375186	-2.355830	0.054523	-0.076014	0.010400	-0.428410	0.589929	0.521079	0.443763
54664	9.494111	-0.400576	-2.369792	0.024475	-0.089531	-0.019532	-0.428130	0.590136	0.521115	0.443715
54665	9.529061	-0.419815	-2.437632	0.002447	-0.140084	0.031177	-0.427872	0.590402	0.521069	0.443663
54666	9.541534	-0.444622	-2.423708	-0.019436	-0.116985	0.041188	-0.427660	0.590679	0.520941	0.443649
54667	9.539705	-0.496605	-2.442826	-0.071575	-0.128618	0.046234	-0.427484	0.590912	0.520763	0.443719
54668	9.537975	-0.541527	-2.427871	-0.114707	-0.109861	0.043049	-0.427381	0.591058	0.520581	0.443837
54669	9.485256	-0.575314	-2.440605	-0.152647	-0.132652	-0.003675	-0.427349	0.591112	0.520410	0.443997
54670	9.511114	-0.489705	-2.428692	-0.065425	-0.125463	0.014806	-0.427367	0.591100	0.520266	0.444165
54671	9.507701	-0.469696	-2.396407	-0.043973	-0.099923	0.003006	-0.427379	0.591093	0.520121	0.444331
54672	9.510876	-0.452062	-2.383581	-0.025889	-0.091562	0.002277	-0.427388	0.591096	0.519958	0.444510
54673	9.502488	-0.386462	-2.346821	0.041178	-0.067519	-0.017385	-0.427414	0.591107	0.519739	0.444726
54674	9.536416	-0.411428	-2.350878	0.018168	-0.065574	0.017598	-0.427394	0.591201	0.519450	0.444958
54675	9.609492	-0.456871	-2.350096	-0.021353	-0.048533	0.090403	-0.427429	0.591314	0.519089	0.445195
54676	9.520671	-0.531324	-2.344922	-0.098359	-0.062850	0.006198	-0.427563	0.591418	0.518660	0.445427
54677	9.528291	-0.614701	-2.349090	-0.177170	-0.064726	0.018326	-0.427825	0.591474	0.518249	0.445580
54678	9.477376	-0.679257	-2.330909	-0.238374	-0.060562	-0.032367	-0.428166	0.591455	0.517902	0.445683
54679	9.410923	-0.681841	-2.292719	-0.237246	-0.045602	-0.105547	-0.428558	0.591361	0.517716	0.445646
54680	9.475205	-0.671670	-2.289459	-0.217833	-0.034977	-0.044187	-0.428958	0.591205	0.517655	0.445539
54681	9.555353	-0.666126	-2.258383	-0.200534	0.006997	0.026444	-0.429379	0.590980	0.517659	0.445427
54682	9.539263	-0.634161	-2.273886	-0.167029	-0.020880	0.012887	-0.429889	0.590708	0.517664	0.445290
54683	9.537385	-0.651915	-2.244803	-0.177906	0.001243	0.005367	-0.430454	0.590415	0.517662	0.445135
54684	9.544076	-0.647630	-2.192920	-0.164219	0.044920	-0.000006	-0.431047	0.590103	0.517666	0.444971
54685	9.520356	-0.664536	-2.203904	-0.178598	0.022465	-0.019651	-0.431645	0.589757	0.517702	0.444808
54686	9.418436	-0.660064	-2.167834	-0.174225	0.027225	-0.127078	-0.432177	0.589430	0.517772	0.444642
54687	9.438862	-0.664394	-2.189267	-0.176202	0.006100	-0.102109	-0.432555	0.589099	0.517989	0.444462
54688	9.679588	-0.634947	-2.260395	-0.135246	-0.016656	0.146650	-0.432911	0.588714	0.518216	0.444359
54689	9.486822	-0.504480	-2.207083	-0.016429	-0.022838	-0.059497	-0.433196	0.588285	0.518450	0.444377
54690	9.438624	-0.464980	-2.191351	0.015956	-0.025570	-0.111918	-0.433276	0.587880	0.518722	0.444518
54691	9.447018	-0.468840	-2.240224	0.002777	-0.073140	-0.092646	-0.433237	0.587585	0.518983	0.444641
54692	9.584892	-0.529711	-2.282403	-0.057905	-0.079449	0.053946	-0.433156	0.587356	0.519234	0.444730
54693	9.648833	-0.611203	-2.247652	-0.136531	-0.026703	0.112338	-0.433306	0.587117	0.519336	0.444780
54694	9.709059	-0.574548	-2.215212	-0.094945	0.009492	0.161980	-0.433679	0.586780	0.519360	0.444833
54695	9.664535	-0.547700	-2.159115	-0.066971	0.042071	0.104909	-0.434252	0.586307	0.519304	0.444963
54696	9.629643	-0.562763	-2.157497	-0.083572	0.023559	0.071338	-0.434919	0.585737	0.519253	0.445122
54697	9.490675	-0.561474	-2.094764	-0.085862	0.040197	-0.077843	-0.435648	0.585180	0.519218	0.445183
54698	9.534397	-0.568068	-2.067530	-0.084438	0.063648	-0.040742	-0.436396	0.584717	0.519195	0.445085
54699	9.608012	-0.536289	-2.036438	-0.040652	0.095906	0.022846	-0.437152	0.584301	0.519171	0.444917
54700	9.677085	-0.624704	-2.046248	-0.118292	0.096088	0.096910	-0.437966	0.583875	0.519111	0.444746
54701	9.706908	-0.852162	-2.071131	-0.337445	0.080909	0.143185	-0.438929	0.583305	0.519074	0.444589
54702	9.503525	-1.252630	-2.108410	-0.745176	0.013528	-0.026168	-0.440178	0.582395	0.519334	0.444242
54703	9.180530	-0.898581	-1.984464	-0.402428	0.027392	-0.385866	-0.441493	0.581129	0.520179	0.443607
54704	9.382637	-0.702178	-1.954490	-0.192540	0.077734	-0.205199	-0.442512	0.579803	0.521543	0.442723
54705	9.571831	-0.535228	-1.931043	-0.017232	0.128564	-0.034215	-0.443457	0.578423	0.523086	0.441761
54706	9.591268	-0.449589	-1.937707	0.064291	0.122811	-0.018299	-0.444387	0.577099	0.524637	0.440720
54707	9.605408	-0.378224	-1.990656	0.131325	0.073385	0.002963	-0.445307	0.575886	0.526098	0.439634
54708	9.634746	-0.213300	-2.054787	0.294154	0.013373	0.036641	-0.446119	0.574828	0.527402	0.438631
54709	9.613170	-0.163423	-2.086290	0.341110	-0.019300	0.019688	-0.446745	0.574004	0.528473	0.437784
54710	9.591123	-0.324524	-2.138494	0.178705	-0.064301	0.017472	-0.447281	0.573427	0.529283	0.437014
54711	9.703358	-0.482268	-2.185823	0.029759	-0.078305	0.145151	-0.447817	0.572952	0.529891	0.436350
54712	9.769956	-0.729715	-2.274696	-0.210546	-0.144466	0.241842	-0.448566	0.572375	0.530324	0.435812
54713	9.587806	-0.864669	-2.266223	-0.349632	-0.178727	0.069380	-0.449638	0.571527	0.530736	0.435318
54714	9.485597	-0.776707	-2.209365	-0.261486	-0.158588	-0.047055	-0.450768	0.570492	0.531357	0.434750
54715	9.636987	-0.791806	-2.265140	-0.264540	-0.192452	0.113153	-0.451954	0.569330	0.532136	0.434087
54716	9.635312	-0.858717	-2.243047	-0.326708	-0.182416	0.110410	-0.453354	0.568019	0.532954	0.433341
54717	9.614716	-0.887061	-2.277655	-0.349839	-0.235478	0.098896	-0.455009	0.566521	0.533853	0.432460
54718	9.521295	-0.776477	-2.196590	-0.237164	-0.193669	-0.015280	-0.456804	0.564862	0.534854	0.431501
54719	9.542327	-0.693276	-2.157723	-0.146739	-0.168945	-0.007469	-0.458566	0.563119	0.535943	0.430558
54720	9.443337	-0.719547	-2.119528	-0.174340	-0.167826	-0.110720	-0.460241	0.561365	0.537092	0.429627
54721	9.527611	-0.825470	-2.097674	-0.273266	-0.144976	-0.026917	-0.461837	0.559570	0.538366	0.428661
54722	9.448013	-0.828122	-2.115938	-0.278517	-0.191920	-0.101173	-0.463373	0.557743	0.539788	0.427595
54723	9.364622	-0.787304	-2.103347	-0.242557	-0.204858	-0.187758	-0.464760	0.555920	0.541416	0.426403
54724	9.539647	-0.568864	-2.071369	-0.018620	-0.137854	-0.035178	-0.465994	0.554175	0.543128	0.425150
54725	9.596033	-0.545434	-2.053955	0.003809	-0.110037	0.015230	-0.467091	0.552546	0.544765	0.423969
54726	9.428782	-0.599481	-2.036827	-0.062632	-0.128054	-0.148855	-0.468014	0.551043	0.546389	0.422816
54727	9.681498	-0.753846	-2.189031	-0.201677	-0.229614	0.137093	-0.468827	0.549618	0.548070	0.421593
54728	9.457552	-0.777866	-2.181529	-0.240167	-0.263564	-0.082205	-0.469646	0.548127	0.549889	0.420251
54729	9.654638	-0.654113	-2.200562	-0.114308	-0.228399	0.107853	-0.470290	0.546504	0.551997	0.418880
54730	10.023002	-0.607920	-2.226252	-0.062238	-0.167631	0.471006	-0.471055	0.544729	0.554095	0.417560
54731	9.783123	-0.564868	-2.078914	-0.048535	-0.067360	0.204476	-0.472161	0.542779	0.555975	0.416348
54732	9.432757	-0.620811	-1.966303	-0.132585	-0.034935	-0.158162	-0.473378	0.540797	0.557855	0.415029
54733	9.437515	-0.712470	-2.005470	-0.225777	-0.081175	-0.141149	-0.474657	0.538751	0.559845	0.413549
54734	9.329670	-0.715751	-2.022012	-0.235283	-0.120277	-0.243270	-0.475982	0.536629	0.562000	0.411858
54735	9.485232	-0.895363	-2.106530	-0.405483	-0.185580	-0.065385	-0.477319	0.534331	0.564448	0.409946
54736	9.482470	-0.617706	-2.006470	-0.145977	-0.059843	-0.101878	-0.478830	0.531760	0.567029	0.407959
54737	9.736465	-0.414252	-1.969390	0.049614	0.050583	0.129336	-0.480367	0.529032	0.569561	0.406169
54738	9.549385	-0.393790	-1.879723	0.044550	0.096065	-0.072669	-0.482074	0.526184	0.571810	0.404683
54739	9.396201	-0.579226	-1.787520	-0.165428	0.120702	-0.232636	-0.483689	0.523318	0.574062	0.403282
54740	9.580751	-0.451170	-1.733064	-0.056629	0.217156	-0.068588	-0.485225	0.520441	0.576305	0.401959
54741	9.627899	-0.226036	-1.672129	0.141506	0.306720	-0.043890	-0.486619	0.517617	0.578450	0.400838
54742	9.525546	-0.157634	-1.664571	0.188797	0.292902	-0.147792	-0.487837	0.514964	0.580412	0.399936
54743	9.444637	-0.021255	-1.639282	0.300573	0.313772	-0.236674	-0.488765	0.512668	0.582209	0.399140
54744	9.373963	-0.035496	-1.619423	0.264231	0.311619	-0.308582	-0.489350	0.510713	0.583845	0.398540
54745	9.542402	-0.153669	-1.669066	0.137195	0.276230	-0.129110	-0.489663	0.509089	0.585375	0.397988
54746	9.725008	-0.251937	-1.721749	0.031247	0.245283	0.063674	-0.489939	0.507662	0.586718	0.397494
54747	9.516841	-0.157596	-1.696460	0.103293	0.244744	-0.148191	-0.490099	0.506347	0.588007	0.397069
54748	9.489676	-0.159961	-1.753903	0.093762	0.186652	-0.163228	-0.490028	0.505229	0.589312	0.396646
54749	9.490787	-0.192976	-1.828390	0.056361	0.116998	-0.146334	-0.489739	0.504302	0.590679	0.396148
54750	9.632843	-0.084091	-1.901409	0.155333	0.107098	0.004565	-0.489256	0.503487	0.592070	0.395704
54751	9.412662	0.056425	-1.898310	0.273135	0.105493	-0.214814	-0.488482	0.502858	0.593413	0.395450
54752	9.517667	0.080363	-1.994722	0.286561	0.056417	-0.092299	-0.487252	0.502515	0.594757	0.395383
54753	9.485615	0.083454	-2.070476	0.277055	-0.001651	-0.107335	-0.485900	0.502544	0.595821	0.395407
54754	9.455404	-0.045336	-2.194574	0.150882	-0.127751	-0.107859	-0.484442	0.502969	0.596690	0.395346
54755	9.793685	-0.139590	-2.317111	0.053213	-0.166217	0.250822	-0.483066	0.503532	0.597344	0.395327
54756	10.097359	-0.313167	-2.421941	-0.121188	-0.213491	0.572891	-0.482138	0.503939	0.597710	0.395387
54757	10.067143	-0.205693	-2.315514	-0.043461	-0.088954	0.518889	-0.481786	0.504083	0.597714	0.395627
54758	9.982058	-0.076176	-2.203654	0.062373	0.019841	0.409792	-0.481910	0.503974	0.597420	0.396059
54759	9.915832	-0.083219	-2.015004	0.024288	0.171187	0.304672	-0.482387	0.503736	0.596871	0.396608
54760	9.831050	-0.175615	-1.927261	-0.072215	0.199989	0.204770	-0.483299	0.503475	0.596087	0.397008
54761	9.697576	-0.136818	-1.869158	-0.025908	0.211420	0.062028	-0.484468	0.503255	0.595158	0.397256
54762	9.579900	-0.153701	-1.821551	-0.028554	0.206723	-0.062174	-0.485710	0.503107	0.594219	0.397332
54763	9.481714	-0.177309	-1.801814	-0.032288	0.180848	-0.161415	-0.486882	0.502996	0.593364	0.397318
54764	9.489913	-0.262158	-1.814705	-0.093163	0.137908	-0.148704	-0.487907	0.502987	0.592606	0.397201
54765	9.550192	-0.131526	-1.852035	0.061653	0.123990	-0.084673	-0.488905	0.503081	0.591785	0.397079
54766	9.474665	-0.020913	-1.867433	0.193721	0.101116	-0.158195	-0.489649	0.503299	0.590943	0.397139
54767	9.266882	-0.056982	-1.813508	0.167039	0.093628	-0.371794	-0.490056	0.503799	0.589982	0.397433
54768	9.305369	-0.257818	-1.827426	-0.015333	0.045097	-0.326193	-0.490045	0.504609	0.589079	0.397759
54769	9.653808	-0.619884	-1.943909	-0.342558	-0.064332	0.048223	-0.489956	0.505456	0.588218	0.398067
54770	9.564852	-0.712669	-1.901458	-0.428858	-0.057648	-0.044240	-0.490035	0.506195	0.587462	0.398146
54771	9.541482	-0.668251	-1.871584	-0.377520	-0.024522	-0.073790	-0.490170	0.506790	0.586929	0.398009
54772	9.456371	-0.530363	-1.820595	-0.238016	0.035650	-0.171066	-0.490275	0.507362	0.586575	0.397672
54773	9.479882	-0.597172	-1.879127	-0.281054	-0.020057	-0.134027	-0.490342	0.507962	0.586367	0.397131
54774	9.438185	-0.707773	-1.881614	-0.377459	-0.037738	-0.170239	-0.490292	0.508573	0.586384	0.396386
54775	9.483977	-0.703055	-1.894112	-0.360903	-0.023353	-0.122644	-0.490147	0.509079	0.586648	0.395524
54776	9.539586	-0.735798	-1.927267	-0.379958	-0.029937	-0.060040	-0.489920	0.509530	0.587125	0.394514
54777	9.592250	-0.680413	-1.926041	-0.320182	0.014753	-0.010592	-0.489617	0.509934	0.587779	0.393394
54778	9.485637	-0.672981	-1.948571	-0.304848	-0.002611	-0.110413	-0.489271	0.510315	0.588529	0.392207
54779	9.498217	-0.741820	-2.039671	-0.353334	-0.071657	-0.076332	-0.488791	0.510719	0.589446	0.390900
54780	9.448191	-0.666191	-2.045995	-0.277272	-0.044060	-0.126651	-0.488191	0.511097	0.590477	0.389597
54781	9.418495	-0.534798	-2.101482	-0.140998	-0.047285	-0.148937	-0.487368	0.511476	0.591630	0.388379
54782	9.580249	-0.429353	-2.181249	-0.029391	-0.034400	0.022006	-0.486378	0.511938	0.592741	0.387317
54783	9.718820	-0.414604	-2.224201	-0.015765	-0.007676	0.165991	-0.485333	0.512442	0.593709	0.386476
54784	9.751497	-0.463347	-2.280003	-0.061330	-0.032098	0.212279	-0.484416	0.513010	0.594379	0.385844
54785	9.682134	-0.551015	-2.366068	-0.137041	-0.121161	0.167899	-0.483646	0.513541	0.594858	0.385366
54786	9.527049	-0.516946	-2.348402	-0.111406	-0.114112	0.011845	-0.482981	0.513924	0.595293	0.385016
54787	9.353267	-0.475078	-2.302843	-0.084649	-0.085855	-0.169150	-0.482236	0.514249	0.595824	0.384695
54788	9.417001	-0.517142	-2.327973	-0.130550	-0.082949	-0.099663	-0.481390	0.514561	0.596487	0.384309
54789	9.480098	-0.486114	-2.346579	-0.106392	-0.059180	-0.035155	-0.480595	0.514847	0.597170	0.383860
54790	9.570433	-0.520618	-2.413522	-0.137808	-0.086160	0.069765	-0.479799	0.515111	0.597891	0.383380
54791	9.576844	-0.608617	-2.454636	-0.225380	-0.119755	0.089152	-0.479188	0.515240	0.598571	0.382909
54792	9.592003	-0.561682	-2.435096	-0.191035	-0.071602	0.097411	-0.478687	0.515190	0.599352	0.382381
54793	9.371106	-0.400067	-2.422952	-0.040075	-0.068656	-0.125478	-0.478243	0.515117	0.600129	0.381816
54794	9.330819	-0.451067	-2.422026	-0.098612	-0.069333	-0.162854	-0.477603	0.515083	0.601037	0.381233
54795	9.514056	-0.513783	-2.480826	-0.162072	-0.070692	0.031317	-0.476892	0.515084	0.601988	0.380622
54796	9.491830	-0.554439	-2.479450	-0.213011	-0.062100	0.010787	-0.476255	0.515005	0.602923	0.380045
54797	9.498962	-0.473517	-2.499037	-0.141661	-0.045422	0.019785	-0.475626	0.514841	0.603874	0.379546
54798	9.274788	-0.391555	-2.445568	-0.080882	-0.019364	-0.213268	-0.474931	0.514664	0.604821	0.379147
54799	9.186388	-0.448158	-2.470017	-0.146482	-0.056728	-0.290775	-0.473921	0.514575	0.605934	0.378755
54800	9.551585	-0.498638	-2.601987	-0.197929	-0.073539	0.097262	-0.472781	0.514543	0.607104	0.378349
54801	9.450669	-0.353636	-2.568986	-0.079297	-0.017370	-0.013033	-0.471742	0.514508	0.608192	0.377947
54802	9.353525	-0.190018	-2.608883	0.069864	-0.027107	-0.100576	-0.470468	0.514465	0.609303	0.377803
54803	9.488253	-0.150878	-2.710692	0.098191	-0.057566	0.055671	-0.469023	0.514483	0.610395	0.377813
54804	9.476479	-0.008645	-2.700432	0.208326	-0.002415	0.038838	-0.467526	0.514566	0.611343	0.378022
54805	9.496354	0.042316	-2.760303	0.240789	-0.023883	0.073827	-0.465985	0.514755	0.612167	0.378334
54806	9.646740	-0.017920	-2.795000	0.157249	-0.008654	0.229577	-0.464598	0.515091	0.612724	0.378681
54807	9.665235	-0.112184	-2.846317	0.052996	-0.054881	0.263275	-0.463497	0.515453	0.613018	0.379061
54808	9.511071	-0.119082	-2.876866	0.042774	-0.117263	0.123882	-0.462694	0.515777	0.613141	0.379402
54809	9.362914	-0.035560	-2.855000	0.116661	-0.114790	-0.025468	-0.462062	0.516134	0.613161	0.379655
54810	9.174230	-0.033288	-2.852634	0.118909	-0.156725	-0.207147	-0.461411	0.516596	0.613164	0.379813
54811	9.324171	-0.077016	-2.878105	0.067626	-0.137696	-0.055329	-0.460660	0.517076	0.613224	0.379976
54812	9.579632	-0.067977	-2.922696	0.066435	-0.097929	0.202407	-0.459972	0.517508	0.613216	0.380233
54813	9.576089	-0.181835	-2.923492	-0.052306	-0.114372	0.200581	-0.459445	0.517877	0.613089	0.380572
54814	9.461928	-0.080181	-2.949138	0.051716	-0.150430	0.097239	-0.459094	0.518177	0.612864	0.380949
54815	9.470184	-0.128935	-2.918240	-0.005039	-0.127837	0.096942	-0.458807	0.518507	0.612582	0.381300
54816	9.487565	-0.238225	-2.908570	-0.116212	-0.135011	0.111963	-0.458692	0.518748	0.612244	0.381652
54817	9.376214	-0.389965	-2.832161	-0.273084	-0.124473	-0.014906	-0.458787	0.518863	0.611948	0.381858
54818	9.405036	-0.429684	-2.818019	-0.312099	-0.114550	0.009228	-0.459080	0.518810	0.611780	0.381846
54819	9.398021	-0.376030	-2.789055	-0.258546	-0.085016	-0.006110	-0.459557	0.518568	0.611720	0.381697
54820	9.400056	-0.274928	-2.738372	-0.161915	-0.024973	-0.019400	-0.460117	0.518184	0.611762	0.381477
54821	9.393077	-0.234718	-2.737775	-0.117006	-0.025979	-0.026675	-0.460685	0.517724	0.611846	0.381281
54822	9.378513	-0.198889	-2.669462	-0.089257	0.034182	-0.060101	-0.461187	0.517249	0.611981	0.381102
54823	9.518247	-0.105207	-2.652164	-0.002950	0.099287	0.068213	-0.461633	0.516811	0.612069	0.381015
54824	9.449396	-0.073111	-2.586994	0.020999	0.140059	-0.016315	-0.461998	0.516418	0.612068	0.381109
54825	9.401848	-0.105760	-2.606909	-0.005669	0.094586	-0.056001	-0.462234	0.516155	0.612012	0.381268
54826	9.344065	-0.098777	-2.610681	0.003227	0.070268	-0.110522	-0.462323	0.516006	0.611937	0.381482
54827	9.367356	-0.120101	-2.603693	-0.022367	0.075474	-0.089786	-0.462238	0.515945	0.611915	0.381702
54828	9.419618	-0.150574	-2.608873	-0.057178	0.077428	-0.037779	-0.462094	0.515925	0.611908	0.381915
54829	9.399689	-0.190355	-2.646341	-0.092981	0.028690	-0.046212	-0.461932	0.515891	0.611961	0.382071
54830	9.407687	-0.154019	-2.656592	-0.059406	0.028440	-0.036111	-0.461791	0.515877	0.612055	0.382111
54831	9.379093	-0.131617	-2.698754	-0.030617	-0.012437	-0.052211	-0.461686	0.515928	0.612172	0.381981
54832	9.404555	-0.090755	-2.709446	0.010484	-0.003325	-0.025202	-0.461574	0.516049	0.612294	0.381758
54833	9.442632	-0.128515	-2.713321	-0.026455	0.002568	0.012852	-0.461473	0.516193	0.612402	0.381513
54834	9.366971	-0.167991	-2.730110	-0.057310	-0.035017	-0.054750	-0.461407	0.516361	0.612488	0.381226
54835	9.441025	-0.217786	-2.788221	-0.096464	-0.071620	0.033130	-0.461313	0.516537	0.612621	0.380889
54836	9.517827	-0.121872	-2.792490	-0.000611	-0.030514	0.107038	-0.461366	0.516708	0.612656	0.380536
54837	9.415956	-0.006130	-2.743690	0.112774	0.012864	-0.005791	-0.461369	0.516861	0.612638	0.380353
54838	9.501547	-0.066222	-2.757102	0.055271	0.016177	0.080850	-0.461281	0.517076	0.612559	0.380295
54839	9.542549	-0.070787	-2.722018	0.045695	0.061238	0.110456	-0.461279	0.517323	0.612322	0.380343
54840	9.445252	-0.106961	-2.740117	0.020874	0.009628	0.022553	-0.461308	0.517602	0.611978	0.380481
54841	9.496066	-0.180312	-2.778198	-0.041396	-0.027706	0.082952	-0.461386	0.517942	0.611547	0.380617
54842	9.482631	-0.307854	-2.760189	-0.162215	-0.040587	0.066874	-0.461623	0.518242	0.611060	0.380704
54843	9.409465	-0.344097	-2.711073	-0.194656	-0.025701	-0.016372	-0.461980	0.518452	0.610594	0.380732
54844	9.323683	-0.316794	-2.698344	-0.157613	-0.038078	-0.102580	-0.462383	0.518556	0.610210	0.380718
54845	9.369278	-0.128149	-2.676513	0.030751	0.023015	-0.067841	-0.462683	0.518660	0.609866	0.380762
54846	9.383037	-0.132408	-2.678891	0.032021	0.018853	-0.053897	-0.462842	0.518770	0.609558	0.380911
54847	9.504941	-0.137170	-2.704222	0.031896	0.022851	0.070328	-0.462960	0.518951	0.609197	0.381099
54848	9.348586	-0.158334	-2.674737	0.015362	-0.000279	-0.087714	-0.463077	0.519181	0.608790	0.381295
54849	9.409758	-0.076989	-2.646328	0.093347	0.053508	-0.038183	-0.463121	0.519492	0.608354	0.381513
54850	9.395165	-0.137119	-2.674831	0.044182	0.009327	-0.043316	-0.463087	0.519908	0.607889	0.381728
54851	9.403287	-0.367262	-2.720429	-0.169627	-0.072199	-0.018636	-0.463061	0.520353	0.607471	0.381819
54852	9.304954	-0.556657	-2.735917	-0.344391	-0.144629	-0.105074	-0.463106	0.520716	0.607219	0.381671
54853	9.384151	-0.537208	-2.745207	-0.318632	-0.124747	-0.026475	-0.463254	0.520911	0.607183	0.381284
54854	9.411413	-0.411091	-2.739121	-0.188925	-0.085545	-0.004352	-0.463503	0.520909	0.607310	0.380780
54855	9.373282	-0.285592	-2.753440	-0.054606	-0.083671	-0.039693	-0.463786	0.520886	0.607452	0.380240
54856	9.364386	-0.235127	-2.733509	-0.001115	-0.053911	-0.054811	-0.464028	0.520853	0.607630	0.379705
54857	9.359983	-0.282986	-2.747470	-0.039569	-0.071476	-0.054036	-0.464198	0.520875	0.607788	0.379215
54858	9.472335	-0.291958	-2.738098	-0.046869	-0.028304	0.051619	-0.464391	0.520909	0.607891	0.378766
54859	9.487999	-0.325201	-2.772027	-0.067632	-0.058447	0.076904	-0.464638	0.520913	0.607936	0.378384
54860	9.562917	-0.306772	-2.814463	-0.036998	-0.073783	0.160169	-0.464974	0.520871	0.607897	0.378094
54861	9.510425	-0.292065	-2.755324	-0.024313	-0.032198	0.093052	-0.465401	0.520782	0.607757	0.377915
54862	9.399291	-0.269295	-2.703689	-0.001629	-0.014613	-0.028573	-0.465765	0.520713	0.607571	0.377861
54863	9.378851	-0.323416	-2.710948	-0.047537	-0.041581	-0.044745	-0.466048	0.520703	0.607353	0.377875
54864	9.349721	-0.396402	-2.680251	-0.119318	-0.038047	-0.079113	-0.466297	0.520702	0.607145	0.377904
54865	9.345295	-0.380338	-2.628053	-0.108477	0.009593	-0.098059	-0.466466	0.520747	0.606988	0.377887
54866	9.407761	-0.292786	-2.626847	-0.020397	0.041579	-0.040796	-0.466561	0.520828	0.606847	0.377884
54867	9.429492	-0.261308	-2.642099	0.015216	0.037475	-0.016634	-0.466558	0.520974	0.606663	0.377981
54868	9.307210	-0.149499	-2.627548	0.126312	0.036722	-0.141430	-0.466387	0.521282	0.606387	0.378210
54869	9.350453	-0.066665	-2.631891	0.206974	0.059431	-0.101051	-0.465946	0.521814	0.606009	0.378625
54870	9.672504	-0.052043	-2.754396	0.235277	0.035157	0.241673	-0.465417	0.522633	0.605347	0.379206
54871	9.527690	0.289966	-2.663690	0.560241	0.137508	0.067769	-0.464786	0.523783	0.604232	0.380169
54872	9.593828	0.342465	-2.631784	0.605637	0.187445	0.121252	-0.463776	0.525319	0.602682	0.381740
54873	9.627952	0.274039	-2.690237	0.546114	0.118636	0.172181	-0.462581	0.527292	0.600572	0.383791
54874	9.640431	0.164409	-2.704457	0.439813	0.075539	0.191305	-0.461223	0.529638	0.597941	0.386295
54875	9.520907	-0.253721	-2.695487	0.027720	-0.027328	0.085603	-0.459831	0.532266	0.594861	0.389086
54876	9.232062	-1.148052	-2.726399	-0.847783	-0.269177	-0.159136	-0.458617	0.534870	0.591787	0.391629
54877	8.992816	-1.423835	-2.646837	-1.125433	-0.298063	-0.402674	-0.457714	0.536940	0.589355	0.393515
54878	8.924834	-1.073919	-2.532863	-0.789601	-0.166787	-0.508383	-0.456745	0.538459	0.587844	0.394822
54879	9.317529	-0.876865	-2.514128	-0.601219	-0.018850	-0.140860	-0.455686	0.539472	0.587049	0.395846
54880	9.499515	-0.459788	-2.520905	-0.196218	0.072559	0.024151	-0.454704	0.540124	0.586601	0.396749
54881	9.518660	-0.205363	-2.508398	0.043602	0.119963	0.032251	-0.453678	0.540805	0.586177	0.397621
54882	9.566980	-0.090770	-2.582257	0.155013	0.077119	0.095563	-0.452661	0.541664	0.585556	0.398525
54883	9.409615	-0.205781	-2.635310	0.038705	-0.024119	-0.038948	-0.451605	0.542713	0.584779	0.399435
54884	9.374336	-0.517723	-2.667581	-0.274904	-0.089545	-0.056735	-0.450548	0.543782	0.584035	0.400263
54885	9.546738	-0.519606	-2.674239	-0.282524	-0.044320	0.111019	-0.449689	0.544613	0.583435	0.400975
54886	9.450953	-0.450215	-2.678887	-0.218165	-0.065556	0.018271	-0.449079	0.545189	0.582934	0.401602
54887	9.318917	-0.374869	-2.628327	-0.151616	-0.044248	-0.124246	-0.448558	0.545697	0.582566	0.402029
54888	9.382232	-0.234548	-2.670137	-0.010836	-0.051576	-0.055222	-0.448055	0.546224	0.582280	0.402289
54889	9.390729	-0.316516	-2.730098	-0.087961	-0.107924	-0.029026	-0.447587	0.546829	0.581990	0.402407
54890	9.521247	-0.431817	-2.767822	-0.199030	-0.111806	0.109476	-0.447205	0.547336	0.581762	0.402473
54891	9.489101	-0.495792	-2.776930	-0.260449	-0.130263	0.082533	-0.447084	0.547623	0.581566	0.402501
54892	9.511126	-0.464087	-2.790520	-0.224897	-0.134179	0.106754	-0.447208	0.547672	0.581466	0.402440
54893	9.468947	-0.252547	-2.732999	-0.014319	-0.075378	0.045717	-0.447530	0.547634	0.581352	0.402298
54894	9.482204	-0.090650	-2.678483	0.148491	-0.010086	0.039852	-0.447856	0.547633	0.581146	0.402234
54895	9.497521	-0.240984	-2.676716	0.004929	-0.022286	0.057736	-0.448193	0.547680	0.580778	0.402327
54896	9.411207	-0.496799	-2.688174	-0.242008	-0.085788	-0.015853	-0.448674	0.547655	0.580365	0.402422
54897	9.257008	-0.550125	-2.660095	-0.290040	-0.112974	-0.170382	-0.449177	0.547567	0.580121	0.402332
54898	9.502549	-0.376774	-2.646273	-0.110281	-0.026691	0.057990	-0.449674	0.547376	0.579996	0.402216
54899	9.477386	-0.248262	-2.602328	0.019039	0.011163	0.018594	-0.450122	0.547134	0.579811	0.402310
54900	9.346533	-0.416780	-2.613841	-0.145651	-0.058630	-0.099866	-0.450493	0.546892	0.579589	0.402545
54901	9.059252	-0.422860	-2.627857	-0.151230	-0.156165	-0.373025	-0.450598	0.546779	0.579515	0.402687
54902	8.791819	-0.481477	-2.596528	-0.215901	-0.200188	-0.637549	-0.450297	0.546796	0.579849	0.402519
54903	8.765583	-0.292221	-2.529948	-0.040549	-0.114074	-0.685433	-0.449431	0.546968	0.580615	0.402150
54904	10.264285	-0.504676	-2.847677	-0.235131	-0.014396	0.848642	-0.448429	0.546938	0.581560	0.401942
54905	10.094841	-0.083299	-2.967391	0.182000	-0.130917	0.707193	-0.448412	0.546647	0.581692	0.402168
54906	9.584136	-0.263279	-2.816448	-0.015849	-0.143456	0.179135	-0.448409	0.546490	0.581641	0.402457
54907	9.669483	-0.201459	-2.720609	0.034564	-0.031439	0.234153	-0.448596	0.546301	0.581374	0.402890
54908	9.411883	-0.305545	-2.618005	-0.077744	-0.022590	-0.039035	-0.448944	0.546163	0.580950	0.403301
54909	9.575489	-0.339683	-2.660134	-0.104704	-0.034758	0.130627	-0.449384	0.546020	0.580565	0.403559
54910	9.607913	-0.201044	-2.628274	0.038132	0.000751	0.150180	-0.450180	0.545822	0.579958	0.403813
54911	9.312611	-0.122287	-2.491870	0.115458	0.042858	-0.172465	-0.450944	0.545788	0.579219	0.404068
54912	9.189494	-0.177997	-2.438815	0.066731	0.042951	-0.303745	-0.451426	0.546027	0.578468	0.404282
54913	9.084124	-0.307574	-2.345674	-0.059983	0.087668	-0.426165	-0.451546	0.546568	0.577807	0.404363
54914	9.173615	-0.527029	-2.377376	-0.266053	0.064732	-0.325332	-0.451356	0.547282	0.577356	0.404253
54915	9.331547	-0.516322	-2.429296	-0.242064	0.065550	-0.159557	-0.451028	0.548020	0.577099	0.403986
54916	9.446846	-0.495285	-2.467419	-0.210769	0.073717	-0.038923	-0.450568	0.548756	0.577001	0.403641
54917	9.386322	-0.419427	-2.475385	-0.131467	0.071506	-0.097541	-0.449973	0.549440	0.577042	0.403314
54918	9.516684	-0.322967	-2.563975	-0.026374	0.045047	0.048489	-0.449267	0.550110	0.577128	0.403065
54919	9.383385	-0.348698	-2.625155	-0.049154	-0.033837	-0.062951	-0.448513	0.550833	0.577192	0.402825
54920	9.443663	-0.461110	-2.696642	-0.155340	-0.075386	0.017746	-0.447715	0.551633	0.577292	0.402474
54921	9.481328	-0.506942	-2.736855	-0.195869	-0.087148	0.066430	-0.447097	0.552392	0.577358	0.402028
54922	9.588375	-0.490279	-2.791967	-0.169860	-0.092312	0.184062	-0.446683	0.553023	0.577374	0.401595
54923	9.610831	-0.578815	-2.830952	-0.249951	-0.117747	0.219313	-0.446537	0.553393	0.577359	0.401269
54924	9.383592	-0.452426	-2.757682	-0.127657	-0.095025	-0.023103	-0.446576	0.553534	0.577357	0.401034
54925	9.277602	-0.327722	-2.712890	-0.005505	-0.068208	-0.141266	-0.446444	0.553693	0.577420	0.400871
54926	9.375307	-0.358847	-2.758659	-0.032582	-0.082485	-0.033757	-0.446169	0.553853	0.577469	0.400886
54927	9.305880	-0.463893	-2.779525	-0.140620	-0.124197	-0.091311	-0.445785	0.553965	0.577590	0.400985
54928	9.461431	-0.456734	-2.784344	-0.137571	-0.079646	0.059221	-0.445354	0.554040	0.577801	0.401055
54929	9.504478	-0.390105	-2.791083	-0.076065	-0.065212	0.100303	-0.445131	0.554016	0.577940	0.401136
54930	9.432500	-0.281958	-2.750735	0.023151	-0.037163	0.016666	-0.444922	0.553992	0.578034	0.401265
54931	9.439363	-0.313591	-2.719418	-0.015198	-0.006368	0.015582	-0.444730	0.553986	0.578086	0.401412
54932	9.442484	-0.241930	-2.758041	0.055718	-0.037051	0.027096	-0.444592	0.554018	0.578076	0.401535
54933	9.422808	-0.393598	-2.760943	-0.097127	-0.055289	0.013530	-0.444509	0.554087	0.578031	0.401596
54934	9.404502	-0.538514	-2.787383	-0.239561	-0.095411	0.007581	-0.444564	0.554090	0.578021	0.401546
54935	9.374182	-0.445799	-2.763484	-0.147698	-0.074698	-0.030894	-0.444732	0.553950	0.578150	0.401367
54936	9.371246	-0.372540	-2.727568	-0.075679	-0.035525	-0.045821	-0.444906	0.553783	0.578356	0.401109
54937	9.459749	-0.293592	-2.711320	0.005453	0.011132	0.032319	-0.445165	0.553637	0.578518	0.400788
54938	9.326578	-0.350357	-2.737580	-0.046083	-0.054759	-0.086587	-0.445481	0.553491	0.578634	0.400471
54939	9.372334	-0.422591	-2.786503	-0.108505	-0.092744	-0.026807	-0.445746	0.553417	0.578811	0.400023
54940	9.488907	-0.316390	-2.804006	0.005831	-0.066996	0.086676	-0.446047	0.553314	0.578971	0.399597
54941	9.338774	-0.170169	-2.741037	0.149090	-0.037045	-0.079685	-0.446246	0.553177	0.579073	0.399416
54942	9.651821	-0.232859	-2.833524	0.098278	-0.044208	0.248581	-0.446295	0.553113	0.579060	0.399470
54943	9.504724	-0.301298	-2.744388	0.021854	-0.009966	0.084870	-0.446495	0.553063	0.578753	0.399762
54944	9.387229	-0.530328	-2.770571	-0.204512	-0.093125	-0.013357	-0.446710	0.552969	0.578460	0.400073
54945	9.318749	-0.564516	-2.741898	-0.239498	-0.095678	-0.085959	-0.447048	0.552848	0.578212	0.400223
54946	9.318348	-0.533036	-2.677549	-0.210197	-0.038965	-0.104994	-0.447372	0.552655	0.578136	0.400238
54947	9.363232	-0.430846	-2.641093	-0.108199	0.010616	-0.075168	-0.447683	0.552438	0.578148	0.400172
54948	9.420853	-0.274609	-2.604047	0.046801	0.069488	-0.035063	-0.447884	0.552264	0.578155	0.400176
54949	9.429287	-0.313014	-2.622315	0.010496	0.047678	-0.020671	-0.447992	0.552176	0.578078	0.400289
54950	9.394145	-0.401980	-2.608011	-0.079799	0.041819	-0.055375	-0.448028	0.552168	0.577967	0.400420
54951	9.553572	-0.488323	-2.670567	-0.158336	0.016184	0.117862	-0.448122	0.552163	0.577844	0.400499
54952	9.460521	-0.516601	-2.654532	-0.186962	-0.000282	0.024991	-0.448352	0.552100	0.577656	0.400600
54953	9.380882	-0.491283	-2.635502	-0.162512	-0.007449	-0.057602	-0.448557	0.551948	0.577566	0.400709
54954	9.479738	-0.435462	-2.604210	-0.108710	0.048279	0.027172	-0.448683	0.551748	0.577544	0.400874
54955	9.482168	-0.477476	-2.632261	-0.150154	0.013042	0.038484	-0.448839	0.551513	0.577503	0.401083
54956	9.343168	-0.448729	-2.653041	-0.123256	-0.048658	-0.090691	-0.448989	0.551299	0.577461	0.401269
54957	9.380388	-0.492358	-2.626171	-0.171188	-0.021452	-0.060708	-0.449046	0.551062	0.577494	0.401483
54958	9.289442	-0.399986	-2.561276	-0.089460	0.019333	-0.168752	-0.448995	0.550911	0.577528	0.401698
54959	9.262138	-0.564888	-2.605839	-0.255623	-0.043434	-0.177882	-0.448713	0.550895	0.577666	0.401838
54960	9.297741	-0.699350	-2.630564	-0.395121	-0.064662	-0.132985	-0.448381	0.550689	0.578051	0.401937
54961	9.114481	-0.465099	-2.612773	-0.175406	-0.074663	-0.321623	-0.447991	0.550375	0.578668	0.401914
54962	8.720003	-0.242404	-2.494390	0.020340	-0.039032	-0.739804	-0.447095	0.550269	0.579639	0.401657
54963	10.177053	-0.396520	-2.596219	-0.136514	0.271618	0.693381	-0.445854	0.550165	0.580871	0.401400
54964	10.025558	0.118746	-2.620571	0.359924	0.259399	0.540885	-0.445595	0.549814	0.581212	0.401674
54965	9.339510	-0.141996	-2.571097	0.084004	0.099887	-0.125577	-0.445072	0.549923	0.581356	0.401896
54966	9.447479	-0.132438	-2.623442	0.090867	0.085916	-0.007628	-0.444537	0.550232	0.581347	0.402079
54967	8.958343	-0.351013	-2.533029	-0.140397	0.029415	-0.497604	-0.443822	0.550675	0.581437	0.402133
54968	9.443973	-0.398731	-2.747045	-0.177173	-0.029059	0.029142	-0.442956	0.551134	0.581824	0.401899
54969	9.977159	-0.106496	-2.906559	0.121705	0.002922	0.579054	-0.442530	0.551424	0.581901	0.401857
54970	9.592824	0.153630	-2.915928	0.380390	-0.092054	0.207060	-0.442366	0.551747	0.581471	0.402217
54971	9.349089	-0.011108	-2.779325	0.204874	-0.044045	-0.061466	-0.441904	0.552323	0.580878	0.402792
54972	9.581146	-0.000803	-2.821666	0.219210	-0.023294	0.172880	-0.441624	0.553046	0.579912	0.403498
54973	8.579151	0.088891	-2.568110	0.293243	-0.056248	-0.861947	-0.440943	0.554395	0.578794	0.403996
54974	8.906217	-0.067796	-2.526399	0.140070	0.076550	-0.556205	-0.439527	0.556208	0.577948	0.404258
54975	9.340960	-0.255275	-2.712559	-0.031069	0.033421	-0.082604	-0.437781	0.558221	0.577185	0.404468
54976	9.278769	-0.344972	-2.759450	-0.117908	-0.003840	-0.126867	-0.435898	0.560321	0.576512	0.404557
54977	9.421415	-0.290004	-2.870259	-0.057241	-0.033647	0.040284	-0.433948	0.562332	0.575910	0.404721
54978	9.178436	-0.139764	-2.854544	0.085038	-0.049581	-0.200099	-0.431783	0.564363	0.575396	0.404940
54979	10.050366	-0.125405	-2.989073	0.106876	0.110985	0.672365	-0.429664	0.566297	0.574742	0.405424
54980	9.820236	0.092811	-3.012909	0.317965	0.047587	0.454731	-0.428140	0.568089	0.573432	0.406382
54981	9.550887	0.507152	-2.940907	0.724892	0.053751	0.167153	-0.426543	0.570169	0.571643	0.407666
54982	9.535790	0.945639	-2.926612	1.164429	0.068456	0.138694	-0.424813	0.572787	0.569031	0.409454
54983	9.188654	2.067245	-2.649980	2.279531	0.224049	-0.300552	-0.422261	0.576527	0.565236	0.412093
54984	9.367004	2.611257	-2.618229	2.833233	0.267391	-0.152687	-0.418111	0.582134	0.559650	0.416046
54985	9.445251	2.884738	-2.755704	3.114641	0.087119	-0.044412	-0.412639	0.589763	0.551639	0.421429
54986	8.828134	2.918356	-2.927710	3.125257	-0.354048	-0.586053	-0.405365	0.599862	0.541084	0.427871
54987	9.267742	2.204178	-3.398240	2.401800	-0.706272	-0.013227	-0.396501	0.612077	0.528123	0.435011
54988	9.075427	1.593562	-3.729607	1.740345	-1.078795	-0.085418	-0.386646	0.625642	0.512892	0.442740
54989	9.188296	0.532894	-4.150808	0.621603	-1.306232	0.179573	-0.375874	0.639771	0.496081	0.450905
54990	9.342924	-0.693053	-4.513270	-0.655766	-1.321715	0.481148	-0.365022	0.653431	0.478445	0.459215
54991	8.929570	-1.402735	-4.537665	-1.418754	-1.222759	0.126475	-0.354610	0.665959	0.460764	0.467384
54992	8.758876	-1.783706	-4.437254	-1.795625	-0.991934	-0.046415	-0.344447	0.677206	0.443839	0.475136
54993	8.752946	-2.449433	-4.378693	-2.413305	-0.615371	-0.036019	-0.334555	0.686971	0.428223	0.482462
54994	8.691124	-3.046431	-4.287699	-2.942222	-0.209514	-0.091615	-0.325540	0.695243	0.414328	0.488869
54995	8.743390	-3.240988	-4.041055	-3.002027	0.200697	-0.105585	-0.317770	0.701980	0.402520	0.494190
54996	8.875946	-2.995355	-3.725193	-2.612431	0.464738	-0.086923	-0.311217	0.707239	0.392952	0.498543
54997	9.206933	-2.797233	-3.615028	-2.317698	0.594999	0.184043	-0.305884	0.711167	0.385458	0.502094
54998	9.394751	-2.280901	-3.393006	-1.731088	0.593183	0.268372	-0.301741	0.713857	0.379752	0.505123
54999	9.353176	-1.773768	-3.215033	-1.229842	0.478672	0.148383	-0.298534	0.715592	0.375520	0.507731
55000	9.478162	-1.388673	-3.087276	-0.828806	0.408762	0.209350	-0.296188	0.716768	0.372277	0.509829
55001	9.597762	-1.068719	-2.957924	-0.484158	0.360573	0.269181	-0.294730	0.717376	0.369766	0.511643
55002	9.393212	-0.580329	-2.781919	-0.040968	0.174334	-0.000645	-0.293723	0.717697	0.367662	0.513286
55003	9.365312	-0.425434	-2.718491	0.100808	0.116766	-0.052748	-0.292796	0.717929	0.365755	0.514851
55004	9.246941	-0.505694	-2.722361	-0.004239	0.117221	-0.160791	-0.291948	0.718227	0.363962	0.516186
55005	9.273398	-0.463657	-2.742593	0.018060	0.070338	-0.131395	-0.291295	0.718672	0.362256	0.517134
55006	9.176185	-0.312652	-2.720473	0.133665	-0.028972	-0.237596	-0.290628	0.719280	0.360568	0.517844
55007	9.426652	-0.522901	-2.823347	-0.043034	0.054660	0.041329	-0.289780	0.719936	0.358999	0.518497
55008	9.496312	-0.703361	-2.873054	-0.204592	0.127547	0.130701	-0.289056	0.720394	0.357614	0.519221
55009	9.440374	-1.021552	-2.910297	-0.500031	0.261811	0.102729	-0.288638	0.720558	0.356547	0.519960
55010	9.184362	-1.005071	-2.841313	-0.505554	0.244734	-0.162805	-0.288680	0.720455	0.356015	0.520444
55011	9.106137	-0.685158	-2.797888	-0.239413	0.071593	-0.265075	-0.288915	0.720293	0.356043	0.520519
55012	9.311242	-0.614363	-2.816286	-0.150981	0.057414	-0.066814	-0.289106	0.720126	0.356451	0.520363
55013	9.422525	-0.536342	-2.785748	-0.049390	0.061886	0.027321	-0.289348	0.719880	0.357055	0.520155
55014	9.495765	-0.462620	-2.839986	-0.005356	-0.005252	0.109461	-0.289623	0.719583	0.357746	0.519939
55015	9.345643	-0.331239	-2.808488	0.088913	-0.084254	-0.049319	-0.290002	0.719363	0.358351	0.519615
55016	9.363753	-0.330688	-2.769043	0.116986	-0.047969	-0.043305	-0.290418	0.719221	0.358843	0.519240
55017	9.318729	-0.359224	-2.807649	0.069992	-0.070891	-0.074068	-0.290864	0.719225	0.359175	0.518756
55018	9.348882	-0.429127	-2.848352	0.005085	-0.056194	-0.030271	-0.291224	0.719288	0.359444	0.518278
55019	9.379055	-0.661807	-2.868156	-0.181537	0.068120	0.015506	-0.291584	0.719396	0.359688	0.517757
55020	9.417237	-0.761874	-2.869931	-0.247005	0.131133	0.057626	-0.292180	0.719422	0.359960	0.517196
55021	9.233081	-0.719110	-2.846145	-0.226866	0.085613	-0.127201	-0.292767	0.719364	0.360374	0.516656
55022	9.337331	-0.815019	-2.882257	-0.295839	0.133493	-0.012072	-0.293267	0.719279	0.360949	0.516089
55023	9.316324	-0.897910	-2.932718	-0.390096	0.137514	-0.013204	-0.293766	0.719013	0.361763	0.515605
55024	9.259332	-1.021827	-2.906779	-0.487684	0.219091	-0.068823	-0.294301	0.718704	0.362829	0.514983
55025	9.427353	-1.309890	-2.979843	-0.728341	0.360938	0.127609	-0.295158	0.718147	0.364284	0.514241
55026	9.372540	-1.972827	-3.148041	-1.376068	0.581250	0.158035	-0.296640	0.717202	0.366431	0.513180
55027	9.188437	-2.940309	-3.274952	-2.285007	0.958729	0.069501	-0.299442	0.715525	0.370033	0.511306
55028	9.089257	-3.552247	-3.338453	-2.853948	1.181519	0.027898	-0.304066	0.712667	0.375976	0.508224
55029	8.911130	-3.723330	-3.467041	-3.109490	1.064298	-0.092109	-0.310612	0.708146	0.384902	0.503885
55030	8.759916	-3.302850	-3.594779	-2.854749	0.629575	-0.219941	-0.318731	0.701804	0.396992	0.498276
55031	8.678840	-2.482537	-3.711989	-2.214290	0.040846	-0.306955	-0.327958	0.693850	0.411593	0.491536
55032	8.800079	-1.949713	-3.865758	-1.778121	-0.361377	-0.174519	-0.337866	0.684581	0.427903	0.483834
55033	8.832875	-0.912116	-3.846462	-0.802545	-0.785087	-0.200902	-0.348000	0.674172	0.445240	0.475552
55034	9.006865	0.103104	-3.801602	0.209142	-1.044246	-0.094045	-0.357706	0.663206	0.462695	0.467031
55035	9.274386	1.114897	-3.634474	1.279344	-1.066604	0.071215	-0.366838	0.652260	0.479173	0.458673
55036	9.485619	1.505438	-3.477144	1.737490	-0.870414	0.215099	-0.375035	0.641872	0.493946	0.450962
55037	9.378904	1.326486	-3.454296	1.563695	-0.751537	0.119338	-0.382362	0.632044	0.506982	0.444172
55038	8.855873	2.207756	-3.094237	2.442428	-0.647992	-0.512751	-0.388454	0.623357	0.518278	0.438084
55039	9.249708	2.379396	-2.933316	2.657904	-0.307094	-0.186504	-0.392829	0.616449	0.527592	0.432808
55040	9.820845	2.137322	-2.883034	2.449167	0.031922	0.352406	-0.396126	0.611242	0.534599	0.428569
55041	10.055982	1.445839	-2.993736	1.756932	0.130701	0.631051	-0.398972	0.607399	0.539370	0.425403
55042	9.741504	0.977498	-3.060840	1.271643	0.036863	0.365853	-0.401742	0.604577	0.542350	0.423021
55043	9.107630	1.476310	-2.863122	1.761958	-0.006857	-0.314197	-0.403835	0.602924	0.543998	0.421268
55044	9.007095	1.327729	-2.786161	1.627629	0.054190	-0.431792	-0.404581	0.602642	0.544563	0.420223
55045	9.396818	0.826860	-2.928849	1.152843	0.085697	-0.003221	-0.404347	0.603453	0.544112	0.419870
55046	9.513541	-0.021759	-3.077898	0.317311	0.051383	0.181213	-0.403761	0.604886	0.542785	0.420087
55047	9.385070	-0.778448	-3.197816	-0.434285	-0.039009	0.123176	-0.403442	0.606484	0.541048	0.420330
55048	9.209399	-0.692496	-3.305196	-0.344690	-0.201432	-0.011797	-0.403316	0.608017	0.539401	0.420355
55049	8.994039	-0.548853	-3.193553	-0.187512	-0.172296	-0.256125	-0.402927	0.609444	0.538062	0.420376
55050	8.976145	-0.984596	-3.262439	-0.615142	-0.194426	-0.233131	-0.402220	0.610623	0.537238	0.420397
55051	9.162976	-1.717166	-3.356405	-1.331649	-0.142114	0.004681	-0.401733	0.611286	0.537108	0.420065
55052	9.211965	-1.928366	-3.410867	-1.537160	-0.146355	0.078148	-0.401938	0.611084	0.537866	0.419193
55053	9.201031	-1.774150	-3.367793	-1.378670	-0.118721	0.048032	-0.402730	0.609872	0.539612	0.417952
55054	9.023653	-1.383593	-3.340050	-1.003415	-0.182504	-0.145401	-0.403879	0.607748	0.542328	0.416418
55055	9.074801	-0.797282	-3.251112	-0.420528	-0.126411	-0.150154	-0.405136	0.605045	0.545760	0.414646
55056	9.355150	-0.400316	-3.234986	-0.023739	-0.041909	0.093970	-0.406337	0.602105	0.549397	0.412944
55057	9.472803	-0.061322	-3.262786	0.298846	-0.042577	0.201921	-0.407560	0.599100	0.552819	0.411540
55058	9.308698	0.293292	-3.228656	0.624792	-0.075126	0.024286	-0.408694	0.596325	0.555769	0.410471
55059	9.236201	0.625400	-3.193831	0.934635	-0.073654	-0.064863	-0.409423	0.594167	0.558102	0.409708
55060	9.399872	0.598871	-3.250778	0.897280	-0.067967	0.110722	-0.409827	0.592773	0.559613	0.409262
55061	9.372646	0.145594	-3.280462	0.433595	-0.087720	0.108674	-0.410203	0.591993	0.560374	0.408971
55062	9.269100	-0.416835	-3.310763	-0.132573	-0.133329	0.036971	-0.410742	0.591555	0.560788	0.408499
55063	9.287194	-0.744903	-3.451218	-0.454106	-0.254635	0.109343	-0.411712	0.590972	0.561212	0.407783
55064	9.223377	-1.397653	-3.666250	-1.098278	-0.470246	0.139102	-0.413140	0.589954	0.561981	0.406751
55065	9.313232	-2.507906	-3.785296	-2.189092	-0.551017	0.299607	-0.415533	0.587717	0.563751	0.405099
55066	9.184675	-3.149597	-3.826873	-2.812184	-0.669331	0.215593	-0.419560	0.583590	0.567092	0.402243
55067	9.348851	-2.987083	-3.850932	-2.616920	-0.714464	0.375244	-0.425043	0.577093	0.572441	0.398263
55068	9.410409	-2.153914	-3.888566	-1.755399	-0.802364	0.414243	-0.431817	0.568351	0.579343	0.393540
55069	8.798022	-1.684834	-3.786298	-1.275250	-0.963469	-0.219739	-0.439408	0.558211	0.587181	0.387994
55070	8.711920	-1.514658	-3.534723	-1.094261	-0.816688	-0.388193	-0.447237	0.547374	0.595850	0.381213
55071	9.377576	-1.664148	-3.467128	-1.212293	-0.643093	0.229493	-0.455801	0.535639	0.604936	0.373347
55072	9.154155	-0.775438	-3.303405	-0.319039	-0.490487	-0.067452	-0.464904	0.522703	0.614309	0.365062
55073	8.299416	0.887740	-2.937656	1.275323	-0.102648	-1.057049	-0.472796	0.509548	0.623927	0.357126
55074	8.518034	1.053280	-2.694682	1.354689	0.252322	-0.922887	-0.478447	0.497522	0.633384	0.349835
55075	8.835061	0.280666	-2.590812	0.530247	0.263132	-0.620364	-0.482981	0.486534	0.642291	0.342749
55076	9.198209	0.694618	-2.558424	0.851587	0.548809	-0.293844	-0.486796	0.476510	0.650591	0.335706
55077	9.415850	1.539965	-2.640712	1.610283	0.859522	-0.082797	-0.489826	0.467486	0.657986	0.329517
55078	9.120323	2.432570	-2.601244	2.395635	1.183792	-0.393398	-0.491498	0.460187	0.664219	0.324763
55079	9.310824	2.487347	-2.641136	2.378855	1.287553	-0.193096	-0.491533	0.455422	0.669102	0.321386
55080	9.640671	2.093184	-2.788137	1.981356	1.156793	0.178978	-0.490747	0.453104	0.672220	0.319349
55081	9.546459	1.404096	-2.998234	1.399599	0.718102	0.168347	-0.489495	0.452836	0.673802	0.318317
55082	9.843318	0.604284	-3.335835	0.739028	0.230192	0.569250	-0.488130	0.453875	0.674249	0.317987
55083	9.669288	0.103709	-3.467569	0.338393	-0.107737	0.453947	-0.487109	0.455374	0.673867	0.318219
55084	9.340548	-0.657567	-3.483953	-0.324204	-0.500356	0.160311	-0.486365	0.456660	0.673335	0.318638
55085	9.235978	-1.353366	-3.487004	-0.954899	-0.792670	0.074371	-0.486156	0.457027	0.673280	0.318547
55086	9.084352	-1.716533	-3.474551	-1.276547	-0.962465	-0.066482	-0.486565	0.456046	0.674136	0.317517
55087	9.085697	-1.682145	-3.445208	-1.250684	-0.923044	-0.074477	-0.487598	0.453592	0.676078	0.315312
55088	9.155926	-1.401566	-3.394824	-1.013432	-0.750017	-0.028484	-0.489117	0.449838	0.678892	0.312276
55089	9.159639	-1.342762	-3.386190	-0.958317	-0.723057	-0.028665	-0.491001	0.445007	0.682362	0.308657
55090	9.317800	-1.151686	-3.316232	-0.827516	-0.544733	0.095070	-0.493291	0.439308	0.686235	0.304554
55091	9.291723	-0.173628	-3.195478	0.005297	-0.034085	0.014629	-0.495778	0.433006	0.690194	0.300569
55092	9.337725	0.672149	-3.081866	0.689517	0.450162	0.008955	-0.497805	0.426869	0.693842	0.297585
55093	9.130801	0.558129	-3.037927	0.568422	0.365588	-0.197326	-0.499221	0.421348	0.697028	0.295630
55094	9.152217	0.552900	-2.981869	0.502376	0.403993	-0.192676	-0.500056	0.416773	0.699764	0.294236
55095	9.311750	0.410594	-3.005893	0.332578	0.348580	-0.031048	-0.500599	0.413068	0.701952	0.293325
55096	9.326364	0.492207	-3.036370	0.386555	0.354385	-0.006170	-0.500959	0.410065	0.703654	0.292846
55097	9.184333	0.284899	-3.099600	0.233068	0.148519	-0.119173	-0.500999	0.407811	0.705054	0.292556
55098	8.974502	-0.029433	-3.082224	-0.035571	-0.058115	-0.323853	-0.500812	0.406127	0.706338	0.292122
55099	9.115818	-0.094537	-3.116475	-0.119315	-0.077357	-0.179452	-0.500407	0.404786	0.707681	0.291426
55100	9.436459	0.173728	-3.215079	0.082316	0.074149	0.157334	-0.499807	0.403537	0.709041	0.290881
55101	9.699937	0.521175	-3.293457	0.345480	0.264611	0.435132	-0.499048	0.402362	0.710213	0.290954
55102	9.306703	0.549655	-3.238680	0.381966	0.212121	0.047075	-0.498230	0.401471	0.711013	0.291631
55103	9.103952	0.242118	-3.312303	0.161227	-0.067716	-0.123452	-0.497337	0.401093	0.711480	0.292534
55104	8.838867	-0.102312	-3.349013	-0.092586	-0.350634	-0.367034	-0.496507	0.400979	0.711851	0.293198
55105	9.786998	0.750991	-3.459229	0.497647	0.252837	0.579808	-0.495642	0.400707	0.712293	0.293958
55106	10.473482	1.406604	-3.390561	0.878812	0.811300	1.220789	-0.495256	0.400314	0.711949	0.295971
55107	9.786641	1.179864	-3.310000	0.763008	0.529910	0.544112	-0.495701	0.400275	0.710564	0.298594
55108	9.156694	0.492406	-3.230294	0.258462	0.030200	-0.093922	-0.496568	0.401030	0.708560	0.300893
55109	9.157459	0.122701	-3.186365	-0.055848	-0.153875	-0.117324	-0.497830	0.402204	0.706513	0.302054
55110	9.267178	0.248953	-3.013996	-0.010583	0.056021	-0.064696	-0.499174	0.403259	0.704622	0.302846
55111	9.984169	-0.186835	-2.898019	-0.529620	0.097285	0.571285	-0.500778	0.403745	0.702871	0.303618
55112	9.106286	-0.391654	-2.641240	-0.641637	-0.050508	-0.344872	-0.502741	0.403533	0.701257	0.304386
55113	8.701374	-0.990281	-2.660173	-1.056991	-0.496366	-0.734837	-0.504425	0.402748	0.700440	0.304523
55114	8.173520	-0.252132	-2.558252	-0.360554	-0.199523	-1.254368	-0.505454	0.401456	0.700651	0.304036
55115	9.066137	0.103320	-2.632552	-0.169083	0.133243	-0.373965	-0.505233	0.400044	0.701843	0.303512
55116	9.930380	0.488962	-2.726521	0.047605	0.461395	0.486355	-0.505340	0.398540	0.702744	0.303230
55117	8.984417	0.913320	-2.727575	0.558974	0.433302	-0.405597	-0.505161	0.397631	0.703359	0.303295
55118	8.596553	0.977513	-2.955200	0.774621	0.184452	-0.704703	-0.504366	0.397803	0.703851	0.303252
55119	8.337171	0.965842	-3.031390	0.830018	0.071881	-0.928072	-0.502568	0.399307	0.704430	0.302916
55120	9.136221	1.146785	-3.162575	0.891215	0.293470	-0.122128	-0.500161	0.401686	0.704857	0.302761
55121	10.090373	0.053691	-3.467760	-0.097435	-0.212794	0.854501	-0.498024	0.404501	0.704703	0.302894
55122	10.043456	-0.898645	-3.605341	-0.853628	-0.764500	0.834554	-0.497176	0.407327	0.703883	0.302407
55123	9.491787	-1.902331	-3.596914	-1.612487	-1.355255	0.297387	-0.497509	0.409538	0.703012	0.300895
55124	8.808812	-1.619613	-3.408066	-1.301184	-1.212642	-0.396241	-0.498425	0.410387	0.702829	0.298642
55125	8.530671	-1.024664	-3.370491	-0.729167	-0.944454	-0.660705	-0.498868	0.409731	0.703700	0.296746
55126	9.101732	-0.559347	-3.395329	-0.410141	-0.566738	-0.107368	-0.498565	0.407934	0.705379	0.295744
55127	9.848610	-0.918107	-3.516758	-0.815729	-0.640431	0.633842	-0.498208	0.405580	0.707131	0.295398
55128	9.675530	-0.955047	-3.432110	-0.879371	-0.653013	0.439512	-0.498868	0.402969	0.708357	0.294919
55129	9.425590	-0.335076	-3.305146	-0.370064	-0.328587	0.168948	-0.499858	0.400320	0.709269	0.294657
55130	9.677293	0.210927	-3.328919	0.059788	-0.033131	0.423104	-0.500939	0.397870	0.709763	0.294950
55131	10.104328	0.588644	-3.298625	0.285057	0.253849	0.825871	-0.502029	0.395589	0.709690	0.296338
55132	9.662084	0.663654	-3.031990	0.291345	0.334811	0.325947	-0.503167	0.393587	0.709003	0.298708
55133	9.293637	0.677559	-2.784236	0.242837	0.386092	-0.098040	-0.504056	0.392172	0.708016	0.301402
55134	9.205375	0.773102	-2.624627	0.260800	0.488107	-0.225258	-0.504695	0.391695	0.706808	0.303777
55135	9.258732	0.739352	-2.576233	0.204291	0.483208	-0.188114	-0.505132	0.392168	0.705463	0.305562
55136	9.391665	0.622150	-2.549871	0.079234	0.452746	-0.072000	-0.505383	0.393197	0.704161	0.306824
55137	9.432132	0.522240	-2.559062	0.005259	0.389993	-0.033398	-0.505609	0.394290	0.702972	0.307774
55138	9.296890	0.424649	-2.542699	-0.049571	0.313253	-0.170218	-0.505729	0.395223	0.702051	0.308482
55139	9.252478	0.412470	-2.577308	-0.025671	0.263698	-0.202756	-0.505741	0.396083	0.701371	0.308906
55140	9.218724	0.284448	-2.652530	-0.086540	0.128815	-0.216979	-0.505737	0.396883	0.700803	0.309175
55141	9.143865	0.142864	-2.789164	-0.125626	-0.072568	-0.252925	-0.505658	0.397578	0.700336	0.309470
55142	9.334724	0.108750	-2.976398	-0.097452	-0.201958	-0.016894	-0.505529	0.397989	0.699958	0.310006
55143	9.497925	0.016178	-3.047301	-0.176657	-0.278350	0.156675	-0.505351	0.397941	0.699628	0.311101
55144	9.809420	-0.097587	-3.104966	-0.313068	-0.334137	0.466675	-0.505396	0.397197	0.699264	0.312792
55145	9.760564	-0.126795	-3.006583	-0.389733	-0.321188	0.388731	-0.505991	0.395601	0.698835	0.314805
55146	9.458874	0.339666	-2.762535	-0.058234	-0.010780	0.047002	-0.506943	0.393432	0.698505	0.316720
55147	9.065442	0.595409	-2.446987	0.072716	0.238440	-0.407257	-0.507849	0.391094	0.698410	0.318369
55148	9.111083	0.642354	-2.382766	0.060949	0.282874	-0.377743	-0.508550	0.388784	0.698844	0.319125
55149	9.045114	1.121354	-2.263678	0.418704	0.584896	-0.449016	-0.509203	0.386796	0.699685	0.318655
55150	9.164467	1.579995	-2.276840	0.791380	0.832099	-0.307470	-0.509557	0.385571	0.700803	0.317114
55151	9.673478	1.675231	-2.395330	0.838839	0.915469	0.216188	-0.509878	0.385328	0.701737	0.314820
55152	9.956434	1.736095	-2.468025	0.893085	0.987253	0.505415	-0.510417	0.386158	0.702028	0.312271
55153	9.936721	1.586298	-2.499442	0.820276	0.922469	0.481867	-0.511196	0.387915	0.701443	0.310126
55154	9.758122	1.240486	-2.605004	0.654248	0.652236	0.321021	-0.511929	0.390428	0.700082	0.308837
55155	9.392317	0.555328	-2.796669	0.267689	0.084288	-0.001143	-0.512436	0.393374	0.698170	0.308584
55156	9.064609	-0.105294	-2.893284	-0.165093	-0.391508	-0.306442	-0.512465	0.396342	0.696162	0.309276
55157	9.197097	-0.609849	-3.087095	-0.509535	-0.770977	-0.136189	-0.512196	0.398898	0.694215	0.310808
55158	9.336233	-0.811312	-3.190099	-0.649820	-0.933700	0.021240	-0.511887	0.400796	0.692324	0.313084
55159	9.708130	-0.874169	-3.228965	-0.743024	-0.938648	0.385593	-0.511893	0.401848	0.690415	0.315929
55160	9.868745	-0.896815	-3.074037	-0.858092	-0.828273	0.493791	-0.512530	0.401982	0.688480	0.318933
55161	9.607611	-0.532562	-2.771685	-0.632263	-0.514908	0.167634	-0.513739	0.401324	0.686676	0.321695
55162	9.300810	-0.079009	-2.503195	-0.302802	-0.199727	-0.187440	-0.515082	0.400193	0.685192	0.324111
55163	9.135423	0.075208	-2.237454	-0.257653	0.010726	-0.410500	-0.516212	0.399033	0.684189	0.325858
55164	9.220282	0.092676	-2.077666	-0.320836	0.133748	-0.367160	-0.517284	0.398047	0.683614	0.326570
55165	9.413286	0.160390	-2.025988	-0.300606	0.227594	-0.189896	-0.518416	0.397384	0.683341	0.326154
55166	9.515735	0.510539	-1.980012	-0.008272	0.449810	-0.090143	-0.519589	0.397141	0.683174	0.324930
55167	9.532101	0.616929	-1.977540	0.108586	0.514783	-0.072291	-0.520646	0.397449	0.682917	0.323398
55168	9.604770	0.415511	-2.060920	-0.009099	0.376820	0.012253	-0.521518	0.398235	0.682438	0.322034
55169	9.395945	0.093927	-2.126601	-0.202754	0.140020	-0.181788	-0.522094	0.399276	0.681845	0.321068
55170	9.351792	-0.166052	-2.284737	-0.329864	-0.116010	-0.190769	-0.522278	0.400303	0.681253	0.320743
55171	9.337005	-0.482424	-2.421814	-0.533156	-0.382213	-0.176961	-0.522082	0.400984	0.680782	0.321214
55172	9.262330	-0.863634	-2.517537	-0.819859	-0.666029	-0.233604	-0.521666	0.401017	0.680576	0.322284
55173	9.354542	-1.019295	-2.622401	-0.938333	-0.825552	-0.124481	-0.521286	0.400117	0.680870	0.323394
55174	9.385714	-0.572496	-2.622902	-0.574283	-0.629723	-0.087846	-0.521108	0.398237	0.681686	0.324282
55175	9.176330	0.239651	-2.555852	0.105379	-0.251284	-0.287959	-0.520857	0.395758	0.682993	0.324966
55176	9.448347	0.838540	-2.542356	0.548953	0.082325	-0.008110	-0.520501	0.393388	0.684468	0.325313
55177	9.621630	1.106588	-2.473989	0.695126	0.294039	0.154820	-0.520379	0.391629	0.685643	0.325156
55178	9.693503	1.173346	-2.468423	0.725719	0.345234	0.226635	-0.520657	0.390737	0.686304	0.324387
55179	9.845829	0.845479	-2.485582	0.432953	0.208468	0.365836	-0.521431	0.390673	0.686342	0.323140
55180	9.715042	0.559584	-2.483641	0.230951	0.057000	0.227577	-0.522672	0.391173	0.685820	0.321634
55181	9.303792	0.354533	-2.372526	0.096768	-0.017406	-0.205122	-0.523809	0.391958	0.685093	0.320376
55182	9.576431	-0.026763	-2.460353	-0.200261	-0.216729	0.070376	-0.524577	0.392662	0.684433	0.319666
55183	9.561306	-0.330522	-2.509273	-0.417311	-0.409122	0.060646	-0.525158	0.393070	0.683760	0.319652
55184	9.528074	-0.454078	-2.528720	-0.499190	-0.501200	0.030300	-0.525553	0.393082	0.683215	0.320152
55185	9.493350	-0.250465	-2.462942	-0.345342	-0.370621	-0.014940	-0.525873	0.392695	0.682686	0.321230
55186	9.487671	-0.023287	-2.373741	-0.193841	-0.212858	-0.036792	-0.526032	0.392049	0.682172	0.322846
55187	9.579886	0.119541	-2.345818	-0.105954	-0.137639	0.049415	-0.526143	0.391297	0.681568	0.324846
55188	9.446631	0.010934	-2.240346	-0.243108	-0.164259	-0.108467	-0.526361	0.390559	0.680903	0.326770
55189	9.212575	0.185159	-2.069868	-0.145597	-0.010523	-0.369764	-0.526655	0.389932	0.680375	0.328142
55190	9.211387	0.356417	-1.998266	-0.033998	0.111183	-0.381027	-0.526711	0.389605	0.680126	0.328956
55191	9.507842	0.520775	-2.003946	0.065597	0.228283	-0.084911	-0.526518	0.389496	0.680130	0.329385
55192	9.624678	0.519187	-2.036188	0.057132	0.217862	0.036136	-0.526260	0.389572	0.680169	0.329628
55193	9.688650	0.542223	-2.101948	0.095061	0.185389	0.113980	-0.526013	0.389810	0.680174	0.329729
55194	9.648783	0.548548	-2.143423	0.124056	0.149546	0.084607	-0.525763	0.390231	0.680086	0.329811
55195	9.604070	0.312557	-2.230307	-0.035012	-0.042071	0.051750	-0.525557	0.390789	0.679881	0.329903
55196	9.515529	0.116641	-2.244893	-0.184481	-0.159951	-0.038291	-0.525458	0.391281	0.679678	0.329896
55197	9.501394	0.119343	-2.298719	-0.151660	-0.203725	-0.039749	-0.525472	0.391529	0.679557	0.329830
55198	9.552974	0.313719	-2.348831	0.036915	-0.143712	0.028691	-0.525514	0.391559	0.679464	0.329918
55199	9.707290	0.370259	-2.399110	0.089453	-0.137927	0.192175	-0.525708	0.391412	0.679205	0.330314
55200	9.612239	0.318404	-2.411086	0.064601	-0.203637	0.100142	-0.526068	0.391149	0.678773	0.330941
55201	9.359399	0.097371	-2.319365	-0.132355	-0.292904	-0.175056	-0.526629	0.390779	0.678302	0.331451
55202	9.297251	0.192380	-2.209693	-0.085677	-0.179395	-0.256585	-0.527178	0.390264	0.678081	0.331636
55203	9.341881	0.394158	-2.148126	0.059303	-0.033043	-0.219151	-0.527538	0.389690	0.678099	0.331704
55204	9.493061	0.413167	-2.145542	0.053070	-0.002921	-0.071566	-0.527735	0.389157	0.678259	0.331688
55205	9.604027	0.461055	-2.183857	0.095161	0.001265	0.046830	-0.527868	0.388746	0.678387	0.331698
55206	9.436051	0.092183	-2.223395	-0.186979	-0.242273	-0.122621	-0.528041	0.388469	0.678499	0.331518
55207	9.504335	0.101210	-2.251235	-0.173677	-0.249103	-0.049570	-0.528279	0.388158	0.678742	0.331003
55208	9.600621	0.547242	-2.245707	0.202071	-0.009739	0.060189	-0.528499	0.387721	0.679020	0.330594
55209	9.686042	0.664934	-2.239551	0.289568	0.065640	0.146679	-0.528623	0.387388	0.679085	0.330653
55210	9.914842	0.485747	-2.401457	0.176198	-0.130018	0.398046	-0.528821	0.387156	0.678802	0.331190
55211	9.699564	0.412195	-2.386513	0.136120	-0.208530	0.181552	-0.529241	0.386883	0.678131	0.332209
55212	9.575197	0.490743	-2.350278	0.207527	-0.188273	0.054958	-0.529708	0.386549	0.677277	0.333595
55213	9.608086	0.819002	-2.230413	0.436494	0.044293	0.075094	-0.530135	0.386314	0.676202	0.335364
55214	9.753385	1.079841	-2.175308	0.622134	0.199442	0.217245	-0.530478	0.386361	0.674762	0.337661
55215	9.502536	0.953183	-1.972028	0.457595	0.230013	-0.074455	-0.530778	0.386962	0.672874	0.340259
55216	9.269002	0.130741	-1.902586	-0.254106	-0.171476	-0.354503	-0.531160	0.387981	0.671005	0.342187
55217	9.118468	0.212407	-1.760273	-0.209698	-0.051576	-0.525951	-0.531559	0.389009	0.669675	0.343004
55218	9.407975	0.623255	-1.657112	0.086934	0.270086	-0.243783	-0.531718	0.390045	0.668917	0.343061
55219	9.918187	0.765600	-1.723425	0.195241	0.362652	0.274785	-0.531818	0.391213	0.668278	0.342823
55220	10.001426	0.774640	-1.755189	0.228625	0.361270	0.362107	-0.532092	0.392491	0.667434	0.342578
55221	9.884007	0.618695	-1.824907	0.162009	0.218696	0.253718	-0.532385	0.394029	0.666363	0.342444
55222	9.660464	0.240169	-1.821928	-0.119511	0.021691	0.020258	-0.532715	0.395790	0.665127	0.342302
55223	9.323983	-0.046893	-1.776624	-0.328295	-0.109910	-0.327155	-0.532808	0.397548	0.664152	0.342014
55224	9.468740	-0.089632	-1.789969	-0.358025	-0.102906	-0.183033	-0.532570	0.398989	0.663545	0.341885
55225	9.630146	-0.069357	-1.802960	-0.344345	-0.067533	-0.021260	-0.532138	0.399947	0.663184	0.342138
55226	9.710145	-0.110325	-1.874281	-0.360028	-0.132305	0.069867	-0.531703	0.400400	0.662920	0.342795
55227	9.771966	-0.236525	-1.917914	-0.466941	-0.222811	0.135074	-0.531459	0.400416	0.662693	0.343593
55228	9.714179	-0.279945	-1.960198	-0.485867	-0.300440	0.084771	-0.531655	0.400000	0.662513	0.344122
55229	9.563133	-0.080004	-1.946644	-0.296479	-0.236949	-0.060494	-0.532198	0.399248	0.662482	0.344214
55230	9.668285	0.171722	-1.919120	-0.092157	-0.095327	0.044830	-0.532921	0.398341	0.662613	0.343894
55231	9.622622	0.334375	-1.836885	0.027066	0.034755	-0.010705	-0.533650	0.397455	0.662838	0.343355
55232	9.514013	-0.139050	-1.805074	-0.389809	-0.172726	-0.137344	-0.534427	0.396635	0.663158	0.342476
55233	9.296060	-0.951371	-1.832215	-1.065427	-0.599320	-0.368932	-0.535387	0.395609	0.663866	0.340788
55234	9.116940	-1.520210	-1.835748	-1.534166	-0.885490	-0.557321	-0.536603	0.393812	0.665472	0.337812
55235	9.202285	-0.557811	-1.812746	-0.695601	-0.391592	-0.450956	-0.537697	0.390819	0.668152	0.334239
55236	9.432680	0.394336	-1.789338	0.089110	0.135423	-0.205071	-0.538169	0.387175	0.671396	0.331206
55237	9.799694	0.951158	-1.894397	0.545413	0.390597	0.191173	-0.538216	0.383571	0.674470	0.329071
55238	9.870680	1.074783	-1.959662	0.634022	0.417588	0.279352	-0.538181	0.380555	0.676851	0.327737
55239	9.869243	0.971946	-2.091071	0.575430	0.256711	0.302754	-0.538204	0.378297	0.678464	0.326978
55240	9.661827	1.146771	-2.162749	0.767208	0.248919	0.121741	-0.538338	0.376862	0.679301	0.326677
55241	9.492312	1.125878	-2.104315	0.730223	0.255769	-0.055584	-0.538234	0.376217	0.679612	0.326946
55242	9.488785	0.733435	-2.082508	0.372774	0.066003	-0.077777	-0.538026	0.376069	0.679522	0.327645
55243	9.691064	0.353937	-2.111947	0.027627	-0.131024	0.111242	-0.537961	0.376096	0.679196	0.328394
55244	9.516338	0.221099	-2.031060	-0.103254	-0.167586	-0.081499	-0.538122	0.376090	0.678792	0.328973
55245	9.467687	0.283457	-2.020604	-0.045210	-0.145279	-0.128828	-0.538392	0.375990	0.678454	0.329342
55246	9.714462	0.283826	-1.991267	-0.088670	-0.092314	0.106994	-0.538683	0.375822	0.678207	0.329565
55247	9.762437	0.256815	-1.897604	-0.158142	-0.028119	0.134484	-0.539200	0.375574	0.677903	0.329627
55248	9.665131	0.112556	-1.705247	-0.355576	0.040562	-0.004160	-0.539694	0.375309	0.677732	0.329474
55249	9.655276	0.010817	-1.567623	-0.503288	0.100255	-0.044445	-0.540076	0.374940	0.677775	0.329179
55250	9.615740	0.022281	-1.484737	-0.526903	0.168212	-0.098704	-0.540352	0.374365	0.678065	0.328781
55251	9.595594	0.291360	-1.518063	-0.279190	0.273359	-0.101243	-0.540450	0.373709	0.678577	0.328311
55252	9.683370	0.533482	-1.601964	-0.048988	0.341179	0.010740	-0.540312	0.373128	0.679199	0.327914
55253	9.658544	0.618048	-1.652079	0.042072	0.343521	-0.000500	-0.540058	0.372767	0.679769	0.327561
55254	9.737454	0.438646	-1.822622	-0.046745	0.126043	0.102669	-0.539764	0.372625	0.680222	0.327266
55255	9.554510	0.324755	-1.890360	-0.092243	-0.008721	-0.067997	-0.539491	0.372635	0.680586	0.326949
55256	9.482962	0.170678	-1.968188	-0.179938	-0.155344	-0.129044	-0.539261	0.372737	0.680880	0.326598
55257	9.400162	0.169505	-2.063535	-0.124939	-0.239552	-0.190996	-0.539040	0.372846	0.681183	0.326209
55258	9.707706	0.316788	-2.206193	0.027020	-0.230409	0.144891	-0.538891	0.372829	0.681413	0.325992
55259	9.603760	0.290499	-2.244867	0.035215	-0.290566	0.049887	-0.538837	0.372719	0.681467	0.326096
55260	9.459974	0.186578	-2.202581	-0.057630	-0.333680	-0.103794	-0.538843	0.372535	0.681441	0.326349
55261	9.487442	0.082501	-2.121855	-0.193478	-0.321125	-0.097747	-0.538925	0.372181	0.681463	0.326571
55262	9.554144	0.404795	-2.083891	0.050743	-0.121048	-0.026427	-0.539018	0.371661	0.681576	0.326773
55263	9.672071	0.595322	-2.075722	0.187163	-0.007435	0.095738	-0.539014	0.371100	0.681718	0.327124
55264	9.571685	0.792398	-2.007424	0.328204	0.127093	-0.007030	-0.538936	0.370679	0.681783	0.327594
55265	9.732026	0.658519	-2.080213	0.220469	0.012102	0.158497	-0.538821	0.370515	0.681765	0.328004
55266	9.743282	0.581898	-2.028421	0.125879	0.012592	0.155695	-0.538928	0.370531	0.681584	0.328187
55267	9.690944	0.390420	-2.004579	-0.038713	-0.075035	0.090748	-0.539113	0.370617	0.681469	0.328025
55268	10.043874	0.511374	-2.027536	0.033088	0.020138	0.446470	-0.539434	0.370598	0.681356	0.327753
55269	10.150241	0.605416	-1.980976	0.082902	0.121221	0.545721	-0.539812	0.370468	0.681157	0.327694
55270	10.354040	0.725171	-1.933903	0.143682	0.242840	0.741570	-0.540511	0.370266	0.680619	0.327886
55271	10.228185	0.786768	-1.751009	0.137593	0.392879	0.585748	-0.541363	0.370100	0.679774	0.328421
55272	9.976054	0.420336	-1.496609	-0.250079	0.361520	0.274179	-0.542307	0.370096	0.678729	0.329026
55273	9.607584	0.175611	-1.146971	-0.563879	0.462266	-0.162798	-0.543217	0.370181	0.677868	0.329206
55274	9.845032	0.166243	-1.029958	-0.641086	0.579197	0.049696	-0.544150	0.370183	0.677248	0.328938
55275	9.571389	0.165416	-0.939240	-0.630613	0.611638	-0.234107	-0.545174	0.370027	0.676802	0.328336
55276	9.649576	0.359616	-0.939242	-0.456828	0.721292	-0.148483	-0.545899	0.369891	0.676682	0.327532
55277	9.729789	0.493225	-0.941471	-0.338247	0.802376	-0.063831	-0.546440	0.369871	0.676571	0.326879
55278	9.361521	0.275400	-1.010915	-0.430779	0.586079	-0.420841	-0.546748	0.370308	0.676359	0.326308
55279	9.298162	-0.128552	-1.165075	-0.678129	0.252396	-0.468913	-0.546776	0.371178	0.676303	0.325389
55280	9.584391	-0.174526	-1.353549	-0.646372	0.132610	-0.154134	-0.546673	0.372044	0.676446	0.324273
55281	9.524833	-0.143079	-1.507554	-0.525856	0.034095	-0.182636	-0.546550	0.372666	0.676694	0.323246
55282	9.123518	0.023738	-1.620604	-0.275139	-0.010467	-0.550418	-0.546005	0.373267	0.677219	0.322375
55283	9.082433	0.008049	-1.745016	-0.228092	-0.102529	-0.567521	-0.544901	0.374074	0.678022	0.321618
55284	9.280991	0.021326	-1.893050	-0.181438	-0.157693	-0.343634	-0.543447	0.375080	0.678944	0.320962
55285	9.369742	-0.047177	-2.028460	-0.202618	-0.257968	-0.231394	-0.541787	0.376191	0.679881	0.320482
55286	9.170983	-0.078814	-2.198729	-0.142384	-0.414930	-0.391701	-0.540007	0.377256	0.680833	0.320214
55287	9.050848	-0.060694	-2.347082	-0.065698	-0.516335	-0.476777	-0.537926	0.378252	0.682024	0.320007
55288	8.610190	0.019204	-2.467057	0.085217	-0.613767	-0.877482	-0.535427	0.379230	0.683544	0.319797
55289	8.245030	0.133078	-2.630779	0.270037	-0.712107	-1.190692	-0.532178	0.380521	0.685590	0.319306
55290	9.126795	0.040163	-2.869050	0.127678	-0.744307	-0.275371	-0.528264	0.382106	0.688096	0.318520
55291	11.230618	-0.028725	-3.216341	-0.132591	-0.619022	1.852264	-0.525262	0.383200	0.689936	0.318192
55292	11.759352	-0.144941	-3.384414	-0.270746	-0.691154	2.402328	-0.524642	0.383267	0.690057	0.318869
55293	10.414394	-0.315067	-3.078573	-0.362756	-0.799616	1.016224	-0.525879	0.382340	0.689064	0.320092
55294	9.728841	-0.292769	-2.572802	-0.471073	-0.540410	0.229282	-0.527611	0.380684	0.688050	0.321392
55295	9.826916	-0.099873	-2.199449	-0.487778	-0.174254	0.244504	-0.529768	0.378166	0.687063	0.322927
55296	9.730171	0.010155	-1.912845	-0.509459	0.028475	0.090563	-0.532096	0.374907	0.686170	0.324792
55297	9.473790	-0.171828	-1.724769	-0.716118	-0.035913	-0.208404	-0.534487	0.371112	0.685388	0.326869
55298	9.654031	-0.674100	-1.577533	-1.246369	-0.235576	-0.089845	-0.536938	0.366757	0.685010	0.328556
55299	10.075484	-0.771439	-1.585633	-1.391527	-0.333852	0.315291	-0.539850	0.361272	0.685058	0.329757
55300	9.490167	-0.198346	-1.328265	-0.956208	-0.004361	-0.275837	-0.542877	0.354443	0.685750	0.330759
55301	9.585193	0.792038	-1.138956	-0.263346	0.586842	-0.149060	-0.545456	0.346943	0.687025	0.331820
55302	9.583648	1.729057	-1.054067	0.430662	1.066165	-0.085207	-0.547728	0.339718	0.688258	0.332995
55303	8.765672	2.506336	-0.860634	1.062043	1.497166	-0.841093	-0.549297	0.334053	0.689344	0.333895
55304	8.633654	2.880246	-0.858495	1.353455	1.656684	-0.924704	-0.549628	0.331109	0.690485	0.333927
55305	8.489239	2.723716	-0.930449	1.262372	1.499048	-1.065645	-0.548815	0.330846	0.691665	0.333080
55306	8.618056	2.549732	-1.083438	1.162146	1.325352	-0.933587	-0.546869	0.332682	0.693100	0.331465
55307	8.948978	2.230027	-1.359909	0.974152	1.020256	-0.597698	-0.543900	0.336107	0.694752	0.329432
55308	9.309107	1.783855	-1.755436	0.740362	0.577184	-0.218890	-0.540596	0.340592	0.696218	0.327160
55309	9.238528	1.018825	-2.156911	0.323068	-0.078098	-0.277014	-0.537045	0.345749	0.697573	0.324702
55310	9.689054	0.301030	-2.621183	-0.121071	-0.682144	0.205185	-0.533716	0.350651	0.698843	0.322195
55311	9.576808	0.254929	-2.839851	-0.040419	-0.791336	0.148046	-0.530642	0.354801	0.700090	0.320015
55312	10.187818	0.364563	-3.110628	0.060001	-0.767875	0.817773	-0.527918	0.357957	0.701133	0.318719
55313	10.440098	0.748253	-3.333961	0.428891	-0.639789	1.145295	-0.526016	0.360292	0.701386	0.318676
55314	10.335896	0.349191	-3.307127	0.083567	-0.825425	1.013274	-0.524729	0.362146	0.700840	0.319895
55315	10.431706	-0.288477	-3.227483	-0.514898	-1.092856	1.043687	-0.524766	0.363286	0.699409	0.321668
55316	9.984755	-0.750647	-2.891802	-0.978155	-1.169168	0.497374	-0.526116	0.363358	0.697486	0.323552
55317	9.605643	-0.526119	-2.283705	-1.000372	-0.660319	0.001757	-0.528351	0.362131	0.695648	0.325238
55318	9.390313	0.455097	-1.663663	-0.421102	0.276145	-0.278600	-0.530694	0.360018	0.694125	0.327018
55319	9.407167	0.666084	-1.311218	-0.411829	0.615528	-0.320117	-0.532395	0.357738	0.693082	0.328963
55320	9.006552	0.499113	-1.095963	-0.589743	0.593109	-0.764567	-0.533695	0.355721	0.692564	0.330133
55321	8.800250	1.021418	-1.084667	-0.123668	0.824854	-0.926265	-0.534020	0.354464	0.693031	0.329980
55322	9.446037	1.749293	-1.274892	0.460977	1.148067	-0.201112	-0.533411	0.354304	0.694012	0.329072
55323	10.036177	2.091900	-1.544967	0.771911	1.215179	0.454503	-0.532397	0.355349	0.694659	0.328220
55324	10.097196	2.273338	-1.750927	1.018690	1.183328	0.567538	-0.531248	0.357600	0.694523	0.327926
55325	10.100604	2.495899	-1.902375	1.297742	1.204443	0.614960	-0.529917	0.361283	0.693327	0.328574
55326	9.503127	1.868938	-2.078429	0.987674	0.660340	0.021464	-0.528336	0.366527	0.691097	0.330007
55327	9.083618	0.936522	-2.163213	0.336286	0.069621	-0.434491	-0.526304	0.372845	0.688475	0.331653
55328	9.152039	-0.041601	-2.285019	-0.432582	-0.475397	-0.401552	-0.524153	0.379297	0.685905	0.333064
55329	9.027312	-0.131669	-2.344641	-0.443502	-0.540733	-0.511198	-0.522021	0.385228	0.683699	0.334140
55330	9.088848	-0.060336	-2.428627	-0.341865	-0.517328	-0.425232	-0.519525	0.390516	0.682068	0.335223
55331	9.238164	-0.607821	-2.568493	-0.784154	-0.820569	-0.272152	-0.517063	0.394969	0.680935	0.336115
55332	9.137562	-1.186183	-2.728106	-1.218341	-1.195127	-0.355854	-0.514892	0.398303	0.680572	0.336249
55333	9.483847	-1.100511	-2.768225	-1.187648	-1.071541	-0.001541	-0.513190	0.400365	0.681103	0.335325
55334	9.797913	-0.631114	-2.843653	-0.794571	-0.813265	0.345604	-0.512161	0.401106	0.682077	0.334029
55335	9.896726	-0.190443	-2.931982	-0.389836	-0.634214	0.484094	-0.511600	0.400784	0.683297	0.332781
55336	9.852976	0.401532	-3.015830	0.166195	-0.425003	0.489221	-0.511497	0.399714	0.684371	0.332018
55337	10.076891	0.798440	-3.030740	0.478107	-0.207773	0.727467	-0.511774	0.398412	0.685032	0.331793
55338	9.700576	1.522892	-2.767067	1.056221	0.267936	0.330764	-0.512389	0.397657	0.684779	0.332272
55339	9.704775	1.684436	-2.683960	1.165955	0.391564	0.321946	-0.512710	0.397912	0.683740	0.333607
55340	9.354515	1.399572	-2.660250	0.969025	0.180335	-0.036643	-0.512828	0.399332	0.681808	0.335678
55341	9.069664	0.408574	-2.680043	0.156215	-0.375158	-0.355248	-0.512549	0.401601	0.679534	0.338000
55342	8.947984	-0.879803	-2.739773	-0.937078	-1.050178	-0.519366	-0.512276	0.403640	0.677559	0.339944
55343	8.370253	-1.421922	-2.644839	-1.374286	-1.326145	-1.127594	-0.511941	0.404609	0.676791	0.340824
55344	8.244553	-1.733326	-2.537864	-1.689632	-1.388160	-1.290016	-0.510986	0.404233	0.678002	0.340297
55345	8.468875	-1.098551	-2.407366	-1.236706	-0.926399	-1.075625	-0.509649	0.402516	0.680994	0.338357
55346	9.104357	-0.482805	-2.463738	-0.804845	-0.535491	-0.418141	-0.507958	0.399862	0.685248	0.335447
55347	9.403537	-0.040611	-2.718274	-0.407012	-0.443982	-0.042637	-0.506332	0.396519	0.690017	0.332081
55348	9.905579	0.524972	-2.841379	-0.003615	-0.127365	0.504902	-0.504847	0.392772	0.694889	0.328616
55349	11.184842	1.678866	-2.866916	0.720874	0.719476	1.810595	-0.504103	0.389128	0.698633	0.326145
55350	10.469232	2.104286	-2.588718	1.042907	1.031617	1.076862	-0.504164	0.386259	0.700494	0.325469
55351	9.823467	1.857706	-2.404050	0.838041	0.919122	0.394362	-0.504466	0.384614	0.700922	0.326028
55352	9.355312	1.698054	-2.258243	0.713490	0.845130	-0.102818	-0.504645	0.384431	0.700415	0.327056
55353	9.476549	1.300485	-2.405413	0.418824	0.529285	0.027367	-0.504736	0.385352	0.699252	0.328317
55354	9.533320	0.828319	-2.603828	0.103190	0.122812	0.103181	-0.504946	0.386706	0.697702	0.329695
55355	9.292195	0.298191	-2.782409	-0.215173	-0.352053	-0.117052	-0.505170	0.388050	0.696196	0.330955
55356	9.087645	-0.403942	-2.973969	-0.690199	-0.908632	-0.310533	-0.505458	0.388868	0.695118	0.331821
55357	9.133193	-1.060372	-3.103047	-1.205466	-1.334046	-0.276668	-0.505841	0.388758	0.694893	0.331838
55358	9.783139	-0.794274	-3.206771	-1.038710	-1.175781	0.393323	-0.506768	0.387189	0.695360	0.331279
55359	9.226201	-0.292700	-2.921657	-0.625783	-0.820421	-0.185653	-0.507958	0.384445	0.696305	0.330666
55360	9.383700	0.190515	-2.798183	-0.297548	-0.475535	-0.034896	-0.509198	0.380983	0.697577	0.330084
55361	8.940342	0.467481	-2.512985	-0.121863	-0.208334	-0.517258	-0.510149	0.377275	0.699180	0.329485
55362	9.247274	0.961162	-2.263647	0.101160	0.284709	-0.248766	-0.510657	0.373632	0.700999	0.328982
55363	9.367211	1.654111	-1.938472	0.479754	0.913783	-0.160067	-0.510610	0.370499	0.702685	0.329001
55364	9.767273	1.533706	-1.830761	0.202374	0.996480	0.190786	-0.510082	0.368283	0.703952	0.329599
55365	10.471914	1.370451	-2.010390	-0.029406	0.863168	0.903411	-0.509984	0.366735	0.704355	0.330615
55366	9.915621	1.392869	-2.129465	0.146650	0.643722	0.402901	-0.510518	0.365592	0.703887	0.332051
55367	8.768631	1.619711	-2.149826	0.585221	0.512977	-0.673300	-0.510813	0.365224	0.703138	0.333585
55368	8.444130	1.850940	-2.220687	0.881025	0.498609	-0.944997	-0.510048	0.366234	0.702564	0.334854
55369	8.411341	1.828796	-2.277146	0.890162	0.436438	-0.964091	-0.508243	0.368787	0.702031	0.335915
55370	8.667729	1.488711	-2.413616	0.600562	0.215542	-0.715210	-0.505516	0.372607	0.701511	0.336896
55371	8.832705	0.623499	-2.840188	0.004382	-0.507451	-0.527521	-0.502405	0.377067	0.701014	0.337623
55372	9.469966	0.478165	-3.220053	-0.098864	-0.728205	0.174165	-0.499348	0.381503	0.700667	0.337896
55373	9.693279	0.739756	-3.360924	0.127638	-0.619403	0.453883	-0.496424	0.385650	0.700292	0.338273
55374	10.342177	0.665902	-3.420105	-0.057994	-0.527074	1.087765	-0.494183	0.389400	0.699427	0.339048
55375	9.939665	0.628522	-3.405279	-0.016129	-0.586543	0.696528	-0.492901	0.392616	0.697891	0.340366
55376	9.284182	0.410369	-3.170990	-0.170115	-0.613079	-0.013972	-0.491892	0.395539	0.696174	0.341954
55377	10.379759	0.495460	-3.206472	-0.290442	-0.380713	1.051797	-0.491489	0.397863	0.694166	0.343912
55378	10.207940	1.389902	-2.785624	0.386792	0.319067	0.847605	-0.492170	0.399700	0.691242	0.346688
55379	9.560284	2.435848	-2.081013	1.193831	1.200445	0.126934	-0.492788	0.401987	0.687406	0.350770
55380	9.145385	2.457107	-1.688471	1.175402	1.392789	-0.367886	-0.492384	0.405701	0.682777	0.356063
55381	9.392257	0.966236	-1.589603	-0.213540	0.841699	-0.277456	-0.491072	0.410953	0.677804	0.361315
55382	9.550715	0.463875	-1.683303	-0.620171	0.559350	-0.139676	-0.489835	0.416824	0.672853	0.365498
55383	9.505480	0.957080	-1.717131	-0.099623	0.703509	-0.132107	-0.488155	0.422991	0.668295	0.369006
55384	9.747503	0.917508	-1.935033	-0.056669	0.538575	0.152582	-0.486023	0.429163	0.664007	0.372419
55385	9.442739	0.340098	-2.207096	-0.423764	0.028698	-0.118783	-0.483707	0.435148	0.659973	0.375645
55386	9.271904	-0.516210	-2.486208	-1.092757	-0.537739	-0.276831	-0.481488	0.440404	0.656618	0.378240
55387	9.355349	-0.405777	-2.701562	-0.927382	-0.659876	-0.133321	-0.479627	0.444400	0.654104	0.380281
55388	9.984275	0.194848	-2.898866	-0.386412	-0.505004	0.566272	-0.478275	0.447456	0.651964	0.382072
55389	9.955063	1.350074	-2.680153	0.660250	0.040783	0.563802	-0.477561	0.450044	0.649275	0.384497
55390	9.292362	0.515141	-2.542709	-0.066187	-0.252621	-0.168494	-0.476780	0.453001	0.646016	0.387472
55391	8.865563	-0.712897	-2.409459	-1.196701	-0.592686	-0.695204	-0.476412	0.456222	0.642966	0.389214
55392	9.106537	-0.108950	-2.258708	-0.660835	-0.225926	-0.455615	-0.476241	0.459111	0.640604	0.389920
55393	9.410433	1.362093	-2.022017	0.680972	0.474076	-0.127051	-0.475622	0.461919	0.638549	0.390729
55394	9.763939	2.204340	-1.990904	1.467316	0.803184	0.255040	-0.474178	0.465532	0.635878	0.392550
55395	9.492404	3.025512	-1.965533	2.315366	0.964135	0.027643	-0.472038	0.470633	0.631993	0.395309
55396	9.226622	2.867018	-2.081073	2.260944	0.726604	-0.218883	-0.468681	0.478179	0.626563	0.398874
55397	9.206030	1.464615	-2.352379	1.006078	0.128862	-0.252312	-0.464530	0.487531	0.620071	0.402539
55398	9.730958	0.469562	-2.679041	0.098112	-0.250407	0.287640	-0.460226	0.497575	0.612984	0.406031
55399	9.826853	-0.037190	-2.823317	-0.330409	-0.424430	0.397596	-0.456333	0.507183	0.605636	0.409549
55400	9.720266	-0.613881	-3.000345	-0.817484	-0.675850	0.323247	-0.452948	0.515930	0.598383	0.413028
55401	9.200358	-1.835323	-3.108882	-1.943743	-1.025097	-0.176772	-0.450344	0.523398	0.591848	0.415886
55402	8.972707	-2.477705	-3.152961	-2.530841	-1.147277	-0.385707	-0.448672	0.529056	0.587003	0.417398
55403	9.187077	-1.558536	-2.971063	-1.608766	-0.797032	-0.198368	-0.447702	0.532535	0.584066	0.418133
55404	9.430148	-0.209838	-2.661980	-0.279344	-0.306932	-0.020568	-0.446738	0.534587	0.582336	0.418960
55405	9.796074	0.446760	-2.517254	0.357690	-0.025308	0.305150	-0.445747	0.535956	0.580829	0.420355
55406	9.569284	0.434051	-2.376721	0.339578	0.043950	0.050940	-0.444760	0.537384	0.579023	0.422065
55407	9.180303	-0.236795	-2.358532	-0.317791	-0.089746	-0.337052	-0.443927	0.539120	0.577028	0.423459
55408	9.030653	-0.829646	-2.415270	-0.891765	-0.218801	-0.472912	-0.443351	0.540846	0.575501	0.423940
55409	9.123004	-0.190659	-2.384077	-0.244170	-0.118042	-0.385291	-0.442795	0.542258	0.574668	0.423846
55410	9.126464	0.349304	-2.299292	0.297640	0.010867	-0.399273	-0.441797	0.543457	0.574338	0.423799
55411	9.590672	0.418707	-2.494138	0.367559	-0.042066	0.098928	-0.440513	0.544660	0.574100	0.423914
55412	9.726121	0.287547	-2.620547	0.238777	-0.120597	0.260833	-0.439472	0.545905	0.573557	0.424128
55413	9.644201	-0.170832	-2.774292	-0.206005	-0.298960	0.217500	-0.438837	0.547145	0.572827	0.424175
55414	9.511162	-0.558856	-2.821684	-0.579313	-0.386767	0.099488	-0.438728	0.547962	0.572262	0.423995
55415	9.361083	-0.115531	-2.719367	-0.126940	-0.300619	-0.069398	-0.438962	0.548308	0.572041	0.423604
55416	9.348172	0.502303	-2.583201	0.493843	-0.141353	-0.114765	-0.439031	0.548590	0.571907	0.423346
55417	9.435169	0.679323	-2.459535	0.668487	0.010296	-0.061471	-0.438661	0.549135	0.571493	0.423583
55418	9.496696	0.260135	-2.500882	0.252632	-0.031829	0.007928	-0.438123	0.550018	0.570646	0.424137
55419	9.352066	-0.395494	-2.618535	-0.390624	-0.208791	-0.102997	-0.437795	0.551080	0.569515	0.424616
55420	9.414280	-0.597416	-2.752475	-0.575826	-0.331562	-0.008598	-0.437927	0.551942	0.568532	0.424678
55421	9.003174	0.034165	-2.587057	0.066958	-0.253858	-0.448809	-0.438090	0.552596	0.567809	0.424627
55422	9.463820	0.124716	-2.686683	0.166979	-0.230487	0.021777	-0.437762	0.553222	0.567425	0.424664
55423	9.898189	-0.005738	-2.791372	0.041312	-0.223739	0.469052	-0.437465	0.553746	0.566996	0.424859
55424	9.867139	-0.239751	-2.860335	-0.185350	-0.306562	0.457225	-0.437587	0.554105	0.566449	0.424995
55425	9.776673	-0.583055	-2.902617	-0.516870	-0.387324	0.381981	-0.438170	0.554210	0.565916	0.424968
55426	9.418203	-0.505336	-2.815790	-0.426046	-0.403157	0.012916	-0.439374	0.553875	0.565554	0.424642
55427	9.116545	0.073893	-2.707924	0.166352	-0.369601	-0.310825	-0.440593	0.553386	0.565458	0.424146
55428	9.395880	0.388888	-2.657221	0.494813	-0.254337	-0.056405	-0.441747	0.552907	0.565270	0.423820
55429	9.332482	0.257093	-2.663603	0.377717	-0.297006	-0.116030	-0.442938	0.552491	0.564793	0.423755
55430	9.276106	-0.002102	-2.622116	0.132254	-0.297886	-0.178614	-0.444125	0.552121	0.564351	0.423584
55431	9.067072	0.190680	-2.554292	0.335774	-0.291474	-0.401267	-0.445288	0.551589	0.564162	0.423307
55432	9.045466	0.809747	-2.443186	0.957227	-0.175520	-0.458639	-0.445809	0.551113	0.564304	0.423190
55433	9.638746	1.132099	-2.619306	1.288856	-0.198713	0.154619	-0.446013	0.550732	0.564336	0.423429
55434	10.124160	1.021603	-2.734087	1.183328	-0.211969	0.654991	-0.446342	0.550503	0.563826	0.424058
55435	10.021358	0.524833	-2.752788	0.692260	-0.301734	0.565680	-0.447552	0.550014	0.562753	0.424842
55436	10.141405	0.047681	-2.900282	0.241309	-0.481925	0.721599	-0.450017	0.548961	0.561456	0.425317
55437	10.458222	-0.109065	-3.044782	0.129961	-0.627096	1.061413	-0.454182	0.546847	0.560020	0.425505
55438	10.887769	-0.423392	-3.231818	-0.114544	-0.839006	1.520824	-0.460542	0.543046	0.558466	0.425579
55439	11.461481	-0.365982	-3.555498	0.047403	-1.203045	2.132487	-0.469634	0.536877	0.556681	0.425810
55440	11.306190	-0.527828	-3.801137	0.003444	-1.725599	2.001365	-0.481564	0.528077	0.554550	0.426270
55441	10.231439	0.326552	-3.550472	0.933868	-1.866915	0.818826	-0.496121	0.516881	0.552273	0.426254
55442	9.008277	2.631379	-2.837982	3.239669	-1.328956	-0.655130	-0.511754	0.504671	0.549645	0.425800
55443	9.414740	3.632201	-2.293914	4.289285	-0.802872	-0.429438	-0.526587	0.493327	0.546100	0.425569
55444	10.102361	2.063521	-2.239295	2.896704	-1.151900	0.267236	-0.541692	0.482597	0.540958	0.425481
55445	8.868243	1.845238	-1.966301	2.724394	-1.226783	-1.038705	-0.557630	0.472017	0.534644	0.424740
55446	6.835477	2.854209	-1.179906	3.554756	-0.481506	-3.225480	-0.572807	0.462403	0.528026	0.423397
55447	6.609533	2.763405	-0.695900	3.451457	-0.142870	-3.498287	-0.585669	0.454653	0.521838	0.421862
55448	7.580333	2.014867	-0.717918	2.936607	-0.478899	-2.520163	-0.596971	0.448101	0.515582	0.420721
55449	7.792275	1.109134	-0.956416	2.263620	-1.081805	-2.291595	-0.607931	0.441731	0.508646	0.420207
55450	7.364230	0.662942	-1.005032	1.914315	-1.366187	-2.731242	-0.619082	0.435317	0.500875	0.419954
55451	7.392452	0.113270	-0.951858	1.510866	-1.626538	-2.696889	-0.630650	0.429018	0.491990	0.419727
55452	7.181460	-0.682428	-0.317015	0.693418	-1.398386	-2.762968	-0.642487	0.422720	0.481977	0.419781
55453	7.905838	-1.995604	0.681414	-0.532980	-1.144562	-1.728833	-0.653846	0.416250	0.471561	0.420538
55454	8.781024	-4.049441	1.899364	-2.460817	-1.015001	-0.324903	-0.664158	0.409696	0.461568	0.421899
55455	11.204345	-5.658021	2.773490	-3.510535	-1.451759	2.467400	-0.673307	0.402942	0.453436	0.422718
55456	12.663545	-5.197806	4.107637	-2.947940	-0.698107	4.153949	-0.681304	0.396306	0.446557	0.423501
55457	13.426037	-5.269640	5.221855	-3.005157	-0.194036	5.227843	-0.687738	0.390203	0.440565	0.425043
55458	13.643750	-5.671585	5.882748	-3.405073	-0.082962	5.721679	-0.692895	0.384744	0.435125	0.427241
55459	12.973909	-6.045621	6.158802	-3.921824	-0.058772	5.267519	-0.697464	0.379560	0.430370	0.429256
55460	11.827321	-5.746377	5.996939	-3.844262	-0.015419	4.118830	-0.701554	0.374575	0.426790	0.430540
55461	10.023783	-4.886245	5.677211	-3.412561	0.342614	2.221320	-0.705026	0.369754	0.424684	0.431119
55462	8.183250	-3.980768	5.107930	-2.913392	0.586865	0.190808	-0.707501	0.365392	0.424226	0.431235
55463	6.843482	-3.155358	4.396520	-2.335235	0.591402	-1.427257	-0.708951	0.361426	0.425195	0.431241
55464	5.969275	-2.399663	3.686549	-1.705458	0.470120	-2.611896	-0.709516	0.357679	0.427004	0.431648
55465	5.560556	-1.789773	3.071325	-1.113987	0.254402	-3.312674	-0.709513	0.353960	0.429090	0.432649
55466	5.651893	-1.189659	2.906789	-0.534784	0.276008	-3.374817	-0.709589	0.350035	0.430706	0.434110
55467	4.486648	-0.455092	3.355646	-0.334359	1.281196	-4.349719	-0.710147	0.346016	0.431408	0.435720
55468	2.944229	-0.061167	3.955159	-0.574857	2.421420	-5.555732	-0.710571	0.342694	0.432140	0.436928
55469	1.542185	0.178120	4.482603	-0.892932	3.413740	-6.642075	-0.710344	0.340219	0.433805	0.437578
55470	1.322245	0.578721	4.793440	-0.708441	3.908062	-6.765498	-0.708814	0.338888	0.437550	0.437365
55471	3.731012	1.289825	4.618810	0.522298	3.267149	-4.716610	-0.706214	0.338566	0.443050	0.436282
55472	7.080769	1.649070	4.302976	1.648001	2.123507	-1.803579	-0.702976	0.339169	0.449505	0.434436
55473	11.494711	1.518321	3.847280	2.546672	0.428939	2.127252	-0.699204	0.340353	0.456669	0.432119
55474	15.212039	1.935742	3.877376	3.557501	-0.330632	5.595681	-0.695953	0.340509	0.462972	0.430535
55475	15.237355	2.434797	4.574024	3.621357	0.592929	5.857628	-0.693711	0.339748	0.467648	0.429701
55476	14.933687	3.251378	5.234867	3.934909	1.669610	5.766699	-0.691522	0.339036	0.471777	0.429276
55477	16.600763	3.800266	5.192078	4.640839	1.462605	7.313517	-0.689211	0.338903	0.475020	0.429522
55478	16.272505	4.157510	5.422664	4.737605	1.949365	7.076344	-0.687507	0.339649	0.476316	0.430229
55479	14.103283	4.131412	5.750034	4.183200	2.854967	5.133345	-0.685460	0.342172	0.476620	0.431156
55480	12.160468	3.944864	5.478673	3.785629	3.123688	3.201375	-0.682437	0.346915	0.476729	0.432040
55481	10.212801	3.553564	4.861740	3.345134	3.025258	1.151909	-0.678238	0.353980	0.476986	0.432638
55482	8.468447	2.794745	4.107596	2.654413	2.615444	-0.729210	-0.673034	0.363066	0.477405	0.432773
55483	6.974804	1.772059	3.323088	1.762728	2.013626	-2.351625	-0.667019	0.373740	0.478033	0.432305
55484	5.816367	0.516994	2.831518	0.598321	1.511161	-3.530040	-0.660701	0.385125	0.478820	0.431143
55485	4.292895	0.112508	2.898580	-0.019064	1.870299	-4.981159	-0.654179	0.396620	0.479898	0.429466
55486	2.898244	0.135988	3.160035	-0.270511	2.481916	-6.324152	-0.646468	0.408699	0.481688	0.427809
55487	2.811853	0.273732	3.073247	-0.088171	2.550405	-6.509268	-0.636599	0.421983	0.484341	0.426715
55488	4.177415	-0.343475	2.556505	-0.274716	1.814786	-5.259292	-0.624781	0.436571	0.486985	0.426498
55489	4.647840	-1.226592	1.969790	-0.880593	1.133920	-4.820406	-0.611717	0.451911	0.489259	0.426855
55490	5.749224	-1.399502	0.995818	-0.664437	0.264886	-3.855552	-0.596447	0.468698	0.492203	0.426977
55491	10.798610	-1.926586	-0.842385	-0.125754	-1.563578	1.075456	-0.578480	0.486956	0.495914	0.426971
55492	14.385513	-1.958284	-1.844085	0.382727	-2.121879	4.661539	-0.560370	0.504635	0.497487	0.428760
55493	13.201105	-3.203338	-1.867751	-1.149605	-1.813339	3.729386	-0.542833	0.521701	0.496564	0.431954
55494	12.979031	-4.251888	-2.058492	-2.320547	-1.614432	3.706128	-0.525929	0.537880	0.494602	0.435262
55495	14.433467	-5.027809	-2.490457	-2.978689	-1.472921	5.311469	-0.509973	0.552944	0.492131	0.438165
55496	15.910994	-5.585459	-2.769345	-3.413698	-1.111452	6.894108	-0.496041	0.566153	0.488687	0.441134
55497	14.860579	-6.254693	-2.452469	-4.259903	-0.455726	5.922803	-0.484713	0.577040	0.484412	0.444324
55498	12.680168	-6.420311	-1.983107	-4.719747	0.089581	3.739016	-0.475319	0.585753	0.480541	0.447265
55499	10.950956	-5.929998	-1.773920	-4.474303	0.283324	1.940242	-0.467162	0.592629	0.477826	0.449703
55500	9.965292	-5.067352	-1.776199	-3.782879	0.249528	0.853383	-0.459805	0.598066	0.476186	0.451822
55501	9.039870	-4.458583	-1.790068	-3.345501	0.176634	-0.139146	-0.453151	0.602258	0.475306	0.453898
55502	8.181602	-4.030584	-1.806940	-3.079809	0.086880	-1.040261	-0.447303	0.605621	0.474832	0.455717
55503	7.501718	-3.831207	-1.777832	-3.003860	0.069529	-1.745102	-0.442292	0.608362	0.474698	0.457095
55504	7.198414	-3.600312	-1.649305	-2.826464	0.183627	-2.100582	-0.438076	0.610610	0.474751	0.458100
55505	6.768762	-3.551166	-1.486817	-2.833455	0.320692	-2.566590	-0.434412	0.612326	0.475142	0.458893
55506	6.534534	-3.012943	-1.285000	-2.327329	0.436370	-2.897336	-0.431046	0.613651	0.475921	0.459489
55507	6.655883	-2.474046	-1.184639	-1.792501	0.511656	-2.859276	-0.427325	0.614960	0.476978	0.460119
55508	6.887726	-2.056474	-1.175214	-1.381571	0.542595	-2.681943	-0.423082	0.616469	0.477957	0.461004
55509	7.303757	-2.248149	-1.526041	-1.610627	0.378588	-2.197577	-0.418171	0.618248	0.478841	0.462183
55510	7.824089	-2.613074	-2.073134	-2.041636	0.095073	-1.556512	-0.413070	0.620023	0.479913	0.463280
55511	8.320427	-2.685198	-2.551567	-2.185677	-0.168576	-0.972780	-0.408345	0.621614	0.481429	0.463763
55512	8.764244	-2.161582	-2.836448	-1.720970	-0.368360	-0.515822	-0.404094	0.622892	0.483452	0.463667
55513	9.060190	-2.026477	-3.126588	-1.651609	-0.526525	-0.170927	-0.400430	0.623871	0.485742	0.463137
55514	8.776828	-1.856916	-3.225159	-1.563422	-0.645618	-0.430740	-0.397473	0.624674	0.488059	0.462164
55515	8.829516	-2.098671	-3.532437	-1.872333	-0.807202	-0.289806	-0.395043	0.625410	0.490556	0.460607
55516	8.936215	-1.895638	-3.744967	-1.714537	-0.959178	-0.137245	-0.393230	0.625903	0.493050	0.458822
55517	9.028153	-1.891731	-3.994297	-1.756367	-1.113792	0.021689	-0.391575	0.626152	0.495666	0.457075
55518	9.111745	-1.811666	-4.089508	-1.698314	-1.144017	0.128984	-0.390164	0.626064	0.498308	0.455527
55519	8.884799	-1.614388	-4.039468	-1.529982	-1.151742	-0.107239	-0.389204	0.625420	0.500936	0.454349
55520	8.297742	-1.112312	-3.763950	-1.059514	-1.113761	-0.763160	-0.388296	0.624269	0.503603	0.453760
55521	8.609561	-0.459944	-3.563014	-0.400924	-0.933922	-0.539184	-0.386443	0.622477	0.506806	0.454238
55522	9.594355	0.109658	-3.501113	0.161197	-0.680903	0.377059	-0.383714	0.619879	0.510350	0.456132
55523	10.215395	0.435900	-3.473573	0.407792	-0.514117	0.965897	-0.380483	0.616694	0.514231	0.458789
55524	10.292069	1.386008	-3.282188	1.245509	-0.450544	0.997705	-0.377386	0.613224	0.518441	0.461254
55525	9.851438	2.740101	-3.024850	2.478464	-0.526863	0.545249	-0.374107	0.610067	0.522730	0.463265
55526	9.481410	3.339141	-3.070928	2.941142	-0.720998	0.252409	-0.370411	0.607989	0.526849	0.464301
55527	9.393243	3.755274	-3.145308	3.251956	-0.812898	0.236742	-0.366811	0.607052	0.530527	0.464197
55528	9.155463	4.273426	-3.168926	3.702029	-0.908033	0.066404	-0.363239	0.607577	0.533346	0.463088
55529	9.981946	4.150451	-3.579267	3.483152	-0.934914	0.988683	-0.359900	0.609176	0.535059	0.461614
55530	10.301523	3.927302	-3.799042	3.214326	-0.930449	1.357803	-0.357115	0.611221	0.535537	0.460519
55531	10.321609	3.459916	-3.963008	2.725280	-0.949384	1.407093	-0.354863	0.613445	0.535010	0.459915
55532	10.312834	3.045242	-3.954954	2.328576	-0.849306	1.373290	-0.353476	0.615650	0.533545	0.459739
55533	9.855163	2.602397	-3.650071	1.968910	-0.641484	0.814236	-0.353271	0.617709	0.531104	0.459960
55534	9.061102	2.465067	-3.346816	1.917777	-0.624239	-0.049827	-0.354200	0.619715	0.527795	0.460357
55535	8.655446	2.535099	-3.273648	2.038350	-0.743480	-0.466447	-0.355215	0.622144	0.523998	0.460634
55536	8.536508	2.174396	-3.225138	1.741059	-0.706249	-0.621874	-0.355750	0.625219	0.519901	0.460701
55537	8.268937	1.588614	-3.183868	1.220104	-0.658649	-0.918122	-0.355513	0.629086	0.515808	0.460221
55538	8.986745	0.985721	-3.466885	0.660197	-0.568003	-0.169362	-0.354560	0.633329	0.512060	0.459321
55539	9.332182	0.443353	-3.721514	0.151037	-0.560413	0.227169	-0.353431	0.637222	0.508682	0.458560
55540	9.432307	0.045701	-3.753700	-0.187106	-0.450518	0.327460	-0.352443	0.640587	0.505667	0.457966
55541	9.129610	-0.218608	-3.671321	-0.402407	-0.398283	0.013577	-0.351983	0.643231	0.502948	0.457608
55542	8.924127	-0.208252	-3.538829	-0.340291	-0.340987	-0.222351	-0.351697	0.645386	0.500640	0.457325
55543	8.956671	-0.394789	-3.540877	-0.490422	-0.287360	-0.190188	-0.351586	0.646916	0.498677	0.457393
55544	8.625954	-0.938177	-3.476531	-1.007621	-0.201029	-0.521951	-0.351635	0.647995	0.497224	0.457410
55545	8.603010	-1.259730	-3.467773	-1.299466	-0.121813	-0.543347	-0.352141	0.648589	0.496513	0.456950
55546	8.756506	-1.034553	-3.424486	-1.037830	-0.094229	-0.411209	-0.353057	0.648701	0.496523	0.456072
55547	9.363042	-0.637370	-3.507962	-0.601022	-0.082542	0.187839	-0.354077	0.648402	0.497008	0.455179
55548	9.362392	-0.310010	-3.483654	-0.267887	-0.150384	0.176904	-0.355155	0.647679	0.497486	0.454846
55549	9.170681	-0.332337	-3.505063	-0.307821	-0.235450	0.002969	-0.355907	0.647099	0.497880	0.454653
55550	9.419704	-0.280135	-3.591816	-0.250081	-0.257672	0.266078	-0.356591	0.646827	0.497967	0.454407
55551	9.567957	-0.355856	-3.625379	-0.308216	-0.231603	0.418009	-0.357212	0.646880	0.497642	0.454200
55552	9.399097	-0.417718	-3.540913	-0.351515	-0.202063	0.231772	-0.357788	0.647131	0.496943	0.454154
55553	9.232285	-0.494182	-3.457146	-0.408747	-0.168940	0.048120	-0.358173	0.647543	0.496104	0.454182
55554	9.268927	-0.578988	-3.417583	-0.466898	-0.109896	0.071544	-0.358436	0.647967	0.495180	0.454378
55555	9.240678	-0.714789	-3.437025	-0.594985	-0.113556	0.053784	-0.358783	0.648369	0.494202	0.454596
55556	9.255868	-0.918472	-3.461947	-0.785620	-0.093782	0.080428	-0.359237	0.648686	0.493203	0.454869
55557	9.165607	-1.080140	-3.472316	-0.942153	-0.104858	0.002269	-0.359790	0.648954	0.492254	0.455077
55558	9.171357	-1.226763	-3.493304	-1.076931	-0.099548	0.018497	-0.360364	0.649147	0.491450	0.455218
55559	9.294952	-1.220929	-3.507436	-1.052925	-0.091094	0.140801	-0.360980	0.649117	0.490818	0.455454
55560	9.306044	-1.311946	-3.614369	-1.160373	-0.180890	0.187718	-0.361696	0.648752	0.490389	0.455868
55561	9.104010	-1.416382	-3.701771	-1.302931	-0.316727	0.025720	-0.362538	0.648049	0.490298	0.456297
55562	8.817876	-1.432817	-3.650973	-1.340842	-0.373118	-0.262798	-0.363463	0.646984	0.490704	0.456636
55563	8.812549	-1.232221	-3.460331	-1.112338	-0.266822	-0.334039	-0.364205	0.645753	0.491643	0.456777
55564	9.521335	-1.008508	-3.576100	-0.868281	-0.237715	0.368221	-0.365146	0.644058	0.492641	0.457343
55565	9.234072	-0.759384	-3.511441	-0.661460	-0.349528	0.067351	-0.366075	0.642251	0.493474	0.458242
55566	9.570788	-0.935389	-3.715495	-0.873527	-0.430758	0.450404	-0.367067	0.640271	0.494056	0.459591
55567	9.075757	-1.275003	-3.422911	-1.211078	-0.263625	-0.108313	-0.368334	0.638103	0.494540	0.461069
55568	10.455098	-1.279155	-3.344648	-1.114222	0.148200	1.181313	-0.370239	0.635315	0.495040	0.462854
55569	10.524063	-0.844060	-3.064412	-0.666112	0.238775	1.158048	-0.373320	0.631495	0.494850	0.465800
55570	9.457322	-0.274760	-2.600759	-0.138136	0.140063	-0.002470	-0.376750	0.627302	0.494101	0.469485
55571	8.745995	-0.222259	-2.311042	-0.118393	0.109243	-0.765263	-0.379431	0.623723	0.493137	0.473094
55572	8.995204	-0.880021	-2.187146	-0.757302	0.342441	-0.550927	-0.381699	0.620580	0.492227	0.476339
55573	8.957671	-1.126642	-2.081547	-1.014610	0.404527	-0.612234	-0.383909	0.617539	0.491691	0.479061
55574	9.316950	-0.898195	-2.116207	-0.815133	0.331588	-0.256762	-0.385963	0.614409	0.491775	0.481344
55575	9.099338	-0.112878	-1.909590	-0.056156	0.247646	-0.517939	-0.387516	0.611379	0.492209	0.483505
55576	9.153509	0.086781	-1.775653	0.128666	0.295856	-0.493737	-0.388401	0.608978	0.492498	0.485526
55577	9.009445	-0.214736	-1.725704	-0.196257	0.338475	-0.645298	-0.388841	0.607359	0.492590	0.487108
55578	9.070247	-0.767814	-1.833618	-0.781687	0.337534	-0.566280	-0.389152	0.606218	0.492677	0.488191
55579	9.065168	-0.981248	-2.016388	-1.045108	0.188359	-0.534855	-0.389617	0.605173	0.493172	0.488617
55580	8.729395	-0.214037	-1.962452	-0.309464	0.004392	-0.868217	-0.389752	0.604217	0.494157	0.488697
55581	8.836803	0.138439	-2.021189	0.009899	-0.091567	-0.747098	-0.388909	0.603731	0.495540	0.488568
55582	9.264619	0.202436	-2.190953	0.031099	-0.151758	-0.291641	-0.387527	0.603696	0.496814	0.488415
55583	9.338501	0.122638	-2.327420	-0.091316	-0.219478	-0.190686	-0.385888	0.604105	0.497748	0.488256
55584	9.373918	-0.266004	-2.400705	-0.501416	-0.170051	-0.147077	-0.384141	0.604762	0.498440	0.488115
55585	9.361547	-0.517507	-2.481778	-0.777367	-0.165831	-0.146576	-0.382578	0.605385	0.499116	0.487880
55586	9.284813	-0.484225	-2.478341	-0.757802	-0.152496	-0.221715	-0.381002	0.605938	0.500068	0.487451
55587	9.443259	-0.160633	-2.426299	-0.440910	-0.097314	-0.071852	-0.379393	0.606318	0.501151	0.487122
55588	9.416652	-0.290430	-2.364569	-0.574227	0.017223	-0.116363	-0.377578	0.606676	0.502195	0.487011
55589	9.361954	-0.919380	-2.401162	-1.217516	0.132880	-0.181649	-0.376005	0.606932	0.503254	0.486816
55590	9.121513	-0.978915	-2.363494	-1.288529	0.154442	-0.428545	-0.374878	0.606925	0.504650	0.486247
55591	8.961108	-0.827280	-2.372735	-1.159908	0.107063	-0.579120	-0.373865	0.606614	0.506663	0.485322
55592	9.089572	-0.590638	-2.443319	-0.962247	0.056991	-0.431341	-0.372834	0.605759	0.509208	0.484519
55593	9.041308	-0.458387	-2.537145	-0.883970	-0.039820	-0.452702	-0.371840	0.604332	0.512058	0.484060
55594	9.139112	-0.438175	-2.535870	-0.902621	0.005265	-0.361176	-0.371149	0.602479	0.514905	0.483881
55595	8.961317	-0.440773	-2.510817	-0.937892	-0.000534	-0.543171	-0.371018	0.600487	0.517758	0.483412
55596	9.580634	-0.107084	-2.723836	-0.686339	-0.089541	0.124119	-0.371188	0.598333	0.520968	0.482503
55597	9.915475	0.447147	-2.886670	-0.208264	-0.239550	0.519233	-0.371696	0.595702	0.524335	0.481720
55598	9.914374	1.287847	-2.966456	0.565852	-0.442422	0.591020	-0.372149	0.592717	0.527858	0.481205
55599	10.447758	1.930399	-3.005126	1.132754	-0.427625	1.162130	-0.372446	0.589579	0.531155	0.481201
55600	10.709939	2.300184	-2.960631	1.441776	-0.369694	1.436459	-0.373102	0.586204	0.533802	0.481887
55601	10.395432	2.587446	-2.798322	1.709975	-0.352977	1.120823	-0.374333	0.582807	0.535841	0.482788
55602	10.517602	2.842940	-2.755977	1.920765	-0.339839	1.254953	-0.375839	0.579598	0.537578	0.483550
55603	10.600627	3.081919	-2.574463	2.149378	-0.202939	1.315577	-0.377767	0.576741	0.538874	0.484021
55604	10.724038	3.086235	-2.517122	2.136000	-0.147875	1.424806	-0.379962	0.574003	0.539880	0.484437
55605	10.635990	3.440305	-2.335769	2.503970	-0.075446	1.329130	-0.382455	0.571422	0.540426	0.484917
55606	10.423564	3.515675	-2.162350	2.612840	-0.014720	1.089561	-0.385222	0.569384	0.540048	0.485545
55607	8.850914	3.344806	-2.028167	2.564438	-0.288814	-0.486391	-0.388372	0.568094	0.538656	0.486092
55608	7.366315	2.397162	-1.920206	1.751240	-0.451071	-2.039289	-0.390597	0.568526	0.537543	0.485036
55609	7.796458	2.286397	-1.970427	1.657025	-0.386624	-1.627365	-0.391840	0.569974	0.537369	0.482520
55610	7.932458	2.664840	-2.148798	2.051387	-0.536746	-1.437370	-0.392044	0.572106	0.537779	0.479365
55611	7.898732	2.898630	-2.151951	2.326873	-0.517823	-1.461642	-0.390724	0.575089	0.538504	0.476047
55612	9.236355	2.682730	-2.822146	2.021421	-0.747724	-0.023611	-0.388596	0.578367	0.538843	0.473428
55613	8.678255	2.215385	-3.051599	1.576596	-0.987724	-0.535259	-0.386312	0.581892	0.538553	0.471302
55614	8.763716	2.050621	-3.169482	1.422771	-1.000122	-0.430335	-0.383868	0.585460	0.537984	0.469526
55615	8.690292	2.357235	-3.170070	1.748600	-1.004757	-0.482107	-0.381206	0.588906	0.537151	0.468338
55616	9.073709	2.625220	-3.345416	1.994806	-1.062323	-0.050111	-0.378385	0.592185	0.535837	0.467996
55617	9.126029	3.009528	-3.267710	2.385952	-1.002535	0.001676	-0.375275	0.595412	0.533856	0.468669
55618	10.008957	2.902015	-3.376078	2.245790	-0.838371	0.876203	-0.371907	0.598789	0.531068	0.470217
55619	10.717384	2.577793	-3.417454	1.908641	-0.643323	1.550829	-0.369330	0.602142	0.527132	0.472390
55620	10.485368	2.140740	-3.319912	1.506128	-0.579041	1.275307	-0.367648	0.605618	0.522364	0.474550
55621	10.250963	1.804393	-3.271339	1.212070	-0.582242	1.014654	-0.366704	0.609164	0.517323	0.476262
55622	10.501314	1.685222	-3.225842	1.149237	-0.492878	1.230843	-0.366213	0.612662	0.512317	0.477561
55623	11.170668	1.644003	-3.282871	1.162084	-0.411162	1.881057	-0.366405	0.615798	0.507014	0.479037
55624	10.969793	1.594272	-3.161246	1.192226	-0.422212	1.644657	-0.367483	0.618500	0.500822	0.481240
55625	10.769318	1.108558	-3.158944	0.770488	-0.477865	1.428413	-0.369340	0.620803	0.493562	0.484343
55626	8.742436	0.488829	-3.058534	0.159719	-0.868459	-0.579997	-0.371943	0.623087	0.485306	0.487749
55627	7.047320	0.320910	-2.648805	0.057487	-0.939193	-2.336202	-0.373619	0.626444	0.477337	0.490027
55628	7.526526	0.628896	-2.389471	0.500879	-0.730777	-1.940695	-0.373774	0.630872	0.469674	0.491629
55629	7.923591	0.903726	-2.174375	0.904030	-0.570866	-1.616085	-0.372394	0.636190	0.461392	0.493663
55630	8.212337	1.239637	-2.181693	1.292156	-0.674449	-1.350189	-0.369523	0.642194	0.451683	0.497012
55631	7.820568	0.951148	-2.179097	1.010086	-0.728645	-1.734145	-0.364661	0.649275	0.440186	0.501699
55632	8.640072	0.099526	-2.813521	0.107695	-0.912940	-0.772147	-0.358576	0.657223	0.426497	0.507525
55633	8.249900	-0.529436	-3.229952	-0.663040	-1.167714	-1.039403	-0.351429	0.665957	0.410758	0.514079
55634	8.903622	-2.024896	-3.950528	-2.217745	-1.072827	-0.173606	-0.343384	0.674995	0.393778	0.520969
55635	9.477056	-3.687843	-4.292411	-3.744937	-0.465235	0.560249	-0.335485	0.683399	0.376555	0.527846
55636	11.108508	-4.452244	-4.465849	-4.198093	0.084735	2.251044	-0.328560	0.690168	0.359739	0.535074
55637	11.035231	-5.122809	-4.297736	-4.659212	0.609443	2.204392	-0.322776	0.694968	0.343486	0.543003
55638	10.570312	-6.271980	-4.198485	-5.612192	1.299838	1.828192	-0.318122	0.697986	0.328868	0.550872
55639	9.002711	-6.857569	-3.704657	-6.060735	1.911066	0.257799	-0.314629	0.699567	0.317108	0.557724
55640	8.209158	-6.529277	-2.943658	-5.473803	2.291413	-0.676300	-0.311466	0.700818	0.308979	0.562473
55641	9.490520	-5.736603	-2.703641	-4.470345	2.128043	0.472041	-0.308603	0.701813	0.303614	0.565722
55642	9.612130	-5.162197	-2.636903	-3.963176	1.856082	0.523788	-0.305849	0.702259	0.300034	0.568567
55643	8.983892	-4.507513	-2.597280	-3.557297	1.458281	-0.169411	-0.303005	0.702446	0.297877	0.570988
55644	8.632611	-3.676307	-2.383507	-2.869375	1.108065	-0.633527	-0.299550	0.702874	0.296673	0.572907
55645	8.967254	-2.912739	-2.501522	-2.335760	0.599591	-0.360826	-0.295402	0.703328	0.295529	0.575091
55646	8.729085	-2.976459	-2.711685	-2.591240	0.523800	-0.570389	-0.290453	0.704082	0.294348	0.577291
55647	8.719901	-3.237278	-2.932273	-2.967209	0.595260	-0.541458	-0.285578	0.704704	0.293047	0.579621
55648	8.605078	-2.932986	-2.818604	-2.721277	0.534471	-0.707587	-0.280904	0.705239	0.291813	0.581874
55649	8.586423	-2.468989	-2.825787	-2.428915	0.275783	-0.766612	-0.276055	0.705345	0.290387	0.584771
55650	8.462307	-2.798354	-2.995061	-2.853581	0.424865	-0.863511	-0.270709	0.705480	0.289093	0.587741
55651	8.472819	-3.010693	-2.967741	-3.043286	0.655048	-0.870141	-0.265699	0.705263	0.287975	0.590829
55652	8.425412	-2.567759	-2.759325	-2.645626	0.553314	-0.987226	-0.260964	0.704752	0.287189	0.593923
55653	8.275452	-2.075701	-2.558188	-2.233145	0.392922	-1.199086	-0.256140	0.704242	0.286248	0.597073
55654	8.993652	-2.112324	-2.690314	-2.325729	0.443310	-0.486414	-0.251237	0.703864	0.284972	0.600205
55655	9.181746	-2.595467	-2.737168	-2.738145	0.816683	-0.306471	-0.247001	0.703270	0.283160	0.603509
55656	9.007868	-3.122068	-2.656457	-3.122779	1.262790	-0.506824	-0.244013	0.702304	0.281547	0.606596
55657	8.672657	-2.720716	-2.351458	-2.711316	1.164566	-0.899834	-0.242196	0.700893	0.280525	0.609422
55658	8.426982	-2.318333	-2.147226	-2.360007	0.993634	-1.184702	-0.240718	0.699369	0.280210	0.611899
55659	8.554149	-1.879793	-2.091445	-2.052998	0.735840	-1.076282	-0.238728	0.698238	0.280379	0.613890
55660	9.583467	-2.314985	-2.298266	-2.457961	1.032572	-0.046624	-0.236316	0.697515	0.280848	0.615429
55661	10.453714	-2.517558	-2.580760	-2.775739	1.106314	0.833890	-0.234241	0.696651	0.281834	0.616748
55662	11.138548	-2.290574	-2.590880	-2.630430	1.036432	1.502472	-0.232649	0.695190	0.283734	0.618126
55663	11.140840	-1.358891	-2.296864	-1.859261	0.584095	1.476317	-0.231755	0.692298	0.286627	0.620369
55664	11.395662	0.384640	-2.051138	-0.586275	-0.466049	1.748178	-0.230821	0.687935	0.290449	0.623784
55665	11.933479	2.341634	-1.722347	0.866869	-1.570077	2.337956	-0.229193	0.682605	0.294404	0.628369
55666	13.270496	3.179567	-1.567607	1.394483	-1.898959	3.719418	-0.227087	0.676820	0.297328	0.633989
55667	13.428501	3.340614	-0.979418	1.688758	-1.610800	3.861793	-0.225773	0.670367	0.298507	0.640725
55668	12.063482	3.530495	0.072938	2.346422	-1.244747	2.472959	-0.226163	0.663489	0.297875	0.648000
55669	10.141825	4.563686	1.356822	3.836512	-1.395367	0.620696	-0.226859	0.657407	0.296016	0.654771
55670	10.591432	5.305279	1.968855	4.618053	-1.583622	1.158329	-0.226546	0.652817	0.292826	0.660878
55671	10.032169	4.814901	2.288558	4.415249	-1.190648	0.586844	-0.226025	0.649721	0.287628	0.666368
55672	9.371986	4.157200	2.377040	3.995147	-0.843858	-0.112614	-0.225271	0.648733	0.280967	0.670415
55673	8.829440	3.082868	2.167300	3.128640	-0.369483	-0.744410	-0.224857	0.649307	0.273047	0.673264
55674	7.664887	2.018002	1.823367	2.253504	0.012873	-1.998096	-0.224751	0.651186	0.264746	0.674798
55675	7.542948	1.352351	1.245296	1.429992	0.031663	-2.181899	-0.224475	0.653877	0.256915	0.675315
55676	7.745931	0.848371	0.751061	0.767714	0.026895	-2.022143	-0.223817	0.656670	0.249964	0.675432
55677	7.966178	0.476059	0.451612	0.337854	0.071461	-1.827015	-0.222946	0.659081	0.244155	0.675496
55678	8.020169	0.653610	0.283873	0.353704	-0.212942	-1.771527	-0.221948	0.661009	0.239611	0.675569
55679	8.281195	1.208335	0.069311	0.545548	-0.806339	-1.500336	-0.220540	0.662587	0.236108	0.675718
55680	8.503978	1.774242	-0.076224	0.786979	-1.357043	-1.268072	-0.218516	0.664282	0.233027	0.675780
55681	8.726076	1.693029	-0.101939	0.727372	-1.314903	-1.051234	-0.216170	0.666423	0.229969	0.675474
55682	9.129086	1.447439	-0.240312	0.486323	-1.202010	-0.657819	-0.214141	0.668827	0.227029	0.674739
55683	9.499022	1.234439	-0.446516	0.224023	-1.153507	-0.295664	-0.212816	0.671166	0.224407	0.673712
55684	9.784970	1.399089	-0.604031	0.232100	-1.383362	-0.009615	-0.212293	0.673136	0.222226	0.672633
55685	9.679118	1.775347	-0.636443	0.466998	-1.721583	-0.114226	-0.212344	0.674701	0.220198	0.671715
55686	9.524797	1.803251	-0.681685	0.482001	-1.794370	-0.274034	-0.212776	0.676059	0.217971	0.670939
55687	9.396914	1.374316	-0.715815	0.238893	-1.500669	-0.410890	-0.214046	0.677231	0.215432	0.670173
55688	8.948349	1.196665	-0.727334	0.165714	-1.411031	-0.867573	-0.216494	0.678380	0.212696	0.669097
55689	8.254741	1.208894	-0.645512	0.284438	-1.424433	-1.572032	-0.219710	0.679849	0.209969	0.667417
55690	7.830184	1.419891	-0.403782	0.662773	-1.499688	-2.015129	-0.223051	0.682195	0.207401	0.664713
55691	8.160826	1.227764	-0.418047	0.635480	-1.398793	-1.693587	-0.226416	0.685569	0.204948	0.660853
55692	8.296577	0.630395	-0.584863	0.272449	-1.048984	-1.542467	-0.230061	0.690011	0.202784	0.655618
55693	8.705373	0.208233	-0.909599	-0.068175	-0.933315	-1.107733	-0.234021	0.695346	0.201346	0.648990
55694	9.507805	-0.239371	-1.360396	-0.458160	-0.876203	-0.256248	-0.238223	0.701008	0.200758	0.641509
55695	10.118695	-0.293589	-1.806250	-0.590972	-1.124021	0.391255	-0.242603	0.706472	0.200965	0.633762
55696	10.339852	-0.222019	-2.116470	-0.565661	-1.379742	0.637872	-0.247092	0.711375	0.201625	0.626289
55697	10.013917	-0.024548	-2.305563	-0.442073	-1.648263	0.320402	-0.251467	0.715971	0.202345	0.619037
55698	11.174777	-0.712864	-2.920915	-0.967893	-1.522010	1.617904	-0.255943	0.720450	0.202958	0.611762
55699	11.460714	-1.151220	-3.266855	-1.245508	-1.428907	2.008848	-0.261349	0.724246	0.203185	0.604881
55700	12.089714	-1.789085	-3.614655	-1.584225	-1.223387	2.773710	-0.267361	0.727268	0.203491	0.598490
55701	12.794814	-2.614481	-3.775226	-1.885427	-0.799619	3.625947	-0.274496	0.729109	0.203672	0.592933
55702	12.765300	-3.450380	-3.491297	-2.041869	-0.116432	3.709906	-0.282950	0.729327	0.203845	0.588616
55703	12.423136	-3.985511	-2.868497	-1.892916	0.530142	3.400151	-0.292292	0.727745	0.204460	0.585789
55704	11.005411	-4.265836	-1.453935	-1.335797	1.559084	1.901065	-0.302130	0.724034	0.205578	0.585004
55705	8.421889	-5.379848	0.164997	-1.543826	3.453109	-0.561322	-0.311793	0.718806	0.208121	0.585481
55706	7.908641	-6.790264	0.724298	-2.327074	4.738129	-0.795470	-0.321138	0.713489	0.213857	0.584866
55707	7.986222	-7.055027	1.065122	-2.419150	5.032276	-0.674435	-0.330833	0.708316	0.223123	0.582283
55708	7.621598	-6.192523	1.091418	-2.053524	4.402958	-1.209127	-0.340287	0.703545	0.236106	0.577480
55709	8.219609	-5.077004	0.555227	-1.623998	3.198599	-0.825147	-0.348523	0.699180	0.252200	0.571030
55710	8.383997	-4.156216	-0.069097	-1.419207	2.151744	-0.816877	-0.355593	0.694704	0.270552	0.563686
55711	8.470646	-3.589187	-0.807739	-1.505534	1.277675	-0.791260	-0.361600	0.690003	0.290474	0.555667
55712	8.908957	-2.893750	-1.543508	-1.345298	0.357716	-0.421905	-0.367336	0.684763	0.311212	0.547094
55713	8.647843	-2.227916	-1.922758	-1.100167	-0.226288	-0.747190	-0.372904	0.678848	0.332135	0.538326
55714	8.751699	-1.195901	-2.208794	-0.372110	-0.869431	-0.757004	-0.378148	0.672292	0.352712	0.529737
55715	8.943854	-0.084497	-2.306220	0.571134	-1.311506	-0.687454	-0.382659	0.665319	0.372202	0.521908
55716	9.227879	0.619005	-2.229922	1.253086	-1.353122	-0.479639	-0.386252	0.658256	0.389710	0.515398
55717	9.361186	0.347616	-2.215582	0.985326	-1.071079	-0.297346	-0.389439	0.651260	0.404834	0.510202
55718	8.990377	0.100694	-2.108890	0.681208	-0.821119	-0.639616	-0.392671	0.644428	0.417927	0.505824
55719	8.723086	0.060453	-1.925348	0.612081	-0.590773	-0.920078	-0.395677	0.638238	0.429669	0.501475
55720	8.909550	0.020742	-1.770587	0.596047	-0.329448	-0.754485	-0.398356	0.632757	0.440357	0.497008
55721	8.902168	0.053349	-1.607756	0.627264	-0.110365	-0.788827	-0.400679	0.627912	0.450099	0.492537
55722	8.527679	-0.071844	-1.375042	0.484849	0.154737	-1.189598	-0.402583	0.623607	0.459024	0.488199
55723	9.093535	-0.690438	-1.493392	-0.124783	0.364848	-0.579591	-0.403854	0.619893	0.467632	0.483689
55724	9.466878	-1.006066	-1.464186	-0.434188	0.595790	-0.208839	-0.405592	0.615843	0.475680	0.479543
55725	9.040869	-0.990081	-1.374103	-0.483853	0.640739	-0.649675	-0.407716	0.611393	0.483405	0.475695
55726	9.629296	-0.964384	-1.479124	-0.480906	0.681509	-0.058448	-0.410184	0.606506	0.490912	0.472128
55727	9.372640	-0.941227	-1.394673	-0.516940	0.728143	-0.332197	-0.412811	0.601209	0.498398	0.468759
55728	9.564888	-0.938851	-1.410476	-0.566462	0.774454	-0.146412	-0.414944	0.595785	0.506416	0.465193
55729	9.947299	-1.165404	-1.703904	-0.879146	0.630086	0.288787	-0.416784	0.590065	0.514797	0.461625
55730	10.416571	-1.751611	-2.370280	-1.587748	0.179970	0.894204	-0.418623	0.584070	0.523752	0.457495
55731	10.717938	-1.318558	-2.594391	-1.236121	0.014414	1.224296	-0.420926	0.577489	0.533217	0.452778
55732	10.353410	-0.375874	-2.438498	-0.363542	0.054378	0.824270	-0.423061	0.570429	0.543049	0.448027
55733	10.794570	0.657098	-2.481271	0.584526	0.130921	1.266624	-0.424516	0.563163	0.552911	0.443760
55734	11.631189	1.302810	-2.693275	1.112844	0.187339	2.143920	-0.425575	0.555763	0.562100	0.440520
55735	11.446572	1.658015	-2.729816	1.357412	0.171598	1.992043	-0.426905	0.548471	0.570171	0.437992
55736	10.431260	2.281054	-2.439744	1.908908	0.269024	0.969217	-0.428258	0.541544	0.577443	0.435757
55737	9.695988	2.989522	-2.250780	2.556302	0.357182	0.254697	-0.429222	0.535308	0.584202	0.433500
55738	9.133634	3.585461	-2.049702	3.095561	0.512812	-0.292513	-0.429894	0.529737	0.590291	0.431425
55739	8.679778	3.724184	-2.067745	3.196429	0.460082	-0.699286	-0.430217	0.524948	0.595760	0.429432
55740	8.928446	3.589595	-2.219310	2.993125	0.430759	-0.411480	-0.430378	0.520825	0.600761	0.427319
55741	8.893221	3.330900	-2.390608	2.700899	0.292408	-0.404261	-0.430814	0.516866	0.605339	0.425221
55742	8.625349	3.440316	-2.476573	2.796389	0.209618	-0.620208	-0.431205	0.512946	0.609842	0.423133
55743	8.634209	3.431468	-2.619428	2.755540	0.128652	-0.561959	-0.431491	0.509021	0.614273	0.421169
55744	8.768498	3.408143	-2.730964	2.686398	0.106423	-0.392936	-0.431862	0.505281	0.618487	0.419119
55745	8.721716	3.478721	-2.718776	2.724838	0.166504	-0.426056	-0.432583	0.501920	0.622168	0.416960
55746	8.651007	3.011846	-2.829751	2.264072	0.016192	-0.496456	-0.433497	0.498921	0.625497	0.414623
55747	8.888400	2.784467	-2.916848	2.008697	-0.001581	-0.261253	-0.434814	0.495920	0.628662	0.412049
55748	8.945773	3.096284	-2.849144	2.288525	0.169873	-0.196808	-0.436383	0.492820	0.631667	0.409506
55749	9.273466	3.684028	-2.729494	2.790985	0.509797	0.135669	-0.437996	0.489619	0.634306	0.407541
55750	9.291031	3.968034	-2.531774	3.019652	0.776832	0.124950	-0.439584	0.486740	0.636128	0.406438
55751	9.082310	3.201507	-2.547968	2.297056	0.558935	-0.135845	-0.441409	0.484526	0.637158	0.405489
55752	9.308767	2.579099	-2.753122	1.705212	0.295463	0.081224	-0.443456	0.482874	0.638061	0.403803
55753	9.682844	2.538870	-2.952599	1.674216	0.203615	0.486663	-0.445657	0.481396	0.639145	0.401425
55754	9.949104	3.028861	-3.019806	2.153443	0.337081	0.795179	-0.447514	0.480034	0.640468	0.398873
55755	10.695440	3.273437	-3.382266	2.382590	0.270955	1.623975	-0.448773	0.479136	0.641680	0.396583
55756	11.138551	2.736425	-3.361308	1.825783	0.303035	1.995288	-0.450455	0.478596	0.642044	0.394735
55757	9.748019	1.121967	-3.145216	0.453982	-0.220935	0.479047	-0.453438	0.478227	0.641608	0.392470
55758	8.958300	-0.073382	-3.189394	-0.512341	-0.747866	-0.346632	-0.457787	0.477742	0.641486	0.388186
55759	8.692784	0.273937	-3.148409	-0.048747	-0.677051	-0.588257	-0.463011	0.476919	0.642060	0.382004
55760	8.524153	0.388759	-3.088316	0.182631	-0.605573	-0.760136	-0.468691	0.475544	0.643193	0.374818
55761	8.246182	0.289911	-3.040220	0.221277	-0.624516	-1.044203	-0.474616	0.473543	0.644766	0.367115
55762	9.327123	-0.118594	-3.217009	-0.110938	-0.596868	0.035589	-0.480826	0.470590	0.646736	0.359284
55763	10.096792	-1.007468	-3.428900	-0.834075	-0.859070	0.830716	-0.488471	0.465870	0.648742	0.351418
55764	10.087850	-1.648897	-3.323536	-1.318472	-1.015917	0.805993	-0.497975	0.458718	0.651190	0.342856
55765	10.109400	-1.449143	-3.227609	-0.994598	-0.935841	0.810353	-0.509499	0.448597	0.654346	0.333171
55766	10.097076	-0.206441	-3.191672	0.314194	-0.522080	0.761158	-0.522427	0.435597	0.658152	0.322741
55767	10.447324	1.030168	-3.119161	1.535477	0.071721	1.030386	-0.536054	0.420376	0.662239	0.312040
55768	10.363468	2.750869	-2.654381	2.977068	1.208501	0.755675	-0.550250	0.404082	0.665588	0.301556
55769	9.373080	3.923089	-1.740703	3.669966	2.368558	-0.474785	-0.563854	0.388448	0.667804	0.291917
55770	8.764107	4.104950	-1.005866	3.488992	2.981867	-1.233218	-0.575838	0.374767	0.669190	0.283100
55771	8.774583	3.718537	-0.703638	3.006089	3.028797	-1.262498	-0.585665	0.363548	0.670172	0.275134
55772	9.179994	3.015169	-0.681065	2.421399	2.708459	-0.833356	-0.593667	0.354530	0.670935	0.267796
55773	9.252671	2.597433	-0.786019	2.179454	2.389244	-0.728756	-0.600517	0.346988	0.671372	0.261224
55774	8.717102	2.792768	-0.705058	2.325217	2.503742	-1.291590	-0.606121	0.340828	0.671708	0.255467
55775	8.709552	2.809442	-0.765305	2.394440	2.486606	-1.302792	-0.610163	0.336255	0.672228	0.250488
55776	8.821842	2.328171	-0.901613	2.132789	2.113755	-1.150048	-0.613059	0.333162	0.672790	0.245997
55777	8.710796	1.736635	-0.977905	1.760888	1.684967	-1.215585	-0.615119	0.331143	0.673519	0.241549
55778	8.854394	1.363386	-1.164850	1.623452	1.363331	-1.030803	-0.616571	0.329725	0.674493	0.237025
55779	8.923254	1.548193	-1.232908	1.815245	1.500152	-0.981176	-0.617544	0.328622	0.675672	0.232623
55780	9.146654	1.619861	-1.266052	1.890602	1.614035	-0.773420	-0.618006	0.327933	0.676917	0.228717
55781	9.126984	1.610754	-1.370705	1.956026	1.582951	-0.788099	-0.618089	0.327630	0.678065	0.225503
55782	9.477463	1.206220	-1.721749	1.896437	1.163946	-0.363338	-0.617516	0.327773	0.679396	0.222845
55783	9.895347	0.842578	-1.847788	1.706674	0.943244	0.098898	-0.616977	0.327987	0.680527	0.220560
55784	9.491109	1.069659	-1.661854	1.737698	1.202301	-0.351089	-0.616504	0.327961	0.681522	0.218842
55785	9.635708	1.544962	-1.584528	2.004470	1.639025	-0.271193	-0.615534	0.328206	0.682498	0.218163
55786	10.282673	1.551331	-1.695644	2.048394	1.696452	0.382471	-0.614032	0.329007	0.683278	0.218746
55787	10.222333	1.248502	-1.555622	1.708205	1.580830	0.339050	-0.612165	0.330598	0.683623	0.220495
55788	10.808576	0.594843	-1.805929	1.364003	1.064579	1.024590	-0.609643	0.333158	0.683888	0.222798
55789	11.758670	-0.151937	-1.829171	0.778941	0.718773	2.041082	-0.607546	0.336189	0.683426	0.225376
55790	11.039035	-0.592805	-1.675383	0.363970	0.409370	1.355059	-0.606300	0.339705	0.681981	0.227823
55791	10.799990	-1.165446	-1.702911	-0.024915	-0.020507	1.182623	-0.605078	0.343955	0.680202	0.230002
55792	10.863486	-2.031671	-1.969605	-0.482361	-0.742974	1.378269	-0.603791	0.348755	0.678238	0.231948
55793	10.594169	-2.844491	-2.197019	-0.929101	-1.447449	1.241538	-0.602538	0.353560	0.676258	0.233704
55794	10.285315	-3.070479	-2.335787	-1.001795	-1.710397	0.992045	-0.601364	0.357916	0.674441	0.235342
55795	10.054510	-2.733229	-2.447566	-0.677690	-1.583952	0.750739	-0.599605	0.362048	0.673118	0.237293
55796	10.602286	-2.722607	-2.541430	-0.644281	-1.500113	1.305507	-0.597208	0.366289	0.672078	0.239763
55797	10.603499	-3.146906	-2.603199	-0.972213	-1.771832	1.368950	-0.594820	0.370550	0.670794	0.242728
55798	10.509304	-2.680347	-2.385859	-0.774296	-1.312961	1.187247	-0.592917	0.374543	0.669020	0.246127
55799	9.406022	-1.150629	-1.810245	0.075244	-0.173591	-0.167048	-0.591083	0.378667	0.666455	0.251137
55800	7.723549	-0.000598	-1.333526	0.706750	0.512035	-2.023611	-0.587497	0.384183	0.663598	0.258626
55801	7.285552	-1.104261	-1.560588	-0.099007	-0.404326	-2.292024	-0.581237	0.391781	0.661029	0.267792
55802	7.670935	-2.824188	-2.110624	-1.313098	-1.690438	-1.646249	-0.573929	0.400489	0.658623	0.276461
55803	7.239460	-2.600495	-2.291173	-1.135171	-1.744748	-2.061063	-0.566544	0.409229	0.656435	0.283994
55804	6.485448	-1.290186	-2.056970	-0.223431	-0.985317	-2.961776	-0.557997	0.418073	0.654807	0.291687
55805	6.931992	-1.954175	-2.532032	-0.700855	-1.552524	-2.370994	-0.547908	0.427121	0.653815	0.299818
55806	8.046941	-2.694007	-3.400269	-1.145402	-2.300868	-1.039801	-0.538049	0.435911	0.652848	0.307040
55807	8.220157	-3.741080	-4.010414	-1.992888	-3.137049	-0.656602	-0.529334	0.443775	0.651994	0.312687
55808	8.394716	-3.941852	-4.018293	-2.326348	-3.064249	-0.466457	-0.522082	0.450234	0.651831	0.315970
55809	9.489454	-2.534904	-4.012088	-1.203490	-2.119344	0.513542	-0.516520	0.454862	0.651818	0.318497
55810	9.233574	-2.150158	-3.908367	-0.967164	-1.876369	0.222270	-0.511623	0.458527	0.651675	0.321426
55811	9.648685	-2.275566	-4.208875	-1.077674	-2.033132	0.708445	-0.507341	0.461552	0.651405	0.324416
55812	9.792582	-2.386984	-4.277860	-1.241768	-2.061470	0.869087	-0.503860	0.464210	0.650757	0.327337
55813	9.380327	-2.344098	-4.082838	-1.308099	-1.960241	0.414776	-0.501274	0.466503	0.649710	0.330116
55814	8.980092	-2.193124	-3.734383	-1.311905	-1.694747	-0.075951	-0.499145	0.468392	0.648404	0.333220
55815	8.783162	-2.569177	-3.571361	-1.754868	-1.735965	-0.304487	-0.497267	0.469589	0.647081	0.336894
55816	9.470548	-2.374883	-3.561456	-1.673990	-1.499127	0.334494	-0.495399	0.469946	0.646015	0.341167
55817	8.683740	-1.894945	-3.257925	-1.330030	-1.310403	-0.532299	-0.493722	0.469864	0.644719	0.346127
55818	8.264919	-2.019570	-2.979669	-1.577525	-1.243808	-1.024644	-0.491001	0.469699	0.644022	0.351478
55819	8.666536	-2.308071	-2.897959	-1.996474	-1.187710	-0.678318	-0.487562	0.469039	0.644079	0.356998
55820	9.673809	-1.647955	-2.818117	-1.596390	-0.688478	0.247924	-0.483181	0.467418	0.645219	0.362973
55821	11.117771	-0.816061	-2.752862	-1.128754	-0.069330	1.613882	-0.478004	0.464521	0.646923	0.370437
55822	13.013521	-0.263596	-2.991416	-0.983587	0.238058	3.504138	-0.472252	0.460145	0.648786	0.379896
55823	13.536241	1.029034	-2.773532	-0.169974	0.776788	4.019800	-0.467143	0.454283	0.649868	0.391249
55824	11.415335	2.409547	-1.208069	0.781569	1.962461	1.724388	-0.461854	0.448271	0.650029	0.403989
