// General information: 
//  MT Manager version: 2021.0.0 
//  XDA version: 2021.0.0 build 5908 rev 109668 built on 2021-04-19
// Device information: 
//  DeviceId: 00B43DFA
//  ProductCode: MTW2-3A7G6
//  Firmware Version: 4.3.5
//  Hardware Version: 1.1.0
// Device settings: 
//  Filter Profile: human(46.1)
//  Option Flags: Orientation Smoother Disabled, Position/Velocity Smoother Disabled, Continuous Zero Rotation Update Disabled, AHS Disabled, ICC Disabled
// Coordinate system: ENU
PacketCounter	Acc_X	Acc_Y	Acc_Z	FreeAcc_E	FreeAcc_N	FreeAcc_U	Quat_q0	Quat_q1	Quat_q2	Quat_q3
54636	-9.076846	-3.214844	2.011600	-0.062187	-0.115786	0.023654	0.658399	0.142583	0.615207	-0.409514
54637	-9.077182	-3.240453	2.011609	-0.071410	-0.122123	0.032226	0.658302	0.141839	0.615365	-0.409691
54638	-9.118683	-3.238576	2.045118	-0.033460	-0.117915	0.077015	0.658179	0.141132	0.615440	-0.410019
54639	-9.124792	-3.248145	2.108417	0.012851	-0.152928	0.098626	0.658015	0.140526	0.615450	-0.410474
54640	-9.103300	-3.143502	2.108050	0.092962	-0.081792	0.045314	0.657848	0.139980	0.615363	-0.411059
54641	-9.100081	-3.109827	2.088592	0.110055	-0.034183	0.027608	0.657689	0.139435	0.615269	-0.411640
54642	-9.113689	-3.102254	2.004248	0.065581	0.048695	0.020604	0.657556	0.138769	0.615208	-0.412168
54643	-9.092068	-3.121546	2.033099	0.077735	0.023879	0.012617	0.657439	0.138021	0.615191	-0.412630
54644	-9.063723	-3.173755	2.033078	0.046062	-0.004035	0.003373	0.657301	0.137319	0.615168	-0.413119
54645	-9.111270	-3.140833	2.045783	0.091271	0.039934	0.038980	0.657116	0.136727	0.615113	-0.413691
54646	-9.109323	-3.137286	2.038486	0.095211	0.060580	0.034393	0.656960	0.136277	0.614976	-0.414290
54647	-9.166147	-3.083801	1.954817	0.086267	0.185814	0.051765	0.656817	0.135885	0.614846	-0.414839
54648	-9.090075	-3.054275	1.991188	0.129568	0.161981	-0.020862	0.656708	0.135469	0.614759	-0.415276
54649	-9.023575	-3.082278	2.038775	0.140596	0.097027	-0.063186	0.656606	0.135060	0.614719	-0.415631
54650	-9.016914	-3.122137	2.033639	0.112397	0.082771	-0.057244	0.656480	0.134762	0.614640	-0.416041
54651	-8.990628	-3.120765	1.987960	0.082181	0.113612	-0.091428	0.656296	0.134697	0.614494	-0.416568
54652	-9.041397	-3.063814	2.020299	0.152275	0.152682	-0.057232	0.656095	0.134768	0.614316	-0.417125
54653	-8.995881	-3.034118	2.019234	0.168277	0.160110	-0.109332	0.655975	0.134875	0.614121	-0.417564
54654	-9.002137	-3.002486	1.998574	0.175854	0.200585	-0.118538	0.655958	0.134966	0.613921	-0.417857
54655	-9.015802	-2.951801	2.038438	0.238929	0.212294	-0.114703	0.656040	0.134934	0.613799	-0.417917
54656	-9.049637	-3.078546	2.021019	0.137997	0.161380	-0.044740	0.656207	0.134747	0.613771	-0.417757
54657	-9.079804	-3.175513	1.969997	0.034933	0.149366	0.004852	0.656387	0.134600	0.613754	-0.417547
54658	-9.092801	-3.169262	1.926273	0.008107	0.187665	0.005586	0.656548	0.134596	0.613712	-0.417356
54659	-9.058815	-3.175435	1.954936	0.016663	0.149127	-0.017547	0.656653	0.134744	0.613646	-0.417240
54660	-9.066648	-3.107733	1.971374	0.073967	0.179818	-0.029507	0.656739	0.134872	0.613605	-0.417125
54661	-8.999308	-3.155075	1.933394	0.004540	0.148459	-0.083454	0.656798	0.134990	0.613623	-0.416965
54662	-8.988895	-3.154491	1.976319	0.031913	0.111620	-0.084204	0.656841	0.135112	0.613662	-0.416802
54663	-8.988426	-3.211820	1.978400	-0.009531	0.070460	-0.065042	0.656857	0.135356	0.613686	-0.416662
54664	-8.990930	-3.205820	1.976755	-0.009256	0.071187	-0.065047	0.656898	0.135691	0.613642	-0.416552
54665	-8.961037	-3.131799	1.966804	0.029345	0.106304	-0.119158	0.656944	0.136113	0.613601	-0.416402
54666	-8.995461	-3.129243	2.001567	0.054222	0.089743	-0.081000	0.657048	0.136411	0.613632	-0.416095
54667	-9.035603	-3.171173	1.994782	0.019837	0.075945	-0.031509	0.657190	0.136621	0.613727	-0.415662
54668	-9.055812	-3.203997	2.011491	0.006771	0.043579	0.001459	0.657360	0.136753	0.613848	-0.415171
54669	-9.077893	-3.282813	1.967007	-0.080862	0.025950	0.038552	0.657490	0.136915	0.613973	-0.414728
54670	-9.077978	-3.307225	2.007451	-0.072617	-0.024983	0.055006	0.657516	0.137192	0.614069	-0.414451
54671	-9.087525	-3.253170	1.999389	-0.040141	0.010559	0.044394	0.657462	0.137486	0.614153	-0.414315
54672	-9.123207	-3.192503	2.028110	0.026489	0.035858	0.063355	0.657361	0.137706	0.614263	-0.414240
54673	-9.140523	-3.185746	1.999713	0.015024	0.062228	0.071284	0.657266	0.137743	0.614410	-0.414160
54674	-9.132012	-3.142760	2.016042	0.059274	0.072115	0.052721	0.657197	0.137638	0.614576	-0.414058
54675	-9.172932	-3.085780	2.085939	0.156516	0.073472	0.086099	0.657181	0.137356	0.614773	-0.413885
54676	-9.165671	-3.137071	2.139918	0.161062	0.002674	0.107194	0.657217	0.136955	0.614942	-0.413709
54677	-9.139043	-3.072886	2.118053	0.193815	0.050522	0.057002	0.657283	0.136434	0.615091	-0.413555
54678	-9.083681	-3.110385	2.076460	0.137413	0.039913	0.009683	0.657371	0.135873	0.615207	-0.413427
54679	-9.085290	-3.099350	2.064704	0.141369	0.060489	0.005043	0.657427	0.135432	0.615271	-0.413387
54680	-9.067013	-3.078126	2.078181	0.166616	0.062444	-0.016119	0.657503	0.135093	0.615255	-0.413402
54681	-9.099116	-3.023824	2.113876	0.233251	0.087682	0.002800	0.657647	0.134920	0.615153	-0.413380
54682	-9.124771	-2.984184	2.141911	0.280903	0.105026	0.019130	0.657887	0.134763	0.615048	-0.413206
54683	-9.185711	-2.947730	2.227148	0.368431	0.093126	0.080855	0.658214	0.134533	0.614970	-0.412877
54684	-9.234866	-2.914939	2.304572	0.446523	0.080358	0.131398	0.658661	0.134082	0.614914	-0.412394
54685	-9.230629	-2.945628	2.353606	0.454656	0.029398	0.147891	0.659258	0.133362	0.614869	-0.411741
54686	-9.341094	-2.774973	2.648154	0.788052	-0.017832	0.254481	0.659959	0.132463	0.614763	-0.411065
54687	-9.646075	-2.628652	3.325254	1.391356	-0.258313	0.628158	0.660997	0.130797	0.614579	-0.410205
54688	-9.852230	-2.705866	3.892123	1.751456	-0.581363	0.963724	0.662386	0.128380	0.614032	-0.409546
54689	-9.815722	-2.918802	3.950734	1.631944	-0.718750	1.017639	0.663998	0.125801	0.612876	-0.409468
54690	-9.734324	-2.807517	4.197093	1.857947	-0.783057	0.966423	0.665622	0.123702	0.610954	-0.410342
54691	-9.612984	-2.502712	4.677126	2.366851	-0.888830	0.871690	0.667378	0.122113	0.608229	-0.412010
54692	-9.478670	-2.459339	5.109242	2.637559	-1.126862	0.853634	0.669515	0.121153	0.604506	-0.414299
54693	-9.502607	-2.370546	5.577536	2.948200	-1.293323	0.988324	0.672203	0.121087	0.599574	-0.417124
54694	-9.700761	-2.252817	6.002574	3.222110	-1.340593	1.279168	0.675423	0.122127	0.593390	-0.420448
54695	-9.988595	-2.034485	6.395819	3.505948	-1.267694	1.629133	0.679341	0.124148	0.585953	-0.423960
54696	-9.995674	-1.587986	6.741510	3.868520	-1.144107	1.659187	0.684038	0.126486	0.577613	-0.427150
54697	-9.959654	-1.386475	6.632179	3.719601	-0.878335	1.610548	0.689668	0.128443	0.568665	-0.429512
54698	-10.020143	-1.145209	6.590951	3.634350	-0.579981	1.659193	0.696232	0.129873	0.559217	-0.430895
54699	-10.219348	-1.026615	6.691635	3.534330	-0.369807	1.918938	0.703768	0.130514	0.549320	-0.431190
54700	-10.361506	-0.948705	6.953845	3.486373	-0.293564	2.202576	0.712283	0.130301	0.538912	-0.430404
54701	-10.425082	-0.968695	7.071446	3.248249	-0.192238	2.394981	0.721752	0.129131	0.527957	-0.428557
54702	-10.616310	-1.101518	7.040792	2.794930	0.021719	2.663989	0.732121	0.126963	0.516424	-0.425658
54703	-10.716787	-1.204317	6.808084	2.216715	0.354710	2.741054	0.743218	0.123763	0.504388	-0.421784
54704	-10.646750	-1.247144	6.726440	1.787269	0.556863	2.702679	0.754887	0.119478	0.491903	-0.417015
54705	-10.643908	-1.429224	6.758820	1.307645	0.647098	2.791786	0.766871	0.114354	0.478996	-0.411578
54706	-10.741540	-1.646718	6.839599	0.800216	0.744448	2.980322	0.778975	0.108747	0.465539	-0.405765
54707	-10.785821	-1.591366	7.121477	0.612888	0.888553	3.164133	0.791213	0.102653	0.451345	-0.399664
54708	-10.591219	-1.619521	6.819647	0.044732	1.167162	2.833310	0.803413	0.096182	0.436566	-0.393303
54709	-10.340886	-1.582797	6.783402	-0.286868	1.311702	2.582151	0.815491	0.089173	0.421341	-0.386645
54710	-10.178933	-1.796156	6.884540	-0.733713	1.262801	2.519457	0.827284	0.082113	0.405594	-0.379938
54711	-10.056236	-1.670203	6.902891	-1.005712	1.505226	2.363965	0.838799	0.074631	0.389436	-0.373077
54712	-9.885562	-1.678011	6.782828	-1.426645	1.682858	2.089442	0.849951	0.066519	0.373087	-0.366010
54713	-9.710029	-1.716449	6.887757	-1.716842	1.740892	1.963375	0.860596	0.057828	0.356745	-0.358836
54714	-9.332865	-1.902216	6.810575	-2.087340	1.637073	1.591319	0.870696	0.048579	0.340506	-0.351545
54715	-8.894036	-2.329651	6.584365	-2.623336	1.342848	1.104540	0.880112	0.039503	0.324309	-0.344480
54716	-8.338050	-2.515396	6.617454	-2.756072	1.050180	0.719637	0.888731	0.031662	0.308027	-0.338043
54717	-8.038380	-2.344901	7.153430	-2.529795	1.028545	0.855743	0.896651	0.025160	0.291603	-0.332193
54718	-7.619592	-2.418716	7.458535	-2.510132	0.805453	0.797504	0.904001	0.020340	0.274722	-0.326950
54719	-7.265517	-1.936791	7.617409	-2.267832	1.078633	0.591401	0.910820	0.016543	0.257711	-0.322053
54720	-6.907071	-1.586418	7.537582	-2.202357	1.290662	0.212885	0.917188	0.012699	0.240945	-0.317097
54721	-6.505946	-1.569685	7.449494	-2.280754	1.211978	-0.137695	0.923143	0.008316	0.224484	-0.312002
54722	-6.132617	-1.471046	7.523621	-2.235332	1.190636	-0.328267	0.928678	0.003492	0.208261	-0.306875
54723	-5.863180	-1.361597	7.691849	-2.203245	1.237299	-0.378641	0.933831	-0.002463	0.192385	-0.301565
54724	-5.375906	-1.549060	7.517839	-2.278226	0.973815	-0.775457	0.938544	-0.009427	0.176940	-0.296207
54725	-4.832942	-1.875370	7.569154	-2.271462	0.543457	-0.941109	0.942763	-0.016561	0.161966	-0.291017
54726	-4.522542	-2.083938	7.922075	-2.264287	0.318499	-0.739618	0.946509	-0.022982	0.147257	-0.286195
54727	-4.200695	-2.081801	7.884245	-2.247311	0.282178	-0.924208	0.949832	-0.028963	0.132738	-0.281710
54728	-3.721893	-1.891193	7.583395	-2.058909	0.315112	-1.410693	0.952745	-0.034387	0.118525	-0.277571
54729	-3.236303	-1.774856	7.465738	-1.832654	0.269651	-1.693252	0.955245	-0.039608	0.104745	-0.273800
54730	-3.063125	-1.766063	7.579961	-1.850858	0.301668	-1.661821	0.957365	-0.044861	0.091466	-0.270323
54731	-2.828805	-1.892334	7.698817	-1.880305	0.188992	-1.610273	0.959185	-0.049915	0.078575	-0.267019
54732	-2.284521	-2.003566	7.700288	-1.655724	-0.082168	-1.702444	0.960783	-0.054181	0.065968	-0.263835
54733	-1.740848	-1.870099	7.529894	-1.324480	-0.167121	-1.974193	0.962216	-0.057372	0.053799	-0.260680
54734	-1.259533	-1.853010	7.400625	-1.083685	-0.334557	-2.164121	0.963518	-0.059336	0.042161	-0.257554
54735	-0.813746	-1.689215	7.697440	-0.743861	-0.335660	-1.932465	0.964723	-0.060123	0.031147	-0.254411
54736	-0.681575	-1.455022	8.065680	-0.640278	-0.119502	-1.614496	0.965820	-0.060414	0.020794	-0.251217
54737	-0.488593	-1.572824	8.035850	-0.683874	-0.281027	-1.643305	0.966811	-0.060632	0.011096	-0.247946
54738	-0.147377	-1.431130	8.117967	-0.456236	-0.279905	-1.585717	0.967729	-0.060535	0.001970	-0.244606
54739	-0.044147	-1.357246	8.417627	-0.460603	-0.202495	-1.301186	0.968573	-0.060152	-0.006796	-0.241250
54740	0.044391	-1.229232	8.637761	-0.460137	-0.080739	-1.100402	0.969321	-0.059736	-0.015349	-0.237934
54741	0.260287	-1.002373	8.474129	-0.300091	0.029117	-1.280927	0.969932	-0.059867	-0.023488	-0.234728
54742	0.599032	-1.032096	8.223062	-0.131297	-0.143737	-1.505843	0.970402	-0.060686	-0.031062	-0.231671
54743	0.692289	-1.223710	8.207449	-0.244120	-0.315203	-1.495299	0.970780	-0.061595	-0.038069	-0.228785
54744	0.915347	-1.432832	8.139429	-0.238118	-0.572242	-1.520757	0.971113	-0.061920	-0.044773	-0.226055
54745	0.896180	-1.208914	8.060674	-0.248949	-0.346186	-1.623888	0.971390	-0.062171	-0.051138	-0.223432
54746	0.836446	-1.424561	7.804856	-0.470936	-0.522857	-1.866057	0.971599	-0.062418	-0.057239	-0.220961
54747	1.133358	-1.394945	8.055290	-0.301570	-0.566768	-1.584370	0.971802	-0.061915	-0.063124	-0.218592
54748	1.217863	-1.292346	7.915365	-0.256324	-0.521856	-1.721475	0.971986	-0.060813	-0.068667	-0.216402
54749	1.236867	-1.140757	7.625331	-0.227968	-0.435324	-2.019434	0.972116	-0.059349	-0.074074	-0.214431
54750	1.406340	-1.287613	7.227332	-0.171787	-0.702696	-2.373180	0.972242	-0.057149	-0.079286	-0.212586
54751	1.742333	-1.104779	7.129878	0.143246	-0.712269	-2.426009	0.972469	-0.053408	-0.084061	-0.210681
54752	1.743448	-0.957862	6.883496	0.167294	-0.657773	-2.679783	0.972751	-0.048405	-0.088444	-0.208780
54753	1.901080	-0.657074	6.820862	0.375427	-0.516081	-2.730173	0.973115	-0.042342	-0.092130	-0.206802
54754	2.020191	-0.211419	6.880171	0.595296	-0.220467	-2.667133	0.973504	-0.036110	-0.095065	-0.204813
54755	2.048838	-0.225877	6.864176	0.566508	-0.315003	-2.675111	0.973849	-0.030597	-0.097462	-0.202938
54756	2.296981	-0.296912	6.897877	0.713842	-0.541815	-2.591793	0.974250	-0.024675	-0.099110	-0.201011
54757	2.459818	0.112031	7.459478	0.888403	-0.258337	-2.012016	0.974726	-0.018690	-0.099869	-0.198964
54758	2.296486	-0.019851	7.776955	0.611425	-0.368288	-1.735224	0.975212	-0.013989	-0.099809	-0.196988
54759	2.276523	-0.020046	8.182121	0.512077	-0.400041	-1.344660	0.975700	-0.010066	-0.099169	-0.195122
54760	2.273115	-0.408791	8.081151	0.383527	-0.824110	-1.457293	0.976182	-0.006304	-0.098236	-0.193334
54761	2.231717	-0.320405	8.226270	0.362174	-0.790864	-1.327551	0.976720	-0.001339	-0.096804	-0.191429
54762	1.952862	-0.284072	8.476807	0.088259	-0.738299	-1.141079	0.977260	0.004856	-0.095103	-0.189458
54763	1.698756	0.019915	9.186675	-0.150333	-0.464512	-0.483092	0.977754	0.011856	-0.093223	-0.187528
54764	1.309436	0.335708	9.755118	-0.483982	-0.153275	0.022480	0.978115	0.018305	-0.091443	-0.185998
54765	1.436183	0.250146	9.984261	-0.428791	-0.402398	0.260236	0.978320	0.023795	-0.089797	-0.185096
54766	1.490326	0.140448	10.146732	-0.435376	-0.637011	0.414760	0.978368	0.028805	-0.088273	-0.184865
54767	1.425991	0.505214	10.504695	-0.418037	-0.393639	0.784791	0.978269	0.033952	-0.086799	-0.185209
54768	1.198508	0.842098	10.380925	-0.475475	-0.098340	0.659781	0.978074	0.038491	-0.085599	-0.185912
54769	1.248411	1.204208	10.147110	-0.253591	0.139677	0.477508	0.977863	0.042347	-0.084745	-0.186574
54770	1.198060	1.424941	10.121208	-0.213570	0.291863	0.471939	0.977646	0.045287	-0.084081	-0.187315
54771	1.099106	1.527427	10.372874	-0.308877	0.355719	0.718955	0.977428	0.047182	-0.083516	-0.188236
54772	1.189593	1.813069	10.657257	-0.168732	0.532886	1.048573	0.977219	0.048281	-0.083095	-0.189230
54773	1.274966	1.852743	10.443341	-0.030734	0.536147	0.856575	0.977069	0.048318	-0.082764	-0.190137
54774	1.206825	1.699834	10.179063	-0.089799	0.447720	0.567612	0.977002	0.047064	-0.082356	-0.190969
54775	1.370047	1.182575	10.017277	-0.084039	-0.055385	0.366267	0.976993	0.045427	-0.081774	-0.191663
54776	1.398607	0.933484	9.769038	-0.088314	-0.258379	0.096247	0.976995	0.044447	-0.081141	-0.192152
54777	1.222529	1.031171	9.744057	-0.194575	-0.095349	0.059373	0.976968	0.044682	-0.080460	-0.192517
54778	1.179622	1.553805	9.951214	-0.064280	0.381665	0.320558	0.976953	0.045027	-0.079757	-0.192806
54779	1.197650	1.680779	9.797122	0.040700	0.502315	0.186761	0.976998	0.044229	-0.079053	-0.193054
54780	1.371851	1.518911	9.573718	0.199720	0.322647	-0.029999	0.977119	0.042255	-0.078106	-0.193269
54781	1.476447	1.324880	9.592834	0.248560	0.140813	-0.021068	0.977308	0.039812	-0.077003	-0.193273
54782	1.269940	1.284551	9.477851	0.096195	0.233750	-0.167570	0.977554	0.037081	-0.075739	-0.193074
54783	1.207413	1.133755	9.384785	0.034603	0.174824	-0.284557	0.977849	0.033797	-0.074298	-0.192742
54784	1.390125	0.878903	9.429568	0.139908	-0.075441	-0.242108	0.978177	0.030528	-0.072786	-0.192198
54785	1.491101	0.386584	9.568997	0.068207	-0.524733	-0.134968	0.978494	0.028106	-0.071233	-0.191532
54786	1.360160	0.269656	9.810221	-0.093733	-0.563775	0.078542	0.978769	0.027183	-0.069620	-0.190856
54787	1.186735	0.403947	9.880201	-0.180278	-0.371598	0.138153	0.979005	0.027109	-0.068076	-0.190209
54788	1.162418	0.583990	9.848161	-0.101622	-0.197879	0.118525	0.979201	0.026990	-0.066599	-0.189740
54789	1.183077	0.592082	9.661983	-0.022908	-0.190935	-0.062453	0.979378	0.026421	-0.065029	-0.189452
54790	1.095567	0.472438	9.819673	-0.136136	-0.267922	0.074629	0.979532	0.025802	-0.063454	-0.189274
54791	1.002885	0.493496	9.976770	-0.203343	-0.210962	0.222218	0.979645	0.025108	-0.062101	-0.189233
54792	1.042612	0.486132	9.893357	-0.131941	-0.222345	0.143968	0.979706	0.024522	-0.060987	-0.189354
54793	0.921539	0.576121	9.855783	-0.182621	-0.082337	0.100810	0.979726	0.023638	-0.060034	-0.189670
54794	0.860886	0.580553	9.822245	-0.208853	-0.032765	0.062019	0.979708	0.021858	-0.059063	-0.190281
54795	1.053842	0.415632	9.776173	-0.060507	-0.222957	0.026182	0.979634	0.019676	-0.058114	-0.191188
54796	1.001204	0.149607	9.604773	-0.161594	-0.409564	-0.164764	0.979509	0.017559	-0.057155	-0.192322
54797	0.949697	0.008055	9.610790	-0.240344	-0.493474	-0.170700	0.979319	0.016302	-0.056312	-0.193643
54798	0.902574	0.143517	9.721759	-0.228470	-0.340860	-0.056693	0.979084	0.015998	-0.055584	-0.195061
54799	0.848305	0.433647	9.792467	-0.164035	-0.054714	0.024495	0.978813	0.016108	-0.055050	-0.196556
54800	0.984865	0.658063	9.719297	0.063969	0.093847	-0.022139	0.978531	0.016333	-0.054640	-0.198055
54801	1.052345	0.657631	9.713456	0.134098	0.057458	-0.021373	0.978252	0.016742	-0.054145	-0.199527
54802	1.112866	0.745890	9.946436	0.206547	0.097165	0.220970	0.978004	0.017382	-0.053567	-0.200838
54803	0.951709	0.772992	10.033523	0.068089	0.162211	0.293936	0.977789	0.018576	-0.053018	-0.201921
54804	0.898467	1.121405	10.203967	0.142604	0.470085	0.480239	0.977615	0.020044	-0.052576	-0.202739
54805	0.870275	1.318670	10.170624	0.202571	0.636105	0.458250	0.977510	0.020968	-0.052168	-0.203254
54806	0.835446	1.258157	9.823415	0.192289	0.589871	0.106762	0.977470	0.021064	-0.051656	-0.203570
54807	0.758268	1.237169	10.061669	0.100771	0.594194	0.335194	0.977456	0.020845	-0.050922	-0.203846
54808	0.754489	1.231875	10.474965	0.067378	0.584660	0.745024	0.977450	0.020398	-0.050232	-0.204089
54809	0.885047	1.102689	10.323823	0.163946	0.422582	0.597648	0.977456	0.020099	-0.049851	-0.204185
54810	0.866867	1.046513	10.109492	0.153518	0.384989	0.379304	0.977493	0.020114	-0.049688	-0.204043
54811	0.653306	1.128899	10.029610	0.001021	0.545197	0.286672	0.977555	0.020348	-0.049639	-0.203734
54812	0.773112	1.056906	9.977658	0.086672	0.430018	0.240968	0.977625	0.020392	-0.049645	-0.203395
54813	0.915765	0.876927	9.874230	0.155433	0.208131	0.139226	0.977683	0.020634	-0.049655	-0.203085
54814	0.872321	0.893782	9.949642	0.112150	0.232236	0.211715	0.977743	0.021158	-0.049710	-0.202730
54815	0.752614	0.994023	9.907386	0.042738	0.364766	0.166086	0.977823	0.021552	-0.049837	-0.202271
54816	0.771680	0.984981	9.771039	0.067370	0.350042	0.031693	0.977944	0.021506	-0.049946	-0.201662
54817	0.817750	0.938494	9.603255	0.109486	0.302981	-0.134455	0.978109	0.020634	-0.049899	-0.200966
54818	0.887922	0.574453	9.499499	0.048022	-0.037462	-0.254700	0.978274	0.019508	-0.049711	-0.200323
54819	1.005161	0.448014	9.571127	0.106645	-0.185160	-0.180872	0.978419	0.018882	-0.049407	-0.199748
54820	0.854736	0.365316	9.550493	-0.053375	-0.194917	-0.219195	0.978551	0.018720	-0.049064	-0.199198
54821	0.825868	0.376778	9.417895	-0.055256	-0.171540	-0.352863	0.978668	0.018920	-0.048707	-0.198694
54822	0.785962	0.464044	9.489606	-0.058091	-0.079689	-0.279799	0.978778	0.018877	-0.048258	-0.198262
54823	0.775840	0.426434	9.612862	-0.085364	-0.113110	-0.160185	0.978847	0.018780	-0.047789	-0.198046
54824	0.767495	0.431279	9.799334	-0.102034	-0.112291	0.024943	0.978859	0.019023	-0.047425	-0.198049
54825	0.794363	0.548606	9.820275	-0.029786	-0.023777	0.054851	0.978849	0.019544	-0.047176	-0.198109
54826	0.833725	0.723038	9.743054	0.082453	0.111421	-0.008313	0.978835	0.020175	-0.047065	-0.198140
54827	0.886941	0.892016	9.803151	0.190505	0.235131	0.066206	0.978855	0.020515	-0.046976	-0.198030
54828	0.805596	0.867915	9.823566	0.106126	0.243180	0.078435	0.978907	0.020256	-0.046876	-0.197821
54829	0.864179	0.625176	9.756367	0.076736	0.003570	0.001509	0.978979	0.019962	-0.046692	-0.197537
54830	0.899218	0.762534	9.968344	0.146059	0.114080	0.223427	0.979059	0.019923	-0.046413	-0.197210
54831	0.858497	0.661993	9.962972	0.076728	0.037268	0.208729	0.979158	0.019893	-0.046068	-0.196805
54832	0.742222	0.713657	9.932463	-0.000526	0.130347	0.172152	0.979280	0.019863	-0.045713	-0.196283
54833	0.817293	0.751047	9.820238	0.100093	0.139723	0.068586	0.979421	0.019704	-0.045403	-0.195664
54834	0.820902	0.588240	9.803142	0.049461	-0.008411	0.042209	0.979578	0.019501	-0.045093	-0.194972
54835	0.723927	0.439213	9.828628	-0.092963	-0.108212	0.051316	0.979713	0.019531	-0.044828	-0.194351
54836	0.705327	0.553008	9.934906	-0.073331	-0.001760	0.162295	0.979803	0.019786	-0.044657	-0.193907
54837	0.813872	0.678860	9.901860	0.079774	0.070380	0.145161	0.979863	0.019863	-0.044500	-0.193632
54838	0.716104	0.598006	9.857752	-0.034349	0.036810	0.088987	0.979905	0.019485	-0.044469	-0.193466
54839	0.720392	0.456542	9.771080	-0.074185	-0.085326	-0.005108	0.979941	0.019034	-0.044507	-0.193320
54840	0.766068	0.461994	9.788515	-0.031061	-0.090369	0.016157	0.979978	0.018716	-0.044558	-0.193152
54841	0.744218	0.484871	9.713673	-0.035569	-0.053045	-0.058698	0.979988	0.018424	-0.044622	-0.193114
54842	0.868402	0.460764	9.633173	0.077296	-0.114804	-0.130472	0.979974	0.018112	-0.044678	-0.193203
54843	0.767694	0.535139	9.812855	-0.003255	-0.006053	0.044686	0.979950	0.017834	-0.044640	-0.193360
54844	0.781083	0.527413	9.843341	0.005356	-0.012711	0.075660	0.979923	0.017439	-0.044605	-0.193540
54845	0.820842	0.615611	9.806719	0.080539	0.061909	0.047038	0.979909	0.017039	-0.044608	-0.193644
54846	0.842901	0.610534	9.641986	0.115356	0.060804	-0.115568	0.979911	0.016526	-0.044667	-0.193665
54847	0.864279	0.489228	9.697182	0.084523	-0.052519	-0.065290	0.979918	0.016225	-0.044727	-0.193643
54848	0.828053	0.458471	9.826983	0.026593	-0.067913	0.059503	0.979915	0.016388	-0.044791	-0.193629
54849	0.795361	0.629532	9.863957	0.055638	0.097090	0.102656	0.979916	0.016755	-0.044830	-0.193582
54850	0.747746	0.687936	9.777750	0.040245	0.166604	0.016219	0.979929	0.016844	-0.044860	-0.193500
54851	0.778421	0.700310	9.764967	0.074410	0.167261	0.006551	0.979962	0.016700	-0.044830	-0.193356
54852	0.744750	0.626379	9.743729	0.018748	0.117435	-0.021206	0.980016	0.016303	-0.044826	-0.193116
54853	0.754994	0.626611	9.690877	0.034607	0.123290	-0.073111	0.980073	0.015831	-0.044843	-0.192861
54854	0.756208	0.618614	9.627909	0.041119	0.128574	-0.136276	0.980139	0.015054	-0.044791	-0.192601
54855	0.854513	0.395166	9.633711	0.051801	-0.101337	-0.133754	0.980207	0.014327	-0.044654	-0.192339
54856	0.821194	0.291946	9.724820	-0.021341	-0.176982	-0.050519	0.980274	0.014119	-0.044488	-0.192051
54857	0.853527	0.377500	9.654374	0.050634	-0.109504	-0.114059	0.980336	0.014335	-0.044277	-0.191771
54858	0.754008	0.464486	9.639730	-0.003567	0.004887	-0.132366	0.980391	0.014467	-0.044028	-0.191535
54859	0.761435	0.489941	9.699792	0.012380	0.025108	-0.070768	0.980445	0.014224	-0.043772	-0.191334
54860	0.811202	0.406269	9.747378	0.029315	-0.066288	-0.023448	0.980497	0.013801	-0.043476	-0.191165
54861	0.801020	0.300648	9.712870	-0.009444	-0.154691	-0.063439	0.980542	0.013585	-0.043168	-0.191021
54862	0.784754	0.340586	9.683652	-0.001216	-0.109550	-0.091939	0.980583	0.013538	-0.042928	-0.190871
54863	0.709442	0.384121	9.665358	-0.048152	-0.040714	-0.113923	0.980604	0.013503	-0.042683	-0.190821
54864	0.760038	0.421049	9.743047	0.011240	-0.024802	-0.031012	0.980612	0.013254	-0.042391	-0.190859
54865	0.704312	0.360604	9.749889	-0.056222	-0.055081	-0.031061	0.980605	0.012864	-0.042063	-0.190994
54866	0.750558	0.389166	9.729771	0.006790	-0.040008	-0.046339	0.980585	0.012511	-0.041712	-0.191200
54867	0.769582	0.322583	9.775480	0.002993	-0.106192	-0.002232	0.980561	0.012379	-0.041386	-0.191401
54868	0.697552	0.429043	9.870662	-0.026269	0.017114	0.091838	0.980538	0.012519	-0.041145	-0.191559
54869	0.660079	0.610513	9.924610	0.006781	0.195446	0.150649	0.980523	0.012605	-0.040911	-0.191681
54870	0.788324	0.566771	9.825638	0.121482	0.107224	0.059475	0.980520	0.012484	-0.040704	-0.191750
54871	0.808575	0.503773	9.871182	0.117658	0.041005	0.103576	0.980522	0.012474	-0.040437	-0.191796
54872	0.775542	0.420241	9.952101	0.054107	-0.027702	0.178243	0.980528	0.012663	-0.040164	-0.191809
54873	0.718833	0.580402	9.970358	0.064823	0.136070	0.199251	0.980539	0.012947	-0.039881	-0.191793
54874	0.577034	0.686533	9.860006	-0.011778	0.287976	0.083824	0.980573	0.012688	-0.039586	-0.191697
54875	0.592995	0.601402	9.773294	-0.015231	0.213986	-0.005315	0.980609	0.011850	-0.039400	-0.191608
54876	0.710935	0.378926	9.818754	0.013186	-0.021264	0.039028	0.980628	0.010990	-0.039246	-0.191594
54877	0.692494	0.198636	9.722406	-0.059631	-0.170693	-0.065304	0.980633	0.010803	-0.039181	-0.191593
54878	0.583939	0.283242	9.740848	-0.129444	-0.056564	-0.051265	0.980626	0.011483	-0.039126	-0.191599
54879	0.595607	0.449805	9.929578	-0.074543	0.071435	0.144365	0.980603	0.012835	-0.039118	-0.191633
54880	0.691829	0.593232	9.995429	0.056094	0.136233	0.223116	0.980554	0.014640	-0.039191	-0.191738
54881	0.927654	0.737117	10.001399	0.318496	0.140969	0.252619	0.980530	0.016862	-0.039223	-0.191673
54882	0.980385	0.876445	10.067086	0.405273	0.203666	0.329780	0.980582	0.019226	-0.039150	-0.191200
54883	0.979680	0.935742	10.089467	0.417942	0.216638	0.356433	0.980752	0.021141	-0.039029	-0.190146
54884	0.700905	0.886587	9.887125	0.155074	0.254421	0.134360	0.981034	0.022093	-0.038853	-0.188614
54885	0.500870	0.501775	9.757602	-0.158832	-0.030867	-0.030700	0.981357	0.021877	-0.038571	-0.187009
54886	0.375839	-0.020669	9.595630	-0.445414	-0.459389	-0.231020	0.981616	0.021432	-0.038292	-0.185753
54887	0.517756	-0.018764	9.606718	-0.307569	-0.506304	-0.210265	0.981765	0.021398	-0.038066	-0.185015
54888	0.641609	0.111889	9.478741	-0.131262	-0.427991	-0.322150	0.981812	0.021598	-0.037909	-0.184775
54889	0.524637	0.268823	9.449894	-0.178208	-0.240931	-0.349168	0.981812	0.021615	-0.037738	-0.184807
54890	0.448370	0.437763	9.624816	-0.198461	-0.057600	-0.169709	0.981782	0.021128	-0.037606	-0.185050
54891	0.496533	0.378803	9.746677	-0.180957	-0.122261	-0.048466	0.981712	0.020361	-0.037574	-0.185513
54892	0.741951	0.378519	9.711625	0.052629	-0.198125	-0.067566	0.981604	0.019710	-0.037556	-0.186158
54893	0.694746	0.499014	9.698406	0.056267	-0.061157	-0.076987	0.981487	0.019522	-0.037464	-0.186811
54894	0.633637	0.689405	9.811522	0.062191	0.135899	0.042281	0.981389	0.019543	-0.037389	-0.187337
54895	0.640726	0.781831	9.866178	0.100022	0.215858	0.102284	0.981320	0.019627	-0.037290	-0.187708
54896	0.775485	0.872699	9.911149	0.257398	0.248566	0.160568	0.981289	0.019524	-0.037138	-0.187915
54897	0.721958	0.700373	9.844185	0.153575	0.111415	0.080933	0.981286	0.019421	-0.036951	-0.187974
54898	0.506942	0.836882	9.990099	-0.002871	0.314560	0.220282	0.981302	0.019365	-0.036747	-0.187938
54899	0.557642	0.820617	9.989821	0.042079	0.282880	0.222207	0.981327	0.019138	-0.036604	-0.187859
54900	0.531617	0.813771	9.929888	0.023997	0.293901	0.160304	0.981357	0.018695	-0.036471	-0.187772
54901	0.569294	0.798243	10.021953	0.050241	0.275137	0.253224	0.981379	0.017889	-0.036423	-0.187747
54902	0.706904	0.481888	9.890017	0.074339	-0.053524	0.113841	0.981389	0.017395	-0.036467	-0.187731
54903	0.574474	0.484549	9.923750	-0.051627	-0.000643	0.139345	0.981401	0.017699	-0.036620	-0.187609
54904	0.453698	0.832946	9.988563	-0.046053	0.359878	0.214246	0.981426	0.018108	-0.036849	-0.187394
54905	0.715675	0.846175	9.777898	0.213659	0.283633	0.021405	0.981485	0.017508	-0.037084	-0.187099
54906	0.691508	0.610034	9.672645	0.113481	0.094081	-0.097308	0.981575	0.016269	-0.037137	-0.186726
54907	0.618596	0.345781	9.861932	-0.061078	-0.103308	0.073943	0.981661	0.014897	-0.037136	-0.186390
54908	0.563628	0.093475	9.723495	-0.189321	-0.294197	-0.078709	0.981732	0.014110	-0.037130	-0.186078
54909	0.547872	0.288775	9.695092	-0.128986	-0.095882	-0.099165	0.981792	0.013835	-0.037170	-0.185775
54910	0.625616	0.254892	9.578132	-0.059316	-0.146911	-0.212069	0.981848	0.013399	-0.037178	-0.185507
54911	0.607313	0.137240	9.639155	-0.121394	-0.241830	-0.157236	0.981890	0.012899	-0.037110	-0.185333
54912	0.558575	0.045829	9.776569	-0.207327	-0.304510	-0.026999	0.981906	0.012672	-0.037010	-0.185285
54913	0.555108	0.134975	9.802257	-0.178286	-0.218693	0.002148	0.981878	0.012668	-0.036957	-0.185445
54914	0.521288	0.231903	9.649407	-0.162614	-0.114812	-0.148478	0.981797	0.012745	-0.036959	-0.185864
54915	0.613673	0.374256	9.673063	-0.026638	-0.017924	-0.113008	0.981689	0.012780	-0.036913	-0.186442
54916	0.628367	0.368254	9.723141	-0.018656	-0.031238	-0.062374	0.981583	0.012861	-0.036906	-0.186995
54917	0.641605	0.510568	9.877878	0.033250	0.089015	0.098709	0.981498	0.013246	-0.036907	-0.187412
54918	0.691551	0.659821	10.059588	0.118733	0.197672	0.289577	0.981449	0.013734	-0.036930	-0.187629
54919	0.689163	0.714577	10.040240	0.136652	0.243350	0.272653	0.981430	0.013881	-0.036939	-0.187720
54920	0.604782	0.697261	10.038795	0.052778	0.258636	0.264993	0.981429	0.013699	-0.036880	-0.187749
54921	0.630798	0.538940	10.058657	0.019030	0.105647	0.279558	0.981441	0.013454	-0.036840	-0.187713
54922	0.649673	0.458002	10.034505	0.008281	0.025521	0.253216	0.981462	0.013550	-0.036943	-0.187575
54923	0.575967	0.512277	9.896936	-0.033825	0.100907	0.113650	0.981478	0.013983	-0.037159	-0.187414
54924	0.565959	0.680420	9.985376	0.004725	0.252901	0.208641	0.981489	0.014330	-0.037503	-0.187264
54925	0.661978	0.629215	9.868153	0.075746	0.169148	0.095905	0.981493	0.014424	-0.037918	-0.187152
54926	0.692342	0.502797	9.818716	0.053249	0.042536	0.043005	0.981485	0.014371	-0.038341	-0.187112
54927	0.686936	0.548109	9.832297	0.055290	0.087721	0.058261	0.981458	0.014453	-0.038784	-0.187157
54928	0.699370	0.512711	9.679730	0.057369	0.053454	-0.094508	0.981433	0.014472	-0.039227	-0.187194
54929	0.709894	0.538169	9.523013	0.081533	0.079106	-0.248774	0.981429	0.014273	-0.039619	-0.187146
54930	0.775194	0.457769	9.481839	0.110868	-0.012525	-0.288860	0.981452	0.013915	-0.039879	-0.186995
54931	0.709751	0.257286	9.440152	-0.022859	-0.169776	-0.343946	0.981480	0.013897	-0.040029	-0.186817
54932	0.727028	0.370013	9.564787	0.021628	-0.076475	-0.213505	0.981509	0.014307	-0.040070	-0.186629
54933	0.717033	0.464929	9.535701	0.048128	0.008874	-0.238896	0.981535	0.014662	-0.040017	-0.186474
54934	0.716096	0.525591	9.551228	0.069353	0.061406	-0.220689	0.981562	0.014702	-0.039859	-0.186365
54935	0.630036	0.458423	9.569598	-0.032873	0.030312	-0.211526	0.981594	0.014590	-0.039647	-0.186247
54936	0.624862	0.390491	9.618122	-0.061975	-0.030503	-0.166630	0.981626	0.014491	-0.039432	-0.186133
54937	0.702210	0.509796	9.659973	0.054515	0.052147	-0.114111	0.981646	0.014432	-0.039183	-0.186087
54938	0.642582	0.453641	9.709844	-0.019772	0.022306	-0.071081	0.981657	0.014246	-0.038902	-0.186098
54939	0.670500	0.393666	9.765792	-0.014867	-0.043706	-0.016101	0.981660	0.014233	-0.038667	-0.186135
54940	0.817054	0.456122	9.811986	0.143802	-0.044676	0.042667	0.981658	0.014633	-0.038454	-0.186156
54941	0.734267	0.563384	9.797979	0.109812	0.077643	0.027985	0.981668	0.014987	-0.038248	-0.186119
54942	0.650570	0.583487	9.880769	0.036174	0.120064	0.105860	0.981685	0.015116	-0.038024	-0.186065
54943	0.716139	0.543044	9.978776	0.078304	0.055611	0.206019	0.981710	0.015020	-0.037860	-0.185976
54944	0.668932	0.466582	9.803582	0.023453	0.006137	0.024731	0.981745	0.014962	-0.037739	-0.185817
54945	0.577680	0.426913	9.591197	-0.056314	0.008071	-0.194798	0.981776	0.014826	-0.037605	-0.185691
54946	0.598638	0.476633	9.711563	-0.024093	0.048198	-0.071174	0.981794	0.014510	-0.037396	-0.185664
54947	0.621278	0.415894	9.791778	-0.025350	-0.011458	0.007551	0.981803	0.014052	-0.037130	-0.185708
54948	0.657283	0.466017	9.835426	0.029420	0.029273	0.055598	0.981811	0.013587	-0.036903	-0.185741
54949	0.670529	0.460940	9.759021	0.051596	0.029061	-0.019983	0.981829	0.013128	-0.036693	-0.185725
54950	0.675447	0.382757	9.739527	0.035081	-0.038034	-0.042404	0.981852	0.012758	-0.036450	-0.185677
54951	0.699476	0.225503	9.715050	0.007433	-0.190786	-0.071751	0.981870	0.012827	-0.036191	-0.185623
54952	0.704457	0.244651	9.760625	0.019556	-0.184483	-0.025376	0.981873	0.013593	-0.035884	-0.185616
54953	0.578815	0.573440	9.898738	0.015332	0.149214	0.118393	0.981874	0.014354	-0.035569	-0.185615
54954	0.536482	0.640862	9.823519	0.010348	0.220119	0.043858	0.981877	0.014371	-0.035294	-0.185651
54955	0.638229	0.500706	9.825623	0.060019	0.057260	0.046015	0.981888	0.013755	-0.035040	-0.185685
54956	0.614430	0.312576	9.792493	-0.020887	-0.097494	0.003533	0.981893	0.013128	-0.034788	-0.185751
54957	0.560525	0.336737	9.843503	-0.059409	-0.047220	0.052219	0.981879	0.012738	-0.034569	-0.185895
54958	0.559286	0.434864	9.841166	-0.019595	0.051773	0.053791	0.981845	0.012304	-0.034423	-0.186129
54959	0.616527	0.347637	9.800751	0.009485	-0.039831	0.013501	0.981794	0.011635	-0.034279	-0.186469
54960	0.608670	0.313297	9.937354	-0.015174	-0.060998	0.148020	0.981733	0.011222	-0.034139	-0.186840
54961	0.573646	0.400058	9.990906	-0.016557	0.036542	0.202587	0.981668	0.011093	-0.034068	-0.187199
54962	0.614523	0.506511	9.972450	0.063403	0.123853	0.190542	0.981628	0.010857	-0.034040	-0.187432
54963	0.676201	0.555542	9.978928	0.139697	0.152052	0.202413	0.981619	0.010518	-0.034027	-0.187497
54964	0.745240	0.440807	9.982168	0.163280	0.027509	0.205593	0.981657	0.010082	-0.033996	-0.187327
54965	0.588055	0.382614	9.895312	0.004994	0.040381	0.107380	0.981722	0.009678	-0.033889	-0.187028
54966	0.562104	0.260298	9.900565	-0.060414	-0.054619	0.106902	0.981785	0.009113	-0.033785	-0.186744
54967	0.563889	0.243723	10.062564	-0.072060	-0.062226	0.268160	0.981825	0.008651	-0.033697	-0.186572
54968	0.563095	0.210642	10.012907	-0.079470	-0.083059	0.217593	0.981840	0.008176	-0.033757	-0.186507
54969	0.524104	0.365917	9.926162	-0.053316	0.087404	0.133506	0.981841	0.007563	-0.033933	-0.186493
54970	0.553951	0.351956	9.825311	-0.024992	0.080943	0.034153	0.981842	0.006515	-0.034189	-0.186481
54971	0.672730	0.185081	9.765505	0.027263	-0.095045	-0.022791	0.981828	0.005317	-0.034471	-0.186542
54972	0.787084	-0.047197	9.653073	0.054491	-0.330968	-0.133277	0.981794	0.004316	-0.034770	-0.186690
54973	0.724903	0.001014	9.649353	0.012181	-0.248076	-0.139332	0.981736	0.003799	-0.035007	-0.186961
54974	0.533440	0.141822	9.703483	-0.119909	-0.037234	-0.094329	0.981658	0.003385	-0.035182	-0.187344
54975	0.665040	0.075429	9.676137	-0.022974	-0.139469	-0.114460	0.981551	0.003010	-0.035420	-0.187868
54976	0.790944	0.023037	9.467312	0.085815	-0.228276	-0.315496	0.981439	0.002662	-0.035620	-0.188421
54977	0.720829	0.100007	9.601969	0.037190	-0.125842	-0.184075	0.981320	0.002565	-0.035770	-0.189010
54978	0.695447	0.064266	9.760057	-0.012911	-0.148006	-0.028802	0.981204	0.002580	-0.035859	-0.189593
54979	0.758742	0.213083	9.750915	0.100030	-0.033391	-0.030545	0.981111	0.002542	-0.035926	-0.190063
54980	0.754830	0.284978	9.665585	0.129857	0.038945	-0.114433	0.981045	0.002057	-0.035883	-0.190417
54981	0.734277	0.105758	9.706315	0.045082	-0.109017	-0.078780	0.980985	0.001387	-0.035728	-0.190761
54982	0.631324	0.033609	9.858119	-0.082942	-0.127371	0.064513	0.980903	0.001048	-0.035579	-0.191213
54983	0.581060	0.199473	9.896601	-0.066686	0.049391	0.102616	0.980789	0.000913	-0.035481	-0.191813
54984	0.552083	0.326457	9.831927	-0.039672	0.180648	0.038401	0.980644	0.000654	-0.035498	-0.192553
54985	0.713267	0.319948	9.936565	0.099032	0.119075	0.153378	0.980480	0.000433	-0.035645	-0.193358
54986	0.641265	0.268576	10.021549	0.002960	0.101825	0.232431	0.980305	0.000460	-0.035984	-0.194182
54987	0.666244	0.383287	9.963595	0.065135	0.194937	0.178397	0.980128	0.000820	-0.036449	-0.194986
54988	0.751759	0.584434	9.942691	0.211664	0.343344	0.167348	0.979958	0.001045	-0.036978	-0.195740
54989	0.846995	0.462959	9.834283	0.250016	0.193112	0.063803	0.979818	0.001004	-0.037522	-0.196335
54990	0.804914	0.425215	9.852673	0.185917	0.176987	0.078620	0.979719	0.000944	-0.037994	-0.196737
54991	0.790011	0.306847	9.776443	0.123744	0.075785	-0.000652	0.979668	0.000842	-0.038435	-0.196906
54992	0.835789	0.287904	9.708989	0.156403	0.043346	-0.064890	0.979643	0.000737	-0.038780	-0.196963
54993	0.906223	0.143129	9.544672	0.172896	-0.114082	-0.226261	0.979632	0.000423	-0.039017	-0.196973
54994	0.753383	-0.019213	9.458265	-0.025855	-0.200121	-0.326591	0.979627	0.000193	-0.039111	-0.196981
54995	0.627326	-0.032181	9.532680	-0.152685	-0.159323	-0.261883	0.979609	0.000092	-0.039114	-0.197068
54996	0.670988	-0.121715	9.487346	-0.143158	-0.258038	-0.305443	0.979572	0.000044	-0.039076	-0.197258
54997	0.646771	-0.118023	9.383369	-0.154280	-0.245918	-0.410795	0.979515	-0.000024	-0.038913	-0.197576
54998	0.755961	-0.121717	9.528161	-0.061958	-0.289674	-0.258401	0.979429	-0.000089	-0.038621	-0.198060
54999	0.862002	-0.214925	9.546511	0.004367	-0.419354	-0.234106	0.979352	0.000095	-0.038164	-0.198526
55000	0.699845	-0.179806	9.627009	-0.129040	-0.332841	-0.165202	0.979295	0.000717	-0.037592	-0.198918
55001	0.615749	0.023253	9.754920	-0.127039	-0.123971	-0.039938	0.979245	0.001113	-0.036944	-0.199280
55002	0.525105	-0.074895	9.618324	-0.226916	-0.186737	-0.184233	0.979173	0.001113	-0.036243	-0.199766
55003	0.546627	-0.292873	9.591682	-0.277927	-0.398808	-0.213279	0.979051	0.001119	-0.035560	-0.200481
55004	0.548898	-0.290538	9.720997	-0.273895	-0.406159	-0.084199	0.978850	0.001860	-0.034956	-0.201565
55005	0.610825	-0.093456	9.829165	-0.141850	-0.271699	0.031108	0.978580	0.003256	-0.034510	-0.202929
55006	0.608114	0.305283	10.136292	-0.005299	0.065679	0.346200	0.978282	0.004771	-0.034153	-0.204391
55007	0.583299	0.612551	10.254826	0.087970	0.329861	0.471297	0.977990	0.005769	-0.033910	-0.205797
55008	0.612871	0.569116	10.265044	0.098940	0.263869	0.482516	0.977725	0.005990	-0.033763	-0.207071
55009	0.709446	0.461508	10.204661	0.149532	0.120636	0.425208	0.977480	0.006177	-0.033675	-0.208231
55010	0.659358	0.417328	10.164573	0.088321	0.091787	0.380998	0.977256	0.006760	-0.033651	-0.209268
55011	0.559835	0.646310	10.297547	0.079556	0.326383	0.514836	0.977059	0.007562	-0.033687	-0.210153
55012	0.745450	0.760758	10.217127	0.296637	0.339195	0.449918	0.976900	0.008249	-0.033791	-0.210845
55013	0.652092	0.837563	10.206651	0.239939	0.434939	0.436981	0.976802	0.008806	-0.033872	-0.211266
55014	0.615073	0.776970	10.225203	0.176830	0.386219	0.451636	0.976753	0.009118	-0.033952	-0.211463
55015	0.584944	0.686254	10.169990	0.112838	0.311462	0.391824	0.976738	0.009336	-0.034068	-0.211506
55016	0.516244	0.757729	10.200859	0.074082	0.401143	0.421168	0.976748	0.009539	-0.034227	-0.211426
55017	0.525102	0.716253	10.013203	0.073212	0.361490	0.233055	0.976769	0.009407	-0.034536	-0.211284
55018	0.517370	0.643281	9.833174	0.043222	0.307839	0.050179	0.976800	0.008847	-0.034933	-0.211098
55019	0.441076	0.435526	9.726546	-0.109037	0.165027	-0.068419	0.976820	0.008098	-0.035328	-0.210973
55020	0.564328	0.231653	9.629661	-0.078937	-0.057370	-0.164218	0.976811	0.007571	-0.035726	-0.210967
55021	0.618840	0.242026	9.603850	-0.029385	-0.063091	-0.186129	0.976778	0.007494	-0.036105	-0.211057
55022	0.632092	0.390350	9.536143	0.042118	0.069616	-0.247996	0.976721	0.007407	-0.036452	-0.211262
55023	0.700516	0.344697	9.479932	0.085059	0.004799	-0.301043	0.976664	0.007072	-0.036680	-0.211498
55024	0.656223	0.233986	9.403544	0.002462	-0.070314	-0.383633	0.976610	0.006690	-0.036855	-0.211733
55025	0.593943	0.275375	9.439910	-0.040694	-0.000395	-0.350190	0.976543	0.006404	-0.036934	-0.212035
55026	0.711661	0.211342	9.445784	0.039676	-0.103622	-0.338425	0.976479	0.006259	-0.036897	-0.212341
55027	0.696203	0.237707	9.446116	0.038232	-0.071662	-0.338316	0.976437	0.006183	-0.036793	-0.212552
55028	0.508871	0.231996	9.423345	-0.129139	0.001320	-0.373644	0.976424	0.006139	-0.036567	-0.212652
55029	0.444988	0.335490	9.630016	-0.151998	0.123663	-0.168551	0.976440	0.005857	-0.036097	-0.212667
55030	0.576098	0.200593	9.723826	-0.083274	-0.045794	-0.070211	0.976472	0.005095	-0.035482	-0.212645
55031	0.753733	0.070018	9.812045	0.034755	-0.226931	0.025834	0.976511	0.004356	-0.034628	-0.212624
55032	0.703872	0.036526	10.152731	-0.029278	-0.230929	0.361815	0.976523	0.004228	-0.033795	-0.212702
55033	0.500710	0.137071	10.271470	-0.166745	-0.059265	0.470370	0.976498	0.004511	-0.033283	-0.212894
55034	0.376426	0.339955	10.208385	-0.185734	0.169044	0.405205	0.976429	0.004848	-0.033126	-0.213227
55035	0.432859	0.494769	10.298331	-0.076454	0.282489	0.502453	0.976301	0.004875	-0.033262	-0.213792
55036	0.577690	0.473497	10.268846	0.043574	0.206640	0.481123	0.976119	0.004518	-0.033659	-0.214566
55037	0.686539	0.423349	10.204971	0.116561	0.123011	0.422705	0.975902	0.004266	-0.034305	-0.215454
55038	0.630062	0.468659	10.044123	0.082112	0.193993	0.259881	0.975689	0.004090	-0.035110	-0.216291
55039	0.652556	0.523942	9.894293	0.121006	0.240856	0.113274	0.975485	0.003858	-0.035970	-0.217072
55040	0.709506	0.535834	9.813415	0.168106	0.235210	0.036679	0.975301	0.003553	-0.036823	-0.217760
55041	0.766446	0.576098	9.719343	0.229653	0.256256	-0.052230	0.975147	0.003166	-0.037583	-0.218325
55042	0.773829	0.503664	9.611655	0.201490	0.196175	-0.160885	0.975039	0.002829	-0.038260	-0.218693
55043	0.783930	0.449854	9.573703	0.179620	0.149054	-0.199248	0.974985	0.002761	-0.038839	-0.218832
55044	0.712052	0.497520	9.623707	0.121165	0.225011	-0.153238	0.974973	0.002876	-0.039334	-0.218795
55045	0.785446	0.424817	9.456822	0.160016	0.127820	-0.316008	0.974986	0.002850	-0.039791	-0.218658
55046	0.771635	0.401259	9.321573	0.141555	0.114098	-0.452394	0.975011	0.002747	-0.040061	-0.218497
55047	0.748108	0.155972	9.385847	0.007467	-0.093906	-0.396252	0.975044	0.002605	-0.040226	-0.218322
55048	0.806286	0.062459	9.193539	0.033190	-0.204383	-0.585972	0.975076	0.002745	-0.040290	-0.218163
55049	0.790219	0.087085	9.257576	0.024285	-0.179507	-0.522805	0.975113	0.003123	-0.040104	-0.218030
55050	0.857315	0.211211	9.489065	0.123350	-0.100148	-0.283956	0.975152	0.003320	-0.039741	-0.217916
55051	0.895454	0.093611	9.457723	0.117931	-0.225425	-0.315614	0.975202	0.003208	-0.039266	-0.217783
55052	0.877579	0.119486	9.513564	0.118960	-0.193709	-0.260691	0.975280	0.003074	-0.038682	-0.217538
55053	0.800018	-0.037996	9.492782	-0.004359	-0.302573	-0.290986	0.975369	0.002868	-0.038086	-0.217248
55054	0.726536	-0.138513	9.323033	-0.088167	-0.363607	-0.467850	0.975446	0.002797	-0.037410	-0.217018
55055	0.734510	-0.233908	9.423818	-0.115046	-0.457389	-0.369166	0.975498	0.003057	-0.036579	-0.216923
55056	0.696490	-0.228340	9.703354	-0.152748	-0.447649	-0.093194	0.975497	0.003815	-0.035662	-0.217069
55057	0.717500	-0.116161	9.869952	-0.084666	-0.375449	0.076502	0.975459	0.004865	-0.034771	-0.217366
55058	0.660791	0.209744	9.893654	0.013149	-0.078814	0.104903	0.975390	0.005739	-0.033911	-0.217788
55059	0.728068	0.143522	9.912694	0.058479	-0.183334	0.125880	0.975307	0.006094	-0.033043	-0.218283
55060	0.663403	0.005192	10.011465	-0.050827	-0.292426	0.216342	0.975207	0.006501	-0.032238	-0.218837
55061	0.590147	0.058716	9.980694	-0.080864	-0.228237	0.182677	0.975089	0.007329	-0.031584	-0.219432
55062	0.498875	0.334247	10.114687	-0.045769	0.039787	0.319626	0.974953	0.008182	-0.031014	-0.220086
55063	0.462045	0.541579	10.210415	0.012652	0.229997	0.419922	0.974796	0.008282	-0.030506	-0.220847
55064	0.608072	0.377598	10.128835	0.089636	0.022073	0.340987	0.974645	0.007655	-0.030059	-0.221595
55065	0.537111	0.213068	10.107146	-0.033784	-0.086581	0.310536	0.974499	0.007154	-0.029738	-0.222297
55066	0.570228	0.158206	10.196638	-0.027047	-0.146722	0.400019	0.974351	0.007093	-0.029561	-0.222970
55067	0.438782	0.350278	10.121678	-0.054438	0.081694	0.324075	0.974224	0.007248	-0.029411	-0.223538
55068	0.529185	0.388693	10.107420	0.048235	0.077124	0.315629	0.974136	0.006960	-0.029206	-0.223958
55069	0.672127	0.247670	10.143267	0.119070	-0.105554	0.354595	0.974060	0.006437	-0.028991	-0.224331
55070	0.586287	0.114565	10.164474	-0.012133	-0.181862	0.367694	0.973982	0.006251	-0.028834	-0.224695
55071	0.467308	0.213417	10.257829	-0.079042	-0.040766	0.457613	0.973885	0.006335	-0.028799	-0.225117
55072	0.397199	0.339699	10.263036	-0.088295	0.102389	0.462759	0.973771	0.006363	-0.028947	-0.225590
55073	0.522148	0.284624	10.128014	0.002867	0.000038	0.332770	0.973667	0.006253	-0.029280	-0.226000
55074	0.519967	0.389588	10.171393	0.036890	0.098126	0.378897	0.973567	0.006221	-0.029751	-0.226370
55075	0.573822	0.441900	10.113380	0.101738	0.125612	0.325304	0.973451	0.006044	-0.030335	-0.226795
55076	0.512297	0.454221	10.009101	0.046397	0.170123	0.218253	0.973320	0.005867	-0.031068	-0.227264
55077	0.493887	0.502734	9.875758	0.045687	0.229327	0.085421	0.973190	0.005602	-0.031892	-0.227710
55078	0.553281	0.372396	9.675259	0.038280	0.092287	-0.114985	0.973089	0.005593	-0.032775	-0.228017
55079	0.601747	0.419875	9.428782	0.102210	0.114641	-0.356646	0.973020	0.005828	-0.033610	-0.228186
55080	0.598393	0.560977	9.403780	0.148548	0.239738	-0.377418	0.972962	0.006226	-0.034252	-0.228328
55081	0.556779	0.700047	9.528394	0.153446	0.382330	-0.251273	0.972912	0.006136	-0.034750	-0.228467
55082	0.525574	0.636855	9.365595	0.102857	0.348883	-0.417802	0.972860	0.005389	-0.035101	-0.228651
55083	0.620310	0.388236	9.193344	0.087112	0.100112	-0.591220	0.972806	0.004447	-0.035362	-0.228865
55084	0.559809	0.032786	9.135606	-0.123357	-0.180386	-0.662496	0.972738	0.004269	-0.035626	-0.229113
55085	0.557115	0.300808	9.148907	-0.013122	0.057345	-0.642088	0.972669	0.004938	-0.035885	-0.229354
55086	0.548791	0.596601	9.113785	0.108663	0.315363	-0.669005	0.972641	0.005473	-0.035914	-0.229455
55087	0.684977	0.682375	9.201987	0.264568	0.330687	-0.569742	0.972668	0.004967	-0.035612	-0.229398
55088	0.832273	0.411493	9.264636	0.282756	0.034968	-0.506009	0.972752	0.003915	-0.034968	-0.229163
55089	0.823874	0.233174	9.350989	0.208443	-0.105830	-0.425492	0.972874	0.003025	-0.034041	-0.228797
55090	0.804240	0.103294	9.242980	0.161719	-0.205032	-0.537887	0.973012	0.002497	-0.032963	-0.228374
55091	0.769313	-0.063056	9.342322	0.071944	-0.339721	-0.444968	0.973155	0.002734	-0.031755	-0.227932
55092	0.702150	0.041262	9.655986	0.059200	-0.231993	-0.134084	0.973289	0.003810	-0.030481	-0.227520
55093	0.713749	0.159961	9.681809	0.138760	-0.159031	-0.105587	0.973401	0.005197	-0.029272	-0.227171
55094	0.638502	0.403842	9.627984	0.199107	0.064883	-0.157382	0.973490	0.006274	-0.028125	-0.226906
55095	0.515011	0.285477	9.226124	0.077652	-0.000599	-0.568120	0.973564	0.006297	-0.026974	-0.226728
55096	0.321887	-0.246548	8.475929	-0.268774	-0.389077	-1.340255	0.973583	0.005622	-0.025884	-0.226791
55097	-0.086876	-1.071644	7.091553	-0.908656	-0.935598	-2.759670	0.973462	0.004577	-0.024796	-0.227454
55098	-0.957997	-1.403106	5.302057	-1.729756	-0.826960	-4.585617	0.973083	0.002427	-0.023173	-0.229276
55099	-1.248251	-1.573500	3.900203	-1.981782	-0.820193	-5.985781	0.972276	-0.001956	-0.020346	-0.232943
55100	-1.335896	-1.901591	2.764942	-2.144584	-1.036579	-7.097645	0.970881	-0.008185	-0.015456	-0.238921
55101	-1.029726	-1.445358	2.984560	-1.636394	-0.712955	-6.834377	0.968830	-0.015850	-0.007978	-0.247092
55102	-0.919384	-1.577729	3.816562	-1.554454	-0.784764	-5.956863	0.966232	-0.024870	0.000899	-0.256468
55103	-1.264938	-1.997494	3.581131	-1.999051	-0.898016	-6.123459	0.963175	-0.035281	0.010570	-0.266341
55104	-1.936260	-2.715143	1.975338	-2.955490	-1.161047	-7.590463	0.959725	-0.047530	0.021510	-0.276055
55105	-2.390047	-3.471418	1.699301	-3.722964	-1.471967	-7.663053	0.955811	-0.057543	0.035367	-0.286118
55106	-2.103168	-3.648586	2.835890	-3.405083	-1.574945	-6.392173	0.951379	-0.064528	0.052531	-0.296570
55107	-2.524093	-3.284017	5.234190	-3.070848	-0.751886	-3.934540	0.946736	-0.067303	0.071458	-0.306684
55108	-2.622653	-2.768586	6.384168	-2.424638	-0.165358	-2.784977	0.942118	-0.068268	0.090830	-0.315440
55109	-3.136424	-3.151073	5.674210	-2.954467	-0.218201	-3.241486	0.937460	-0.067382	0.111106	-0.322929
55110	-3.655114	-3.376953	4.953610	-3.428585	-0.151807	-3.687548	0.932522	-0.062632	0.133402	-0.329672
55111	-4.814512	-3.653161	5.755472	-3.955789	0.290913	-2.470614	0.927040	-0.054622	0.157738	-0.335756
55112	-6.254455	-3.552625	7.059480	-4.150491	1.102494	-0.696124	0.920756	-0.044400	0.183518	-0.341407
55113	-7.299993	-3.327148	8.344147	-3.816633	1.631294	0.991254	0.913822	-0.034271	0.209445	-0.346248
55114	-8.198709	-3.758130	7.134892	-4.686684	1.716116	0.546262	0.906114	-0.024686	0.235570	-0.350507
55115	-9.982918	-4.917323	5.607002	-6.732054	1.949937	0.488572	0.897058	-0.014814	0.262820	-0.354954
55116	-10.980705	-5.630405	7.064524	-6.512689	1.554128	2.729327	0.885954	-0.001910	0.290771	-0.361296
55117	-11.689164	-4.373957	11.162680	-3.301260	1.637693	6.518763	0.873183	0.013275	0.317000	-0.369981
55118	-11.424745	-3.548394	11.931417	-1.476640	1.317688	6.965034	0.859916	0.027082	0.340104	-0.379658
55119	-12.025722	-3.804708	9.077933	-2.886487	1.934219	5.332704	0.845839	0.040331	0.361223	-0.390445
55120	-12.844690	-3.201825	7.834934	-2.903991	2.946925	5.001421	0.830457	0.053392	0.381622	-0.402312
55121	-12.712738	-3.297414	8.548794	-1.839716	2.164021	5.596790	0.813687	0.065876	0.401468	-0.415207
55122	-12.419600	-2.271743	11.522863	1.430737	0.884485	7.196119	0.795842	0.078712	0.419239	-0.429743
55123	-11.450207	-0.834674	13.602341	4.581873	-0.378404	7.381612	0.778689	0.089996	0.433204	-0.444835
55124	-10.793907	-0.817446	12.219952	4.347714	-0.539645	5.912506	0.762595	0.100278	0.444189	-0.459445
55125	-11.150192	0.371658	11.560916	5.199134	0.281262	5.385452	0.747531	0.109055	0.453982	-0.472445
55126	-10.036178	0.895844	12.395208	6.576738	-1.016091	4.708382	0.733829	0.115862	0.462908	-0.483516
55127	-9.086384	1.366059	14.133191	8.283659	-2.810656	4.596987	0.721406	0.121203	0.470547	-0.493426
55128	-9.323632	0.755242	14.026324	7.889754	-3.232420	4.731364	0.710303	0.125282	0.476875	-0.502359
55129	-9.372551	0.525725	12.848222	7.202845	-2.794164	4.097840	0.701062	0.128634	0.481687	-0.509846
55130	-10.051874	0.275604	11.502742	6.370156	-1.799380	3.957160	0.693597	0.132194	0.484877	-0.516083
55131	-10.196048	-0.121735	11.602409	6.145047	-2.120006	4.199166	0.687502	0.136662	0.485637	-0.522323
55132	-9.891001	-0.545769	11.994237	5.950591	-2.883942	4.267905	0.682316	0.141986	0.483596	-0.529547
55133	-9.570493	-0.498362	11.054656	5.409510	-2.474419	3.553732	0.677785	0.146820	0.479304	-0.537884
55134	-9.151294	-0.363188	8.899261	4.356868	-1.150791	2.135853	0.673560	0.150708	0.473685	-0.547016
55135	-8.688602	0.013340	7.540687	3.950363	-0.296035	0.988261	0.669875	0.153867	0.467594	-0.555831
55136	-8.813662	0.005212	7.327856	3.788638	-0.036569	1.005006	0.667251	0.156174	0.461547	-0.563347
55137	-8.927159	-0.309849	7.060417	3.331859	0.184424	1.073248	0.666001	0.157301	0.455712	-0.569233
55138	-8.552538	-0.758397	6.407609	2.564283	0.378418	0.582445	0.666301	0.156900	0.450263	-0.573314
55139	-8.179248	-1.242006	5.518625	1.677528	0.748364	-0.039113	0.667665	0.155377	0.445387	-0.575944
55140	-7.875415	-1.523591	4.684465	1.014442	1.174704	-0.654202	0.669625	0.153039	0.441222	-0.577499
55141	-7.594156	-1.821668	4.180239	0.483315	1.359365	-1.073011	0.671967	0.150229	0.437670	-0.578219
55142	-7.295364	-2.163191	3.923255	0.017975	1.327889	-1.355172	0.674502	0.147470	0.434577	-0.578309
55143	-7.132986	-2.277191	3.706330	-0.217230	1.404817	-1.579772	0.677150	0.145129	0.431725	-0.577944
55144	-6.971220	-2.536223	3.459091	-0.599682	1.446255	-1.778754	0.679874	0.143265	0.429063	-0.577193
55145	-6.821010	-2.668690	3.145558	-0.896991	1.561809	-2.047473	0.682562	0.142067	0.426618	-0.576127
55146	-6.654946	-2.740341	3.246005	-0.969698	1.384663	-2.100586	0.685154	0.141648	0.424349	-0.574828
55147	-6.651056	-2.995283	3.219406	-1.259425	1.334123	-2.053395	0.687517	0.142046	0.422514	-0.573259
55148	-6.780907	-3.146876	3.275942	-1.418650	1.330764	-1.886047	0.689591	0.143130	0.421270	-0.571410
55149	-6.843371	-3.291693	3.745033	-1.400704	0.988171	-1.520911	0.691436	0.144770	0.420573	-0.569277
55150	-6.842437	-3.467771	4.339415	-1.357686	0.495034	-1.118652	0.693190	0.146593	0.420375	-0.566818
55151	-6.922616	-3.676313	4.783675	-1.403890	0.138225	-0.739037	0.694881	0.148451	0.420391	-0.564246
55152	-7.103711	-3.939445	4.814536	-1.672701	0.106645	-0.520107	0.696350	0.150659	0.420359	-0.561869
55153	-7.414808	-3.996327	4.905319	-1.736628	0.182704	-0.222978	0.697293	0.153526	0.419961	-0.560219
55154	-7.694749	-4.094893	5.172346	-1.773102	0.107867	0.166019	0.697606	0.156838	0.419057	-0.559588
55155	-7.779949	-3.795728	5.509610	-1.418067	-0.005078	0.349975	0.697205	0.160359	0.417787	-0.560039
55156	-7.787273	-3.437785	5.764390	-1.033575	-0.084013	0.415348	0.696280	0.163222	0.416680	-0.561187
55157	-7.624487	-3.045991	5.932975	-0.630182	-0.194170	0.295536	0.694971	0.165117	0.416008	-0.562751
55158	-7.542854	-2.755268	5.881048	-0.383986	-0.123113	0.132676	0.693470	0.165781	0.416046	-0.564377
55159	-7.685200	-2.656931	6.020659	-0.221070	-0.095092	0.302248	0.691868	0.165425	0.416597	-0.566039
55160	-7.679781	-2.692094	5.865932	-0.277089	0.010004	0.215200	0.690235	0.164462	0.417452	-0.567680
55161	-7.658948	-2.640146	5.669617	-0.262657	0.162445	0.070575	0.688528	0.163526	0.418364	-0.569351
55162	-7.678157	-2.716458	5.678973	-0.288686	0.155726	0.110833	0.686718	0.162967	0.419152	-0.571114
55163	-7.628615	-2.633548	5.727526	-0.159488	0.119054	0.081564	0.684796	0.163034	0.419761	-0.572952
55164	-7.576124	-2.517507	5.684618	-0.042855	0.148135	-0.013373	0.682765	0.163616	0.420231	-0.574864
55165	-7.444823	-2.398415	5.504812	0.016290	0.216619	-0.250600	0.680579	0.164860	0.420657	-0.576785
55166	-7.401522	-2.276617	5.505137	0.141847	0.206233	-0.314827	0.678375	0.166594	0.421040	-0.578600
55167	-7.445264	-2.185792	5.791304	0.341539	0.031444	-0.136368	0.676336	0.168626	0.421346	-0.580175
55168	-7.386856	-2.212111	5.900392	0.357292	-0.118774	-0.110529	0.674526	0.170692	0.421688	-0.581427
55169	-7.298888	-2.200607	5.912946	0.366569	-0.209523	-0.174169	0.672979	0.172794	0.421910	-0.582437
55170	-7.265618	-2.305982	6.035321	0.302084	-0.374280	-0.101846	0.671594	0.175037	0.421810	-0.583438
55171	-7.336578	-2.252155	6.324051	0.441601	-0.550167	0.106658	0.670412	0.177242	0.421363	-0.584454
55172	-7.401829	-2.252846	6.633112	0.531561	-0.753093	0.336736	0.669522	0.179045	0.420666	-0.585425
55173	-7.581384	-2.265997	6.861670	0.588215	-0.819170	0.612167	0.669018	0.179969	0.420100	-0.586125
55174	-7.841487	-2.337805	6.906029	0.541164	-0.702990	0.857853	0.668876	0.179750	0.419913	-0.586487
55175	-7.918040	-2.552761	6.841357	0.331700	-0.646833	0.933830	0.668974	0.178435	0.420126	-0.586625
55176	-8.000582	-2.921891	6.718479	-0.030015	-0.573041	1.020379	0.669000	0.176698	0.420306	-0.586992
55177	-7.950132	-3.013889	6.882000	-0.036711	-0.717189	1.102174	0.668764	0.175141	0.420012	-0.587937
55178	-7.901837	-2.974030	6.732543	-0.036972	-0.591285	0.969700	0.668247	0.173860	0.419185	-0.589494
55179	-7.745776	-2.745887	6.517927	0.102297	-0.436329	0.666783	0.667515	0.172944	0.417814	-0.591561
55180	-7.617772	-2.393472	6.277494	0.344682	-0.214429	0.336260	0.666803	0.172046	0.416249	-0.593726
55181	-7.574137	-2.252228	6.018099	0.386427	0.023843	0.112409	0.666173	0.171139	0.414651	-0.595810
55182	-7.576441	-2.246323	6.011824	0.390989	0.076855	0.108578	0.665629	0.170197	0.412937	-0.597874
55183	-7.365054	-2.093953	5.946029	0.500108	0.067041	-0.131306	0.665181	0.169091	0.411276	-0.599829
55184	-7.321508	-2.075938	5.672861	0.423910	0.283979	-0.334563	0.664803	0.167911	0.409800	-0.601587
55185	-7.360775	-2.120138	5.424604	0.304167	0.519498	-0.445735	0.664488	0.166852	0.408466	-0.603134
55186	-7.490874	-2.088509	5.310663	0.305965	0.729556	-0.429071	0.664212	0.166063	0.407273	-0.604462
55187	-7.466684	-2.004182	5.286800	0.376691	0.777062	-0.486777	0.663943	0.165514	0.406267	-0.605584
55188	-7.456493	-2.046436	5.193251	0.305266	0.849043	-0.542145	0.663641	0.165261	0.405542	-0.606470
55189	-7.387212	-1.954851	5.334063	0.433436	0.733008	-0.532634	0.663302	0.165380	0.405076	-0.607119
55190	-7.342942	-2.024542	5.459438	0.402835	0.601691	-0.469309	0.662998	0.165996	0.404752	-0.607499
55191	-7.265544	-2.010622	5.572622	0.438292	0.464880	-0.459794	0.662807	0.167109	0.404491	-0.607576
55192	-7.299889	-2.010467	5.555823	0.417874	0.484617	-0.443162	0.662834	0.168643	0.404267	-0.607271
55193	-7.296544	-2.058091	5.627656	0.372340	0.399032	-0.386775	0.663088	0.170472	0.404087	-0.606602
55194	-7.282618	-2.046200	5.807991	0.413643	0.235575	-0.287485	0.663598	0.172284	0.404064	-0.605547
55195	-7.311600	-2.198439	5.981125	0.300192	0.070043	-0.118806	0.664374	0.173799	0.404190	-0.604178
55196	-7.386445	-2.362445	5.966905	0.120154	0.068024	-0.028747	0.665356	0.174909	0.404468	-0.602589
55197	-7.510750	-2.489756	6.056902	0.014491	0.033626	0.151995	0.666491	0.175629	0.404741	-0.600940
55198	-7.577816	-2.598296	6.141080	-0.073855	-0.026486	0.280929	0.667666	0.175903	0.405133	-0.599290
55199	-7.589854	-2.644063	6.080821	-0.146626	-0.000494	0.264605	0.668806	0.175790	0.405578	-0.597748
55200	-7.538594	-2.745273	5.933873	-0.298625	0.038232	0.161636	0.669765	0.175561	0.405987	-0.596462
55201	-7.538197	-2.771937	5.932088	-0.327979	0.025292	0.166767	0.670493	0.175342	0.406257	-0.595525
55202	-7.670670	-2.672527	5.993656	-0.211478	0.085371	0.279561	0.670958	0.175234	0.406384	-0.594946
55203	-7.574169	-2.412247	5.970751	0.020335	0.095471	0.128505	0.671192	0.175166	0.406501	-0.594621
55204	-7.552808	-2.432910	5.895586	-0.026163	0.128491	0.071881	0.671287	0.175233	0.406561	-0.594454
55205	-7.518632	-2.316913	6.031881	0.125092	0.032011	0.100175	0.671375	0.175386	0.406540	-0.594323
55206	-7.451677	-2.069966	6.207131	0.410008	-0.082708	0.095177	0.671625	0.175422	0.406464	-0.594083
55207	-7.425580	-1.968513	6.215661	0.504751	-0.081221	0.055815	0.672192	0.175030	0.406515	-0.593522
55208	-7.466301	-1.897503	6.051840	0.517033	0.083467	-0.030221	0.673092	0.174359	0.406671	-0.592592
55209	-7.537773	-1.971140	6.054247	0.449883	0.115639	0.043354	0.674329	0.173474	0.406896	-0.591290
55210	-7.549973	-2.017288	6.093379	0.418819	0.089336	0.087688	0.675741	0.172458	0.407177	-0.589779
55211	-7.485619	-2.211047	6.050802	0.220173	0.035648	0.060796	0.677250	0.171261	0.407516	-0.588161
55212	-7.519176	-2.221217	6.132284	0.241388	0.003153	0.138114	0.678676	0.169996	0.407838	-0.586658
55213	-7.503319	-2.271292	6.109774	0.188270	0.003168	0.124739	0.679930	0.168881	0.408069	-0.585366
55214	-7.510047	-2.176705	6.176750	0.299793	-0.008636	0.147289	0.681039	0.168068	0.408061	-0.584316
55215	-7.499200	-2.241016	6.143759	0.222118	-0.002276	0.135004	0.682035	0.167568	0.407841	-0.583451
55216	-7.415406	-1.989270	5.996320	0.392318	0.118438	-0.079582	0.683058	0.167307	0.407457	-0.582597
55217	-7.598808	-2.076042	5.986079	0.296407	0.228751	0.073909	0.684183	0.166956	0.407116	-0.581615
55218	-7.737468	-2.263367	6.196184	0.186668	0.128814	0.352571	0.685590	0.166193	0.406902	-0.580325
55219	-7.565529	-2.300188	6.265029	0.167125	-0.034364	0.274411	0.687104	0.165253	0.406763	-0.578898
55220	-7.407394	-2.604954	6.348973	-0.095298	-0.271887	0.280960	0.688681	0.164363	0.406470	-0.577481
55221	-7.330129	-2.486005	6.231349	-0.039710	-0.198268	0.122090	0.690260	0.163588	0.406013	-0.576138
55222	-7.174765	-2.480227	6.139016	-0.080398	-0.223619	-0.052575	0.691953	0.162575	0.405540	-0.574723
55223	-7.157481	-2.497689	6.067935	-0.132130	-0.177484	-0.105018	0.693638	0.161288	0.405248	-0.573259
55224	-7.066688	-2.774770	6.031514	-0.404069	-0.277221	-0.128863	0.695267	0.159570	0.405089	-0.571878
55225	-7.036954	-2.947483	6.004426	-0.570208	-0.310707	-0.125696	0.696702	0.157698	0.404955	-0.570745
55226	-6.922645	-3.049722	5.839637	-0.719404	-0.284423	-0.287631	0.697840	0.155945	0.404750	-0.569981
55227	-6.897834	-3.018245	5.693080	-0.739302	-0.172206	-0.403924	0.698692	0.154373	0.404610	-0.569464
55228	-6.934408	-3.038217	5.667063	-0.759990	-0.119459	-0.387163	0.699257	0.153026	0.404637	-0.569115
55229	-6.923958	-3.077182	5.646207	-0.793774	-0.112549	-0.397427	0.699482	0.152111	0.404819	-0.568954
55230	-6.973478	-3.154379	5.659868	-0.850564	-0.106060	-0.332239	0.699288	0.151689	0.405080	-0.569119
55231	-6.981461	-2.927650	5.826176	-0.569284	-0.143137	-0.277925	0.698696	0.151930	0.405251	-0.569660
55232	-6.986594	-2.696006	5.955952	-0.301561	-0.160613	-0.250388	0.697868	0.152574	0.405328	-0.570447
55233	-6.997760	-2.430077	6.084359	-0.004353	-0.164843	-0.228004	0.697062	0.153141	0.405388	-0.571238
55234	-6.942947	-2.194555	6.095796	0.224639	-0.142963	-0.320143	0.696446	0.153203	0.405773	-0.571700
55235	-7.028038	-2.225279	6.054453	0.192868	-0.070797	-0.275426	0.696015	0.152843	0.406530	-0.571783
55236	-7.080468	-2.343865	6.162115	0.143177	-0.149704	-0.140280	0.695684	0.152431	0.407463	-0.571631
55237	-7.328629	-2.576052	6.237840	-0.026718	-0.111877	0.149352	0.695352	0.152218	0.408264	-0.571520
55238	-7.399288	-2.528044	6.306214	0.057480	-0.104597	0.231940	0.694936	0.152199	0.408875	-0.571595
55239	-7.408400	-2.432141	6.278235	0.146868	-0.057610	0.196859	0.694411	0.152227	0.409408	-0.571844
55240	-7.389577	-2.345147	6.317008	0.255135	-0.076125	0.184274	0.693855	0.152164	0.409946	-0.572150
55241	-7.338319	-2.245785	6.435433	0.406779	-0.166562	0.193113	0.693316	0.152118	0.410482	-0.572432
55242	-7.352068	-2.283095	6.474479	0.400102	-0.199006	0.236423	0.692891	0.151982	0.410911	-0.572674
55243	-7.287206	-2.286883	6.580127	0.448804	-0.316242	0.253584	0.692641	0.151730	0.411160	-0.572864
55244	-7.290377	-2.262773	6.578508	0.478307	-0.302489	0.248437	0.692591	0.151308	0.411262	-0.572963
55245	-7.400099	-2.370702	6.381121	0.306892	-0.119371	0.236789	0.692680	0.150791	0.411229	-0.573016
55246	-7.432330	-2.371369	6.231774	0.250753	0.012089	0.169041	0.692847	0.150351	0.411118	-0.573009
55247	-7.450340	-2.485649	6.115180	0.100269	0.077499	0.140472	0.693002	0.150054	0.410896	-0.573059
55248	-7.492742	-2.279874	6.137897	0.295851	0.157548	0.132182	0.693152	0.149966	0.410645	-0.573081
55249	-7.476854	-2.222588	6.084111	0.322876	0.204190	0.072337	0.693348	0.149978	0.410410	-0.573009
55250	-7.412865	-2.215521	6.074995	0.320676	0.172064	0.017482	0.693635	0.149955	0.410193	-0.572823
55251	-7.311577	-2.208997	6.115233	0.338119	0.081044	-0.034445	0.693974	0.149848	0.410038	-0.572551
55252	-7.354206	-2.205600	6.103860	0.331995	0.120748	-0.010580	0.694398	0.149668	0.409908	-0.572177
55253	-7.406783	-2.171037	6.048666	0.336753	0.206422	-0.014515	0.694946	0.149418	0.409790	-0.571661
55254	-7.378581	-2.093063	5.893180	0.342653	0.318621	-0.151682	0.695595	0.149055	0.409807	-0.570954
55255	-7.358747	-2.089411	5.788356	0.302166	0.378088	-0.232102	0.696387	0.148530	0.410050	-0.569950
55256	-7.168956	-2.128693	5.675252	0.223633	0.313223	-0.432622	0.697263	0.147930	0.410547	-0.568676
55257	-7.062709	-2.323212	5.577370	0.008004	0.241082	-0.521399	0.698079	0.147690	0.411084	-0.567347
55258	-7.149313	-2.485354	5.635747	-0.120581	0.194961	-0.378774	0.698779	0.147878	0.411700	-0.565989
55259	-7.179421	-2.673814	5.634326	-0.299586	0.135778	-0.308438	0.699327	0.148546	0.412280	-0.564713
55260	-7.259922	-2.769036	5.551083	-0.433238	0.188227	-0.275113	0.699671	0.149878	0.412706	-0.563623
55261	-7.332842	-2.643594	5.564467	-0.332120	0.234849	-0.244152	0.699825	0.151733	0.413004	-0.562716
55262	-7.553964	-2.572943	5.693177	-0.239988	0.281026	-0.016874	0.699852	0.153588	0.413325	-0.561944
55263	-7.609838	-2.505921	5.767147	-0.164925	0.255395	0.054264	0.699881	0.154979	0.413856	-0.561134
55264	-7.660575	-2.499545	5.870327	-0.125304	0.190295	0.154302	0.699954	0.155827	0.414643	-0.560227
55265	-7.561076	-2.490981	5.942375	-0.084291	0.053382	0.120926	0.700131	0.156142	0.415575	-0.559225
55266	-7.416218	-2.537541	5.913395	-0.127566	-0.057387	0.005054	0.700368	0.156150	0.416613	-0.558154
55267	-7.205545	-2.559987	5.941478	-0.120828	-0.240066	-0.132692	0.700571	0.156104	0.417656	-0.557131
55268	-7.280799	-2.675327	6.177765	-0.121109	-0.410292	0.094337	0.700732	0.156112	0.418679	-0.556158
55269	-7.362631	-2.745003	6.365099	-0.100316	-0.527979	0.285283	0.700920	0.156155	0.419601	-0.555213
55270	-7.371065	-2.813060	6.428014	-0.127373	-0.606211	0.345143	0.701229	0.156051	0.420508	-0.554165
55271	-7.571119	-3.056520	6.531949	-0.301185	-0.645699	0.619132	0.701551	0.155723	0.421380	-0.553187
55272	-7.674044	-3.298460	6.609200	-0.480592	-0.724282	0.803185	0.701627	0.155412	0.421956	-0.552739
55273	-7.688385	-3.272905	6.815595	-0.359202	-0.848124	0.931015	0.701451	0.154809	0.422243	-0.552912
55274	-7.525737	-3.167321	6.711988	-0.286037	-0.833986	0.720214	0.701055	0.153891	0.422361	-0.553580
55275	-7.264134	-3.187455	6.629092	-0.313964	-0.931322	0.478394	0.700530	0.152800	0.422223	-0.554651
55276	-6.955972	-3.110558	6.654890	-0.210145	-1.094036	0.242536	0.699908	0.151743	0.421734	-0.556096
55277	-6.723494	-2.940296	6.555156	-0.080248	-1.086385	-0.033424	0.699333	0.150548	0.421022	-0.557682
55278	-6.725223	-2.825167	6.542232	0.028636	-1.000470	-0.065427	0.698964	0.149137	0.420139	-0.559188
55279	-7.032547	-2.830677	6.551616	0.031968	-0.764277	0.177698	0.698908	0.147261	0.419246	-0.560423
55280	-7.244675	-2.913228	6.373703	-0.108592	-0.482100	0.254679	0.699063	0.145050	0.418302	-0.561511
55281	-7.333606	-3.023270	6.185402	-0.274122	-0.278405	0.238592	0.699294	0.142532	0.417344	-0.562580
55282	-7.309638	-3.073887	5.954750	-0.399561	-0.100742	0.095318	0.699389	0.140026	0.416443	-0.563757
55283	-7.238822	-3.145527	5.809836	-0.506423	-0.021343	-0.025353	0.699226	0.137764	0.415572	-0.565158
55284	-7.212872	-3.035507	5.743190	-0.419159	0.090824	-0.115269	0.698714	0.136122	0.414502	-0.566972
55285	-7.305487	-2.894133	5.579187	-0.352178	0.353618	-0.188539	0.697893	0.135159	0.413154	-0.569194
55286	-7.492611	-2.622761	5.757788	-0.027446	0.491730	-0.018428	0.696991	0.134395	0.411728	-0.571508
55287	-7.564524	-2.377940	5.741615	0.194018	0.669219	-0.047590	0.696184	0.133427	0.410489	-0.573606
55288	-7.512733	-2.421759	5.677839	0.138634	0.702637	-0.115736	0.695469	0.132183	0.409550	-0.575431
55289	-7.184217	-2.429859	5.663322	0.140201	0.519918	-0.362803	0.694685	0.130972	0.408858	-0.577144
55290	-6.990072	-2.547492	5.599953	0.019916	0.422359	-0.510459	0.693683	0.130377	0.408168	-0.578968
55291	-6.993268	-2.338521	5.768484	0.286677	0.396527	-0.463332	0.692530	0.130598	0.407398	-0.580838
55292	-7.034387	-2.224589	5.978435	0.476341	0.331368	-0.334482	0.691369	0.131390	0.406624	-0.582582
55293	-7.102768	-2.263248	6.207043	0.525576	0.220439	-0.128982	0.690319	0.132754	0.405712	-0.584152
55294	-7.348326	-2.318577	6.438099	0.549212	0.220895	0.210900	0.689450	0.134732	0.404376	-0.585650
55295	-7.514159	-2.219459	6.568206	0.658626	0.273694	0.386384	0.688826	0.136985	0.402582	-0.587095
55296	-7.585251	-2.042498	6.596063	0.794667	0.352646	0.407876	0.688467	0.138618	0.400890	-0.588290
55297	-7.415787	-1.943748	6.637028	0.873408	0.241653	0.286863	0.688354	0.138955	0.399801	-0.589083
55298	-7.361449	-2.175088	6.600661	0.638618	0.183536	0.289249	0.688411	0.138172	0.399254	-0.589572
55299	-7.208169	-2.391792	6.385704	0.358817	0.184477	0.101582	0.688555	0.137007	0.398828	-0.589964
55300	-7.044380	-2.476478	6.330486	0.261927	0.106530	-0.027428	0.688706	0.136158	0.398290	-0.590347
55301	-6.957794	-2.670549	6.394814	0.103670	-0.030203	0.006920	0.688799	0.135985	0.397536	-0.590787
55302	-7.001621	-2.623615	6.448177	0.155044	-0.010097	0.059539	0.688824	0.136478	0.396506	-0.591336
55303	-6.935565	-2.649516	6.410129	0.094352	-0.029105	-0.004428	0.688868	0.137215	0.395274	-0.591939
55304	-6.977509	-2.619768	6.441882	0.111997	-0.002385	0.037900	0.688961	0.137709	0.394085	-0.592509
55305	-7.053813	-2.777103	6.341796	-0.089690	0.090372	0.070161	0.689069	0.137934	0.392933	-0.593095
55306	-7.219591	-2.858365	6.333153	-0.183486	0.209162	0.203505	0.689217	0.138054	0.391722	-0.593696
55307	-7.153053	-2.844344	6.293446	-0.204387	0.209742	0.126030	0.689382	0.138236	0.390447	-0.594302
55308	-7.003979	-2.807783	6.283899	-0.194127	0.138134	0.004132	0.689534	0.138324	0.389166	-0.594945
55309	-6.872989	-2.803032	6.313614	-0.195889	0.046923	-0.070200	0.689685	0.138176	0.387978	-0.595579
55310	-6.742082	-2.837077	6.300111	-0.245690	-0.024513	-0.162036	0.689791	0.137859	0.386904	-0.596229
55311	-6.762787	-2.828520	6.288228	-0.250643	0.021908	-0.157934	0.689795	0.137539	0.385895	-0.596951
55312	-6.711402	-2.872000	6.315816	-0.289629	-0.023282	-0.164041	0.689661	0.137399	0.384921	-0.597767
55313	-6.686283	-2.903809	6.435214	-0.283371	-0.107853	-0.093710	0.689380	0.137277	0.384007	-0.598707
55314	-6.675558	-2.987922	6.510257	-0.340349	-0.165994	-0.028477	0.688928	0.137206	0.383137	-0.599798
55315	-6.768957	-3.073887	6.530208	-0.418134	-0.112632	0.072839	0.688261	0.137334	0.382085	-0.601205
55316	-6.878359	-2.981887	6.548001	-0.332619	-0.000940	0.135634	0.687430	0.137576	0.380794	-0.602917
55317	-6.848950	-2.809409	6.487184	-0.200275	0.084152	0.027902	0.686478	0.137502	0.379510	-0.604825
55318	-6.841620	-2.707857	6.460251	-0.114578	0.149801	-0.022925	0.685438	0.137030	0.378414	-0.606795
55319	-6.812397	-2.686315	6.485399	-0.079908	0.150175	-0.032278	0.684449	0.136259	0.377377	-0.608729
55320	-6.725295	-2.600451	6.419184	-0.015226	0.183008	-0.160536	0.683513	0.135319	0.376445	-0.610564
55321	-6.636694	-2.433693	6.426828	0.155629	0.182623	-0.262033	0.682723	0.134000	0.375887	-0.612079
55322	-6.623172	-2.570782	6.410469	0.042470	0.183639	-0.245357	0.682046	0.132484	0.375816	-0.613208
55323	-6.521087	-2.731352	6.448707	-0.075391	0.073316	-0.244012	0.681406	0.131342	0.375856	-0.614139
55324	-6.455048	-2.852561	6.582598	-0.128639	-0.069920	-0.163134	0.680708	0.130835	0.375689	-0.615123
55325	-6.415747	-2.665598	6.628535	0.069018	-0.076993	-0.210917	0.679878	0.130761	0.375343	-0.616267
55326	-6.522596	-2.575887	6.696198	0.187290	-0.011429	-0.118189	0.679064	0.130525	0.375029	-0.617404
55327	-6.596117	-2.502384	6.773931	0.296149	0.021391	-0.036766	0.678329	0.129981	0.374842	-0.618440
55328	-6.669871	-2.554847	6.734662	0.250899	0.107340	0.000344	0.677734	0.129082	0.374700	-0.619366
55329	-6.621314	-2.553534	6.792832	0.289437	0.055223	0.006579	0.677275	0.127644	0.374730	-0.620148
55330	-6.555569	-2.691231	6.710980	0.155343	0.056339	-0.054203	0.676889	0.125777	0.374944	-0.620821
55331	-6.516833	-2.837617	6.649161	0.024564	0.064083	-0.079872	0.676542	0.123904	0.375173	-0.621437
55332	-6.485849	-2.940467	6.639504	-0.048994	0.051931	-0.076652	0.676169	0.122262	0.375283	-0.622102
55333	-6.439986	-2.903958	6.538648	-0.028950	0.111083	-0.187353	0.675804	0.120847	0.375406	-0.622700
55334	-6.551732	-2.979408	6.571113	-0.058445	0.177540	-0.068633	0.675412	0.119597	0.375709	-0.623184
55335	-6.727007	-3.173703	6.727334	-0.149523	0.185779	0.213534	0.674991	0.118478	0.376210	-0.623551
55336	-6.820969	-3.394428	6.782067	-0.308717	0.187700	0.381117	0.674439	0.117913	0.376546	-0.624052
55337	-6.727193	-3.369132	6.789628	-0.276881	0.122434	0.317148	0.673594	0.118103	0.376477	-0.624971
55338	-6.691554	-3.129943	6.858807	-0.030342	0.101643	0.267264	0.672486	0.118769	0.375988	-0.626330
55339	-6.718155	-2.796514	6.844349	0.272826	0.198223	0.171574	0.671250	0.119580	0.375258	-0.627938
55340	-6.746433	-2.668094	6.844726	0.391443	0.250281	0.150619	0.670037	0.120054	0.374595	-0.629537
55341	-6.703816	-2.567995	6.828468	0.477805	0.256548	0.080218	0.668929	0.120182	0.374080	-0.630994
55342	-6.618060	-2.612192	6.753108	0.408741	0.244157	-0.014727	0.667978	0.120103	0.373625	-0.632286
55343	-6.547233	-2.647024	6.700649	0.358181	0.231696	-0.086964	0.667181	0.119881	0.373158	-0.633444
55344	-6.481868	-2.615215	6.651812	0.371916	0.231835	-0.173783	0.666540	0.119602	0.372838	-0.634360
55345	-6.497155	-2.696858	6.673120	0.310924	0.226319	-0.124102	0.666086	0.119307	0.372731	-0.634955
55346	-6.572128	-2.812518	6.686738	0.218860	0.260480	-0.030058	0.665849	0.119247	0.372717	-0.635222
55347	-6.604038	-2.831467	6.749709	0.225249	0.241445	0.040234	0.665802	0.119495	0.372655	-0.635261
55348	-6.577391	-2.888134	6.819328	0.188174	0.163729	0.089050	0.665818	0.119997	0.372565	-0.635202
55349	-6.496273	-2.881829	6.941763	0.219847	0.019917	0.119374	0.665824	0.120608	0.372364	-0.635199
55350	-6.510787	-2.895109	7.062299	0.239208	-0.051545	0.216679	0.665811	0.121099	0.372024	-0.635319
55351	-6.514942	-2.714468	6.983027	0.371840	0.032705	0.108811	0.665847	0.121361	0.371516	-0.635527
55352	-6.508670	-2.651189	6.807783	0.364763	0.157257	-0.036200	0.665996	0.121098	0.371049	-0.635694
55353	-6.399083	-2.620703	6.777047	0.373901	0.111456	-0.138367	0.666236	0.120353	0.370770	-0.635747
55354	-6.237487	-2.775164	6.574654	0.153132	0.106603	-0.336453	0.666571	0.119360	0.370698	-0.635625
55355	-6.112400	-2.928674	6.576085	0.006982	-0.003158	-0.368992	0.666983	0.118555	0.370772	-0.635300
55356	-6.049412	-3.158288	6.474681	-0.245600	-0.020262	-0.408916	0.667439	0.118389	0.370741	-0.634870
55357	-6.198531	-3.163764	6.490703	-0.240052	0.078813	-0.299720	0.667880	0.118828	0.370582	-0.634418
55358	-6.360815	-3.132017	6.503367	-0.204794	0.190716	-0.195779	0.668298	0.119440	0.370554	-0.633879
55359	-6.523330	-3.229368	6.516300	-0.288905	0.277633	-0.051322	0.668672	0.119955	0.370749	-0.633272
55360	-6.563963	-3.283463	6.652211	-0.295960	0.200064	0.086354	0.668921	0.120365	0.371109	-0.632721
55361	-6.588206	-3.413232	6.736115	-0.389864	0.129789	0.200354	0.669067	0.120760	0.371497	-0.632262
55362	-6.556805	-3.379368	6.822534	-0.333376	0.044724	0.229505	0.669063	0.121209	0.371762	-0.632026
55363	-6.496442	-3.197633	6.880619	-0.150614	-0.015657	0.174734	0.668941	0.121600	0.371857	-0.632023
55364	-6.420633	-3.047881	6.846530	-0.028021	-0.029873	0.055818	0.668815	0.121632	0.371973	-0.632082
55365	-6.422312	-2.969940	6.746136	0.016033	0.048458	-0.036473	0.668760	0.121254	0.372211	-0.632073
55366	-6.342201	-3.011797	6.776773	-0.008434	-0.036059	-0.054732	0.668792	0.120589	0.372596	-0.631940
55367	-6.274754	-3.091646	6.697508	-0.102953	-0.048006	-0.128964	0.668922	0.119915	0.373048	-0.631664
55368	-6.213786	-3.122074	6.747735	-0.108942	-0.132607	-0.124501	0.669037	0.119675	0.373486	-0.631328
55369	-6.248381	-3.159100	7.046220	-0.033835	-0.308857	0.115800	0.669156	0.119859	0.373806	-0.630978
55370	-6.446417	-3.118431	7.194138	0.069014	-0.256171	0.334536	0.669344	0.120216	0.374046	-0.630568
55371	-6.426588	-3.058192	7.202851	0.123694	-0.276001	0.308733	0.669568	0.120481	0.374282	-0.630139
55372	-6.485447	-3.099671	7.277165	0.113834	-0.294642	0.411125	0.669746	0.120602	0.374560	-0.629762
55373	-6.493506	-3.217260	7.364682	0.034946	-0.371484	0.512801	0.669862	0.120703	0.374747	-0.629507
55374	-6.508881	-3.292654	7.333104	-0.048606	-0.356887	0.524226	0.669880	0.121009	0.374586	-0.629526
55375	-6.522200	-3.229975	7.244500	-0.029875	-0.278226	0.452608	0.669834	0.121471	0.373949	-0.629864
55376	-6.560042	-2.941984	7.189741	0.210674	-0.156320	0.351611	0.669791	0.121627	0.373133	-0.630364
55377	-6.562321	-2.831240	7.084366	0.270367	-0.052106	0.246755	0.669847	0.121149	0.372320	-0.630877
55378	-6.495185	-2.814947	6.797544	0.180813	0.105590	-0.000752	0.670043	0.120170	0.371536	-0.631318
55379	-6.393683	-2.886711	6.709967	0.078014	0.100265	-0.106002	0.670342	0.118944	0.370674	-0.631739
55380	-6.282633	-2.875627	6.628925	0.054726	0.100457	-0.238233	0.670699	0.117619	0.369729	-0.632162
55381	-6.206713	-2.853553	6.574748	0.054274	0.113643	-0.332318	0.671076	0.116142	0.368795	-0.632581
55382	-6.116246	-2.852549	6.443381	0.007944	0.159867	-0.483328	0.671463	0.114628	0.367969	-0.632927
55383	-6.109267	-2.871895	6.338584	-0.041509	0.245789	-0.555994	0.671870	0.113252	0.367323	-0.633118
55384	-6.135475	-2.952069	6.372704	-0.098214	0.253818	-0.490884	0.672329	0.112193	0.366892	-0.633070
55385	-6.151211	-3.120640	6.513843	-0.204534	0.164654	-0.329177	0.672856	0.111597	0.366536	-0.632821
55386	-6.303718	-3.189573	6.652044	-0.214171	0.192511	-0.113358	0.673413	0.111404	0.366220	-0.632445
55387	-6.371935	-3.044257	6.924333	0.015491	0.105887	0.076903	0.674012	0.111216	0.366065	-0.631930
55388	-6.354454	-3.117892	6.934322	-0.054258	0.074606	0.095726	0.674639	0.110884	0.366121	-0.631286
55389	-6.337983	-3.286140	7.022248	-0.182513	-0.021008	0.199653	0.675213	0.110532	0.366141	-0.630722
55390	-6.313560	-3.379813	7.063515	-0.258603	-0.078246	0.242383	0.675622	0.110217	0.365919	-0.630468
55391	-6.323866	-3.284231	6.959687	-0.208980	0.019446	0.145759	0.675786	0.109948	0.365377	-0.630654
55392	-6.339434	-3.047316	6.958500	0.009926	0.088839	0.081112	0.675779	0.109487	0.364797	-0.631077
55393	-6.242094	-3.051144	6.967109	0.006640	0.023593	0.026682	0.675679	0.108737	0.364575	-0.631442
55394	-6.117308	-3.197450	6.772516	-0.200500	0.032549	-0.144655	0.675482	0.108345	0.364369	-0.631838
55395	-5.936379	-3.126556	6.920692	-0.094386	-0.178185	-0.175713	0.675241	0.108604	0.364004	-0.632262
55396	-5.931102	-3.061212	6.977466	-0.022263	-0.204786	-0.159109	0.675064	0.109275	0.363626	-0.632553
55397	-6.013654	-3.021247	7.045018	0.032635	-0.178375	-0.071468	0.675011	0.109918	0.363314	-0.632677
55398	-6.182594	-3.104561	6.957998	-0.075969	-0.012196	-0.000930	0.675027	0.110461	0.362965	-0.632766
55399	-6.386154	-3.056279	7.089423	0.018264	0.073282	0.206195	0.675105	0.110698	0.362585	-0.632859
55400	-6.387588	-2.886126	7.107662	0.181649	0.097477	0.167661	0.675253	0.110226	0.362531	-0.632815
55401	-6.147345	-2.959705	7.031812	0.080484	-0.045730	-0.015367	0.675392	0.109165	0.362765	-0.632717
55402	-5.852256	-3.127716	6.935435	-0.113341	-0.233562	-0.217671	0.675398	0.108066	0.363021	-0.632751
55403	-5.704581	-3.163165	6.850016	-0.171255	-0.291969	-0.359858	0.675205	0.107311	0.363168	-0.633002
55404	-5.747798	-3.036282	6.869522	-0.033812	-0.241042	-0.358203	0.674862	0.107077	0.363167	-0.633408
55405	-5.935956	-2.972922	6.993214	0.085837	-0.156072	-0.171777	0.674559	0.107078	0.363188	-0.633718
55406	-6.045140	-2.937086	7.013705	0.137374	-0.077303	-0.099943	0.674358	0.107032	0.363322	-0.633864
55407	-6.102313	-3.044331	7.074385	0.068388	-0.088212	0.012822	0.674248	0.106745	0.363573	-0.633885
55408	-6.056938	-3.087493	7.135163	0.056072	-0.165962	0.041193	0.674098	0.106244	0.363882	-0.633951
55409	-6.018010	-3.125925	7.110503	0.022862	-0.184761	0.011386	0.673831	0.105591	0.364351	-0.634074
55410	-6.100618	-3.360296	7.126072	-0.169074	-0.167348	0.148910	0.673461	0.105118	0.364708	-0.634341
55411	-6.107443	-3.255266	7.235438	-0.020478	-0.208105	0.197580	0.673009	0.104956	0.364914	-0.634729
55412	-6.187081	-3.242904	7.245845	0.007218	-0.148691	0.250936	0.672528	0.104966	0.364938	-0.635223
55413	-6.224599	-3.183294	7.284463	0.084183	-0.129494	0.282784	0.672054	0.104866	0.364901	-0.635762
55414	-6.300522	-3.146298	7.286034	0.132423	-0.057408	0.319500	0.671617	0.104373	0.364821	-0.636351
55415	-6.311112	-3.127869	7.185765	0.127190	0.027963	0.248720	0.671212	0.103506	0.364797	-0.636934
55416	-6.346959	-3.156585	7.066759	0.077600	0.140362	0.195370	0.670862	0.102357	0.364786	-0.637494
55417	-6.354777	-3.247251	7.028937	-0.000444	0.174991	0.202456	0.670523	0.101019	0.364736	-0.638092
55418	-6.198699	-3.186309	6.960271	0.040647	0.127954	0.036358	0.670138	0.099486	0.364717	-0.638748
55419	-6.056294	-3.201184	6.800570	-0.018618	0.134760	-0.160981	0.669635	0.097928	0.364721	-0.639514
55420	-5.917977	-3.133155	6.789010	0.054055	0.067820	-0.277376	0.669031	0.096374	0.364860	-0.640302
55421	-5.834988	-3.127949	6.747596	0.062368	0.048016	-0.359914	0.668349	0.095091	0.365124	-0.641056
55422	-5.922358	-3.221162	6.746824	0.005742	0.115583	-0.275580	0.667571	0.094364	0.365416	-0.641806
55423	-6.073152	-3.212094	6.890914	0.095241	0.155201	-0.083748	0.666726	0.094356	0.365578	-0.642594
55424	-6.135983	-2.941302	6.938585	0.375805	0.216324	-0.104058	0.665873	0.094884	0.365683	-0.643340
55425	-6.062599	-2.711682	7.004732	0.607869	0.146788	-0.180267	0.665158	0.095478	0.365910	-0.643863
55426	-5.971151	-2.628948	6.955295	0.661531	0.106195	-0.299895	0.664665	0.095897	0.366464	-0.643994
55427	-5.892880	-2.768009	6.986355	0.541145	-0.009030	-0.278322	0.664370	0.096355	0.367124	-0.643854
55428	-5.834707	-2.793039	7.015530	0.525227	-0.093500	-0.284944	0.664258	0.097014	0.367799	-0.643485
55429	-5.903223	-2.640403	6.982327	0.660006	-0.017024	-0.318651	0.664362	0.097810	0.368419	-0.642903
55430	-5.844706	-2.437495	6.753509	0.757176	0.084641	-0.586023	0.664679	0.098493	0.369291	-0.641970
55431	-5.705394	-2.431211	6.545327	0.674987	0.078315	-0.821480	0.665146	0.099021	0.370541	-0.640684
55432	-5.609654	-2.480276	6.401428	0.573579	0.053330	-0.965861	0.665614	0.099576	0.372253	-0.639117
55433	-5.569663	-2.635232	6.240103	0.377058	0.056722	-1.051471	0.666022	0.100335	0.374496	-0.637260
55434	-5.547203	-2.722896	6.112707	0.258047	0.052269	-1.124695	0.666268	0.101674	0.377152	-0.635220
55435	-5.610952	-2.815202	5.814354	0.076288	0.205800	-1.258959	0.666333	0.103813	0.380120	-0.633034
55436	-5.657529	-2.781742	5.704870	0.074474	0.238664	-1.313971	0.666222	0.106718	0.383357	-0.630711
55437	-5.642502	-2.702804	5.717075	0.152144	0.145753	-1.340214	0.665851	0.110169	0.386939	-0.628318
55438	-5.438243	-2.751927	5.751683	0.102357	-0.135310	-1.434154	0.665242	0.114098	0.390725	-0.625915
55439	-5.516326	-2.790971	5.962460	0.152893	-0.324281	-1.231266	0.664315	0.118332	0.394640	-0.623653
55440	-5.359814	-2.810352	6.446761	0.303841	-0.868904	-1.018484	0.663115	0.122685	0.398708	-0.621497
55441	-5.458677	-2.983311	6.946656	0.344177	-1.278637	-0.582373	0.661651	0.127072	0.402936	-0.619445
55442	-5.689127	-3.384760	7.832999	0.327176	-1.913401	0.257516	0.659801	0.131884	0.406839	-0.617860
55443	-5.915664	-3.398321	8.673148	0.637504	-2.457454	0.926034	0.657583	0.136977	0.409958	-0.617054
55444	-6.054071	-3.322462	9.670464	1.062110	-3.154399	1.594715	0.655361	0.141676	0.412049	-0.616965
55445	-6.170209	-3.072501	10.224443	1.475094	-3.506567	1.916696	0.653583	0.144986	0.413197	-0.617314
55446	-6.266992	-3.235483	10.313246	1.343292	-3.587134	2.079938	0.652384	0.146440	0.413479	-0.618050
55447	-6.302888	-2.971662	10.152600	1.539609	-3.401530	1.921517	0.651727	0.145215	0.413541	-0.618990
55448	-6.156043	-3.298522	9.352447	0.978878	-2.954470	1.437092	0.651409	0.141338	0.413444	-0.620286
55449	-6.070601	-3.255103	8.996299	0.953106	-2.667085	1.158092	0.650927	0.135736	0.412820	-0.622454
55450	-5.883790	-2.802783	8.348954	1.199474	-2.146033	0.489414	0.649966	0.128817	0.411884	-0.625541
55451	-5.756123	-2.460590	7.809016	1.394760	-1.668798	-0.043580	0.648453	0.121014	0.410627	-0.629484
55452	-5.757327	-2.204079	7.809727	1.729765	-1.472428	-0.125915	0.646740	0.112604	0.408593	-0.634113
55453	-6.317895	-1.996156	6.822597	1.711782	-0.209517	-0.460079	0.645226	0.104234	0.405710	-0.638920
55454	-7.420005	-2.143561	5.654088	1.355188	1.508888	-0.458312	0.644382	0.097359	0.401731	-0.643355
55455	-9.169641	-1.912888	4.732767	1.501880	3.600391	-0.069992	0.645001	0.092144	0.397419	-0.646174
55456	-10.896803	-1.793538	3.870473	1.518654	5.603149	0.347756	0.647765	0.087746	0.394334	-0.645912
55457	-12.500534	-2.179830	3.485046	1.177344	7.099763	1.203962	0.652608	0.083680	0.393782	-0.641900
55458	-13.407529	-3.090935	2.871241	0.097957	8.045380	1.712061	0.659060	0.079873	0.395997	-0.634387
55459	-13.105053	-3.856553	2.183735	-1.085929	8.016136	1.409692	0.666181	0.077712	0.399984	-0.624641
55460	-12.271248	-4.287255	1.648079	-1.972697	7.446896	0.785670	0.673092	0.078034	0.405295	-0.613672
55461	-10.949451	-3.897044	1.950888	-1.767375	6.126273	0.097939	0.679252	0.081211	0.411643	-0.602139
55462	-9.647292	-3.858652	2.608248	-1.653772	4.502786	-0.234385	0.684656	0.086966	0.418721	-0.590217
55463	-8.107098	-3.341031	3.450783	-0.987864	2.726933	-0.847436	0.689366	0.095341	0.425806	-0.578250
55464	-6.557925	-2.951352	4.141717	-0.460945	1.037816	-1.592312	0.693558	0.105863	0.432439	-0.566363
55465	-5.349222	-2.346116	4.876514	0.316466	-0.321669	-2.217320	0.697405	0.117975	0.438282	-0.554632
55466	-4.605462	-1.827028	5.602215	1.037339	-1.342969	-2.529233	0.701311	0.130397	0.443265	-0.542840
55467	-4.059348	-1.678143	6.496239	1.526015	-2.447995	-2.520907	0.705567	0.142304	0.447091	-0.531069
55468	-4.180709	-1.828062	7.049444	1.573384	-3.002283	-2.130126	0.710203	0.153315	0.449471	-0.519694
55469	-4.327882	-1.900076	7.257737	1.513989	-3.261121	-1.933251	0.715269	0.162873	0.450400	-0.508922
55470	-4.655110	-2.040549	7.377127	1.330159	-3.358661	-1.614901	0.720661	0.170692	0.449849	-0.499147
55471	-5.122405	-2.149428	7.650619	1.220113	-3.442704	-1.092105	0.726282	0.176439	0.447795	-0.490779
55472	-5.850093	-2.071559	7.407285	0.980998	-2.901935	-0.647642	0.732034	0.179916	0.444628	-0.483799
55473	-7.221524	-1.793206	7.199309	0.834742	-1.905824	0.329614	0.737983	0.180540	0.441891	-0.476989
55474	-9.297713	-2.187298	6.646597	-0.178532	-0.596356	1.807163	0.744219	0.178449	0.440782	-0.469048
55475	-10.911880	-2.606322	6.523131	-0.938538	0.122886	3.130146	0.750447	0.174648	0.441927	-0.459377
55476	-11.455713	-3.104964	6.638513	-1.423247	0.016113	3.712015	0.756367	0.169360	0.445321	-0.448237
55477	-10.782002	-3.830541	6.373942	-1.977973	-0.650978	3.118433	0.761290	0.163135	0.450765	-0.436618
55478	-9.596038	-4.543543	6.306709	-2.219711	-1.741324	2.209770	0.764390	0.157315	0.457684	-0.426011
55479	-8.617456	-5.057705	6.586924	-2.090809	-2.843759	1.622606	0.765058	0.153874	0.465033	-0.418034
55480	-8.186679	-5.246308	6.895388	-1.804400	-3.493728	1.440163	0.763318	0.153892	0.471794	-0.413611
55481	-7.781440	-4.595673	7.247761	-0.890007	-3.642137	1.148234	0.759721	0.157281	0.477232	-0.412718
55482	-7.062377	-3.455092	7.632134	0.430267	-3.653308	0.508707	0.755445	0.162134	0.481146	-0.414142
55483	-5.744167	-2.284055	7.617727	1.618589	-3.655977	-0.854155	0.751390	0.166278	0.484300	-0.416196
55484	-4.520042	-1.542191	7.416695	2.343401	-3.712804	-2.161570	0.748339	0.167005	0.488016	-0.417059
55485	-3.585147	-1.846870	7.159872	2.189481	-4.170457	-3.079149	0.746328	0.163493	0.492889	-0.416323
55486	-2.953524	-2.760428	6.625287	1.372922	-4.635501	-3.741163	0.744735	0.157074	0.498440	-0.415037
55487	-2.590260	-4.045508	5.987602	0.169952	-5.133683	-4.108131	0.742934	0.150184	0.503504	-0.414702
55488	-2.880837	-4.966322	5.576620	-0.731984	-5.265131	-3.829039	0.740197	0.145196	0.507441	-0.416569
55489	-3.604885	-5.339912	5.331760	-1.210022	-4.963816	-3.191994	0.736242	0.143221	0.510023	-0.421084
55490	-5.098931	-5.537121	5.232980	-1.589065	-4.270350	-1.857714	0.731055	0.144134	0.511365	-0.428123
55491	-7.705131	-5.890880	5.340032	-2.074872	-3.247059	0.567031	0.724936	0.146936	0.511968	-0.436768
55492	-10.988642	-6.391883	5.130264	-2.874601	-1.737783	3.477986	0.718321	0.150869	0.512197	-0.445991
55493	-13.973984	-6.698048	5.017303	-3.350110	-0.291131	6.124691	0.711548	0.155378	0.512053	-0.455368
55494	-15.573568	-6.886780	4.688581	-3.685182	0.731194	7.445021	0.704737	0.158880	0.511866	-0.464861
55495	-15.721845	-7.383467	4.151883	-4.255190	1.096313	7.496719	0.697558	0.160710	0.511470	-0.475377
55496	-15.095566	-7.480033	3.997065	-4.223674	1.098271	6.942839	0.689426	0.161466	0.510173	-0.488206
55497	-14.353928	-6.958658	3.986257	-3.585658	1.298303	6.180803	0.680142	0.161493	0.507655	-0.503601
55498	-13.629350	-6.228378	3.864575	-2.829512	1.703293	5.305615	0.670102	0.161144	0.503459	-0.521079
55499	-12.628364	-5.373017	3.487980	-2.120388	2.182684	4.016070	0.659705	0.160586	0.497561	-0.539848
55500	-11.514567	-4.556912	2.962012	-1.540405	2.636502	2.547965	0.649484	0.158973	0.490879	-0.558512
55501	-10.560673	-3.887301	2.479357	-1.063549	3.016042	1.257372	0.639710	0.156014	0.484240	-0.576144
55502	-9.589085	-3.405017	2.261293	-0.657312	3.045180	0.134342	0.630573	0.151819	0.478100	-0.592240
55503	-8.476676	-3.378784	2.231987	-0.641021	2.660235	-0.826202	0.622043	0.146845	0.472329	-0.606963
55504	-7.656162	-3.376926	2.317167	-0.599644	2.317785	-1.466891	0.613943	0.141888	0.466457	-0.620774
55505	-7.189282	-3.254427	2.215868	-0.492128	2.329094	-1.969499	0.606240	0.137154	0.460289	-0.633874
55506	-6.947667	-3.234996	2.018717	-0.485329	2.515392	-2.313111	0.598964	0.132757	0.453749	-0.646320
55507	-6.836220	-3.023456	1.764205	-0.307659	2.834346	-2.681350	0.592125	0.128724	0.447076	-0.657982
55508	-6.844487	-2.903377	1.626309	-0.144430	3.110062	-2.868250	0.585792	0.124975	0.440659	-0.668617
55509	-7.084953	-2.953145	1.721867	0.010358	3.338319	-2.689811	0.580037	0.121255	0.434863	-0.678048
55510	-7.320876	-2.959571	1.723246	0.170424	3.624331	-2.590718	0.574802	0.117728	0.429804	-0.686303
55511	-7.696503	-3.021505	1.707761	0.318365	4.003790	-2.386480	0.570215	0.114435	0.425450	-0.693362
55512	-8.186714	-3.289089	1.704172	0.322969	4.441904	-2.008313	0.566254	0.111760	0.421698	-0.699312
55513	-8.623860	-3.380729	1.855140	0.510160	4.724054	-1.647898	0.562972	0.109766	0.418444	-0.704215
55514	-8.927604	-3.607263	2.014932	0.523923	4.899368	-1.298266	0.560426	0.108248	0.415623	-0.708140
55515	-8.948313	-3.765188	2.191378	0.491842	4.857033	-1.139864	0.558370	0.107182	0.412913	-0.711504
55516	-8.587431	-3.727530	2.191546	0.431525	4.658766	-1.413245	0.556537	0.106502	0.410229	-0.714588
55517	-8.229788	-3.700091	2.274530	0.380941	4.395547	-1.619559	0.554690	0.106064	0.407916	-0.717408
55518	-7.768251	-3.350392	2.445690	0.601451	3.965360	-1.972644	0.552709	0.105805	0.406487	-0.719782
55519	-7.074463	-3.049174	2.895330	0.773841	3.157279	-2.252191	0.550448	0.105934	0.406003	-0.721767
55520	-6.356813	-3.020426	3.547622	0.748932	2.187789	-2.278082	0.547803	0.106907	0.406322	-0.723454
55521	-5.611376	-2.807936	4.229298	0.867318	1.147564	-2.383704	0.544814	0.109234	0.406886	-0.725044
55522	-5.194367	-2.633175	5.037235	1.087766	0.233056	-2.193562	0.541814	0.112836	0.407561	-0.726360
55523	-5.060628	-2.448793	5.532415	1.311052	-0.282283	-2.039966	0.539107	0.117881	0.408317	-0.727149
55524	-4.953319	-2.559228	6.006759	1.250185	-0.761372	-1.749025	0.537011	0.124398	0.409279	-0.727073
55525	-5.113621	-3.142144	6.691402	0.888374	-1.191798	-0.947834	0.535664	0.132949	0.409565	-0.726392
55526	-5.556745	-3.131912	7.592386	1.149159	-1.672288	-0.106510	0.535011	0.143590	0.408695	-0.725337
55527	-6.296176	-2.900391	8.071085	1.567249	-1.694278	0.573118	0.535152	0.154636	0.407835	-0.723444
55528	-6.681921	-2.659311	7.823057	1.701947	-1.422672	0.579409	0.536001	0.164322	0.408560	-0.720264
55529	-6.847998	-2.709453	7.278763	1.487120	-1.052029	0.380222	0.537208	0.171458	0.412330	-0.715537
55530	-6.884023	-3.334695	7.009689	0.825341	-0.945697	0.486201	0.538350	0.176104	0.418999	-0.709652
55531	-7.062240	-3.701903	6.854869	0.531111	-0.888518	0.651212	0.539204	0.178833	0.427716	-0.703091
55532	-7.409775	-4.425586	6.872781	0.038038	-0.865929	1.185966	0.539558	0.181127	0.436232	-0.696974
55533	-7.664595	-4.731963	6.899722	-0.109718	-0.928778	1.495088	0.539198	0.184041	0.443091	-0.692145
55534	-7.439251	-4.390388	6.912067	0.135315	-1.248253	1.178964	0.538342	0.187602	0.447568	-0.688967
55535	-6.873959	-3.988972	6.218633	0.138968	-1.137345	0.213316	0.536801	0.191517	0.450614	-0.687105
55536	-6.655226	-3.902389	5.776295	0.031446	-0.995872	-0.226615	0.534684	0.195155	0.453336	-0.685940
55537	-6.732220	-3.772229	6.301937	0.284050	-1.484315	0.035273	0.532270	0.198360	0.456200	-0.684999
55538	-6.992735	-3.702031	6.965629	0.584443	-1.990599	0.522620	0.530036	0.200836	0.459264	-0.683962
55539	-7.323025	-3.728002	7.235276	0.744233	-2.127128	0.901543	0.528274	0.202947	0.461995	-0.682861
55540	-7.516240	-3.819451	7.045848	0.697546	-1.940560	0.979590	0.527114	0.204733	0.464309	-0.681654
55541	-7.411202	-4.091779	6.903360	0.387111	-1.937823	0.930664	0.526376	0.206120	0.466397	-0.680380
55542	-7.270893	-4.104923	6.880072	0.331008	-2.048824	0.805417	0.526037	0.206631	0.468644	-0.678942
55543	-7.182095	-4.413684	7.018158	0.070322	-2.254772	0.921767	0.525888	0.206283	0.470582	-0.677821
55544	-7.268206	-4.504191	7.008232	0.047532	-2.225778	1.016598	0.525857	0.205250	0.471876	-0.677259
55545	-7.474991	-4.391781	6.720991	0.196330	-1.876088	0.993634	0.526009	0.203588	0.472623	-0.677122
55546	-7.630961	-4.369660	6.466234	0.255334	-1.562685	0.986865	0.526462	0.201223	0.473150	-0.677109
55547	-7.732401	-4.330505	6.166993	0.308386	-1.230486	0.909515	0.527213	0.198003	0.474019	-0.676866
55548	-7.745720	-4.538921	5.911530	0.126444	-0.981784	0.890765	0.528245	0.194068	0.475379	-0.676247
55549	-7.665709	-4.645260	5.721528	0.023248	-0.841672	0.787692	0.529335	0.189959	0.476958	-0.675449
55550	-7.576479	-4.844984	5.531545	-0.169857	-0.711256	0.720109	0.530352	0.186055	0.478373	-0.674737
55551	-7.505274	-5.106270	5.296734	-0.435790	-0.532254	0.674691	0.531067	0.182955	0.478861	-0.674675
55552	-7.475761	-5.254449	5.140105	-0.586094	-0.382796	0.648033	0.531463	0.180723	0.478070	-0.675526
55553	-7.495589	-5.108833	5.037572	-0.464108	-0.229989	0.550352	0.531486	0.179486	0.475996	-0.677300
55554	-7.605744	-4.892809	4.847730	-0.283676	0.058435	0.444170	0.531397	0.178569	0.473237	-0.679542
55555	-7.651545	-4.639523	4.693187	-0.088134	0.286522	0.287166	0.531326	0.177575	0.470382	-0.681836
55556	-7.570205	-4.483573	4.627076	0.000491	0.367075	0.121352	0.531492	0.176051	0.467929	-0.683787
55557	-7.425957	-4.485044	4.441820	-0.098173	0.505510	-0.080025	0.531908	0.174096	0.465879	-0.685362
55558	-7.331941	-4.658783	4.220648	-0.336397	0.695873	-0.185756	0.532452	0.171944	0.464159	-0.686649
55559	-7.235230	-4.717932	4.090857	-0.449709	0.803401	-0.299822	0.533040	0.169918	0.462527	-0.687797
55560	-7.204972	-4.737641	4.011128	-0.492405	0.902968	-0.358165	0.533613	0.168098	0.460951	-0.688858
55561	-7.208485	-4.769111	4.070671	-0.498760	0.904655	-0.314809	0.534184	0.166391	0.459472	-0.689817
55562	-7.337292	-4.789455	4.206076	-0.427405	0.912391	-0.145705	0.534819	0.164622	0.458438	-0.690437
55563	-7.616548	-5.077791	4.301575	-0.542689	1.034617	0.233919	0.535575	0.162559	0.458161	-0.690523
55564	-7.530839	-5.469098	4.439288	-0.868053	0.898516	0.423080	0.536226	0.160579	0.458358	-0.690350
55565	-7.166528	-5.583855	4.796188	-0.990164	0.411440	0.404563	0.536453	0.159045	0.458541	-0.690408
55566	-6.723096	-6.013311	4.994933	-1.466935	0.008421	0.393060	0.536018	0.158300	0.458142	-0.691182
55567	-6.616687	-6.190723	5.043526	-1.646387	-0.062804	0.425872	0.534653	0.158695	0.456651	-0.693131
55568	-6.640441	-6.022951	5.115923	-1.478639	-0.061340	0.402676	0.532420	0.159938	0.454079	-0.696247
55569	-6.729719	-5.820422	5.077454	-1.295036	0.083263	0.349124	0.529527	0.161861	0.450463	-0.700346
55570	-6.923811	-5.612471	5.107830	-1.056810	0.247442	0.402503	0.526219	0.164190	0.445897	-0.705203
55571	-7.046606	-5.270821	5.420901	-0.667937	0.144991	0.500134	0.522858	0.166489	0.440594	-0.710477
55572	-7.059858	-4.891795	5.612770	-0.320037	0.073980	0.442340	0.519780	0.168069	0.435218	-0.715658
55573	-6.903294	-4.512752	5.588387	-0.076935	0.067978	0.149197	0.517195	0.168566	0.430384	-0.720323
55574	-6.680670	-4.254493	5.473895	0.032042	0.091972	-0.185356	0.515099	0.167802	0.426605	-0.724240
55575	-6.613269	-4.310366	5.421196	-0.040487	0.179415	-0.238263	0.513441	0.165834	0.424065	-0.727356
55576	-6.606054	-4.556243	5.464357	-0.219707	0.240898	-0.109509	0.512073	0.163145	0.422357	-0.729917
55577	-6.593948	-4.803651	5.402509	-0.413038	0.380499	-0.044044	0.510750	0.160291	0.420747	-0.732402
55578	-6.630576	-4.909973	5.276151	-0.473862	0.586460	-0.048411	0.509346	0.157692	0.418733	-0.735094
55579	-6.671486	-4.768943	5.288528	-0.293402	0.658986	-0.081339	0.507866	0.155351	0.416347	-0.737965
55580	-6.678327	-4.555201	5.178504	-0.090354	0.793928	-0.245671	0.506424	0.153041	0.414023	-0.740742
55581	-6.577297	-4.418390	5.016659	-0.012231	0.905738	-0.478401	0.505105	0.150668	0.411970	-0.743269
55582	-6.550597	-4.438598	4.884506	-0.031719	1.056124	-0.574014	0.503835	0.148263	0.410314	-0.745528
55583	-6.626426	-4.447220	4.835124	0.021973	1.199321	-0.559228	0.502515	0.145993	0.408831	-0.747678
55584	-6.798889	-4.345407	4.773227	0.214238	1.390066	-0.543779	0.501246	0.143757	0.407587	-0.749640
55585	-6.746062	-4.154182	4.585820	0.356996	1.512248	-0.791505	0.499964	0.141761	0.406464	-0.751483
55586	-6.686722	-3.968439	4.459055	0.501033	1.575954	-1.003086	0.498705	0.139948	0.405731	-0.753054
55587	-6.884244	-3.847022	4.390820	0.717604	1.759077	-0.988728	0.497642	0.138351	0.405442	-0.754207
55588	-7.001628	-3.618021	4.298919	0.981037	1.879384	-1.089213	0.496898	0.137112	0.405500	-0.754892
55589	-6.862962	-3.268470	4.090671	1.199354	1.891143	-1.475912	0.496682	0.136025	0.406164	-0.754874
55590	-6.582643	-3.069846	3.868223	1.210843	1.837748	-1.883324	0.497051	0.135235	0.407607	-0.753995
55591	-6.336183	-2.917157	3.785287	1.218144	1.695113	-2.155791	0.497938	0.134995	0.409891	-0.752212
55592	-6.258226	-2.830376	3.896562	1.276082	1.509469	-2.167261	0.499393	0.135787	0.412732	-0.749547
55593	-6.082994	-3.132406	4.157632	0.967647	1.196957	-1.955764	0.501379	0.138014	0.415367	-0.746352
55594	-6.059417	-3.087905	4.343547	0.990081	0.968625	-1.862914	0.503705	0.141898	0.417543	-0.742835
55595	-5.931251	-3.297384	4.496062	0.717043	0.725486	-1.736455	0.506128	0.147052	0.419499	-0.739074
55596	-6.192471	-3.609912	4.911418	0.562584	0.519179	-1.157483	0.508371	0.153405	0.421408	-0.735147
55597	-6.628416	-3.850851	5.649007	0.585641	0.134353	-0.309379	0.510257	0.160867	0.423159	-0.731229
55598	-7.236453	-4.488864	6.526140	0.319406	-0.232888	0.908646	0.511829	0.169398	0.423985	-0.727717
55599	-7.536475	-4.816543	7.095072	0.086586	-0.591548	1.588007	0.512995	0.179005	0.423183	-0.725058
55600	-7.596834	-4.914187	7.506423	-0.116780	-0.977674	1.901959	0.513772	0.189327	0.420436	-0.723483
55601	-7.359815	-4.568632	7.706423	-0.103259	-1.394616	1.696764	0.514202	0.199742	0.416551	-0.722623
55602	-7.241476	-4.102215	8.065982	0.093054	-1.868388	1.625116	0.514625	0.209018	0.412578	-0.721977
55603	-7.012125	-3.401323	8.522066	0.507733	-2.509744	1.448103	0.515491	0.215908	0.410055	-0.720769
55604	-6.862629	-3.092048	8.676556	0.630008	-2.811700	1.306473	0.517220	0.219537	0.410013	-0.718455
55605	-6.584173	-3.355056	8.534948	0.230708	-2.872214	1.102895	0.519836	0.219952	0.412315	-0.715113
55606	-6.343990	-3.906027	8.174162	-0.380394	-2.701550	0.905363	0.523017	0.218302	0.415813	-0.711265
55607	-6.412960	-4.447618	7.569983	-0.874526	-2.166127	0.805904	0.526274	0.215665	0.419629	-0.707415
55608	-6.245523	-4.779721	7.529507	-1.184129	-2.246086	0.774957	0.529261	0.212806	0.422778	-0.704170
55609	-6.291216	-4.845686	7.429604	-1.186001	-2.166581	0.777787	0.531701	0.210080	0.425012	-0.701801
55610	-6.035759	-4.702701	7.113891	-1.140209	-2.077153	0.362694	0.533426	0.207387	0.426530	-0.700371
55611	-5.872026	-4.424920	6.723273	-0.952133	-1.869032	-0.072927	0.534432	0.204406	0.427896	-0.699647
55612	-5.756611	-4.153335	6.504152	-0.719862	-1.765048	-0.375589	0.534733	0.201077	0.429387	-0.699468
55613	-5.677197	-4.146867	6.233646	-0.723467	-1.577956	-0.578421	0.534405	0.197642	0.430914	-0.699759
55614	-5.644698	-3.994857	5.954180	-0.578155	-1.364379	-0.808379	0.533544	0.194333	0.432452	-0.700394
55615	-5.578132	-3.988298	5.853972	-0.547029	-1.307819	-0.908697	0.532200	0.191200	0.433925	-0.701367
55616	-5.436865	-3.823236	5.575623	-0.434697	-1.160292	-1.226150	0.530366	0.188405	0.435420	-0.702585
55617	-5.582919	-3.828515	5.161417	-0.403310	-0.730289	-1.340944	0.527949	0.186136	0.436987	-0.704035
55618	-5.843244	-3.946413	5.032701	-0.375625	-0.465046	-1.170462	0.524898	0.184405	0.438687	-0.705713
55619	-6.176986	-3.843596	4.938681	-0.112505	-0.209483	-1.022801	0.521320	0.183552	0.440544	-0.707429
55620	-6.696266	-3.835169	4.968095	0.160037	0.043842	-0.636488	0.517395	0.183692	0.442455	-0.709079
55621	-7.086532	-3.753485	5.162912	0.474174	0.065285	-0.287257	0.513466	0.184836	0.444367	-0.710441
55622	-7.317707	-3.633244	5.216432	0.719126	0.091867	-0.146532	0.509823	0.186907	0.446261	-0.711335
55623	-7.707164	-3.928944	5.577210	0.699282	-0.025742	0.456306	0.506625	0.189620	0.447898	-0.711873
55624	-7.811208	-3.981007	5.743576	0.725544	-0.166587	0.641859	0.503448	0.193096	0.448919	-0.712549
55625	-7.670763	-3.888871	5.378002	0.672998	-0.006519	0.308259	0.500207	0.196839	0.449526	-0.713424
55626	-7.442486	-3.606905	4.834927	0.726925	0.242781	-0.263381	0.496823	0.200435	0.450321	-0.714285
55627	-7.328296	-3.494371	4.560691	0.737924	0.342386	-0.536247	0.493450	0.203173	0.452122	-0.714712
55628	-7.165518	-3.757326	4.479038	0.444656	0.288381	-0.579999	0.489968	0.204952	0.455048	-0.714742
55629	-7.110874	-3.988635	4.522076	0.270712	0.173219	-0.495030	0.486216	0.205486	0.459374	-0.714384
55630	-7.064674	-4.615985	4.684103	-0.204605	-0.003297	-0.163093	0.481895	0.205211	0.464257	-0.714234
55631	-6.999535	-5.093184	4.747022	-0.549838	-0.115387	0.043850	0.477131	0.204337	0.468920	-0.714637
55632	-6.648709	-5.278107	4.630963	-0.789080	-0.227438	-0.177643	0.471958	0.203213	0.472989	-0.715710
55633	-6.233962	-5.470795	4.036483	-1.143060	0.066387	-0.659918	0.466619	0.202155	0.476567	-0.717136
55634	-6.121969	-5.837745	3.857671	-1.452252	0.178861	-0.631305	0.461268	0.201951	0.479209	-0.718893
55635	-6.292941	-6.121138	4.089459	-1.506551	0.065442	-0.246142	0.456211	0.202695	0.481023	-0.720697
55636	-6.652052	-6.435308	4.292272	-1.517677	0.071238	0.275822	0.451655	0.204460	0.482022	-0.722398
55637	-7.282972	-6.882916	4.262842	-1.555624	0.422606	0.957151	0.447814	0.206911	0.482427	-0.723820
55638	-7.967759	-7.218498	4.014763	-1.516659	0.978275	1.521020	0.444584	0.210190	0.481945	-0.725186
55639	-8.599140	-7.191338	4.221565	-1.158523	1.054694	2.062814	0.442211	0.213503	0.481309	-0.726091
55640	-9.085486	-7.277703	4.334784	-0.991173	1.156799	2.515356	0.440721	0.216130	0.481151	-0.726324
55641	-9.327745	-7.752556	4.258563	-1.295578	1.375530	2.902408	0.439766	0.217814	0.481312	-0.726293
55642	-9.436213	-7.914883	4.306143	-1.379721	1.390618	3.086650	0.438741	0.218794	0.481106	-0.726755
55643	-9.156114	-8.046991	3.927222	-1.668734	1.639781	2.778498	0.437225	0.219279	0.480333	-0.728032
55644	-8.693865	-7.703078	3.573913	-1.631050	1.736157	2.104477	0.435039	0.219517	0.479097	-0.730081
55645	-8.206701	-7.431705	3.529223	-1.625363	1.568244	1.586176	0.432189	0.219433	0.477885	-0.732590
55646	-7.360832	-7.136991	3.425332	-1.787640	1.302427	0.768381	0.428549	0.219374	0.476469	-0.735662
55647	-6.676774	-6.916429	3.379194	-1.921973	1.072194	0.136743	0.423990	0.219630	0.474751	-0.739329
55648	-6.097647	-6.900739	3.242878	-2.182325	1.014342	-0.350886	0.418456	0.220496	0.472455	-0.743682
55649	-5.732681	-6.774540	3.034542	-2.243801	1.100316	-0.772754	0.412017	0.222264	0.469353	-0.748697
55650	-5.668419	-6.587494	3.055997	-2.081036	1.097784	-0.906026	0.405033	0.224753	0.465773	-0.753982
55651	-5.541572	-6.450094	3.062130	-2.000473	1.091534	-1.066524	0.397897	0.227362	0.462219	-0.759169
55652	-5.451238	-6.273724	3.283609	-1.868614	0.895208	-1.119933	0.390799	0.230040	0.458467	-0.764308
55653	-5.481762	-6.188291	3.527035	-1.750307	0.748530	-1.028600	0.383917	0.232644	0.454574	-0.769316
55654	-5.596760	-6.021108	3.625172	-1.521671	0.733670	-0.988569	0.377365	0.235049	0.450693	-0.774095
55655	-5.597012	-5.940984	3.319341	-1.421515	1.047066	-1.180052	0.371498	0.237067	0.447141	-0.778366
55656	-5.695943	-5.692577	2.913093	-1.120535	1.415758	-1.441603	0.366522	0.238976	0.443932	-0.781970
55657	-5.714510	-5.498146	2.700532	-0.923375	1.586952	-1.639137	0.362605	0.240766	0.441238	-0.784766
55658	-5.599972	-5.514381	2.797866	-1.002876	1.504932	-1.668644	0.359611	0.242803	0.438579	-0.787004
55659	-5.706495	-5.149129	2.983863	-0.672506	1.287048	-1.696521	0.357575	0.245284	0.435382	-0.788935
55660	-6.165268	-4.608178	3.134787	-0.006592	1.156006	-1.582495	0.356532	0.248389	0.431578	-0.790524
55661	-6.810515	-4.068737	3.274577	0.749979	1.096028	-1.333515	0.356862	0.251854	0.427450	-0.791521
55662	-7.175251	-3.803007	2.960314	1.138140	1.426151	-1.363986	0.358697	0.255830	0.423594	-0.791489
55663	-7.374047	-3.271959	2.843631	1.590292	1.415825	-1.528132	0.362099	0.260442	0.420526	-0.790071
55664	-7.448344	-2.803780	2.922473	1.874853	1.204209	-1.632646	0.366973	0.265877	0.418515	-0.787074
55665	-7.716639	-2.611616	3.300099	1.996060	0.891560	-1.299391	0.372871	0.272390	0.417865	-0.782406
55666	-8.301125	-2.529407	3.725540	2.167098	0.662652	-0.644975	0.379450	0.280426	0.418163	-0.776221
55667	-9.040739	-2.650780	4.031075	2.213390	0.633162	0.172544	0.386397	0.290271	0.418664	-0.768870
55668	-9.828666	-2.888971	4.300839	2.112177	0.658076	1.074991	0.393101	0.302414	0.418314	-0.760941
55669	-10.651873	-2.701627	4.514581	2.305354	0.568071	1.827356	0.399220	0.316789	0.416477	-0.752871
55670	-10.901432	-2.307358	4.288715	2.393681	0.584618	1.869327	0.404391	0.332926	0.413296	-0.744859
55671	-10.629516	-2.305454	3.983840	1.898506	0.626670	1.596005	0.408135	0.350352	0.408878	-0.737223
55672	-9.982494	-2.101819	3.898174	1.403519	0.294406	1.012794	0.410076	0.368827	0.403237	-0.730208
55673	-9.451464	-1.927150	3.991855	0.927285	-0.140093	0.583693	0.410221	0.387927	0.396682	-0.723792
55674	-9.009511	-1.650544	4.190048	0.576459	-0.663977	0.220517	0.408598	0.407300	0.389176	-0.718120
55675	-8.486124	-1.667022	4.199332	0.006776	-0.911239	-0.242671	0.405576	0.426557	0.380480	-0.713297
55676	-7.880929	-1.268813	4.126217	-0.152567	-1.234247	-0.913944	0.401506	0.445439	0.371189	-0.708940
55677	-7.670413	-1.812022	3.953827	-0.974223	-0.971709	-1.103548	0.396634	0.463871	0.361266	-0.704977
55678	-7.795005	-1.780610	4.138276	-1.308950	-1.150536	-0.980273	0.390686	0.482191	0.349940	-0.701711
55679	-7.881885	-1.459790	4.106983	-1.317605	-1.262068	-0.993121	0.384494	0.499511	0.338191	-0.698771
55680	-8.069211	-1.131639	4.125821	-1.312645	-1.404320	-0.884524	0.378671	0.515353	0.327269	-0.695640
55681	-8.541184	-0.846099	4.311030	-1.362845	-1.628477	-0.445917	0.373977	0.529126	0.318325	-0.691980
55682	-8.909698	-0.778468	4.266631	-1.493453	-1.583154	-0.145706	0.370714	0.540741	0.311432	-0.687881
55683	-9.357096	-0.854129	4.198180	-1.695926	-1.440893	0.234843	0.368809	0.550322	0.306685	-0.683425
55684	-9.411708	-1.558729	4.057595	-2.406806	-0.968998	0.224209	0.367785	0.558143	0.303307	-0.679128
55685	-9.212998	-1.974961	4.117080	-2.973874	-0.849666	-0.006460	0.366551	0.565003	0.300187	-0.675500
55686	-8.912947	-1.960684	4.154500	-3.146299	-0.954210	-0.339903	0.364875	0.570852	0.297372	-0.672729
55687	-8.518262	-2.088610	4.213379	-3.420711	-1.003374	-0.759131	0.362554	0.575621	0.295005	-0.670960
55688	-8.174542	-2.017474	4.159449	-3.428039	-1.057374	-1.133716	0.359389	0.579362	0.292901	-0.670365
55689	-8.067236	-1.992873	4.115963	-3.431959	-1.053572	-1.262567	0.355454	0.582087	0.291061	-0.670903
55690	-8.171199	-1.850082	4.123342	-3.325622	-1.128539	-1.160527	0.351542	0.583434	0.289994	-0.672254
55691	-8.398275	-1.979968	3.985513	-3.317315	-0.914523	-0.952971	0.347940	0.583399	0.289824	-0.674229
55692	-8.693034	-2.011590	3.865227	-3.202521	-0.769331	-0.663538	0.344814	0.582010	0.290777	-0.676621
55693	-9.115880	-2.059169	3.825835	-3.104899	-0.672615	-0.227133	0.342229	0.579327	0.292996	-0.679273
55694	-9.643836	-2.293278	3.618828	-3.013454	-0.331052	0.295065	0.339905	0.575514	0.296398	-0.682200
55695	-10.108455	-2.333656	3.545627	-2.814354	-0.231592	0.780791	0.337719	0.570669	0.300856	-0.685397
55696	-10.394907	-2.540827	3.147479	-2.547908	0.194321	1.044749	0.335453	0.565008	0.306071	-0.688882
55697	-10.522986	-2.561955	2.965486	-2.252039	0.314293	1.183528	0.332611	0.558796	0.311575	-0.692848
55698	-10.813461	-2.388723	3.182264	-1.973677	0.013375	1.539108	0.329449	0.551817	0.317699	-0.697157
55699	-11.231811	-2.389269	3.078431	-1.592648	0.076450	1.968233	0.326407	0.543731	0.324838	-0.701638
55700	-11.804144	-2.366753	3.003840	-1.134936	0.106129	2.542665	0.323336	0.534763	0.332999	-0.706112
55701	-12.523928	-2.285575	2.937387	-0.551248	0.092975	3.240193	0.320558	0.524816	0.342541	-0.710265
55702	-13.185740	-2.593887	2.861132	-0.240838	0.282749	3.921479	0.317529	0.514386	0.352738	-0.714254
55703	-13.466797	-2.893715	2.811146	0.000435	0.395786	4.239364	0.313825	0.503850	0.362823	-0.718337
55704	-13.325279	-3.045628	2.988243	0.142525	0.203602	4.176334	0.308873	0.493629	0.371621	-0.723067
55705	-12.732030	-2.966276	3.135568	0.339848	-0.100167	3.625935	0.302416	0.483734	0.378352	-0.728969
55706	-12.148170	-2.783861	3.237458	0.622208	-0.382512	3.042791	0.294276	0.474090	0.382692	-0.736333
55707	-12.027986	-2.461379	3.121125	1.278379	-0.492443	2.780264	0.285012	0.463983	0.385455	-0.744924
55708	-12.209337	-2.157068	2.654776	2.219476	-0.265429	2.667579	0.275070	0.452973	0.387485	-0.754326
55709	-12.525055	-1.896033	2.277456	3.169555	-0.082650	2.660817	0.264923	0.440959	0.389581	-0.763935
55710	-12.936309	-2.023538	1.980582	3.865893	0.247816	2.849812	0.254778	0.428168	0.391956	-0.773389
55711	-13.058120	-1.618721	2.112166	4.629560	-0.095409	2.682656	0.244609	0.415013	0.394072	-0.782712
55712	-12.722394	-1.281764	2.246875	5.083729	-0.425409	2.124894	0.235216	0.401123	0.396478	-0.791568
55713	-11.711464	-1.299063	1.964635	5.052772	-0.238468	1.008674	0.226679	0.386705	0.399218	-0.799813
55714	-10.597593	-1.265628	1.705737	4.904192	-0.099790	-0.182208	0.218858	0.372080	0.402314	-0.807342
55715	-9.755246	-1.329028	1.714961	4.666859	-0.105579	-0.976912	0.211581	0.357572	0.405354	-0.814288
55716	-9.146378	-1.143855	1.849261	4.628909	-0.341355	-1.637575	0.204896	0.343347	0.408071	-0.820737
55717	-8.617404	-0.956718	1.782584	4.672802	-0.404219	-2.306200	0.199048	0.329654	0.410083	-0.826765
55718	-8.302764	-0.899545	1.666196	4.755474	-0.326511	-2.756141	0.194393	0.316712	0.410932	-0.832490
55719	-8.265667	-0.990677	1.416869	4.959330	-0.020291	-2.978170	0.191185	0.304822	0.410397	-0.837918
55720	-8.123441	-0.911863	1.252313	5.115085	0.128329	-3.316048	0.189817	0.294083	0.409019	-0.842727
55721	-7.994730	-0.590001	1.193097	5.340425	0.062123	-3.716710	0.190661	0.284468	0.407800	-0.846419
55722	-7.806127	-0.349891	1.293503	5.387289	-0.078085	-4.007484	0.194064	0.275728	0.407847	-0.848512
55723	-7.672625	-0.559502	1.371348	5.209188	0.081863	-3.988694	0.200193	0.267755	0.409252	-0.848966
55724	-7.455840	-0.756800	1.290015	4.991730	0.359368	-4.087438	0.209105	0.260689	0.411727	-0.847819
55725	-7.252180	-1.005923	1.166297	4.727502	0.705782	-4.145476	0.220742	0.254820	0.414813	-0.845145
55726	-7.254830	-1.237353	1.059475	4.581370	1.062695	-4.053720	0.235071	0.250342	0.418230	-0.840925
55727	-7.454463	-1.485444	1.014265	4.507637	1.420119	-3.774014	0.251928	0.247233	0.421859	-0.835131
55728	-7.741759	-1.602383	1.064948	4.504521	1.657074	-3.441246	0.271206	0.245208	0.425991	-0.827558
55729	-8.218845	-1.663194	1.153593	4.614456	1.891282	-2.973864	0.292919	0.243792	0.431391	-0.817720
55730	-8.871599	-1.794775	1.194029	4.740756	2.259456	-2.345255	0.317153	0.242489	0.438774	-0.805041
55731	-9.710686	-2.188546	1.104562	4.722043	2.909428	-1.474219	0.343848	0.240926	0.448110	-0.789253
55732	-10.521280	-2.902152	0.882047	4.303489	3.759931	-0.473623	0.372519	0.239337	0.458232	-0.770695
55733	-11.133419	-3.274435	0.820924	3.858073	4.233191	0.312216	0.402628	0.237809	0.468410	-0.749620
55734	-11.487221	-3.693200	0.657151	3.097854	4.646185	0.902064	0.433768	0.235847	0.478748	-0.725963
55735	-11.586563	-4.028443	0.243015	2.153178	5.067747	1.149618	0.465203	0.233366	0.489252	-0.699827
55736	-11.588285	-3.936276	-0.132706	1.469597	5.266770	1.135023	0.496335	0.229699	0.500778	-0.670904
55737	-11.882872	-4.018973	-0.527186	0.705588	5.523061	1.437875	0.526751	0.224088	0.514049	-0.638805
55738	-11.803086	-4.214037	-0.682582	-0.260263	5.267846	1.574228	0.555861	0.216674	0.528490	-0.603961
55739	-11.561782	-4.622517	-0.576673	-1.319573	4.532337	1.721448	0.583084	0.207732	0.543376	-0.567101
55740	-11.221579	-5.246515	-0.205453	-2.345209	3.323271	1.887598	0.607804	0.198036	0.557652	-0.529509
55741	-10.847446	-5.907691	0.366159	-3.116085	1.811358	2.005357	0.629653	0.189262	0.569671	-0.493145
55742	-10.518110	-6.449701	0.842183	-3.642533	0.415255	1.996650	0.648485	0.183252	0.578146	-0.460036
55743	-10.112794	-6.738373	0.940274	-4.082973	-0.553028	1.656896	0.664208	0.181889	0.582444	-0.431860
55744	-9.643946	-6.452792	0.661566	-4.282386	-0.859521	0.956743	0.676747	0.185741	0.583230	-0.409094
55745	-9.577001	-6.086318	0.684188	-4.232334	-1.097376	0.679908	0.686446	0.193633	0.581663	-0.391109
55746	-9.317036	-5.951031	0.950643	-4.209439	-1.624311	0.324020	0.693517	0.205000	0.578146	-0.377832
55747	-9.237594	-4.888955	1.290413	-3.425613	-1.494339	0.032185	0.698494	0.217220	0.574229	-0.367672
55748	-9.268893	-3.953434	1.626944	-2.711284	-1.363103	-0.067298	0.702123	0.227684	0.571296	-0.358893
55749	-9.310397	-3.205544	2.018099	-2.050623	-1.358170	-0.067034	0.705292	0.234195	0.570298	-0.349966
55750	-9.234096	-2.949321	2.405305	-1.688319	-1.660074	-0.109904	0.708484	0.236025	0.571491	-0.340206
55751	-9.086935	-2.937867	2.826942	-1.406849	-2.122509	-0.184104	0.711967	0.233364	0.574470	-0.329589
55752	-9.021161	-3.209071	2.939081	-1.479085	-2.499856	-0.227304	0.715575	0.227273	0.578646	-0.318540
55753	-9.340011	-3.478354	2.952705	-1.612900	-2.714762	0.090870	0.718970	0.219280	0.583326	-0.307780
55754	-9.842485	-3.694409	2.977310	-1.694931	-2.855897	0.596782	0.721986	0.210570	0.587996	-0.297754
55755	-10.328527	-3.797767	3.068170	-1.637570	-2.951913	1.101445	0.724408	0.202337	0.592262	-0.288997
55756	-10.529067	-3.787490	3.272680	-1.387427	-3.070614	1.348050	0.726359	0.195107	0.595763	-0.281785
55757	-10.235775	-3.623175	3.548952	-0.935949	-3.178130	1.119668	0.728010	0.188957	0.598277	-0.276335
55758	-9.871615	-3.249296	3.674693	-0.481216	-3.012824	0.779809	0.729518	0.183392	0.599862	-0.272648
55759	-9.643831	-2.778172	3.766195	-0.031902	-2.693561	0.562722	0.731156	0.177400	0.600767	-0.270221
55760	-9.604420	-2.353033	3.773949	0.284466	-2.291075	0.516566	0.733159	0.170333	0.601094	-0.268608
55761	-9.431064	-1.768081	3.678036	0.621559	-1.690141	0.304357	0.735591	0.161675	0.601099	-0.267297
55762	-9.322196	-1.303224	3.257388	0.608868	-0.958967	0.082759	0.738483	0.151016	0.601017	-0.265735
55763	-8.966938	-0.668445	2.884678	0.750463	-0.150379	-0.400682	0.741625	0.138473	0.601147	-0.263517
55764	-8.662301	-0.022723	2.589162	0.934148	0.643665	-0.843292	0.744816	0.124045	0.601926	-0.259898
55765	-8.462054	0.720771	2.983093	1.705083	1.207510	-1.057347	0.747942	0.108277	0.603417	-0.254455
55766	-8.204039	0.673286	3.284288	1.982816	1.161960	-1.253430	0.751260	0.091209	0.605349	-0.246662
55767	-7.747041	0.046302	3.321641	1.796514	0.678667	-1.605294	0.754352	0.074082	0.607648	-0.237126
55768	-7.411504	-0.663192	3.485440	1.709775	0.062917	-1.775942	0.756878	0.058461	0.610152	-0.226787
55769	-7.396861	-1.395808	3.772944	1.723036	-0.576178	-1.591076	0.758694	0.046022	0.612605	-0.216753
55770	-7.614616	-1.660001	3.903856	1.769585	-0.722552	-1.308334	0.759763	0.037636	0.614873	-0.208023
55771	-7.838652	-1.434565	3.672752	1.653632	-0.358812	-1.202915	0.760208	0.033537	0.616924	-0.200908
55772	-8.176349	-0.890532	3.452532	1.619044	0.270814	-1.045086	0.760106	0.032828	0.619010	-0.194904
55773	-8.532727	-0.804350	3.345637	1.519088	0.408656	-0.747785	0.759598	0.034327	0.621264	-0.189377
55774	-8.757311	-0.666782	3.600946	1.795753	0.426018	-0.501685	0.758821	0.036732	0.623806	-0.183597
55775	-8.747937	-0.749687	3.797754	1.986415	0.187328	-0.456973	0.757984	0.039052	0.626565	-0.177064
55776	-8.690619	-0.755737	3.990710	2.211853	0.010706	-0.478325	0.757114	0.040761	0.629560	-0.169619
55777	-8.678850	-0.866159	4.078059	2.306210	-0.216942	-0.467281	0.756257	0.041544	0.632715	-0.161310
55778	-8.611866	-1.048534	4.005406	2.245039	-0.470694	-0.536681	0.755371	0.041485	0.635984	-0.152376
55779	-8.855309	-1.374426	4.101657	2.268917	-0.845434	-0.259394	0.754390	0.041156	0.639242	-0.143428
55780	-9.085879	-1.527422	4.171722	2.327808	-1.052539	-0.026882	0.753398	0.040672	0.642340	-0.134674
55781	-9.221353	-1.702277	4.169866	2.330203	-1.278726	0.099574	0.752322	0.040331	0.645285	-0.126460
55782	-9.333430	-1.864880	4.030614	2.208979	-1.466306	0.177606	0.751185	0.040262	0.648008	-0.119103
55783	-9.459120	-1.872741	3.983998	2.213587	-1.520156	0.269110	0.749955	0.040003	0.650671	-0.112227
55784	-9.512017	-1.857916	4.298197	2.583192	-1.626646	0.340402	0.748606	0.039381	0.653297	-0.106024
55785	-9.369435	-2.058839	4.572813	2.894302	-1.937443	0.227457	0.747272	0.038433	0.655733	-0.100609
55786	-9.398360	-2.330418	4.697031	3.024488	-2.254502	0.266566	0.745931	0.037538	0.657940	-0.096398
55787	-9.718372	-2.449167	4.780266	3.107014	-2.378475	0.578901	0.744743	0.036902	0.659751	-0.093410
55788	-10.173142	-2.563814	4.597401	2.905671	-2.433322	0.996470	0.743817	0.036456	0.661078	-0.091556
55789	-10.898712	-2.736894	4.428209	2.664104	-2.518966	1.695520	0.743241	0.036223	0.661838	-0.090830
55790	-11.559653	-2.684922	4.514149	2.700813	-2.423271	2.354699	0.743270	0.035798	0.661802	-0.091027
55791	-11.668633	-2.686906	4.353001	2.519227	-2.363791	2.450710	0.744063	0.034686	0.660878	-0.091690
55792	-11.507433	-2.681346	4.037006	2.191078	-2.272273	2.268022	0.745562	0.032987	0.659110	-0.092857
55793	-11.429806	-2.743729	3.659426	1.760708	-2.206832	2.170166	0.747719	0.030251	0.656601	-0.094210
55794	-11.340619	-2.824696	3.264806	1.296806	-2.133373	2.062202	0.750520	0.026029	0.653415	-0.095347
55795	-11.300482	-2.756715	3.283314	1.245722	-1.952809	2.049562	0.753897	0.020092	0.649631	-0.095994
55796	-11.542830	-2.773078	3.199073	1.028866	-1.776760	2.309287	0.757879	0.012295	0.645187	-0.095923
55797	-11.734743	-2.830697	2.904192	0.590412	-1.585327	2.487115	0.762425	0.002198	0.640064	-0.094982
55798	-11.454731	-2.978664	2.464304	0.064766	-1.507079	2.182125	0.767248	-0.010409	0.634453	-0.093232
55799	-10.828696	-3.193991	2.182729	-0.241848	-1.558957	1.577311	0.772119	-0.025356	0.628397	-0.091144
55800	-9.958322	-3.447760	1.875740	-0.505446	-1.691225	0.744393	0.776880	-0.041910	0.621815	-0.089704
55801	-9.072929	-3.465283	1.646751	-0.640440	-1.614202	-0.116503	0.781340	-0.059316	0.614773	-0.089691
55802	-8.492202	-3.391341	1.377015	-0.860776	-1.401443	-0.713049	0.785457	-0.077122	0.607262	-0.091333
55803	-8.069155	-3.476756	0.856787	-1.360794	-1.329285	-1.192466	0.789022	-0.094964	0.599578	-0.094506
55804	-7.890149	-3.584294	0.664705	-1.596140	-1.229032	-1.358159	0.791932	-0.112007	0.592002	-0.099157
55805	-7.790546	-3.744624	0.619777	-1.710037	-1.157624	-1.396719	0.794342	-0.127462	0.584577	-0.105090
55806	-7.890892	-3.864104	0.574559	-1.883809	-0.993431	-1.269491	0.796393	-0.140700	0.577433	-0.111950
55807	-8.068880	-3.872546	0.446807	-2.164549	-0.718981	-1.146902	0.798230	-0.151245	0.570700	-0.119397
55808	-8.187317	-3.791027	0.348548	-2.400866	-0.403306	-1.118163	0.799963	-0.158850	0.564545	-0.126945
55809	-8.148791	-3.661630	0.360642	-2.477793	-0.125479	-1.223022	0.801654	-0.163661	0.559066	-0.134204
55810	-8.232892	-3.508478	0.576339	-2.395889	0.207683	-1.173433	0.803323	-0.166074	0.554279	-0.140949
55811	-8.233339	-3.303077	0.674421	-2.384255	0.507886	-1.256453	0.804974	-0.166864	0.550114	-0.146791
55812	-8.199622	-3.207364	0.618462	-2.496617	0.649358	-1.371837	0.806433	-0.166574	0.546717	-0.151719
55813	-8.383315	-3.201182	0.515285	-2.719678	0.775925	-1.280751	0.807595	-0.165479	0.544209	-0.155704
55814	-8.717313	-3.256682	0.578056	-2.832541	0.909523	-0.976345	0.808489	-0.163367	0.542546	-0.159062
55815	-8.917776	-3.323884	0.720556	-2.814780	0.962381	-0.743791	0.809242	-0.159976	0.541540	-0.162080
55816	-9.139370	-3.307490	0.938835	-2.720712	1.083975	-0.497559	0.809947	-0.155068	0.541002	-0.165097
55817	-9.155703	-3.201746	1.238311	-2.465180	1.179354	-0.424220	0.810662	-0.148641	0.540746	-0.168302
55818	-9.082866	-3.135074	1.476420	-2.236327	1.175497	-0.425264	0.811317	-0.140868	0.540745	-0.171803
55819	-9.117312	-3.122838	1.662245	-2.100215	1.146253	-0.330321	0.811922	-0.131369	0.540914	-0.175888
55820	-9.104399	-3.022500	1.708175	-2.065459	1.151404	-0.360130	0.812444	-0.119642	0.541251	-0.180743
55821	-9.361926	-2.606122	1.946060	-1.881423	1.534859	-0.203940	0.812378	-0.106595	0.542380	-0.185750
55822	-9.984395	-2.515387	2.179687	-1.849645	1.742213	0.400442	0.811496	-0.092974	0.544676	-0.190152
55823	-10.515408	-2.291261	2.634933	-1.517489	1.972990	0.983967	0.809846	-0.078771	0.548148	-0.193592
55824	-10.308970	-2.116445	2.817947	-1.168387	1.834584	0.862494	0.807273	-0.064419	0.553007	-0.195817
