// General information: 
//  MT Manager version: 2021.0.0 
//  XDA version: 2021.0.0 build 5908 rev 109668 built on 2021-04-19
// Device information: 
//  DeviceId: 00B43DF5
//  ProductCode: MTW2-3A7G6
//  Firmware Version: 4.3.5
//  Hardware Version: 1.1.0
// Device settings: 
//  Filter Profile: human(46.1)
//  Option Flags: Orientation Smoother Disabled, Position/Velocity Smoother Disabled, Continuous Zero Rotation Update Disabled, AHS Disabled, ICC Disabled
// Coordinate system: ENU
PacketCounter	Acc_X	Acc_Y	Acc_Z	FreeAcc_E	FreeAcc_N	FreeAcc_U	Quat_q0	Quat_q1	Quat_q2	Quat_q3
54636	-0.528085	-8.533418	4.656365	-0.024470	-0.004414	-0.077226	-0.856304	0.513726	-0.045823	0.026996
54637	-0.530624	-8.486232	4.648458	-0.026930	0.014771	-0.122233	-0.856226	0.513849	-0.045897	0.027016
54638	-0.587166	-8.465016	4.659120	-0.080270	0.043240	-0.132793	-0.856104	0.514042	-0.046011	0.027002
54639	-0.610575	-8.541392	4.629182	-0.105587	-0.013693	-0.078923	-0.856027	0.514179	-0.045963	0.026915
54640	-0.551247	-8.546460	4.653907	-0.043883	0.002602	-0.065751	-0.855961	0.514306	-0.045858	0.026766
54641	-0.507028	-8.552303	4.600450	-0.006173	-0.048732	-0.088455	-0.855919	0.514395	-0.045730	0.026642
54642	-0.475061	-8.547835	4.560404	0.020756	-0.082495	-0.113140	-0.855863	0.514495	-0.045678	0.026593
54643	-0.565146	-8.543204	4.585021	-0.066514	-0.047831	-0.100765	-0.855792	0.514615	-0.045647	0.026599
54644	-0.461754	-8.608198	4.583025	0.035557	-0.087948	-0.050033	-0.855731	0.514723	-0.045596	0.026585
54645	-0.573122	-8.622800	4.523015	-0.081876	-0.135397	-0.060058	-0.855718	0.514732	-0.045669	0.026697
54646	-0.563812	-8.538374	4.595831	-0.065152	-0.030630	-0.099902	-0.855645	0.514863	-0.045584	0.026653
54647	-0.364083	-8.693887	4.671652	0.140406	-0.055498	0.062422	-0.855605	0.514947	-0.045428	0.026553
54648	-0.469979	-8.639874	4.582162	0.023934	-0.098668	-0.022171	-0.855702	0.514776	-0.045444	0.026722
54649	-0.569482	-8.459116	4.580548	-0.076807	-0.005857	-0.176483	-0.855703	0.514767	-0.045438	0.026885
54650	-0.515765	-8.434292	4.627203	-0.019715	0.042491	-0.178783	-0.855659	0.514834	-0.045439	0.026994
54651	-0.536623	-8.455110	4.607106	-0.043679	0.018030	-0.169035	-0.855645	0.514849	-0.045448	0.027123
54652	-0.525555	-8.472262	4.612824	-0.033300	0.015515	-0.151827	-0.855565	0.514978	-0.045432	0.027246
54653	-0.524449	-8.472833	4.578210	-0.037297	-0.011864	-0.167875	-0.855476	0.515119	-0.045426	0.027388
54654	-0.494353	-8.530149	4.582384	-0.008139	-0.035612	-0.117084	-0.855409	0.515223	-0.045439	0.027510
54655	-0.521950	-8.522143	4.548414	-0.040094	-0.056397	-0.138876	-0.855346	0.515317	-0.045467	0.027648
54656	-0.530824	-8.554978	4.612785	-0.043116	-0.013339	-0.078974	-0.855319	0.515364	-0.045408	0.027698
54657	-0.497165	-8.598721	4.612236	-0.010974	-0.036878	-0.042508	-0.855293	0.515407	-0.045381	0.027749
54658	-0.511855	-8.545965	4.573625	-0.030744	-0.042849	-0.106464	-0.855262	0.515452	-0.045378	0.027873
54659	-0.486542	-8.567262	4.579210	-0.006394	-0.048636	-0.086359	-0.855191	0.515567	-0.045344	0.027977
54660	-0.454217	-8.616974	4.531934	0.019177	-0.114799	-0.066743	-0.855158	0.515614	-0.045358	0.028115
54661	-0.451500	-8.555944	4.520077	0.019778	-0.095539	-0.126119	-0.855149	0.515616	-0.045404	0.028271
54662	-0.513079	-8.557864	4.514236	-0.042934	-0.095834	-0.124159	-0.855168	0.515576	-0.045424	0.028388
54663	-0.564647	-8.522286	4.555684	-0.089893	-0.038865	-0.133181	-0.855210	0.515495	-0.045497	0.028477
54664	-0.505951	-8.525411	4.583871	-0.028212	-0.022504	-0.119949	-0.855217	0.515478	-0.045536	0.028509
54665	-0.488434	-8.564600	4.583986	-0.010059	-0.042716	-0.086334	-0.855197	0.515504	-0.045614	0.028502
54666	-0.485080	-8.545422	4.591388	-0.004478	-0.027284	-0.099829	-0.855201	0.515489	-0.045702	0.028512
54667	-0.462569	-8.564995	4.566237	0.016496	-0.061423	-0.095713	-0.855221	0.515449	-0.045790	0.028506
54668	-0.470417	-8.582815	4.594599	0.013059	-0.046494	-0.066201	-0.855303	0.515308	-0.045855	0.028488
54669	-0.497153	-8.559644	4.592299	-0.012501	-0.038761	-0.086320	-0.855421	0.515098	-0.045976	0.028535
54670	-0.496063	-8.545033	4.622890	-0.006742	-0.009224	-0.084654	-0.855506	0.514946	-0.046084	0.028576
54671	-0.535735	-8.565755	4.593199	-0.047874	-0.044644	-0.078605	-0.855593	0.514787	-0.046229	0.028596
54672	-0.547178	-8.540132	4.604769	-0.056267	-0.025932	-0.095007	-0.855749	0.514527	-0.046277	0.028525
54673	-0.564154	-8.532982	4.643538	-0.067499	0.006731	-0.081917	-0.855918	0.514245	-0.046332	0.028442
54674	-0.587929	-8.496169	4.636367	-0.090042	0.014607	-0.116393	-0.856054	0.514016	-0.046417	0.028344
54675	-0.574749	-8.539346	4.694035	-0.068383	0.036944	-0.051607	-0.856221	0.513745	-0.046471	0.028166
54676	-0.592324	-8.477225	4.673850	-0.084895	0.045126	-0.114759	-0.856354	0.513521	-0.046599	0.027975
54677	-0.597388	-8.528250	4.638899	-0.090291	-0.014581	-0.086489	-0.856483	0.513311	-0.046679	0.027748
54678	-0.590684	-8.487221	4.624855	-0.081854	-0.013135	-0.129494	-0.856633	0.513060	-0.046787	0.027579
54679	-0.631350	-8.452728	4.636913	-0.118194	0.012123	-0.151732	-0.856784	0.512814	-0.046823	0.027385
54680	-0.656128	-8.470510	4.655292	-0.138813	0.016084	-0.125982	-0.856940	0.512570	-0.046792	0.027134
54681	-0.603321	-8.484068	4.726983	-0.076828	0.060743	-0.082416	-0.857107	0.512313	-0.046725	0.026841
54682	-0.604194	-8.474344	4.746114	-0.074259	0.076004	-0.081610	-0.857270	0.512059	-0.046654	0.026570
54683	-0.564505	-8.531549	4.791415	-0.027868	0.077559	-0.011828	-0.857437	0.511787	-0.046702	0.026351
54684	-0.633694	-8.540474	4.668672	-0.106972	-0.036524	-0.059485	-0.857765	0.511229	-0.046866	0.026220
54685	-0.564403	-8.541770	4.674728	-0.034681	-0.051790	-0.059249	-0.858123	0.510623	-0.046974	0.026134
54686	-0.602562	-8.640546	4.924681	-0.042642	0.104247	0.150338	-0.858591	0.509816	-0.047185	0.026133
54687	-0.476767	-8.584252	5.010845	0.099861	0.179385	0.136336	-0.858840	0.509306	-0.048074	0.026279
54688	-0.314705	-8.678912	4.935216	0.275819	0.048850	0.172319	-0.858563	0.509557	-0.050145	0.026596
54689	-0.619896	-8.692172	4.349827	-0.060850	-0.432011	-0.082905	-0.858437	0.509474	-0.052726	0.027238
54690	-0.823050	-8.745149	4.502334	-0.215433	-0.314096	0.050422	-0.858800	0.508661	-0.054391	0.027732
54691	-0.910314	-8.523836	4.816725	-0.248699	0.041750	0.016934	-0.860062	0.506389	-0.055391	0.028184
54692	-0.856412	-8.260454	5.025268	-0.161826	0.301070	-0.111920	-0.861076	0.504581	-0.056049	0.028355
54693	-0.733992	-8.209483	4.937051	-0.042282	0.205531	-0.207234	-0.861654	0.503479	-0.056959	0.028593
54694	-0.727975	-8.368120	5.036279	-0.009367	0.188573	-0.020660	-0.862088	0.502583	-0.058081	0.028992
54695	-0.742009	-8.123202	4.813819	-0.038431	0.108707	-0.341863	-0.862239	0.502131	-0.059465	0.029544
54696	-0.908365	-8.361953	4.821747	-0.185843	0.009642	-0.119288	-0.862160	0.502096	-0.060563	0.030192
54697	-0.796313	-8.323194	4.772589	-0.073591	-0.025798	-0.185580	-0.862138	0.501986	-0.061345	0.031070
54698	-0.869773	-8.368680	4.968167	-0.114681	0.126526	-0.043101	-0.862099	0.501880	-0.062189	0.032160
54699	-0.834937	-8.263127	4.832114	-0.097771	0.057492	-0.204730	-0.862153	0.501645	-0.062810	0.033148
54700	-0.845298	-8.292106	4.836200	-0.107596	0.043949	-0.176876	-0.862231	0.501392	-0.063272	0.034054
54701	-0.879789	-8.310409	4.811570	-0.148684	0.008518	-0.170803	-0.862612	0.500642	-0.063521	0.034965
54702	-0.812580	-8.334812	4.901156	-0.075805	0.049913	-0.109984	-0.862965	0.499987	-0.063505	0.035674
54703	-0.818105	-8.270077	4.853874	-0.095488	0.029475	-0.189094	-0.863331	0.499293	-0.063577	0.036383
54704	-0.915699	-8.374257	5.015723	-0.175593	0.113411	-0.010624	-0.863658	0.498689	-0.063498	0.037034
54705	-0.780834	-8.474933	4.875320	-0.071475	-0.089493	-0.005048	-0.864098	0.497881	-0.063483	0.037677
54706	-0.891425	-8.391455	5.150365	-0.148147	0.179710	0.070788	-0.864761	0.496685	-0.063406	0.038373
54707	-0.811301	-8.378702	4.962461	-0.106578	-0.002794	-0.041531	-0.865100	0.496069	-0.063242	0.038967
54708	-0.693748	-8.195647	4.983366	0.007456	0.086431	-0.196226	-0.865131	0.495934	-0.063434	0.039677
54709	-0.898619	-7.909736	5.002215	-0.193542	0.279289	-0.417043	-0.864958	0.496149	-0.063617	0.040448
54710	-0.903711	-8.113185	4.944560	-0.211160	0.140861	-0.272002	-0.864353	0.497134	-0.063797	0.041004
54711	-0.723591	-8.337941	5.021521	-0.024684	0.088332	-0.052971	-0.863800	0.498054	-0.063846	0.041423
54712	-0.484132	-8.579202	4.782542	0.173899	-0.244201	0.016852	-0.862958	0.499407	-0.064295	0.041991
54713	-0.705779	-8.555157	5.051195	0.001273	0.058395	0.147228	-0.862116	0.500709	-0.064923	0.042802
54714	-0.759804	-8.666740	4.776607	-0.095239	-0.187733	0.110075	-0.861044	0.502454	-0.065102	0.043650
54715	-0.787294	-8.647993	4.760643	-0.128337	-0.148263	0.088462	-0.860052	0.504009	-0.065389	0.044826
54716	-0.837310	-8.561142	4.761546	-0.184692	-0.055874	0.017325	-0.858933	0.505859	-0.065102	0.045854
54717	-0.847252	-8.754042	4.672996	-0.227247	-0.187528	0.142265	-0.858161	0.507161	-0.064443	0.046855
54718	-0.680134	-8.469469	4.655228	-0.079216	-0.054796	-0.124745	-0.857329	0.508547	-0.063818	0.047905
54719	-0.736115	-8.513508	4.526918	-0.171802	-0.137460	-0.144903	-0.856068	0.510606	-0.063462	0.049002
54720	-0.725610	-8.592084	4.402723	-0.197570	-0.236517	-0.135951	-0.854860	0.512590	-0.062949	0.050038
54721	-0.592357	-8.687034	4.488103	-0.071665	-0.179701	-0.018768	-0.853575	0.514759	-0.062071	0.050793
54722	-0.539607	-8.777512	4.428837	-0.048951	-0.231566	0.030800	-0.852310	0.516881	-0.061265	0.051454
54723	-0.613364	-8.566563	4.499360	-0.120546	-0.011499	-0.117760	-0.851111	0.518849	-0.060645	0.052227
54724	-0.563603	-8.598350	4.457166	-0.093136	-0.016997	-0.111846	-0.849514	0.521507	-0.059833	0.052697
54725	-0.551627	-8.810471	4.219594	-0.137893	-0.265802	-0.032926	-0.848060	0.523886	-0.059193	0.053232
54726	-0.622762	-8.638036	4.253964	-0.208051	-0.091978	-0.166562	-0.846661	0.526162	-0.058649	0.053652
54727	-0.548035	-8.769693	4.334338	-0.136435	-0.039837	-0.016060	-0.845317	0.528451	-0.057581	0.053508
54728	-0.276817	-8.706543	4.267609	0.109521	-0.058229	-0.113339	-0.843920	0.530853	-0.056243	0.053201
54729	-0.330701	-8.843258	4.180428	0.026674	-0.133705	-0.026485	-0.842556	0.533140	-0.055284	0.052954
54730	-0.416179	-8.773878	4.205463	-0.060520	-0.020799	-0.074319	-0.841462	0.535003	-0.054332	0.052556
54731	-0.451930	-8.924311	4.174816	-0.112064	-0.060074	0.049374	-0.840055	0.537294	-0.053663	0.052375
54732	-0.468859	-8.954083	4.090848	-0.150037	-0.095385	0.041179	-0.838851	0.539290	-0.052682	0.052154
54733	-0.309916	-8.916828	3.845949	-0.039920	-0.276644	-0.100896	-0.837729	0.541204	-0.051301	0.051729
54734	-0.222567	-8.934129	4.123213	0.071232	-0.006725	0.029255	-0.836754	0.542867	-0.050004	0.051356
54735	-0.184437	-8.745080	4.123917	0.101655	0.101662	-0.143335	-0.836005	0.544174	-0.048799	0.050880
54736	-0.348125	-8.671896	4.272670	-0.048681	0.316174	-0.144374	-0.835365	0.545272	-0.047867	0.050523
54737	-0.413503	-8.523014	4.194786	-0.130334	0.343864	-0.311442	-0.834573	0.546620	-0.046726	0.050109
54738	-0.344694	-8.705208	4.104477	-0.096870	0.210553	-0.185001	-0.833717	0.548124	-0.044990	0.049522
54739	-0.103248	-8.635729	4.015709	0.111716	0.155728	-0.290315	-0.833134	0.549222	-0.043063	0.048866
54740	0.006946	-8.601261	3.876566	0.183541	0.055240	-0.380154	-0.832483	0.550403	-0.041305	0.048187
54741	0.051099	-8.759906	3.780484	0.192126	-0.071481	-0.273898	-0.831665	0.551809	-0.039744	0.047553
54742	-0.059297	-8.809041	3.782348	0.064476	-0.044841	-0.226102	-0.830937	0.553071	-0.038141	0.046926
54743	-0.035193	-8.811351	3.820840	0.073500	0.013230	-0.208818	-0.830354	0.554145	-0.036175	0.046127
54744	0.051861	-8.683232	3.694584	0.128263	-0.034403	-0.376935	-0.829610	0.555461	-0.034035	0.045290
54745	0.053697	-8.980141	3.704365	0.095466	-0.115686	-0.099523	-0.829146	0.556373	-0.031690	0.044291
54746	0.176182	-8.832846	3.686226	0.197216	-0.069889	-0.242178	-0.828815	0.557037	-0.029691	0.043510
54747	0.227628	-8.955595	3.552942	0.208658	-0.224939	-0.180259	-0.828249	0.558045	-0.027709	0.042670
54748	0.191079	-9.014948	3.530509	0.147568	-0.243008	-0.133358	-0.827817	0.558839	-0.025816	0.041844
54749	0.142226	-9.081410	3.690926	0.091855	-0.100951	-0.009805	-0.827579	0.559319	-0.024163	0.041135
54750	0.274230	-9.069433	3.456207	0.186591	-0.311166	-0.109930	-0.827239	0.559970	-0.022419	0.040095
54751	0.184179	-9.141443	3.499484	0.083812	-0.276790	-0.026849	-0.826995	0.560450	-0.020949	0.039188
54752	0.298466	-9.116108	3.580004	0.192209	-0.195166	-0.018103	-0.826951	0.560637	-0.019412	0.038215
54753	0.232361	-9.180526	3.577537	0.114029	-0.210010	0.040114	-0.826805	0.560947	-0.018421	0.037319
54754	0.119814	-9.184820	3.708334	0.008365	-0.083322	0.092866	-0.827141	0.560511	-0.017948	0.036650
54755	0.258898	-8.812441	3.835681	0.171070	0.151824	-0.200910	-0.827580	0.559916	-0.017540	0.036015
54756	0.242340	-8.563581	3.887742	0.168999	0.283881	-0.410612	-0.827918	0.559453	-0.017368	0.035543
54757	0.060181	-8.341926	4.064191	0.010643	0.536913	-0.548746	-0.828142	0.559146	-0.017310	0.035186
54758	0.186817	-8.226689	4.021313	0.141814	0.529898	-0.670294	-0.828045	0.559325	-0.017255	0.034625
54759	0.110705	-8.769955	3.949042	0.041711	0.273739	-0.197981	-0.827439	0.560261	-0.016866	0.034168
54760	0.191582	-8.798858	3.839263	0.112154	0.169660	-0.212939	-0.827256	0.560567	-0.016450	0.033788
54761	0.097940	-8.666343	3.756497	0.018110	0.153956	-0.367989	-0.827293	0.560521	-0.016473	0.033624
54762	0.090424	-8.921818	3.921558	0.013434	0.215954	-0.069034	-0.826893	0.561143	-0.016240	0.033219
54763	-0.079519	-9.017638	3.788177	-0.166172	0.074400	-0.033053	-0.827015	0.560963	-0.016403	0.033131
54764	0.061791	-8.833134	3.684420	-0.022754	0.038982	-0.241847	-0.826852	0.561228	-0.016260	0.032793
54765	0.284730	-9.192636	3.632264	0.185979	-0.157037	0.072641	-0.826727	0.561414	-0.016435	0.032656
54766	-0.042660	-8.875260	3.811066	-0.110510	0.145804	-0.155422	-0.827225	0.560655	-0.017087	0.032749
54767	-0.016720	-8.666726	3.583806	-0.083894	0.004416	-0.434574	-0.827255	0.560636	-0.017254	0.032231
54768	-0.023473	-8.870796	3.720724	-0.079468	0.052400	-0.193629	-0.827279	0.560610	-0.017641	0.031843
54769	-0.094651	-8.807634	3.724171	-0.137490	0.083865	-0.250947	-0.827302	0.560581	-0.018106	0.031512
54770	0.055188	-9.091795	3.543620	0.000947	-0.195694	-0.056525	-0.826910	0.561180	-0.018333	0.030996
54771	-0.066134	-9.200250	3.654374	-0.104918	-0.118450	0.085715	-0.826864	0.561238	-0.018959	0.030809
54772	-0.156731	-8.955308	3.576377	-0.181710	-0.088093	-0.170499	-0.826732	0.561424	-0.019473	0.030617
54773	-0.145989	-8.934683	3.558506	-0.162159	-0.090318	-0.196120	-0.826419	0.561883	-0.019856	0.030429
54774	-0.155228	-9.083362	3.630010	-0.162610	-0.067429	-0.031198	-0.825993	0.562507	-0.020177	0.030245
54775	-0.125341	-9.204482	3.463773	-0.140467	-0.254094	0.018468	-0.825558	0.563138	-0.020496	0.030148
54776	-0.153990	-9.170537	3.662431	-0.148218	-0.043431	0.062129	-0.825274	0.563543	-0.020798	0.030141
54777	-0.036655	-9.084971	3.541285	-0.032655	-0.122024	-0.062673	-0.824960	0.564000	-0.020987	0.030076
54778	-0.120374	-9.328764	3.485304	-0.122068	-0.246620	0.142811	-0.824571	0.564540	-0.021428	0.030305
54779	-0.198133	-8.985269	3.540665	-0.182759	-0.052779	-0.154818	-0.824429	0.564719	-0.021765	0.030576
54780	-0.037066	-9.005820	3.544769	-0.020339	-0.058651	-0.134481	-0.823947	0.565412	-0.021897	0.030674
54781	-0.018522	-9.036566	3.476542	-0.005597	-0.121273	-0.131186	-0.823631	0.565853	-0.022149	0.030850
54782	-0.098556	-9.095451	3.653924	-0.072524	0.038640	-0.010578	-0.823281	0.566346	-0.022291	0.031059
54783	0.002213	-9.201537	3.477522	0.011717	-0.160833	0.022730	-0.822981	0.566750	-0.022493	0.031478
54784	-0.058635	-9.145340	3.461038	-0.049394	-0.143731	-0.035348	-0.822850	0.566897	-0.022835	0.032003
54785	-0.048001	-8.871907	3.470773	-0.031022	-0.029785	-0.286017	-0.822627	0.567191	-0.023032	0.032379
54786	0.009113	-9.154971	3.562538	0.024198	-0.040301	0.010908	-0.822093	0.567951	-0.023087	0.032597
54787	-0.062350	-9.223769	3.633494	-0.044606	0.016433	0.101031	-0.822021	0.568014	-0.023353	0.033109
54788	-0.107910	-9.152382	3.537572	-0.098135	-0.041160	-0.000407	-0.821978	0.568048	-0.023409	0.033559
54789	-0.045820	-9.090694	3.525913	-0.038145	-0.035531	-0.062192	-0.822050	0.567912	-0.023603	0.033960
54790	-0.172983	-8.954151	3.641913	-0.151632	0.129426	-0.146741	-0.822135	0.567752	-0.023945	0.034329
54791	-0.046404	-9.030674	3.558548	-0.034542	0.012522	-0.106136	-0.822085	0.567817	-0.023934	0.034448
54792	0.017746	-9.133765	3.536339	0.023658	-0.048616	-0.018365	-0.821974	0.567952	-0.024115	0.034736
54793	-0.004868	-8.988635	3.568579	0.007823	0.036629	-0.141651	-0.822027	0.567844	-0.024341	0.035108
54794	-0.094774	-9.002357	3.647551	-0.076460	0.114089	-0.099955	-0.821871	0.568046	-0.024464	0.035395
54795	-0.049991	-9.050374	3.545693	-0.043181	0.002184	-0.092510	-0.821785	0.568160	-0.024453	0.035568
54796	-0.035617	-9.033632	3.426925	-0.039318	-0.100133	-0.151423	-0.821684	0.568286	-0.024576	0.035793
54797	0.042667	-9.099237	3.515066	0.043981	-0.046881	-0.058228	-0.821635	0.568342	-0.024718	0.035943
54798	-0.009152	-9.247472	3.558044	-0.008027	-0.056807	0.095502	-0.821693	0.568224	-0.025012	0.036276
54799	-0.097913	-9.084535	3.425179	-0.101732	-0.116081	-0.104630	-0.821792	0.568047	-0.025290	0.036618
54800	0.033213	-9.155582	3.402557	0.024799	-0.175721	-0.046845	-0.821719	0.568125	-0.025493	0.036912
54801	0.084515	-9.212228	3.541574	0.086438	-0.073091	0.056569	-0.821807	0.567949	-0.025890	0.037371
54802	-0.046928	-9.100300	3.416942	-0.050774	-0.140230	-0.093073	-0.821939	0.567723	-0.026174	0.037702
54803	0.012552	-8.926015	3.494157	0.022065	-0.014022	-0.227159	-0.821966	0.567660	-0.026410	0.037893
54804	-0.023956	-9.126696	3.535896	-0.014561	-0.044508	-0.025067	-0.821872	0.567751	-0.026886	0.038237
54805	-0.148910	-9.129989	3.536569	-0.136245	-0.032109	-0.021539	-0.821862	0.567725	-0.027231	0.038589
54806	-0.023287	-9.108478	3.544937	-0.009483	-0.028231	-0.038712	-0.821823	0.567761	-0.027321	0.038822
54807	0.044999	-9.181075	3.435197	0.045501	-0.160771	-0.011318	-0.821713	0.567887	-0.027546	0.039152
54808	-0.095868	-9.185343	3.378650	-0.099556	-0.202379	-0.027795	-0.821866	0.567610	-0.027984	0.039651
54809	-0.079952	-8.942757	3.439561	-0.070021	-0.063544	-0.231407	-0.821933	0.567489	-0.028079	0.039920
54810	-0.052933	-8.982511	3.607866	-0.030108	0.074172	-0.132884	-0.821910	0.567508	-0.028137	0.040097
54811	-0.021833	-9.149804	3.521124	-0.014125	-0.069220	-0.008978	-0.821872	0.567560	-0.028112	0.040154
54812	-0.087681	-9.223591	3.496613	-0.084790	-0.115616	0.050783	-0.822096	0.567212	-0.028300	0.040342
54813	-0.021114	-9.028502	3.633192	0.000627	0.067680	-0.080791	-0.822305	0.566910	-0.028241	0.040370
54814	0.015258	-8.994010	3.576136	0.031099	0.019255	-0.133852	-0.822368	0.566818	-0.028183	0.040418
54815	-0.146843	-8.992112	3.693718	-0.119953	0.141395	-0.092152	-0.822516	0.566593	-0.028249	0.040512
54816	-0.096578	-8.953927	3.569659	-0.081766	0.032496	-0.173349	-0.822552	0.566554	-0.028051	0.040477
54817	-0.050877	-9.082856	3.595053	-0.040753	0.003540	-0.044187	-0.822563	0.566534	-0.028007	0.040555
54818	-0.038079	-8.917166	3.616935	-0.022248	0.081989	-0.190198	-0.822629	0.566442	-0.027861	0.040603
54819	0.008893	-8.967515	3.553367	0.014231	-0.001235	-0.166827	-0.822644	0.566417	-0.027801	0.040696
54820	-0.118744	-8.955025	3.677175	-0.102646	0.128762	-0.132756	-0.822743	0.566266	-0.027772	0.040809
54821	-0.103282	-8.949651	3.614477	-0.095512	0.069290	-0.160877	-0.822763	0.566243	-0.027596	0.040851
54822	-0.148673	-9.021399	3.649739	-0.142857	0.076955	-0.081192	-0.822941	0.565991	-0.027462	0.040842
54823	0.027545	-8.970502	3.552434	0.022740	-0.014747	-0.164386	-0.822946	0.566011	-0.027163	0.040663
54824	0.119839	-9.142181	3.493199	0.100782	-0.142148	-0.026681	-0.822985	0.565965	-0.027051	0.040593
54825	0.013475	-9.022756	3.532113	0.002773	-0.055491	-0.123362	-0.823172	0.565688	-0.027123	0.040611
54826	0.021121	-8.993266	3.572665	0.014726	-0.011661	-0.135763	-0.823213	0.565649	-0.026922	0.040464
54827	0.028948	-8.957103	3.545758	0.020455	-0.025129	-0.179314	-0.823260	0.565597	-0.026802	0.040306
54828	-0.049180	-9.048330	3.680382	-0.048658	0.074968	-0.044785	-0.823142	0.565791	-0.026633	0.040106
54829	0.041762	-9.090490	3.539971	0.026631	-0.075136	-0.057495	-0.823045	0.565962	-0.026366	0.039869
54830	0.011648	-9.146666	3.499767	-0.009865	-0.127956	-0.020163	-0.823039	0.565973	-0.026337	0.039847
54831	-0.133067	-8.949554	3.592811	-0.138630	0.042678	-0.169064	-0.823168	0.565794	-0.026255	0.039763
54832	0.034742	-9.062898	3.565722	0.020306	-0.040399	-0.073608	-0.823064	0.565980	-0.025920	0.039508
54833	0.002075	-9.132215	3.531282	-0.019338	-0.093147	-0.021965	-0.823108	0.565923	-0.025844	0.039455
54834	-0.055265	-8.940977	3.534781	-0.070502	-0.013367	-0.198446	-0.823040	0.566043	-0.025597	0.039309
54835	0.070707	-9.045858	3.503816	0.046545	-0.086857	-0.112194	-0.822801	0.566423	-0.025297	0.039036
54836	0.146582	-9.310049	3.614506	0.121113	-0.084700	0.174370	-0.822839	0.566376	-0.025206	0.038957
54837	0.058590	-9.094820	3.493543	0.029669	-0.113253	-0.070495	-0.823038	0.566092	-0.025116	0.038952
54838	-0.080753	-8.812891	3.559297	-0.094103	0.060007	-0.308493	-0.823108	0.566006	-0.024990	0.038813
54839	0.021665	-8.894127	3.620045	0.010590	0.078777	-0.210376	-0.822931	0.566285	-0.024890	0.038556
54840	-0.082409	-9.073495	3.676337	-0.093131	0.079215	-0.023121	-0.822857	0.566404	-0.024872	0.038393
54841	0.049003	-9.031196	3.657243	0.036845	0.068695	-0.069266	-0.822729	0.566627	-0.024471	0.038105
54842	0.051549	-8.937990	3.480725	0.025767	-0.056574	-0.220925	-0.822639	0.566768	-0.024361	0.038030
54843	-0.107195	-8.934042	3.605086	-0.122312	0.079864	-0.179209	-0.822437	0.567080	-0.024182	0.037859
54844	0.054109	-9.125896	3.536323	0.025410	-0.063117	-0.025663	-0.822326	0.567259	-0.024043	0.037654
54845	0.054908	-9.059861	3.542664	0.029734	-0.030657	-0.084752	-0.822304	0.567305	-0.023990	0.037490
54846	0.012147	-9.040837	3.525150	-0.012696	-0.034507	-0.108966	-0.822250	0.567404	-0.023874	0.037253
54847	0.023749	-9.037697	3.456789	-0.005482	-0.094054	-0.136891	-0.822103	0.567637	-0.023789	0.037008
54848	0.083227	-9.162767	3.503549	0.055495	-0.097144	-0.003224	-0.822002	0.567802	-0.023755	0.036724
54849	0.084868	-9.145540	3.509931	0.061177	-0.081927	-0.016909	-0.821920	0.567918	-0.023898	0.036669
54850	0.017817	-9.043189	3.529194	0.002009	-0.019407	-0.105246	-0.821916	0.567933	-0.023916	0.036513
54851	-0.012066	-9.011893	3.425469	-0.032548	-0.098225	-0.172278	-0.821725	0.568214	-0.024022	0.036383
54852	-0.158245	-9.068620	3.568653	-0.165437	0.032237	-0.067340	-0.821607	0.568394	-0.024038	0.036227
54853	0.052996	-9.119571	3.523356	0.040270	-0.043054	-0.036188	-0.821508	0.568565	-0.023792	0.035952
54854	0.032513	-9.068620	3.476235	0.018193	-0.064678	-0.100807	-0.821517	0.568558	-0.023823	0.035843
54855	-0.060460	-8.950410	3.478043	-0.068826	-0.010279	-0.210322	-0.821409	0.568720	-0.023836	0.035745
54856	-0.012023	-9.054262	3.489016	-0.021759	-0.038876	-0.109540	-0.821340	0.568832	-0.023784	0.035576
54857	-0.024394	-9.107254	3.554839	-0.028860	0.005506	-0.036252	-0.821333	0.568850	-0.023809	0.035433
54858	-0.036494	-9.080608	3.534229	-0.040201	-0.004824	-0.068565	-0.821455	0.568684	-0.023781	0.035281
54859	0.003575	-9.086450	3.502381	-0.001994	-0.042037	-0.074696	-0.821458	0.568687	-0.023764	0.035164
54860	-0.015315	-8.926506	3.576155	-0.008127	0.085237	-0.196852	-0.821500	0.568625	-0.023880	0.035119
54861	-0.011949	-8.961982	3.570899	-0.004226	0.068956	-0.165729	-0.821356	0.568847	-0.023848	0.034915
54862	-0.034306	-9.085323	3.486384	-0.034825	-0.047012	-0.081515	-0.821199	0.569079	-0.023913	0.034780
54863	-0.048903	-9.143954	3.536018	-0.045073	-0.016884	-0.008841	-0.821125	0.569195	-0.023896	0.034638
54864	-0.002988	-9.104038	3.373875	-0.009587	-0.154840	-0.104830	-0.821077	0.569269	-0.023926	0.034534
54865	-0.056037	-9.082799	3.484092	-0.050578	-0.040860	-0.084633	-0.821155	0.569154	-0.024080	0.034478
54866	-0.070795	-9.061174	3.448897	-0.065005	-0.065528	-0.117521	-0.821136	0.569189	-0.024101	0.034335
54867	-0.019955	-9.092673	3.484690	-0.009907	-0.048362	-0.075248	-0.821174	0.569142	-0.024168	0.034153
54868	-0.059466	-9.057754	3.512141	-0.042982	-0.009384	-0.097769	-0.821281	0.568992	-0.024276	0.034018
54869	-0.088059	-9.081475	3.432862	-0.076208	-0.091046	-0.104372	-0.821289	0.568995	-0.024218	0.033794
54870	0.037536	-9.187201	3.532193	0.056036	-0.049350	0.029918	-0.821373	0.568874	-0.024349	0.033721
54871	0.027043	-9.097440	3.553149	0.052755	0.000307	-0.046100	-0.821470	0.568739	-0.024437	0.033563
54872	-0.078844	-9.054449	3.432249	-0.057690	-0.091473	-0.129821	-0.821609	0.568537	-0.024612	0.033430
54873	-0.152147	-8.872902	3.571162	-0.110339	0.105592	-0.248096	-0.821694	0.568419	-0.024768	0.033250
54874	-0.143234	-9.000272	3.582141	-0.100772	0.069449	-0.125471	-0.821568	0.568613	-0.024758	0.033040
54875	-0.059500	-9.126110	3.516851	-0.024306	-0.040034	-0.032326	-0.821475	0.568758	-0.024719	0.032906
54876	0.047033	-9.091975	3.379617	0.073326	-0.162129	-0.114421	-0.821458	0.568780	-0.024811	0.032854
54877	0.032124	-9.120475	3.297039	0.054079	-0.246957	-0.117810	-0.821409	0.568840	-0.025059	0.032858
54878	-0.104691	-9.239370	3.407038	-0.073163	-0.179448	0.033493	-0.821614	0.568523	-0.025366	0.033009
54879	0.014092	-9.463164	3.360689	0.036854	-0.315028	0.224509	-0.821458	0.568721	-0.025558	0.033303
54880	0.195449	-9.804527	3.296861	0.202124	-0.511629	0.518509	-0.821470	0.568667	-0.025793	0.033766
54881	0.154159	-9.396334	3.458995	0.184871	-0.224284	0.197055	-0.822209	0.567499	-0.026634	0.034755
54882	-0.116648	-8.861796	3.635320	-0.053713	0.130385	-0.234554	-0.822989	0.566253	-0.027563	0.035880
54883	-0.360802	-8.398532	3.762936	-0.272399	0.418674	-0.616183	-0.823511	0.565429	-0.027938	0.036596
54884	-0.271648	-8.428711	3.488542	-0.212018	0.139261	-0.690049	-0.823365	0.565646	-0.027718	0.036690
54885	-0.138044	-8.865384	3.525768	-0.091017	0.007480	-0.271368	-0.823070	0.566072	-0.027713	0.036748
54886	-0.130563	-9.155158	3.698504	-0.076634	0.067247	0.061648	-0.822930	0.566264	-0.027817	0.036844
54887	-0.066218	-9.227210	3.510643	-0.030665	-0.136743	0.059028	-0.822916	0.566259	-0.028035	0.037074
54888	-0.265999	-8.885206	3.562105	-0.214117	0.050473	-0.238878	-0.823208	0.565811	-0.028214	0.037297
54889	-0.297117	-8.795832	3.774604	-0.223981	0.278635	-0.243216	-0.823169	0.565891	-0.027981	0.037105
54890	0.016119	-8.969638	3.606107	0.066695	0.032693	-0.145570	-0.823021	0.566139	-0.027754	0.036771
54891	0.066909	-8.998065	3.608219	0.118706	0.021242	-0.118650	-0.823068	0.566062	-0.027987	0.036741
54892	-0.121333	-8.999556	3.570655	-0.068152	0.003066	-0.130144	-0.823037	0.566095	-0.028236	0.036747
54893	-0.153830	-8.950480	3.679936	-0.085810	0.127948	-0.135242	-0.822902	0.566303	-0.028256	0.036529
54894	-0.008161	-9.169126	3.500049	0.040005	-0.128644	0.000830	-0.822811	0.566448	-0.028313	0.036293
54895	-0.027039	-9.158761	3.433736	0.019442	-0.182006	-0.033082	-0.822756	0.566523	-0.028509	0.036222
54896	-0.085408	-9.080582	3.476672	-0.028908	-0.108508	-0.089575	-0.822821	0.566424	-0.028683	0.036160
54897	-0.121042	-8.968016	3.455559	-0.059768	-0.081695	-0.201724	-0.822652	0.566684	-0.028707	0.035915
54898	-0.122821	-9.160216	3.627400	-0.048117	0.012474	0.040241	-0.822511	0.566912	-0.028663	0.035580
54899	-0.049346	-9.251147	3.439534	0.008654	-0.194498	0.055374	-0.822257	0.567306	-0.028545	0.035236
54900	-0.111702	-9.146703	3.547641	-0.038158	-0.046356	-0.001632	-0.822284	0.567275	-0.028617	0.035042
54901	-0.074214	-9.096958	3.494097	-0.001021	-0.081036	-0.067827	-0.822252	0.567346	-0.028569	0.034691
54902	-0.096347	-9.155467	3.456201	-0.023636	-0.136783	-0.027090	-0.822358	0.567191	-0.028802	0.034537
54903	-0.272503	-9.036578	3.317829	-0.204703	-0.210710	-0.186905	-0.822562	0.566915	-0.028731	0.034246
54904	-0.048116	-9.059618	3.490210	0.034728	-0.084790	-0.104332	-0.822664	0.566809	-0.028467	0.033778
54905	-0.092029	-8.857604	3.820512	0.026703	0.295205	-0.170381	-0.822795	0.566598	-0.028747	0.033887
54906	-0.357077	-8.763436	3.808371	-0.235667	0.341146	-0.259830	-0.822736	0.566698	-0.028546	0.033822
54907	-0.172462	-8.960561	3.583817	-0.078521	0.049380	-0.160924	-0.822516	0.567046	-0.028236	0.033598
54908	-0.159180	-9.021137	3.518595	-0.073139	-0.027116	-0.128645	-0.822324	0.567332	-0.028205	0.033517
54909	-0.187008	-9.190880	3.562061	-0.101488	-0.041541	0.045482	-0.822234	0.567458	-0.028171	0.033593
54910	-0.265740	-8.932207	3.637829	-0.168844	0.131665	-0.166812	-0.822240	0.567444	-0.028116	0.033722
54911	-0.271462	-8.955166	3.615547	-0.178849	0.104205	-0.153597	-0.822177	0.567540	-0.028032	0.033731
54912	-0.248477	-8.970286	3.506897	-0.166758	-0.001584	-0.179500	-0.822102	0.567658	-0.027927	0.033660
54913	-0.264028	-9.090807	3.518246	-0.185359	-0.030957	-0.063061	-0.822030	0.567779	-0.027746	0.033542
54914	-0.080030	-9.247185	3.440347	-0.014451	-0.176210	0.052481	-0.822102	0.567692	-0.027520	0.033410
54915	-0.144369	-9.257878	3.411994	-0.083344	-0.205430	0.052488	-0.822316	0.567387	-0.027416	0.033418
54916	-0.123759	-9.026271	3.523926	-0.050045	-0.025466	-0.122291	-0.822500	0.567140	-0.027160	0.033287
54917	-0.059433	-9.184261	3.531885	0.008735	-0.087702	0.027060	-0.822691	0.566875	-0.027030	0.033183
54918	-0.155674	-9.085384	3.516456	-0.087354	-0.062587	-0.069878	-0.822816	0.566702	-0.026908	0.033135
54919	-0.149538	-8.962191	3.587474	-0.074876	0.043731	-0.158378	-0.822950	0.566527	-0.026617	0.033036
54920	0.004101	-9.009189	3.522709	0.068852	-0.047081	-0.139631	-0.822855	0.566681	-0.026423	0.032932
54921	-0.150357	-9.124423	3.458668	-0.093884	-0.134084	-0.054957	-0.822878	0.566636	-0.026532	0.033039
54922	-0.202064	-9.053307	3.566359	-0.136307	-0.003172	-0.081114	-0.822828	0.566732	-0.026192	0.032895
54923	0.002924	-9.024553	3.479555	0.057773	-0.087036	-0.141133	-0.822700	0.566946	-0.025820	0.032717
54924	-0.126076	-9.172894	3.470471	-0.077486	-0.136769	-0.005683	-0.822726	0.566911	-0.025765	0.032700
54925	-0.153271	-9.002943	3.558100	-0.094215	0.007115	-0.131384	-0.822825	0.566791	-0.025532	0.032485
54926	-0.023292	-9.030429	3.570353	0.033810	-0.005679	-0.102104	-0.822936	0.566664	-0.025188	0.032161
54927	0.049414	-9.143612	3.492050	0.096314	-0.125939	-0.026096	-0.822859	0.566796	-0.025028	0.031910
54928	-0.080834	-9.029509	3.660256	-0.017450	0.080938	-0.069527	-0.823050	0.566533	-0.024897	0.031762
54929	-0.090992	-8.998243	3.609777	-0.031563	0.041528	-0.117100	-0.823165	0.566386	-0.024713	0.031553
54930	-0.129301	-8.911008	3.601967	-0.068708	0.068340	-0.200843	-0.823137	0.566445	-0.024550	0.031340
54931	-0.022139	-9.062433	3.531730	0.029156	-0.060858	-0.086602	-0.823163	0.566428	-0.024422	0.031083
54932	-0.101617	-9.118989	3.502753	-0.052538	-0.103840	-0.044267	-0.823251	0.566312	-0.024381	0.030882
54933	-0.124144	-8.918420	3.547772	-0.065685	0.010696	-0.213943	-0.823337	0.566202	-0.024286	0.030688
54934	-0.055973	-9.051851	3.540621	-0.000567	-0.051666	-0.092993	-0.823328	0.566232	-0.024199	0.030446
54935	-0.055212	-8.984409	3.549645	0.004002	-0.019764	-0.152344	-0.823421	0.566112	-0.024144	0.030198
54936	-0.098374	-9.020574	3.555219	-0.037312	-0.026248	-0.116403	-0.823436	0.566102	-0.024155	0.029983
54937	-0.083154	-9.120414	3.559775	-0.021689	-0.062000	-0.022052	-0.823536	0.565964	-0.024185	0.029812
54938	-0.159925	-8.994223	3.545555	-0.094154	-0.026345	-0.144026	-0.823659	0.565795	-0.024197	0.029606
54939	-0.061935	-9.068925	3.543825	0.004018	-0.063956	-0.075962	-0.823587	0.565920	-0.024116	0.029297
54940	0.033477	-9.163366	3.613772	0.104798	-0.043657	0.036924	-0.823793	0.565630	-0.024147	0.029077
54941	-0.135887	-8.931941	3.642700	-0.053950	0.073229	-0.165977	-0.824088	0.565207	-0.024233	0.028865
54942	-0.060054	-8.840632	3.557106	0.021219	0.016902	-0.283121	-0.824098	0.565213	-0.024250	0.028449
54943	-0.211911	-8.826680	3.620966	-0.119382	0.092558	-0.271002	-0.824098	0.565215	-0.024505	0.028184
54944	-0.090843	-9.034886	3.626519	0.002431	0.015652	-0.076733	-0.823844	0.565617	-0.024315	0.027694
54945	-0.112252	-9.167444	3.689141	-0.013661	0.030026	0.069787	-0.823882	0.565565	-0.024425	0.027516
54946	-0.242037	-8.994640	3.552816	-0.147170	-0.023312	-0.139920	-0.823890	0.565562	-0.024415	0.027352
54947	-0.165026	-9.038924	3.574414	-0.067508	-0.026217	-0.091547	-0.823925	0.565514	-0.024488	0.027222
54948	-0.137611	-9.097895	3.608891	-0.036184	-0.019346	-0.024274	-0.823959	0.565480	-0.024446	0.026934
54949	-0.134377	-8.960388	3.591888	-0.029278	0.014450	-0.158300	-0.823998	0.565435	-0.024441	0.026690
54950	-0.113154	-8.977844	3.563616	-0.008161	-0.019425	-0.152802	-0.823945	0.565526	-0.024398	0.026444
54951	-0.082683	-9.131426	3.566178	0.022455	-0.074867	-0.009560	-0.823925	0.565562	-0.024464	0.026260
54952	-0.193381	-9.042879	3.677892	-0.075823	0.068327	-0.049106	-0.824008	0.565441	-0.024543	0.026179
54953	-0.143091	-9.052058	3.566847	-0.032386	-0.043973	-0.082341	-0.824068	0.565368	-0.024447	0.025961
54954	-0.167892	-8.972116	3.589847	-0.052603	0.008321	-0.147740	-0.824037	0.565419	-0.024484	0.025799
54955	-0.212256	-8.964249	3.622957	-0.092148	0.047455	-0.142223	-0.823932	0.565584	-0.024446	0.025573
54956	-0.180747	-8.952633	3.592225	-0.061444	0.027465	-0.164793	-0.823669	0.565987	-0.024263	0.025276
54957	-0.168099	-9.065993	3.560677	-0.052056	-0.036702	-0.071288	-0.823484	0.566271	-0.024141	0.025054
54958	-0.198046	-9.030074	3.672637	-0.073173	0.088315	-0.062992	-0.823337	0.566502	-0.023982	0.024835
54959	-0.146301	-9.038070	3.523022	-0.032605	-0.052882	-0.111351	-0.823262	0.566631	-0.023745	0.024594
54960	-0.053010	-9.070021	3.421716	0.052516	-0.159969	-0.120016	-0.823056	0.566948	-0.023563	0.024359
54961	-0.143971	-9.080497	3.499667	-0.032571	-0.082202	-0.080473	-0.823092	0.566898	-0.023579	0.024292
54962	-0.187161	-9.107010	3.404725	-0.082550	-0.175245	-0.090173	-0.822957	0.567105	-0.023430	0.024192
54963	-0.055698	-9.189666	3.445972	0.049362	-0.175609	0.000289	-0.823060	0.566967	-0.023293	0.024049
54964	-0.137532	-8.756266	3.668154	-0.010575	0.193085	-0.320107	-0.823088	0.566919	-0.023437	0.024085
54965	-0.335020	-8.938405	3.774522	-0.203119	0.243450	-0.109399	-0.822757	0.567406	-0.023271	0.024085
54966	-0.183952	-9.135626	3.579292	-0.070840	-0.012392	0.000551	-0.822634	0.567583	-0.023174	0.024192
54967	-0.196475	-9.073170	3.522450	-0.089156	-0.035091	-0.078239	-0.822396	0.567933	-0.023005	0.024251
54968	-0.134222	-9.074092	3.476894	-0.033549	-0.075591	-0.094709	-0.822274	0.568117	-0.022786	0.024292
54969	-0.095199	-9.003486	3.473870	0.002277	-0.050346	-0.161933	-0.822119	0.568349	-0.022541	0.024326
54970	-0.151378	-8.926526	3.671915	-0.042350	0.169856	-0.160843	-0.822022	0.568484	-0.022515	0.024470
54971	-0.141064	-8.783358	3.629989	-0.035070	0.188792	-0.309676	-0.821739	0.568900	-0.022320	0.024489
54972	-0.083205	-8.868257	3.656832	0.020744	0.189910	-0.221608	-0.821379	0.569417	-0.022263	0.024607
54973	-0.254386	-9.052356	3.609834	-0.158528	0.104353	-0.065650	-0.820967	0.570007	-0.022163	0.024786
54974	-0.148205	-9.285168	3.286959	-0.081731	-0.274051	0.034069	-0.820627	0.570511	-0.021818	0.024744
54975	0.126087	-9.417765	3.332046	0.189364	-0.290536	0.171923	-0.820531	0.570648	-0.021752	0.024841
54976	0.044582	-9.142675	3.486545	0.120631	-0.043940	-0.028516	-0.820713	0.570372	-0.021808	0.025110
54977	-0.077811	-9.023497	3.420960	-0.005658	-0.056893	-0.162338	-0.820705	0.570374	-0.021844	0.025289
54978	-0.127038	-8.931361	3.459680	-0.050595	0.015731	-0.233965	-0.820701	0.570370	-0.021995	0.025380
54979	-0.122417	-8.936205	3.617997	-0.033707	0.160945	-0.172480	-0.820696	0.570366	-0.022197	0.025481
54980	-0.066531	-8.852883	3.704526	0.031181	0.269230	-0.219564	-0.820584	0.570508	-0.022423	0.025688
54981	-0.233609	-8.889134	3.626759	-0.140145	0.201587	-0.212460	-0.820319	0.570875	-0.022578	0.025861
54982	-0.088579	-9.098772	3.432678	-0.011155	-0.053745	-0.087681	-0.819946	0.571408	-0.022647	0.025852
54983	-0.131371	-9.248507	3.435992	-0.053768	-0.093049	0.053752	-0.819835	0.571559	-0.022844	0.025856
54984	-0.036951	-9.259656	3.347274	0.037792	-0.186015	0.031641	-0.819921	0.571442	-0.022946	0.025629
54985	0.067917	-9.068136	3.333248	0.151198	-0.143870	-0.153356	-0.820163	0.571085	-0.023406	0.025443
54986	-0.167803	-9.080103	3.485991	-0.063387	0.005682	-0.085175	-0.820187	0.571042	-0.023905	0.025151
54987	0.009561	-9.243980	3.314734	0.109460	-0.227897	0.004379	-0.820313	0.570869	-0.024194	0.024709
54988	0.001021	-9.190539	3.413746	0.119622	-0.123868	-0.010137	-0.820622	0.570409	-0.024802	0.024435
54989	-0.043561	-9.025580	3.400710	0.088340	-0.081613	-0.168345	-0.820757	0.570220	-0.025186	0.023924
54990	0.017541	-9.079600	3.396558	0.161789	-0.112834	-0.120571	-0.820806	0.570138	-0.025849	0.023491
54991	-0.181254	-9.090350	3.493415	-0.013676	-0.016008	-0.072524	-0.820901	0.569969	-0.026753	0.023265
54992	-0.145245	-9.117395	3.501295	0.038175	-0.027013	-0.045147	-0.821102	0.569652	-0.027513	0.023048
54993	-0.204951	-9.103326	3.464273	-0.010154	-0.060043	-0.070510	-0.821313	0.569318	-0.028257	0.022893
54994	-0.224440	-9.016843	3.472969	-0.016095	-0.025675	-0.147574	-0.821433	0.569120	-0.028864	0.022728
54995	-0.231526	-9.270070	3.533791	-0.009108	-0.063871	0.110584	-0.821463	0.569044	-0.029504	0.022727
54996	-0.353062	-9.317593	3.416733	-0.130522	-0.187103	0.115263	-0.821738	0.568598	-0.030220	0.023041
54997	-0.379879	-9.235552	3.529029	-0.141956	-0.062888	0.080222	-0.822107	0.568014	-0.030832	0.023443
54998	-0.336178	-9.060527	3.554039	-0.091033	0.006523	-0.074669	-0.822534	0.567348	-0.031402	0.023829
54999	-0.366843	-8.826838	3.550536	-0.116895	0.079126	-0.292497	-0.822787	0.566930	-0.031960	0.024289
55000	-0.526207	-8.946827	3.672045	-0.262740	0.151367	-0.132059	-0.823021	0.566544	-0.032478	0.024705
55001	-0.509531	-8.971279	3.624242	-0.247662	0.088942	-0.127164	-0.823226	0.566211	-0.032813	0.025029
55002	-0.374601	-9.065344	3.566446	-0.116781	-0.014793	-0.064535	-0.823273	0.566109	-0.033161	0.025341
55003	-0.385147	-9.124869	3.453209	-0.134223	-0.145458	-0.050667	-0.823469	0.565776	-0.033698	0.025712
55004	-0.355746	-9.054726	3.448897	-0.101326	-0.134689	-0.118303	-0.823752	0.565331	-0.034076	0.025927
55005	-0.287567	-9.121442	3.537417	-0.022607	-0.093303	-0.025579	-0.824019	0.564899	-0.034544	0.026235
55006	-0.391916	-8.950585	3.689043	-0.109523	0.108649	-0.124974	-0.824334	0.564412	-0.034823	0.026452
55007	-0.267379	-9.016136	3.534790	0.002312	-0.079122	-0.125032	-0.824597	0.564011	-0.035043	0.026536
55008	-0.300916	-8.958573	3.575745	-0.024333	-0.026586	-0.162236	-0.824877	0.563579	-0.035333	0.026616
55009	-0.216773	-9.068663	3.567575	0.060900	-0.091541	-0.065733	-0.825094	0.563244	-0.035541	0.026688
55010	-0.295653	-9.009483	3.580080	-0.013720	-0.058474	-0.113639	-0.825286	0.562930	-0.035897	0.026919
55011	-0.439559	-9.124098	3.601262	-0.154171	-0.075922	0.004743	-0.825440	0.562675	-0.036124	0.027212
55012	-0.259556	-9.188576	3.690101	0.031815	-0.042170	0.092430	-0.825733	0.562222	-0.036236	0.027552
55013	-0.255252	-9.113957	3.594904	0.025156	-0.111871	-0.012710	-0.825986	0.561826	-0.036338	0.027889
55014	-0.394539	-8.913701	3.626570	-0.111647	-0.002283	-0.182046	-0.826177	0.561531	-0.036378	0.028125
55015	-0.301342	-8.805829	3.674860	-0.015041	0.070220	-0.266333	-0.826247	0.561412	-0.036475	0.028321
55016	-0.348747	-9.017704	3.684462	-0.063339	0.000950	-0.065285	-0.826279	0.561335	-0.036674	0.028646
55017	-0.446295	-8.940063	3.765320	-0.153885	0.111982	-0.103655	-0.826339	0.561241	-0.036626	0.028838
55018	-0.395008	-8.870971	3.688749	-0.112568	0.061666	-0.198086	-0.826369	0.561194	-0.036541	0.028993
55019	-0.361601	-8.919294	3.672787	-0.084082	0.025480	-0.160423	-0.826352	0.561216	-0.036462	0.029127
55020	-0.335967	-8.996957	3.699590	-0.059452	0.018888	-0.079180	-0.826338	0.561223	-0.036465	0.029398
55021	-0.456770	-8.955327	3.795146	-0.173881	0.133977	-0.078137	-0.826344	0.561207	-0.036368	0.029663
55022	-0.398612	-8.976301	3.701930	-0.130404	0.036163	-0.095752	-0.826281	0.561317	-0.036026	0.029736
55023	-0.369867	-8.946317	3.672143	-0.110153	0.018806	-0.135625	-0.826298	0.561318	-0.035659	0.029701
55024	-0.309390	-8.863810	3.712289	-0.051042	0.083686	-0.198410	-0.826193	0.561504	-0.035229	0.029630
55025	-0.263550	-9.037420	3.676741	-0.016162	-0.016623	-0.052447	-0.826189	0.561522	-0.034953	0.029705
55026	-0.344179	-8.910876	3.687621	-0.099203	0.049785	-0.163418	-0.826150	0.561592	-0.034685	0.029783
55027	-0.310615	-8.866005	3.697379	-0.069813	0.075362	-0.202142	-0.826063	0.561742	-0.034327	0.029806
55028	-0.317817	-8.969463	3.715747	-0.082817	0.061266	-0.099375	-0.825740	0.562218	-0.034060	0.030081
55029	-0.553834	-9.032844	3.794398	-0.319669	0.139933	-0.005818	-0.825574	0.562439	-0.033862	0.030715
55030	-0.521263	-8.858240	3.797833	-0.296342	0.214981	-0.167502	-0.825249	0.562904	-0.033421	0.031400
55031	-0.451940	-8.830015	3.786519	-0.242092	0.220168	-0.199986	-0.824956	0.563345	-0.032797	0.031867
55032	-0.237259	-8.967903	3.503891	-0.070824	-0.100435	-0.182439	-0.824634	0.563856	-0.031967	0.031980
55033	-0.117249	-9.078091	3.587145	0.042895	-0.067198	-0.051195	-0.824519	0.564048	-0.031458	0.032067
55034	-0.142838	-9.095669	3.642005	0.013558	-0.016085	-0.013945	-0.824404	0.564234	-0.031021	0.032168
55035	-0.175856	-9.073367	3.589884	-0.031306	-0.049562	-0.053551	-0.824359	0.564316	-0.030631	0.032289
55036	-0.197117	-9.056605	3.492271	-0.067991	-0.129419	-0.105189	-0.824315	0.564408	-0.030158	0.032238
55037	-0.050009	-9.042643	3.500159	0.072979	-0.128146	-0.117262	-0.824299	0.564480	-0.029552	0.031937
55038	0.021694	-8.924208	3.635871	0.153474	0.036975	-0.177513	-0.824260	0.564582	-0.029064	0.031598
55039	-0.167688	-9.068985	3.633568	-0.041713	0.000971	-0.041522	-0.824138	0.564789	-0.028731	0.031376
55040	-0.287985	-9.172554	3.497343	-0.179038	-0.149907	0.005437	-0.824111	0.564872	-0.028198	0.031075
55041	-0.115648	-9.165207	3.425404	-0.018770	-0.227048	-0.030260	-0.824113	0.564925	-0.027524	0.030670
55042	0.028476	-9.108171	3.497400	0.126780	-0.151525	-0.058081	-0.824184	0.564876	-0.026918	0.030183
55043	0.041553	-8.963604	3.539698	0.143315	-0.061260	-0.176656	-0.824255	0.564805	-0.026609	0.029867
55044	-0.243926	-9.004190	3.533061	-0.143549	-0.060274	-0.138328	-0.824270	0.564803	-0.026423	0.029648
55045	-0.057424	-9.193441	3.390216	0.025688	-0.278041	-0.017880	-0.824297	0.564807	-0.025952	0.029222
55046	0.034692	-9.135840	3.391991	0.117565	-0.265357	-0.071736	-0.824484	0.564562	-0.025733	0.028885
55047	-0.024646	-9.123674	3.384106	0.058268	-0.266479	-0.085416	-0.824509	0.564569	-0.025364	0.028358
55048	0.038861	-9.293481	3.569270	0.132773	-0.167060	0.140425	-0.824723	0.564276	-0.025216	0.028071
55049	-0.175860	-9.087717	3.693515	-0.068165	0.029747	-0.001774	-0.825170	0.563630	-0.025145	0.027986
55050	-0.181333	-8.928968	3.599957	-0.079514	-0.007453	-0.183946	-0.825355	0.563386	-0.024807	0.027743
55051	0.003898	-8.856781	3.538744	0.100228	-0.057463	-0.275814	-0.825578	0.563082	-0.024594	0.027457
55052	-0.008100	-8.953590	3.614024	0.092917	-0.027878	-0.157710	-0.825634	0.563011	-0.024595	0.027239
55053	-0.087385	-8.947435	3.579788	0.013544	-0.054602	-0.175471	-0.825778	0.562807	-0.024609	0.027076
55054	-0.146808	-9.149276	3.608104	-0.046020	-0.105676	0.022755	-0.825961	0.562540	-0.024630	0.027033
55055	-0.228575	-9.000985	3.637878	-0.122495	-0.025660	-0.102464	-0.826324	0.562012	-0.024594	0.026945
55056	-0.135501	-9.091472	3.639183	-0.031053	-0.076092	-0.019316	-0.826572	0.561656	-0.024541	0.026814
55057	-0.142717	-8.997367	3.665730	-0.033623	-0.027834	-0.096277	-0.827047	0.560964	-0.024566	0.026634
55058	-0.139691	-8.978378	3.753728	-0.022366	0.045182	-0.080334	-0.827446	0.560387	-0.024533	0.026419
55059	-0.171199	-8.910789	3.779400	-0.048576	0.082818	-0.132497	-0.827865	0.559773	-0.024616	0.026212
55060	-0.180203	-8.816280	3.805510	-0.051087	0.130988	-0.209490	-0.828188	0.559309	-0.024630	0.025917
55061	-0.101940	-8.885316	3.735104	0.024306	0.025192	-0.173756	-0.828380	0.559038	-0.024678	0.025585
55062	-0.172414	-8.956585	3.795649	-0.038480	0.052251	-0.083716	-0.828547	0.558796	-0.024805	0.025339
55063	-0.189915	-8.942076	3.783070	-0.052727	0.041601	-0.101668	-0.828719	0.558549	-0.024866	0.025105
55064	-0.152502	-8.849529	3.795110	-0.010121	0.080276	-0.182852	-0.828860	0.558341	-0.024967	0.024980
55065	-0.097683	-8.997463	3.641602	0.033893	-0.124654	-0.106583	-0.828873	0.558332	-0.024950	0.024769
55066	-0.177305	-9.045128	3.596722	-0.047683	-0.181985	-0.078891	-0.829047	0.558068	-0.025050	0.024770
55067	-0.283966	-9.057697	3.767336	-0.141874	-0.028083	0.000285	-0.829189	0.557842	-0.025162	0.025010
55068	-0.332734	-8.925435	3.889091	-0.182190	0.132839	-0.073679	-0.829373	0.557553	-0.025166	0.025329
55069	-0.254863	-8.877156	3.896003	-0.107537	0.148827	-0.116607	-0.829394	0.557517	-0.025028	0.025573
55070	-0.260812	-8.983317	3.607438	-0.140754	-0.157471	-0.130900	-0.829406	0.557503	-0.024802	0.025686
55071	-0.168263	-9.147655	3.550182	-0.060750	-0.281309	-0.003056	-0.829452	0.557450	-0.024437	0.025727
55072	0.051109	-9.247598	3.531147	0.148779	-0.356639	0.078741	-0.829608	0.557220	-0.024189	0.025905
55073	-0.218722	-8.902730	3.811727	-0.099892	0.046068	-0.126430	-0.829950	0.556696	-0.024173	0.026246
55074	-0.301452	-8.834817	3.837654	-0.185211	0.096097	-0.177911	-0.829980	0.556668	-0.023739	0.026275
55075	-0.077728	-9.046790	3.526571	0.005566	-0.289541	-0.106849	-0.830059	0.556592	-0.023130	0.025927
55076	0.148279	-9.209999	3.405493	0.215260	-0.485103	-0.006476	-0.830293	0.556275	-0.022710	0.025604
55077	0.041326	-9.081694	3.669680	0.126701	-0.195524	-0.020286	-0.830682	0.555697	-0.022658	0.025604
55078	-0.225481	-8.760271	3.897801	-0.120134	0.146719	-0.223627	-0.830972	0.555265	-0.022546	0.025673
55079	-0.321306	-8.740837	3.993081	-0.213154	0.241776	-0.202990	-0.831079	0.555124	-0.022160	0.025598
55080	-0.184223	-8.998698	3.827975	-0.097684	-0.025157	-0.032416	-0.831256	0.554885	-0.021709	0.025376
55081	-0.165167	-8.834421	3.798229	-0.083079	0.006049	-0.195314	-0.831396	0.554709	-0.021168	0.025106
55082	0.118222	-8.973124	3.767147	0.189640	-0.098271	-0.082492	-0.831414	0.554714	-0.020663	0.024813
55083	-0.033876	-8.928862	3.810487	0.038556	-0.034966	-0.104813	-0.831652	0.554368	-0.020532	0.024682
55084	-0.050085	-8.900521	3.568022	0.005505	-0.249146	-0.226736	-0.831683	0.554346	-0.020165	0.024440
55085	-0.106138	-8.901921	3.678268	-0.046056	-0.148471	-0.181438	-0.831866	0.554079	-0.020027	0.024392
55086	-0.254554	-8.871023	3.952839	-0.178257	0.118336	-0.099860	-0.832065	0.553784	-0.019926	0.024382
55087	-0.291740	-8.841366	3.921842	-0.219938	0.098958	-0.139139	-0.832175	0.553644	-0.019501	0.024165
55088	-0.066389	-8.903646	3.805484	-0.008834	-0.049960	-0.129793	-0.832282	0.553522	-0.018850	0.023760
55089	0.081471	-8.881827	3.829460	0.135154	-0.034461	-0.141142	-0.832559	0.553142	-0.018291	0.023336
55090	0.141606	-8.898638	3.899986	0.195632	0.012568	-0.097891	-0.832737	0.552906	-0.017881	0.022883
55091	0.068799	-8.980461	3.859714	0.118101	-0.061246	-0.038584	-0.833087	0.552402	-0.017638	0.022493
55092	0.063721	-8.942665	3.904406	0.116105	-0.014682	-0.055331	-0.833312	0.552082	-0.017423	0.022183
55093	0.050240	-8.880032	3.925195	0.103858	0.019706	-0.104266	-0.833706	0.551506	-0.017179	0.021943
55094	0.060781	-8.899035	3.961923	0.113453	0.032859	-0.072082	-0.834031	0.551039	-0.016777	0.021620
55095	0.016791	-8.818568	3.821996	0.059884	-0.072158	-0.201950	-0.834432	0.550462	-0.016296	0.021219
55096	-0.016951	-8.796803	3.560937	0.006883	-0.312174	-0.327605	-0.834788	0.549963	-0.015461	0.020761
55097	-0.333720	-8.882124	3.619210	-0.321892	-0.288715	-0.225448	-0.835174	0.549435	-0.013906	0.020294
55098	-0.607652	-9.007935	4.143271	-0.602676	0.139355	0.101749	-0.835524	0.548983	-0.011227	0.019796
55099	-0.189385	-9.122544	4.040045	-0.238758	-0.027889	0.163315	-0.835582	0.549001	-0.007217	0.018674
55100	0.518423	-8.902178	3.914203	0.424173	-0.087535	-0.083822	-0.836003	0.548428	-0.004261	0.017550
55101	0.455786	-8.712246	3.988430	0.346490	0.037349	-0.226396	-0.837041	0.546872	-0.003310	0.016794
55102	-0.206725	-8.461557	3.923997	-0.312134	0.047770	-0.488622	-0.839336	0.543377	-0.003053	0.015706
55103	-0.482977	-7.585566	3.864414	-0.566530	0.297999	-1.309886	-0.841410	0.540222	-0.001859	0.013624
55104	-0.446740	-7.768453	5.412316	-0.513863	1.559074	-0.477454	-0.842808	0.538108	0.000547	0.010669
55105	1.561348	-7.715535	4.944098	1.470833	1.084891	-0.698358	-0.843978	0.536332	0.003756	0.005935
55106	1.322816	-9.107659	2.713068	1.222013	-1.532563	-0.420255	-0.843825	0.536600	0.003454	0.002868
55107	-0.627221	-10.060537	4.157563	-0.671143	-0.711054	1.047078	-0.847670	0.530510	-0.001986	0.003419
55108	-1.496833	-8.224833	5.971893	-1.453515	1.596791	0.231596	-0.851274	0.524705	-0.003541	0.002092
55109	0.411326	-7.607877	5.007349	0.457723	0.913466	-0.752976	-0.852837	0.522171	-0.000474	-0.002681
55110	1.414779	-8.009757	3.387808	1.467909	-0.713818	-1.154129	-0.852247	0.523097	0.000817	-0.006654
55111	0.418503	-10.162961	3.776141	0.531201	-1.393584	0.934188	-0.853722	0.520671	-0.001619	-0.007679
55112	-0.837264	-8.965431	4.778852	-0.701422	-0.043877	0.356992	-0.856517	0.516041	-0.002960	-0.008441
55113	-0.687290	-9.069898	5.930173	-0.538324	0.808553	1.002014	-0.859024	0.511811	-0.001200	-0.011209
55114	0.073719	-7.782134	4.164034	0.202852	-0.163025	-0.990078	-0.859772	0.510454	0.001499	-0.015034
55115	0.674536	-8.894317	4.350776	0.830673	-0.553821	0.061336	-0.860472	0.509157	0.003160	-0.018389
55116	-0.142521	-8.770707	4.833754	0.023220	-0.131225	0.201941	-0.861473	0.507411	0.001978	-0.019847
55117	-0.573984	-9.634764	4.373535	-0.341945	-1.006703	0.730342	-0.862041	0.506350	0.002444	-0.022088
55118	-0.604701	-9.483371	3.806239	-0.343325	-1.492028	0.308695	-0.864635	0.501785	0.003254	-0.024652
55119	0.153459	-7.685497	5.766601	0.307923	1.032069	-0.263703	-0.867417	0.496824	0.003537	-0.027223
55120	-0.127644	-7.035590	4.540130	0.063045	0.267392	-1.442925	-0.866416	0.498499	0.001766	-0.028634
55121	-0.881134	-9.297235	4.171655	-0.536991	-1.210379	0.329509	-0.865555	0.499926	0.000848	-0.029799
55122	-1.080740	-8.902414	4.929494	-0.756993	-0.371148	0.385839	-0.866498	0.498251	0.000512	-0.030437
55123	-1.099591	-9.447373	4.852454	-0.733229	-0.772496	0.811505	-0.868078	0.495420	0.000857	-0.031617
55124	-0.779136	-7.853103	5.861012	-0.518414	0.844964	-0.032804	-0.870558	0.490929	0.001056	-0.033420
55125	-0.356663	-6.981235	5.726107	-0.124912	1.166932	-0.853013	-0.870275	0.491313	0.000447	-0.035115
55126	-0.505960	-8.166529	4.796589	-0.152465	-0.228265	-0.332185	-0.869128	0.493232	0.000241	-0.036583
55127	-0.647571	-9.469465	4.362747	-0.179138	-1.270887	0.554395	-0.869407	0.492681	-0.000183	-0.037373
55128	-0.622550	-8.788412	5.029331	-0.211942	-0.391091	0.322379	-0.871238	0.489414	0.000052	-0.037657
55129	-1.068317	-7.763339	6.174023	-0.776249	1.019372	0.081106	-0.872863	0.486519	0.001643	-0.037511
55130	-0.514938	-7.656765	6.439616	-0.278136	1.304288	0.116117	-0.872730	0.486780	0.003945	-0.037026
55131	-0.425315	-8.787881	5.179084	-0.112140	-0.336259	0.390488	-0.871884	0.488393	0.005250	-0.035539
55132	-0.038761	-9.064328	4.545973	0.272849	-0.968000	0.277792	-0.871575	0.489076	0.006481	-0.033454
55133	0.126253	-8.770961	4.493343	0.381430	-0.850385	-0.001112	-0.872110	0.488315	0.006936	-0.030412
55134	-0.421667	-8.179361	4.632300	-0.237132	-0.473352	-0.418141	-0.872878	0.487130	0.007223	-0.027138
55135	-0.661445	-7.829055	5.068587	-0.544504	0.041824	-0.478677	-0.873729	0.485732	0.008149	-0.024396
55136	-0.185004	-7.602239	5.481688	-0.125097	0.523098	-0.453851	-0.873624	0.486043	0.008528	-0.021688
55137	-0.064959	-7.972046	5.282672	-0.017692	0.183512	-0.250774	-0.872719	0.487770	0.008953	-0.019036
55138	-0.123061	-8.260328	5.331036	-0.101532	0.107401	0.018185	-0.871710	0.489656	0.009316	-0.016495
55139	0.028537	-8.341186	5.315858	0.019162	0.096856	0.077943	-0.870783	0.491359	0.010025	-0.014215
55140	0.102787	-8.180374	5.274525	0.060211	0.181548	-0.080628	-0.870089	0.492633	0.010551	-0.012097
55141	0.151777	-7.948687	5.276313	0.078377	0.331514	-0.277070	-0.869480	0.493732	0.011216	-0.010318
55142	0.361373	-7.890954	5.168028	0.265103	0.294946	-0.381413	-0.869033	0.494535	0.011806	-0.008809
55143	0.437335	-7.823592	5.182942	0.320959	0.359665	-0.430240	-0.868654	0.495218	0.011996	-0.007414
55144	0.324770	-7.933657	5.181621	0.194263	0.310560	-0.338334	-0.868378	0.495715	0.012153	-0.006226
55145	0.239453	-8.033893	5.125376	0.096700	0.211073	-0.282927	-0.868508	0.495491	0.012473	-0.005278
55146	0.127034	-8.272418	5.149628	-0.030734	0.085279	-0.067978	-0.869400	0.493918	0.012923	-0.004611
55147	0.031201	-7.861919	4.750087	-0.127718	-0.079037	-0.628387	-0.870402	0.492138	0.013518	-0.004267
55148	-0.158592	-8.167099	5.078713	-0.340755	0.004175	-0.199999	-0.871052	0.490957	0.014478	-0.004439
55149	-0.048338	-8.438282	5.546361	-0.260875	0.219919	0.279506	-0.872320	0.488651	0.015851	-0.005109
55150	0.084248	-8.125049	5.334030	-0.136007	0.155752	-0.095055	-0.873676	0.486166	0.017247	-0.006038
55151	0.042735	-7.965613	5.335145	-0.186732	0.199225	-0.229267	-0.874384	0.484843	0.018154	-0.007085
55152	0.188558	-7.765147	5.441212	-0.044906	0.381576	-0.336812	-0.874618	0.484385	0.018574	-0.008331
55153	0.296711	-7.863212	5.345168	0.072575	0.252450	-0.303748	-0.874310	0.484908	0.018767	-0.009677
55154	0.365533	-8.056326	5.361669	0.150691	0.174251	-0.131138	-0.874127	0.485213	0.018734	-0.010943
55155	0.401829	-8.137336	5.317657	0.200664	0.103977	-0.086225	-0.873871	0.485646	0.018696	-0.012148
55156	0.462272	-8.005008	5.117613	0.281816	0.016353	-0.304580	-0.873788	0.485774	0.018476	-0.013275
55157	0.336984	-7.986521	5.363459	0.160330	0.235286	-0.190646	-0.873545	0.486193	0.018157	-0.014332
55158	0.356300	-7.939089	5.366558	0.192844	0.274728	-0.229195	-0.873272	0.486658	0.017966	-0.015433
55159	0.218367	-8.079861	5.353251	0.070488	0.194592	-0.120099	-0.872930	0.487253	0.017616	-0.016359
55160	0.107363	-8.343565	5.068648	-0.011530	-0.177718	-0.051230	-0.872587	0.487847	0.017364	-0.017187
55161	0.044691	-8.460260	5.090272	-0.062804	-0.212833	0.058463	-0.872350	0.488270	0.017023	-0.017563
55162	-0.110565	-8.518926	5.051812	-0.206692	-0.272225	0.086216	-0.872040	0.488838	0.016553	-0.017586
55163	-0.132320	-8.469370	5.010074	-0.221475	-0.267411	0.022352	-0.871642	0.489559	0.016259	-0.017511
55164	-0.152712	-8.493862	4.886899	-0.232846	-0.368383	-0.021832	-0.871204	0.490357	0.015946	-0.017315
55165	-0.090724	-8.486154	4.842464	-0.167568	-0.380846	-0.050548	-0.870742	0.491194	0.015714	-0.017016
55166	-0.105435	-8.458809	5.060527	-0.192308	-0.166767	0.041586	-0.870460	0.491714	0.015525	-0.016573
55167	-0.061345	-8.357874	5.117717	-0.155259	-0.053199	-0.013611	-0.870258	0.492085	0.015575	-0.016166
55168	0.112438	-8.239590	4.986665	0.017654	-0.086099	-0.181354	-0.870010	0.492537	0.015567	-0.015767
55169	0.093274	-8.260640	5.159922	-0.011629	0.053867	-0.072635	-0.870033	0.492508	0.015539	-0.015406
55170	0.255437	-8.120193	5.031045	0.150862	0.023379	-0.258061	-0.870071	0.492442	0.015637	-0.015253
55171	0.213208	-8.255498	5.082334	0.106519	-0.013572	-0.116437	-0.870428	0.491814	0.015630	-0.015175
55172	0.185004	-8.162814	4.967704	0.080226	-0.080139	-0.255965	-0.870927	0.490908	0.016003	-0.015479
55173	0.173742	-8.304182	5.077373	0.065749	-0.078929	-0.078276	-0.871269	0.490288	0.016070	-0.015772
55174	0.166610	-8.276648	5.143646	0.059605	-0.017192	-0.066719	-0.871368	0.490116	0.015815	-0.015946
55175	-0.053548	-8.330729	5.244067	-0.156692	0.027367	0.030017	-0.871428	0.490031	0.015267	-0.015800
55176	-0.206460	-8.332194	5.182531	-0.300641	-0.031138	-0.002725	-0.871372	0.490155	0.014814	-0.015491
55177	-0.267785	-8.502007	5.177334	-0.357041	-0.125344	0.138063	-0.871334	0.490241	0.014586	-0.015126
55178	-0.166100	-8.458795	4.910606	-0.247764	-0.324509	-0.038939	-0.871391	0.490150	0.014585	-0.014723
55179	-0.101886	-8.357929	5.028296	-0.194714	-0.169888	-0.061670	-0.871392	0.490159	0.014741	-0.014281
55180	0.169561	-8.451982	5.238064	0.062643	-0.030997	0.132018	-0.871352	0.490233	0.014940	-0.013904
55181	0.262300	-8.289082	5.271887	0.147916	0.088306	0.012830	-0.871344	0.490268	0.014759	-0.013386
55182	0.249419	-8.157877	5.139101	0.138141	0.048707	-0.168930	-0.871159	0.490621	0.014414	-0.012862
55183	0.252900	-8.218874	5.079558	0.146786	-0.027444	-0.148658	-0.871025	0.490882	0.013926	-0.012462
55184	0.282233	-8.163984	5.067011	0.179854	-0.002941	-0.201624	-0.870906	0.491113	0.013553	-0.012158
55185	0.175719	-8.184032	5.208158	0.071884	0.108933	-0.111289	-0.870722	0.491454	0.013231	-0.011877
55186	0.285290	-8.287130	5.104154	0.189305	-0.020028	-0.077490	-0.870399	0.492050	0.012719	-0.011485
55187	0.128718	-8.488849	5.012790	0.042314	-0.199713	0.044468	-0.870291	0.492271	0.012036	-0.010880
55188	0.066366	-8.578968	4.856873	-0.011247	-0.382231	0.038510	-0.870460	0.491999	0.011516	-0.010182
55189	-0.113410	-8.533482	4.984236	-0.195273	-0.268563	0.064837	-0.870996	0.491073	0.011180	-0.009343
55190	-0.090396	-8.335723	5.043721	-0.179468	-0.134606	-0.071989	-0.871566	0.490079	0.011090	-0.008496
55191	-0.107887	-8.315856	5.117979	-0.206015	-0.083683	-0.050039	-0.872127	0.489092	0.011124	-0.007734
55192	-0.074425	-8.144522	5.193179	-0.183244	0.048380	-0.154949	-0.872758	0.487968	0.011366	-0.007184
55193	-0.036235	-8.053473	5.258622	-0.155560	0.133695	-0.196516	-0.873111	0.487335	0.011649	-0.006761
55194	-0.030788	-8.103940	5.291198	-0.159313	0.119512	-0.136331	-0.873499	0.486636	0.011987	-0.006457
55195	0.090652	-8.061601	5.214476	-0.044240	0.067297	-0.211547	-0.873747	0.486182	0.012402	-0.006320
55196	0.157335	-8.152402	5.214369	0.015560	0.009719	-0.134066	-0.873997	0.485723	0.012746	-0.006346
55197	0.162675	-8.108703	5.304364	0.015381	0.100172	-0.122304	-0.874193	0.485368	0.012822	-0.006377
55198	0.117305	-8.097203	5.303428	-0.030065	0.095592	-0.133082	-0.874447	0.484909	0.012834	-0.006458
55199	0.122271	-8.040614	5.386597	-0.026754	0.185489	-0.135564	-0.874730	0.484394	0.012904	-0.006614
55200	0.024354	-8.025242	5.292557	-0.121380	0.102038	-0.200658	-0.874972	0.483950	0.012995	-0.006891
55201	0.015456	-8.132668	5.268326	-0.129707	0.013807	-0.123582	-0.875191	0.483536	0.013358	-0.007404
55202	0.105535	-8.231105	5.296239	-0.039646	-0.020372	-0.024410	-0.875276	0.483371	0.013493	-0.007935
55203	0.013987	-8.301650	5.266409	-0.127940	-0.091472	0.017263	-0.875448	0.483041	0.013749	-0.008558
55204	0.086993	-8.245281	5.220752	-0.052064	-0.105669	-0.053867	-0.875676	0.482603	0.014088	-0.009305
55205	0.034109	-8.226763	5.330820	-0.107472	-0.019038	-0.010316	-0.876126	0.481753	0.014590	-0.010222
55206	0.099339	-8.143884	5.267257	-0.041482	-0.045775	-0.113572	-0.876666	0.480719	0.015374	-0.011352
55207	0.229337	-8.169381	5.309747	0.085415	-0.042084	-0.067141	-0.877188	0.479711	0.016136	-0.012579
55208	0.157076	-8.196139	5.374701	0.011538	-0.026578	-0.010244	-0.877691	0.478741	0.016651	-0.013711
55209	0.091701	-8.005369	5.383073	-0.053980	0.064462	-0.165681	-0.878073	0.477987	0.017201	-0.014845
55210	0.256387	-8.148467	5.406382	0.112951	-0.001062	-0.031100	-0.878275	0.477555	0.017743	-0.016089
55211	0.324863	-8.228780	5.326872	0.188607	-0.121095	-0.007401	-0.878658	0.476784	0.018294	-0.017355
55212	0.138087	-8.083895	5.403413	0.001236	-0.005543	-0.088223	-0.879222	0.475692	0.018568	-0.018480
55213	0.050709	-7.912207	5.452565	-0.085678	0.104414	-0.204474	-0.879712	0.474719	0.018989	-0.019710
55214	0.133007	-8.002521	5.442249	0.002324	0.026165	-0.134085	-0.880320	0.473502	0.019625	-0.021162
55215	0.131422	-7.955511	5.332740	0.008208	-0.062996	-0.234511	-0.880877	0.472363	0.020361	-0.022676
55216	0.077421	-8.131296	5.332779	-0.040650	-0.188349	-0.090273	-0.881378	0.471303	0.021301	-0.024318
55217	0.080684	-8.276367	5.149212	-0.022701	-0.445909	-0.075145	-0.881975	0.470051	0.022288	-0.025983
55218	-0.049663	-8.206105	5.587147	-0.180780	-0.085064	0.112977	-0.882703	0.468553	0.023165	-0.027508
55219	0.107386	-8.115170	5.641846	-0.031854	-0.010159	0.071479	-0.883385	0.467112	0.024292	-0.029108
55220	0.217892	-7.909182	5.556334	0.074281	0.015670	-0.144717	-0.884022	0.465736	0.025450	-0.030768
55221	0.211385	-7.684090	5.619411	0.051620	0.172319	-0.292429	-0.884404	0.464831	0.026648	-0.032435
55222	0.323264	-7.698082	5.664615	0.153613	0.196242	-0.252839	-0.884564	0.464326	0.027985	-0.034146
55223	0.384437	-7.762972	5.531583	0.219916	0.048691	-0.275434	-0.884626	0.463993	0.029319	-0.035898
55224	0.326348	-7.745956	5.625576	0.147495	0.123918	-0.235823	-0.884712	0.463622	0.030496	-0.037556
55225	0.453060	-7.824274	5.453528	0.287353	-0.053822	-0.269102	-0.884737	0.463373	0.031527	-0.039146
55226	0.440015	-7.861687	5.474682	0.273012	-0.065547	-0.226601	-0.884910	0.462873	0.032242	-0.040539
55227	0.310148	-7.881135	5.549409	0.139868	-0.037698	-0.169896	-0.885063	0.462439	0.032713	-0.041743
55228	0.258332	-7.887784	5.714715	0.076175	0.079987	-0.069504	-0.885165	0.462132	0.033062	-0.042709
55229	0.196589	-7.885240	5.626850	0.026314	0.001826	-0.123704	-0.885110	0.462164	0.033198	-0.043391
55230	0.209628	-7.996457	5.734180	0.037902	0.028495	0.029357	-0.884992	0.462341	0.033229	-0.043878
55231	0.168955	-7.946543	5.546231	0.017680	-0.099779	-0.121120	-0.885135	0.462035	0.033152	-0.044275
55232	0.295994	-7.891317	5.424434	0.157384	-0.157001	-0.234819	-0.885193	0.461892	0.033145	-0.044614
55233	0.325873	-7.923130	5.422015	0.191757	-0.178693	-0.209993	-0.885338	0.461572	0.033229	-0.044983
55234	0.383525	-7.984677	5.488072	0.248755	-0.160826	-0.120766	-0.885472	0.461294	0.033169	-0.045243
55235	0.275791	-8.017296	5.697073	0.129153	-0.031897	0.025606	-0.885782	0.460715	0.032770	-0.045360
55236	0.148522	-7.857392	5.685530	0.006157	0.025663	-0.112935	-0.886103	0.460146	0.032088	-0.045363
55237	0.240782	-7.830420	5.710017	0.107743	0.065103	-0.119293	-0.886141	0.460132	0.031225	-0.045348
55238	0.236412	-7.966486	5.598421	0.136487	-0.105221	-0.074444	-0.886221	0.460052	0.030259	-0.045271
55239	0.034765	-7.848856	5.649769	-0.060301	-0.018029	-0.142027	-0.886288	0.459978	0.029461	-0.045242
55240	0.034011	-7.872123	5.837821	-0.066097	0.117333	-0.013020	-0.886393	0.459784	0.029084	-0.045385
55241	-0.066787	-7.867229	5.716208	-0.149120	0.001343	-0.088978	-0.886790	0.459014	0.028923	-0.045520
55242	-0.187547	-7.808496	5.627616	-0.261320	-0.063469	-0.189511	-0.887109	0.458381	0.028962	-0.045670
55243	-0.045945	-7.782503	5.571626	-0.115805	-0.092610	-0.242396	-0.887448	0.457674	0.029164	-0.046050
55244	0.112263	-7.744306	5.630108	0.036443	-0.018938	-0.237548	-0.887684	0.457190	0.029112	-0.046345
55245	-0.007086	-7.758896	5.829090	-0.093630	0.112416	-0.109214	-0.887788	0.457006	0.028712	-0.046413
55246	-0.055627	-7.740155	5.836787	-0.136135	0.122044	-0.120023	-0.887832	0.456942	0.028308	-0.046440
55247	-0.092466	-7.915359	5.921711	-0.164240	0.082006	0.071361	-0.887869	0.456876	0.028084	-0.046522
55248	0.064058	-7.993816	5.958461	-0.003011	0.078310	0.157384	-0.888013	0.456593	0.027940	-0.046632
55249	0.172844	-7.859487	5.786458	0.116455	0.026026	-0.052038	-0.888120	0.456399	0.027738	-0.046626
55250	0.082233	-7.725986	5.655738	0.031602	-0.013884	-0.237522	-0.888219	0.456204	0.027792	-0.046615
55251	0.089745	-7.624043	5.638973	0.033280	0.032112	-0.329546	-0.888184	0.456270	0.027879	-0.046582
55252	0.162043	-7.606002	5.664161	0.103550	0.077997	-0.328837	-0.887888	0.456905	0.027383	-0.046292
55253	0.046416	-7.808921	5.662493	0.005436	-0.036935	-0.166766	-0.887389	0.457944	0.026847	-0.045910
55254	0.122799	-7.873327	5.591560	0.096477	-0.100184	-0.156057	-0.886847	0.459089	0.026137	-0.045354
55255	-0.001784	-7.964227	5.671521	-0.023267	-0.075566	-0.035737	-0.886251	0.460358	0.025326	-0.044602
55256	-0.073671	-8.013083	5.632982	-0.084822	-0.122053	-0.018643	-0.885990	0.460947	0.024824	-0.043978
55257	-0.047650	-7.953949	5.667312	-0.063598	-0.050736	-0.046450	-0.886006	0.460975	0.024540	-0.043511
55258	-0.017545	-7.879526	5.698704	-0.038808	0.019950	-0.088462	-0.886089	0.460882	0.024157	-0.043020
55259	-0.073578	-7.829202	5.762887	-0.100703	0.093403	-0.091895	-0.886167	0.460784	0.023888	-0.042609
55260	-0.107259	-7.867547	5.751493	-0.131486	0.055422	-0.067478	-0.886277	0.460599	0.023861	-0.042349
55261	-0.038438	-7.861530	5.784876	-0.067780	0.087633	-0.052685	-0.886404	0.460360	0.023935	-0.042230
55262	0.161293	-7.877251	5.464334	0.155043	-0.166169	-0.227053	-0.886508	0.460157	0.024045	-0.042201
55263	0.099318	-7.891012	5.542529	0.086817	-0.121794	-0.170324	-0.886632	0.459923	0.024047	-0.042139
55264	0.057873	-7.818829	5.661652	0.033298	0.009649	-0.159163	-0.886657	0.459903	0.023828	-0.041969
55265	-0.018034	-7.889864	5.689964	-0.039545	-0.019947	-0.085200	-0.886820	0.459576	0.023898	-0.042065
55266	-0.008885	-7.899247	5.682998	-0.029450	-0.036340	-0.081683	-0.886927	0.459331	0.024083	-0.042378
55267	-0.001579	-8.042000	5.892306	-0.030822	0.037696	0.156798	-0.887327	0.458493	0.024377	-0.042893
55268	-0.062923	-7.841801	5.968599	-0.108366	0.190056	0.039930	-0.887807	0.457476	0.024748	-0.043608
55269	-0.108439	-7.732557	6.081930	-0.168655	0.323151	0.018955	-0.888055	0.456876	0.025248	-0.044563
55270	0.061440	-7.810674	6.216910	-0.006960	0.393916	0.162540	-0.888095	0.456661	0.025818	-0.045635
55271	0.040140	-7.873309	6.275310	-0.029258	0.398654	0.247648	-0.888088	0.456547	0.026224	-0.046660
55272	-0.030014	-7.726980	5.817304	-0.066192	0.110522	-0.141516	-0.887992	0.456619	0.026523	-0.047602
55273	-0.136662	-7.703119	5.782750	-0.169592	0.088095	-0.181467	-0.887858	0.456752	0.027019	-0.048530
55274	-0.099207	-7.561412	5.869575	-0.151045	0.249924	-0.244436	-0.887649	0.457051	0.027538	-0.049244
55275	-0.059757	-7.451558	5.918980	-0.127552	0.365802	-0.304085	-0.887407	0.457436	0.028040	-0.049743
55276	-0.111858	-7.504748	5.718518	-0.163110	0.179853	-0.379966	-0.886989	0.458176	0.028532	-0.050102
55277	-0.088811	-7.461182	5.682552	-0.146591	0.192404	-0.436654	-0.886676	0.458713	0.029102	-0.050416
55278	0.024230	-7.323819	5.674254	-0.049600	0.293335	-0.552690	-0.886206	0.459574	0.029532	-0.050575
55279	0.143803	-7.534635	5.723893	0.073815	0.252032	-0.353022	-0.885302	0.461364	0.029305	-0.050241
55280	0.021477	-8.035612	5.546339	0.001067	-0.153093	-0.050015	-0.884246	0.463515	0.028618	-0.049435
55281	-0.086296	-8.125714	5.558572	-0.100269	-0.161792	0.030890	-0.883292	0.465503	0.027781	-0.048274
55282	-0.151330	-7.959895	5.733686	-0.189248	0.111965	-0.004044	-0.882357	0.467476	0.026786	-0.046855
55283	-0.238095	-7.876056	5.730522	-0.278448	0.191485	-0.075467	-0.881410	0.469455	0.025849	-0.045393
55284	-0.265133	-7.893312	5.479759	-0.282719	0.014297	-0.204244	-0.880580	0.471174	0.025090	-0.044102
55285	-0.136296	-8.000530	5.367923	-0.142108	-0.089239	-0.178716	-0.879797	0.472751	0.024705	-0.043057
55286	0.035324	-8.063771	5.473283	0.018684	0.011982	-0.066822	-0.879053	0.474254	0.024285	-0.041929
55287	0.059983	-8.143380	5.277749	0.054997	-0.159207	-0.109883	-0.878302	0.475754	0.024176	-0.040733
55288	0.055993	-8.344676	5.230366	0.053508	-0.278744	0.031744	-0.877585	0.477213	0.023901	-0.039262
55289	-0.139763	-8.229279	5.195723	-0.155035	-0.234017	-0.083492	-0.877072	0.478303	0.023522	-0.037654
55290	-0.015171	-8.062912	5.184242	-0.047757	-0.120136	-0.227782	-0.876641	0.479208	0.023319	-0.036283
55291	0.061703	-7.903749	5.493136	-0.012574	0.247071	-0.190506	-0.876300	0.479895	0.023580	-0.035268
55292	0.042887	-7.674109	5.833042	-0.078895	0.665549	-0.196608	-0.876112	0.480321	0.023735	-0.033986
55293	-0.199380	-7.744121	5.838153	-0.334619	0.629297	-0.138643	-0.875492	0.481534	0.024111	-0.032528
55294	-0.031511	-8.291197	5.544213	-0.148707	0.125900	0.159532	-0.874826	0.482786	0.024743	-0.031396
55295	0.163346	-8.448678	5.173331	0.056325	-0.229830	0.092571	-0.874276	0.483826	0.025154	-0.030354
55296	0.400878	-8.379114	5.047934	0.282240	-0.260449	-0.029827	-0.873884	0.484575	0.025539	-0.029347
55297	0.388880	-8.217691	5.101688	0.246636	-0.117124	-0.136204	-0.873663	0.485040	0.025637	-0.028126
55298	0.282226	-8.168605	5.119910	0.123913	-0.075783	-0.169134	-0.873515	0.485354	0.025874	-0.027095
55299	0.411813	-8.260549	5.038506	0.247043	-0.175658	-0.132766	-0.873211	0.485939	0.026117	-0.026150
55300	0.107993	-8.449280	5.343020	-0.086162	-0.032506	0.184380	-0.873048	0.486283	0.026235	-0.025070
55301	0.003813	-8.442023	5.230420	-0.197127	-0.128068	0.115544	-0.873108	0.486197	0.026659	-0.024162
55302	0.211165	-8.308819	5.283458	-0.011322	-0.000978	0.035959	-0.873171	0.486092	0.027118	-0.023500
55303	0.068794	-8.063835	5.381651	-0.176105	0.199316	-0.121372	-0.873321	0.485840	0.027379	-0.022821
55304	0.002516	-7.867703	5.341131	-0.253083	0.261802	-0.310275	-0.873397	0.485712	0.027726	-0.022199
55305	0.062209	-7.962172	5.077820	-0.185639	-0.005572	-0.370769	-0.873262	0.485963	0.028051	-0.021602
55306	-0.000021	-8.213442	5.241106	-0.265336	-0.004654	-0.073109	-0.873272	0.485971	0.028125	-0.020909
55307	0.053382	-8.160460	5.356330	-0.229035	0.123089	-0.054685	-0.873320	0.485903	0.028310	-0.020210
55308	0.220732	-8.018310	5.382129	-0.073273	0.226558	-0.155947	-0.873525	0.485574	0.028253	-0.019307
55309	0.302227	-7.843719	5.395282	-0.000119	0.332370	-0.293556	-0.873542	0.485597	0.028033	-0.018276
55310	0.398143	-7.822402	5.458431	0.086389	0.404793	-0.274782	-0.873422	0.485869	0.027753	-0.017171
55311	0.432832	-7.765355	5.726849	0.100012	0.671563	-0.178173	-0.873134	0.486455	0.027305	-0.015897
55312	0.376029	-7.719181	5.717403	0.040093	0.699875	-0.224966	-0.872708	0.487287	0.026881	-0.014489
55313	0.341514	-7.755866	5.729790	0.000711	0.708620	-0.189881	-0.872161	0.488339	0.026337	-0.012907
55314	0.248018	-7.658778	5.597424	-0.090327	0.669025	-0.347291	-0.871466	0.489635	0.025972	-0.011360
55315	0.354028	-7.893637	5.407698	0.016266	0.422786	-0.247182	-0.870402	0.491561	0.025828	-0.010031
55316	0.402931	-8.121839	5.044388	0.073211	0.037633	-0.243698	-0.869327	0.493502	0.025533	-0.008653
55317	0.492163	-8.341811	4.754212	0.165541	-0.280193	-0.204123	-0.868281	0.495378	0.025233	-0.007237
55318	0.449973	-8.580862	4.647143	0.117536	-0.464542	-0.055641	-0.867629	0.496564	0.024715	-0.005845
55319	0.295137	-8.655359	4.445600	-0.035240	-0.656336	-0.100136	-0.867044	0.497611	0.024388	-0.004795
55320	0.506213	-8.922899	4.365372	0.168148	-0.833174	0.097326	-0.866439	0.498668	0.024416	-0.004216
55321	0.537768	-9.059578	4.596731	0.180650	-0.686227	0.335787	-0.866140	0.499193	0.024358	-0.003661
55322	0.376713	-8.853079	4.756759	0.010477	-0.440326	0.234784	-0.866062	0.499338	0.024287	-0.002975
55323	0.303469	-8.677933	4.985678	-0.075430	-0.152299	0.198642	-0.865942	0.499554	0.024185	-0.002225
55324	0.349107	-8.453504	4.797051	-0.023264	-0.191343	-0.088587	-0.865701	0.499977	0.024129	-0.001589
55325	0.505309	-8.475256	4.849146	0.125984	-0.146923	-0.037103	-0.865580	0.500192	0.024037	-0.001167
55326	0.513391	-8.378271	4.754345	0.138182	-0.178209	-0.168418	-0.865666	0.500054	0.023823	-0.000715
55327	0.251826	-8.263581	4.690499	-0.119845	-0.183316	-0.309899	-0.865718	0.499966	0.023789	-0.000380
55328	0.465627	-8.472970	4.673869	0.085130	-0.300440	-0.129942	-0.865695	0.499988	0.024181	-0.000392
55329	0.695654	-8.639398	4.700890	0.305623	-0.360868	0.036062	-0.865907	0.499614	0.024295	-0.000333
55330	0.420458	-8.388828	4.943888	0.026187	-0.047490	-0.066496	-0.866572	0.498470	0.024088	-0.000087
55331	0.194366	-8.124596	5.010655	-0.195369	0.119483	-0.268001	-0.866994	0.497740	0.024019	0.000035
55332	0.258788	-8.293895	4.973406	-0.134446	-0.012434	-0.139415	-0.867307	0.497189	0.024142	0.000052
55333	0.441530	-8.386036	5.120075	0.036800	0.057108	0.022508	-0.867622	0.496625	0.024420	0.000037
55334	0.357492	-8.317775	5.347366	-0.058109	0.271928	0.078226	-0.867957	0.496040	0.024402	0.000338
55335	0.336826	-8.237605	5.350039	-0.079926	0.307314	0.010432	-0.868019	0.495934	0.024329	0.000876
55336	0.334447	-8.224070	5.447963	-0.087632	0.399361	0.049377	-0.867886	0.496185	0.023889	0.001712
55337	0.173565	-8.186952	5.175938	-0.238185	0.192403	-0.130080	-0.867547	0.496792	0.023535	0.002593
55338	0.229703	-8.280513	5.031803	-0.181804	0.031850	-0.122248	-0.867371	0.497108	0.023252	0.003343
55339	0.381697	-8.265949	4.923165	-0.027172	-0.044213	-0.184268	-0.867182	0.497448	0.022920	0.003954
55340	0.383781	-8.380529	5.022147	-0.030748	-0.013083	-0.035091	-0.867092	0.497623	0.022416	0.004568
55341	0.375528	-8.314411	4.877519	-0.030305	-0.101908	-0.166479	-0.867126	0.497574	0.022059	0.005020
55342	0.347454	-8.436770	4.820711	-0.059243	-0.214962	-0.092124	-0.867142	0.497554	0.021812	0.005377
55343	0.321711	-8.419079	4.837929	-0.084732	-0.193922	-0.099544	-0.867257	0.497357	0.021634	0.005688
55344	0.228719	-8.461088	5.035241	-0.185126	-0.052862	0.034084	-0.867415	0.497084	0.021502	0.005960
55345	0.281221	-8.499467	5.106264	-0.136101	-0.017474	0.105736	-0.867564	0.496827	0.021349	0.006214
55346	0.153362	-8.350947	5.303833	-0.265268	0.219613	0.075380	-0.867804	0.496410	0.021247	0.006502
55347	0.160193	-8.307796	5.209952	-0.255934	0.158747	-0.009727	-0.867711	0.496569	0.021240	0.006748
55348	0.163329	-8.255556	5.207021	-0.253591	0.189040	-0.055951	-0.867509	0.496917	0.021323	0.006904
55349	0.359832	-8.249541	5.075439	-0.056617	0.089223	-0.120767	-0.867282	0.497304	0.021550	0.006878
55350	0.415137	-8.165492	4.792024	0.007216	-0.102514	-0.336373	-0.867130	0.497563	0.021708	0.006714
55351	0.440687	-8.241996	4.580955	0.034989	-0.316905	-0.378272	-0.866985	0.497806	0.022069	0.006302
55352	0.606874	-8.571745	4.423542	0.193669	-0.618552	-0.169518	-0.867057	0.497667	0.022518	0.005724
55353	0.552301	-8.522137	4.558112	0.136407	-0.486244	-0.145568	-0.867410	0.497048	0.022651	0.005442
55354	0.399220	-8.361924	4.819233	-0.018865	-0.198921	-0.155245	-0.867953	0.496100	0.022672	0.005316
55355	0.251669	-8.193512	5.145826	-0.169580	0.147265	-0.136633	-0.868376	0.495368	0.022466	0.005395
55356	0.095554	-8.152345	5.228467	-0.324914	0.225162	-0.135371	-0.868593	0.494990	0.022381	0.005438
55357	0.267855	-8.276102	5.193385	-0.154440	0.130689	-0.040486	-0.868480	0.495191	0.022348	0.005381
55358	0.483817	-8.470546	5.204015	0.056092	0.042837	0.140253	-0.868501	0.495158	0.022274	0.005386
55359	0.364272	-8.445063	5.170661	-0.060804	0.023017	0.096061	-0.868645	0.494907	0.022159	0.005579
55360	0.288826	-8.187643	5.200174	-0.129302	0.172750	-0.111340	-0.868942	0.494387	0.022079	0.005798
55361	0.179060	-8.170557	5.104906	-0.236863	0.091111	-0.180152	-0.869061	0.494174	0.022144	0.005912
55362	0.227437	-8.297332	5.018316	-0.192183	-0.052028	-0.115198	-0.869120	0.494062	0.022361	0.005793
55363	0.351205	-8.404411	4.831061	-0.068039	-0.271464	-0.116384	-0.869316	0.493708	0.022647	0.005469
55364	0.510183	-8.422168	4.814429	0.091088	-0.303677	-0.103341	-0.869659	0.493102	0.022781	0.005050
55365	0.471999	-8.336046	4.875632	0.057150	-0.221039	-0.146660	-0.870052	0.492416	0.022676	0.004733
55366	0.399565	-8.299068	4.906318	-0.009907	-0.191392	-0.165439	-0.870438	0.491743	0.022496	0.004499
55367	0.362897	-8.229777	5.100417	-0.045107	-0.003786	-0.123873	-0.870747	0.491213	0.022112	0.004545
55368	0.144803	-8.215042	5.356173	-0.265241	0.207233	-0.010485	-0.871026	0.490735	0.021676	0.004826
55369	-0.015796	-8.215238	5.089590	-0.414777	-0.030303	-0.157567	-0.871235	0.490366	0.021576	0.004984
55370	0.305621	-8.483240	5.168072	-0.105998	-0.108373	0.124352	-0.871331	0.490183	0.021871	0.004907
55371	0.451323	-8.681108	5.020337	0.034636	-0.346119	0.219665	-0.871678	0.489558	0.022053	0.004923
55372	0.378315	-8.245189	5.195674	-0.032727	0.012593	-0.059740	-0.872350	0.488361	0.021964	0.005149
55373	0.203271	-7.710622	5.494907	-0.201732	0.526939	-0.359083	-0.872796	0.487566	0.021783	0.005655
55374	0.215560	-7.599286	5.396890	-0.185323	0.494283	-0.504446	-0.872842	0.487481	0.021677	0.006305
55375	0.403199	-7.792681	5.348470	-0.007217	0.353512	-0.359140	-0.872675	0.487770	0.021655	0.007014
55376	0.433508	-7.832069	5.199390	0.021679	0.213612	-0.404351	-0.872461	0.488152	0.021408	0.007830
55377	0.418076	-8.004757	5.233594	-0.003781	0.159985	-0.241072	-0.872155	0.488694	0.021234	0.008510
55378	0.463031	-8.125124	5.287200	0.035250	0.152827	-0.108981	-0.871863	0.489228	0.020553	0.009451
55379	0.244268	-8.031526	5.287558	-0.176836	0.212457	-0.197755	-0.871644	0.489627	0.019949	0.010228
55380	0.333245	-7.987200	5.047265	-0.076073	0.042552	-0.358921	-0.871342	0.490178	0.019386	0.010567
55381	0.432868	-8.182809	4.991986	0.026029	-0.097330	-0.218132	-0.871100	0.490635	0.018758	0.010502
55382	0.465423	-8.271966	4.909282	0.070113	-0.210359	-0.184920	-0.871137	0.490602	0.017940	0.010340
55383	0.262918	-8.267347	5.133152	-0.121698	-0.020023	-0.078615	-0.871251	0.490430	0.017121	0.010301
55384	0.022747	-8.221334	5.269609	-0.348487	0.117602	-0.054391	-0.871326	0.490325	0.016301	0.010320
55385	0.018627	-8.035195	5.537782	-0.339156	0.445570	-0.070092	-0.871179	0.490605	0.015846	0.010165
55386	0.310443	-8.125072	5.264201	-0.039606	0.174717	-0.128016	-0.870831	0.491230	0.015751	0.009926
55387	0.282137	-8.393814	5.104825	-0.071699	-0.086845	0.014939	-0.870401	0.491994	0.015657	0.009995
55388	0.131098	-8.274659	5.294062	-0.221969	0.154563	0.007755	-0.869968	0.492754	0.015620	0.010218
55389	0.236137	-8.234746	5.206626	-0.116534	0.118400	-0.068554	-0.869502	0.493570	0.015747	0.010304
55390	0.220019	-8.225612	5.026716	-0.131905	-0.012450	-0.171142	-0.869068	0.494331	0.015899	0.010217
55391	0.486891	-8.403899	4.633111	0.134251	-0.426015	-0.214314	-0.868672	0.495027	0.016188	0.009753
55392	0.645544	-8.538933	4.630436	0.289222	-0.487004	-0.094138	-0.868475	0.495375	0.016404	0.009264
55393	0.425098	-8.704584	4.938829	0.060062	-0.303327	0.199650	-0.868388	0.495531	0.016283	0.009258
55394	0.316597	-8.667403	5.030544	-0.047706	-0.205288	0.211586	-0.868467	0.495393	0.016174	0.009442
55395	0.257017	-8.413150	5.086560	-0.099500	-0.029597	0.021410	-0.868608	0.495148	0.015962	0.009708
55396	0.160581	-8.321952	5.075651	-0.193199	0.005371	-0.065609	-0.868637	0.495093	0.015963	0.009900
55397	0.330086	-8.442015	4.861098	-0.026745	-0.237817	-0.068480	-0.868448	0.495419	0.016067	0.010028
55398	0.606508	-8.392984	4.828084	0.249689	-0.234659	-0.117172	-0.868282	0.495707	0.016036	0.010170
55399	0.680642	-8.302774	4.883618	0.329230	-0.130816	-0.162634	-0.867925	0.496345	0.015316	0.010621
55400	0.569490	-8.357296	4.948661	0.222383	-0.092683	-0.086439	-0.867734	0.496689	0.014607	0.011183
55401	0.563603	-8.259410	4.986658	0.226702	-0.003214	-0.150864	-0.867574	0.496978	0.013786	0.011748
55402	0.521671	-8.065334	4.938166	0.199406	0.062488	-0.343603	-0.867362	0.497355	0.013136	0.012184
55403	0.406222	-8.092290	5.095911	0.089109	0.191177	-0.243258	-0.867229	0.497597	0.012486	0.012494
55404	0.194852	-8.218838	5.202188	-0.119015	0.220666	-0.087095	-0.867294	0.497493	0.011962	0.012560
55405	0.265362	-8.300049	5.115019	-0.043574	0.101180	-0.060123	-0.867344	0.497418	0.011731	0.012347
55406	0.509270	-8.408534	4.951722	0.204056	-0.098923	-0.043812	-0.867378	0.497371	0.011484	0.012072
55407	0.592455	-8.451879	4.872592	0.292890	-0.191352	-0.045138	-0.867426	0.497299	0.011269	0.011800
55408	0.583177	-8.449027	4.823963	0.290712	-0.235082	-0.073232	-0.867576	0.497048	0.010966	0.011595
55409	0.428947	-8.388064	4.989186	0.145791	-0.069490	-0.044909	-0.867894	0.496505	0.010431	0.011543
55410	0.311042	-8.290941	5.089335	0.041244	0.057576	-0.079612	-0.868100	0.496160	0.009683	0.011591
55411	0.176601	-8.284518	5.102614	-0.080693	0.068682	-0.081817	-0.868165	0.496058	0.008912	0.011660
55412	0.262683	-8.306168	5.059725	0.017069	0.019281	-0.083269	-0.868121	0.496147	0.008190	0.011672
55413	0.226761	-8.333914	5.062995	-0.007913	0.010391	-0.058750	-0.868056	0.496273	0.007531	0.011658
55414	0.254678	-8.298490	4.998722	0.031791	-0.027217	-0.121699	-0.868154	0.496112	0.006988	0.011526
55415	0.304167	-8.295272	5.004171	0.093196	-0.024189	-0.120603	-0.868187	0.496065	0.006224	0.011477
55416	0.119628	-8.301937	5.082964	-0.076295	0.041834	-0.077936	-0.868193	0.496064	0.005179	0.011591
55417	0.198334	-8.336307	4.993639	0.016287	-0.051424	-0.093281	-0.868072	0.496286	0.004415	0.011507
55418	0.298958	-8.449581	4.878321	0.127322	-0.208107	-0.054446	-0.868071	0.496297	0.003671	0.011351
55419	0.189205	-8.444752	4.710987	0.029511	-0.352006	-0.147377	-0.868342	0.495833	0.003126	0.011059
55420	0.277561	-8.284975	4.937495	0.134313	-0.088773	-0.165368	-0.868678	0.495257	0.002785	0.010548
55421	0.293303	-8.384119	4.940868	0.158435	-0.152419	-0.079071	-0.869103	0.494521	0.002381	0.010174
55422	0.146293	-8.418684	5.046455	0.022987	-0.093247	0.003274	-0.869460	0.493896	0.001658	0.010146
55423	0.148078	-8.551753	5.049035	0.036636	-0.169518	0.117925	-0.869540	0.493753	0.000584	0.010338
55424	0.089479	-8.582703	5.066546	-0.005968	-0.174664	0.152758	-0.869692	0.493478	-0.000597	0.010721
55425	0.080735	-8.504140	4.864632	-0.002371	-0.310079	-0.020068	-0.869758	0.493353	-0.001428	0.011004
55426	0.021054	-8.464068	4.874481	-0.051747	-0.284229	-0.049594	-0.869925	0.493052	-0.002026	0.011207
55427	0.069036	-8.384633	4.962804	0.006510	-0.175919	-0.070754	-0.870121	0.492699	-0.002581	0.011435
55428	0.163168	-8.343555	4.804621	0.105538	-0.300952	-0.188541	-0.870404	0.492189	-0.003180	0.011701
55429	0.395092	-8.354393	4.768313	0.345123	-0.349823	-0.197736	-0.870415	0.492154	-0.004048	0.012103
55430	0.817869	-8.535239	4.655639	0.771234	-0.556436	-0.102396	-0.870567	0.491872	-0.004719	0.012399
55431	1.010617	-8.616566	4.663052	0.971508	-0.611658	-0.030427	-0.871001	0.491083	-0.005602	0.012809
55432	1.000143	-8.554630	4.653370	0.971953	-0.611251	-0.090679	-0.871673	0.489858	-0.006667	0.013442
55433	1.046709	-8.449826	4.996976	1.041799	-0.295266	0.000177	-0.872297	0.488702	-0.008050	0.014292
55434	1.026226	-8.204602	5.035497	1.043606	-0.161245	-0.189297	-0.872947	0.487476	-0.009842	0.015316
55435	0.852814	-8.180990	5.188217	0.896009	-0.039753	-0.129248	-0.873387	0.486607	-0.011735	0.016461
55436	0.897813	-7.875822	5.181938	0.964853	0.094873	-0.392118	-0.873790	0.485793	-0.013461	0.017739
55437	1.037147	-7.861638	5.201296	1.119795	0.093500	-0.396118	-0.874060	0.485209	-0.014998	0.019134
55438	1.212560	-7.630222	4.782692	1.291627	-0.168209	-0.820023	-0.874793	0.483769	-0.016629	0.020674
55439	1.318773	-7.555033	4.979654	1.422709	0.000151	-0.779945	-0.875322	0.482669	-0.018578	0.022296
55440	1.343966	-7.713905	5.153543	1.472266	0.021991	-0.555186	-0.876173	0.480958	-0.020749	0.023872
55441	1.318683	-7.999202	5.341765	1.476857	-0.020906	-0.216918	-0.877086	0.479084	-0.023442	0.025461
55442	0.925264	-7.812493	5.252038	1.113799	-0.021028	-0.419411	-0.878394	0.476449	-0.026371	0.026943
55443	0.690140	-8.076972	5.498896	0.922519	-0.008247	-0.060760	-0.879743	0.473763	-0.028692	0.027868
55444	1.088607	-8.174253	4.901284	1.298180	-0.655324	-0.330557	-0.881421	0.470483	-0.030750	0.028235
55445	0.968039	-8.073294	5.115264	1.229061	-0.490372	-0.297994	-0.883229	0.466904	-0.033206	0.028382
55446	0.985798	-7.638698	4.874816	1.270317	-0.516400	-0.801340	-0.884973	0.463427	-0.035576	0.028142
55447	0.895347	-7.523427	4.868302	1.220065	-0.520862	-0.905191	-0.886696	0.459931	-0.038226	0.027796
55448	1.039495	-7.344296	4.519644	1.377233	-0.779492	-1.272111	-0.888233	0.456684	-0.041528	0.027505
55449	1.185981	-7.124203	4.112274	1.536485	-1.054089	-1.713362	-0.889622	0.453548	-0.045924	0.027531
55450	1.296850	-6.935122	3.784589	1.672026	-1.278505	-2.088062	-0.890994	0.450208	-0.051511	0.028094
55451	0.831036	-6.435003	3.332400	1.220883	-1.353766	-2.750050	-0.892170	0.446945	-0.058337	0.029475
55452	-0.294849	-6.014428	3.589767	0.209461	-0.830535	-2.854789	-0.893099	0.443790	-0.066496	0.031661
55453	-1.926370	-6.257149	4.194552	-1.227760	-0.362863	-2.143459	-0.894151	0.440151	-0.074996	0.033705
55454	-3.306218	-7.528592	5.803815	-2.207370	0.215429	0.004360	-0.895436	0.436112	-0.082535	0.034480
55455	-3.465131	-10.234273	7.866441	-1.836540	0.045745	3.425550	-0.896465	0.432968	-0.088237	0.033226
55456	-4.705389	-12.897107	8.679770	-2.705568	-0.964019	6.173583	-0.897967	0.428875	-0.093502	0.031297
55457	-6.294520	-13.015154	9.586064	-3.940135	-0.296389	7.077885	-0.899836	0.424500	-0.096341	0.028539
55458	-5.471108	-11.971126	8.950873	-3.217461	-0.364715	5.771674	-0.901385	0.421542	-0.095847	0.024918
55459	-4.448130	-11.753974	8.361151	-2.331256	-0.925995	5.072101	-0.903118	0.418548	-0.093520	0.021208
55460	-3.815857	-11.528389	7.766719	-1.862298	-1.430746	4.409455	-0.905256	0.414792	-0.090180	0.018078
55461	-3.670425	-10.505047	7.183075	-1.920150	-1.367257	3.220524	-0.908460	0.408581	-0.086643	0.015982
55462	-3.449006	-8.278138	6.278389	-2.015701	-0.736875	0.921932	-0.912029	0.401502	-0.082421	0.014393
55463	-2.622087	-6.726062	5.755494	-1.424418	-0.288117	-0.695303	-0.915342	0.395040	-0.076988	0.012874
55464	-1.863574	-5.042989	4.928739	-0.939456	0.105274	-2.580671	-0.918510	0.388715	-0.071467	0.011524
55465	-1.725340	-3.737390	4.523965	-0.967089	0.639761	-3.807205	-0.921111	0.383490	-0.066262	0.009994
55466	-1.913785	-2.664601	4.439486	-1.249738	1.290333	-4.593073	-0.923439	0.378657	-0.061745	0.008183
55467	-1.987465	-1.782653	4.069132	-1.436765	1.621163	-5.454598	-0.925176	0.375086	-0.057685	0.005720
55468	-1.682255	-1.487247	3.141832	-1.280732	1.147625	-6.355007	-0.926232	0.373098	-0.053723	0.002426
55469	-1.388413	-1.143623	3.731616	-0.970314	1.758385	-6.189579	-0.927347	0.370887	-0.049665	-0.001658
55470	-0.531827	-0.733173	3.944820	-0.150635	2.155941	-6.390541	-0.927665	0.370539	-0.045777	-0.006648
55471	0.426613	-1.328428	3.979260	0.796563	1.724251	-6.047908	-0.927509	0.371242	-0.041804	-0.012619
55472	1.852175	-3.594686	6.363828	2.463871	1.707931	-2.894416	-0.927082	0.372504	-0.037201	-0.019399
55473	3.462591	-7.169188	8.189682	4.357632	0.423112	0.736677	-0.926749	0.373275	-0.033136	-0.026540
55474	3.974723	-11.336914	10.896004	5.301111	-0.684165	5.499946	-0.926742	0.372921	-0.031914	-0.032586
55475	3.223017	-12.689357	11.874250	4.774228	-1.022117	7.174556	-0.927241	0.371234	-0.033578	-0.035812
55476	2.285195	-11.059978	12.089058	3.774166	0.239625	6.292855	-0.927630	0.370049	-0.034657	-0.036952
55477	2.307883	-10.052201	11.622745	3.712199	0.647750	5.262499	-0.927525	0.370243	-0.034888	-0.037407
55478	2.119243	-9.500522	10.881425	3.450355	0.559756	4.362578	-0.927145	0.371106	-0.034743	-0.038413
55479	2.093102	-9.286376	9.715890	3.374520	-0.046461	3.364060	-0.926700	0.371998	-0.035290	-0.039977
55480	2.041455	-8.791431	8.610667	3.266003	-0.408169	2.219217	-0.926150	0.373057	-0.036450	-0.041801
55481	1.690567	-8.053613	7.619569	2.846900	-0.541835	1.021419	-0.925838	0.373472	-0.038227	-0.043374
55482	1.269054	-6.920702	6.603931	2.308184	-0.429315	-0.452862	-0.925765	0.373315	-0.040115	-0.044558
55483	1.027661	-5.803297	5.773243	1.942544	-0.201902	-1.797056	-0.925767	0.373031	-0.041887	-0.045264
55484	0.761921	-4.716822	5.014446	1.543457	0.047991	-3.060725	-0.925879	0.372579	-0.043403	-0.045268
55485	0.646176	-3.713304	4.154569	1.284158	0.178741	-4.355069	-0.925797	0.372745	-0.044798	-0.044194
55486	0.974574	-2.947859	3.503547	1.492707	0.305036	-5.386257	-0.925514	0.373615	-0.045667	-0.041836
55487	1.505232	-2.863405	3.010618	1.978376	0.050515	-5.861472	-0.925065	0.375076	-0.046209	-0.037917
55488	1.140766	-3.357663	3.658922	1.704110	0.116285	-5.012124	-0.925156	0.375116	-0.048714	-0.031654
55489	0.076535	-3.715321	4.435173	0.744675	0.354529	-4.085562	-0.925256	0.374871	-0.053039	-0.023673
55490	-1.000700	-4.999730	6.061396	-0.051846	0.542439	-1.910657	-0.924824	0.375518	-0.058826	-0.015040
55491	-2.093437	-7.734945	8.405600	-0.652166	0.227497	1.779908	-0.924016	0.376758	-0.064759	-0.007333
55492	-3.154638	-11.537068	10.020496	-1.191919	-1.308684	5.689925	-0.923052	0.377767	-0.072575	-0.000228
55493	-4.993661	-10.839551	10.236371	-2.875247	-0.496308	5.637226	-0.922976	0.375810	-0.082516	0.008557
55494	-5.973377	-8.387227	10.459667	-3.773809	1.590792	4.281885	-0.922181	0.375853	-0.089305	0.018494
55495	-5.290184	-8.016440	10.224653	-3.077751	1.771529	3.758591	-0.920543	0.378168	-0.093605	0.028779
55496	-5.034681	-8.069854	9.736379	-2.875078	1.517513	3.404614	-0.919130	0.379446	-0.098324	0.039409
55497	-5.930740	-6.508848	9.547636	-3.720081	2.788204	2.314978	-0.917375	0.381034	-0.103644	0.049934
55498	-5.554670	-6.651890	8.311868	-3.575796	1.957334	1.481932	-0.914687	0.385311	-0.106902	0.058785
55499	-4.778769	-7.205352	7.384045	-3.032508	0.974179	1.101974	-0.911726	0.390079	-0.110109	0.066857
55500	-4.321037	-7.437895	6.628795	-2.771034	0.377836	0.680673	-0.908642	0.394992	-0.113152	0.074475
55501	-4.078466	-6.979282	6.167434	-2.617573	0.488884	-0.000017	-0.905423	0.399724	-0.116745	0.082468
55502	-3.880830	-6.447209	5.835013	-2.462631	0.734564	-0.643813	-0.901873	0.404789	-0.120482	0.090862
55503	-3.541273	-5.773106	5.431584	-2.181942	0.967031	-1.465615	-0.898350	0.409391	-0.124112	0.099807
55504	-3.399473	-5.236598	5.012244	-2.105209	1.123196	-2.170308	-0.894793	0.413654	-0.127785	0.109120
55505	-3.380770	-4.785709	4.636386	-2.137889	1.273191	-2.767427	-0.891131	0.417859	-0.131347	0.118436
55506	-3.418156	-4.783841	4.532242	-2.180173	1.341522	-2.844486	-0.887271	0.422421	-0.134502	0.127357
55507	-3.414118	-5.172967	4.516539	-2.206925	1.216416	-2.569528	-0.883588	0.426773	-0.136836	0.135692
55508	-3.302753	-5.553597	4.714128	-2.071111	1.208743	-2.182364	-0.880141	0.430810	-0.138558	0.143372
55509	-3.128809	-5.908714	4.791803	-1.926273	1.108345	-1.892869	-0.876625	0.435204	-0.139860	0.150217
55510	-3.144163	-6.467162	4.927836	-1.969859	1.004812	-1.380466	-0.873382	0.439307	-0.140752	0.156210
55511	-3.386493	-7.162852	5.167209	-2.207931	0.988923	-0.668244	-0.870485	0.442904	-0.141518	0.161443
55512	-3.802210	-7.494178	5.378978	-2.558533	1.232083	-0.247757	-0.867986	0.445934	-0.142062	0.166019
55513	-3.908897	-7.611919	5.422228	-2.662277	1.345695	-0.131683	-0.865570	0.449295	-0.141995	0.169587
55514	-3.679820	-7.984911	5.230404	-2.606251	1.008065	0.028421	-0.863300	0.452934	-0.141191	0.172131
55515	-3.142223	-8.151000	5.102869	-2.222280	0.690513	0.032901	-0.861446	0.456404	-0.139456	0.173661
55516	-2.389442	-8.381547	4.756122	-1.753295	0.070207	-0.040226	-0.860123	0.459285	-0.137123	0.174476
55517	-2.098670	-8.522691	4.891158	-1.497015	0.035417	0.123177	-0.859057	0.461881	-0.134612	0.174835
55518	-1.579313	-8.993978	5.043302	-1.092919	-0.265581	0.558206	-0.858508	0.463821	-0.131588	0.174694
55519	-0.989917	-9.137446	4.779156	-0.742033	-0.771598	0.491042	-0.859482	0.462731	-0.128518	0.175082
55520	-0.332499	-8.164636	4.565158	-0.115053	-0.733464	-0.482056	-0.861213	0.460091	-0.125191	0.175943
55521	0.685755	-8.276491	4.706915	0.760539	-1.150916	-0.366952	-0.862768	0.458055	-0.120808	0.176698
55522	1.501653	-8.409523	4.803916	1.423419	-1.524216	-0.236546	-0.864545	0.455349	-0.116643	0.177803
55523	1.219307	-8.659793	5.553244	1.307153	-1.026540	0.412490	-0.865853	0.453080	-0.113861	0.179030
55524	0.181603	-8.082125	5.679005	0.468887	-0.229211	0.053017	-0.866949	0.451309	-0.111605	0.179625
55525	-0.245117	-8.092592	6.078179	0.177109	0.224524	0.307219	-0.867253	0.451576	-0.109327	0.178882
55526	0.535968	-8.859127	5.704195	0.564791	-0.761350	0.694951	-0.867252	0.453006	-0.106575	0.176922
55527	1.827089	-9.481115	5.612172	1.566684	-1.648907	1.121331	-0.867072	0.454404	-0.104775	0.175288
55528	2.344414	-9.180435	5.789980	2.160524	-1.533016	0.970749	-0.866829	0.455168	-0.104050	0.174936
55529	2.428329	-8.389899	5.902375	2.440846	-1.044564	0.389095	-0.866412	0.455699	-0.104209	0.175525
55530	1.951997	-7.785755	6.013063	2.170596	-0.440333	-0.031081	-0.866052	0.456087	-0.104454	0.176146
55531	1.450251	-7.308480	5.969549	1.798918	-0.009518	-0.436311	-0.865835	0.456494	-0.104400	0.176193
55532	1.230524	-7.518465	5.769702	1.484748	-0.167137	-0.373486	-0.865579	0.457395	-0.103771	0.175486
55533	1.270792	-7.326912	5.432088	1.446399	-0.312962	-0.723349	-0.865258	0.458401	-0.103017	0.174882
55534	1.631056	-7.011607	4.948787	1.677620	-0.621987	-1.262127	-0.864398	0.460281	-0.102184	0.174689
55535	1.846758	-7.720138	4.756983	1.661014	-1.178852	-0.785448	-0.862997	0.462795	-0.102000	0.175081
55536	1.219465	-8.219332	4.806064	1.000911	-1.109634	-0.330622	-0.861952	0.464314	-0.102470	0.175930
55537	0.567641	-8.613677	4.991224	0.390975	-0.886318	0.111601	-0.861260	0.465228	-0.103234	0.176454
55538	0.369482	-8.788267	5.008610	0.192779	-0.871839	0.269923	-0.861023	0.465492	-0.104147	0.176381
55539	0.254676	-8.803755	5.224552	0.178706	-0.671283	0.404176	-0.861015	0.465436	-0.105233	0.175923
55540	0.121082	-8.456905	5.263767	0.165716	-0.417318	0.139170	-0.861089	0.465195	-0.106419	0.175482
55541	-0.102443	-8.134595	5.238024	0.043262	-0.185925	-0.138881	-0.860927	0.465382	-0.107627	0.175046
55542	-0.241773	-8.032984	5.070892	-0.097205	-0.203521	-0.312671	-0.860747	0.465632	-0.108740	0.174576
55543	-0.434170	-7.911191	4.933032	-0.274101	-0.168751	-0.484954	-0.860726	0.465675	-0.109719	0.173952
55544	-0.477642	-8.000582	4.948896	-0.303347	-0.190239	-0.399889	-0.860791	0.465659	-0.110740	0.173026
55545	-0.638197	-8.259515	4.910304	-0.491436	-0.296777	-0.199762	-0.860997	0.465477	-0.111596	0.171936
55546	-0.632285	-8.277069	5.075635	-0.408192	-0.191469	-0.093202	-0.861114	0.465523	-0.112319	0.170749
55547	-0.485252	-8.625678	5.283617	-0.246077	-0.277067	0.307444	-0.861137	0.465736	-0.112868	0.169684
55548	-0.416307	-8.737189	5.509729	-0.105943	-0.196562	0.522641	-0.861254	0.465479	-0.113652	0.169273
55549	-0.791075	-8.425720	5.624208	-0.333116	0.192423	0.341240	-0.861241	0.465173	-0.114725	0.169458
55550	-0.909144	-8.435836	5.510635	-0.468757	0.145892	0.292556	-0.861027	0.465298	-0.115524	0.169660
55551	-0.997854	-8.240366	5.456673	-0.519605	0.244066	0.104220	-0.860838	0.465357	-0.116317	0.169917
55552	-0.910639	-8.118662	5.240479	-0.482009	0.113964	-0.119431	-0.860512	0.465803	-0.116931	0.169921
55553	-0.921636	-8.106595	5.198683	-0.491376	0.101464	-0.151382	-0.860171	0.466222	-0.117692	0.169978
55554	-0.967853	-8.229502	5.148663	-0.560106	0.028283	-0.073302	-0.859770	0.466767	-0.118420	0.170002
55555	-1.047536	-8.235081	5.153401	-0.617454	0.071293	-0.061530	-0.859364	0.467192	-0.119302	0.170269
55556	-0.976556	-8.218850	5.109791	-0.552958	0.028477	-0.101533	-0.858935	0.467707	-0.119927	0.170583
55557	-0.855326	-8.177740	5.078965	-0.436340	-0.010410	-0.158031	-0.858437	0.468260	-0.120579	0.171109
55558	-0.883244	-8.178905	5.091646	-0.448363	0.023224	-0.148430	-0.857923	0.468769	-0.121308	0.171779
55559	-0.994034	-8.112594	4.980725	-0.570549	0.032550	-0.258458	-0.857408	0.469323	-0.121840	0.172459
55560	-0.988780	-8.303685	4.962170	-0.602322	-0.061864	-0.107775	-0.856698	0.470306	-0.122224	0.173036
55561	-0.843697	-8.604556	4.873878	-0.556907	-0.320845	0.091443	-0.856218	0.470933	-0.122305	0.173650
55562	-0.709767	-8.666911	5.096700	-0.367869	-0.221034	0.257628	-0.855703	0.471603	-0.122167	0.174467
55563	-0.567789	-9.087987	5.004333	-0.364172	-0.544302	0.556898	-0.855261	0.471985	-0.121888	0.175789
55564	-0.905423	-8.673538	5.280050	-0.507590	0.021440	0.369200	-0.855068	0.471423	-0.122028	0.178122
55565	-1.149591	-8.321748	5.043361	-0.770663	0.128935	-0.045500	-0.854533	0.471437	-0.122045	0.180623
55566	-0.999124	-8.010270	5.243511	-0.516761	0.388873	-0.208586	-0.853849	0.471797	-0.121945	0.182973
55567	-1.142163	-8.047323	5.169758	-0.700296	0.397718	-0.213642	-0.853112	0.472237	-0.121789	0.185365
55568	-1.184394	-8.259455	5.193448	-0.796837	0.347450	-0.023022	-0.852708	0.472256	-0.121175	0.187564
55569	-0.896786	-8.120205	5.111155	-0.567545	0.238286	-0.195676	-0.852449	0.471884	-0.120862	0.189864
55570	-0.849846	-7.888404	5.167512	-0.475224	0.381726	-0.363838	-0.851936	0.471810	-0.120996	0.192250
55571	-0.874769	-7.909108	5.075219	-0.555423	0.323886	-0.396551	-0.851448	0.471718	-0.121004	0.194619
55572	-0.758156	-8.222244	4.985721	-0.575888	0.063995	-0.184514	-0.850938	0.471797	-0.120763	0.196796
55573	-0.841731	-8.407434	5.000131	-0.707063	0.035419	-0.020163	-0.850436	0.471777	-0.120778	0.198990
55574	-0.825397	-8.485335	5.111919	-0.687744	0.079841	0.103688	-0.850279	0.471204	-0.120637	0.201097
55575	-0.918829	-8.127178	5.217799	-0.667835	0.371249	-0.141244	-0.850231	0.470252	-0.120784	0.203424
55576	-0.910635	-8.098824	5.140048	-0.705840	0.319019	-0.208507	-0.850107	0.469630	-0.120641	0.205454
55577	-0.668981	-8.139176	4.984903	-0.585055	0.069831	-0.263040	-0.850066	0.468975	-0.120411	0.207248
55578	-0.740169	-8.227677	4.994924	-0.687178	0.063591	-0.183799	-0.850057	0.468271	-0.120238	0.208969
55579	-0.575163	-8.216131	5.227387	-0.468865	0.156697	-0.070165	-0.850224	0.467444	-0.119737	0.210426
55580	-0.587744	-8.249520	5.305873	-0.482370	0.191919	-0.000312	-0.850516	0.466248	-0.119409	0.212078
55581	-0.792760	-8.103081	5.312585	-0.650791	0.344946	-0.118911	-0.851053	0.464647	-0.118914	0.213708
55582	-0.674860	-8.038389	5.329536	-0.551661	0.309784	-0.165165	-0.851575	0.463225	-0.118413	0.214989
55583	-0.434461	-8.008888	5.415903	-0.322027	0.249173	-0.143294	-0.852135	0.461776	-0.118110	0.216052
55584	-0.465078	-7.841388	5.438311	-0.315062	0.336006	-0.269804	-0.852722	0.460203	-0.118065	0.217116
55585	-0.531252	-7.731420	5.523977	-0.325328	0.458000	-0.312386	-0.853205	0.458776	-0.118137	0.218197
55586	-0.513384	-7.656393	5.476623	-0.322021	0.426672	-0.400381	-0.853706	0.457263	-0.118333	0.219304
55587	-0.759829	-7.673044	5.429306	-0.572497	0.479007	-0.411993	-0.854137	0.455918	-0.118586	0.220288
55588	-0.798554	-7.679045	5.275955	-0.680451	0.365942	-0.493666	-0.854445	0.455011	-0.118489	0.221019
55589	-0.484457	-8.051291	5.233164	-0.542702	-0.014351	-0.213249	-0.854785	0.454359	-0.117607	0.221516
55590	-0.317245	-8.380567	5.268067	-0.503502	-0.254487	0.075113	-0.855673	0.452587	-0.116437	0.222330
55591	-0.540374	-8.168241	5.372629	-0.637424	-0.003948	-0.041780	-0.856933	0.449902	-0.115322	0.223504
55592	-0.682105	-7.761634	5.571050	-0.610413	0.360869	-0.260641	-0.858280	0.446819	-0.114378	0.225002
55593	-0.586137	-7.403933	5.434214	-0.521083	0.350557	-0.631308	-0.859441	0.444157	-0.113198	0.226433
55594	-0.457905	-7.426316	5.223477	-0.543378	0.084637	-0.738449	-0.860614	0.441415	-0.111940	0.227960
55595	-0.395348	-7.530416	5.416328	-0.490039	0.093985	-0.541722	-0.861690	0.438888	-0.110614	0.229416
55596	-0.090165	-8.017206	5.721504	-0.299318	-0.140944	0.031574	-0.862909	0.436058	-0.109488	0.230768
55597	0.105592	-8.008370	6.119704	-0.016210	-0.013284	0.266746	-0.864246	0.432756	-0.108875	0.232266
55598	0.564704	-7.778163	6.177596	0.434256	-0.137720	0.125797	-0.865380	0.429969	-0.108012	0.233620
55599	0.809176	-7.656186	6.319986	0.697256	-0.145808	0.122423	-0.866411	0.427454	-0.106977	0.234887
55600	0.669607	-7.504739	6.322873	0.582134	-0.033845	0.006065	-0.867410	0.425344	-0.105436	0.235723
55601	0.979184	-7.558825	6.362568	0.804309	-0.211272	0.081008	-0.868000	0.424616	-0.103289	0.235816
55602	1.487760	-7.873146	6.379533	1.109531	-0.625736	0.349772	-0.868608	0.424109	-0.101127	0.235425
55603	1.539805	-7.796695	6.410243	1.157512	-0.590330	0.314616	-0.869214	0.423734	-0.099110	0.234722
55604	1.542892	-7.823520	6.277803	1.076304	-0.693478	0.255054	-0.869731	0.423736	-0.097221	0.233588
55605	1.639622	-7.706718	6.131253	1.128383	-0.766927	0.077342	-0.870122	0.424236	-0.095414	0.231967
55606	1.682889	-7.842892	5.742593	0.974881	-1.111341	-0.058973	-0.870437	0.424996	-0.093918	0.229994
55607	1.676282	-7.736681	6.194048	1.163034	-0.725289	0.144907	-0.871017	0.425350	-0.092400	0.227748
55608	1.814556	-7.367167	6.142533	1.384669	-0.612469	-0.168724	-0.871458	0.425996	-0.090996	0.225407
55609	2.014877	-7.528025	5.871497	1.418940	-0.963340	-0.207277	-0.871740	0.426880	-0.089753	0.223129
55610	1.954061	-7.364318	5.866079	1.420900	-0.831109	-0.338897	-0.872095	0.427498	-0.088649	0.220991
55611	1.981433	-7.349524	5.666460	1.387487	-0.960982	-0.474501	-0.872504	0.428021	-0.087580	0.218777
55612	1.901395	-7.114977	5.548273	1.356201	-0.869896	-0.733837	-0.873081	0.428187	-0.086656	0.216511
55613	2.157334	-7.000237	5.689225	1.675319	-0.814586	-0.726741	-0.873538	0.428723	-0.085686	0.213978
55614	2.190327	-7.098986	5.650775	1.673493	-0.901633	-0.674260	-0.874110	0.428839	-0.085091	0.211630
55615	1.974657	-6.825404	5.715332	1.598206	-0.605262	-0.855578	-0.874531	0.429043	-0.084899	0.209547
55616	2.045085	-6.716212	5.830497	1.749606	-0.486070	-0.869135	-0.874699	0.429728	-0.084910	0.207427
55617	2.093728	-6.950006	5.699929	1.706696	-0.713143	-0.770896	-0.874631	0.430816	-0.085242	0.205309
55618	2.038072	-7.538618	5.785247	1.545878	-0.935831	-0.263450	-0.874560	0.431856	-0.085886	0.203148
55619	1.689336	-8.025025	6.017214	1.205600	-0.882044	0.248631	-0.874784	0.432097	-0.087008	0.201183
55620	1.141846	-8.183816	6.305829	0.801821	-0.536441	0.536770	-0.875064	0.432052	-0.088511	0.199398
55621	1.010754	-8.526947	6.395465	0.661477	-0.618103	0.855614	-0.875362	0.432070	-0.089858	0.197439
55622	0.883705	-8.624798	6.464235	0.587884	-0.583914	0.970059	-0.875763	0.431789	-0.091449	0.195538
55623	0.375477	-8.366617	6.223952	0.165738	-0.415115	0.612225	-0.876158	0.431445	-0.093281	0.193651
55624	0.206876	-7.966260	6.024046	0.102831	-0.277450	0.172573	-0.876367	0.431544	-0.095187	0.191546
55625	0.429144	-7.878513	5.762781	0.293511	-0.515840	-0.060134	-0.876511	0.431878	-0.097021	0.189199
55626	0.550346	-7.541537	5.618571	0.495213	-0.490498	-0.418014	-0.876752	0.431666	-0.099490	0.187278
55627	0.298494	-7.122999	5.320407	0.324565	-0.377686	-0.930982	-0.876829	0.431434	-0.102364	0.185897
55628	0.091097	-7.263253	4.891749	0.011238	-0.690117	-1.082527	-0.876752	0.431342	-0.105410	0.184769
55629	-0.023015	-7.485414	4.367529	-0.272419	-1.158141	-1.228312	-0.876833	0.430679	-0.108703	0.184019
55630	-0.173920	-7.295393	4.342397	-0.324835	-1.030889	-1.390045	-0.877030	0.429398	-0.112332	0.183893
55631	-0.191589	-7.107630	4.228157	-0.291757	-1.027450	-1.609554	-0.877077	0.427931	-0.116470	0.184516
55632	-0.702006	-7.199499	4.791269	-0.519447	-0.504311	-1.166457	-0.877000	0.425965	-0.121640	0.186086
55633	-1.535502	-7.851488	5.039362	-1.264824	-0.391040	-0.450767	-0.876979	0.423304	-0.127509	0.188316
55634	-2.144323	-7.609226	5.563741	-1.489069	0.319308	-0.266296	-0.877374	0.419283	-0.133554	0.191259
55635	-2.772129	-7.654237	6.006263	-1.810749	0.815402	0.107129	-0.877246	0.416072	-0.139820	0.194356
55636	-3.508552	-8.109232	6.518800	-2.269302	1.185403	0.864787	-0.876759	0.413363	-0.146294	0.197543
55637	-3.927620	-8.421668	6.783081	-2.501637	1.336859	1.336956	-0.876227	0.410789	-0.152408	0.200626
55638	-4.333052	-8.527875	6.932814	-2.719381	1.539127	1.580254	-0.875472	0.408797	-0.158055	0.203597
55639	-4.370411	-8.720927	7.049245	-2.659113	1.504944	1.828216	-0.874627	0.407323	-0.162678	0.206522
55640	-4.408303	-8.622526	6.781496	-2.722467	1.408650	1.605428	-0.873744	0.406017	-0.166517	0.209745
55641	-4.451322	-8.680569	6.393138	-2.905726	1.158510	1.423560	-0.872871	0.405122	-0.169296	0.212865
55642	-4.184934	-8.726923	5.965944	-2.866584	0.740784	1.164527	-0.872160	0.404147	-0.171183	0.216100
55643	-3.906767	-8.215151	5.904882	-2.534096	0.870316	0.696359	-0.871699	0.402885	-0.172106	0.219554
55644	-3.652677	-8.070725	5.628879	-2.435190	0.662843	0.375213	-0.871266	0.401824	-0.172031	0.223246
55645	-3.766626	-7.873742	5.411246	-2.620000	0.724020	0.090649	-0.870741	0.400893	-0.171403	0.227410
55646	-3.450830	-7.579211	5.310146	-2.371462	0.694548	-0.250063	-0.870062	0.400575	-0.170031	0.231563
55647	-3.281680	-7.208150	5.185822	-2.239533	0.777113	-0.647545	-0.869345	0.400096	-0.168514	0.236145
55648	-3.444267	-6.968073	5.115495	-2.393541	0.997874	-0.876238	-0.868577	0.399644	-0.166762	0.240931
55649	-3.184284	-6.527813	5.237785	-2.044400	1.217842	-1.179998	-0.867750	0.399322	-0.164829	0.245730
55650	-3.002511	-6.393077	5.140721	-1.947799	1.178429	-1.378796	-0.866440	0.399806	-0.163206	0.250601
55651	-2.991435	-6.778216	4.975919	-2.174304	0.916751	-1.205473	-0.864590	0.401251	-0.162024	0.255403
55652	-3.143474	-6.920333	5.060271	-2.335081	1.045101	-1.047218	-0.862750	0.402336	-0.160991	0.260518
55653	-3.058446	-6.934517	5.012805	-2.326312	1.028192	-1.089131	-0.860822	0.403296	-0.160066	0.265926
55654	-2.833870	-7.227843	5.047421	-2.258904	0.827250	-0.870567	-0.858797	0.404138	-0.159430	0.271519
55655	-2.834154	-7.149539	5.025772	-2.277009	0.919222	-0.959632	-0.856981	0.404113	-0.158894	0.277541
55656	-3.190819	-6.952346	5.036014	-2.515322	1.309082	-1.104251	-0.854735	0.404612	-0.158684	0.283789
55657	-3.351311	-6.956163	5.229053	-2.569908	1.593934	-0.991299	-0.852348	0.405180	-0.158349	0.290272
55658	-3.301870	-6.899848	5.189647	-2.548528	1.647798	-1.081602	-0.849659	0.406077	-0.158339	0.296834
55659	-2.933273	-7.327805	5.333037	-2.361742	1.367876	-0.686210	-0.846688	0.407433	-0.159135	0.302974
55660	-2.288456	-7.751831	5.760867	-1.809363	1.078116	-0.113263	-0.843643	0.409026	-0.160516	0.308543
55661	-1.532786	-8.581926	6.279535	-1.272457	0.563669	0.840670	-0.840318	0.410633	-0.163531	0.313854
55662	-0.321532	-9.254703	6.535208	-0.464782	-0.343855	1.506643	-0.837037	0.412011	-0.166849	0.319025
55663	0.594279	-8.908567	6.721746	0.471025	-0.659413	1.333653	-0.834035	0.411392	-0.170549	0.325660
55664	0.710966	-8.562705	7.010862	0.858988	-0.411480	1.235860	-0.830673	0.410737	-0.174213	0.333057
55665	0.757679	-8.621651	7.420014	1.101380	-0.241445	1.531571	-0.827195	0.409887	-0.178210	0.340561
55666	0.614956	-9.126355	7.693074	0.958169	-0.208334	2.099088	-0.823590	0.409661	-0.182248	0.347367
55667	0.766118	-9.482413	7.953373	1.072569	-0.321679	2.536619	-0.820456	0.409057	-0.185297	0.353820
55668	1.210618	-8.979631	7.684143	1.421877	-0.573798	1.968415	-0.817494	0.408303	-0.187274	0.360445
55669	1.416369	-8.465491	6.915311	1.301415	-0.903612	1.095193	-0.814045	0.408301	-0.189093	0.367238
55670	1.457252	-8.592978	6.323130	0.885912	-1.258582	0.844504	-0.810360	0.408977	-0.190679	0.373759
55671	1.641221	-8.289370	5.667399	0.713534	-1.570544	0.214808	-0.806552	0.409730	-0.192162	0.380353
55672	1.825015	-8.185859	5.004353	0.432728	-1.960150	-0.254827	-0.802416	0.410537	-0.193729	0.387372
55673	1.600714	-7.762682	4.605512	0.199170	-1.779166	-0.822315	-0.798133	0.410762	-0.195346	0.395093
55674	1.516243	-7.097260	4.324248	0.240704	-1.568936	-1.515136	-0.793642	0.410846	-0.196903	0.403197
55675	1.694861	-6.478222	4.348340	0.618609	-1.450795	-1.985794	-0.788959	0.410751	-0.198811	0.411463
55676	1.517235	-6.288397	4.367187	0.582564	-1.207381	-2.123671	-0.784206	0.410282	-0.201193	0.419776
55677	1.373334	-6.315568	4.518364	0.558918	-1.003447	-2.010849	-0.779329	0.409982	-0.204128	0.427659
55678	1.308106	-6.806586	4.546876	0.271315	-1.064837	-1.596406	-0.774854	0.409101	-0.207113	0.435134
55679	1.332603	-6.874513	4.702486	0.328902	-1.025895	-1.446839	-0.770861	0.407329	-0.210150	0.442373
55680	1.341869	-7.129090	4.779208	0.231545	-1.071524	-1.195056	-0.766792	0.405690	-0.213757	0.449170
55681	1.165502	-7.739254	4.727449	-0.233991	-1.109791	-0.739828	-0.763277	0.403355	-0.217012	0.455652
55682	0.829921	-7.935521	4.895244	-0.416302	-0.808961	-0.496206	-0.760401	0.400267	-0.219733	0.461838
55683	0.830145	-7.900719	4.887520	-0.438531	-0.819302	-0.531813	-0.757762	0.397014	-0.222335	0.467701
55684	0.872852	-7.778143	4.910369	-0.369436	-0.835083	-0.618170	-0.755091	0.394022	-0.225013	0.473237
55685	0.869290	-7.508379	4.987243	-0.194566	-0.755725	-0.790772	-0.752245	0.391104	-0.228131	0.478666
55686	0.759529	-7.203616	4.928479	-0.132832	-0.626966	-1.074948	-0.749361	0.388321	-0.231471	0.483825
55687	0.726555	-6.849976	4.835959	-0.022185	-0.570029	-1.415600	-0.746382	0.385882	-0.235335	0.488493
55688	0.728205	-6.694080	4.866214	0.091041	-0.550855	-1.523584	-0.743621	0.383595	-0.239152	0.492635
55689	0.828216	-6.253217	4.923554	0.431424	-0.555389	-1.841782	-0.740689	0.381483	-0.243802	0.496398
55690	0.634137	-6.418101	5.088896	0.413819	-0.393592	-1.617283	-0.737666	0.380032	-0.248820	0.499513
55691	0.470453	-7.016828	5.323552	0.231616	-0.334441	-1.001805	-0.735032	0.378407	-0.253811	0.502111
55692	0.526338	-7.469224	5.469958	0.150969	-0.481143	-0.553520	-0.732930	0.376710	-0.258551	0.504038
55693	0.362825	-7.762731	5.625658	0.089030	-0.396335	-0.227582	-0.731225	0.374684	-0.263379	0.505523
55694	0.096213	-7.952467	5.785765	0.056043	-0.200356	0.020030	-0.730026	0.372726	-0.267863	0.506346
55695	0.129070	-8.097092	5.853209	0.084739	-0.304421	0.174267	-0.729313	0.371111	-0.272044	0.506332
55696	0.113848	-7.883155	5.758214	0.178479	-0.330278	-0.057046	-0.728705	0.370004	-0.276651	0.505519
55697	-0.124878	-7.984185	5.618855	0.012749	-0.220032	-0.051291	-0.727860	0.370088	-0.281775	0.503842
55698	-0.092272	-9.025377	5.549051	-0.487333	-0.552137	0.756812	-0.727260	0.370798	-0.286911	0.501282
55699	-0.202874	-9.678128	5.674588	-0.663828	-0.627948	1.370871	-0.727173	0.370652	-0.291820	0.498676
55700	-0.498296	-10.186815	5.804098	-0.820500	-0.516751	1.881979	-0.727160	0.370060	-0.297065	0.496030
55701	-0.822720	-10.177610	6.503728	-0.258815	-0.137319	2.289847	-0.727035	0.369131	-0.302734	0.493471
55702	-1.019038	-10.068671	6.939719	0.200626	0.075180	2.456305	-0.726524	0.368531	-0.308829	0.490889
55703	-1.820841	-10.073302	7.501521	0.523347	0.861949	2.838027	-0.725580	0.368288	-0.314875	0.488622
55704	-2.999077	-8.881799	6.964041	0.399333	2.074661	1.672694	-0.724686	0.367111	-0.319471	0.487850
55705	-3.842064	-7.099539	6.759222	0.906853	3.235327	0.165373	-0.723303	0.367639	-0.323119	0.487102
55706	-3.293969	-7.871205	6.207283	0.351245	2.403179	0.455557	-0.721748	0.371595	-0.325964	0.484503
55707	-2.761814	-8.984128	5.889308	-0.172110	1.564532	1.166759	-0.721332	0.374406	-0.327733	0.481758
55708	-2.764420	-9.152803	5.908225	-0.176719	1.527460	1.320976	-0.721920	0.375922	-0.328531	0.479147
55709	-2.862166	-8.866911	6.028593	0.049173	1.715850	1.151412	-0.722862	0.377328	-0.328350	0.476739
55710	-2.976984	-8.520863	5.907296	0.075429	1.893862	0.806694	-0.723945	0.379131	-0.327272	0.474400
55711	-3.168328	-8.307322	6.187473	0.330956	2.216097	0.785143	-0.725401	0.381325	-0.325151	0.471870
55712	-2.858107	-8.471329	5.915050	0.118024	1.855520	0.744912	-0.727210	0.384713	-0.321904	0.468550
55713	-2.715042	-8.043287	5.668759	0.121149	1.822422	0.230444	-0.729575	0.387736	-0.317634	0.465284
55714	-2.710208	-7.451666	5.390170	0.103963	1.952722	-0.426420	-0.732437	0.391238	-0.312367	0.461406
55715	-2.530753	-7.082950	5.075280	0.012475	1.849356	-0.929532	-0.736052	0.394833	-0.306066	0.456792
55716	-2.528716	-6.698856	4.975711	0.024164	1.968344	-1.318509	-0.740369	0.398412	-0.299098	0.451290
55717	-2.463400	-6.719208	4.871420	-0.127373	1.908673	-1.369536	-0.745339	0.402169	-0.291583	0.444645
55718	-2.428163	-7.159603	4.605016	-0.607210	1.686976	-1.143969	-0.751047	0.405730	-0.283442	0.437004
55719	-2.511617	-7.571832	4.638612	-0.903656	1.657381	-0.779804	-0.757554	0.408730	-0.274549	0.428572
55720	-2.429637	-7.847630	4.648789	-1.091868	1.495736	-0.556928	-0.764558	0.411776	-0.265061	0.419088
55721	-2.307164	-7.582620	4.694755	-1.002668	1.470428	-0.774383	-0.772014	0.414044	-0.255227	0.409172
55722	-2.520007	-7.235035	4.962375	-0.902530	1.849499	-0.919740	-0.779531	0.416335	-0.245241	0.398564
55723	-2.511761	-7.106214	5.124811	-0.862969	1.931161	-0.947294	-0.787054	0.418845	-0.235114	0.387086
55724	-2.407322	-7.196372	5.043068	-1.028567	1.742284	-0.928970	-0.794739	0.421257	-0.224732	0.374736
55725	-2.512370	-6.942348	5.207115	-1.012864	1.959855	-1.051777	-0.802413	0.423693	-0.214006	0.361690
55726	-2.409326	-7.310954	5.259573	-1.197116	1.726452	-0.729586	-0.809837	0.426846	-0.202804	0.347615
55727	-2.213639	-7.547913	5.070137	-1.401376	1.338071	-0.657265	-0.817284	0.429709	-0.191300	0.332867
55728	-1.991832	-7.950726	4.930815	-1.589131	0.877761	-0.421331	-0.824383	0.432902	-0.179845	0.317243
55729	-1.686666	-8.368199	5.220193	-1.443478	0.598564	0.070589	-0.831468	0.435329	-0.168614	0.301194
55730	-1.377835	-8.856787	5.575948	-1.262155	0.331676	0.662454	-0.838202	0.437548	-0.157951	0.284642
55731	-0.945567	-9.404919	5.484504	-1.204155	-0.322198	1.044194	-0.844948	0.438817	-0.147462	0.267875
55732	-0.358690	-9.307040	5.544490	-0.692999	-0.652354	0.984757	-0.851263	0.439761	-0.137135	0.251308
55733	0.373150	-8.858481	5.723081	0.125181	-0.755020	0.712511	-0.856797	0.440861	-0.127260	0.235258
55734	1.118804	-8.737926	5.945509	0.891156	-0.925609	0.737251	-0.861495	0.442353	-0.117846	0.219686
55735	2.038301	-9.065097	5.716430	1.533826	-1.665844	0.858781	-0.865478	0.444019	-0.109013	0.204721
55736	2.769122	-9.162445	5.497181	2.122374	-2.147468	0.804317	-0.868848	0.445375	-0.101113	0.191100
55737	2.854201	-9.258821	5.570097	2.246788	-2.122333	0.927213	-0.871804	0.446234	-0.093943	0.178907
55738	2.583821	-8.449074	5.570291	2.207852	-1.524823	0.281436	-0.874651	0.446246	-0.086659	0.168348
55739	2.882788	-7.885397	5.561196	2.602457	-1.278269	-0.168533	-0.876703	0.447079	-0.079386	0.158775
55740	2.789273	-7.499906	5.595020	2.592796	-0.941566	-0.446608	-0.878394	0.447779	-0.072944	0.150323
55741	2.250903	-7.039991	5.872653	2.226029	-0.243922	-0.642019	-0.880140	0.447985	-0.066554	0.142246
55742	2.027735	-6.799015	5.776843	2.003568	-0.071900	-0.885730	-0.881812	0.448108	-0.060248	0.134078
55743	1.559611	-6.589729	5.785353	1.563991	0.222589	-1.047331	-0.883364	0.448244	-0.054341	0.125668
55744	1.567804	-6.317069	5.839333	1.597112	0.449248	-1.227328	-0.884905	0.448474	-0.047888	0.116277
55745	1.783858	-6.501371	5.624499	1.703731	0.160387	-1.201280	-0.886234	0.449018	-0.041290	0.106148
55746	2.032987	-6.803991	5.523429	1.861376	-0.102294	-1.011542	-0.887359	0.449763	-0.034580	0.095452
55747	2.354302	-7.142801	5.601871	2.125761	-0.246236	-0.682327	-0.888348	0.450453	-0.027910	0.084561
55748	2.664682	-7.275314	5.594068	2.402674	-0.326311	-0.569055	-0.889443	0.450512	-0.021479	0.073952
55749	2.490084	-7.308548	5.610598	2.219149	-0.256847	-0.533493	-0.890433	0.450317	-0.015638	0.064031
55750	1.936730	-7.055917	5.541262	1.680573	-0.051485	-0.789638	-0.891279	0.450087	-0.009966	0.054252
55751	1.797732	-6.956670	5.543756	1.539053	0.064497	-0.869126	-0.891481	0.450841	-0.004263	0.044574
55752	1.954852	-7.781638	5.401146	1.620674	-0.496317	-0.290378	-0.891066	0.452539	0.001217	0.034772
55753	1.638743	-8.519877	5.786361	1.283220	-0.543710	0.522357	-0.890667	0.453934	0.005683	0.024974
55754	1.268400	-8.845522	6.265362	0.929284	-0.284811	1.057543	-0.890308	0.455011	0.009665	0.014928
55755	0.728638	-9.199443	6.386852	0.415636	-0.345473	1.397136	-0.889875	0.455999	0.012883	0.004633
55756	-0.063812	-8.937479	6.002947	-0.316320	-0.484171	0.938280	-0.889841	0.455936	0.016398	-0.006127
55757	-0.396300	-8.095918	5.680229	-0.593997	-0.253416	0.063993	-0.889393	0.456364	0.020460	-0.017096
55758	0.052432	-8.453382	5.350429	-0.088936	-0.695018	0.167210	-0.888462	0.457393	0.024947	-0.028365
55759	-0.171571	-8.661541	5.282948	-0.254509	-0.879992	0.292847	-0.888257	0.456783	0.028528	-0.039182
55760	-0.582940	-8.107911	5.485398	-0.651727	-0.453357	-0.038384	-0.888324	0.455383	0.031731	-0.050006
55761	-0.241656	-7.290953	5.717551	-0.342803	0.226306	-0.553210	-0.888021	0.454329	0.035229	-0.061347
55762	0.386818	-7.258151	5.747655	0.301511	0.350276	-0.557836	-0.887275	0.453648	0.039507	-0.073386
55763	1.027766	-7.348196	5.889289	0.940200	0.526893	-0.401290	-0.886433	0.452651	0.044420	-0.085848
55764	1.621629	-7.077942	5.791413	1.510813	0.744250	-0.678636	-0.885551	0.451302	0.049824	-0.098202
55765	2.323007	-6.601384	5.685437	2.133631	1.138368	-1.126484	-0.883930	0.451090	0.055791	-0.109874
55766	2.883312	-6.780957	5.294118	2.743541	0.951477	-1.216806	-0.881464	0.452347	0.062049	-0.120636
55767	3.075562	-7.294187	5.080006	3.020990	0.653192	-0.929191	-0.878820	0.454002	0.067625	-0.130326
55768	2.976077	-7.727398	4.916983	3.015238	0.366134	-0.673775	-0.876212	0.455738	0.072129	-0.139118
55769	2.903248	-8.035859	4.808062	3.020318	0.193672	-0.487417	-0.873783	0.457261	0.075857	-0.147180
55770	3.252764	-8.341862	4.442235	3.508065	-0.038180	-0.453646	-0.871349	0.458964	0.078765	-0.154590
55771	3.367298	-8.692289	4.474267	3.694825	-0.063368	-0.155715	-0.869349	0.460132	0.080408	-0.161383
55772	2.998054	-8.655078	4.538551	3.357644	-0.039639	-0.157577	-0.867689	0.460997	0.080868	-0.167505
55773	2.629382	-8.472750	4.583569	3.004488	0.026749	-0.289975	-0.866223	0.461670	0.080862	-0.173144
55774	2.398006	-8.233542	4.496114	2.804200	0.056991	-0.545028	-0.864908	0.462172	0.080776	-0.178342
55775	2.276199	-8.181702	4.446396	2.732523	0.053481	-0.624550	-0.863495	0.462907	0.080856	-0.183183
55776	2.192460	-8.223619	4.485553	2.691291	0.079019	-0.576596	-0.862350	0.463277	0.080548	-0.187720
55777	2.064691	-8.014959	4.544805	2.542792	0.222946	-0.721923	-0.861260	0.463627	0.080065	-0.192016
55778	1.940052	-7.823168	4.756905	2.353362	0.469126	-0.766403	-0.860330	0.463738	0.079331	-0.196178
55779	1.730190	-7.844480	4.964464	2.144966	0.562001	-0.633452	-0.859493	0.463606	0.078605	-0.200408
55780	1.666808	-7.877140	5.231536	2.052770	0.752539	-0.463027	-0.858507	0.463552	0.078185	-0.204873
55781	1.716971	-7.986756	5.274603	2.151670	0.781731	-0.361934	-0.857568	0.463219	0.078182	-0.209505
55782	1.864890	-8.165232	5.348673	2.344520	0.839607	-0.192121	-0.856667	0.462561	0.078664	-0.214409
55783	1.904775	-8.289059	5.539865	2.385560	0.959381	0.006444	-0.856044	0.461353	0.079080	-0.219291
55784	1.737472	-7.977623	5.458567	2.196904	0.985276	-0.291132	-0.855516	0.460013	0.079740	-0.223881
55785	1.472398	-8.139649	5.496215	2.021735	0.818442	-0.123883	-0.854967	0.458603	0.080920	-0.228399
55786	1.281908	-8.589348	5.585470	1.988297	0.573898	0.303384	-0.854651	0.456527	0.082301	-0.233197
55787	0.850829	-8.687230	5.690613	1.637640	0.382777	0.470618	-0.854588	0.453997	0.083042	-0.238055
55788	0.162681	-9.155456	6.009903	1.126493	0.033360	1.082146	-0.854386	0.451498	0.083791	-0.243216
55789	-0.718037	-9.157706	6.153494	0.375031	-0.331539	1.232373	-0.854667	0.448429	0.083239	-0.248047
55790	-1.863747	-8.178519	6.299345	-0.944462	-0.358528	0.628699	-0.854464	0.446627	0.082687	-0.252148
55791	-2.060060	-8.734995	6.467832	-0.929250	-0.622237	1.193042	-0.853517	0.446046	0.083620	-0.256046
55792	-1.922936	-9.115738	6.442488	-0.635300	-0.760004	1.470872	-0.852757	0.445412	0.084326	-0.259429
55793	-2.101536	-9.195165	6.262968	-0.663875	-1.024662	1.443491	-0.851975	0.444779	0.085122	-0.262800
55794	-2.523839	-8.885405	6.345495	-1.137246	-1.054985	1.285916	-0.851503	0.443520	0.085708	-0.266248
55795	-2.736190	-9.227659	6.690932	-1.281062	-1.109639	1.786124	-0.850818	0.442391	0.086730	-0.269957
55796	-2.292443	-9.460955	6.515408	-0.708995	-1.134317	1.824572	-0.850532	0.440529	0.087050	-0.273772
55797	-1.978912	-9.105011	6.370987	-0.476695	-0.928863	1.426370	-0.850307	0.438642	0.086872	-0.277534
55798	-2.066600	-8.450457	5.858872	-0.555548	-1.051876	0.608060	-0.850276	0.436706	0.086125	-0.280894
55799	-2.267415	-7.567472	5.365277	-0.839999	-1.109758	-0.365113	-0.849937	0.435427	0.085843	-0.283974
55800	-1.865970	-7.134801	4.890657	-0.471031	-1.018166	-1.035036	-0.849122	0.434991	0.086225	-0.286949
55801	-1.306262	-6.931396	4.304691	0.151011	-1.003907	-1.612062	-0.848012	0.435295	0.086739	-0.289605
55802	-1.079956	-7.070033	3.873016	0.581390	-1.218396	-1.792129	-0.847144	0.435750	0.086284	-0.291590
55803	-1.383879	-6.863245	3.894315	0.263637	-1.263462	-1.905792	-0.846831	0.436073	0.084305	-0.292593
55804	-1.698280	-6.593250	4.192200	-0.190289	-1.096198	-1.894883	-0.846893	0.436471	0.081266	-0.292677
55805	-1.968999	-6.383538	4.493399	-0.580015	-0.924988	-1.836162	-0.847094	0.436975	0.077790	-0.292290
55806	-2.300114	-6.477369	4.703834	-0.852114	-0.979014	-1.585410	-0.847204	0.438012	0.073929	-0.291421
55807	-2.794154	-6.806597	5.204075	-1.266948	-1.017851	-0.948262	-0.847281	0.439283	0.070419	-0.290150
55808	-3.046454	-6.874829	5.531658	-1.539576	-0.920239	-0.651567	-0.847424	0.440365	0.067729	-0.288728
55809	-3.345187	-6.762419	5.725897	-1.894580	-0.859908	-0.572693	-0.847390	0.441746	0.066107	-0.287091
55810	-3.094806	-6.947446	5.710573	-1.615025	-0.777703	-0.472338	-0.846703	0.444070	0.066046	-0.285541
55811	-2.940182	-7.261400	5.664548	-1.371291	-0.818921	-0.278106	-0.845591	0.447063	0.066795	-0.283987
55812	-3.032842	-7.586385	5.599174	-1.336901	-1.010776	-0.050889	-0.844458	0.449860	0.068377	-0.282562
