// General information: 
//  MT Manager version: 2021.0.0 
//  XDA version: 2021.0.0 build 5908 rev 109668 built on 2021-04-19
// Device information: 
//  DeviceId: 00B43DFD
//  ProductCode: MTW2-3A7G6
//  Firmware Version: 4.3.5
//  Hardware Version: 1.1.0
// Device settings: 
//  Filter Profile: human(46.1)
//  Option Flags: Orientation Smoother Disabled, Position/Velocity Smoother Disabled, Continuous Zero Rotation Update Disabled, AHS Disabled, ICC Disabled
// Coordinate system: ENU
PacketCounter	Acc_X	Acc_Y	Acc_Z	FreeAcc_E	FreeAcc_N	FreeAcc_U	Quat_q0	Quat_q1	Quat_q2	Quat_q3
54636	-9.177022	-0.999513	3.769010	-0.004722	-0.206501	0.156241	-0.788234	-0.124405	-0.544955	0.257362
54637	-9.160700	-1.083207	3.710386	-0.086802	-0.242595	0.126746	-0.788316	-0.123618	-0.545000	0.257393
54638	-9.170441	-1.149998	3.690432	-0.138360	-0.271944	0.134455	-0.788428	-0.122805	-0.544912	0.257626
54639	-9.080627	-1.071613	3.641462	-0.108871	-0.191187	0.026925	-0.788473	-0.122168	-0.544761	0.258110
54640	-9.075393	-0.961457	3.654596	-0.034479	-0.091443	0.017555	-0.788397	-0.121640	-0.544697	0.258726
54641	-9.097284	-0.934424	3.658582	-0.017533	-0.049810	0.036990	-0.788279	-0.121056	-0.544715	0.259320
54642	-9.127204	-0.902926	3.690046	0.022252	-0.014891	0.073507	-0.788213	-0.120393	-0.544706	0.259848
54643	-9.091412	-0.878516	3.649396	0.017764	0.031727	0.023079	-0.788219	-0.119547	-0.544694	0.260247
54644	-9.064904	-0.948205	3.608499	-0.040473	0.003507	-0.010077	-0.788229	-0.118652	-0.544690	0.260634
54645	-9.084277	-0.999294	3.612948	-0.064833	-0.018568	0.014393	-0.788189	-0.117952	-0.544648	0.261159
54646	-9.105927	-0.910701	3.622031	-0.010902	0.072811	0.029109	-0.788080	-0.117484	-0.544572	0.261857
54647	-9.179861	-0.748488	3.650084	0.082993	0.229622	0.091533	-0.788031	-0.117105	-0.544421	0.262486
54648	-9.083670	-0.759114	3.589131	0.055380	0.235979	-0.019200	-0.788086	-0.116538	-0.544284	0.262858
54649	-8.977741	-0.887104	3.536410	-0.026700	0.136686	-0.123849	-0.788119	-0.115990	-0.544236	0.263100
54650	-8.994540	-0.995478	3.520818	-0.099442	0.068272	-0.103191	-0.788010	-0.115719	-0.544256	0.263506
54651	-9.022834	-0.933874	3.578699	-0.024343	0.107629	-0.061863	-0.787850	-0.115726	-0.544178	0.264140
54652	-9.002931	-0.815001	3.641433	0.096145	0.177599	-0.069165	-0.787719	-0.115894	-0.543952	0.264921
54653	-8.947182	-0.693132	3.684143	0.209934	0.248641	-0.117353	-0.787670	-0.115970	-0.543725	0.265501
54654	-8.984021	-0.682111	3.644770	0.172172	0.291952	-0.099430	-0.787763	-0.115954	-0.543492	0.265707
54655	-8.991088	-0.775542	3.587457	0.069518	0.247542	-0.104708	-0.787930	-0.115805	-0.543277	0.265716
54656	-8.982883	-0.792728	3.581102	0.054243	0.237144	-0.112908	-0.788072	-0.115550	-0.543219	0.265526
54657	-9.071453	-0.882409	3.528060	-0.061517	0.214069	-0.041940	-0.788201	-0.115376	-0.543257	0.265140
54658	-9.142128	-1.006051	3.563066	-0.121557	0.112667	0.049291	-0.788321	-0.115408	-0.543229	0.264825
54659	-9.127836	-1.022452	3.526440	-0.159701	0.108960	0.024039	-0.788428	-0.115622	-0.543067	0.264745
54660	-9.075862	-0.902475	3.522223	-0.088245	0.192875	-0.037883	-0.788486	-0.115851	-0.542935	0.264744
54661	-9.007788	-0.893187	3.556588	-0.040375	0.161607	-0.088511	-0.788525	-0.115956	-0.542941	0.264571
54662	-8.990610	-0.975338	3.498880	-0.126952	0.111562	-0.117536	-0.788517	-0.116074	-0.543046	0.264326
54663	-8.983473	-1.038248	3.526295	-0.136921	0.038496	-0.107263	-0.788428	-0.116384	-0.543152	0.264240
54664	-9.032495	-0.963540	3.590516	-0.058384	0.077180	-0.045558	-0.788330	-0.116907	-0.543152	0.264299
54665	-9.010053	-0.883916	3.613497	0.006650	0.118026	-0.065598	-0.788319	-0.117437	-0.543079	0.264247
54666	-9.015106	-0.872184	3.626672	0.018610	0.114806	-0.057070	-0.788373	-0.117790	-0.543050	0.263989
54667	-9.026440	-0.931254	3.604674	-0.037392	0.071499	-0.048928	-0.788487	-0.117986	-0.543075	0.263509
54668	-9.096600	-1.026494	3.603166	-0.111553	0.004798	0.024596	-0.788602	-0.118091	-0.543170	0.262922
54669	-9.126329	-1.112148	3.548516	-0.210858	-0.040107	0.039858	-0.788667	-0.118234	-0.543277	0.262441
54670	-9.132365	-1.189326	3.513775	-0.282667	-0.094042	0.039848	-0.788649	-0.118499	-0.543386	0.262148
54671	-9.152591	-1.158320	3.562316	-0.232058	-0.093393	0.073623	-0.788511	-0.118914	-0.543507	0.262126
54672	-9.145819	-1.035539	3.599729	-0.130970	-0.017399	0.069566	-0.788288	-0.119238	-0.543710	0.262228
54673	-9.141116	-0.963914	3.691003	-0.013124	-0.007419	0.092483	-0.788075	-0.119383	-0.543978	0.262246
54674	-9.167251	-0.948022	3.707120	0.006543	0.002815	0.121089	-0.787973	-0.119312	-0.544186	0.262152
54675	-9.188668	-0.911299	3.753200	0.061551	0.017403	0.154484	-0.787956	-0.119073	-0.544335	0.262005
54676	-9.092928	-0.928812	3.750304	0.078728	-0.020621	0.066694	-0.787967	-0.118695	-0.544514	0.261771
54677	-9.106068	-0.899680	3.769302	0.110887	0.000745	0.083031	-0.787952	-0.118298	-0.544741	0.261522
54678	-9.108333	-0.915644	3.722867	0.069068	0.013827	0.069363	-0.787998	-0.117802	-0.544881	0.261317
54679	-9.086630	-0.872782	3.721211	0.098856	0.050228	0.044478	-0.788123	-0.117317	-0.544857	0.261208
54680	-9.010311	-0.851862	3.648795	0.071826	0.087252	-0.055008	-0.788269	-0.116975	-0.544717	0.261212
54681	-9.015236	-0.725121	3.690246	0.169335	0.179945	-0.047589	-0.788431	-0.116804	-0.544523	0.261206
54682	-9.023237	-0.667897	3.681713	0.187437	0.235951	-0.049025	-0.788587	-0.116762	-0.544388	0.261034
54683	-9.031003	-0.697341	3.748660	0.220475	0.180631	-0.013885	-0.788714	-0.116612	-0.544454	0.260578
54684	-9.053434	-0.730899	3.870719	0.294776	0.097852	0.055690	-0.788761	-0.116445	-0.544697	0.260003
54685	-9.121269	-0.711262	4.061071	0.442775	0.039539	0.187219	-0.788828	-0.116136	-0.544999	0.259304
54686	-9.163141	-0.672621	4.256120	0.611262	-0.010569	0.294556	-0.789056	-0.115610	-0.545221	0.258377
54687	-8.966084	-0.640500	4.670293	1.020364	-0.232296	0.262898	-0.789067	-0.114693	-0.545914	0.257286
54688	-9.084995	-0.785931	5.231356	1.384542	-0.584319	0.592284	-0.788588	-0.113839	-0.547329	0.256128
54689	-9.316319	-0.912674	5.687049	1.656268	-0.844208	0.981445	-0.787831	-0.113473	-0.548698	0.255690
54690	-9.397229	-0.738419	5.951080	1.971843	-0.801462	1.129796	-0.787018	-0.113294	-0.549697	0.256126
54691	-9.277271	-0.674802	6.347612	2.377659	-0.959467	1.152778	-0.786310	-0.113258	-0.549878	0.257919
54692	-9.032370	-0.274657	6.735970	2.972423	-0.858379	1.025223	-0.785671	-0.113585	-0.549257	0.261030
54693	-8.779303	0.101745	7.031021	3.466636	-0.741890	0.862225	-0.785125	-0.114609	-0.547975	0.264889
54694	-8.946222	0.548551	7.508780	4.018587	-0.555141	1.153630	-0.784960	-0.116980	-0.545768	0.268870
54695	-9.225219	0.757919	7.945919	4.349786	-0.541350	1.571615	-0.785266	-0.120502	-0.542649	0.272706
54696	-9.317267	1.028097	8.394022	4.730558	-0.562664	1.833407	-0.786368	-0.125175	-0.538074	0.276466
54697	-9.434316	1.656992	8.761822	5.201303	-0.259447	2.078385	-0.788575	-0.130017	-0.532124	0.279443
54698	-9.683077	2.109816	8.984675	5.378768	0.031702	2.434803	-0.792529	-0.133336	-0.524725	0.280682
54699	-9.927160	2.141357	8.993559	5.096304	0.144614	2.757830	-0.798331	-0.134606	-0.515972	0.279862
54700	-10.056736	2.000512	8.845811	4.577249	0.220840	2.930098	-0.805708	-0.134164	-0.505863	0.277374
54701	-10.102450	1.823454	8.663330	3.997751	0.298359	3.007404	-0.814074	-0.132578	-0.494771	0.273693
54702	-10.307506	1.786602	8.521051	3.440189	0.541689	3.221969	-0.823186	-0.130088	-0.482828	0.268921
54703	-10.553298	1.723993	8.321345	2.770499	0.820236	3.424520	-0.832994	-0.126686	-0.470023	0.262964
54704	-10.530830	1.592464	8.046710	2.085193	1.003887	3.333011	-0.843372	-0.122039	-0.456485	0.255834
54705	-10.583774	1.334264	7.807950	1.312895	1.093589	3.295393	-0.853925	-0.116219	-0.442639	0.247741
54706	-10.684948	0.989453	7.649487	0.527808	1.081079	3.309640	-0.864304	-0.109920	-0.428601	0.239159
54707	-10.504473	0.829665	7.784011	0.192874	1.000906	3.247418	-0.874128	-0.103872	-0.414648	0.230603
54708	-10.701244	1.043318	7.867388	-0.195048	1.374388	3.437030	-0.883662	-0.097816	-0.400409	0.221916
54709	-10.582028	0.960165	8.005632	-0.532021	1.372463	3.408673	-0.893179	-0.091175	-0.385425	0.212993
54710	-10.488013	0.787244	8.105078	-0.964309	1.323346	3.363311	-0.902739	-0.083832	-0.369350	0.203998
54711	-10.418541	0.723771	8.035625	-1.485802	1.437667	3.200489	-0.912140	-0.076235	-0.352322	0.195086
54712	-10.306865	0.796398	7.782772	-2.043859	1.712172	2.848403	-0.921396	-0.067795	-0.334465	0.185919
54713	-10.015673	0.647419	7.559280	-2.533798	1.716118	2.372806	-0.930260	-0.058426	-0.316284	0.176541
54714	-9.587866	0.414036	7.347822	-2.904750	1.587711	1.810967	-0.938497	-0.048336	-0.298308	0.167030
54715	-9.380192	-0.143999	7.132037	-3.503712	1.196378	1.374282	-0.946132	-0.038334	-0.280202	0.157642
54716	-8.867121	-0.724756	6.952943	-3.798532	0.658939	0.799327	-0.953138	-0.029418	-0.261675	0.148963
54717	-8.186788	-0.896692	7.015708	-3.659592	0.402603	0.359748	-0.959357	-0.022501	-0.243114	0.141507
54718	-7.526910	-0.905215	7.350229	-3.323997	0.260380	0.205829	-0.964661	-0.017528	-0.225467	0.135228
54719	-7.200503	-0.488494	7.742647	-3.114780	0.594436	0.285223	-0.969247	-0.014565	-0.208559	0.129815
54720	-6.992814	-0.001800	8.199794	-2.976451	1.015587	0.494277	-0.973431	-0.011850	-0.191798	0.124521
54721	-6.638181	0.177246	8.604943	-2.831273	1.124959	0.620296	-0.977441	-0.008296	-0.174345	0.118925
54722	-6.265794	0.081009	8.538340	-2.917553	1.020112	0.316651	-0.981276	-0.003394	-0.155996	0.112919
54723	-5.786823	0.117504	8.355776	-2.897695	1.047201	-0.126944	-0.984758	0.002839	-0.137369	0.106645
54724	-5.346030	-0.201726	7.994945	-3.002708	0.757040	-0.705607	-0.987790	0.010620	-0.118916	0.100087
54725	-4.741253	-0.792165	7.614863	-2.952396	0.171665	-1.307530	-0.990317	0.019000	-0.100798	0.093552
54726	-4.195792	-1.335793	7.493777	-2.833432	-0.364864	-1.604335	-0.992301	0.026185	-0.083602	0.087541
54727	-3.751337	-1.311710	7.622137	-2.631561	-0.337225	-1.636790	-0.993840	0.031492	-0.067624	0.081961
54728	-3.413134	-1.150321	7.592936	-2.519797	-0.176782	-1.797728	-0.995025	0.035872	-0.052435	0.076735
54729	-2.984834	-1.071538	7.429282	-2.330090	-0.120670	-2.079427	-0.995872	0.040529	-0.037929	0.071820
54730	-2.638553	-1.136491	7.372211	-2.206729	-0.178365	-2.216777	-0.996385	0.045537	-0.024481	0.067404
54731	-2.363103	-1.340442	7.393289	-2.145040	-0.352138	-2.242123	-0.996647	0.050275	-0.012062	0.063418
54732	-1.853209	-1.433721	7.393457	-1.821784	-0.455254	-2.287767	-0.996773	0.053755	-0.000408	0.059620
54733	-1.509622	-1.325231	7.454580	-1.629917	-0.346487	-2.274323	-0.996820	0.055802	0.010864	0.055833
54734	-1.131168	-1.344588	7.291565	-1.415175	-0.403397	-2.458322	-0.996760	0.057140	0.022269	0.052050
54735	-0.499540	-1.502419	7.114138	-0.952261	-0.630109	-2.614628	-0.996600	0.057741	0.033158	0.048530
54736	-0.060722	-1.325665	7.254411	-0.648207	-0.477011	-2.482049	-0.996406	0.057250	0.042907	0.045346
54737	0.146892	-1.085787	7.489783	-0.566516	-0.236407	-2.268204	-0.996199	0.056460	0.051390	0.041939
54738	0.509697	-1.184253	7.513763	-0.333185	-0.369997	-2.205455	-0.996005	0.055308	0.058872	0.038079
54739	0.636791	-1.332978	7.785423	-0.348840	-0.511591	-1.912627	-0.995831	0.053848	0.065257	0.034096
54740	0.742695	-1.289629	8.039662	-0.357269	-0.472010	-1.657942	-0.995709	0.051730	0.070484	0.030332
54741	0.707317	-0.831337	8.372746	-0.480968	-0.011407	-1.382842	-0.995590	0.049673	0.074992	0.026634
54742	0.791860	-0.797186	8.453969	-0.481912	0.006326	-1.298032	-0.995354	0.048947	0.079675	0.022932
54743	0.781174	-1.058435	8.413636	-0.579941	-0.255205	-1.320471	-0.994975	0.049532	0.084814	0.019435
54744	0.970008	-1.668101	8.219790	-0.476616	-0.874328	-1.428408	-0.994498	0.050022	0.090607	0.016208
54745	0.962462	-1.422173	7.963598	-0.520248	-0.652246	-1.708923	-0.994001	0.049436	0.096664	0.013202
54746	0.873994	-1.256611	7.985859	-0.701670	-0.487782	-1.726542	-0.993387	0.049223	0.103224	0.010191
54747	1.357126	-1.572401	7.719008	-0.286540	-0.837400	-1.868312	-0.992709	0.048482	0.110114	0.007241
54748	1.530538	-1.641174	7.223558	-0.107212	-0.966247	-2.311352	-0.992109	0.046929	0.116173	0.004600
54749	1.600042	-1.413699	7.263006	-0.123805	-0.760452	-2.281701	-0.991573	0.044617	0.121603	0.002303
54750	1.492487	-1.190481	7.115246	-0.265256	-0.582078	-2.473629	-0.991020	0.042284	0.126854	0.000150
54751	1.761779	-1.539932	6.849761	-0.016105	-0.987484	-2.642021	-0.990432	0.038778	0.132423	-0.001984
54752	1.836336	-1.190092	6.518864	0.068487	-0.714895	-2.974010	-0.989814	0.034024	0.138190	-0.003841
54753	2.074757	-0.900692	6.154494	0.322542	-0.510663	-3.283675	-0.989166	0.028209	0.143958	-0.005515
54754	2.616893	-0.575184	5.828536	0.868994	-0.257307	-3.462185	-0.988631	0.023019	0.148438	-0.006655
54755	2.811354	-0.673651	5.484431	1.113168	-0.417698	-3.728063	-0.988353	0.019037	0.150805	-0.007287
54756	2.876224	-0.857189	5.476486	1.163930	-0.648365	-3.711540	-0.988359	0.014364	0.151258	-0.007821
54757	3.118162	-0.375846	6.177136	1.189823	-0.208450	-2.989078	-0.988549	0.008716	0.150416	-0.008403
54758	3.181563	0.004887	6.823378	1.084811	0.116811	-2.363528	-0.988988	0.004552	0.147646	-0.009107
54759	3.179025	-0.437899	6.872440	1.133824	-0.373911	-2.322531	-0.989682	0.001478	0.142915	-0.010092
54760	2.659846	-0.607032	7.613434	0.521604	-0.596852	-1.764189	-0.990532	-0.001532	0.136802	-0.011330
54761	2.148244	-0.850250	8.286816	-0.041637	-0.913361	-1.258625	-0.991271	-0.005838	0.131122	-0.012462
54762	1.530469	-0.855151	9.117004	-0.757620	-1.024517	-0.616567	-0.991768	-0.010508	0.126967	-0.012823
54763	1.575454	-0.690797	9.553961	-0.761312	-0.966334	-0.183414	-0.992013	-0.015981	0.124543	-0.011987
54764	1.820069	-0.222682	9.703565	-0.529745	-0.603714	0.029838	-0.992176	-0.021115	0.122622	-0.010217
54765	2.083748	-0.314491	9.744692	-0.239846	-0.784935	0.123388	-0.992378	-0.024996	0.120394	-0.008105
54766	2.226266	-0.348715	9.713944	-0.043062	-0.893030	0.119004	-0.992648	-0.028524	0.117476	-0.005999
54767	2.272328	-0.107883	9.971892	0.007288	-0.748281	0.387931	-0.992991	-0.032558	0.113552	-0.003765
54768	1.738035	0.406303	10.601034	-0.570970	-0.367657	0.916018	-0.993353	-0.036704	0.109086	-0.001611
54769	1.422220	0.965411	11.291864	-0.951066	0.045704	1.569458	-0.993487	-0.040769	0.106406	0.000439
54770	1.464184	1.354032	11.195353	-0.855673	0.368190	1.520679	-0.993438	-0.042948	0.105970	0.002487
54771	1.529528	1.236335	10.898321	-0.735032	0.246496	1.234497	-0.993299	-0.043243	0.107079	0.004706
54772	1.880602	1.202148	10.612592	-0.357782	0.229965	1.023731	-0.993139	-0.042778	0.108578	0.007423
54773	2.098274	1.572440	10.362897	-0.116090	0.626186	0.857800	-0.993014	-0.041746	0.109887	0.010307
54774	2.225509	1.730745	10.107345	0.045489	0.831447	0.647391	-0.992965	-0.039398	0.110954	0.012542
54775	2.300842	1.024947	9.680647	0.183837	0.207916	0.186414	-0.992958	-0.036566	0.111851	0.013664
54776	2.136207	0.631927	9.393458	0.063513	-0.115879	-0.159594	-0.992930	-0.035030	0.112560	0.013897
54777	1.919585	0.463894	9.291472	-0.140848	-0.254754	-0.318126	-0.992865	-0.035102	0.113115	0.013864
54778	2.111401	0.751820	9.209526	0.065594	0.017954	-0.334611	-0.992832	-0.036443	0.112961	0.013990
54779	2.242081	1.439887	9.494177	0.158874	0.658606	0.025021	-0.992960	-0.037131	0.111584	0.014158
54780	2.196940	1.472975	9.517201	0.140913	0.695674	0.039691	-0.993196	-0.035999	0.109879	0.013892
54781	2.270750	1.151374	9.536786	0.237056	0.404501	0.046936	-0.993477	-0.033819	0.108110	0.013141
54782	1.855979	1.035908	9.537260	-0.138151	0.351888	-0.048781	-0.993746	-0.031150	0.106549	0.012113
54783	1.686483	0.860194	9.532470	-0.281217	0.242360	-0.101152	-0.993963	-0.027758	0.105567	0.011052
54784	1.992211	0.467907	9.283367	0.077292	-0.075691	-0.307076	-0.994120	-0.024256	0.105062	0.009931
54785	2.145776	-0.004065	9.069324	0.275897	-0.481431	-0.509521	-0.994258	-0.021785	0.104418	0.008613
54786	2.107544	-0.361393	8.999920	0.267279	-0.803499	-0.601076	-0.994413	-0.021262	0.103150	0.007176
54787	1.920899	-0.236202	9.140918	0.093390	-0.684110	-0.494689	-0.994643	-0.022414	0.100747	0.005807
54788	1.864672	0.173946	9.509418	0.024391	-0.314563	-0.125771	-0.994934	-0.024030	0.097511	0.004562
54789	1.656521	0.342704	9.747192	-0.158669	-0.174397	0.077372	-0.995251	-0.024596	0.094116	0.003459
54790	1.526893	0.184058	10.017276	-0.271052	-0.347717	0.312352	-0.995535	-0.024422	0.091140	0.002488
54791	1.401330	0.101897	10.228449	-0.375285	-0.432698	0.495901	-0.995770	-0.024027	0.088662	0.001813
54792	1.367690	0.076351	10.242608	-0.367559	-0.449934	0.504763	-0.995928	-0.023622	0.086984	0.001550
54793	1.248704	0.207899	10.198302	-0.450630	-0.301790	0.449557	-0.996031	-0.022697	0.086045	0.001712
54794	1.277406	0.196116	9.933647	-0.365111	-0.273527	0.194276	-0.996106	-0.020871	0.085636	0.002114
54795	1.526492	-0.005458	9.762174	-0.084764	-0.426726	0.058522	-0.996177	-0.018348	0.085368	0.002771
54796	1.352306	-0.221228	9.593253	-0.226445	-0.586515	-0.142490	-0.996225	-0.015874	0.085269	0.003644
54797	1.372710	-0.452955	9.400913	-0.177369	-0.775638	-0.334631	-0.996230	-0.014465	0.085407	0.004649
54798	1.429047	-0.331264	9.358785	-0.116595	-0.641495	-0.362097	-0.996225	-0.014468	0.085392	0.005849
54799	1.396100	0.021889	9.476718	-0.161489	-0.301031	-0.239755	-0.996244	-0.015245	0.084923	0.007339
54800	1.607830	0.436059	9.616915	0.040751	0.085943	-0.053014	-0.996274	-0.016151	0.084236	0.009067
54801	1.533571	0.571810	9.725470	-0.034884	0.205068	0.047347	-0.996300	-0.016421	0.083680	0.010705
54802	1.734925	0.610541	9.818240	0.159754	0.224048	0.172543	-0.996301	-0.017044	0.083333	0.012217
54803	1.634706	0.687802	9.827005	0.068569	0.283914	0.168795	-0.996291	-0.018126	0.083018	0.013525
54804	1.703190	0.956924	9.970251	0.128774	0.515444	0.333252	-0.996285	-0.019789	0.082524	0.014629
54805	1.722269	1.292958	10.027324	0.161840	0.814722	0.409598	-0.996315	-0.021218	0.081665	0.015416
54806	1.524085	1.366998	9.944943	-0.001493	0.879290	0.302659	-0.996367	-0.021599	0.080868	0.015697
54807	1.451494	1.171994	9.983071	-0.070571	0.686768	0.319709	-0.996421	-0.021038	0.080340	0.015765
54808	1.624288	0.853400	10.019111	0.102352	0.372400	0.365720	-0.996514	-0.020437	0.079288	0.016009
54809	1.663756	1.080062	10.313193	0.127810	0.587850	0.672283	-0.996608	-0.020691	0.077999	0.016127
54810	1.506128	1.240432	10.411472	-0.016602	0.743517	0.753898	-0.996670	-0.020983	0.077212	0.015736
54811	1.243708	0.981973	10.186127	-0.242178	0.500588	0.480953	-0.996681	-0.021080	0.077166	0.015069
54812	1.318787	0.803228	9.981360	-0.145562	0.326765	0.281071	-0.996666	-0.021225	0.077431	0.014497
54813	1.493794	0.679127	9.808619	0.041885	0.202338	0.130096	-0.996631	-0.021404	0.077908	0.014093
54814	1.508634	0.651093	9.784154	0.049682	0.168780	0.106920	-0.996587	-0.021921	0.078378	0.013778
54815	1.469269	0.905917	9.780549	0.007870	0.412851	0.110420	-0.996544	-0.022662	0.078796	0.013351
54816	1.484135	0.979684	9.698184	0.028105	0.481551	0.035385	-0.996521	-0.022864	0.079143	0.012665
54817	1.509058	0.900202	9.508176	0.073325	0.416409	-0.152758	-0.996531	-0.022182	0.079348	0.011702
54818	1.455040	0.459444	9.320781	0.036509	0.007639	-0.367915	-0.996567	-0.020790	0.079426	0.010607
54819	1.524151	0.088471	9.142556	0.126776	-0.332876	-0.550383	-0.996614	-0.019789	0.079211	0.009689
54820	1.382170	0.039417	9.287707	-0.029176	-0.372391	-0.430049	-0.996664	-0.019584	0.078713	0.009066
54821	1.275759	0.129339	9.286741	-0.123081	-0.281355	-0.442867	-0.996703	-0.019978	0.078182	0.008508
54822	1.367287	0.277054	9.317212	-0.024533	-0.141905	-0.392713	-0.996750	-0.020195	0.077586	0.007906
54823	1.302189	0.106654	9.437625	-0.094708	-0.316565	-0.290784	-0.996823	-0.020103	0.076708	0.007467
54824	1.229963	-0.018510	9.645886	-0.180914	-0.453071	-0.100930	-0.996881	-0.020627	0.075830	0.007314
54825	1.281187	0.394387	9.911958	-0.148981	-0.071016	0.188142	-0.996902	-0.021913	0.075176	0.007379
54826	1.353744	0.722154	9.955067	-0.072510	0.229642	0.257043	-0.996885	-0.022956	0.075092	0.007445
54827	1.476863	0.882034	9.790895	0.073179	0.379996	0.120639	-0.996859	-0.023412	0.075292	0.007379
54828	1.490701	0.833763	9.657511	0.102280	0.336782	-0.011616	-0.996861	-0.023107	0.075391	0.007155
54829	1.406078	0.512667	9.530353	0.032501	0.032239	-0.165646	-0.996877	-0.022582	0.075372	0.006774
54830	1.538306	0.458264	9.575689	0.159388	-0.021386	-0.104735	-0.996901	-0.022643	0.075067	0.006430
54831	1.536427	0.641698	9.700870	0.151895	0.153811	0.027664	-0.996957	-0.022854	0.074274	0.006084
54832	1.372407	0.741376	9.889918	-0.019906	0.243625	0.196501	-0.997023	-0.023028	0.073375	0.005494
54833	1.354170	0.680315	9.872809	-0.020997	0.182127	0.174071	-0.997074	-0.023110	0.072711	0.004660
54834	1.254475	0.506516	9.874692	-0.112179	0.010850	0.153611	-0.997100	-0.023021	0.072443	0.003795
54835	1.248636	0.293256	9.761646	-0.100809	-0.195615	0.030401	-0.997100	-0.023118	0.072442	0.002955
54836	1.306443	0.256981	9.700452	-0.033881	-0.233382	-0.024124	-0.997103	-0.023534	0.072302	0.002230
54837	1.337930	0.368939	9.773927	-0.007706	-0.131625	0.058403	-0.997123	-0.023823	0.071934	0.001852
54838	1.274198	0.538594	9.886499	-0.077828	0.032106	0.169768	-0.997163	-0.023620	0.071454	0.001683
54839	1.169592	0.403726	9.856606	-0.170778	-0.093298	0.119369	-0.997188	-0.023134	0.071266	0.001365
54840	1.205857	0.302380	9.815135	-0.129476	-0.184064	0.078306	-0.997181	-0.022785	0.071483	0.001054
54841	1.206871	0.280098	9.664589	-0.114638	-0.192553	-0.071587	-0.997155	-0.022500	0.071932	0.000931
54842	1.306350	0.326311	9.558111	-0.012396	-0.134844	-0.161151	-0.997117	-0.022073	0.072586	0.000997
54843	1.390222	0.345966	9.467732	0.073048	-0.102220	-0.238004	-0.997101	-0.021524	0.072974	0.001211
54844	1.441379	0.391174	9.527271	0.113393	-0.051410	-0.169867	-0.997121	-0.021138	0.072808	0.001373
54845	1.426661	0.532001	9.702669	0.080403	0.087048	0.008012	-0.997156	-0.020924	0.072382	0.001437
54846	1.263153	0.601669	9.807303	-0.090352	0.158963	0.092226	-0.997175	-0.020517	0.072244	0.001398
54847	1.327053	0.438204	9.692928	-0.014625	0.009278	-0.019546	-0.997151	-0.020024	0.072719	0.001297
54848	1.391851	0.260233	9.546390	0.061086	-0.156648	-0.163322	-0.997122	-0.019921	0.073143	0.001249
54849	1.435220	0.390561	9.531165	0.101441	-0.030938	-0.166743	-0.997106	-0.020536	0.073192	0.001293
54850	1.396456	0.770067	9.699692	0.041112	0.331364	0.011549	-0.997115	-0.020914	0.072962	0.001249
54851	1.365060	0.656551	9.700154	0.014347	0.216879	0.002617	-0.997136	-0.020688	0.072741	0.000943
54852	1.298797	0.534222	9.734111	-0.052165	0.100351	0.021558	-0.997157	-0.020257	0.072575	0.000611
54853	1.277437	0.493332	9.665770	-0.063058	0.071317	-0.050861	-0.997161	-0.019834	0.072644	0.000306
54854	1.260757	0.634543	9.615804	-0.075715	0.227989	-0.096819	-0.997165	-0.018913	0.072828	0.000052
54855	1.412363	0.310322	9.366219	0.106748	-0.066594	-0.336334	-0.997176	-0.017834	0.072953	-0.000263
54856	1.390510	0.019684	9.311215	0.094927	-0.341157	-0.404859	-0.997199	-0.017521	0.072704	-0.000643
54857	1.318466	0.179594	9.440170	0.012546	-0.188524	-0.281071	-0.997226	-0.018129	0.072184	-0.000984
54858	1.259664	0.426977	9.639202	-0.064467	0.041321	-0.082456	-0.997253	-0.018558	0.071701	-0.001277
54859	1.276769	0.423086	9.653985	-0.040890	0.034563	-0.065601	-0.997285	-0.018407	0.071288	-0.001599
54860	1.317361	0.255395	9.587359	0.017949	-0.123982	-0.132687	-0.997327	-0.017951	0.070808	-0.001867
54861	1.254433	0.095122	9.585646	-0.033598	-0.276943	-0.148866	-0.997366	-0.017697	0.070307	-0.002083
54862	1.208295	0.224752	9.684364	-0.085031	-0.150177	-0.052175	-0.997388	-0.017857	0.069956	-0.002238
54863	1.152933	0.259568	9.700764	-0.138306	-0.117416	-0.041887	-0.997392	-0.017843	0.069895	-0.002338
54864	1.267084	0.238000	9.578049	-0.007081	-0.130899	-0.149148	-0.997406	-0.017552	0.069776	-0.002323
54865	1.233970	0.220444	9.533718	-0.029509	-0.140264	-0.197985	-0.997437	-0.017156	0.069435	-0.002220
54866	1.232937	0.258545	9.543243	-0.023604	-0.095467	-0.187160	-0.997480	-0.016802	0.068900	-0.002089
54867	1.260213	0.207064	9.642021	0.000947	-0.146330	-0.087557	-0.997516	-0.016703	0.068406	-0.001891
54868	1.218069	0.341115	9.760744	-0.046883	-0.020100	0.029546	-0.997546	-0.017115	0.067870	-0.001725
54869	1.189495	0.570666	9.895694	-0.084058	0.195584	0.168294	-0.997569	-0.017555	0.067423	-0.001591
54870	1.290032	0.632307	9.884202	0.024333	0.253877	0.172121	-0.997590	-0.017493	0.067119	-0.001556
54871	1.304504	0.425555	9.762020	0.059183	0.055142	0.044966	-0.997600	-0.017235	0.067038	-0.001600
54872	1.330642	0.279290	9.646503	0.103753	-0.084910	-0.071760	-0.997615	-0.017324	0.066790	-0.001604
54873	1.306869	0.472552	9.758784	0.073629	0.097158	0.043793	-0.997647	-0.017930	0.066151	-0.001640
54874	1.105804	0.762236	9.977594	-0.142709	0.371344	0.247030	-0.997685	-0.017996	0.065562	-0.001824
54875	1.076692	0.631165	9.932786	-0.157227	0.251747	0.193798	-0.997717	-0.016991	0.065332	-0.002139
54876	1.139594	0.216606	9.765898	-0.069540	-0.134099	0.020699	-0.997734	-0.015795	0.065355	-0.002302
54877	1.127144	0.063624	9.576162	-0.058721	-0.265678	-0.174049	-0.997733	-0.015496	0.065452	-0.002289
54878	1.062056	0.241677	9.563222	-0.126154	-0.090806	-0.188894	-0.997707	-0.016139	0.065686	-0.002236
54879	1.188905	0.331039	9.588900	-0.006224	-0.019693	-0.144718	-0.997688	-0.017315	0.065680	-0.002161
54880	1.266137	0.446443	9.757605	0.053034	0.059091	0.036517	-0.997681	-0.019225	0.065264	-0.001945
54881	1.419043	0.772439	9.963156	0.184901	0.331644	0.273462	-0.997650	-0.021789	0.064935	-0.001774
54882	1.597007	1.185921	10.102643	0.344081	0.686227	0.455258	-0.997585	-0.024371	0.065002	-0.002009
54883	1.747800	1.361254	10.015917	0.499186	0.820258	0.400259	-0.997521	-0.026410	0.065163	-0.002994
54884	1.405455	1.107586	9.865344	0.175963	0.548181	0.197087	-0.997491	-0.027232	0.065167	-0.004844
54885	1.109010	0.421897	9.573668	-0.072676	-0.120931	-0.166803	-0.997511	-0.026625	0.064909	-0.007022
54886	0.693496	-0.454187	9.330221	-0.430009	-0.970133	-0.506016	-0.997564	-0.025703	0.064225	-0.008919
54887	0.765442	-0.731403	9.386284	-0.341984	-1.242294	-0.455182	-0.997606	-0.025990	0.063301	-0.009943
54888	0.828826	-0.222733	9.622881	-0.300904	-0.755621	-0.185909	-0.997641	-0.026685	0.062452	-0.010015
54889	0.830152	0.265630	9.760461	-0.317465	-0.284393	-0.022660	-0.997647	-0.026861	0.062312	-0.009774
54890	0.928411	0.306537	9.643682	-0.207594	-0.229549	-0.124514	-0.997660	-0.026084	0.062482	-0.009508
54891	0.952969	0.079504	9.512233	-0.165039	-0.431119	-0.263660	-0.997689	-0.025028	0.062522	-0.009037
54892	1.159671	0.206964	9.576998	0.031051	-0.290387	-0.167934	-0.997718	-0.024571	0.062336	-0.008275
54893	1.100843	0.510549	9.663735	-0.041336	0.012184	-0.073158	-0.997730	-0.024428	0.062310	-0.007452
54894	1.189179	0.705249	9.719949	0.035488	0.205505	0.002884	-0.997726	-0.024390	0.062471	-0.006702
54895	1.273909	0.827060	9.659722	0.123441	0.330424	-0.040651	-0.997727	-0.024421	0.062492	-0.006205
54896	1.417104	0.927722	9.722339	0.259450	0.428366	0.043372	-0.997745	-0.024399	0.062242	-0.005935
54897	1.304560	0.806785	9.736334	0.153972	0.308165	0.037708	-0.997773	-0.024164	0.061893	-0.005940
54898	1.081674	0.746489	9.846631	-0.072250	0.244004	0.118005	-0.997798	-0.024022	0.061528	-0.006099
54899	1.146844	0.748155	9.934092	-0.010431	0.242747	0.212388	-0.997818	-0.024082	0.061165	-0.006160
54900	1.083184	0.841562	9.928718	-0.069024	0.338181	0.204389	-0.997836	-0.023792	0.060965	-0.006369
54901	1.187939	0.712969	9.900041	0.045394	0.224680	0.181199	-0.997877	-0.022867	0.060638	-0.006524
54902	1.103535	0.425981	9.886698	-0.025799	-0.045638	0.144385	-0.997913	-0.022151	0.060298	-0.006589
54903	1.017955	0.417759	9.879505	-0.107437	-0.050781	0.127194	-0.997899	-0.022512	0.060388	-0.006701
54904	1.032942	0.815963	9.911428	-0.105654	0.334671	0.179609	-0.997868	-0.023252	0.060587	-0.006870
54905	1.337369	1.036431	9.817291	0.201368	0.559096	0.131598	-0.997873	-0.022934	0.060588	-0.007186
54906	1.100052	0.627189	9.669797	-0.012659	0.175784	-0.061929	-0.997898	-0.021174	0.060740	-0.007822
54907	1.102137	0.138437	9.493456	0.017932	-0.269722	-0.258296	-0.997938	-0.019428	0.060594	-0.008374
54908	0.909100	-0.037747	9.508403	-0.167143	-0.426484	-0.271840	-0.997969	-0.018850	0.060216	-0.008788
54909	0.894312	0.204649	9.757844	-0.208846	-0.190505	-0.015887	-0.997976	-0.018994	0.059990	-0.009164
54910	0.933743	0.340569	9.723311	-0.167681	-0.050298	-0.040278	-0.997973	-0.018640	0.060111	-0.009466
54911	0.982304	0.092681	9.539263	-0.098143	-0.277288	-0.227047	-0.997965	-0.017750	0.060459	-0.009766
54912	0.967977	-0.252424	9.416900	-0.095613	-0.604555	-0.362605	-0.997963	-0.017305	0.060591	-0.009950
54913	0.990774	-0.145894	9.484760	-0.080600	-0.499329	-0.288626	-0.997981	-0.017646	0.060210	-0.009828
54914	0.877656	0.112597	9.633931	-0.206567	-0.255158	-0.143778	-0.998012	-0.017940	0.059670	-0.009488
54915	0.905031	0.234383	9.688121	-0.179202	-0.138803	-0.082204	-0.998038	-0.017990	0.059308	-0.008854
54916	0.991093	0.404103	9.790246	-0.103873	0.025471	0.035309	-0.998046	-0.018146	0.059228	-0.008148
54917	1.099454	0.650182	9.896855	-0.014318	0.262392	0.162793	-0.998025	-0.018549	0.059522	-0.007648
54918	1.264063	0.643041	9.794860	0.155516	0.252584	0.079868	-0.998003	-0.019004	0.059787	-0.007367
54919	1.288394	0.772608	9.840133	0.171394	0.372334	0.133019	-0.998006	-0.019341	0.059644	-0.007296
54920	1.185947	0.731433	9.869973	0.072198	0.327634	0.149504	-0.998032	-0.019109	0.059265	-0.007362
54921	1.091470	0.514944	9.952817	-0.018052	0.112351	0.212385	-0.998069	-0.018789	0.058731	-0.007476
54922	1.114929	0.432961	10.009871	0.010107	0.028444	0.268341	-0.998086	-0.019130	0.058298	-0.007717
54923	0.878250	0.529794	10.120325	-0.234453	0.108728	0.356196	-0.998074	-0.019666	0.058287	-0.007978
54924	1.042978	0.623946	10.093148	-0.073960	0.196334	0.351205	-0.998038	-0.020119	0.058727	-0.008108
54925	1.054294	0.592127	9.897911	-0.052199	0.168664	0.157248	-0.997997	-0.020128	0.059417	-0.008203
54926	1.160318	0.477098	9.719632	0.060596	0.066712	-0.012837	-0.997957	-0.019753	0.060183	-0.008303
54927	1.144309	0.299347	9.599187	0.048968	-0.102227	-0.141566	-0.997926	-0.019751	0.060709	-0.008274
54928	1.131905	0.508571	9.580513	0.025734	0.104874	-0.152749	-0.997897	-0.020001	0.061116	-0.008189
54929	1.141314	0.673856	9.534134	0.028850	0.272094	-0.190759	-0.997873	-0.019750	0.061573	-0.008295
54930	1.171085	0.422007	9.357070	0.074293	0.037351	-0.373548	-0.997852	-0.019092	0.062081	-0.008489
54931	1.101448	0.134471	9.123071	0.029243	-0.232238	-0.625365	-0.997830	-0.018828	0.062493	-0.008736
54932	1.167506	0.185861	9.190079	0.081400	-0.184831	-0.549083	-0.997813	-0.019347	0.062581	-0.008913
54933	1.200514	0.432611	9.328424	0.096069	0.045748	-0.397989	-0.997825	-0.019981	0.062165	-0.009051
54934	1.184406	0.503056	9.460408	0.073447	0.103121	-0.266004	-0.997861	-0.020119	0.061506	-0.009280
54935	0.978316	0.343136	9.543521	-0.124623	-0.062957	-0.214035	-0.997904	-0.019946	0.060826	-0.009491
54936	0.985950	0.342804	9.604138	-0.113175	-0.064568	-0.152869	-0.997927	-0.020018	0.060387	-0.009681
54937	1.096788	0.427861	9.590418	0.004032	0.021568	-0.150305	-0.997944	-0.020111	0.060054	-0.009810
54938	1.032863	0.396907	9.586999	-0.051173	-0.007178	-0.162184	-0.997977	-0.019709	0.059633	-0.009820
54939	1.093346	0.313902	9.644312	0.012345	-0.086806	-0.101920	-0.998003	-0.019629	0.059231	-0.009799
54940	1.201123	0.305121	9.589389	0.134537	-0.095833	-0.144964	-0.998021	-0.020192	0.058725	-0.009840
54941	1.128468	0.573149	9.756954	0.047832	0.152095	0.024723	-0.998038	-0.020778	0.058238	-0.009832
54942	1.121899	0.619842	9.832056	0.040864	0.187518	0.100705	-0.998056	-0.020986	0.057844	-0.009931
54943	1.187062	0.487481	9.823846	0.119000	0.055156	0.093749	-0.998087	-0.020979	0.057273	-0.010110
54944	1.036918	0.443221	9.833944	-0.019239	0.006719	0.085680	-0.998112	-0.021135	0.056716	-0.010420
54945	0.831429	0.455305	9.762789	-0.209150	0.018302	-0.006233	-0.998122	-0.021009	0.056532	-0.010761
54946	0.916898	0.324192	9.588510	-0.101033	-0.097648	-0.176008	-0.998129	-0.020610	0.056527	-0.010920
54947	1.038464	0.288656	9.575104	0.024010	-0.121752	-0.177910	-0.998150	-0.020146	0.056324	-0.010862
54948	1.095991	0.472164	9.674149	0.073027	0.066107	-0.065709	-0.998185	-0.019802	0.055840	-0.010828
54949	1.027267	0.502886	9.702879	0.011877	0.101757	-0.043167	-0.998227	-0.019385	0.055200	-0.010921
54950	1.007212	0.356649	9.686887	0.007729	-0.035777	-0.067119	-0.998258	-0.018983	0.054740	-0.011100
54951	0.951204	0.193808	9.638564	-0.031994	-0.193867	-0.127355	-0.998271	-0.019033	0.054466	-0.011248
54952	0.981123	0.117383	9.543722	0.013814	-0.272476	-0.221829	-0.998267	-0.019721	0.054273	-0.011326
54953	1.018287	0.464213	9.711390	0.031612	0.050443	-0.037212	-0.998270	-0.020792	0.053834	-0.011261
54954	0.977301	0.702711	9.836223	-0.016349	0.269620	0.093231	-0.998302	-0.021003	0.053155	-0.011227
54955	0.980951	0.591734	9.909988	-0.004889	0.160649	0.162002	-0.998345	-0.020292	0.052590	-0.011348
54956	0.880251	0.202121	9.747759	-0.070339	-0.208313	-0.025649	-0.998380	-0.019505	0.052202	-0.011481
54957	0.831311	0.195573	9.792895	-0.117273	-0.207381	0.014487	-0.998398	-0.019236	0.051973	-0.011436
54958	0.874599	0.328632	9.778980	-0.072494	-0.067741	0.010323	-0.998413	-0.018967	0.051821	-0.011220
54959	0.989212	0.401727	9.767363	0.044716	0.018383	0.012736	-0.998444	-0.018171	0.051580	-0.010937
54960	0.958350	0.174499	9.712399	0.030483	-0.194090	-0.053539	-0.998475	-0.017622	0.051221	-0.010654
54961	0.889741	0.326628	9.825898	-0.043222	-0.044132	0.058623	-0.998504	-0.017758	0.050682	-0.010274
54962	0.978409	0.726676	10.076079	0.023038	0.342973	0.331007	-0.998526	-0.018036	0.050205	-0.010035
54963	1.012147	0.756982	10.054798	0.064120	0.375787	0.314064	-0.998538	-0.017648	0.050079	-0.010081
54964	1.079380	0.584536	9.897913	0.150910	0.220791	0.157462	-0.998548	-0.017073	0.050026	-0.010354
54965	0.885630	0.378787	9.781220	-0.026384	0.026997	0.015774	-0.998551	-0.016573	0.050030	-0.010837
54966	0.861122	0.249038	9.767249	-0.045562	-0.090322	-0.004912	-0.998564	-0.015863	0.049912	-0.011264
54967	0.902865	0.006561	9.787753	0.005185	-0.320949	0.011379	-0.998589	-0.015440	0.049494	-0.011531
54968	0.844064	0.195093	10.016773	-0.068526	-0.136710	0.240315	-0.998619	-0.015369	0.048875	-0.011642
54969	0.731532	0.461138	10.196103	-0.193727	0.123809	0.417436	-0.998637	-0.015124	0.048540	-0.011775
54970	0.759933	0.426944	10.081354	-0.153366	0.107830	0.304540	-0.998641	-0.014037	0.048757	-0.011943
54971	0.835356	0.101412	9.772269	-0.050200	-0.180030	-0.006040	-0.998632	-0.012533	0.049301	-0.012067
54972	0.979013	-0.164591	9.497083	0.113364	-0.408886	-0.273293	-0.998618	-0.011383	0.049879	-0.012045
54973	0.911691	-0.113687	9.420873	0.042677	-0.342540	-0.353418	-0.998605	-0.010937	0.050259	-0.011926
54974	0.765675	-0.015697	9.516894	-0.118664	-0.242442	-0.268846	-0.998609	-0.010513	0.050349	-0.011576
54975	0.899398	0.016045	9.576908	0.007830	-0.203255	-0.195777	-0.998622	-0.010270	0.050270	-0.011053
54976	0.873367	0.086954	9.627980	-0.024801	-0.129646	-0.145686	-0.998624	-0.009994	0.050371	-0.010625
54977	0.838658	-0.020879	9.530485	-0.054318	-0.230773	-0.248289	-0.998604	-0.009697	0.050926	-0.010100
54978	0.961189	0.060482	9.498881	0.059194	-0.144096	-0.266379	-0.998589	-0.009686	0.051367	-0.009406
54979	1.114910	0.298214	9.566289	0.196617	0.091931	-0.179477	-0.998590	-0.009905	0.051396	-0.008885
54980	1.036090	0.392212	9.653702	0.109481	0.183805	-0.097982	-0.998604	-0.009500	0.051239	-0.008646
54981	0.932620	0.085435	9.626037	0.017453	-0.110950	-0.141854	-0.998620	-0.008542	0.051118	-0.008478
54982	0.855174	-0.197830	9.622579	-0.050502	-0.381748	-0.157834	-0.998641	-0.008074	0.050835	-0.008113
54983	0.828597	0.055972	9.835984	-0.094037	-0.130512	0.056984	-0.998669	-0.008273	0.050353	-0.007494
54984	0.753409	0.375553	10.042018	-0.186143	0.181949	0.261192	-0.998685	-0.008209	0.050147	-0.006745
54985	0.947842	0.341846	10.084389	0.004719	0.154216	0.320740	-0.998685	-0.007779	0.050319	-0.005904
54986	0.948159	0.253334	9.966335	0.011272	0.071879	0.201588	-0.998668	-0.007738	0.050759	-0.005120
54987	0.916857	0.361196	9.934843	-0.027216	0.175613	0.169326	-0.998643	-0.008138	0.051257	-0.004344
54988	1.082445	0.586038	9.977942	0.121556	0.391956	0.232512	-0.998615	-0.008533	0.051795	-0.003490
54989	1.153317	0.671684	9.885119	0.188629	0.475966	0.148976	-0.998581	-0.008429	0.052498	-0.002882
54990	1.119791	0.485685	9.734270	0.156752	0.296998	-0.007942	-0.998543	-0.008043	0.053306	-0.002548
54991	1.118305	0.380177	9.563940	0.159265	0.198898	-0.179455	-0.998512	-0.007977	0.053900	-0.002434
54992	1.207335	0.282519	9.442095	0.251450	0.104838	-0.293422	-0.998492	-0.007950	0.054264	-0.002523
54993	1.131917	0.136031	9.452452	0.172228	-0.038948	-0.293370	-0.998490	-0.007660	0.054322	-0.002726
54994	0.861753	-0.016157	9.432126	-0.094689	-0.186199	-0.343567	-0.998488	-0.007362	0.054389	-0.002950
54995	0.791194	-0.166936	9.429872	-0.166071	-0.332841	-0.355522	-0.998479	-0.007203	0.054585	-0.003015
54996	0.834416	-0.187415	9.353226	-0.118536	-0.349943	-0.427716	-0.998470	-0.007171	0.054745	-0.002882
54997	0.804152	-0.201647	9.254565	-0.141032	-0.361094	-0.529152	-0.998467	-0.007029	0.054844	-0.002672
54998	0.964995	-0.292586	9.174405	0.029252	-0.447688	-0.593943	-0.998484	-0.006903	0.054553	-0.002240
54999	1.029133	-0.248250	9.219572	0.097321	-0.405963	-0.541930	-0.998523	-0.007198	0.053827	-0.001725
55000	0.899033	-0.152543	9.427849	-0.038279	-0.325896	-0.346530	-0.998565	-0.008088	0.052923	-0.001404
55001	0.885465	0.047719	9.623753	-0.052691	-0.145851	-0.149415	-0.998616	-0.008884	0.051829	-0.001144
55002	0.685018	-0.020580	9.686333	-0.235707	-0.224580	-0.107602	-0.998677	-0.008986	0.050623	-0.000874
55003	0.624707	-0.434530	9.566736	-0.260772	-0.635629	-0.240360	-0.998737	-0.008835	0.049465	-0.000491
55004	0.539802	-0.685759	9.563384	-0.324394	-0.892430	-0.256628	-0.998781	-0.009560	0.048434	0.000389
55005	0.596268	-0.334832	9.880077	-0.280010	-0.573198	0.070454	-0.998800	-0.011289	0.047619	0.001990
55006	0.893664	0.379073	10.236338	-0.000414	0.088759	0.469183	-0.998790	-0.013512	0.047128	0.003809
55007	0.952311	0.883195	10.375351	0.058670	0.551936	0.628898	-0.998783	-0.014609	0.046809	0.005358
55008	0.958304	0.795971	10.339738	0.075513	0.453490	0.591674	-0.998792	-0.014543	0.046470	0.006604
55009	0.936993	0.461357	10.143263	0.073732	0.124971	0.383171	-0.998793	-0.014545	0.046280	0.007660
55010	0.866914	0.486128	10.118564	0.008624	0.145007	0.353536	-0.998775	-0.015089	0.046301	0.008734
55011	0.922852	0.736627	10.174934	0.063968	0.375920	0.423430	-0.998751	-0.016061	0.046302	0.009763
55012	1.111040	0.993208	10.183142	0.256797	0.608165	0.457727	-0.998731	-0.016927	0.046240	0.010522
55013	0.999790	1.058583	10.211067	0.145387	0.659854	0.479519	-0.998714	-0.017449	0.046325	0.010995
55014	0.989549	0.955818	10.129190	0.138754	0.551880	0.393657	-0.998703	-0.017727	0.046412	0.011173
55015	0.927975	0.853429	10.104582	0.076959	0.447667	0.360106	-0.998703	-0.017866	0.046374	0.011095
55016	0.835469	0.736068	10.153028	-0.021317	0.326450	0.395973	-0.998700	-0.018159	0.046357	0.010969
55017	0.814622	0.892090	10.220638	-0.047322	0.475567	0.467996	-0.998687	-0.018334	0.046600	0.010788
55018	0.757615	0.841503	10.024574	-0.097367	0.439186	0.265596	-0.998673	-0.017669	0.047231	0.010440
55019	0.689029	0.415865	9.689140	-0.159107	0.047994	-0.091605	-0.998659	-0.016352	0.048077	0.010102
55020	0.712095	0.050376	9.454998	-0.137596	-0.289240	-0.336191	-0.998634	-0.015598	0.048867	0.009987
55021	0.868081	0.164547	9.380709	0.012674	-0.169401	-0.391994	-0.998598	-0.015670	0.049547	0.010092
55022	0.864370	0.389370	9.434840	-0.002738	0.052899	-0.330486	-0.998573	-0.015658	0.050019	0.010289
55023	0.971274	0.414402	9.395260	0.100842	0.080789	-0.359153	-0.998563	-0.015245	0.050297	0.010463
55024	0.853045	0.227513	9.237969	-0.009286	-0.089405	-0.533063	-0.998564	-0.014706	0.050411	0.010596
55025	0.744367	0.183362	9.323464	-0.128319	-0.125974	-0.459487	-0.998560	-0.014389	0.050521	0.010871
55026	0.947466	0.254673	9.276570	0.078704	-0.053975	-0.484869	-0.998558	-0.014252	0.050522	0.011236
55027	0.898022	0.406029	9.450484	0.016581	0.094421	-0.311437	-0.998557	-0.014212	0.050503	0.011492
55028	0.688591	0.366128	9.381161	-0.187080	0.064238	-0.401244	-0.998553	-0.013974	0.050623	0.011548
55029	0.756388	0.333292	9.287456	-0.112454	0.037933	-0.489278	-0.998558	-0.013641	0.050614	0.011546
55030	0.939710	0.312590	9.256496	0.079533	0.022787	-0.503734	-0.998604	-0.012993	0.049879	0.011508
55031	1.036844	0.051407	9.432376	0.174999	-0.232465	-0.327822	-0.998687	-0.012242	0.048447	0.011322
55032	0.912673	-0.183840	9.849581	0.042141	-0.469659	0.069546	-0.998779	-0.012319	0.046483	0.011304
55033	0.644635	0.117222	10.493243	-0.234188	-0.192636	0.696609	-0.998850	-0.013422	0.044570	0.011491
55034	0.482098	0.513526	10.859445	-0.387526	0.175426	1.061257	-0.998877	-0.014265	0.043638	0.011714
55035	0.477322	0.465763	10.773009	-0.376502	0.123247	0.973672	-0.998873	-0.014069	0.043669	0.012162
55036	0.737376	0.409725	10.512822	-0.105558	0.075864	0.733122	-0.998836	-0.013555	0.044412	0.013018
55037	0.919799	0.379774	10.264148	0.076262	0.057019	0.499144	-0.998775	-0.013177	0.045591	0.014025
55038	0.875156	0.637175	10.074940	0.029353	0.327709	0.314898	-0.998704	-0.012824	0.046943	0.014915
55039	0.957697	0.589899	9.789313	0.109068	0.293708	0.036048	-0.998635	-0.012333	0.048270	0.015679
55040	1.003258	0.512169	9.577614	0.147915	0.228775	-0.172912	-0.998574	-0.011887	0.049384	0.016410
55041	1.023136	0.692645	9.617353	0.150947	0.414015	-0.126315	-0.998522	-0.011590	0.050283	0.017040
55042	1.078229	0.730745	9.540470	0.196676	0.458928	-0.196669	-0.998471	-0.011135	0.051269	0.017416
55043	1.029754	0.592992	9.397479	0.138811	0.334291	-0.347298	-0.998420	-0.010766	0.052285	0.017527
55044	1.093174	0.539092	9.296571	0.192931	0.283448	-0.442826	-0.998378	-0.010850	0.053077	0.017479
55045	1.109432	0.475771	9.261833	0.199096	0.219017	-0.477210	-0.998360	-0.010956	0.053481	0.017237
55046	0.981176	0.414735	9.203613	0.068807	0.166020	-0.549378	-0.998354	-0.010678	0.053763	0.016880
55047	0.992938	0.164689	9.213307	0.067969	-0.079495	-0.545157	-0.998356	-0.010467	0.053857	0.016573
55048	0.896417	0.028593	9.091445	-0.021622	-0.208964	-0.679527	-0.998356	-0.010668	0.053935	0.016222
55049	0.879122	0.038651	9.096777	-0.040590	-0.202690	-0.675786	-0.998352	-0.010965	0.054025	0.015965
55050	1.126030	0.081396	9.099994	0.207544	-0.172901	-0.646909	-0.998365	-0.011203	0.053754	0.015864
55051	1.207188	0.187886	9.192698	0.293185	-0.073669	-0.544090	-0.998417	-0.011221	0.052832	0.015688
55052	1.041198	0.139113	9.399376	0.125970	-0.121990	-0.356424	-0.998485	-0.011207	0.051657	0.015305
55053	0.918442	0.038064	9.506636	0.012395	-0.221173	-0.264284	-0.998549	-0.011182	0.050547	0.014858
55054	0.725486	-0.117192	9.451106	-0.160571	-0.368414	-0.341577	-0.998596	-0.011153	0.049764	0.014351
55055	0.730119	-0.403009	9.222711	-0.129721	-0.647020	-0.575891	-0.998629	-0.011018	0.049199	0.014087
55056	0.800988	-0.559022	9.222780	-0.049222	-0.810806	-0.573970	-0.998665	-0.011765	0.048232	0.014275
55057	0.927969	-0.181605	9.579360	0.078841	-0.470221	-0.198595	-0.998711	-0.013451	0.046693	0.014682
55058	0.819499	0.254380	9.953777	-0.018219	-0.073335	0.177712	-0.998763	-0.014873	0.045007	0.015035
55059	0.831179	0.274695	10.115816	0.012329	-0.077616	0.340627	-0.998817	-0.015274	0.043517	0.015409
55060	0.766297	0.027540	10.056492	-0.027403	-0.328545	0.267603	-0.998858	-0.015594	0.042288	0.015835
55061	0.621272	0.015606	10.080609	-0.153164	-0.349446	0.279848	-0.998873	-0.016491	0.041404	0.016351
55062	0.639285	0.331976	10.078168	-0.110517	-0.054878	0.290435	-0.998867	-0.017606	0.040798	0.017060
55063	0.766371	0.611769	10.229181	0.027537	0.199139	0.461421	-0.998876	-0.017922	0.040082	0.017872
55064	0.799248	0.566798	10.250871	0.073228	0.154802	0.483480	-0.998906	-0.017261	0.039298	0.018556
55065	0.628201	0.313802	10.169773	-0.086979	-0.074141	0.380658	-0.998927	-0.016460	0.038826	0.019158
55066	0.716109	0.184182	10.116048	0.007155	-0.197815	0.328416	-0.998923	-0.016482	0.038584	0.019801
55067	0.585516	0.527216	10.099818	-0.104930	0.145286	0.316231	-0.998909	-0.016935	0.038448	0.020408
55068	0.757535	0.682473	10.126871	0.073007	0.290267	0.360982	-0.998907	-0.016627	0.038393	0.020826
55069	0.870499	0.335996	9.964939	0.187499	-0.043551	0.193990	-0.998929	-0.015771	0.038053	0.021069
55070	0.701500	0.016704	9.948472	0.016384	-0.343863	0.154557	-0.998949	-0.015518	0.037492	0.021329
55071	0.646992	0.249030	10.180551	-0.031157	-0.120933	0.390676	-0.998957	-0.016082	0.036753	0.021783
55072	0.563757	0.542677	10.417990	-0.104125	0.156434	0.632957	-0.998962	-0.016572	0.036174	0.022179
55073	0.577425	0.558689	10.444660	-0.083852	0.166500	0.661171	-0.998963	-0.016466	0.036029	0.022463
55074	0.558503	0.367582	10.304358	-0.104974	-0.015901	0.512793	-0.998941	-0.016310	0.036497	0.022777
55075	0.730122	0.462306	10.164978	0.068222	0.078973	0.388424	-0.998909	-0.016122	0.037154	0.023242
55076	0.673695	0.556521	10.030871	0.010762	0.185411	0.254459	-0.998872	-0.015794	0.037971	0.023740
55077	0.560053	0.687587	10.008187	-0.112466	0.331709	0.228603	-0.998832	-0.015218	0.038963	0.024187
55078	0.725041	0.546270	9.587105	0.054078	0.203934	-0.185013	-0.998778	-0.015018	0.040185	0.024550
55079	0.702844	0.607482	9.457576	0.018653	0.272733	-0.313532	-0.998713	-0.015000	0.041684	0.024704
55080	0.740857	0.471450	9.133492	0.047524	0.145502	-0.638358	-0.998648	-0.015049	0.043118	0.024828
55081	0.956271	0.732291	9.042338	0.261481	0.398457	-0.702944	-0.998608	-0.014959	0.043922	0.025084
55082	0.838540	0.692723	9.151567	0.126988	0.367745	-0.604928	-0.998616	-0.014370	0.043871	0.025197
55083	0.749289	0.548495	9.167941	0.032635	0.244277	-0.601138	-0.998641	-0.013161	0.043665	0.025207
55084	0.580680	0.080567	9.059657	-0.147145	-0.194936	-0.737368	-0.998648	-0.012586	0.043675	0.025227
55085	0.552915	0.100937	8.970849	-0.169041	-0.175367	-0.827551	-0.998619	-0.013675	0.043917	0.025400
55086	0.658491	0.789268	9.093014	-0.046925	0.483042	-0.674641	-0.998574	-0.014771	0.044404	0.025679
55087	1.006794	1.066063	9.047859	0.311753	0.737919	-0.681852	-0.998577	-0.014174	0.044526	0.025704
55088	1.080208	0.474098	8.813199	0.378443	0.170381	-0.930584	-0.998632	-0.012527	0.044024	0.025272
55089	1.070953	0.111323	8.776094	0.370406	-0.166879	-0.980131	-0.998710	-0.011557	0.042780	0.024799
55090	0.864613	0.182409	9.019531	0.176884	-0.082254	-0.752079	-0.998799	-0.011476	0.040971	0.024298
55091	0.880970	0.086084	9.107018	0.216125	-0.184117	-0.667165	-0.998889	-0.011842	0.039039	0.023606
55092	0.790522	-0.098148	9.297773	0.141466	-0.385095	-0.489885	-0.998968	-0.013245	0.036900	0.022917
55093	0.713711	0.060059	9.596950	0.093825	-0.267741	-0.193248	-0.999030	-0.015564	0.034568	0.022423
55094	0.719183	0.555643	9.898899	0.144383	0.172832	0.125278	-0.999075	-0.017698	0.032455	0.021989
55095	0.499410	0.596198	9.720357	-0.025438	0.205521	-0.063471	-0.999138	-0.017978	0.030692	0.021415
55096	0.135876	-0.165040	9.116358	-0.362025	-0.508370	-0.715208	-0.999194	-0.016846	0.029886	0.020834
55097	-0.503280	-0.919659	7.982085	-0.964382	-1.170730	-1.906232	-0.999220	-0.015158	0.030224	0.020381
55098	-1.745671	-1.740940	6.358551	-2.164726	-1.859767	-3.618778	-0.999186	-0.012966	0.032431	0.020161
55099	-2.146254	-1.759067	4.736061	-2.502037	-1.775496	-5.260976	-0.999101	-0.007675	0.036068	0.020916
55100	-2.860393	-2.611217	2.924938	-3.166639	-2.501568	-7.116487	-0.998923	0.002247	0.039782	0.023775
55101	-2.331372	-3.090362	1.565113	-2.604866	-2.937869	-8.392141	-0.998525	0.014899	0.042965	0.029658
55102	-0.842745	-2.916848	0.962579	-1.117124	-2.810432	-8.813987	-0.997944	0.027785	0.042278	0.039357
55103	-0.937288	-2.539010	1.240854	-1.250423	-2.357348	-8.492345	-0.997253	0.039753	0.035860	0.051182
55104	-2.323415	-1.312699	1.312375	-2.520483	-0.923436	-8.533179	-0.996431	0.051404	0.025433	0.061938
55105	-3.673951	-1.580969	1.014139	-3.876282	-0.960917	-8.775889	-0.995251	0.065721	0.014091	0.070417
55106	-3.294620	-3.232623	0.615419	-3.737578	-2.590516	-8.812725	-0.993855	0.078059	0.000383	0.078480
55107	-2.338080	-3.997204	1.056574	-2.922394	-3.334262	-8.109462	-0.992421	0.083760	-0.017073	0.088282
55108	-2.412346	-2.918508	2.214797	-2.717170	-2.025002	-7.027506	-0.990836	0.080554	-0.041663	0.100097
55109	-4.039968	-1.004831	3.955296	-3.590854	0.447787	-5.354914	-0.988572	0.072488	-0.070754	0.111649
55110	-5.917048	-0.600984	4.796140	-4.869383	1.374847	-4.089453	-0.985447	0.062801	-0.101324	0.121172
55111	-6.912672	-1.029093	5.542990	-5.352868	1.250063	-2.789240	-0.981481	0.052660	-0.131092	0.129368
55112	-8.353630	-1.814441	6.445759	-6.168788	0.859735	-1.106559	-0.976554	0.040675	-0.160802	0.137223
55113	-8.885945	-1.333693	7.916550	-5.474280	1.363243	0.748463	-0.970326	0.026890	-0.190912	0.145933
55114	-10.637818	-0.594742	9.054644	-5.678035	2.357875	2.742663	-0.962872	0.013820	-0.220850	0.154633
55115	-13.100643	-0.332198	8.939633	-6.983069	3.158086	4.074463	-0.955600	0.005150	-0.246740	0.160999
55116	-13.215718	-3.057268	7.943212	-7.712908	0.554258	3.871640	-0.948844	-0.000582	-0.268464	0.166199
55117	-12.045570	-5.022291	8.315477	-6.628937	-1.814464	4.050846	-0.940319	-0.010644	-0.291284	0.175613
55118	-12.122649	-3.665632	9.854277	-4.713273	-0.931003	5.496124	-0.927614	-0.028876	-0.318798	0.192527
55119	-14.704918	0.261265	11.629111	-3.098692	2.854489	8.453638	-0.912736	-0.048293	-0.345975	0.211853
55120	-15.399069	1.375618	12.324922	-1.569604	3.530449	9.575336	-0.899032	-0.060442	-0.368239	0.229102
55121	-14.653430	-0.051681	11.438851	-1.419953	2.005533	8.612438	-0.887420	-0.067342	-0.384866	0.244598
55122	-12.704111	-1.526261	11.055618	-0.590060	-0.016142	7.086221	-0.875161	-0.074312	-0.399608	0.262457
55123	-11.047303	-0.284615	12.411207	2.455814	-0.291258	6.619126	-0.859363	-0.084466	-0.416032	0.285094
55124	-11.389228	3.334178	14.016408	6.117582	1.756705	7.412124	-0.841364	-0.096554	-0.432508	0.309387
55125	-11.142580	5.226372	14.561689	8.497585	2.342920	7.091242	-0.825589	-0.104366	-0.446700	0.328587
55126	-9.710662	4.235719	14.141941	8.743839	0.703344	5.525016	-0.812766	-0.108294	-0.458870	0.342232
55127	-8.720578	2.973582	14.613898	9.030546	-1.256455	4.860323	-0.800281	-0.111472	-0.470538	0.354568
55128	-9.113349	3.158323	15.201008	9.830218	-1.592079	5.184030	-0.788048	-0.115307	-0.481033	0.366459
55129	-9.368190	4.064385	15.293593	10.781477	-1.238841	5.032525	-0.777852	-0.119276	-0.488655	0.376744
55130	-10.417032	4.066921	14.461358	10.216910	-0.541137	5.336579	-0.771525	-0.120969	-0.492856	0.383678
55131	-10.419578	1.759111	13.564055	8.083226	-1.679353	5.269977	-0.768883	-0.121116	-0.492660	0.389148
55132	-9.474245	0.110071	12.489026	6.349343	-2.623110	4.278211	-0.767052	-0.123411	-0.489051	0.396523
55133	-9.217271	0.039836	11.623235	5.668504	-2.318881	3.698348	-0.764521	-0.127866	-0.483935	0.406159
55134	-9.506298	1.069564	10.788151	5.709231	-1.050728	3.385666	-0.762472	-0.131573	-0.477018	0.416868
55135	-9.231914	1.857819	9.634425	5.508941	0.042804	2.481563	-0.762600	-0.132005	-0.467888	0.426728
55136	-8.702101	2.057874	8.372893	4.872679	0.792196	1.398554	-0.764514	-0.129272	-0.458068	0.434719
55137	-8.134898	1.493721	7.223652	3.742679	1.027228	0.459702	-0.767375	-0.125541	-0.448701	0.440503
55138	-7.676304	0.979934	6.347578	2.808372	1.160900	-0.276437	-0.770641	-0.122419	-0.440339	0.444103
55139	-7.635051	0.484406	5.674409	1.931855	1.383370	-0.588826	-0.774200	-0.119528	-0.433282	0.445640
55140	-7.834166	0.019012	5.111518	1.100872	1.676211	-0.676019	-0.778074	-0.115888	-0.427334	0.445596
55141	-7.617868	-0.364916	4.420823	0.370796	1.829428	-1.197413	-0.782181	-0.111347	-0.422082	0.444569
55142	-7.162836	-0.788873	3.677745	-0.345810	1.816943	-1.936613	-0.786204	-0.106808	-0.417718	0.442705
55143	-7.015005	-1.114449	3.208801	-0.892344	1.855864	-2.295530	-0.789687	-0.103454	-0.414219	0.440584
55144	-6.740428	-1.250913	2.908223	-1.152489	1.802440	-2.679763	-0.792591	-0.101842	-0.411529	0.438260
55145	-6.805169	-1.334009	2.689051	-1.410562	1.912670	-2.764803	-0.795006	-0.101946	-0.409582	0.435677
55146	-6.767573	-1.508894	2.768824	-1.539214	1.724745	-2.713460	-0.796985	-0.103203	-0.408447	0.432822
55147	-7.178822	-1.939835	3.008600	-1.898980	1.550769	-2.174701	-0.798423	-0.105266	-0.407953	0.430133
55148	-7.511682	-2.105312	3.363715	-1.963196	1.419610	-1.670047	-0.799553	-0.107451	-0.407454	0.427960
55149	-7.231279	-2.004532	3.641765	-1.680466	1.127331	-1.720905	-0.800597	-0.109408	-0.407093	0.425851
55150	-6.853691	-2.158484	3.906029	-1.562584	0.624817	-1.809134	-0.801342	-0.111587	-0.407779	0.423220
55151	-6.857308	-2.546231	4.261855	-1.675860	0.132579	-1.515534	-0.801665	-0.114714	-0.409577	0.420024
55152	-7.543468	-3.031584	4.767955	-1.980938	-0.138146	-0.599456	-0.801542	-0.118820	-0.411970	0.416765
55153	-8.291113	-3.514204	5.251934	-2.316327	-0.382828	0.344191	-0.801040	-0.123172	-0.413733	0.414716
55154	-8.353277	-3.474406	5.560328	-2.147771	-0.582859	0.570606	-0.800178	-0.127645	-0.414446	0.414315
55155	-8.313356	-3.215581	5.701520	-1.881387	-0.590825	0.582992	-0.799019	-0.131947	-0.414601	0.415048
55156	-8.109599	-2.848128	5.823769	-1.489441	-0.598037	0.444866	-0.797486	-0.136037	-0.414726	0.416548
55157	-7.922998	-2.433672	5.862837	-1.097802	-0.514232	0.266983	-0.795597	-0.139414	-0.415487	0.418281
55158	-7.919660	-2.002628	6.000774	-0.668821	-0.373695	0.294422	-0.793396	-0.141646	-0.417199	0.420004
55159	-7.923700	-1.716330	6.066412	-0.366627	-0.270207	0.302866	-0.791023	-0.142665	-0.419738	0.421602
55160	-8.101613	-1.500834	6.116752	-0.159858	-0.100639	0.447293	-0.788713	-0.143050	-0.422559	0.422980
55161	-8.264804	-1.481843	5.932175	-0.226384	0.090512	0.465141	-0.786665	-0.142808	-0.424989	0.424440
55162	-8.110653	-1.344886	5.657904	-0.168712	0.246174	0.162984	-0.784898	-0.142476	-0.426706	0.426097
55163	-8.046648	-1.409816	5.427375	-0.283326	0.307461	-0.013831	-0.783123	-0.142675	-0.428161	0.427832
55164	-7.961610	-1.343789	5.339654	-0.218717	0.343837	-0.141145	-0.781129	-0.143708	-0.429384	0.429901
55165	-8.007040	-1.204415	5.432759	-0.036665	0.380231	-0.069373	-0.778998	-0.145161	-0.430341	0.432315
55166	-7.942544	-0.958583	5.479656	0.228931	0.446820	-0.128815	-0.776911	-0.146564	-0.430888	0.435044
55167	-7.550617	-0.741583	5.558845	0.564426	0.297911	-0.428917	-0.775001	-0.148021	-0.431327	0.437515
55168	-7.481387	-0.775139	5.597100	0.592104	0.195552	-0.457978	-0.773225	-0.149967	-0.432171	0.439158
55169	-7.608012	-1.109581	5.849459	0.438965	-0.114655	-0.162649	-0.771578	-0.152280	-0.432957	0.440484
55170	-7.772459	-1.301597	6.249131	0.462416	-0.416747	0.225705	-0.769986	-0.154604	-0.433261	0.442158
55171	-7.853126	-1.306774	6.713787	0.682851	-0.691741	0.555985	-0.768617	-0.156429	-0.432991	0.444159
55172	-7.805123	-1.208057	7.074516	0.956993	-0.897783	0.709017	-0.767571	-0.157353	-0.432283	0.446326
55173	-7.893074	-1.122991	7.223731	1.079204	-0.885994	0.854754	-0.767070	-0.157197	-0.431501	0.447995
55174	-8.156314	-1.330602	7.241076	0.858086	-0.837119	1.109397	-0.767191	-0.155847	-0.430786	0.448947
55175	-8.339061	-1.625546	7.113702	0.516283	-0.769468	1.229422	-0.767757	-0.153263	-0.430207	0.449423
55176	-8.436308	-2.083578	6.829960	-0.014413	-0.722622	1.216278	-0.768498	-0.149800	-0.429490	0.450011
55177	-8.182060	-2.322450	6.528170	-0.296754	-0.735930	0.879685	-0.768934	-0.146858	-0.428519	0.451160
55178	-8.107601	-2.226820	6.467565	-0.225339	-0.624036	0.774136	-0.768817	-0.145038	-0.427322	0.453080
55179	-7.968193	-1.763255	6.460145	0.180102	-0.391415	0.586773	-0.768443	-0.144142	-0.425655	0.455562
55180	-7.899663	-1.391625	6.410576	0.464489	-0.149176	0.443948	-0.768171	-0.143344	-0.423754	0.458038
55181	-8.026571	-1.312311	6.361294	0.465149	0.052696	0.502088	-0.768081	-0.141890	-0.421726	0.460506
55182	-7.734415	-1.209934	6.135783	0.484677	0.140958	0.120980	-0.768255	-0.140057	-0.419323	0.462964
55183	-7.452043	-1.116987	5.798612	0.436343	0.295220	-0.319183	-0.768452	-0.138333	-0.417080	0.465177
55184	-7.377446	-0.988958	5.491196	0.392599	0.561690	-0.588365	-0.768539	-0.136732	-0.415332	0.467068
55185	-7.509109	-0.991888	5.296997	0.257817	0.804476	-0.608616	-0.768647	-0.135317	-0.413863	0.468602
55186	-7.691762	-1.047729	5.154049	0.094250	1.013064	-0.550406	-0.768734	-0.134223	-0.412468	0.470003
55187	-7.612528	-1.019647	5.052858	0.077479	1.075405	-0.682569	-0.768712	-0.133459	-0.411196	0.471368
55188	-7.589223	-0.816149	5.033794	0.239819	1.205362	-0.752277	-0.768559	-0.132862	-0.410379	0.472497
55189	-7.484366	-0.885387	5.005814	0.190454	1.141171	-0.839435	-0.768371	-0.132478	-0.409874	0.473349
55190	-7.293046	-0.798951	5.021867	0.312961	1.065482	-0.991531	-0.767975	-0.132848	-0.409782	0.473966
55191	-7.241853	-0.784478	5.198162	0.424976	0.923811	-0.921869	-0.767467	-0.134207	-0.410166	0.474075
55192	-7.452350	-0.827033	5.564677	0.525308	0.781790	-0.522914	-0.766981	-0.136147	-0.410612	0.473922
55193	-7.565235	-0.862439	5.912021	0.635198	0.587427	-0.211650	-0.766830	-0.138107	-0.410816	0.473423
55194	-7.514827	-1.036119	6.011606	0.532668	0.375784	-0.155538	-0.767060	-0.139647	-0.410756	0.472649
55195	-7.426184	-1.184705	6.122874	0.464856	0.151973	-0.127541	-0.767533	-0.140711	-0.410901	0.471437
55196	-7.652256	-1.527310	6.255598	0.181009	0.007705	0.186779	-0.768230	-0.141333	-0.411178	0.469873
55197	-7.727989	-1.717220	6.265828	-0.002163	-0.068720	0.283179	-0.769153	-0.141471	-0.411192	0.468306
55198	-7.696330	-1.794974	6.166952	-0.119996	-0.079608	0.210584	-0.770133	-0.141265	-0.411405	0.466568
55199	-7.786093	-2.010600	6.132812	-0.341229	-0.128758	0.293950	-0.771032	-0.140799	-0.411886	0.464796
55200	-7.928211	-2.163338	6.105601	-0.512819	-0.115719	0.411723	-0.771800	-0.140101	-0.412307	0.463357
55201	-7.857768	-2.172199	5.985193	-0.562476	-0.088821	0.284898	-0.772414	-0.139228	-0.412387	0.462524
55202	-7.798977	-1.998848	5.872864	-0.458875	0.042058	0.142092	-0.772809	-0.138484	-0.412522	0.461966
55203	-7.844674	-1.848098	5.902951	-0.321405	0.137019	0.171156	-0.772839	-0.137816	-0.412889	0.461788
55204	-7.730324	-1.587647	5.961071	-0.037256	0.180332	0.075637	-0.772642	-0.137102	-0.413217	0.462038
55205	-7.506111	-1.378471	6.009881	0.223559	0.135926	-0.102276	-0.772530	-0.136663	-0.413489	0.462112
55206	-7.396182	-1.252424	6.119211	0.417010	0.071823	-0.141195	-0.772420	-0.136626	-0.413921	0.461920
55207	-7.400793	-1.042240	6.351360	0.717690	0.039676	-0.031016	-0.772364	-0.136621	-0.414672	0.461340
55208	-7.714690	-0.931342	6.510401	0.830034	0.183425	0.289122	-0.772739	-0.136029	-0.415365	0.460262
55209	-7.778079	-1.061295	6.428201	0.674396	0.203391	0.309093	-0.773568	-0.134749	-0.415821	0.458834
55210	-7.726467	-1.256274	6.296919	0.465049	0.160086	0.221542	-0.774671	-0.132816	-0.416086	0.457293
55211	-7.585214	-1.450061	6.079018	0.232220	0.120239	0.011985	-0.775908	-0.130715	-0.416299	0.455603
55212	-7.532164	-1.645330	5.947912	0.022840	0.076989	-0.075553	-0.777107	-0.128786	-0.416574	0.453856
55213	-7.664659	-1.678727	5.961245	-0.021147	0.141152	0.040291	-0.777962	-0.127351	-0.417030	0.452374
55214	-7.574999	-1.609954	6.049798	0.109754	0.082177	0.013493	-0.778611	-0.126319	-0.417262	0.451332
55215	-7.577931	-1.428071	6.127910	0.300712	0.143930	0.031325	-0.779125	-0.125825	-0.417461	0.450399
55216	-7.885994	-1.501530	6.274058	0.245023	0.204058	0.370908	-0.779635	-0.125179	-0.417431	0.449723
55217	-7.816576	-1.229454	6.328186	0.507962	0.301105	0.302035	-0.780405	-0.123794	-0.416883	0.449279
55218	-7.546907	-1.286448	6.069127	0.385560	0.282208	-0.054782	-0.781539	-0.122018	-0.416665	0.447995
55219	-7.599776	-1.808931	5.975577	-0.096715	0.086574	0.021919	-0.782587	-0.120541	-0.416929	0.446316
55220	-7.389110	-1.914193	6.154652	-0.030435	-0.198189	-0.009493	-0.783393	-0.120103	-0.417089	0.444869
55221	-7.418074	-1.775391	6.337061	0.165190	-0.211970	0.100230	-0.784320	-0.120129	-0.417017	0.443292
55222	-7.442888	-1.785676	6.315943	0.126730	-0.199497	0.108022	-0.785508	-0.119810	-0.416891	0.441389
55223	-7.486084	-2.148267	6.171952	-0.261643	-0.304556	0.116476	-0.786777	-0.118804	-0.416725	0.439555
55224	-7.338548	-2.248471	5.993001	-0.404385	-0.342413	-0.089253	-0.788035	-0.117225	-0.416680	0.437764
55225	-7.317283	-2.690800	5.829463	-0.834816	-0.512371	-0.127326	-0.789112	-0.115434	-0.416782	0.436199
55226	-7.345722	-2.649011	5.760473	-0.842349	-0.418547	-0.154780	-0.789963	-0.113820	-0.416661	0.435197
55227	-7.310272	-2.540905	5.529844	-0.873360	-0.230079	-0.343806	-0.790705	-0.112173	-0.416381	0.434544
55228	-7.280200	-2.544736	5.343515	-0.966797	-0.127429	-0.481066	-0.791258	-0.110389	-0.416341	0.434034
55229	-7.330980	-2.701420	5.239368	-1.150150	-0.114089	-0.476949	-0.791428	-0.108825	-0.416511	0.433957
55230	-7.329173	-2.628509	5.297821	-1.046730	-0.085398	-0.453746	-0.791299	-0.107808	-0.416670	0.434291
55231	-7.273205	-2.612235	5.430965	-0.932426	-0.167561	-0.414754	-0.790791	-0.107517	-0.416815	0.435150
55232	-7.194772	-2.227085	5.783517	-0.402991	-0.167291	-0.326733	-0.789958	-0.107850	-0.416910	0.436486
55233	-7.120781	-1.858199	6.047578	0.061300	-0.132154	-0.288487	-0.789112	-0.108261	-0.417019	0.437809
55234	-7.061336	-1.553860	6.095754	0.352748	-0.013800	-0.362263	-0.788421	-0.108363	-0.417502	0.438568
55235	-7.210937	-1.575768	6.093221	0.313520	0.064301	-0.246835	-0.787907	-0.107725	-0.418434	0.438761
55236	-7.344261	-1.801549	6.072634	0.116332	0.024800	-0.114934	-0.787475	-0.106796	-0.419538	0.438709
55237	-7.437766	-2.092150	6.095984	-0.096410	-0.101707	0.027983	-0.787016	-0.106244	-0.420459	0.438785
55238	-7.526639	-2.149879	6.172950	-0.100955	-0.126963	0.154822	-0.786448	-0.106272	-0.421181	0.439105
55239	-7.583557	-1.974399	6.273455	0.094874	-0.049775	0.224908	-0.785805	-0.106442	-0.421858	0.439565
55240	-7.546978	-1.839135	6.287723	0.234275	-0.004384	0.178300	-0.785165	-0.106441	-0.422517	0.440074
55241	-7.528446	-1.703228	6.455980	0.460832	-0.030038	0.239419	-0.784429	-0.106255	-0.423383	0.440599
55242	-7.553416	-1.766991	6.650263	0.538001	-0.158217	0.389657	-0.783751	-0.105835	-0.424115	0.441203
55243	-7.398475	-1.735543	6.796082	0.704115	-0.306208	0.353271	-0.783295	-0.105233	-0.424578	0.441711
55244	-7.395029	-1.653111	6.690875	0.724949	-0.192722	0.268202	-0.783094	-0.104484	-0.424866	0.441967
55245	-7.501383	-1.730784	6.452231	0.512762	-0.032946	0.218943	-0.783154	-0.103677	-0.425010	0.441914
55246	-7.670240	-1.934710	6.213739	0.181554	0.091063	0.244398	-0.783320	-0.102916	-0.424907	0.441895
55247	-7.536372	-1.862323	5.948404	0.119987	0.209526	-0.035656	-0.783502	-0.102367	-0.424659	0.441940
55248	-7.589576	-1.761683	5.938389	0.179772	0.313634	-0.022949	-0.783601	-0.102115	-0.424614	0.441865
55249	-7.698782	-1.621160	6.079170	0.344265	0.387809	0.116401	-0.783661	-0.102004	-0.424653	0.441747
55250	-7.577732	-1.682060	6.115304	0.346652	0.261651	0.059478	-0.783856	-0.101769	-0.424561	0.441544
55251	-7.413080	-1.687369	6.056008	0.347525	0.194176	-0.100956	-0.784129	-0.101481	-0.424556	0.441130
55252	-7.412898	-1.631109	6.019860	0.369680	0.247285	-0.135267	-0.784439	-0.101258	-0.424627	0.440560
55253	-7.501601	-1.566835	5.986161	0.378640	0.353167	-0.102126	-0.784756	-0.101105	-0.424959	0.439710
55254	-7.597717	-1.565629	5.895304	0.305085	0.454619	-0.084823	-0.785179	-0.100778	-0.425353	0.438648
55255	-7.511186	-1.393975	5.709352	0.354590	0.600679	-0.301051	-0.785796	-0.100101	-0.425791	0.437272
55256	-7.349771	-1.544185	5.429376	0.121287	0.560009	-0.563177	-0.786446	-0.099277	-0.426626	0.435474
55257	-7.326095	-1.710393	5.372511	-0.023724	0.467865	-0.580054	-0.786933	-0.098495	-0.427703	0.433712
55258	-7.374715	-1.963588	5.321906	-0.247786	0.357853	-0.518856	-0.787391	-0.097971	-0.428830	0.431883
55259	-7.398330	-2.180316	5.212995	-0.474554	0.277532	-0.519567	-0.787747	-0.098157	-0.429861	0.430163
55260	-7.495723	-2.269425	5.178553	-0.584267	0.269375	-0.445748	-0.787925	-0.099130	-0.430739	0.428733
55261	-7.669490	-2.335090	5.319508	-0.597552	0.219561	-0.212402	-0.787919	-0.100759	-0.431434	0.427662
55262	-7.789915	-2.189061	5.592788	-0.358861	0.195158	0.015184	-0.787778	-0.102295	-0.432120	0.426865
55263	-7.882012	-2.157973	5.735948	-0.273795	0.156735	0.166513	-0.787679	-0.103337	-0.432947	0.425957
55264	-7.812608	-2.114947	5.760623	-0.201700	0.100562	0.119270	-0.787622	-0.103842	-0.434013	0.424854
55265	-7.747380	-2.138042	5.773243	-0.181845	0.015516	0.081254	-0.787556	-0.104106	-0.435297	0.423596
55266	-7.584772	-2.099825	5.770987	-0.096013	-0.078899	-0.054266	-0.787565	-0.104256	-0.436653	0.422144
55267	-7.533819	-2.305150	5.750687	-0.232900	-0.250549	-0.064588	-0.787555	-0.104352	-0.438076	0.420662
55268	-7.565652	-2.307862	5.990725	-0.077863	-0.388474	0.101799	-0.787384	-0.104345	-0.439554	0.419442
55269	-7.646104	-2.384333	6.205048	-0.005168	-0.529132	0.305143	-0.787271	-0.104368	-0.440860	0.418274
55270	-7.677317	-2.408130	6.313914	0.054433	-0.607512	0.396803	-0.787278	-0.104359	-0.442118	0.416935
55271	-7.994834	-2.944683	6.477496	-0.309184	-0.874760	0.849658	-0.787332	-0.103920	-0.443344	0.415637
55272	-8.248320	-3.438050	6.649454	-0.618242	-1.146162	1.249604	-0.787314	-0.103337	-0.443974	0.415144
55273	-8.048650	-3.315561	6.696661	-0.432526	-1.196727	1.096011	-0.787212	-0.102415	-0.444014	0.415525
55274	-7.813965	-3.079187	6.540355	-0.278405	-1.072802	0.774437	-0.786938	-0.101237	-0.444107	0.416230
55275	-7.629247	-3.133963	6.432566	-0.324143	-1.125953	0.581162	-0.786586	-0.100043	-0.444003	0.417295
55276	-7.212038	-3.015162	6.373482	-0.156888	-1.224246	0.197432	-0.786100	-0.099149	-0.443577	0.418874
55277	-7.078625	-2.656517	6.531425	0.247348	-1.128254	0.111491	-0.785570	-0.098288	-0.443111	0.420560
55278	-7.103687	-2.510831	6.637454	0.420133	-1.044383	0.165041	-0.785309	-0.096917	-0.442424	0.422088
55279	-7.296229	-2.472259	6.592835	0.379088	-0.841989	0.284819	-0.785355	-0.094954	-0.441610	0.423299
55280	-7.625766	-2.578099	6.351723	0.076334	-0.537654	0.426850	-0.785636	-0.092541	-0.440707	0.424251
55281	-7.631306	-2.690425	5.978623	-0.232650	-0.349970	0.239289	-0.786047	-0.089833	-0.439657	0.425160
55282	-7.662518	-2.763920	5.559113	-0.546609	-0.099541	0.033541	-0.786365	-0.087092	-0.438765	0.426064
55283	-7.519353	-2.823332	5.181260	-0.780313	0.028302	-0.286543	-0.786421	-0.084864	-0.437971	0.427226
55284	-7.528991	-2.832934	5.126922	-0.815904	0.100944	-0.308977	-0.786075	-0.083460	-0.437317	0.428806
55285	-7.863731	-2.585445	5.424559	-0.525124	0.341742	0.064354	-0.785492	-0.082642	-0.436313	0.431050
55286	-7.714664	-2.090364	5.505961	-0.068551	0.556035	-0.123145	-0.784941	-0.081955	-0.434930	0.433575
55287	-7.779860	-1.862723	5.529912	0.102118	0.762422	-0.118150	-0.784408	-0.080981	-0.434035	0.435614
55288	-7.721197	-1.900140	5.368876	-0.004779	0.823863	-0.253746	-0.783999	-0.079824	-0.433316	0.437277
55289	-7.495588	-2.044107	5.129927	-0.196624	0.754147	-0.535249	-0.783430	-0.078790	-0.432956	0.438838
55290	-7.291476	-2.029182	5.080604	-0.156754	0.688571	-0.724399	-0.782640	-0.078399	-0.432625	0.440641
55291	-7.246826	-1.826174	5.171618	0.069854	0.751924	-0.755825	-0.781672	-0.078897	-0.432214	0.442667
55292	-7.243145	-1.631080	5.492667	0.417230	0.704159	-0.613609	-0.780576	-0.080061	-0.432042	0.444558
55293	-7.378655	-1.674988	5.927699	0.614335	0.528333	-0.235048	-0.779535	-0.081840	-0.431827	0.446266
55294	-7.625160	-1.751089	6.369576	0.754676	0.389680	0.240145	-0.778647	-0.084064	-0.431191	0.448014
55295	-7.818975	-1.748218	6.676381	0.870908	0.331437	0.574721	-0.778133	-0.086540	-0.429948	0.449627
55296	-7.844340	-1.744097	6.742891	0.873967	0.301439	0.636587	-0.777927	-0.088268	-0.428539	0.450991
55297	-7.613879	-1.669579	6.602113	0.876145	0.276098	0.360938	-0.777948	-0.088607	-0.427684	0.451698
55298	-7.575563	-1.960619	6.452928	0.565901	0.175724	0.312643	-0.778035	-0.087726	-0.427623	0.451779
55299	-7.583304	-2.090763	6.170641	0.303843	0.272697	0.176701	-0.778174	-0.086651	-0.427491	0.451872
55300	-7.444513	-2.106475	5.942783	0.191752	0.316951	-0.063974	-0.778396	-0.085727	-0.427035	0.452098
55301	-7.304377	-2.174199	5.879039	0.129202	0.240631	-0.191380	-0.778539	-0.085402	-0.426438	0.452475
55302	-7.353415	-2.361417	6.048646	0.059950	0.084195	-0.003284	-0.778613	-0.085878	-0.425568	0.453076
55303	-7.307416	-2.308637	6.146364	0.148285	0.039957	0.009853	-0.778707	-0.086580	-0.424406	0.453871
55304	-7.231265	-2.359382	6.128720	0.094544	-0.021465	-0.044901	-0.778852	-0.087009	-0.423477	0.454408
55305	-7.455815	-2.514829	6.103586	-0.108799	0.051445	0.144862	-0.778983	-0.087284	-0.422675	0.454877
55306	-7.564342	-2.530762	6.022445	-0.208961	0.162474	0.178497	-0.779213	-0.087464	-0.421714	0.455341
55307	-7.595801	-2.667373	5.980488	-0.366513	0.138003	0.208484	-0.779435	-0.087723	-0.420604	0.455936
55308	-7.451729	-2.587091	6.016515	-0.270988	0.087566	0.103894	-0.779616	-0.087905	-0.419320	0.456775
55309	-7.239832	-2.608324	5.985746	-0.276624	-0.024300	-0.067406	-0.779833	-0.087732	-0.418118	0.457539
55310	-7.166180	-2.654532	5.854876	-0.385781	-0.008037	-0.193368	-0.779980	-0.087398	-0.417104	0.458276
55311	-7.158283	-2.690559	5.805404	-0.451262	0.012412	-0.222118	-0.780009	-0.087089	-0.416240	0.459071
55312	-7.237999	-2.732025	5.968531	-0.416835	-0.024366	-0.050435	-0.779879	-0.086643	-0.415420	0.460118
55313	-7.068149	-2.703192	6.012991	-0.335093	-0.116531	-0.153696	-0.779709	-0.086076	-0.414613	0.461238
55314	-7.048666	-2.910192	5.959988	-0.526564	-0.192347	-0.150386	-0.779378	-0.085502	-0.414016	0.462439
55315	-7.172143	-3.067480	6.065744	-0.621501	-0.231976	0.046430	-0.778835	-0.085415	-0.413237	0.464064
55316	-7.241206	-2.926276	6.208886	-0.452782	-0.160804	0.153129	-0.778206	-0.085714	-0.412071	0.466097
55317	-7.277973	-2.780298	6.230389	-0.344866	-0.042085	0.157062	-0.777514	-0.085881	-0.410794	0.468343
55318	-7.237625	-2.585845	6.173394	-0.220678	0.098264	0.042370	-0.776766	-0.085604	-0.409613	0.470663
55319	-7.148490	-2.530653	6.123401	-0.187893	0.130042	-0.068518	-0.775968	-0.085142	-0.408542	0.472989
55320	-7.106401	-2.382807	6.142409	-0.050830	0.206331	-0.124415	-0.775146	-0.084717	-0.407398	0.475393
55321	-7.027913	-2.103292	6.061102	0.149252	0.381232	-0.305605	-0.774426	-0.083730	-0.406562	0.477453
55322	-6.944639	-2.184501	5.942634	0.047185	0.380093	-0.422898	-0.773759	-0.082366	-0.406224	0.479056
55323	-6.901449	-2.400985	5.917459	-0.117969	0.280343	-0.414897	-0.773148	-0.081313	-0.406076	0.480346
55324	-6.792472	-2.596508	6.018221	-0.190161	0.073770	-0.375692	-0.772466	-0.081125	-0.405629	0.481850
55325	-6.813312	-2.514748	6.272470	0.011613	0.012147	-0.216399	-0.771666	-0.081461	-0.405101	0.483518
55326	-6.775371	-2.338725	6.413722	0.239479	0.014500	-0.197411	-0.770938	-0.081581	-0.404773	0.484931
55327	-6.912614	-2.377850	6.496298	0.230572	0.053306	-0.035966	-0.770216	-0.081515	-0.404791	0.486073
55328	-7.028709	-2.361589	6.712972	0.348567	0.036634	0.183361	-0.769604	-0.081130	-0.404824	0.487078
55329	-6.944664	-2.425536	6.580589	0.254088	0.032593	0.053926	-0.769173	-0.080103	-0.404906	0.487861
55330	-6.896620	-2.458689	6.381048	0.147667	0.108829	-0.102252	-0.768789	-0.078606	-0.405309	0.488374
55331	-6.907184	-2.598277	6.262910	-0.008003	0.128164	-0.134480	-0.768386	-0.077108	-0.405805	0.488834
55332	-6.849349	-2.631644	6.123988	-0.077102	0.162310	-0.257060	-0.767986	-0.075950	-0.406244	0.489280
55333	-6.958825	-2.638933	6.136433	-0.076465	0.241859	-0.170041	-0.767589	-0.074955	-0.406665	0.489707
55334	-7.037223	-2.598141	6.115031	-0.047692	0.341140	-0.140680	-0.767201	-0.073734	-0.407300	0.489973
55335	-7.128901	-2.844158	6.042772	-0.278911	0.327553	-0.053568	-0.766754	-0.072672	-0.408183	0.490095
55336	-7.269999	-3.145270	6.080591	-0.504653	0.254380	0.157257	-0.766193	-0.072425	-0.409039	0.490296
55337	-7.215396	-3.242861	6.157765	-0.518465	0.121151	0.197940	-0.765435	-0.073212	-0.409377	0.491080
55338	-7.144163	-2.954495	6.379130	-0.147189	0.091147	0.208860	-0.764432	-0.074666	-0.409486	0.492331
55339	-7.239871	-2.665228	6.570760	0.175867	0.188232	0.317846	-0.763329	-0.076095	-0.409543	0.493774
55340	-7.205557	-2.404537	6.578615	0.399819	0.280730	0.224312	-0.762287	-0.077087	-0.409550	0.495223
55341	-7.120273	-2.331211	6.457503	0.412967	0.317336	0.064607	-0.761314	-0.077718	-0.409727	0.496473
55342	-7.122347	-2.341256	6.438511	0.401658	0.320585	0.056438	-0.760415	-0.078217	-0.409915	0.497615
55343	-7.038074	-2.298302	6.393179	0.432208	0.306994	-0.044967	-0.759700	-0.078587	-0.409885	0.498672
55344	-7.010775	-2.217266	6.279628	0.447847	0.390476	-0.161371	-0.759139	-0.078594	-0.410019	0.499415
55345	-7.003787	-2.210840	6.175641	0.407491	0.447507	-0.235993	-0.758739	-0.078322	-0.410331	0.499809
55346	-7.081845	-2.300023	6.132232	0.307807	0.481941	-0.183571	-0.758497	-0.078218	-0.410700	0.499890
55347	-7.085818	-2.375526	6.140459	0.255141	0.438306	-0.153497	-0.758415	-0.078468	-0.411042	0.499694
55348	-7.045970	-2.557135	6.166396	0.127105	0.296500	-0.111915	-0.758367	-0.079080	-0.411425	0.499355
55349	-6.987852	-2.732117	6.319856	0.073601	0.070367	-0.003268	-0.758236	-0.080086	-0.411814	0.499072
55350	-7.003865	-2.723475	6.583056	0.216259	-0.079656	0.175050	-0.758048	-0.081373	-0.412166	0.498860
55351	-7.202984	-2.692007	6.818324	0.331619	-0.078336	0.458791	-0.757873	-0.082490	-0.412378	0.498766
55352	-7.233479	-2.443064	6.810400	0.522574	0.057087	0.404796	-0.757913	-0.082660	-0.412243	0.498789
55353	-7.031848	-2.401981	6.467629	0.403186	0.130822	0.029413	-0.758174	-0.081850	-0.412183	0.498576
55354	-6.862721	-2.389842	6.146214	0.272470	0.209723	-0.301327	-0.758580	-0.080501	-0.412199	0.498164
55355	-6.699136	-2.560738	5.786001	-0.029859	0.223065	-0.600579	-0.759059	-0.079279	-0.412307	0.497541
55356	-6.650741	-2.714192	5.660524	-0.212029	0.188374	-0.671556	-0.759465	-0.078799	-0.412444	0.496885
55357	-6.812810	-2.827438	5.721705	-0.300061	0.207752	-0.484585	-0.759856	-0.079000	-0.412418	0.496276
55358	-7.063793	-2.886965	5.896546	-0.300217	0.248109	-0.176853	-0.760182	-0.079305	-0.412495	0.495663
55359	-7.231123	-3.086621	5.895952	-0.494651	0.256140	-0.001045	-0.760477	-0.079244	-0.412700	0.495050
55360	-7.211718	-3.186573	5.934043	-0.549606	0.167291	0.038502	-0.760582	-0.079054	-0.413090	0.494594
55361	-7.180958	-3.229813	6.073613	-0.496274	0.043738	0.119000	-0.760574	-0.078963	-0.413611	0.494185
55362	-7.165209	-3.340183	6.174151	-0.521549	-0.084420	0.204200	-0.760431	-0.079159	-0.414095	0.493968
55363	-7.091099	-3.153833	6.339868	-0.261381	-0.140227	0.204113	-0.760192	-0.079563	-0.414367	0.494043
55364	-7.093426	-2.969177	6.467706	-0.036569	-0.121586	0.234591	-0.759973	-0.079658	-0.414647	0.494129
55365	-7.024345	-2.818826	6.346533	0.038081	-0.028449	0.064732	-0.759827	-0.079264	-0.414867	0.494232
55366	-6.867118	-2.764459	6.144625	0.007326	0.004402	-0.192091	-0.759782	-0.078613	-0.415262	0.494074
55367	-6.912125	-2.819717	6.119918	-0.046142	0.022877	-0.159760	-0.759739	-0.078076	-0.415829	0.493747
55368	-6.956422	-2.951393	6.095369	-0.164202	0.001763	-0.105521	-0.759755	-0.077647	-0.416072	0.493586
55369	-6.881151	-2.937864	6.299617	-0.022287	-0.151532	-0.032964	-0.759631	-0.077643	-0.416242	0.493635
55370	-7.049351	-2.901531	6.645006	0.172954	-0.206464	0.296506	-0.759563	-0.077867	-0.416294	0.493660
55371	-7.189783	-3.045456	6.814776	0.124068	-0.275411	0.546739	-0.759609	-0.078001	-0.416111	0.493722
55372	-7.220582	-3.078256	6.893785	0.131085	-0.306388	0.628848	-0.759634	-0.077749	-0.415591	0.494161
55373	-7.092952	-3.176172	6.765468	-0.005286	-0.358429	0.484937	-0.759640	-0.077442	-0.414916	0.494768
55374	-7.100872	-3.420237	6.798488	-0.202451	-0.475427	0.583118	-0.759525	-0.077871	-0.413678	0.495912
55375	-7.054348	-3.202622	6.860576	-0.015258	-0.416075	0.527264	-0.759451	-0.079036	-0.411574	0.497588
55376	-7.046984	-2.880022	6.868576	0.212558	-0.247874	0.435485	-0.759418	-0.080036	-0.409333	0.499325
55377	-6.936981	-2.670373	6.816576	0.337301	-0.171345	0.265757	-0.759435	-0.080531	-0.407371	0.500821
55378	-7.097266	-2.648487	6.680041	0.227505	0.050841	0.284547	-0.759586	-0.080305	-0.405597	0.502067
55379	-6.842376	-2.615838	6.401831	0.125022	0.073306	-0.085252	-0.759838	-0.079660	-0.403755	0.503271
55380	-6.734667	-2.629558	6.237764	0.024597	0.116430	-0.264614	-0.760130	-0.078853	-0.402037	0.504333
55381	-6.523568	-2.538221	6.068136	0.028255	0.137097	-0.549746	-0.760476	-0.078099	-0.400470	0.505174
55382	-6.563324	-2.489024	5.969593	-0.004260	0.269667	-0.602058	-0.760846	-0.077414	-0.399203	0.505725
55383	-6.683192	-2.461159	5.869984	-0.065586	0.444547	-0.594385	-0.761228	-0.076708	-0.398121	0.506110
55384	-6.612757	-2.434509	5.815084	-0.069117	0.458024	-0.688215	-0.761635	-0.075880	-0.397357	0.506223
55385	-6.627687	-2.673675	5.845523	-0.261647	0.354999	-0.590409	-0.762050	-0.075422	-0.396755	0.506139
55386	-6.753050	-2.808057	6.046770	-0.298832	0.282418	-0.332012	-0.762465	-0.075486	-0.396169	0.505964
55387	-6.784693	-2.688142	6.338848	-0.062070	0.208871	-0.148751	-0.762875	-0.075743	-0.395905	0.505514
55388	-6.877144	-2.829528	6.602922	-0.063703	0.063277	0.131751	-0.763280	-0.075818	-0.396014	0.504805
55389	-6.852978	-3.104865	6.642878	-0.271806	-0.112109	0.219505	-0.763686	-0.075858	-0.395983	0.504209
55390	-6.854085	-3.349068	6.668610	-0.465993	-0.245812	0.305984	-0.763929	-0.075951	-0.395937	0.503862
55391	-7.032190	-3.302805	6.817208	-0.386280	-0.173587	0.514712	-0.764035	-0.075926	-0.395455	0.504085
55392	-6.886906	-2.819824	6.682651	-0.035923	0.039178	0.189105	-0.764177	-0.075263	-0.394768	0.504508
55393	-6.698514	-2.751849	6.258195	-0.168242	0.178019	-0.244629	-0.764205	-0.074310	-0.394617	0.504723
55394	-6.609777	-2.807395	6.157879	-0.244355	0.153424	-0.357169	-0.764085	-0.073746	-0.394704	0.504920
55395	-6.363967	-2.692031	6.157092	-0.102272	0.037849	-0.558230	-0.763887	-0.073998	-0.394710	0.505179
55396	-6.384236	-2.627348	6.431644	0.089786	-0.067312	-0.377919	-0.763681	-0.074910	-0.394827	0.505263
55397	-6.510497	-2.733159	6.674111	0.102239	-0.171368	-0.098747	-0.763580	-0.075904	-0.395140	0.505024
55398	-6.905797	-2.933975	6.888088	-0.024858	-0.114868	0.372114	-0.763486	-0.076472	-0.395325	0.504934
55399	-6.963278	-2.891023	6.850254	-0.020598	-0.039238	0.374033	-0.763581	-0.076397	-0.395273	0.504843
55400	-6.853466	-2.690961	6.756983	0.119391	0.031461	0.179952	-0.763664	-0.075781	-0.395408	0.504705
55401	-6.674347	-2.827585	6.579547	-0.043095	-0.059721	-0.023555	-0.763758	-0.074574	-0.395998	0.504280
55402	-6.451624	-3.022658	6.423834	-0.228777	-0.220350	-0.224954	-0.763776	-0.073336	-0.396597	0.503962
55403	-6.339890	-2.980926	6.274871	-0.236123	-0.192971	-0.412628	-0.763686	-0.072427	-0.396985	0.503926
55404	-6.334946	-2.758637	6.301518	-0.023262	-0.095781	-0.461697	-0.763475	-0.071812	-0.397302	0.504084
55405	-6.400195	-2.629942	6.456777	0.167693	-0.063758	-0.350296	-0.763202	-0.071369	-0.397792	0.504173
55406	-6.669256	-2.702249	6.707906	0.211065	-0.036368	0.022516	-0.763025	-0.070796	-0.398470	0.503987
55407	-6.690052	-2.888199	6.720046	0.078522	-0.113597	0.098841	-0.762931	-0.069822	-0.399086	0.503776
55408	-6.604495	-3.030465	6.609304	-0.062263	-0.177679	0.008233	-0.762825	-0.068594	-0.399815	0.503528
55409	-6.663650	-3.217614	6.533941	-0.241966	-0.178282	0.054392	-0.762553	-0.067379	-0.400650	0.503441
55410	-6.682786	-3.125460	6.557148	-0.132845	-0.122216	0.056035	-0.762237	-0.066359	-0.401183	0.503630
55411	-6.656884	-3.156791	6.526920	-0.152757	-0.131980	0.028011	-0.761820	-0.065872	-0.401612	0.503984
55412	-6.672831	-3.082508	6.739918	0.033572	-0.190599	0.158149	-0.761421	-0.065760	-0.401899	0.504371
55413	-6.818923	-3.131185	6.866408	0.047814	-0.174131	0.356726	-0.761015	-0.065671	-0.402241	0.504723
55414	-6.829846	-3.118529	6.884866	0.076013	-0.167856	0.372568	-0.760639	-0.065466	-0.402468	0.505136
55415	-6.917782	-3.084039	6.792793	0.051803	-0.036730	0.361053	-0.760266	-0.064973	-0.402847	0.505459
55416	-7.090458	-3.114974	6.779966	0.008664	0.089267	0.479907	-0.759911	-0.063903	-0.403159	0.505880
55417	-6.953169	-3.161567	6.594525	-0.090576	0.085309	0.277618	-0.759605	-0.062501	-0.403165	0.506510
55418	-6.739552	-3.143564	6.375759	-0.143655	0.078552	-0.018456	-0.759288	-0.061033	-0.403240	0.507103
55419	-6.643436	-3.113858	6.173340	-0.195813	0.151382	-0.227274	-0.758857	-0.059624	-0.403395	0.507792
55420	-6.462771	-2.927800	6.057720	-0.058006	0.190087	-0.485532	-0.758311	-0.058388	-0.403731	0.508485
55421	-6.475032	-2.893018	5.997973	-0.042463	0.260660	-0.528213	-0.757667	-0.057491	-0.404303	0.509091
55422	-6.601209	-2.901620	6.039975	-0.025514	0.335532	-0.412506	-0.756981	-0.057018	-0.404747	0.509813
55423	-6.613104	-2.829391	6.017294	0.032537	0.392215	-0.442974	-0.756272	-0.057295	-0.405078	0.510570
55424	-6.704224	-2.629131	6.256818	0.321833	0.423280	-0.287774	-0.755513	-0.058261	-0.405386	0.511339
55425	-6.604052	-2.345468	6.465090	0.687355	0.361714	-0.309594	-0.754814	-0.059373	-0.405902	0.511835
55426	-6.622076	-2.387468	6.626611	0.745652	0.253144	-0.177141	-0.754246	-0.060078	-0.406711	0.511947
55427	-6.501358	-2.384561	6.545922	0.729990	0.192297	-0.313582	-0.753946	-0.060461	-0.407455	0.511752
55428	-6.413603	-2.436031	6.454208	0.656027	0.136525	-0.417140	-0.753792	-0.061039	-0.408085	0.511408
55429	-6.358283	-2.257169	6.416160	0.791010	0.180161	-0.537371	-0.753843	-0.061961	-0.408660	0.510762
55430	-6.419826	-2.129239	6.339642	0.844301	0.299684	-0.585760	-0.754064	-0.062790	-0.409427	0.509720
55431	-6.310140	-2.130058	6.074084	0.715280	0.335334	-0.833522	-0.754441	-0.063094	-0.410446	0.508304
55432	-6.174419	-2.154969	5.673769	0.501482	0.412011	-1.179165	-0.754841	-0.063164	-0.411888	0.506531
55433	-6.035432	-2.278655	5.305511	0.229221	0.417104	-1.473591	-0.755179	-0.063451	-0.413823	0.504410
55434	-6.019858	-2.332161	4.970056	0.017384	0.512747	-1.681533	-0.755241	-0.064552	-0.416435	0.502022
55435	-6.225215	-2.354451	4.876699	-0.065271	0.635788	-1.586506	-0.755099	-0.066547	-0.419382	0.499516
55436	-6.257468	-2.425625	4.721432	-0.198885	0.632664	-1.633987	-0.754772	-0.069227	-0.422619	0.496910
55437	-6.262399	-2.540083	4.786431	-0.238456	0.462794	-1.547828	-0.754172	-0.072404	-0.426049	0.494433
55438	-6.317462	-2.706092	5.190151	-0.129066	0.111379	-1.202165	-0.753188	-0.075647	-0.429833	0.492167
55439	-6.260339	-2.778419	5.525524	0.038354	-0.233326	-1.015737	-0.752022	-0.078594	-0.433253	0.490487
55440	-5.903879	-2.731136	5.686283	0.247756	-0.618476	-1.198506	-0.750697	-0.081393	-0.437063	0.488677
55441	-6.039289	-3.120417	6.234297	0.268204	-1.119924	-0.661216	-0.749056	-0.084202	-0.441280	0.486926
55442	-6.395880	-3.840686	7.120053	0.193190	-1.854310	0.330112	-0.747076	-0.087688	-0.445390	0.485609
55443	-6.686219	-4.064178	8.539033	0.826467	-2.700191	1.419542	-0.744721	-0.091640	-0.448530	0.485606
55444	-6.579654	-3.814918	10.096594	1.949380	-3.644401	2.133195	-0.742505	-0.095143	-0.450623	0.486388
55445	-6.749732	-3.810457	11.016343	2.455920	-4.152046	2.763755	-0.740901	-0.097570	-0.451608	0.487438
55446	-6.930057	-4.081195	11.446551	2.446454	-4.460395	3.219008	-0.740165	-0.098187	-0.451184	0.488823
55447	-7.006477	-4.263948	11.222439	2.155252	-4.331711	3.218264	-0.740221	-0.095859	-0.449906	0.490377
55448	-7.122827	-4.274291	10.783464	1.904099	-3.879872	3.094893	-0.741177	-0.090044	-0.447566	0.492173
55449	-6.799888	-4.466634	9.669435	1.178663	-3.333883	2.319014	-0.742787	-0.081611	-0.443597	0.494802
55450	-6.589988	-3.848446	8.834517	1.252338	-2.438523	1.534820	-0.744245	-0.071573	-0.438559	0.498640
55451	-5.974227	-3.135257	7.859815	1.361853	-1.691610	0.315242	-0.745556	-0.060110	-0.432695	0.503297
55452	-4.950768	-2.415657	6.676249	1.396457	-1.180117	-1.352703	-0.746070	-0.049858	-0.427785	0.507833
55453	-5.940637	-1.748265	6.132082	1.529203	0.309358	-1.238683	-0.745504	-0.042036	-0.424068	0.512468
55454	-7.662778	-0.666810	5.914301	2.094875	2.332520	-0.630608	-0.745163	-0.036285	-0.419587	0.517070
55455	-9.519768	0.842966	5.555932	2.875202	4.725316	-0.241527	-0.746491	-0.031462	-0.413811	0.520117
55456	-11.177952	1.704656	4.526223	2.702051	7.010675	-0.227034	-0.750118	-0.025819	-0.408251	0.519603
55457	-12.398586	1.626391	3.158722	1.541309	8.679968	-0.398581	-0.755614	-0.018683	-0.405180	0.514323
55458	-13.221312	0.182850	1.725936	-0.774359	9.338492	-0.325650	-0.762001	-0.011849	-0.405499	0.504763
55459	-13.501680	-1.408895	0.867460	-2.809182	9.087601	-0.088946	-0.768395	-0.007154	-0.407688	0.493263
55460	-13.096302	-2.239861	0.574228	-3.776103	8.328842	-0.157426	-0.774653	-0.005190	-0.410163	0.481302
55461	-11.782258	-2.422743	0.796083	-3.708870	6.975390	-0.707366	-0.780356	-0.005304	-0.412995	0.469523
55462	-9.960331	-2.313292	1.529173	-2.911881	5.217838	-1.375389	-0.785188	-0.007595	-0.416770	0.457958
55463	-8.289823	-2.583497	2.414585	-2.246349	3.312335	-1.737819	-0.789443	-0.012850	-0.421106	0.446413
55464	-6.654137	-2.442712	3.644858	-1.007999	1.554872	-2.060814	-0.792933	-0.021225	-0.425408	0.435701
55465	-5.371008	-2.165095	4.898302	0.289223	0.137408	-2.234939	-0.796054	-0.031483	-0.429441	0.425308
55466	-4.375011	-1.995254	6.147443	1.450465	-1.136343	-2.228890	-0.799049	-0.042390	-0.433018	0.414993
55467	-3.645063	-2.118036	7.358995	2.323563	-2.399902	-2.017478	-0.802070	-0.053185	-0.436109	0.404553
55468	-3.661550	-2.530136	8.301897	2.612975	-3.284172	-1.379849	-0.805334	-0.063559	-0.438258	0.394117
55469	-3.968305	-2.912199	9.045631	2.698288	-3.896492	-0.670197	-0.809142	-0.072448	-0.438918	0.383915
55470	-4.506330	-3.520052	9.447997	2.313342	-4.364817	0.064411	-0.813815	-0.078986	-0.437362	0.374407
55471	-4.647325	-3.996719	9.491490	1.885192	-4.756593	0.261002	-0.819073	-0.083537	-0.433448	0.366421
55472	-5.503730	-3.432090	9.303659	1.725692	-3.870778	0.707094	-0.824964	-0.085856	-0.427509	0.359583
55473	-6.841169	-2.378420	8.717780	1.413650	-2.142423	1.226686	-0.831422	-0.084824	-0.421073	0.352477
55474	-9.161228	-1.978253	7.802861	0.024433	-0.202070	2.380841	-0.838575	-0.080100	-0.415250	0.343429
55475	-10.470274	-2.272266	6.704267	-1.574100	0.764597	2.704196	-0.845892	-0.073007	-0.410604	0.332479
55476	-10.354520	-3.118251	6.033491	-2.600603	0.341498	2.289476	-0.852348	-0.064957	-0.408673	0.319798
55477	-9.958552	-4.271107	5.701311	-3.350248	-0.683596	1.944350	-0.857381	-0.057162	-0.409689	0.306243
55478	-9.217792	-5.695198	5.607568	-3.800654	-2.243933	1.561196	-0.860779	-0.049898	-0.412715	0.293658
55479	-8.265066	-6.813042	5.689718	-3.749482	-3.728486	1.102364	-0.862027	-0.044835	-0.417024	0.284587
55480	-7.502433	-7.135817	6.267086	-2.995408	-4.606038	0.971224	-0.861226	-0.043497	-0.421693	0.280310
55481	-6.903219	-6.557932	7.214289	-1.638489	-4.754094	1.023369	-0.858869	-0.046123	-0.425788	0.280929
55482	-5.667910	-4.738352	8.290100	0.697666	-4.199289	0.443114	-0.855574	-0.051179	-0.429137	0.284984
55483	-4.442068	-3.222161	8.850349	2.476202	-3.757912	-0.421806	-0.852182	-0.056010	-0.432044	0.289803
55484	-3.088628	-1.833066	9.003062	3.964770	-3.336221	-1.620936	-0.849818	-0.057815	-0.434578	0.292588
55485	-2.221297	-2.339980	8.379533	3.685228	-3.919757	-2.623801	-0.848419	-0.054178	-0.438286	0.291816
55486	-1.983902	-3.822824	7.517998	2.471066	-4.883706	-3.096169	-0.847699	-0.047133	-0.442095	0.289373
55487	-2.014111	-5.223031	6.486447	1.083725	-5.599171	-3.418654	-0.847371	-0.039118	-0.444789	0.287394
55488	-2.559671	-6.254053	5.521064	-0.311906	-5.820238	-3.318556	-0.847042	-0.032755	-0.445507	0.288044
55489	-3.346874	-6.702317	5.050022	-1.209909	-5.610837	-2.835640	-0.846185	-0.029328	-0.444618	0.292277
55490	-4.781223	-6.750346	5.152990	-1.816306	-4.921622	-1.599428	-0.844281	-0.028118	-0.442842	0.300484
55491	-6.916111	-6.341405	5.579797	-2.255607	-3.575078	0.252555	-0.841226	-0.028734	-0.441266	0.311124
55492	-10.120821	-5.925519	6.600914	-2.652147	-1.838692	3.252455	-0.837356	-0.030479	-0.440255	0.322616
55493	-12.873795	-6.194616	7.641916	-3.161147	-0.827545	6.056347	-0.833235	-0.032302	-0.439607	0.333799
55494	-14.604114	-7.152438	8.243303	-3.947664	-0.660368	7.973953	-0.829409	-0.033026	-0.438432	0.344626
55495	-15.125393	-8.093420	8.212654	-4.733815	-0.793505	8.590590	-0.825990	-0.032329	-0.435754	0.356109
55496	-14.403633	-8.407797	7.661664	-5.083125	-0.836318	7.802726	-0.822474	-0.029775	-0.431494	0.369409
55497	-13.486302	-7.837254	6.997798	-4.878305	-0.228617	6.570235	-0.817630	-0.025985	-0.426879	0.385462
55498	-12.547492	-6.989933	6.566773	-4.283264	0.480284	5.380100	-0.811111	-0.022201	-0.422104	0.404269
55499	-11.705010	-5.599443	6.321298	-3.185753	1.483117	4.185549	-0.803268	-0.019192	-0.416772	0.425081
55500	-11.071269	-4.099405	6.261127	-1.897589	2.504062	3.175439	-0.794959	-0.015509	-0.410933	0.446020
55501	-10.388061	-2.804713	6.025396	-0.810719	3.310783	2.038502	-0.787174	-0.010073	-0.404569	0.465381
55502	-9.374711	-2.183213	5.513117	-0.300922	3.502378	0.707586	-0.780195	-0.001876	-0.398142	0.482468
55503	-8.124031	-2.378191	4.769056	-0.522715	3.090505	-0.616773	-0.773871	0.007810	-0.391690	0.497636
55504	-7.025119	-2.579310	4.176307	-0.731551	2.665656	-1.701078	-0.767880	0.017360	-0.385084	0.511633
55505	-6.449628	-2.580696	3.834171	-0.760272	2.594657	-2.353299	-0.761868	0.026116	-0.378660	0.524873
55506	-6.311463	-2.490400	3.668020	-0.695614	2.811402	-2.664374	-0.755882	0.033750	-0.372258	0.537519
55507	-6.385808	-2.282489	3.579503	-0.526498	3.197185	-2.863023	-0.750109	0.040563	-0.365741	0.549476
55508	-6.449858	-1.940214	3.558127	-0.208910	3.578273	-3.091521	-0.744762	0.047220	-0.359235	0.560402
55509	-6.274836	-1.875154	3.423293	-0.155685	3.659761	-3.394913	-0.739997	0.053541	-0.353318	0.569829
55510	-6.584060	-1.995052	3.464432	-0.200619	4.019739	-3.245231	-0.735686	0.059218	-0.348382	0.577831
55511	-7.006879	-2.180179	3.523719	-0.292026	4.444640	-2.999173	-0.731548	0.064158	-0.344344	0.584934
55512	-7.437394	-2.208573	3.819538	-0.113364	4.843128	-2.649515	-0.727663	0.068267	-0.340970	0.591258
55513	-7.715787	-2.359785	4.127055	-0.019501	5.053961	-2.290027	-0.724370	0.071318	-0.338051	0.596594
55514	-7.871461	-2.626837	4.417474	-0.031898	5.115184	-1.925527	-0.721622	0.073623	-0.335655	0.600979
55515	-7.855179	-3.173403	4.618229	-0.326556	4.962898	-1.544384	-0.719316	0.075058	-0.333638	0.604678
55516	-7.733272	-3.413008	4.749237	-0.415524	4.811251	-1.405183	-0.717110	0.075972	-0.331421	0.608393
55517	-7.340783	-3.139377	4.640776	-0.214401	4.607315	-1.812318	-0.715056	0.076949	-0.329305	0.611826
55518	-6.868842	-2.875454	4.432792	-0.076306	4.344531	-2.314830	-0.713230	0.078111	-0.327913	0.614552
55519	-6.006734	-2.924851	4.281375	-0.151973	3.614566	-2.750292	-0.711197	0.079245	-0.327694	0.616876
55520	-4.862533	-3.032096	4.278598	-0.187269	2.547608	-3.132959	-0.708718	0.079137	-0.328454	0.619334
55521	-3.938235	-2.982059	4.448641	-0.012119	1.645670	-3.371853	-0.705751	0.077005	-0.329892	0.622219
55522	-3.163415	-2.754344	5.191705	0.608157	0.713146	-3.204453	-0.702077	0.072434	-0.332162	0.625707
55523	-3.241559	-2.417961	6.092443	1.389722	0.495186	-2.650641	-0.697986	0.066216	-0.335216	0.629334
55524	-3.301738	-2.393685	7.211201	2.014091	0.076535	-1.777198	-0.694122	0.059257	-0.338106	0.632746
55525	-2.990679	-2.592607	8.084139	2.264967	-0.670941	-1.127224	-0.691468	0.051330	-0.339308	0.635695
55526	-2.645044	-2.768631	8.828331	2.401124	-1.414230	-0.602204	-0.690241	0.042043	-0.338979	0.637882
55527	-2.867704	-2.795201	9.326118	2.508692	-1.545201	-0.100411	-0.690263	0.031398	-0.338354	0.638802
55528	-3.519444	-2.645909	9.587842	2.654318	-1.196134	0.328014	-0.691506	0.020996	-0.338891	0.637598
55529	-4.064023	-2.743552	9.360625	2.379714	-0.806322	0.451263	-0.693836	0.013353	-0.342086	0.633554
55530	-4.118342	-3.729146	8.529117	1.089800	-0.777208	0.277832	-0.696976	0.008555	-0.348269	0.626785
55531	-4.280282	-4.560823	7.948094	0.122402	-0.759644	0.271854	-0.700021	0.004883	-0.356658	0.618661
55532	-4.454902	-5.485784	7.689242	-0.727955	-0.943414	0.562208	-0.701853	0.000778	-0.366619	0.610731
55533	-4.781609	-6.076836	7.643888	-1.177503	-1.059246	0.943959	-0.702384	-0.005637	-0.376139	0.604272
55534	-4.872953	-6.215664	7.878993	-1.131732	-1.408543	1.195824	-0.700988	-0.014456	-0.384609	0.600402
55535	-5.749856	-5.522386	8.410937	-0.233495	-1.017647	1.728800	-0.697860	-0.023692	-0.391519	0.599285
55536	-5.680540	-4.588738	8.485050	0.610800	-1.068591	1.314011	-0.694570	-0.030258	-0.396872	0.599291
55537	-5.019538	-4.073768	8.479520	1.048785	-1.606989	0.675869	-0.691970	-0.034119	-0.401554	0.598972
55538	-4.635050	-4.179365	8.379203	0.929445	-2.008080	0.398301	-0.689689	-0.036937	-0.406506	0.598095
55539	-4.904712	-4.320438	8.696195	1.033060	-2.125035	0.806242	-0.687287	-0.039958	-0.411686	0.597122
55540	-5.393508	-4.314197	8.937591	1.237005	-1.996931	1.235543	-0.684977	-0.042995	-0.416386	0.596306
55541	-5.423168	-4.385047	9.070232	1.286692	-2.181354	1.344982	-0.683551	-0.045391	-0.420264	0.595043
55542	-5.496423	-4.783476	9.101514	1.009267	-2.344599	1.563315	-0.683075	-0.046142	-0.423548	0.593201
55543	-5.193531	-5.306023	8.897879	0.484336	-2.665113	1.455020	-0.683084	-0.045647	-0.425667	0.591709
55544	-5.189237	-5.322284	8.738638	0.428172	-2.602883	1.352448	-0.683189	-0.044565	-0.426940	0.590753
55545	-5.498159	-5.055852	8.534493	0.601600	-2.168215	1.303328	-0.683479	-0.042955	-0.427476	0.590149
55546	-5.661902	-4.843264	8.246839	0.672301	-1.794839	1.134965	-0.684076	-0.040637	-0.427727	0.589439
55547	-5.963159	-4.678819	7.912096	0.692256	-1.293713	1.045429	-0.685042	-0.037382	-0.428275	0.588134
55548	-5.967214	-4.622015	7.471982	0.553600	-0.992147	0.747143	-0.686444	-0.033437	-0.429118	0.586118
55549	-5.961096	-4.864448	6.962588	0.129455	-0.761492	0.535172	-0.688032	-0.029350	-0.430469	0.583478
55550	-6.030658	-5.314686	6.680503	-0.339283	-0.677780	0.611759	-0.689403	-0.025657	-0.431782	0.581059
55551	-6.091681	-5.702660	6.413666	-0.757323	-0.596381	0.667515	-0.690210	-0.022786	-0.432630	0.579588
55552	-6.102813	-5.807699	6.252548	-0.905923	-0.516289	0.626697	-0.690469	-0.021189	-0.432425	0.579493
55553	-6.207188	-5.735423	6.212549	-0.861447	-0.361079	0.634678	-0.690124	-0.020752	-0.431194	0.580835
55554	-6.300895	-5.176607	6.254082	-0.392812	-0.091940	0.456155	-0.689512	-0.021118	-0.429101	0.583095
55555	-6.395308	-4.675456	6.149044	-0.062555	0.237837	0.212776	-0.689079	-0.021435	-0.426884	0.585219
55556	-6.295897	-4.480636	6.040777	0.006519	0.316427	-0.009367	-0.688940	-0.021410	-0.424961	0.586780
55557	-6.230933	-4.433618	5.746928	-0.140172	0.467505	-0.259133	-0.688994	-0.021139	-0.423668	0.587662
55558	-6.276835	-4.558761	5.517089	-0.383399	0.610172	-0.320592	-0.689304	-0.020939	-0.422547	0.588112
55559	-6.374548	-4.686807	5.248483	-0.650852	0.807706	-0.374915	-0.689738	-0.021075	-0.421382	0.588435
55560	-6.407492	-4.731540	5.092719	-0.794030	0.916390	-0.436713	-0.690116	-0.021475	-0.420116	0.588881
55561	-6.327295	-4.581007	5.045574	-0.719870	0.933295	-0.588328	-0.690323	-0.022085	-0.419184	0.589281
55562	-6.420681	-4.470332	5.159794	-0.574963	0.978971	-0.509811	-0.690470	-0.022800	-0.419042	0.589181
55563	-6.686421	-4.666933	5.275420	-0.669019	1.050828	-0.181142	-0.690777	-0.023544	-0.419770	0.588273
55564	-6.706238	-5.228899	5.225581	-1.165769	0.885640	0.060415	-0.691233	-0.024652	-0.421141	0.586712
55565	-6.372036	-5.926897	5.077548	-1.841961	0.434888	0.083283	-0.691205	-0.026299	-0.423049	0.585299
55566	-6.104051	-6.635856	5.124516	-2.414010	-0.077568	0.272994	-0.689833	-0.029235	-0.425039	0.585335
55567	-6.162620	-6.785241	5.367495	-2.409453	-0.257878	0.529230	-0.687286	-0.033792	-0.426092	0.587317
55568	-6.318030	-6.486612	5.803570	-1.943284	-0.317168	0.760767	-0.683887	-0.039232	-0.425977	0.591019
55569	-6.662278	-6.210172	6.207547	-1.517057	-0.205110	1.102535	-0.679837	-0.044618	-0.424731	0.596183
55570	-6.846637	-5.819120	6.519096	-1.062524	-0.108399	1.237022	-0.675560	-0.049324	-0.421973	0.602598
55571	-6.523780	-5.245663	6.696410	-0.572216	-0.253821	0.888995	-0.671449	-0.053218	-0.417981	0.609603
55572	-6.286995	-4.594266	6.767563	-0.062196	-0.252298	0.500669	-0.667681	-0.056457	-0.413803	0.616264
55573	-6.244125	-4.105009	6.890154	0.363891	-0.184950	0.343461	-0.664631	-0.058490	-0.410123	0.621806
55574	-6.250742	-3.932621	6.870030	0.475847	-0.070658	0.262174	-0.662229	-0.058623	-0.407311	0.626189
55575	-6.176535	-3.937516	6.711912	0.390304	0.031576	0.114528	-0.660541	-0.056683	-0.405388	0.629391
55576	-6.061487	-4.325677	6.355490	-0.102188	0.148579	-0.024314	-0.659377	-0.053326	-0.404182	0.631677
55577	-6.114405	-4.777850	6.073350	-0.584221	0.344390	0.017818	-0.658305	-0.049839	-0.402962	0.633856
55578	-6.118056	-4.908284	5.860608	-0.762550	0.526406	-0.065413	-0.657040	-0.046791	-0.401228	0.636494
55579	-6.072596	-4.631551	5.833132	-0.514502	0.638389	-0.237705	-0.655594	-0.044309	-0.399117	0.639483
55580	-6.129062	-4.292815	5.836881	-0.187515	0.817741	-0.359725	-0.654114	-0.041971	-0.397233	0.642323
55581	-6.137134	-4.144402	5.769567	-0.062697	0.957697	-0.474227	-0.652738	-0.039379	-0.395747	0.644800
55582	-6.133518	-4.221766	5.602588	-0.176546	1.102178	-0.561420	-0.651451	-0.036473	-0.394652	0.646940
55583	-6.176004	-4.229416	5.454507	-0.209869	1.281359	-0.642286	-0.650222	-0.033504	-0.393652	0.648943
55584	-6.167084	-4.045268	5.216256	-0.125771	1.493036	-0.904201	-0.648969	-0.030804	-0.392896	0.650786
55585	-6.206944	-3.818628	5.092592	0.055555	1.673958	-1.081300	-0.647644	-0.028579	-0.392605	0.652382
55586	-6.264996	-3.615830	4.986443	0.228746	1.843046	-1.225506	-0.646296	-0.026525	-0.392855	0.653653
55587	-6.347504	-3.363407	4.882298	0.449705	2.026569	-1.378779	-0.645066	-0.024898	-0.393394	0.654608
55588	-6.405679	-2.998962	4.850911	0.792650	2.152641	-1.548572	-0.644055	-0.023915	-0.394266	0.655115
55589	-6.371433	-2.546427	4.758106	1.159039	2.236143	-1.851828	-0.643490	-0.023416	-0.395428	0.654988
55590	-6.201342	-2.188666	4.547909	1.355462	2.250755	-2.261054	-0.643700	-0.023025	-0.397056	0.653809
55591	-6.000426	-1.950864	4.269024	1.402171	2.254345	-2.672146	-0.644596	-0.022825	-0.399239	0.651600
55592	-5.801681	-1.887875	4.112669	1.350888	2.156696	-2.908974	-0.645884	-0.023274	-0.402035	0.648582
55593	-5.529566	-2.226411	4.172330	1.041108	1.799294	-2.839908	-0.647329	-0.025182	-0.405314	0.645021
55594	-5.805223	-2.869271	4.495247	0.677084	1.663145	-2.137049	-0.648784	-0.028967	-0.408070	0.641653
55595	-5.683762	-2.910381	4.896966	0.785396	1.245197	-1.901455	-0.650160	-0.033772	-0.410098	0.638726
55596	-5.881618	-3.247666	5.263899	0.662335	1.037838	-1.366826	-0.651563	-0.038921	-0.412357	0.635541
55597	-6.062028	-3.920199	5.766103	0.304313	0.653436	-0.601655	-0.652753	-0.044733	-0.414557	0.632499
55598	-6.219169	-4.891697	6.465629	-0.236505	0.043475	0.402553	-0.652945	-0.052107	-0.416894	0.630196
55599	-6.614619	-5.515568	7.457629	-0.337784	-0.526353	1.562568	-0.652043	-0.061488	-0.418362	0.629311
55600	-6.784644	-5.918245	8.446312	-0.344936	-1.243590	2.464418	-0.650424	-0.072181	-0.417947	0.630126
55601	-6.787909	-5.513377	9.378224	0.238768	-1.881366	2.868900	-0.648746	-0.082618	-0.415327	0.632302
55602	-6.208712	-4.660055	9.774996	0.871855	-2.497515	2.386210	-0.647892	-0.091079	-0.411388	0.634586
55603	-5.541038	-3.927575	9.883177	1.298482	-2.986004	1.728625	-0.648171	-0.096815	-0.408407	0.635378
55604	-5.078250	-3.766889	9.739179	1.218851	-3.250272	1.267900	-0.649499	-0.099543	-0.408122	0.633782
55605	-4.880303	-4.037397	9.419488	0.805977	-3.286827	1.022048	-0.651679	-0.099811	-0.410502	0.629952
55606	-4.972774	-4.852684	8.979278	-0.047700	-3.149171	1.095290	-0.654361	-0.098684	-0.414266	0.624865
55607	-5.565579	-5.338632	8.395889	-0.583663	-2.497302	1.295409	-0.657364	-0.096578	-0.417306	0.620001
55608	-5.283273	-5.639528	8.022874	-0.979837	-2.572148	0.981165	-0.660023	-0.094012	-0.419791	0.615880
55609	-5.070458	-6.098336	7.408817	-1.624995	-2.470017	0.629915	-0.662074	-0.092237	-0.421661	0.612660
55610	-5.104904	-5.924777	7.149477	-1.545169	-2.270693	0.421291	-0.663170	-0.091408	-0.423005	0.610669
55611	-5.027372	-5.423369	6.878709	-1.204244	-2.057479	0.001616	-0.663507	-0.090837	-0.424130	0.609607
55612	-4.861622	-5.002213	6.590334	-0.949839	-1.908611	-0.456144	-0.663156	-0.090073	-0.425754	0.608970
55613	-4.853662	-4.728315	6.283675	-0.809911	-1.670224	-0.759854	-0.662282	-0.089453	-0.427944	0.608478
55614	-5.005943	-4.502007	6.031462	-0.668100	-1.366284	-0.902424	-0.660954	-0.089205	-0.430288	0.608304
55615	-4.788148	-4.325237	5.569952	-0.711956	-1.209698	-1.405072	-0.659271	-0.089629	-0.432700	0.608358
55616	-5.056241	-4.296578	5.393440	-0.702538	-0.932566	-1.342041	-0.656965	-0.090910	-0.435716	0.608509
55617	-5.610115	-4.325787	5.376186	-0.629597	-0.575946	-0.960524	-0.653938	-0.092273	-0.438707	0.609415
55618	-5.848949	-3.994859	5.303894	-0.296674	-0.318310	-0.974657	-0.650665	-0.093370	-0.441447	0.610772
55619	-6.379702	-3.764325	5.253693	0.006330	0.111027	-0.731975	-0.647305	-0.094122	-0.444114	0.612291
55620	-6.784274	-3.540944	5.262998	0.320786	0.411330	-0.539533	-0.643925	-0.094705	-0.446482	0.614040
55621	-6.899036	-3.196162	5.396491	0.751048	0.450593	-0.530073	-0.640739	-0.095757	-0.448376	0.615827
55622	-6.935567	-2.744312	5.472649	1.218725	0.488982	-0.655249	-0.638208	-0.097779	-0.449714	0.617160
55623	-6.816303	-3.239545	5.370810	0.727545	0.317772	-0.583839	-0.636158	-0.101162	-0.451245	0.617614
55624	-7.025648	-3.797753	5.387777	0.266312	0.253208	-0.185903	-0.633741	-0.107090	-0.452704	0.618032
55625	-7.418126	-3.806522	5.700216	0.425976	0.195261	0.276404	-0.630742	-0.114717	-0.453851	0.618889
55626	-7.733057	-3.496087	5.959388	0.820467	0.175355	0.523273	-0.627728	-0.121726	-0.454548	0.620102
55627	-7.636711	-3.069622	5.961342	1.146912	0.104111	0.284478	-0.625539	-0.126344	-0.455357	0.620796
55628	-7.484562	-3.583380	5.628003	0.517418	0.084410	0.200236	-0.624153	-0.127998	-0.457092	0.620577
55629	-7.303924	-4.196586	5.314097	-0.160424	0.035499	0.145775	-0.622884	-0.127396	-0.459777	0.619993
55630	-7.035783	-4.812883	5.061172	-0.796936	-0.105512	0.068336	-0.621062	-0.125295	-0.463433	0.619526
55631	-6.626957	-5.163396	4.834682	-1.192065	-0.302824	-0.198231	-0.618322	-0.123272	-0.467539	0.619588
55632	-6.425297	-5.256435	4.653803	-1.295108	-0.350171	-0.390818	-0.614554	-0.122111	-0.471803	0.620334
55633	-6.691487	-5.058777	4.719216	-0.936161	-0.221046	-0.236048	-0.610367	-0.120982	-0.475951	0.621519
55634	-6.695971	-5.337974	4.494325	-1.176889	-0.122892	-0.214353	-0.606349	-0.119412	-0.479012	0.623401
55635	-6.456334	-5.253627	4.188760	-1.210939	-0.027783	-0.573475	-0.602674	-0.118624	-0.480706	0.625807
55636	-6.524300	-5.343672	4.105178	-1.255360	0.066172	-0.517885	-0.599205	-0.119470	-0.481848	0.628095
55637	-7.254613	-5.770475	4.292388	-1.328567	0.298418	0.311450	-0.595748	-0.121962	-0.482967	0.630042
55638	-8.283712	-5.988104	4.713293	-1.059589	0.559357	1.379127	-0.592730	-0.125434	-0.483438	0.631843
55639	-8.818002	-6.114432	5.074286	-0.885905	0.562781	2.010602	-0.590545	-0.128743	-0.483472	0.633196
55640	-9.330392	-6.388907	5.359268	-0.883834	0.578692	2.656471	-0.589305	-0.131057	-0.484096	0.633399
55641	-9.680285	-7.079479	5.408176	-1.379585	0.608583	3.256421	-0.588686	-0.132366	-0.484633	0.633292
55642	-9.700390	-7.703604	5.210079	-2.001094	0.655633	3.459605	-0.588302	-0.132821	-0.484791	0.633433
55643	-9.761378	-7.927793	4.945034	-2.289195	0.878173	3.475504	-0.587772	-0.133022	-0.483621	0.634776
55644	-9.472362	-7.304242	4.681873	-1.936913	1.066450	2.840687	-0.587374	-0.132403	-0.480941	0.637304
55645	-8.669798	-7.067280	4.097590	-2.191419	1.158291	1.838799	-0.587192	-0.130961	-0.477666	0.640227
55646	-7.836771	-6.995460	3.611688	-2.553411	1.134657	0.938468	-0.586490	-0.129401	-0.474313	0.643671
55647	-7.121333	-6.746326	3.374227	-2.617413	1.012776	0.174008	-0.584674	-0.127847	-0.471231	0.647883
55648	-6.592661	-6.738735	3.179695	-2.815837	0.943890	-0.317263	-0.581791	-0.126868	-0.467846	0.653103
55649	-6.326819	-6.346775	3.251439	-2.505359	0.890872	-0.657904	-0.578131	-0.126787	-0.463401	0.659507
55650	-6.014196	-6.036466	3.169284	-2.351942	0.920395	-1.079223	-0.574346	-0.127435	-0.457897	0.666496
55651	-5.764394	-5.789724	3.289340	-2.179941	0.824368	-1.319419	-0.570668	-0.128870	-0.451914	0.673427
55652	-5.556351	-5.815701	3.276893	-2.291210	0.827274	-1.476138	-0.566737	-0.130749	-0.446238	0.680137
55653	-5.404231	-5.767685	3.373050	-2.283164	0.775690	-1.564429	-0.561971	-0.133445	-0.441149	0.686855
55654	-5.490976	-5.482937	3.710148	-1.910078	0.681899	-1.454188	-0.556281	-0.137029	-0.436777	0.693542
55655	-5.754900	-4.839258	4.131996	-1.135540	0.606420	-1.330168	-0.550474	-0.141078	-0.432829	0.699810
55656	-6.381363	-4.337268	4.634776	-0.343628	0.673227	-0.843674	-0.546092	-0.144033	-0.428767	0.705122
55657	-6.602079	-4.077739	4.846855	0.006723	0.712210	-0.691310	-0.543701	-0.144589	-0.424156	0.709630
55658	-6.183904	-3.882462	4.776414	-0.006199	0.582038	-1.107028	-0.543421	-0.142977	-0.418849	0.713314
55659	-5.891225	-4.071996	4.359597	-0.403856	0.832441	-1.479831	-0.544501	-0.140147	-0.413069	0.716416
55660	-6.176417	-3.297549	4.476587	0.398078	1.004575	-1.572991	-0.546186	-0.137552	-0.406123	0.719600
55661	-6.394319	-2.647952	4.629144	1.063580	1.115751	-1.630364	-0.548205	-0.134837	-0.399523	0.722268
55662	-6.826243	-1.795573	4.771943	1.977056	1.359867	-1.637510	-0.551410	-0.132576	-0.392610	0.724036
55663	-7.133790	-0.948702	5.075235	2.856288	1.415165	-1.603810	-0.557098	-0.129830	-0.385710	0.723888
55664	-7.266230	-0.796270	5.074521	2.953538	1.645269	-1.581661	-0.565039	-0.126230	-0.379403	0.721700
55665	-7.101194	-0.765091	5.088222	2.828688	1.669594	-1.681861	-0.574503	-0.122573	-0.373577	0.717888
55666	-7.080383	-0.912423	5.080182	2.563857	1.807808	-1.631720	-0.584683	-0.120349	-0.368360	0.712722
55667	-7.078352	-1.255611	5.017432	2.081049	1.960397	-1.525493	-0.594614	-0.121290	-0.363893	0.706615
55668	-7.222607	-1.545955	5.195464	1.700477	1.991333	-1.170495	-0.603716	-0.127426	-0.359189	0.700195
55669	-7.423080	-1.647062	5.398844	1.445863	1.963603	-0.812245	-0.611273	-0.140143	-0.354155	0.693743
55670	-8.083092	-1.495306	5.787209	1.494451	2.057889	-0.087398	-0.616507	-0.158784	-0.349355	0.687501
55671	-8.564680	-1.546649	6.251512	1.247589	1.866998	0.664160	-0.619275	-0.181299	-0.344893	0.681672
55672	-8.588398	-1.695270	6.558044	0.741391	1.383121	1.011190	-0.619584	-0.205810	-0.340176	0.676785
55673	-8.098860	-1.438139	6.505467	0.491295	0.777257	0.633042	-0.617360	-0.231391	-0.335064	0.673095
55674	-7.395871	-1.304614	6.099926	0.097981	0.303635	-0.143702	-0.612455	-0.257766	-0.330516	0.670235
55675	-6.747995	-0.957857	5.864087	-0.001067	-0.253335	-0.826114	-0.604761	-0.285137	-0.327524	0.667600
55676	-7.053253	-0.836967	5.844562	-0.182477	-0.387694	-0.625462	-0.594933	-0.312985	-0.325340	0.665018
55677	-7.032269	-0.645378	6.320219	-0.355052	-1.144712	-0.412832	-0.583926	-0.340584	-0.322594	0.662546
55678	-7.075512	-0.724529	6.588926	-0.824396	-1.662398	-0.297577	-0.572237	-0.367747	-0.318400	0.660249
55679	-7.262220	-0.115509	6.909028	-0.655438	-2.226647	-0.061930	-0.560551	-0.394111	-0.312313	0.657966
55680	-7.339012	0.462969	6.828078	-0.492577	-2.501412	-0.108197	-0.550208	-0.418481	-0.305683	0.654754
55681	-7.730556	0.660566	6.657438	-0.652509	-2.472819	0.084797	-0.541998	-0.440280	-0.300244	0.649804
55682	-8.366557	0.521175	6.674533	-1.148463	-2.429678	0.559468	-0.535744	-0.459368	-0.297018	0.643227
55683	-9.243107	0.196738	7.038174	-1.889233	-2.557256	1.362590	-0.531509	-0.475080	-0.295824	0.635834
55684	-9.566412	-0.763194	7.323712	-3.175215	-2.651797	1.528041	-0.528964	-0.487118	-0.294994	0.629199
55685	-9.378421	-1.451752	7.152448	-3.994459	-2.534786	1.088415	-0.527099	-0.496213	-0.293065	0.624542
55686	-8.904944	-1.715879	6.579875	-4.212530	-2.199031	0.333915	-0.525302	-0.503004	-0.290211	0.621950
55687	-8.236632	-1.947077	6.036973	-4.334009	-1.915473	-0.559327	-0.523353	-0.507827	-0.287719	0.620831
55688	-7.878794	-2.142228	5.643739	-4.434921	-1.645301	-1.086835	-0.520606	-0.511432	-0.286150	0.620907
55689	-7.862966	-2.058735	5.823112	-4.450232	-1.840319	-1.050160	-0.517032	-0.513779	-0.285376	0.622309
55690	-7.987757	-1.625768	6.159731	-4.171242	-2.223751	-0.754801	-0.513224	-0.514497	-0.284957	0.625055
55691	-8.091077	-1.266045	6.115635	-3.792800	-2.241798	-0.589995	-0.510304	-0.513045	-0.284980	0.628618
55692	-8.268512	-1.200522	5.841751	-3.574310	-1.926188	-0.461279	-0.508674	-0.509665	-0.285747	0.632330
55693	-8.698480	-1.360194	5.478256	-3.509991	-1.366530	-0.151627	-0.507953	-0.504819	-0.287477	0.636002
55694	-9.286471	-1.545124	5.267125	-3.493879	-0.878233	0.355300	-0.507660	-0.498907	-0.290280	0.639617
55695	-9.827110	-1.639889	5.235690	-3.419455	-0.595462	0.893554	-0.507433	-0.492141	-0.293917	0.643367
55696	-10.425617	-1.772304	5.334752	-3.383445	-0.389791	1.531483	-0.506978	-0.484328	-0.298026	0.647750
55697	-10.764329	-1.838953	5.586636	-3.286062	-0.411172	1.997868	-0.506260	-0.474978	-0.302070	0.653338
55698	-10.746781	-1.447339	5.786835	-2.695891	-0.626617	2.162539	-0.505300	-0.463997	-0.306040	0.660090
55699	-11.031466	-1.073436	5.764301	-1.990836	-0.505354	2.509748	-0.504636	-0.451518	-0.310793	0.666995
55700	-11.448404	-0.729399	5.684021	-1.237231	-0.259759	2.926778	-0.504572	-0.437618	-0.316612	0.673539
55701	-12.057951	-0.383542	5.810698	-0.466101	-0.107899	3.568637	-0.505131	-0.422571	-0.323856	0.679259
55702	-12.708663	-0.595711	6.054768	-0.190694	0.124769	4.274655	-0.506053	-0.406522	-0.332377	0.684233
55703	-12.986610	-1.031231	6.315794	-0.135048	0.255253	4.661395	-0.506685	-0.389923	-0.340837	0.689247
55704	-12.574324	-1.450504	6.302805	-0.114658	0.333223	4.322275	-0.506261	-0.373452	-0.348288	0.694931
55705	-11.665910	-1.833387	5.995889	-0.145792	0.430536	3.422880	-0.503715	-0.358020	-0.354554	0.701701
55706	-10.954140	-2.081762	5.963152	-0.102809	0.323432	2.826709	-0.498337	-0.344152	-0.359445	0.709943
55707	-10.800382	-1.691191	6.179007	0.622687	0.083727	2.728389	-0.490495	-0.331883	-0.362728	0.719511
55708	-11.286044	-0.845545	6.559030	1.938930	-0.132730	3.122435	-0.481706	-0.319808	-0.365464	0.729464
55709	-11.947975	-0.192526	6.610358	3.206182	0.054169	3.460817	-0.473211	-0.306482	-0.368304	0.739252
55710	-12.439322	0.131685	6.407930	4.182074	0.475508	3.531847	-0.465472	-0.291595	-0.371473	0.748543
55711	-12.287013	0.166510	6.045396	4.675732	0.817909	3.032162	-0.457991	-0.275877	-0.374822	0.757393
55712	-11.777290	0.372970	5.876187	5.130926	0.763931	2.288601	-0.450075	-0.260072	-0.378391	0.765908
55713	-11.000506	0.650284	5.751661	5.473827	0.495487	1.335747	-0.442225	-0.244021	-0.382524	0.773670
55714	-10.199438	0.789684	5.416592	5.627217	0.415148	0.293573	-0.435179	-0.227365	-0.386828	0.780570
55715	-9.113747	0.741875	4.951831	5.397807	0.355381	-0.932649	-0.429206	-0.210217	-0.391114	0.786525
55716	-8.402839	0.629905	4.499441	5.229690	0.484226	-1.834295	-0.423646	-0.193622	-0.395056	0.791811
55717	-7.887021	0.866510	4.306938	5.393853	0.376593	-2.583452	-0.418281	-0.177866	-0.398214	0.796763
55718	-7.518948	1.078976	4.227193	5.572013	0.253271	-3.145620	-0.413107	-0.163079	-0.400456	0.801488
55719	-7.557112	1.324456	4.160494	5.975243	0.321398	-3.459603	-0.408978	-0.149459	-0.400892	0.806030
55720	-7.312424	1.795098	3.941760	6.318349	0.292737	-4.136389	-0.407071	-0.137051	-0.399308	0.809977
55721	-7.071277	2.235482	3.655513	6.576203	0.340500	-4.812898	-0.408028	-0.125991	-0.397067	0.812390
55722	-6.638939	2.460585	3.346415	6.500483	0.381482	-5.462465	-0.411693	-0.116270	-0.395878	0.812570
55723	-6.399634	2.191771	3.141010	6.152187	0.622734	-5.643008	-0.417480	-0.108415	-0.396458	0.810418
55724	-6.375220	1.969041	3.147167	5.977588	0.809735	-5.565746	-0.425414	-0.102688	-0.397746	0.806397
55725	-6.505621	1.890460	3.133339	5.976316	1.060748	-5.468568	-0.435771	-0.098788	-0.399089	0.800670
55726	-6.750219	1.747660	3.145279	5.959817	1.398344	-5.226302	-0.448817	-0.096509	-0.400048	0.793228
55727	-7.005017	1.629536	3.170843	5.920978	1.744618	-4.947127	-0.464638	-0.095750	-0.400476	0.783941
55728	-7.385688	1.480956	3.203681	5.867490	2.192226	-4.543451	-0.483143	-0.096405	-0.400743	0.772453
55729	-7.957595	1.558621	3.205876	6.014060	2.756210	-4.133447	-0.504142	-0.098362	-0.401578	0.758222
55730	-8.760150	1.713417	3.315548	6.264779	3.413193	-3.507540	-0.527499	-0.101293	-0.403823	0.740548
55731	-9.681335	1.655928	3.222851	6.197666	4.339224	-2.770526	-0.553080	-0.105001	-0.408059	0.718725
55732	-10.994286	1.095078	3.314597	5.699957	5.401036	-1.365144	-0.580422	-0.109364	-0.413843	0.692737
55733	-12.161513	0.330045	3.365973	4.722088	6.258747	0.077502	-0.608917	-0.114229	-0.419632	0.663386
55734	-13.023224	-0.322469	3.287749	3.503249	6.820324	1.217058	-0.637876	-0.119432	-0.424672	0.631272
55735	-13.738698	-0.597561	3.119356	2.386245	7.229753	2.052615	-0.666944	-0.124411	-0.428520	0.596723
55736	-14.358996	-0.493662	2.815061	1.393159	7.634938	2.597359	-0.695980	-0.127864	-0.431588	0.559460
55737	-14.905222	-0.271531	2.385801	0.309187	8.020670	2.969412	-0.724818	-0.128600	-0.434648	0.518828
55738	-14.975395	-0.522272	1.889161	-1.273443	7.827883	3.035644	-0.752747	-0.125720	-0.438311	0.474816
55739	-14.478488	-1.388528	1.175959	-3.340501	6.907083	2.594877	-0.778788	-0.120143	-0.442345	0.428236
55740	-13.538920	-2.629765	0.617258	-5.274673	5.156446	1.852454	-0.801692	-0.114015	-0.446625	0.380548
55741	-12.423368	-4.224293	0.444821	-6.767180	2.646850	1.118156	-0.820096	-0.109915	-0.451304	0.334195
55742	-11.512974	-5.788567	0.738344	-7.530517	-0.079127	0.665945	-0.832993	-0.110480	-0.456488	0.292466
55743	-11.298008	-6.687221	1.400274	-7.564217	-2.130384	0.793940	-0.840420	-0.117308	-0.461737	0.258326
55744	-11.738012	-6.624887	2.245684	-7.100437	-3.132780	1.431498	-0.843658	-0.130085	-0.465845	0.233041
55745	-11.526037	-5.708324	2.983063	-6.015128	-3.403980	1.435940	-0.844284	-0.146576	-0.468104	0.215820
55746	-10.847221	-5.165684	3.249453	-5.293552	-3.733010	0.814044	-0.842937	-0.164671	-0.469561	0.204580
55747	-10.600661	-4.058852	3.601190	-4.442570	-3.412650	0.695384	-0.840328	-0.182974	-0.470523	0.197429
55748	-10.324248	-2.806772	3.925360	-3.511629	-2.901161	0.633282	-0.837296	-0.198834	-0.471724	0.192034
55749	-9.948496	-1.687196	4.343430	-2.486476	-2.515202	0.587773	-0.834595	-0.209501	-0.474295	0.186024
55750	-9.464988	-1.179276	4.487198	-1.859420	-2.446585	0.270210	-0.832780	-0.213873	-0.478630	0.177904
55751	-8.915978	-1.411842	4.424552	-1.662221	-2.823576	-0.308688	-0.831525	-0.212627	-0.485086	0.167472
55752	-8.905925	-1.746725	4.366832	-1.696293	-3.202467	-0.415970	-0.830230	-0.207556	-0.493414	0.155506
55753	-9.375114	-2.126643	4.408645	-1.831091	-3.628748	-0.049244	-0.828599	-0.200293	-0.502776	0.143258
55754	-10.027718	-2.272664	4.547565	-1.812845	-3.885277	0.580177	-0.826445	-0.192389	-0.512413	0.131939
55755	-10.690271	-2.319303	4.863503	-1.583283	-4.119990	1.315050	-0.823942	-0.184723	-0.521551	0.122394
55756	-10.755479	-2.308799	5.164334	-1.087085	-4.273334	1.511288	-0.821279	-0.178119	-0.529618	0.115237
55757	-10.270429	-2.165736	5.355162	-0.438163	-4.227805	1.177291	-0.818544	-0.172786	-0.536596	0.110433
55758	-9.870686	-1.908893	5.608909	0.227355	-4.076991	0.951040	-0.815906	-0.168226	-0.542617	0.107540
55759	-9.654727	-1.398761	5.835971	0.850881	-3.658992	0.916464	-0.813776	-0.163788	-0.547466	0.105937
55760	-9.515442	-0.804957	6.078134	1.451217	-3.137906	0.966049	-0.812559	-0.158270	-0.551119	0.104718
55761	-9.516353	-0.301289	6.082644	1.729847	-2.565903	1.053408	-0.812498	-0.150739	-0.553561	0.103422
55762	-9.641090	0.378189	5.955023	1.866800	-1.725158	1.236819	-0.813930	-0.140566	-0.554450	0.101711
55763	-9.538378	1.088870	5.560100	1.798622	-0.695595	1.112344	-0.817171	-0.126832	-0.553433	0.099279
55764	-9.371736	1.872867	5.126513	1.659782	0.480634	0.893494	-0.822102	-0.108948	-0.550554	0.095750
55765	-8.682136	2.675504	4.542599	1.496351	1.745379	0.080434	-0.828037	-0.087275	-0.546270	0.091251
55766	-7.586754	3.074883	4.225107	1.561249	2.519212	-1.091035	-0.833660	-0.063187	-0.541975	0.085332
55767	-6.505074	2.954193	3.748041	1.357511	2.748540	-2.350543	-0.838291	-0.039283	-0.538299	0.077193
55768	-5.817874	2.225706	3.339870	0.990375	2.283636	-3.197911	-0.841555	-0.018260	-0.535705	0.066871
55769	-5.431879	1.191553	3.335608	0.910296	1.388429	-3.544245	-0.843208	-0.002405	-0.534725	0.055351
55770	-5.877986	0.155232	3.536058	0.773995	0.470176	-3.011348	-0.843300	0.006669	-0.535568	0.044361
55771	-6.856450	-0.163480	3.898149	0.691172	0.227483	-1.957525	-0.842378	0.009454	-0.537634	0.035501
55772	-7.697813	0.124076	4.257121	0.726363	0.514281	-1.060426	-0.840959	0.008219	-0.540247	0.029225
55773	-8.142454	0.577392	4.655485	0.977809	0.904227	-0.510436	-0.839409	0.005550	-0.542928	0.024293
55774	-7.982348	0.850229	4.900216	1.329552	1.075185	-0.564540	-0.837733	0.002529	-0.545729	0.019415
55775	-7.763129	0.844888	5.017374	1.582848	0.967918	-0.718145	-0.835680	-0.000354	-0.549049	0.013520
55776	-7.663949	0.740891	5.141635	1.804414	0.765456	-0.764022	-0.833102	-0.002874	-0.553078	0.006203
55777	-7.718856	0.315525	5.154259	1.877312	0.244371	-0.720877	-0.829953	-0.005006	-0.557806	-0.002388
55778	-7.925748	0.092327	5.267893	2.013284	-0.077817	-0.511322	-0.826385	-0.006684	-0.562945	-0.011674
55779	-8.166437	-0.299213	5.314501	2.098820	-0.568821	-0.310410	-0.822496	-0.007955	-0.568318	-0.021253
55780	-8.523174	-0.591473	5.486657	2.283246	-0.967022	0.033467	-0.818416	-0.009337	-0.573739	-0.030534
55781	-8.815194	-0.774587	5.620602	2.465373	-1.257547	0.298525	-0.814406	-0.010878	-0.578869	-0.039177
55782	-9.130849	-0.991459	5.641912	2.538506	-1.588132	0.541920	-0.810662	-0.012554	-0.583499	-0.046888
55783	-9.405569	-0.937710	5.730322	2.664997	-1.642434	0.788204	-0.807467	-0.014115	-0.587301	-0.053611
55784	-9.334319	-1.080949	5.763753	2.838038	-1.844913	0.678234	-0.804807	-0.014727	-0.590346	-0.059674
55785	-8.984671	-1.413365	5.758479	3.056036	-2.178068	0.276800	-0.802314	-0.014627	-0.593203	-0.064722
55786	-8.907821	-1.585810	5.876410	3.297559	-2.357421	0.185517	-0.799778	-0.014531	-0.596205	-0.068443
55787	-9.186067	-1.581461	6.001305	3.432933	-2.398796	0.451835	-0.797230	-0.014814	-0.599317	-0.070879
55788	-9.750300	-1.514942	6.198975	3.555841	-2.413684	1.018752	-0.794893	-0.015580	-0.602240	-0.072173
55789	-10.567986	-1.341451	6.431275	3.629240	-2.358853	1.853806	-0.793143	-0.016589	-0.604453	-0.072700
55790	-11.141130	-1.376009	6.559862	3.666159	-2.483563	2.411917	-0.792102	-0.017433	-0.605779	-0.072818
55791	-11.478052	-1.272778	6.649424	3.683010	-2.435173	2.760532	-0.791929	-0.017897	-0.606031	-0.072494
55792	-11.511580	-1.253794	6.506416	3.518426	-2.424199	2.763707	-0.792876	-0.017331	-0.604884	-0.071846
55793	-11.600575	-1.115583	6.321009	3.238349	-2.278232	2.840169	-0.795165	-0.015405	-0.601988	-0.071316
55794	-11.533371	-1.068424	5.924091	2.746943	-2.187156	2.714211	-0.798884	-0.011830	-0.597105	-0.071484
55795	-11.408649	-0.967636	5.579202	2.268549	-2.008163	2.558164	-0.803626	-0.006268	-0.590635	-0.072776
55796	-11.516113	-1.012239	5.334136	1.804816	-1.968770	2.635588	-0.808858	0.001552	-0.583180	-0.075149
55797	-11.716880	-0.866265	5.156057	1.329292	-1.720908	2.831879	-0.814370	0.011240	-0.574914	-0.078422
55798	-11.624784	-0.866079	4.777094	0.753536	-1.585799	2.661910	-0.820080	0.023391	-0.565679	-0.083241
55799	-11.021845	-1.396588	4.196000	0.253135	-1.939956	1.900665	-0.825773	0.037894	-0.555607	-0.089239
55800	-10.239435	-2.049781	3.603849	-0.112368	-2.406985	0.967957	-0.831179	0.054283	-0.545083	-0.095288
55801	-9.636057	-2.453799	3.211833	-0.350499	-2.617815	0.297105	-0.836228	0.071931	-0.534359	-0.100048
55802	-9.320777	-2.611158	2.894587	-0.662163	-2.594597	-0.071261	-0.841106	0.090448	-0.523288	-0.102616
55803	-9.255304	-2.351638	2.723247	-1.066962	-2.145152	-0.176439	-0.846059	0.109204	-0.511538	-0.102901
55804	-9.148320	-1.883240	2.430768	-1.647815	-1.528937	-0.427421	-0.851265	0.127956	-0.498674	-0.101488
55805	-8.721934	-1.729461	2.118610	-2.014990	-1.226704	-0.982264	-0.856433	0.145902	-0.485297	-0.098595
55806	-8.548025	-1.534973	1.889835	-2.435540	-0.900890	-1.313068	-0.861385	0.161972	-0.472079	-0.094455
55807	-8.553200	-1.220760	1.733258	-2.913874	-0.474374	-1.510409	-0.866082	0.175294	-0.459535	-0.089451
55808	-8.457462	-1.031341	1.578032	-3.274016	-0.199576	-1.792894	-0.870457	0.185777	-0.448007	-0.084149
