// General information: 
//  MT Manager version: 2021.0.0 
//  XDA version: 2021.0.0 build 5908 rev 109668 built on 2021-04-19
// Device information: 
//  DeviceId: 00B43DF7
//  ProductCode: MTW2-3A7G6
//  Firmware Version: 4.3.5
//  Hardware Version: 1.1.0
// Device settings: 
//  Filter Profile: human(46.1)
//  Option Flags: Orientation Smoother Disabled, Position/Velocity Smoother Disabled, Continuous Zero Rotation Update Disabled, AHS Disabled, ICC Disabled
// Coordinate system: ENU
PacketCounter	Acc_X	Acc_Y	Acc_Z	FreeAcc_E	FreeAcc_N	FreeAcc_U	Quat_q0	Quat_q1	Quat_q2	Quat_q3
54636	-9.639064	-0.068816	1.945306	0.095203	0.018093	0.020476	0.647099	0.337779	0.535279	-0.425022
54637	-9.648619	-0.089379	2.021202	0.108962	-0.054642	0.045012	0.647093	0.337604	0.535328	-0.425109
54638	-9.669321	-0.163597	1.950302	0.013638	-0.014518	0.052697	0.647118	0.337438	0.535338	-0.425190
54639	-9.705332	-0.181480	1.913297	-0.017955	0.021774	0.081064	0.647125	0.337268	0.535295	-0.425368
54640	-9.700674	-0.131906	1.942717	0.041471	0.020040	0.081377	0.647105	0.337110	0.535170	-0.425682
54641	-9.660613	-0.108787	1.988980	0.085569	-0.012620	0.050772	0.647126	0.336903	0.535015	-0.426009
54642	-9.642713	-0.097246	2.038704	0.118730	-0.048617	0.042830	0.647183	0.336672	0.534898	-0.426251
54643	-9.619570	-0.121992	1.984963	0.077067	-0.008498	0.009994	0.647246	0.336494	0.534767	-0.426460
54644	-9.615750	-0.177029	1.949715	0.012777	0.005729	0.000324	0.647297	0.336407	0.534578	-0.426689
54645	-9.670379	-0.225990	2.000074	-0.015573	-0.044399	0.064832	0.647265	0.336401	0.534446	-0.426906
54646	-9.744588	-0.162918	1.922222	0.005829	0.069951	0.120768	0.647242	0.336414	0.534124	-0.427334
54647	-9.624745	-0.105628	2.032243	0.108104	-0.022923	0.024217	0.647216	0.336515	0.533861	-0.427622
54648	-9.737793	-0.039259	2.098878	0.187851	-0.032396	0.146986	0.647120	0.336571	0.533843	-0.427746
54649	-9.655075	-0.019385	1.945726	0.150648	0.098786	0.034863	0.647152	0.336510	0.533716	-0.427904
54650	-9.561821	-0.158607	1.877771	0.000538	0.088728	-0.067344	0.647152	0.336633	0.533496	-0.428083
54651	-9.610374	-0.276939	1.969718	-0.077190	-0.030969	0.001020	0.647011	0.336987	0.533231	-0.428346
54652	-9.655720	-0.164741	1.994642	0.029714	0.000862	0.048234	0.646857	0.337309	0.532916	-0.428718
54653	-9.612238	-0.005176	1.941369	0.154737	0.106542	-0.008160	0.646869	0.337428	0.532622	-0.428972
54654	-9.580374	-0.084745	1.933267	0.078186	0.079160	-0.039464	0.646944	0.337403	0.532480	-0.429054
54655	-9.597246	-0.176168	1.947199	-0.003085	0.036430	-0.018383	0.647063	0.337321	0.532365	-0.429082
54656	-9.636153	-0.137874	1.950535	0.028783	0.059304	0.019642	0.647238	0.337201	0.532263	-0.429039
54657	-9.672001	-0.118883	1.969477	0.048907	0.059638	0.058211	0.647410	0.337093	0.532180	-0.428967
54658	-9.695656	-0.070127	1.981849	0.094714	0.074952	0.082958	0.647573	0.336978	0.532125	-0.428880
54659	-9.638185	-0.116415	1.940162	0.037774	0.084275	0.019091	0.647716	0.336869	0.532117	-0.428760
54660	-9.598949	-0.153249	1.938575	0.004190	0.062961	-0.018945	0.647760	0.336948	0.532108	-0.428643
54661	-9.611898	-0.114391	1.984795	0.055332	0.037178	0.002436	0.647709	0.337146	0.532078	-0.428601
54662	-9.568109	-0.088184	1.975195	0.076284	0.044514	-0.042831	0.647666	0.337368	0.532046	-0.428532
54663	-9.581248	-0.114636	1.977447	0.049670	0.030375	-0.029009	0.647643	0.337596	0.532046	-0.428385
54664	-9.612505	-0.165276	1.966674	-0.005264	0.021854	0.000308	0.647648	0.337730	0.532070	-0.428243
54665	-9.609036	-0.175540	1.947291	-0.023455	0.031476	-0.006832	0.647689	0.337761	0.532141	-0.428067
54666	-9.624833	-0.152203	1.989625	0.013321	0.003683	0.016808	0.647740	0.337702	0.532266	-0.427882
54667	-9.616677	-0.178310	2.021411	0.003331	-0.038491	0.015683	0.647800	0.337571	0.532438	-0.427680
54668	-9.654051	-0.159889	1.967649	-0.002080	0.022498	0.041113	0.647808	0.337492	0.532602	-0.427526
54669	-9.643982	-0.137737	1.922712	0.002810	0.067499	0.021824	0.647727	0.337518	0.532728	-0.427472
54670	-9.643626	-0.098122	1.941125	0.047887	0.063435	0.024527	0.647577	0.337694	0.532821	-0.427444
54671	-9.646173	-0.071529	1.955391	0.078633	0.057356	0.029459	0.647383	0.337952	0.532864	-0.427481
54672	-9.660466	-0.031293	1.864114	0.078756	0.152850	0.024534	0.647146	0.338318	0.532867	-0.427546
54673	-9.679924	-0.019683	1.832765	0.075650	0.183778	0.037229	0.646943	0.338645	0.532888	-0.427567
54674	-9.658607	-0.039842	1.835726	0.059706	0.163273	0.017365	0.646797	0.338894	0.532982	-0.427475
54675	-9.714090	-0.076941	1.844623	0.025328	0.144799	0.074197	0.646749	0.339055	0.533144	-0.427218
54676	-9.698752	-0.022335	1.804515	0.058999	0.193724	0.050454	0.646830	0.339155	0.533266	-0.426862
54677	-9.607697	0.042680	1.858092	0.142027	0.148640	-0.029033	0.646961	0.339329	0.533348	-0.426423
54678	-9.647721	0.018438	1.944666	0.147059	0.061832	0.027797	0.647083	0.339476	0.533500	-0.425931
54679	-9.658419	-0.058703	1.972545	0.082537	0.000872	0.044930	0.647232	0.339615	0.533604	-0.425464
54680	-9.681598	-0.129840	1.927897	-0.007072	0.010305	0.059841	0.647395	0.339801	0.533632	-0.425031
54681	-9.708804	-0.188483	1.900796	-0.079364	0.010905	0.081908	0.647585	0.339953	0.533592	-0.424671
54682	-9.751091	-0.123460	1.884613	-0.035747	0.056157	0.119400	0.647813	0.340071	0.533482	-0.424367
54683	-9.735749	-0.005728	1.925567	0.081126	0.061796	0.111135	0.648163	0.340181	0.533329	-0.423935
54684	-9.687732	0.109951	1.900633	0.168918	0.119753	0.058166	0.648688	0.340281	0.533119	-0.423316
54685	-9.679787	0.227459	1.853729	0.243534	0.204616	0.040491	0.649387	0.340328	0.532982	-0.422379
54686	-9.812262	0.181539	1.907449	0.196192	0.156855	0.181745	0.650250	0.340281	0.532956	-0.421120
54687	-9.747650	0.288971	1.771631	0.221259	0.304082	0.091725	0.651490	0.340319	0.532698	-0.419496
54688	-9.543549	0.680783	1.686652	0.520289	0.495332	-0.123967	0.653510	0.340690	0.532065	-0.416848
54689	-9.748019	1.336865	1.780647	1.079134	0.704232	0.103003	0.655869	0.341410	0.531537	-0.413211
54690	-10.273420	1.747613	2.150556	1.480787	0.622792	0.705916	0.658754	0.342024	0.530558	-0.409355
54691	-10.005405	1.714318	2.669658	1.603891	0.095338	0.559959	0.662569	0.342138	0.529121	-0.404939
54692	-9.950467	1.327297	2.980323	1.291695	-0.351960	0.573004	0.667150	0.341881	0.527374	-0.399880
54693	-10.083438	0.841348	2.911274	0.696036	-0.475304	0.682429	0.672257	0.341783	0.524874	-0.394666
54694	-10.206691	0.637503	2.866082	0.340365	-0.495490	0.790808	0.677673	0.342408	0.520946	-0.390040
54695	-10.261848	1.261235	2.973257	0.761753	-0.274769	0.914740	0.683526	0.343961	0.515229	-0.386033
54696	-10.074684	2.120188	3.343077	1.511245	-0.201953	0.903747	0.689988	0.345805	0.508493	-0.381799
54697	-10.022227	2.625545	3.578001	1.843085	-0.136064	0.991027	0.697441	0.346919	0.501418	-0.376569
54698	-10.092511	2.567427	3.646659	1.562277	-0.147834	1.108856	0.706072	0.346967	0.493953	-0.370252
54699	-10.106163	2.399135	3.590462	1.122035	-0.097205	1.119207	0.715681	0.346297	0.485675	-0.363316
54700	-9.972667	2.368922	3.525501	0.818245	0.012097	0.995528	0.725795	0.345246	0.476670	-0.356107
54701	-9.861609	2.480192	3.493360	0.634138	0.174219	0.918825	0.736142	0.343951	0.467137	-0.348677
54702	-9.856685	2.631934	3.685843	0.540357	0.197367	1.019054	0.746686	0.342326	0.457044	-0.341152
54703	-9.774798	2.897067	4.027021	0.620966	0.157181	1.129723	0.757446	0.340181	0.446603	-0.333312
54704	-9.787328	3.164045	4.247719	0.601552	0.257393	1.296178	0.768614	0.337135	0.435800	-0.325040
54705	-9.640775	3.301975	4.387583	0.494642	0.341507	1.265466	0.780095	0.333166	0.424765	-0.316269
54706	-9.686534	3.273596	4.548172	0.176685	0.368484	1.369960	0.791775	0.328597	0.413216	-0.307196
54707	-9.440032	3.236291	4.642332	-0.049306	0.387349	1.186118	0.803456	0.323642	0.401150	-0.297983
54708	-9.285629	3.433794	4.741050	-0.140304	0.568031	1.147962	0.814982	0.318341	0.388798	-0.288617
54709	-9.093933	3.587449	4.942376	-0.201305	0.646809	1.120008	0.826417	0.312546	0.376031	-0.279196
54710	-8.853767	3.831911	5.343687	-0.086520	0.644407	1.195961	0.837756	0.306224	0.362798	-0.269760
54711	-8.545204	3.815749	5.543081	-0.197705	0.622168	1.043889	0.849108	0.298897	0.349371	-0.260032
54712	-8.443241	3.662248	5.739105	-0.511361	0.566480	1.005864	0.860193	0.290734	0.336164	-0.250069
54713	-8.382816	3.373881	5.944857	-0.918931	0.416700	0.955981	0.870828	0.282537	0.322753	-0.240128
54714	-8.106944	3.318871	6.249345	-0.989685	0.308128	0.897303	0.880830	0.275013	0.308801	-0.230538
54715	-7.628304	3.524489	6.511225	-0.776775	0.363555	0.782641	0.890010	0.268253	0.294862	-0.221314
54716	-7.494298	3.565247	6.679166	-0.935068	0.427536	0.790023	0.898545	0.261989	0.280910	-0.212294
54717	-7.042646	3.442617	6.835448	-0.940750	0.289250	0.540760	0.906523	0.256229	0.266756	-0.203481
54718	-6.664764	3.417107	6.942436	-0.951878	0.260681	0.351404	0.913880	0.250961	0.252708	-0.194888
54719	-6.443582	3.584837	6.988008	-1.002682	0.447785	0.286177	0.920728	0.245997	0.238609	-0.186576
54720	-6.183855	3.678024	7.251494	-0.980164	0.445533	0.345205	0.927169	0.241152	0.224457	-0.178386
54721	-5.678775	3.522362	7.371305	-0.906063	0.264695	0.091418	0.933231	0.236374	0.210292	-0.170247
54722	-5.232065	3.418109	7.286743	-0.896626	0.240592	-0.258384	0.938822	0.231616	0.196620	-0.162197
54723	-5.082255	3.312234	7.381332	-1.063921	0.183153	-0.319986	0.944013	0.226644	0.183386	-0.154408
54724	-4.851654	3.486133	7.514708	-1.032929	0.329305	-0.274357	0.948880	0.221497	0.170300	-0.146843
54725	-4.457925	3.628490	7.807620	-0.825132	0.344556	-0.159125	0.953321	0.216622	0.157523	-0.139429
54726	-4.302525	3.566056	7.963190	-0.936161	0.297415	-0.134410	0.957454	0.211793	0.144842	-0.132082
54727	-3.802888	3.591984	7.982917	-0.727011	0.324557	-0.302129	0.961303	0.206902	0.132191	-0.124957
54728	-3.326771	3.299803	8.052336	-0.604886	0.051980	-0.516338	0.964681	0.202480	0.120246	-0.118039
54729	-3.064340	3.291384	8.095702	-0.586572	0.068310	-0.570930	0.967578	0.198851	0.108603	-0.111611
54730	-3.033074	3.216255	8.198291	-0.786220	0.030320	-0.531946	0.970134	0.195545	0.097359	-0.105469
54731	-2.800341	3.062485	8.287763	-0.805448	-0.115318	-0.580050	0.972335	0.192763	0.086507	-0.099613
54732	-2.495055	3.157874	8.455908	-0.675130	-0.088050	-0.472844	0.974180	0.190558	0.076346	-0.093977
54733	-2.158077	3.329038	8.541579	-0.503426	0.031200	-0.408409	0.975798	0.188637	0.066471	-0.088408
54734	-1.770347	3.414638	8.766194	-0.284088	0.012130	-0.244205	0.977223	0.186828	0.056981	-0.082973
54735	-1.627618	3.383941	8.837089	-0.337219	-0.018060	-0.217005	0.978472	0.185099	0.047725	-0.077809
54736	-1.474803	3.216936	8.885045	-0.399561	-0.169433	-0.258815	0.979496	0.183691	0.038644	-0.073154
54737	-1.168046	3.498505	8.852898	-0.236864	0.097602	-0.225756	0.980336	0.182474	0.029750	-0.068988
54738	-0.935492	3.384527	8.787530	-0.201311	0.016887	-0.351840	0.980959	0.181725	0.021297	-0.065135
54739	-0.624408	3.490628	8.796367	-0.045386	0.095567	-0.329175	0.981413	0.181302	0.013154	-0.061518
54740	-0.508273	3.596330	8.754389	-0.078713	0.217012	-0.337677	0.981852	0.180435	0.005215	-0.058169
54741	-0.438165	3.519210	8.723708	-0.173494	0.178427	-0.399082	0.982294	0.179113	-0.002461	-0.054878
54742	-0.126951	3.439904	8.787097	-0.024026	0.078368	-0.375868	0.982592	0.178188	-0.009871	-0.051612
54743	0.030398	3.397393	8.888651	-0.019712	0.008906	-0.296953	0.982757	0.177602	-0.016904	-0.048588
54744	0.182183	3.362975	8.663941	0.000036	0.059466	-0.517443	0.982857	0.177030	-0.023865	-0.045630
54745	0.477380	3.239554	8.578444	0.159109	-0.038870	-0.632043	0.982853	0.176728	-0.030233	-0.043045
54746	0.267979	3.181407	8.639230	-0.175842	-0.081700	-0.604495	0.982838	0.176282	-0.036080	-0.040648
54747	0.409872	3.115024	8.604776	-0.147179	-0.137911	-0.654527	0.982672	0.176567	-0.041647	-0.038011
54748	0.834916	3.284486	8.565530	0.185509	-0.009272	-0.603022	0.982387	0.177458	-0.046574	-0.035439
54749	0.771472	3.445572	8.563861	0.038633	0.135625	-0.550596	0.982104	0.178319	-0.050825	-0.033018
54750	0.774597	3.485418	8.506403	-0.033895	0.181587	-0.589219	0.981829	0.179119	-0.054754	-0.030508
54751	1.054460	3.283535	8.441213	0.169311	-0.016779	-0.695767	0.981553	0.180015	-0.058014	-0.027980
54752	1.115550	3.067092	8.266787	0.184914	-0.174827	-0.928640	0.981268	0.181130	-0.060443	-0.025510
54753	1.037893	3.014465	8.345575	0.053211	-0.268248	-0.883080	0.980906	0.182834	-0.062094	-0.023216
54754	1.161779	3.197400	8.534927	0.125632	-0.207992	-0.627979	0.980474	0.185088	-0.063011	-0.021055
54755	1.319495	3.503577	8.317470	0.296856	0.110042	-0.696981	0.980126	0.187067	-0.063223	-0.019027
54756	1.205512	3.591409	8.489352	0.157212	0.109457	-0.518395	0.979979	0.188137	-0.062813	-0.017346
54757	1.162670	3.500266	8.690517	0.094157	-0.057318	-0.372529	0.980015	0.188357	-0.061959	-0.015893
54758	1.198250	3.900086	8.699975	0.142877	0.310971	-0.209620	0.980160	0.187990	-0.061047	-0.014791
54759	1.142806	3.603393	8.714506	0.100630	0.051956	-0.314260	0.980516	0.186595	-0.059841	-0.013794
54760	1.220103	3.289710	8.729274	0.196120	-0.222896	-0.409346	0.980821	0.185477	-0.058459	-0.013067
54761	0.989607	3.351480	9.097513	-0.049029	-0.270119	-0.070972	0.981081	0.184575	-0.056962	-0.012920
54762	0.936688	3.440734	9.100681	-0.073651	-0.171866	-0.040104	0.981255	0.184042	-0.055616	-0.013217
54763	0.802694	3.607646	9.166891	-0.182593	-0.027274	0.069474	0.981390	0.183767	-0.053972	-0.013828
54764	0.645633	3.889340	9.042574	-0.289432	0.296155	0.043293	0.981590	0.183082	-0.052415	-0.014627
54765	0.864593	4.047361	8.972551	-0.028161	0.471530	0.057068	0.981801	0.182383	-0.050710	-0.015200
54766	0.763202	3.816477	9.125495	-0.108777	0.216362	0.105167	0.981969	0.181972	-0.048736	-0.015751
54767	0.585652	3.587816	9.104733	-0.250416	0.019939	-0.012260	0.981977	0.182255	-0.047257	-0.016470
54768	0.720159	3.628718	9.218654	-0.095421	-0.004989	0.120114	0.981817	0.183399	-0.045779	-0.017449
54769	0.523898	3.879763	9.199178	-0.252120	0.221778	0.179260	0.981660	0.184483	-0.044292	-0.018633
54770	0.558240	4.241055	9.342934	-0.190145	0.488339	0.449566	0.981654	0.184739	-0.042852	-0.019762
54771	0.343021	4.049036	9.508588	-0.390785	0.259149	0.517155	0.981730	0.184552	-0.041494	-0.020611
54772	0.285387	3.989101	9.615370	-0.430317	0.174093	0.590878	0.981855	0.184058	-0.040382	-0.021286
54773	0.421772	4.030404	9.499250	-0.260992	0.262785	0.508192	0.982064	0.183030	-0.039595	-0.021970
54774	0.326798	3.890449	9.577511	-0.348023	0.135108	0.523251	0.982341	0.181579	-0.038973	-0.022715
54775	0.451012	3.639522	9.629306	-0.219419	-0.098972	0.488529	0.982541	0.180568	-0.038284	-0.023316
54776	0.420605	3.608140	9.577102	-0.229789	-0.096081	0.427156	0.982583	0.180416	-0.037558	-0.023872
54777	0.344256	3.820693	9.611950	-0.286173	0.096820	0.532093	0.982616	0.180250	-0.037008	-0.024616
54778	0.429573	3.714587	9.490617	-0.180883	0.036726	0.386352	0.982614	0.180321	-0.036369	-0.025129
54779	0.282789	4.057723	9.376196	-0.289028	0.409438	0.395492	0.982707	0.179905	-0.035536	-0.025650
54780	0.315619	4.056844	9.346191	-0.238112	0.437650	0.368695	0.983003	0.178310	-0.035057	-0.026113
54781	0.529003	3.400502	9.487066	-0.049661	-0.203219	0.277099	0.983338	0.176484	-0.034640	-0.026448
54782	0.444866	3.387897	9.464563	-0.119306	-0.168096	0.247686	0.983613	0.174965	-0.034018	-0.027116
54783	0.271806	3.440963	9.484709	-0.276461	-0.085390	0.276416	0.983853	0.173596	-0.033499	-0.027854
54784	0.421391	3.655101	9.474028	-0.102642	0.137381	0.349253	0.984112	0.172151	-0.032857	-0.028420
54785	0.484549	3.673677	9.454927	-0.022312	0.188490	0.340647	0.984400	0.170488	-0.032318	-0.029082
54786	0.422683	3.463681	9.609044	-0.090572	-0.025252	0.409863	0.984647	0.169042	-0.031818	-0.029719
54787	0.374566	3.408779	9.645741	-0.129762	-0.063411	0.423498	0.984779	0.168259	-0.031238	-0.030402
54788	0.292933	3.567470	9.404911	-0.173152	0.186135	0.247151	0.984879	0.167616	-0.030766	-0.031186
54789	0.338498	3.582930	9.356679	-0.110516	0.227200	0.209066	0.984992	0.166853	-0.030289	-0.032152
54790	0.253691	3.416908	9.422118	-0.195440	0.069525	0.210928	0.985082	0.166165	-0.029914	-0.033299
54791	0.377285	3.496104	9.350382	-0.050988	0.172378	0.175425	0.985180	0.165415	-0.029524	-0.034439
54792	0.341649	3.467998	9.320854	-0.072550	0.172187	0.136539	0.985273	0.164704	-0.029012	-0.035610
54793	0.350860	3.527701	9.344327	-0.046128	0.233583	0.178683	0.985368	0.163966	-0.028473	-0.036789
54794	0.178263	3.698521	9.317836	-0.189309	0.433497	0.202755	0.985503	0.162989	-0.027896	-0.037944
54795	0.212560	3.640123	9.327503	-0.142429	0.397018	0.193309	0.985733	0.161467	-0.027278	-0.038933
54796	0.356585	3.254655	9.342246	-0.008299	0.044181	0.086574	0.985922	0.160154	-0.026592	-0.040008
54797	0.222506	3.107415	9.419289	-0.138541	-0.089020	0.107059	0.986003	0.159486	-0.025845	-0.041170
54798	0.271631	3.201952	9.456655	-0.065667	-0.013881	0.174808	0.985919	0.159826	-0.025001	-0.042364
54799	0.056694	3.478930	9.536115	-0.241266	0.233561	0.332797	0.985838	0.160157	-0.023980	-0.043565
54800	0.125859	3.619212	9.446187	-0.133100	0.384629	0.295690	0.985819	0.160062	-0.023130	-0.044801
54801	0.249362	3.477186	9.656467	-0.011128	0.175279	0.452275	0.985852	0.159703	-0.022181	-0.045819
54802	0.155035	3.225169	9.697904	-0.106835	-0.063450	0.407861	0.985831	0.159648	-0.021372	-0.046820
54803	0.086185	3.284994	9.592254	-0.146738	0.032160	0.325723	0.985779	0.159722	-0.020749	-0.047934
54804	0.035131	3.317682	9.655020	-0.184519	0.041752	0.394753	0.985657	0.160187	-0.020367	-0.049057
54805	0.048936	3.682807	9.710207	-0.128769	0.357162	0.565627	0.985549	0.160566	-0.019908	-0.050154
54806	-0.019298	3.939672	9.669691	-0.158369	0.621121	0.609089	0.985606	0.159929	-0.019603	-0.051174
54807	-0.027633	3.539011	9.718935	-0.196961	0.245947	0.525772	0.985742	0.158901	-0.019364	-0.051843
54808	-0.006738	3.305468	9.606097	-0.185836	0.073546	0.344246	0.985783	0.158540	-0.019191	-0.052241
54809	0.062682	3.717851	9.456387	-0.065524	0.506247	0.335663	0.985772	0.158472	-0.019169	-0.052651
54810	0.098808	3.747439	9.518295	-0.028663	0.514153	0.404251	0.985795	0.158181	-0.019259	-0.053072
54811	0.024353	3.526442	9.560844	-0.126489	0.305534	0.372438	0.985809	0.157987	-0.019329	-0.053350
54812	0.036047	3.436734	9.540171	-0.123899	0.225286	0.324433	0.985757	0.158275	-0.019445	-0.053419
54813	0.158352	3.676602	9.527337	0.020738	0.434439	0.391402	0.985690	0.158716	-0.019415	-0.053362
54814	0.097611	3.557247	9.559861	-0.054996	0.310093	0.383159	0.985636	0.159089	-0.019544	-0.053194
54815	0.030027	3.516725	9.484925	-0.125856	0.297711	0.298079	0.985610	0.159264	-0.019703	-0.053109
54816	-0.037023	3.482737	9.419757	-0.196426	0.294879	0.224100	0.985651	0.159001	-0.019931	-0.053047
54817	0.071711	3.442375	9.456668	-0.097991	0.240614	0.247936	0.985726	0.158558	-0.020084	-0.052920
54818	0.075798	3.425879	9.527405	-0.102243	0.212814	0.309470	0.985823	0.157986	-0.020230	-0.052763
54819	0.113409	3.220735	9.459021	-0.084719	0.047263	0.179793	0.985897	0.157561	-0.020444	-0.052581
54820	0.131488	3.236023	9.343259	-0.062217	0.099956	0.075273	0.985888	0.157624	-0.020538	-0.052521
54821	0.059203	3.410449	9.362432	-0.119641	0.263878	0.147526	0.985849	0.157808	-0.020592	-0.052664
54822	0.046071	3.562291	9.365998	-0.117347	0.405197	0.199106	0.985839	0.157830	-0.020503	-0.052824
54823	0.094653	3.453457	9.376274	-0.077864	0.295805	0.175119	0.985873	0.157619	-0.020400	-0.052853
54824	0.172817	3.219127	9.284935	-0.015169	0.096385	0.015493	0.985871	0.157680	-0.020206	-0.052784
54825	0.155619	3.238427	9.314118	-0.027455	0.101498	0.049024	0.985801	0.158179	-0.019884	-0.052731
54826	0.097360	3.353820	9.443152	-0.075241	0.164694	0.207189	0.985714	0.158763	-0.019547	-0.052720
54827	0.087374	3.430928	9.552493	-0.077919	0.193923	0.335482	0.985662	0.159119	-0.019279	-0.052720
54828	0.034173	3.536608	9.629551	-0.119922	0.272846	0.441491	0.985693	0.158933	-0.019087	-0.052775
54829	0.061366	3.478096	9.662804	-0.096502	0.210618	0.454591	0.985770	0.158484	-0.018940	-0.052740
54830	0.032706	3.289449	9.676765	-0.141814	0.040979	0.406878	0.985853	0.158014	-0.018883	-0.052614
54831	0.108335	3.310454	9.636459	-0.061876	0.072959	0.376671	0.985898	0.157739	-0.018895	-0.052605
54832	-0.032069	3.345395	9.586586	-0.196619	0.143315	0.337984	0.985946	0.157396	-0.019043	-0.052667
54833	0.130688	3.384293	9.526605	-0.030261	0.186509	0.296270	0.985971	0.157226	-0.019163	-0.052666
54834	0.083124	3.354657	9.565291	-0.083633	0.155931	0.322603	0.986008	0.156978	-0.019197	-0.052708
54835	0.063798	3.378583	9.432094	-0.095075	0.227024	0.203435	0.986038	0.156776	-0.019339	-0.052697
54836	0.140345	3.435527	9.479984	-0.017559	0.260750	0.268202	0.986066	0.156662	-0.019345	-0.052511
54837	0.147894	3.333732	9.506206	-0.021003	0.155258	0.260993	0.986060	0.156824	-0.019213	-0.052170
54838	0.026221	3.310028	9.424660	-0.139872	0.169001	0.173956	0.986058	0.156919	-0.019212	-0.051926
54839	0.027100	3.371624	9.407851	-0.133757	0.231240	0.177552	0.986058	0.156939	-0.019304	-0.051832
54840	0.077201	3.364204	9.422956	-0.086313	0.213723	0.190452	0.986061	0.156964	-0.019260	-0.051723
54841	0.094944	3.473543	9.466333	-0.059284	0.303294	0.266523	0.986103	0.156750	-0.019154	-0.051605
54842	0.094377	3.282997	9.463651	-0.076013	0.127946	0.203575	0.986137	0.156606	-0.019036	-0.051429
54843	0.037179	3.312693	9.519730	-0.131116	0.146352	0.265108	0.986152	0.156565	-0.018933	-0.051313
54844	0.070799	3.381719	9.462516	-0.087349	0.226606	0.233270	0.986163	0.156526	-0.018917	-0.051221
54845	0.129554	3.246084	9.488994	-0.042805	0.085730	0.216554	0.986191	0.156404	-0.018867	-0.051080
54846	0.136159	3.217303	9.506320	-0.038823	0.053086	0.224014	0.986185	0.156460	-0.018791	-0.051048
54847	0.038265	3.304078	9.553955	-0.129959	0.129210	0.294878	0.986171	0.156525	-0.018824	-0.051109
54848	0.152404	3.366533	9.571839	-0.012219	0.169902	0.333635	0.986170	0.156523	-0.018874	-0.051110
54849	0.085575	3.259349	9.601237	-0.090356	0.066130	0.326440	0.986171	0.156573	-0.018808	-0.050969
54850	0.058148	3.286097	9.500648	-0.110473	0.123048	0.239018	0.986143	0.156790	-0.018853	-0.050830
54851	0.054543	3.370336	9.478395	-0.106725	0.205716	0.244569	0.986117	0.156993	-0.018913	-0.050692
54852	0.051750	3.360025	9.525049	-0.114077	0.179136	0.285525	0.986114	0.157043	-0.018920	-0.050589
54853	0.090608	3.407297	9.473166	-0.067830	0.238949	0.251956	0.986174	0.156700	-0.018840	-0.050503
54854	0.034176	3.276902	9.474861	-0.134732	0.129165	0.211155	0.986255	0.156261	-0.018763	-0.050324
54855	0.057988	3.335691	9.509821	-0.105803	0.179138	0.263205	0.986320	0.155920	-0.018668	-0.050129
54856	0.059855	3.333660	9.532134	-0.103956	0.176398	0.283674	0.986376	0.155637	-0.018602	-0.049942
54857	0.103252	3.199447	9.495362	-0.070420	0.060581	0.207313	0.986404	0.155525	-0.018524	-0.049753
54858	0.089875	3.194629	9.444296	-0.079904	0.073560	0.157100	0.986397	0.155607	-0.018384	-0.049699
54859	0.076066	3.247354	9.442760	-0.085594	0.122909	0.172020	0.986381	0.155744	-0.018180	-0.049662
54860	0.039348	3.305962	9.486706	-0.114306	0.165379	0.231620	0.986365	0.155877	-0.017907	-0.049665
54861	0.008782	3.403895	9.519520	-0.133481	0.250735	0.293110	0.986384	0.155736	-0.017814	-0.049760
54862	0.108009	3.327972	9.446863	-0.035314	0.196282	0.201828	0.986440	0.155383	-0.017653	-0.049801
54863	0.045815	3.248080	9.478315	-0.101247	0.124338	0.205539	0.986499	0.155029	-0.017379	-0.049842
54864	0.051541	3.140847	9.450760	-0.098636	0.034822	0.145902	0.986510	0.154972	-0.017124	-0.049876
54865	0.032180	3.315469	9.472016	-0.095925	0.194757	0.220523	0.986499	0.155046	-0.016722	-0.050003
54866	-0.022084	3.368762	9.519903	-0.139076	0.235334	0.282007	0.986510	0.154984	-0.016352	-0.050103
54867	0.013163	3.200146	9.513887	-0.112193	0.075206	0.224090	0.986526	0.154911	-0.016012	-0.050127
54868	0.067204	3.246378	9.556630	-0.049506	0.097278	0.279921	0.986474	0.155227	-0.015707	-0.050258
54869	-0.127088	3.352318	9.624154	-0.229346	0.192064	0.375003	0.986459	0.155308	-0.015401	-0.050410
54870	0.098131	3.353756	9.499409	0.005594	0.208256	0.259685	0.986468	0.155264	-0.015192	-0.050436
54871	0.056155	3.328248	9.674710	-0.040280	0.134773	0.417689	0.986484	0.155208	-0.014826	-0.050404
54872	-0.010124	3.245187	9.608631	-0.105793	0.081944	0.328281	0.986457	0.155402	-0.014629	-0.050381
54873	-0.024048	3.306767	9.539551	-0.107922	0.158271	0.281946	0.986417	0.155660	-0.014503	-0.050411
54874	-0.062183	3.368120	9.496199	-0.135987	0.229313	0.259791	0.986384	0.155815	-0.014420	-0.050592
54875	-0.136786	3.574899	9.485903	-0.186772	0.437180	0.314255	0.986431	0.155485	-0.014241	-0.050755
54876	0.012839	3.396104	9.498314	-0.051220	0.257043	0.271109	0.986515	0.155002	-0.014038	-0.050649
54877	0.022563	3.092144	9.532932	-0.067538	-0.033405	0.208938	0.986589	0.154625	-0.013796	-0.050431
54878	-0.101557	3.020253	9.635540	-0.197049	-0.119392	0.282994	0.986563	0.154881	-0.013490	-0.050240
54879	0.000623	3.254386	9.697292	-0.070444	0.059992	0.415700	0.986446	0.155794	-0.013114	-0.049799
54880	0.161738	3.004150	9.702048	0.074305	-0.221044	0.342426	0.986239	0.157464	-0.012342	-0.048840
54881	0.065125	2.952008	9.889578	-0.022220	-0.363542	0.501839	0.985898	0.159991	-0.011508	-0.047700
54882	-0.025508	3.097875	9.881637	-0.090099	-0.271343	0.539230	0.985481	0.162837	-0.010945	-0.046822
54883	-0.072582	3.477951	9.649631	-0.093504	0.113170	0.443778	0.985130	0.165055	-0.010884	-0.046438
54884	-0.246131	3.842146	9.430164	-0.231564	0.512599	0.357576	0.984983	0.165887	-0.011215	-0.046515
54885	-0.344362	3.858892	9.365682	-0.334911	0.557119	0.301810	0.985076	0.165277	-0.011838	-0.046578
54886	-0.198549	3.803802	9.330729	-0.204485	0.523888	0.249841	0.985305	0.163913	-0.012415	-0.046386
54887	-0.091653	3.208472	9.190131	-0.153432	0.025782	-0.079396	0.985507	0.162773	-0.012751	-0.046017
54888	0.083980	3.145008	9.094927	0.014545	-0.008042	-0.188990	0.985503	0.162782	-0.012927	-0.046024
54889	-0.052712	3.438997	9.111101	-0.097872	0.271137	-0.078288	0.985396	0.163284	-0.012941	-0.046541
54890	-0.130010	3.552462	9.209987	-0.166338	0.344034	0.052135	0.985312	0.163664	-0.012836	-0.046997
54891	-0.087006	3.469504	9.300963	-0.130018	0.226393	0.111263	0.985273	0.163840	-0.012614	-0.047260
54892	-0.049310	3.486554	9.452152	-0.092085	0.184204	0.260011	0.985214	0.164143	-0.012440	-0.047490
54893	-0.037853	3.754197	9.690543	-0.060958	0.356052	0.573436	0.985246	0.163865	-0.012258	-0.047840
54894	-0.128151	3.412116	9.582401	-0.174126	0.089943	0.358002	0.985370	0.163045	-0.012261	-0.048082
54895	0.037079	3.191868	9.488073	-0.023812	-0.087780	0.197539	0.985465	0.162409	-0.012175	-0.048318
54896	0.020629	3.085035	9.487106	-0.047111	-0.182347	0.161658	0.985416	0.162636	-0.012076	-0.048575
54897	0.035215	3.490373	9.622148	0.001959	0.143184	0.422016	0.985272	0.163393	-0.011991	-0.048979
54898	-0.150990	3.792124	9.652889	-0.153569	0.425995	0.549562	0.985236	0.163509	-0.011886	-0.049336
54899	-0.086704	3.684407	9.520623	-0.092443	0.363541	0.389466	0.985293	0.163188	-0.011828	-0.049267
54900	-0.042398	3.734764	9.511791	-0.040415	0.420150	0.397418	0.985424	0.162453	-0.011606	-0.049130
54901	-0.098627	3.442079	9.460504	-0.118478	0.182882	0.252662	0.985573	0.161640	-0.011507	-0.048845
54902	0.075702	3.298842	9.473540	0.043846	0.036359	0.218903	0.985621	0.161494	-0.011277	-0.048422
54903	-0.156661	3.137306	9.551696	-0.202359	-0.121146	0.239501	0.985564	0.161924	-0.011121	-0.048169
54904	-0.156955	3.289764	9.454980	-0.184969	0.041017	0.197703	0.985439	0.162736	-0.011103	-0.047995
54905	0.019744	3.577252	9.522151	0.014068	0.257398	0.355991	0.985344	0.163391	-0.011028	-0.047740
54906	-0.161381	4.015970	9.689160	-0.131322	0.629302	0.657298	0.985403	0.163084	-0.010908	-0.047606
54907	-0.253445	3.693934	9.565823	-0.249233	0.395022	0.434073	0.985672	0.161525	-0.011174	-0.047286
54908	-0.087344	3.187985	9.356061	-0.126092	0.003445	0.071175	0.985955	0.159880	-0.011369	-0.046933
54909	-0.183668	2.827060	9.403535	-0.258106	-0.320380	-0.000288	0.986059	0.159291	-0.011455	-0.046726
54910	-0.089664	3.180931	9.501708	-0.137751	-0.023624	0.206758	0.986014	0.159554	-0.011473	-0.046761
54911	-0.198257	3.483697	9.448541	-0.217644	0.286290	0.253148	0.985998	0.159574	-0.011533	-0.047013
54912	-0.179271	3.483093	9.391983	-0.197862	0.303179	0.199423	0.986010	0.159441	-0.011667	-0.047187
54913	-0.096295	3.518389	9.306027	-0.110918	0.360967	0.129539	0.986056	0.159090	-0.011815	-0.047378
54914	-0.054534	3.337487	9.369878	-0.087701	0.173894	0.132083	0.986121	0.158664	-0.011749	-0.047474
54915	-0.050733	2.968281	9.465965	-0.117831	-0.205230	0.105062	0.986058	0.159068	-0.011568	-0.047464
54916	-0.060798	3.194936	9.557754	-0.106755	-0.031977	0.264491	0.985925	0.159850	-0.011312	-0.047657
54917	-0.115004	3.375270	9.613436	-0.142099	0.109195	0.375133	0.985789	0.160629	-0.011139	-0.047895
54918	-0.115565	3.551110	9.705573	-0.126494	0.232120	0.519398	0.985709	0.161104	-0.010962	-0.047988
54919	-0.071253	3.604232	9.683828	-0.074585	0.279315	0.516326	0.985700	0.161144	-0.010928	-0.048054
54920	-0.187438	3.487261	9.689485	-0.201341	0.182878	0.483343	0.985772	0.160698	-0.011021	-0.048047
54921	-0.101273	3.332794	9.600042	-0.129775	0.067165	0.348868	0.985844	0.160256	-0.011280	-0.047983
54922	-0.032457	3.358645	9.497625	-0.059974	0.124879	0.260407	0.985883	0.160019	-0.011493	-0.047921
54923	-0.041679	3.360362	9.434415	-0.071559	0.149173	0.201032	0.985864	0.160122	-0.011758	-0.047897
54924	-0.088465	3.291497	9.492421	-0.132260	0.064481	0.233515	0.985786	0.160615	-0.012031	-0.047784
54925	0.006040	3.665512	9.432691	-0.007144	0.417326	0.298567	0.985715	0.161076	-0.012155	-0.047677
54926	-0.008693	3.661919	9.414059	-0.025249	0.415998	0.279911	0.985712	0.161161	-0.012315	-0.047415
54927	0.029348	3.330684	9.453666	-0.022414	0.086907	0.210189	0.985730	0.161174	-0.012420	-0.046957
54928	0.039590	3.238178	9.411862	-0.022046	0.008907	0.140701	0.985692	0.161514	-0.012480	-0.046579
54929	-0.083224	3.301601	9.445714	-0.142601	0.061995	0.192553	0.985637	0.161914	-0.012549	-0.046325
54930	-0.072832	3.396269	9.494413	-0.128004	0.128369	0.269523	0.985611	0.162116	-0.012594	-0.046151
54931	0.002778	3.419731	9.433507	-0.050206	0.162218	0.220098	0.985637	0.162008	-0.012662	-0.045976
54932	-0.074442	3.246882	9.426696	-0.143562	0.009890	0.156750	0.985643	0.162030	-0.012713	-0.045741
54933	-0.011345	3.342626	9.445582	-0.074005	0.085272	0.206272	0.985611	0.162279	-0.012654	-0.045557
54934	0.008223	3.383316	9.355383	-0.047055	0.146868	0.134488	0.985592	0.162443	-0.012572	-0.045416
54935	-0.023853	3.323450	9.310698	-0.080253	0.106180	0.072517	0.985599	0.162449	-0.012367	-0.045288
54936	-0.043528	3.334800	9.320598	-0.095496	0.112527	0.085522	0.985564	0.162720	-0.012131	-0.045160
54937	0.001052	3.515044	9.426905	-0.034019	0.238906	0.245336	0.985549	0.162879	-0.011727	-0.045015
54938	-0.075987	3.490311	9.519452	-0.108626	0.189889	0.324380	0.985552	0.162949	-0.011302	-0.044806
54939	-0.054846	3.370924	9.406430	-0.087520	0.111532	0.178657	0.985569	0.162940	-0.011008	-0.044530
54940	0.123201	3.358610	9.414917	0.094686	0.078823	0.183358	0.985552	0.163157	-0.010563	-0.044231
54941	-0.028675	3.365393	9.541620	-0.051563	0.048614	0.304830	0.985464	0.163772	-0.010016	-0.044038
54942	-0.184875	3.554846	9.478992	-0.182549	0.252142	0.307861	0.985433	0.164014	-0.009774	-0.043887
54943	-0.023551	3.462897	9.392862	-0.023780	0.175966	0.196635	0.985424	0.164117	-0.009629	-0.043737
54944	-0.006893	3.517782	9.472671	-0.001840	0.199444	0.290112	0.985441	0.164043	-0.009409	-0.043666
54945	-0.096210	3.462099	9.467453	-0.089873	0.159098	0.266730	0.985480	0.163859	-0.009064	-0.043563
54946	-0.238119	3.407182	9.512471	-0.230199	0.107833	0.291176	0.985511	0.163745	-0.008677	-0.043363
54947	-0.135320	3.528173	9.486419	-0.110519	0.223898	0.306409	0.985548	0.163566	-0.008364	-0.043265
54948	-0.108738	3.438196	9.430639	-0.083665	0.160867	0.224099	0.985620	0.163161	-0.008047	-0.043220
54949	-0.050484	3.215104	9.427334	-0.037574	-0.047209	0.147755	0.985660	0.162963	-0.007714	-0.043096
54950	-0.131958	3.318797	9.529290	-0.106708	0.024832	0.278258	0.985647	0.163068	-0.007400	-0.043054
54951	-0.135876	3.413726	9.546541	-0.097451	0.103949	0.325761	0.985593	0.163422	-0.007094	-0.042997
54952	-0.093782	3.510282	9.567583	-0.042440	0.177459	0.377318	0.985550	0.163707	-0.006785	-0.042955
54953	-0.129454	3.409858	9.479040	-0.078659	0.110638	0.260924	0.985534	0.163826	-0.006520	-0.042913
54954	-0.169534	3.426874	9.392363	-0.109487	0.155658	0.184935	0.985515	0.163964	-0.006190	-0.042878
54955	-0.164746	3.553491	9.410844	-0.087956	0.266354	0.244138	0.985515	0.163986	-0.005815	-0.042836
54956	-0.104549	3.566973	9.474077	-0.020793	0.256184	0.307900	0.985577	0.163639	-0.005422	-0.042782
54957	-0.168182	3.479089	9.516528	-0.084300	0.173181	0.319417	0.985664	0.163149	-0.005019	-0.042699
54958	-0.201665	3.456734	9.451241	-0.110187	0.186618	0.250545	0.985760	0.162600	-0.004639	-0.042624
54959	-0.148490	3.435741	9.449619	-0.051024	0.172327	0.241632	0.985832	0.162188	-0.004241	-0.042559
54960	-0.177943	3.264901	9.519369	-0.088116	-0.001823	0.252194	0.985891	0.161884	-0.003853	-0.042398
54961	-0.173447	3.146649	9.570150	-0.086628	-0.129452	0.261785	0.985863	0.162093	-0.003433	-0.042293
54962	-0.274849	3.262629	9.573052	-0.171329	-0.018806	0.303335	0.985808	0.162450	-0.003112	-0.042225
54963	-0.215004	3.395370	9.647936	-0.096309	0.071498	0.416831	0.985791	0.162585	-0.002806	-0.042115
54964	-0.222112	3.344532	9.672418	-0.104459	0.016323	0.423509	0.985825	0.162423	-0.002725	-0.041967
54965	-0.289247	3.565887	9.688415	-0.152505	0.231289	0.511451	0.985893	0.161997	-0.002710	-0.042003
54966	-0.344679	3.574930	9.651539	-0.206763	0.269120	0.479831	0.986022	0.161204	-0.002827	-0.042022
54967	-0.223230	3.416049	9.506990	-0.099214	0.174304	0.289877	0.986183	0.160241	-0.003045	-0.041908
54968	-0.158046	3.180506	9.399293	-0.054133	-0.002314	0.111241	0.986289	0.159605	-0.003113	-0.041836
54969	-0.198698	3.140314	9.393964	-0.098667	-0.027629	0.093730	0.986306	0.159497	-0.003153	-0.041851
54970	-0.246045	3.337628	9.403702	-0.129987	0.159369	0.166672	0.986284	0.159608	-0.003136	-0.041937
54971	-0.236552	3.597452	9.455198	-0.100459	0.389219	0.298534	0.986329	0.159312	-0.003216	-0.041996
54972	-0.111877	3.605902	9.492907	0.021759	0.388017	0.335182	0.986486	0.158330	-0.003415	-0.042009
54973	-0.131549	3.360577	9.495693	-0.021208	0.180189	0.259353	0.986683	0.157066	-0.003660	-0.042105
54974	-0.267169	3.079147	9.488990	-0.182332	-0.049839	0.165173	0.986824	0.156124	-0.003869	-0.042295
54975	-0.032411	2.835647	9.304766	0.033056	-0.230248	-0.088156	0.986857	0.155906	-0.003930	-0.042321
54976	0.121649	3.021176	9.442641	0.202708	-0.115840	0.099489	0.986742	0.156603	-0.003527	-0.042455
54977	-0.287230	3.215809	9.659954	-0.185574	0.019644	0.370819	0.986621	0.157301	-0.003240	-0.042727
54978	-0.260079	3.299864	9.483457	-0.144521	0.142900	0.229791	0.986575	0.157532	-0.003167	-0.042930
54979	-0.189089	3.315907	9.491610	-0.070757	0.149185	0.241883	0.986597	0.157325	-0.003133	-0.043188
54980	-0.191969	3.317136	9.589009	-0.073192	0.127725	0.334610	0.986673	0.156756	-0.003111	-0.043527
54981	-0.245765	3.404643	9.564744	-0.117372	0.236334	0.339488	0.986771	0.155996	-0.003179	-0.044022
54982	-0.191882	3.309449	9.454002	-0.069133	0.192176	0.203584	0.986872	0.155210	-0.003280	-0.044536
54983	-0.165704	3.242922	9.382178	-0.046902	0.161125	0.114099	0.986909	0.154829	-0.003340	-0.045027
54984	-0.136566	3.321068	9.391944	-0.008949	0.234436	0.147318	0.986907	0.154708	-0.003241	-0.045489
54985	-0.137491	3.196804	9.368123	-0.017828	0.123524	0.086031	0.986864	0.154898	-0.003202	-0.045786
54986	-0.080891	3.289032	9.455567	0.047282	0.170746	0.197338	0.986763	0.155455	-0.003095	-0.046076
54987	-0.162731	3.414206	9.562547	-0.022186	0.251637	0.339246	0.986667	0.156012	-0.002964	-0.046254
54988	-0.139647	3.290628	9.577960	-0.009105	0.118356	0.315045	0.986612	0.156375	-0.002925	-0.046199
54989	-0.085179	3.272389	9.617977	0.043116	0.078097	0.346708	0.986587	0.156547	-0.002888	-0.046151
54990	-0.203185	3.100114	9.632041	-0.090853	-0.080958	0.307263	0.986574	0.156632	-0.002975	-0.046141
54991	-0.149241	3.046345	9.616967	-0.044041	-0.136082	0.275330	0.986519	0.156962	-0.003103	-0.046179
54992	-0.221929	3.321554	9.644005	-0.094324	0.117709	0.388590	0.986505	0.157058	-0.003177	-0.046168
54993	-0.058273	3.360210	9.571353	0.070472	0.162819	0.329981	0.986529	0.156918	-0.003394	-0.046109
54994	-0.147638	3.224105	9.520470	-0.032506	0.065116	0.239710	0.986605	0.156415	-0.003478	-0.046171
54995	-0.291564	3.011019	9.527310	-0.195580	-0.116243	0.180766	0.986661	0.156030	-0.003507	-0.046277
54996	-0.109018	3.031125	9.402480	-0.007169	-0.072899	0.066628	0.986629	0.156222	-0.003256	-0.046346
54997	-0.290386	3.071462	9.488921	-0.178355	-0.051418	0.163452	0.986561	0.156605	-0.002767	-0.046526
54998	-0.300751	3.137800	9.557461	-0.173806	-0.019013	0.249654	0.986470	0.157131	-0.002256	-0.046704
54999	-0.260113	3.130203	9.584142	-0.124162	-0.048132	0.272146	0.986399	0.157515	-0.001750	-0.046945
55000	-0.382557	3.193051	9.613641	-0.230634	0.006626	0.321945	0.986339	0.157731	-0.001342	-0.047487
55001	-0.379526	3.181534	9.496279	-0.218028	0.029808	0.207147	0.986297	0.157777	-0.001044	-0.048209
55002	-0.328206	3.215844	9.362190	-0.152417	0.101282	0.090165	0.986292	0.157564	-0.000647	-0.048996
55003	-0.341797	3.208411	9.342667	-0.155928	0.102105	0.069691	0.986231	0.157713	-0.000241	-0.049758
55004	-0.300274	3.393156	9.418536	-0.085957	0.242114	0.199628	0.986125	0.158137	0.000304	-0.050491
55005	-0.257186	3.196117	9.448411	-0.048966	0.028876	0.164812	0.985957	0.159000	0.001026	-0.051052
55006	-0.229394	3.156443	9.569115	-0.010837	-0.072859	0.265914	0.985705	0.160326	0.001823	-0.051749
55007	-0.350360	3.440367	9.516727	-0.085746	0.195858	0.310612	0.985444	0.161620	0.002474	-0.052660
55008	-0.403270	3.465195	9.662340	-0.124364	0.153634	0.458238	0.985243	0.162573	0.002909	-0.053461
55009	-0.291115	3.540836	9.659532	0.004903	0.196910	0.477600	0.985099	0.163225	0.003254	-0.054092
55010	-0.354066	3.430550	9.843127	-0.062931	0.026321	0.616911	0.984973	0.163814	0.003581	-0.054592
55011	-0.512275	3.453356	9.852252	-0.213085	0.047801	0.637541	0.984830	0.164502	0.003609	-0.055094
55012	-0.290655	3.638860	9.767459	0.029352	0.213680	0.612403	0.984721	0.165002	0.003579	-0.055551
55013	-0.341599	3.455376	9.787903	-0.042055	0.030485	0.572718	0.984621	0.165445	0.003468	-0.056011
55014	-0.437213	3.464132	9.655278	-0.137706	0.083759	0.453265	0.984516	0.165913	0.003194	-0.056487
55015	-0.439943	3.667672	9.472104	-0.122041	0.326612	0.348245	0.984419	0.166371	0.002733	-0.056854
55016	-0.400032	3.585570	9.565256	-0.101214	0.206238	0.407766	0.984344	0.166747	0.002271	-0.057070
55017	-0.346574	3.758172	9.492440	-0.036943	0.381820	0.395311	0.984318	0.166855	0.001769	-0.057218
55018	-0.415612	3.799014	9.350945	-0.108320	0.479808	0.277082	0.984402	0.166334	0.001266	-0.057301
55019	-0.416546	3.591813	9.333940	-0.141457	0.305993	0.191481	0.984545	0.165496	0.000756	-0.057293
55020	-0.292314	3.300399	9.334957	-0.059322	0.031564	0.092613	0.984616	0.165125	0.000372	-0.057141
55021	-0.254234	3.345798	9.405726	-0.023743	0.046919	0.173499	0.984559	0.165482	0.000150	-0.057097
55022	-0.333477	3.525716	9.388582	-0.086674	0.222550	0.218778	0.984489	0.165882	-0.000066	-0.057131
55023	-0.234247	3.648739	9.290907	0.023130	0.355322	0.165406	0.984489	0.165884	-0.000263	-0.057136
55024	-0.296051	3.431776	9.291549	-0.065303	0.163026	0.095227	0.984556	0.165478	-0.000366	-0.057154
55025	-0.275200	3.228685	9.364921	-0.069192	-0.048276	0.096640	0.984580	0.165330	-0.000351	-0.057159
55026	-0.330797	3.208902	9.387024	-0.125563	-0.067889	0.112146	0.984556	0.165466	-0.000222	-0.057184
55027	-0.256753	3.363250	9.401919	-0.032031	0.060839	0.175742	0.984526	0.165580	-0.000083	-0.057380
55028	-0.453470	3.291850	9.539440	-0.232534	-0.027587	0.286223	0.984566	0.165244	0.000214	-0.057653
55029	-0.608324	3.273958	9.647075	-0.382336	-0.056678	0.385622	0.984595	0.164970	0.000563	-0.057944
55030	-0.576559	3.604410	9.664227	-0.304963	0.252188	0.510338	0.984667	0.164402	0.000874	-0.058330
55031	-0.507257	3.795847	9.650985	-0.206539	0.445960	0.558700	0.984829	0.163252	0.001010	-0.058813
55032	-0.259839	3.571628	9.544916	0.017584	0.270213	0.378292	0.985061	0.161698	0.000816	-0.059226
55033	-0.201922	3.183096	9.253793	0.033416	0.021607	-0.024740	0.985237	0.160463	0.000630	-0.059662
55034	-0.291373	3.123533	9.205013	-0.061769	0.006160	-0.087989	0.985236	0.160248	0.000549	-0.060253
55035	-0.307531	3.372608	9.336611	-0.049305	0.193902	0.117132	0.985074	0.161043	0.000572	-0.060775
55036	-0.218516	3.749238	9.433107	0.083891	0.489190	0.328401	0.984918	0.161873	0.000606	-0.061098
55037	-0.202707	3.752584	9.439906	0.099737	0.478803	0.335987	0.984899	0.161960	0.000536	-0.061169
55038	-0.179831	3.474796	9.497842	0.085802	0.197043	0.300144	0.984922	0.161843	0.000375	-0.061125
55039	-0.348855	3.355717	9.601238	-0.100672	0.073387	0.363304	0.984931	0.161832	0.000286	-0.061006
55040	-0.265823	3.349957	9.625834	-0.022190	0.047909	0.382741	0.984900	0.162073	0.000153	-0.060857
55041	-0.278433	3.302414	9.564155	-0.042918	0.021262	0.309280	0.984891	0.162197	0.000013	-0.060685
55042	-0.247686	3.231960	9.460728	-0.022804	-0.016448	0.187887	0.984894	0.162249	-0.000160	-0.060490
55043	-0.232816	3.200461	9.488805	-0.016576	-0.060406	0.203831	0.984856	0.162569	-0.000333	-0.060248
55044	-0.344566	3.304787	9.560508	-0.120550	0.020170	0.308020	0.984806	0.162966	-0.000446	-0.059983
55045	-0.221521	3.536739	9.379672	0.028079	0.277881	0.210178	0.984820	0.163025	-0.000599	-0.059591
55046	-0.214295	3.391319	9.330782	0.016842	0.160208	0.116285	0.984921	0.162626	-0.000519	-0.059022
55047	-0.244131	2.942389	9.341830	-0.065167	-0.254677	-0.018918	0.984999	0.162376	-0.000458	-0.058399
55048	-0.041057	2.987162	9.274918	0.145717	-0.215072	-0.071978	0.984976	0.162719	-0.000046	-0.057831
55049	-0.304017	3.106532	9.529602	-0.097513	-0.170610	0.213160	0.984838	0.163733	0.000651	-0.057309
55050	-0.390390	3.487388	9.620817	-0.130740	0.147080	0.426241	0.984732	0.164512	0.001303	-0.056887
55051	-0.228681	3.438321	9.312831	0.038450	0.179099	0.115535	0.984804	0.164212	0.001825	-0.056490
55052	-0.214518	2.966781	9.367413	0.009445	-0.275120	0.011794	0.984904	0.163704	0.002428	-0.056206
55053	-0.261119	2.925631	9.392402	-0.030175	-0.313335	0.023247	0.984896	0.163790	0.003049	-0.056068
55054	-0.294181	3.189589	9.412256	-0.020519	-0.073264	0.129383	0.984844	0.164086	0.003824	-0.056074
55055	-0.486391	3.348526	9.549770	-0.179599	0.044005	0.317125	0.984782	0.164421	0.004624	-0.056111
55056	-0.454755	3.419755	9.557710	-0.125005	0.098423	0.347332	0.984745	0.164613	0.005373	-0.056135
55057	-0.312698	3.333208	9.391325	0.022706	0.051757	0.157359	0.984699	0.164844	0.006194	-0.056171
55058	-0.364271	3.198218	9.385226	-0.026953	-0.075229	0.108872	0.984602	0.165314	0.007083	-0.056389
55059	-0.434992	3.105491	9.401545	-0.090920	-0.176415	0.096041	0.984390	0.166388	0.007904	-0.056817
55060	-0.421070	3.440788	9.534246	-0.023292	0.066203	0.331925	0.984121	0.167731	0.008614	-0.057437
55061	-0.443308	3.669115	9.579205	-0.004271	0.242834	0.451866	0.983921	0.168653	0.009262	-0.058046
55062	-0.567522	3.607763	9.560003	-0.121124	0.190345	0.418675	0.983801	0.169140	0.009842	-0.058570
55063	-0.536845	3.560091	9.481338	-0.083849	0.161974	0.327576	0.983742	0.169287	0.010373	-0.059045
55064	-0.492870	3.569966	9.473220	-0.027052	0.168224	0.321435	0.983730	0.169162	0.010869	-0.059514
55065	-0.516605	3.417636	9.600668	-0.057455	-0.011826	0.391061	0.983734	0.168962	0.011301	-0.059938
55066	-0.537454	3.281201	9.648255	-0.085416	-0.152293	0.390913	0.983693	0.169048	0.011639	-0.060302
55067	-0.670955	3.284956	9.732326	-0.209207	-0.166648	0.477489	0.983606	0.169360	0.011968	-0.060764
55068	-0.789143	3.495809	9.792196	-0.293744	0.017586	0.610553	0.983528	0.169590	0.012115	-0.061364
55069	-0.534698	3.770873	9.675789	-0.004870	0.283782	0.581817	0.983515	0.169447	0.012007	-0.061989
55070	-0.554796	3.711356	9.672921	-0.032562	0.240294	0.559803	0.983591	0.168785	0.011797	-0.062618
55071	-0.550693	3.282995	9.594217	-0.085575	-0.119692	0.341555	0.983666	0.168178	0.011502	-0.063134
55072	-0.516047	3.046192	9.471858	-0.084926	-0.297640	0.145520	0.983634	0.168253	0.011345	-0.063450
55073	-0.574325	3.275204	9.491155	-0.116412	-0.092844	0.242989	0.983455	0.169138	0.011112	-0.063916
55074	-0.602742	3.779634	9.584099	-0.084458	0.331778	0.501703	0.983265	0.170025	0.010706	-0.064549
55075	-0.435689	3.939099	9.451776	0.093250	0.496396	0.423879	0.983238	0.170042	0.010087	-0.065014
55076	-0.347269	3.529888	9.394387	0.117353	0.132406	0.227426	0.983375	0.169249	0.009550	-0.065092
55077	-0.446095	2.896692	9.379926	-0.073478	-0.431457	0.004709	0.983399	0.169191	0.009034	-0.064955
55078	-0.488990	3.053279	9.353252	-0.105224	-0.281904	0.033853	0.983196	0.170389	0.008643	-0.064945
55079	-0.543901	3.812136	9.400427	-0.070041	0.389579	0.338150	0.982935	0.171823	0.008196	-0.065187
55080	-0.519973	4.196392	9.443458	-0.004848	0.712374	0.509690	0.982883	0.172092	0.007798	-0.065309
55081	-0.456214	3.764578	9.308902	-0.004714	0.354865	0.232703	0.983033	0.171303	0.007451	-0.065153
55082	-0.301875	3.396819	8.987741	0.097113	0.121254	-0.200984	0.983216	0.170357	0.007270	-0.064906
55083	-0.341154	3.226297	9.102907	0.035267	-0.060423	-0.149179	0.983275	0.170115	0.007456	-0.064619
55084	-0.378972	3.259369	9.128994	0.005506	-0.037444	-0.111956	0.983203	0.170693	0.007792	-0.064154
55085	-0.440183	3.263255	9.066885	-0.048364	-0.017225	-0.166530	0.983127	0.171298	0.008344	-0.063627
55086	-0.606995	3.231162	9.184666	-0.208580	-0.080033	-0.059892	0.983040	0.171891	0.009028	-0.063278
55087	-0.593411	3.591386	9.373784	-0.136581	0.176242	0.240585	0.982954	0.172411	0.009832	-0.063075
55088	-0.479955	3.885183	9.454525	0.029305	0.405453	0.412173	0.983029	0.172049	0.010752	-0.062744
55089	-0.388214	3.459473	9.389400	0.082504	0.036201	0.200869	0.983261	0.170796	0.011521	-0.062402
55090	-0.355890	3.162355	9.315927	0.092798	-0.195603	0.029401	0.983472	0.169599	0.012353	-0.062185
55091	-0.443237	3.122401	9.429341	0.019307	-0.247491	0.126964	0.983523	0.169303	0.013285	-0.061981
55092	-0.414951	3.355960	9.481250	0.095952	-0.054716	0.252923	0.983421	0.169883	0.014325	-0.061790
55093	-0.321690	3.526876	9.350371	0.228197	0.124950	0.182513	0.983302	0.170524	0.015383	-0.061656
55094	-0.316375	3.446047	9.185541	0.241744	0.094227	-0.000341	0.983223	0.170880	0.016520	-0.061642
55095	-0.337943	3.478280	8.907145	0.243985	0.216836	-0.250091	0.983183	0.170943	0.017863	-0.061739
55096	-0.285241	3.269068	8.494871	0.291695	0.159276	-0.712114	0.983220	0.170513	0.019650	-0.061785
55097	-0.140526	3.094703	7.734735	0.437020	0.244491	-1.495711	0.983177	0.170333	0.022450	-0.062008
55098	-0.393859	3.067790	7.075125	0.226357	0.468911	-2.108646	0.982929	0.170770	0.027298	-0.062790
55099	-0.955693	2.677368	6.343248	-0.319803	0.400786	-2.880543	0.982353	0.172348	0.034552	-0.063910
55100	-1.160692	2.534502	5.728373	-0.463539	0.463149	-3.475939	0.981235	0.176050	0.043909	-0.065242
55101	-1.444868	2.257545	5.705577	-0.657831	0.175735	-3.545957	0.979504	0.181917	0.055265	-0.066514
55102	-1.327191	2.171210	5.851990	-0.394770	-0.068993	-3.444195	0.977110	0.189655	0.067849	-0.068434
55103	-0.983833	2.930293	5.795307	0.232933	0.506147	-3.268552	0.974427	0.196160	0.082446	-0.072226
55104	-2.050277	3.302415	5.620450	-0.546263	0.960533	-3.069335	0.972042	0.197887	0.099601	-0.077817
55105	-3.680019	3.462056	6.633876	-1.641266	0.874100	-1.684356	0.970327	0.194086	0.118688	-0.081904
55106	-4.657137	0.993405	7.659875	-2.564178	-1.655362	-1.325907	0.968496	0.191399	0.136342	-0.082413
55107	-3.603368	0.842492	7.950677	-1.213362	-2.063288	-1.376535	0.964732	0.194708	0.155130	-0.085533
55108	-4.355196	2.236331	8.620040	-1.049719	-1.091181	-0.016499	0.959625	0.199042	0.176159	-0.092035
55109	-5.424843	3.314557	8.593785	-1.322640	-0.041813	0.793805	0.955208	0.196997	0.197153	-0.099500
55110	-5.374581	2.424680	8.985478	-0.918738	-0.979081	0.849573	0.951012	0.193083	0.216937	-0.105983
55111	-5.413708	1.172582	9.010495	-0.856688	-2.109072	0.515600	0.945242	0.193592	0.237479	-0.112446
55112	-6.500357	0.973235	8.261940	-1.721143	-1.924012	0.423540	0.937540	0.199386	0.257979	-0.121289
55113	-7.253160	1.892074	7.465126	-1.941001	-0.779024	0.556585	0.928645	0.205417	0.278899	-0.132803
55114	-7.439146	2.404405	6.915639	-1.673636	-0.132451	0.488179	0.919466	0.208430	0.300091	-0.145203
55115	-8.194321	2.700418	7.041585	-1.557667	0.110617	1.212678	0.909489	0.211544	0.321397	-0.157424
55116	-9.607965	3.319133	7.024120	-1.802481	0.753607	2.386613	0.898956	0.217987	0.340440	-0.168702
55117	-8.315578	3.745872	6.112006	-0.657412	1.214067	1.077997	0.887472	0.226348	0.359054	-0.179558
55118	-8.240517	2.590924	5.223640	-1.169042	0.555802	0.197719	0.875152	0.232394	0.379270	-0.190409
55119	-9.909516	2.314481	5.262757	-1.827599	0.446117	1.487065	0.862077	0.237053	0.399515	-0.202527
55120	-11.094826	3.235613	5.597282	-1.269286	1.044509	2.921594	0.849067	0.243811	0.416669	-0.214543
55121	-10.028556	4.685654	5.862745	0.860964	1.640006	2.574383	0.835654	0.253090	0.432177	-0.225502
55122	-9.368903	4.002994	5.636105	1.153011	0.878438	1.738934	0.821406	0.263483	0.447323	-0.236158
55123	-9.289043	2.821418	5.021089	0.529179	0.126969	1.102501	0.806755	0.272134	0.462812	-0.246767
55124	-11.117954	2.897045	5.484784	0.525063	-0.063337	2.906573	0.793000	0.276204	0.478341	-0.257005
55125	-12.052912	3.103559	6.438214	1.376120	-0.571067	4.119809	0.781503	0.277415	0.490934	-0.266979
55126	-9.640162	3.710016	6.248861	2.991231	-0.462906	1.873738	0.771174	0.279910	0.500440	-0.276588
55127	-9.098766	4.082719	6.260958	3.748959	-0.431050	1.341071	0.761270	0.284126	0.508568	-0.284780
55128	-10.481204	3.288857	6.645877	3.220590	-1.178209	2.559595	0.753535	0.286178	0.515326	-0.291077
55129	-11.938482	1.898407	6.502090	1.898174	-1.842434	3.656061	0.747771	0.286105	0.519994	-0.297638
55130	-11.966113	1.574447	5.759638	1.382529	-1.482320	3.405831	0.743337	0.285293	0.522691	-0.304717
55131	-10.343588	1.651336	4.871809	1.452707	-0.991053	1.604768	0.739405	0.287238	0.522792	-0.312191
55132	-9.589308	2.715784	3.747358	1.840590	0.389661	0.667440	0.735160	0.293909	0.519789	-0.320898
55133	-9.326174	4.039597	4.058683	3.116782	0.839574	0.644296	0.731708	0.302135	0.515065	-0.328674
55134	-9.364543	3.804852	4.434038	3.075670	0.315478	0.783152	0.730241	0.309322	0.509328	-0.334144
55135	-9.671469	2.854592	4.180222	1.990359	-0.041556	0.920229	0.730561	0.315453	0.502634	-0.337831
55136	-9.807102	2.251512	3.665019	1.053428	0.031158	0.844148	0.732075	0.321164	0.494935	-0.340527
55137	-9.658897	1.994112	3.173973	0.475160	0.255137	0.533895	0.734158	0.326594	0.487035	-0.342265
55138	-9.580357	2.082285	2.876440	0.262592	0.532316	0.387245	0.736442	0.331666	0.479358	-0.343318
55139	-9.350968	2.362234	2.883058	0.410230	0.641567	0.224790	0.739225	0.335420	0.472253	-0.343535
55140	-9.088857	2.317972	2.907482	0.320970	0.565472	-0.014255	0.742539	0.337762	0.465892	-0.342778
55141	-8.837223	1.965750	2.860631	-0.045525	0.393648	-0.326626	0.746069	0.339329	0.460010	-0.341507
55142	-8.581082	1.754803	2.699102	-0.331143	0.390845	-0.661961	0.749352	0.340872	0.454400	-0.340293
55143	-8.398510	1.764486	2.733584	-0.357838	0.354233	-0.820116	0.752190	0.342459	0.449186	-0.339357
55144	-8.211874	1.861698	2.806953	-0.278656	0.325734	-0.947288	0.754627	0.343923	0.444712	-0.338358
55145	-8.194550	1.905817	2.988850	-0.244547	0.207897	-0.890107	0.756890	0.344992	0.441120	-0.336914
55146	-8.123466	1.958442	3.123005	-0.190605	0.120401	-0.894831	0.759055	0.345386	0.438468	-0.335097
55147	-8.517667	1.946917	3.264857	-0.355400	0.087440	-0.492485	0.761212	0.345249	0.436434	-0.332993
55148	-8.822802	1.837940	3.173879	-0.657822	0.176968	-0.282256	0.763165	0.344725	0.434860	-0.331120
55149	-8.908249	1.628217	3.288355	-0.853156	0.001345	-0.216162	0.764788	0.343885	0.433795	-0.329642
55150	-8.751611	1.525274	3.363297	-0.866285	-0.130523	-0.354285	0.766087	0.342729	0.433137	-0.328695
55151	-8.663758	1.618268	3.239342	-0.821859	0.023255	-0.458715	0.767021	0.341362	0.432906	-0.328242
55152	-8.786628	1.685490	3.337571	-0.777898	0.030616	-0.295389	0.767860	0.339744	0.432702	-0.328229
55153	-8.728759	1.997825	3.431977	-0.460263	0.142932	-0.235179	0.768368	0.338331	0.432489	-0.328779
55154	-8.589331	2.523529	3.524994	0.065502	0.354156	-0.198083	0.768547	0.337268	0.432454	-0.329499
55155	-8.481786	2.830086	3.580450	0.390881	0.474437	-0.200622	0.768563	0.336329	0.432851	-0.329899
55156	-8.528834	2.790395	3.707664	0.410318	0.373069	-0.119054	0.768606	0.335395	0.433461	-0.329950
55157	-8.595117	2.627984	3.804598	0.313901	0.230192	-0.060470	0.768456	0.334460	0.434252	-0.330209
55158	-8.705428	2.302300	3.870474	0.060444	0.029305	-0.011613	0.767981	0.333838	0.435034	-0.330911
55159	-8.719177	1.942483	3.881253	-0.204298	-0.170111	-0.076636	0.767169	0.333712	0.435618	-0.332152
55160	-8.758614	1.832345	3.826250	-0.308759	-0.179920	-0.087296	0.765865	0.334420	0.436128	-0.333777
55161	-9.056018	1.898881	3.955547	-0.290475	-0.194760	0.244209	0.764168	0.335684	0.436624	-0.335743
55162	-9.107915	2.082481	4.216655	-0.021707	-0.312591	0.432933	0.762473	0.336993	0.437177	-0.337560
55163	-9.181058	2.206223	4.192478	0.064250	-0.228449	0.515900	0.761108	0.337979	0.437743	-0.338918
55164	-8.997603	2.331693	4.135885	0.233645	-0.170245	0.356658	0.760072	0.338664	0.438302	-0.339835
55165	-8.987256	2.090562	4.163904	0.070140	-0.338960	0.304598	0.759252	0.339260	0.438921	-0.340276
55166	-9.038869	1.904450	4.084197	-0.121225	-0.377437	0.279465	0.758410	0.339927	0.439506	-0.340733
55167	-8.897331	1.832366	3.935221	-0.175623	-0.338949	0.079747	0.757552	0.340510	0.440111	-0.341276
55168	-8.833448	1.832211	3.786762	-0.198775	-0.244058	-0.033769	0.756643	0.341044	0.440767	-0.341914
55169	-8.735182	2.037813	3.778550	0.023123	-0.161647	-0.080945	0.755551	0.341606	0.441437	-0.342903
55170	-8.576605	2.275538	3.876965	0.343023	-0.162025	-0.136784	0.754494	0.341961	0.442224	-0.343859
55171	-8.612612	2.407624	3.955124	0.498077	-0.154962	-0.048232	0.753778	0.341587	0.443265	-0.344461
55172	-8.647773	2.334230	3.866339	0.415946	-0.108957	-0.066088	0.753419	0.340465	0.444500	-0.344765
55173	-8.966234	2.083619	3.887270	0.135409	-0.177275	0.177097	0.753237	0.338803	0.445919	-0.344968
55174	-9.173358	1.904603	3.933028	-0.033783	-0.245848	0.345315	0.753215	0.337094	0.446966	-0.345335
55175	-9.278722	1.867748	4.041229	-0.029259	-0.312039	0.474023	0.753130	0.336051	0.447489	-0.345859
55176	-9.362540	2.012208	4.123673	0.111198	-0.269959	0.609671	0.752954	0.335596	0.447516	-0.346648
55177	-9.301669	2.119426	4.093750	0.215053	-0.190171	0.564662	0.752756	0.335540	0.447150	-0.347604
55178	-9.200443	2.116204	4.059007	0.232033	-0.175789	0.459472	0.752537	0.335891	0.446327	-0.348795
55179	-9.084152	2.047872	4.017896	0.191102	-0.195824	0.325567	0.752264	0.336568	0.445236	-0.350124
55180	-9.132535	1.833848	3.955738	-0.043736	-0.239134	0.304374	0.751918	0.337582	0.443807	-0.351699
55181	-8.996769	1.941962	3.950480	0.074667	-0.203554	0.200920	0.751486	0.338864	0.442148	-0.353475
55182	-8.791331	2.201616	3.803353	0.282559	0.008677	0.011780	0.751113	0.340212	0.440400	-0.355153
55183	-8.644721	2.320525	3.705138	0.373367	0.119371	-0.133307	0.750779	0.341499	0.438716	-0.356703
55184	-8.758820	2.325609	3.764224	0.342240	0.102004	-0.006200	0.750509	0.342586	0.437225	-0.358058
55185	-8.850807	2.366010	3.884588	0.375600	0.048457	0.131224	0.750435	0.343242	0.436002	-0.359074
55186	-8.872522	2.388099	3.841989	0.353648	0.108552	0.139632	0.750712	0.343425	0.434947	-0.359599
55187	-8.697805	2.169816	3.785701	0.194781	0.012669	-0.083694	0.751132	0.343543	0.434189	-0.359526
55188	-8.826034	1.869030	3.763658	-0.130481	-0.089647	-0.038631	0.751339	0.344228	0.433569	-0.359186
55189	-8.899646	2.049856	3.803604	-0.008947	-0.026772	0.080348	0.751316	0.345484	0.432874	-0.358868
55190	-8.976601	2.211199	3.927532	0.125689	-0.049982	0.231012	0.751221	0.346955	0.432145	-0.358525
55191	-8.935722	2.186994	3.862929	0.072593	-0.037076	0.164566	0.751222	0.348178	0.431535	-0.358072
55192	-8.977587	2.013918	3.799284	-0.133282	-0.076711	0.140393	0.751290	0.349164	0.431070	-0.357529
55193	-8.914426	2.055814	3.676578	-0.139309	0.017799	0.045853	0.751410	0.349865	0.430792	-0.356925
55194	-8.823564	2.262905	3.617238	0.032883	0.137653	-0.012667	0.751597	0.350262	0.430721	-0.356227
55195	-8.768868	2.333858	3.608874	0.100099	0.159931	-0.049066	0.751997	0.350236	0.430780	-0.355335
55196	-8.695367	2.341131	3.602915	0.123870	0.149544	-0.115596	0.752592	0.349783	0.431000	-0.354254
55197	-8.731277	2.301253	3.585702	0.065065	0.152364	-0.098740	0.753244	0.349143	0.431459	-0.352940
55198	-8.819573	2.212642	3.589621	-0.045187	0.123770	-0.037787	0.753923	0.348551	0.431896	-0.351536
55199	-8.838343	2.296940	3.639452	0.032876	0.126349	0.016901	0.754441	0.348192	0.432262	-0.350329
55200	-8.819693	2.425297	3.707038	0.168877	0.126475	0.054767	0.754783	0.348090	0.432496	-0.349403
55201	-8.872496	2.468091	3.783111	0.209946	0.090112	0.140823	0.754991	0.348197	0.432689	-0.348608
55202	-8.904039	2.444258	3.825314	0.188717	0.041999	0.179907	0.755207	0.348407	0.432712	-0.347902
55203	-8.847422	2.323157	3.773965	0.079930	0.000111	0.082278	0.755331	0.348914	0.432676	-0.347166
55204	-8.895709	2.283007	3.755674	0.008736	-0.010003	0.109542	0.755241	0.349933	0.432399	-0.346684
55205	-8.852943	2.432386	3.808375	0.157032	-0.006167	0.125626	0.755071	0.351045	0.432156	-0.346230
55206	-8.783848	2.545497	3.819262	0.269891	0.009738	0.094348	0.755079	0.351761	0.432049	-0.345622
55207	-8.761035	2.470364	3.729365	0.171297	0.028872	0.022780	0.755273	0.351979	0.432226	-0.344753
55208	-8.909606	2.229010	3.778376	-0.071059	-0.111647	0.117477	0.755667	0.351756	0.432622	-0.343618
55209	-8.974768	2.139608	3.801421	-0.164819	-0.168088	0.163272	0.756172	0.351398	0.432973	-0.342430
55210	-8.831367	2.465575	3.801590	0.154648	-0.033923	0.111985	0.756713	0.351013	0.433243	-0.341285
55211	-8.609600	2.908372	3.847840	0.619055	0.107696	0.035911	0.757333	0.350521	0.433721	-0.339806
55212	-8.746318	2.969688	3.900432	0.630966	0.123099	0.193171	0.758206	0.349787	0.434282	-0.337893
55213	-8.768533	2.586003	3.821396	0.265669	-0.008170	0.092210	0.759216	0.349013	0.434771	-0.335791
55214	-8.830634	2.239459	3.761488	-0.080888	-0.132682	0.042255	0.760010	0.348899	0.434751	-0.334135
55215	-8.735466	2.473271	3.856404	0.168799	-0.117336	0.049107	0.760367	0.349576	0.434402	-0.333067
55216	-8.753020	2.702892	3.888851	0.343862	-0.034710	0.133400	0.760616	0.350268	0.434249	-0.331970
55217	-8.880464	2.578275	3.954373	0.202701	-0.144977	0.241420	0.761092	0.350630	0.434222	-0.330528
55218	-9.001572	2.430684	3.877485	-0.015663	-0.151148	0.284256	0.761730	0.350832	0.434347	-0.328676
55219	-9.060525	2.493843	3.807910	-0.037537	-0.063418	0.326695	0.762541	0.350892	0.434406	-0.326646
55220	-8.826963	2.715178	3.779545	0.203247	0.022343	0.163814	0.763450	0.350747	0.434515	-0.324525
55221	-8.809266	2.752350	3.851955	0.254274	-0.026660	0.184851	0.764536	0.350016	0.434924	-0.322204
55222	-8.712981	2.582811	3.817372	0.131071	-0.106907	0.042801	0.765788	0.348740	0.435461	-0.319879
55223	-8.583094	2.332412	3.738203	-0.056440	-0.196749	-0.166864	0.766986	0.347240	0.436133	-0.317718
55224	-8.528270	2.323496	3.731004	-0.047132	-0.199784	-0.220593	0.767909	0.346050	0.436771	-0.315907
55225	-8.389657	2.446876	3.807818	0.140410	-0.214783	-0.283407	0.768696	0.345083	0.437330	-0.314271
55226	-8.440634	2.309011	3.780340	-0.003381	-0.260636	-0.283844	0.769276	0.344388	0.437985	-0.312698
55227	-8.745687	2.123330	3.879466	-0.231478	-0.396827	-0.023164	0.769620	0.344007	0.438634	-0.311359
55228	-8.838223	2.117040	3.978327	-0.227971	-0.471998	0.094299	0.769831	0.343743	0.439227	-0.310290
55229	-8.782086	2.255968	4.032954	-0.067408	-0.455607	0.100284	0.769908	0.343631	0.439803	-0.309407
55230	-8.887443	2.347247	3.951012	-0.074831	-0.329389	0.186942	0.769878	0.343693	0.440283	-0.308729
55231	-8.671208	2.399713	3.860020	0.017044	-0.274638	-0.026346	0.769709	0.344064	0.440625	-0.308249
55232	-8.586215	2.276704	3.858919	-0.041834	-0.372871	-0.135037	0.769325	0.344727	0.440966	-0.307979
55233	-8.495644	2.400717	3.726067	0.035580	-0.227750	-0.233031	0.768748	0.345521	0.441347	-0.307985
55234	-8.564897	2.473950	3.710637	0.065670	-0.180176	-0.158160	0.768048	0.346165	0.442032	-0.308027
55235	-8.736620	2.325218	3.839559	-0.048826	-0.356120	0.003021	0.767479	0.346436	0.442867	-0.307941
55236	-8.871038	2.310150	3.848559	-0.097397	-0.363432	0.122196	0.766987	0.346626	0.443702	-0.307749
55237	-8.842110	2.623944	3.840448	0.168597	-0.194840	0.174836	0.766696	0.346701	0.444286	-0.307549
55238	-8.706469	2.971554	3.740201	0.459321	0.052496	0.107398	0.766473	0.346733	0.444906	-0.307170
55239	-8.841164	3.059519	3.690287	0.458245	0.154150	0.232773	0.766202	0.346813	0.445631	-0.306705
55240	-8.898258	2.835504	3.761076	0.302162	-0.030987	0.250736	0.765989	0.346794	0.446292	-0.306298
55241	-8.858197	2.468050	3.781255	0.050783	-0.272890	0.126112	0.765628	0.347007	0.446987	-0.305946
55242	-8.973299	2.428565	3.664801	-0.072513	-0.196421	0.177554	0.765125	0.347485	0.447460	-0.305970
55243	-8.819738	2.609555	3.475754	0.050609	0.022827	0.019673	0.764543	0.348220	0.447570	-0.306426
55244	-8.755597	2.483442	3.549875	0.016609	-0.130043	-0.044761	0.764016	0.349028	0.447533	-0.306877
55245	-8.892442	2.599148	3.631280	0.090220	-0.121284	0.136907	0.763620	0.349750	0.447470	-0.307132
55246	-9.024932	2.856392	3.724760	0.277605	-0.042201	0.356057	0.763525	0.350331	0.447201	-0.307097
55247	-9.025985	2.943258	3.671220	0.311813	0.045004	0.361287	0.763738	0.350525	0.446878	-0.306817
55248	-9.100040	2.892977	3.615769	0.207151	0.072980	0.395426	0.764093	0.350353	0.446754	-0.306308
55249	-8.965718	2.600139	3.591251	0.013708	-0.090920	0.188984	0.764509	0.350116	0.446686	-0.305641
55250	-8.818551	2.523696	3.590612	0.006585	-0.158015	0.036341	0.764630	0.350375	0.446533	-0.305264
55251	-8.637122	2.855203	3.557084	0.318525	0.019825	-0.050360	0.764500	0.351025	0.446407	-0.305029
55252	-8.750938	2.958195	3.533744	0.334030	0.102661	0.071393	0.764528	0.351503	0.446302	-0.304561
55253	-8.769099	2.752693	3.515799	0.148739	-0.004975	0.026678	0.764829	0.351623	0.446340	-0.303608
55254	-8.821115	2.679078	3.490547	0.048170	-0.027133	0.044816	0.765166	0.351733	0.446438	-0.302488
55255	-8.793543	2.720484	3.469628	0.072116	-0.000933	0.024006	0.765547	0.351813	0.446594	-0.301195
55256	-8.750722	2.673531	3.551185	0.081502	-0.112190	0.001311	0.765920	0.351939	0.446867	-0.299692
55257	-8.750511	2.688743	3.673258	0.140445	-0.215601	0.047707	0.766329	0.352035	0.447063	-0.298239
55258	-8.764827	2.673184	3.591536	0.073366	-0.167333	0.027732	0.766799	0.351978	0.447280	-0.296770
55259	-8.868719	2.598186	3.476563	-0.093404	-0.113907	0.059978	0.767143	0.352127	0.447416	-0.295493
55260	-8.890707	2.597997	3.326965	-0.183280	-0.003778	0.027502	0.767188	0.352643	0.447472	-0.294676
55261	-8.825247	2.664850	3.354738	-0.097160	-0.012249	-0.002944	0.767042	0.353278	0.447582	-0.294128
55262	-8.564830	2.784116	3.363124	0.105244	-0.001114	-0.199825	0.766885	0.353884	0.447753	-0.293549
55263	-8.666709	2.984011	3.272001	0.168457	0.181400	-0.083308	0.766663	0.354703	0.448008	-0.292749
55264	-8.763886	3.099439	3.195848	0.177739	0.298043	0.011018	0.766376	0.355369	0.448668	-0.291680
55265	-8.864727	2.948701	3.216800	0.031645	0.183468	0.066144	0.766226	0.355610	0.449650	-0.290266
55266	-8.727784	2.822133	3.383460	0.078254	-0.061985	-0.036366	0.766153	0.355605	0.450734	-0.288779
55267	-8.772948	2.903608	3.490574	0.180493	-0.114590	0.063239	0.766129	0.355443	0.451873	-0.287259
55268	-9.017649	2.764980	3.650488	0.058316	-0.309041	0.296232	0.766186	0.354899	0.453049	-0.285924
55269	-9.154617	2.586461	3.580950	-0.156242	-0.345749	0.344873	0.766364	0.353932	0.454139	-0.284914
55270	-9.253900	2.622403	3.507148	-0.190498	-0.252217	0.420192	0.766375	0.352979	0.455176	-0.284412
55271	-9.157667	2.810193	3.671805	0.094224	-0.278063	0.441871	0.766470	0.351698	0.456251	-0.284018
55272	-9.047693	3.098552	3.573810	0.327826	-0.028888	0.391506	0.766807	0.350362	0.456963	-0.283615
55273	-8.972133	3.113109	3.410331	0.300538	0.118017	0.272782	0.767104	0.349209	0.457476	-0.283409
55274	-8.974213	2.530996	3.550544	-0.061628	-0.323796	0.159281	0.767299	0.348354	0.457819	-0.283378
55275	-8.964982	2.145778	3.583710	-0.325974	-0.568507	0.055888	0.767256	0.348063	0.457767	-0.283937
55276	-8.866513	2.303477	3.620167	-0.144437	-0.504562	0.023532	0.767056	0.348160	0.457221	-0.285234
55277	-8.678193	2.446942	3.650883	0.060149	-0.449712	-0.095609	0.766917	0.347931	0.456570	-0.286925
55278	-8.790607	2.260052	3.698366	-0.100903	-0.556268	-0.027964	0.767075	0.346940	0.455964	-0.288660
55279	-8.956110	2.063770	3.632082	-0.346763	-0.556869	0.047968	0.767543	0.345361	0.455250	-0.290433
55280	-8.795265	2.201049	3.576176	-0.197717	-0.402293	-0.076714	0.768212	0.343427	0.454535	-0.292073
55281	-9.010552	2.157101	3.641746	-0.284518	-0.401443	0.130308	0.768810	0.341796	0.453738	-0.293647
55282	-9.064676	2.406845	3.626476	-0.121652	-0.187478	0.240296	0.769260	0.340454	0.452805	-0.295461
55283	-8.991840	2.504666	3.619431	-0.018496	-0.088446	0.198230	0.769652	0.339186	0.451784	-0.297456
55284	-8.829382	2.372248	3.488106	-0.117844	-0.041485	-0.028175	0.769878	0.338396	0.450415	-0.299837
55285	-8.869286	2.341255	3.402040	-0.203462	0.055704	-0.031330	0.769789	0.338246	0.448705	-0.302785
55286	-8.805040	2.424377	3.410781	-0.110878	0.121468	-0.065245	0.769293	0.338628	0.447045	-0.306056
55287	-8.838158	2.480473	3.477920	-0.047853	0.131342	0.002716	0.768508	0.339404	0.445561	-0.309314
55288	-8.810112	2.528211	3.609092	0.064742	0.065945	0.037537	0.767666	0.340363	0.444233	-0.312247
55289	-8.680732	2.610887	3.701637	0.225574	0.026126	-0.023796	0.766932	0.341371	0.443023	-0.314662
55290	-8.777496	2.739459	3.660168	0.264050	0.155386	0.079332	0.766269	0.342563	0.441592	-0.316985
55291	-8.853538	2.772013	3.832563	0.330405	0.052942	0.219548	0.765574	0.343782	0.440118	-0.319384
55292	-8.977343	2.687857	3.966427	0.266083	-0.072574	0.359516	0.764938	0.344821	0.438649	-0.321800
55293	-9.100255	2.705915	3.837054	0.165871	0.078770	0.425762	0.764489	0.345472	0.437149	-0.324203
55294	-9.005347	2.684961	3.760877	0.149134	0.132456	0.307078	0.764247	0.345595	0.435751	-0.326515
55295	-8.782263	2.644056	3.638789	0.149698	0.192287	0.051415	0.764205	0.345443	0.434479	-0.328462
55296	-8.611543	2.815468	3.545370	0.311906	0.350074	-0.094904	0.764143	0.345492	0.433303	-0.330104
55297	-8.547748	3.016328	3.631936	0.530591	0.390170	-0.070028	0.764111	0.345724	0.432239	-0.331329
55298	-8.515932	2.989905	3.681366	0.533509	0.340472	-0.085791	0.764258	0.345913	0.431187	-0.332164
55299	-8.623267	2.827051	3.987079	0.476144	0.034165	0.087912	0.764453	0.346118	0.430317	-0.332627
55300	-8.992609	2.503157	4.216529	0.148756	-0.242686	0.426009	0.764708	0.346192	0.429613	-0.332875
55301	-9.096659	2.385840	4.153604	-0.028538	-0.221636	0.465635	0.765099	0.346090	0.428735	-0.333215
55302	-8.913231	2.501195	3.985627	0.053411	-0.045159	0.266100	0.765572	0.345918	0.427586	-0.333781
55303	-8.719287	2.499669	3.836048	0.052215	0.053456	0.035356	0.766018	0.345787	0.426418	-0.334387
55304	-8.658134	2.461764	3.696287	-0.028315	0.153385	-0.083262	0.766509	0.345590	0.425180	-0.335041
55305	-8.571811	2.414780	3.643203	-0.069812	0.172238	-0.192633	0.767009	0.345437	0.423931	-0.335638
55306	-8.930302	2.240997	3.757700	-0.330154	0.082142	0.125968	0.767466	0.345483	0.422639	-0.336175
55307	-8.947208	2.215147	3.873361	-0.331961	-0.006920	0.179912	0.767931	0.345661	0.421220	-0.336709
55308	-8.711216	2.466674	3.899662	-0.041451	0.067521	0.044838	0.768475	0.345686	0.419872	-0.337126
55309	-8.558894	2.558456	3.856897	0.058322	0.133348	-0.083618	0.769116	0.345455	0.418699	-0.337362
55310	-8.584716	2.528743	3.938386	0.038175	0.074482	-0.035381	0.769731	0.345139	0.417633	-0.337604
55311	-8.733130	2.362536	4.099461	-0.109986	-0.091701	0.118785	0.770273	0.344755	0.416551	-0.338095
55312	-8.682302	2.363040	4.104565	-0.100208	-0.085567	0.076517	0.770673	0.344444	0.415379	-0.338942
55313	-8.660413	2.603399	4.058906	0.073814	0.096659	0.098938	0.770876	0.344208	0.414136	-0.340239
55314	-8.659634	2.646080	4.103251	0.118297	0.108927	0.127219	0.771013	0.343822	0.412863	-0.341862
55315	-8.556616	2.642038	4.053751	0.132832	0.154321	0.015200	0.771180	0.343232	0.411414	-0.343821
55316	-8.404920	2.564122	3.979343	0.100051	0.171488	-0.168359	0.771227	0.342680	0.410056	-0.345881
55317	-8.294734	2.395582	3.983974	0.008403	0.083718	-0.304463	0.771171	0.342296	0.408780	-0.347891
55318	-8.362625	2.293535	4.093307	-0.064258	-0.014893	-0.223915	0.770973	0.342232	0.407545	-0.349835
55319	-8.427205	2.333787	4.250483	-0.002415	-0.085318	-0.090361	0.770692	0.342447	0.406334	-0.351649
55320	-8.368734	2.562779	4.360211	0.249200	-0.055984	-0.037733	0.770415	0.342472	0.405431	-0.353270
55321	-8.513927	2.485134	4.626257	0.228550	-0.258863	0.184603	0.770284	0.341978	0.405213	-0.354282
55322	-8.791658	2.080570	4.760539	-0.160951	-0.484111	0.386550	0.770347	0.341079	0.405347	-0.354858
55323	-8.856389	1.940749	4.656717	-0.331337	-0.434447	0.365160	0.770399	0.340215	0.405377	-0.355539
55324	-8.542607	2.128610	4.511381	-0.090705	-0.285977	0.075166	0.770278	0.339651	0.405194	-0.356548
55325	-8.276234	2.391856	4.376273	0.195383	-0.098159	-0.152410	0.769991	0.339307	0.404972	-0.357747
55326	-8.280143	2.379876	4.319984	0.172222	-0.044821	-0.176549	0.769625	0.339055	0.404845	-0.358914
55327	-8.378410	2.307577	4.286764	0.069512	-0.017775	-0.122804	0.769159	0.338971	0.404733	-0.360116
55328	-8.319740	2.431742	4.294471	0.209904	0.029495	-0.141649	0.768651	0.338997	0.404636	-0.361284
55329	-8.233798	2.411302	4.333649	0.254528	-0.032284	-0.204125	0.768157	0.338904	0.404844	-0.362188
55330	-8.411734	2.316549	4.268132	0.093578	0.025861	-0.100264	0.767707	0.338665	0.405350	-0.362800
55331	-8.694433	2.153098	4.269759	-0.141381	0.024120	0.108968	0.767345	0.338397	0.405745	-0.363373
55332	-8.625938	2.045845	4.398130	-0.141430	-0.150140	0.081416	0.766918	0.338267	0.405956	-0.364161
55333	-8.652071	2.083009	4.548997	-0.050775	-0.245386	0.178700	0.766299	0.338316	0.406261	-0.365075
55334	-9.046409	2.217801	4.589361	-0.064551	-0.098990	0.570202	0.765705	0.338198	0.406721	-0.365919
55335	-9.250444	2.218572	4.514127	-0.155020	0.024385	0.715629	0.765271	0.337874	0.407104	-0.366699
55336	-9.097026	2.068399	4.463558	-0.223152	-0.045024	0.526832	0.764938	0.337570	0.407226	-0.367537
55337	-8.901605	2.083188	4.325189	-0.175811	0.026063	0.299380	0.764432	0.337892	0.406942	-0.368606
55338	-8.653846	2.447616	4.202173	0.185368	0.237369	0.109381	0.763720	0.338743	0.406235	-0.370079
55339	-8.477305	2.530509	4.138666	0.300274	0.276394	-0.054092	0.763006	0.339742	0.405525	-0.371412
55340	-8.506878	2.341611	4.160523	0.132613	0.168001	-0.060034	0.762290	0.340978	0.404724	-0.372620
55341	-8.582528	2.316138	4.173501	0.079128	0.156687	0.006251	0.761480	0.342410	0.403934	-0.373819
55342	-8.497494	2.450010	4.235711	0.241683	0.132468	-0.010890	0.760690	0.343764	0.403287	-0.374882
55343	-8.509333	2.452857	4.329348	0.268445	0.046451	0.040955	0.760077	0.344772	0.403013	-0.375494
55344	-8.764174	2.311566	4.398126	0.069858	-0.015290	0.261660	0.759772	0.345395	0.402921	-0.375639
55345	-8.998088	2.091771	4.343939	-0.230752	-0.014462	0.393068	0.759670	0.345739	0.402830	-0.375624
55346	-9.111435	1.983995	4.340705	-0.371523	-0.034418	0.466271	0.759589	0.346032	0.402684	-0.375675
55347	-9.026424	2.102385	4.315302	-0.249222	0.015198	0.407676	0.759485	0.346293	0.402543	-0.375795
55348	-8.869725	2.241888	4.329095	-0.066805	0.022408	0.308290	0.759388	0.346539	0.402346	-0.375976
55349	-8.554022	2.598098	4.247118	0.327747	0.167215	0.077916	0.759396	0.346753	0.401966	-0.376169
55350	-8.353732	2.743146	4.170040	0.497271	0.243634	-0.097118	0.759589	0.346746	0.401698	-0.376072
55351	-8.263873	2.525526	4.081296	0.311200	0.192162	-0.263180	0.759920	0.346499	0.401601	-0.375735
55352	-8.168782	2.186493	4.191870	0.093141	-0.087475	-0.375251	0.760120	0.346609	0.401580	-0.375252
55353	-8.199788	1.966060	4.288520	-0.079711	-0.271963	-0.356844	0.760109	0.347229	0.401613	-0.374665
55354	-8.413455	1.945436	4.363771	-0.164160	-0.301277	-0.143371	0.759858	0.348349	0.401671	-0.374071
55355	-8.816565	1.989429	4.432936	-0.272372	-0.246640	0.247407	0.759580	0.349531	0.401673	-0.373530
55356	-8.943737	2.183988	4.494418	-0.146269	-0.190631	0.429493	0.759469	0.350341	0.401612	-0.373063
55357	-8.826358	2.352161	4.432821	0.014094	-0.103281	0.339962	0.759750	0.350360	0.401644	-0.372438
55358	-8.628120	2.267134	4.327047	-0.019440	-0.112235	0.101681	0.760275	0.349846	0.402004	-0.371460
55359	-8.791174	2.198966	4.192325	-0.189700	0.012041	0.170280	0.760691	0.349432	0.402553	-0.370401
55360	-8.776680	2.199052	4.038244	-0.238245	0.131459	0.091822	0.760929	0.349336	0.402911	-0.369614
55361	-8.785232	2.179185	4.072385	-0.248149	0.087519	0.109219	0.760922	0.349618	0.403158	-0.369092
55362	-8.674181	2.284712	4.107866	-0.103487	0.065318	0.052448	0.760619	0.350281	0.403292	-0.368940
55363	-8.492432	2.414749	4.042797	0.055606	0.117473	-0.102914	0.760248	0.350982	0.403415	-0.368904
55364	-8.385164	2.324960	4.052141	0.025868	0.022362	-0.213986	0.759861	0.351696	0.403660	-0.368753
55365	-8.456387	2.136355	4.132944	-0.132809	-0.132637	-0.162793	0.759430	0.352451	0.404031	-0.368515
55366	-8.558409	2.133077	4.269707	-0.126281	-0.240604	-0.017133	0.759017	0.353193	0.404546	-0.368090
55367	-8.737592	2.095862	4.423734	-0.172682	-0.360199	0.194709	0.758747	0.353770	0.405212	-0.367360
55368	-9.005069	2.141297	4.498479	-0.212059	-0.349830	0.470569	0.758634	0.354138	0.405865	-0.366516
55369	-9.055069	2.307681	4.412437	-0.120642	-0.199543	0.518570	0.758767	0.354190	0.406279	-0.365731
55370	-8.901949	2.433922	4.345632	0.023819	-0.130470	0.387097	0.758974	0.354009	0.406625	-0.365092
55371	-8.666227	2.289733	4.368079	0.005409	-0.285276	0.154512	0.759089	0.353984	0.406983	-0.364477
55372	-8.800438	2.190934	4.368234	-0.133744	-0.306879	0.247993	0.759008	0.354482	0.407078	-0.364057
55373	-8.897318	2.263602	4.258544	-0.158511	-0.168085	0.305018	0.758742	0.355496	0.406670	-0.364079
55374	-8.723689	2.432256	4.122220	-0.008404	-0.032133	0.137698	0.758332	0.356850	0.405830	-0.364544
55375	-8.589525	2.567849	4.000261	0.101627	0.086237	0.003528	0.757850	0.358279	0.404923	-0.365153
55376	-8.537559	2.655850	3.893996	0.144383	0.191688	-0.063378	0.757493	0.359547	0.403972	-0.365701
55377	-8.406748	2.689358	3.840366	0.191080	0.209673	-0.191151	0.757309	0.360588	0.403036	-0.366090
55378	-8.487473	2.669374	3.885453	0.140997	0.176115	-0.106577	0.757272	0.361399	0.402337	-0.366136
55379	-8.549256	2.663427	3.833256	0.078291	0.230555	-0.075225	0.757561	0.361658	0.401739	-0.365939
55380	-8.429517	2.748773	3.776036	0.166753	0.291705	-0.181589	0.758097	0.361429	0.401268	-0.365570
55381	-8.243198	2.631836	3.893800	0.173791	0.098599	-0.325927	0.758851	0.360747	0.401068	-0.364900
55382	-8.321719	2.424522	4.027604	0.003946	-0.080137	-0.255258	0.759640	0.360013	0.401007	-0.364048
55383	-8.653865	2.338091	4.199702	-0.153977	-0.170180	0.083821	0.760426	0.359304	0.401064	-0.363044
55384	-8.996961	2.227241	4.288428	-0.364435	-0.198940	0.391436	0.761196	0.358472	0.401128	-0.362181
55385	-9.049697	2.314855	4.261681	-0.325493	-0.106627	0.448899	0.762063	0.357256	0.401169	-0.361513
55386	-8.911634	2.480894	4.308621	-0.111738	-0.081053	0.391095	0.763004	0.355651	0.401396	-0.360858
55387	-8.802350	2.558644	4.338740	0.014749	-0.073280	0.328666	0.763969	0.353860	0.401916	-0.359998
55388	-8.761189	2.468458	4.235331	-0.073233	-0.017755	0.226437	0.764971	0.352012	0.402453	-0.359081
55389	-8.613260	2.452719	4.157449	-0.046426	0.023068	0.060799	0.765837	0.350408	0.402849	-0.358358
55390	-8.406422	2.519801	4.106827	0.082364	0.064228	-0.123910	0.766530	0.349060	0.403080	-0.357932
55391	-8.238424	2.614574	3.983818	0.189383	0.186166	-0.299124	0.767027	0.348135	0.403116	-0.357727
55392	-8.324404	2.453638	4.267847	0.124414	-0.096359	-0.142848	0.767196	0.347869	0.403174	-0.357558
55393	-8.573549	2.067156	4.632247	-0.168256	-0.526156	0.133741	0.767124	0.348200	0.403293	-0.357256
55394	-8.851224	2.103392	4.681736	-0.240927	-0.486282	0.404579	0.766948	0.348929	0.403139	-0.357096
55395	-8.857099	2.403893	4.694985	0.003217	-0.357783	0.489824	0.766779	0.349615	0.402859	-0.357104
55396	-8.760809	2.461658	4.635283	0.064437	-0.310860	0.394986	0.766799	0.349717	0.402792	-0.357038
55397	-8.571104	2.395588	4.331652	-0.020520	-0.139945	0.084072	0.766968	0.349226	0.403009	-0.356910
55398	-8.475664	2.338475	4.095804	-0.109556	0.008744	-0.113777	0.767240	0.348563	0.403263	-0.356686
55399	-8.386715	2.269091	4.148376	-0.106511	-0.087631	-0.185862	0.767396	0.348205	0.403539	-0.356390
55400	-8.343921	2.309888	4.210654	-0.029222	-0.132555	-0.186277	0.767384	0.348287	0.403883	-0.355946
55401	-8.369131	2.626225	4.282519	0.251184	-0.037157	-0.054876	0.767223	0.348617	0.404311	-0.355482
55402	-8.307202	2.826840	4.349775	0.471825	-0.019749	-0.030144	0.767120	0.348728	0.404857	-0.354974
55403	-8.383055	2.663861	4.374771	0.320028	-0.109340	0.005460	0.767135	0.348530	0.405434	-0.354477
55404	-8.622525	2.215747	4.374918	-0.144630	-0.274236	0.102011	0.767187	0.348189	0.405869	-0.354202
55405	-8.719430	2.021867	4.364042	-0.343807	-0.336062	0.133675	0.767088	0.348034	0.405986	-0.354434
55406	-8.576585	2.325966	4.327934	-0.038927	-0.187418	0.069736	0.766775	0.347979	0.406053	-0.355088
55407	-8.444682	2.643777	4.366742	0.303920	-0.092165	0.049856	0.766381	0.347924	0.406303	-0.355706
55408	-8.344599	2.691959	4.435335	0.423173	-0.149720	0.003099	0.766097	0.347688	0.406744	-0.356044
55409	-8.480880	2.533848	4.462549	0.258190	-0.214532	0.094248	0.765939	0.347325	0.407281	-0.356124
55410	-8.801500	2.260002	4.461002	-0.090754	-0.265786	0.306387	0.765797	0.347047	0.407703	-0.356219
55411	-8.752533	2.207301	4.344597	-0.148912	-0.207500	0.201767	0.765552	0.346997	0.407846	-0.356629
55412	-8.674792	2.377635	4.298778	0.014220	-0.104455	0.155940	0.765101	0.347267	0.407821	-0.357362
55413	-8.610068	2.554899	4.249425	0.177226	0.007762	0.121441	0.764622	0.347440	0.407799	-0.358244
55414	-8.540123	2.583813	4.105237	0.186392	0.125277	0.006290	0.764216	0.347368	0.407946	-0.359013
55415	-8.609648	2.447553	4.064745	0.040038	0.112169	0.017090	0.763838	0.347332	0.408091	-0.359686
55416	-8.709845	2.366124	4.067288	-0.057434	0.097338	0.086302	0.763470	0.347317	0.408331	-0.360208
55417	-8.607847	2.463699	4.095877	0.085668	0.094846	0.032347	0.763162	0.347316	0.408565	-0.360597
55418	-8.433841	2.607776	4.074798	0.278195	0.135227	-0.094742	0.762833	0.347331	0.408992	-0.360795
55419	-8.435762	2.587504	4.158685	0.302403	0.051203	-0.062927	0.762506	0.347330	0.409586	-0.360814
55420	-8.491198	2.387046	4.307391	0.179027	-0.163723	0.000221	0.762192	0.347362	0.410252	-0.360689
55421	-8.593276	2.206812	4.472487	0.058991	-0.373131	0.115798	0.761862	0.347574	0.410912	-0.360431
55422	-8.870290	2.286137	4.474380	0.024169	-0.276406	0.378070	0.761503	0.347864	0.411558	-0.360171
55423	-8.931989	2.350706	4.342419	0.011057	-0.132142	0.392471	0.761231	0.348225	0.411952	-0.359949
55424	-8.777641	2.263579	4.305982	-0.010886	-0.199800	0.220866	0.760846	0.348920	0.412293	-0.359699
55425	-8.752462	2.366720	4.310801	0.090039	-0.180525	0.224703	0.760274	0.349851	0.412805	-0.359416
55426	-8.627792	2.575977	4.298958	0.315045	-0.122773	0.159329	0.759805	0.350585	0.413424	-0.358981
55427	-8.647706	2.418342	4.221612	0.150925	-0.151953	0.107358	0.759537	0.351074	0.414119	-0.358267
55428	-8.510143	2.229477	4.210711	0.047116	-0.289288	-0.063983	0.759377	0.351495	0.414756	-0.357458
55429	-8.413102	2.216043	4.147240	0.052545	-0.287267	-0.179131	0.759148	0.352136	0.415368	-0.356601
55430	-8.169532	2.407990	4.174033	0.321439	-0.300051	-0.338048	0.758695	0.353131	0.416066	-0.355767
55431	-8.082068	2.625498	4.425727	0.635533	-0.457723	-0.263521	0.757986	0.354501	0.416988	-0.354835
55432	-8.080254	2.779170	4.571896	0.826266	-0.544052	-0.172269	0.757242	0.355723	0.418288	-0.353669
55433	-8.231089	2.716915	4.601736	0.737029	-0.605471	-0.045474	0.756519	0.356772	0.419923	-0.352218
55434	-8.331093	2.508648	4.564450	0.524714	-0.697909	-0.026369	0.755607	0.357953	0.421683	-0.350872
55435	-8.392789	2.455558	4.400031	0.411570	-0.620740	-0.051849	0.754352	0.359462	0.423484	-0.349858
55436	-8.275491	2.496434	4.231346	0.450199	-0.537970	-0.214364	0.752682	0.361227	0.425471	-0.349227
55437	-8.022459	2.584101	4.054902	0.584324	-0.457064	-0.489118	0.750673	0.363082	0.427709	-0.348894
55438	-7.636975	2.661098	4.055563	0.834208	-0.559079	-0.821384	0.748432	0.364946	0.430263	-0.348622
55439	-7.627724	2.735123	4.004809	0.918984	-0.539462	-0.836853	0.746194	0.366655	0.432868	-0.348401
55440	-7.608405	2.886094	4.064134	1.115638	-0.577749	-0.804042	0.743893	0.368436	0.435424	-0.348259
55441	-7.949870	2.919439	4.550904	1.243791	-0.968566	-0.328557	0.741811	0.369955	0.438005	-0.347853
55442	-8.391883	3.072889	4.872868	1.370429	-1.135733	0.209437	0.740416	0.370780	0.440035	-0.347385
55443	-8.318023	3.455813	4.720854	1.696192	-0.864251	0.177031	0.739329	0.370758	0.441703	-0.347606
55444	-8.067933	2.884389	4.522275	1.265271	-1.023502	-0.262105	0.738471	0.370115	0.443358	-0.348009
55445	-8.103514	1.925991	4.267254	0.380355	-1.256950	-0.546560	0.737128	0.369756	0.444373	-0.349937
55446	-7.984898	1.814714	4.207508	0.340343	-1.275513	-0.701593	0.734877	0.370303	0.444516	-0.353888
55447	-7.867026	2.557451	4.173094	1.033159	-0.918892	-0.651165	0.731819	0.371943	0.443809	-0.359350
55448	-7.599640	3.358729	4.055166	1.798424	-0.509486	-0.758078	0.728838	0.373698	0.442637	-0.364991
55449	-7.100244	3.538191	4.025830	2.135202	-0.511197	-1.191833	0.726749	0.374787	0.441201	-0.369745
55450	-6.686108	2.875204	3.969105	1.682476	-0.839207	-1.738677	0.725372	0.375973	0.439167	-0.373648
55451	-6.425037	2.339946	3.909473	1.263377	-1.076885	-2.113041	0.723817	0.378655	0.436077	-0.377552
55452	-6.397929	2.268346	3.617298	1.072076	-0.870166	-2.245853	0.722112	0.382693	0.431996	-0.381419
55453	-7.590878	1.928495	3.111644	0.152866	-0.318922	-1.392625	0.720785	0.387291	0.427212	-0.384661
55454	-10.095647	1.416314	2.888784	-1.297290	0.224299	0.701069	0.720252	0.392059	0.421625	-0.386987
55455	-12.583253	1.205773	2.655507	-2.523774	0.920064	2.821649	0.720430	0.396603	0.415708	-0.388424
55456	-14.857271	1.907678	2.289300	-2.920945	2.042900	4.915257	0.720409	0.400201	0.411419	-0.389339
55457	-16.514883	3.268619	1.958756	-2.463988	3.219956	6.643997	0.720397	0.401550	0.410299	-0.389154
55458	-16.064786	4.263515	2.081076	-1.393475	3.351739	6.539980	0.721073	0.399982	0.412901	-0.386758
55459	-14.803865	4.254532	2.347320	-0.842108	2.779684	5.495122	0.722602	0.396105	0.419399	-0.380858
55460	-13.519228	3.573300	2.204442	-0.982910	2.275745	4.124711	0.724583	0.391626	0.428337	-0.371666
55461	-12.198533	2.624322	1.992285	-1.371983	1.657898	2.638270	0.725902	0.388621	0.438473	-0.360251
55462	-11.080741	1.647128	2.092887	-1.743908	0.732868	1.425317	0.725978	0.387942	0.448707	-0.348021
55463	-9.632756	1.207752	2.228160	-1.507695	-0.041569	0.032810	0.724792	0.389178	0.458346	-0.336356
55464	-7.922843	1.210463	2.264818	-0.840051	-0.502148	-1.541959	0.722784	0.391790	0.467137	-0.325372
55465	-6.668510	1.285762	2.317799	-0.273583	-0.814294	-2.688484	0.720277	0.395205	0.474961	-0.315320
55466	-5.654954	1.185386	2.026610	-0.096259	-0.822533	-3.746079	0.718117	0.398161	0.481742	-0.306106
55467	-4.689845	1.002195	1.488634	-0.132913	-0.595533	-4.828497	0.716867	0.400622	0.487056	-0.297288
55468	-4.291883	1.029847	0.915175	-0.233975	-0.170420	-5.314436	0.716663	0.402759	0.490491	-0.289132
55469	-4.436346	1.662884	0.712784	0.115032	0.269510	-5.030610	0.717382	0.404907	0.491988	-0.281710
55470	-4.510433	2.871564	0.727301	1.024659	0.833056	-4.580615	0.719660	0.406322	0.491693	-0.274281
55471	-3.820984	4.034215	1.108480	2.314888	1.101647	-4.759917	0.724086	0.406260	0.489978	-0.265656
55472	-4.651289	5.001465	1.721938	2.960529	1.097389	-3.516362	0.729816	0.404823	0.488150	-0.255336
55473	-7.674262	5.788053	3.073066	2.917049	0.354001	-0.158563	0.736779	0.401393	0.486870	-0.242896
55474	-11.818849	5.711414	4.769414	1.874524	-1.171032	3.977302	0.744677	0.395409	0.486218	-0.229564
55475	-14.508076	5.350704	6.108022	1.047665	-2.490368	6.592200	0.752073	0.387307	0.487191	-0.216849
55476	-13.941590	4.943082	6.301501	1.055825	-2.734583	5.996065	0.757610	0.378012	0.490524	-0.206202
55477	-12.299840	4.171306	5.926711	1.074888	-2.723481	4.160058	0.759672	0.370844	0.495750	-0.199010
55478	-11.342592	4.028723	5.474985	1.238747	-2.381878	3.135322	0.757770	0.368831	0.501021	-0.196791
55479	-10.493824	5.039094	4.821376	2.011794	-1.230969	2.564440	0.753018	0.371494	0.505414	-0.198778
55480	-9.572104	6.024602	4.610455	3.070468	-0.475387	1.999188	0.747534	0.375269	0.509478	-0.201983
55481	-8.831637	5.598085	4.507034	3.146574	-0.707257	1.107309	0.742687	0.377577	0.513983	-0.204138
55482	-8.066130	4.204822	4.073908	2.336387	-1.241711	-0.203434	0.738811	0.377719	0.519083	-0.205038
55483	-7.217768	2.757954	3.550408	1.439197	-1.690970	-1.604392	0.735376	0.376364	0.524659	-0.205682
55484	-6.539098	1.678347	3.503816	1.006951	-2.274955	-2.624983	0.731979	0.374469	0.530116	-0.207261
55485	-5.748228	1.122584	3.631113	1.064385	-2.642190	-3.537928	0.728566	0.372658	0.534789	-0.210518
55486	-4.914355	1.040107	3.655005	1.375250	-2.622969	-4.351906	0.725165	0.371096	0.538589	-0.215279
55487	-4.207154	0.957894	3.771827	1.672944	-2.690289	-5.036937	0.721762	0.369823	0.541726	-0.220961
55488	-4.719049	0.604564	3.759920	1.290643	-2.933256	-4.664673	0.718398	0.369120	0.543888	-0.227684
55489	-6.176761	0.340746	3.547667	0.558328	-3.019485	-3.376444	0.715306	0.369156	0.544453	-0.235864
55490	-7.789297	0.193784	3.091615	-0.277018	-2.806016	-1.918523	0.712437	0.369945	0.543202	-0.245980
55491	-10.311026	0.091395	2.507911	-1.405941	-2.437810	0.419328	0.709503	0.371847	0.540193	-0.257926
55492	-14.517183	-0.220051	1.963854	-3.129326	-2.161028	4.336041	0.706679	0.374676	0.535515	-0.271008
55493	-17.454209	-0.089935	0.489051	-4.629650	-0.641707	7.011123	0.703580	0.378331	0.529057	-0.286251
55494	-16.655894	1.373022	-0.838912	-3.818110	1.611562	6.399072	0.698196	0.383387	0.522632	-0.303962
55495	-15.274899	2.363523	-1.085561	-2.534534	2.584982	5.252884	0.690970	0.389326	0.516965	-0.322077
55496	-14.367191	2.503631	-1.617742	-2.171985	3.298339	4.318696	0.683519	0.395751	0.510505	-0.339953
55497	-13.645543	2.398771	-2.168092	-2.071655	3.896557	3.497942	0.676406	0.402565	0.502791	-0.357237
55498	-12.778918	2.092126	-1.830868	-1.793272	3.583641	2.635838	0.669900	0.408991	0.494302	-0.373664
55499	-11.845334	1.924968	-0.917294	-1.246871	2.764014	1.834660	0.664542	0.413738	0.485984	-0.388618
55500	-11.194009	1.480302	-0.024570	-1.120703	1.868474	1.266477	0.660918	0.416205	0.478497	-0.401249
55501	-10.623697	0.593934	0.523740	-1.602499	1.158779	0.655202	0.659169	0.416491	0.471969	-0.411434
55502	-9.930765	-0.509363	0.596889	-2.440283	0.818672	-0.189374	0.658563	0.415710	0.465861	-0.420063
55503	-9.122440	-1.203425	0.210874	-3.008177	1.013546	-1.173654	0.657925	0.415250	0.459400	-0.428548
55504	-8.428624	-1.231762	-0.125981	-2.955679	1.361597	-1.939781	0.656352	0.416027	0.452036	-0.437935
55505	-8.050711	-0.818836	-0.008413	-2.436739	1.440802	-2.231857	0.653842	0.417858	0.443844	-0.448206
55506	-7.872309	-0.228509	0.215750	-1.765443	1.477525	-2.278066	0.651076	0.419705	0.435343	-0.458720
55507	-7.938723	0.179104	0.311941	-1.342428	1.624710	-2.150480	0.648637	0.420918	0.426992	-0.468803
55508	-8.263120	0.316739	0.399006	-1.231086	1.781136	-1.822126	0.646765	0.421221	0.419031	-0.478206
55509	-8.417525	0.396424	0.519646	-1.138357	1.857278	-1.655795	0.645481	0.420587	0.411521	-0.486941
55510	-8.595733	0.407841	0.544169	-1.127875	2.022573	-1.506997	0.644753	0.419064	0.404790	-0.494796
55511	-9.183128	0.311856	0.441947	-1.306497	2.414386	-1.032910	0.644508	0.416887	0.399056	-0.501566
55512	-9.896689	0.070880	0.427749	-1.634712	2.752256	-0.438070	0.644615	0.414194	0.394197	-0.507468
55513	-10.203428	-0.025310	0.348292	-1.748829	3.048387	-0.227326	0.644773	0.411271	0.390041	-0.512828
55514	-10.145946	0.173587	0.278494	-1.505472	3.242896	-0.311962	0.644786	0.408488	0.386587	-0.517628
55515	-9.626421	0.688125	0.273962	-0.870501	3.229361	-0.755688	0.644589	0.406064	0.384012	-0.521682
55516	-9.036209	1.282664	0.511088	-0.136048	2.937752	-1.157615	0.644351	0.404071	0.382776	-0.524424
55517	-8.991103	1.486156	1.108064	0.139719	2.430408	-0.961140	0.644350	0.402483	0.383011	-0.525473
55518	-8.934825	1.399214	1.726421	0.125785	1.840738	-0.792418	0.644653	0.401070	0.384584	-0.525034
55519	-8.520099	1.265305	2.283722	0.112023	1.147895	-0.976501	0.645215	0.400268	0.387084	-0.523115
55520	-8.111729	1.337771	2.886238	0.295150	0.424206	-1.114816	0.646139	0.400386	0.389461	-0.520111
55521	-7.972897	1.530855	3.709201	0.567982	-0.407161	-0.914368	0.646707	0.401638	0.392243	-0.516335
55522	-8.181121	1.609790	4.587879	0.681826	-1.206659	-0.397309	0.646707	0.403770	0.395202	-0.512402
55523	-8.784664	1.216012	5.220739	0.256227	-1.732570	0.328165	0.646285	0.405696	0.398728	-0.508668
55524	-9.565233	0.837979	5.328275	-0.214775	-1.727538	1.029589	0.645631	0.407076	0.402732	-0.505229
55525	-10.321159	0.655947	4.926275	-0.531245	-1.225895	1.564445	0.644531	0.408071	0.405774	-0.503394
55526	-9.865171	0.761553	4.734331	-0.341181	-1.239255	1.080565	0.642719	0.408950	0.407972	-0.503222
55527	-9.441380	0.941381	4.694337	-0.063002	-1.358406	0.685552	0.640529	0.409784	0.410259	-0.503476
55528	-9.259621	1.585067	4.521626	0.620603	-1.207366	0.524373	0.638325	0.410607	0.412728	-0.503586
55529	-9.059156	2.434653	4.470236	1.520464	-1.147939	0.402442	0.636252	0.411541	0.415214	-0.503403
55530	-8.958451	2.767915	4.523064	1.906552	-1.237899	0.346323	0.634087	0.412624	0.417825	-0.503088
55531	-8.946672	2.699343	4.279306	1.857027	-1.085014	0.237958	0.631562	0.413572	0.420825	-0.502984
55532	-9.075738	2.248049	3.743662	1.389442	-0.672631	0.139905	0.628698	0.414320	0.424133	-0.503179
55533	-9.068689	1.913978	3.297616	1.072516	-0.366477	-0.040617	0.625292	0.415327	0.427332	-0.503887
55534	-8.490382	1.954607	3.259131	1.241818	-0.551566	-0.610408	0.621629	0.416625	0.430638	-0.504530
55535	-8.072103	1.921207	3.400137	1.331653	-0.874882	-0.988214	0.618337	0.417713	0.434606	-0.504275
55536	-8.359636	1.806827	3.733728	1.277282	-1.211432	-0.648131	0.615699	0.418684	0.438767	-0.503092
55537	-8.773114	1.497036	3.809522	0.984085	-1.298097	-0.269785	0.613828	0.419318	0.442693	-0.501409
55538	-9.258065	1.025915	3.645696	0.496049	-1.159581	0.110219	0.612454	0.419429	0.446721	-0.499419
55539	-9.764077	0.363712	3.374540	-0.190676	-0.940954	0.479769	0.611283	0.418962	0.450705	-0.497663
55540	-10.029131	0.058939	3.250608	-0.478850	-0.865164	0.683744	0.609947	0.418555	0.454150	-0.496511
55541	-9.869200	0.347834	3.177347	-0.138490	-0.834821	0.526616	0.608516	0.418339	0.456799	-0.496020
55542	-9.413322	0.664447	3.101627	0.245878	-0.848423	0.081339	0.607430	0.418046	0.458898	-0.495660
55543	-9.157278	0.655686	2.846544	0.256433	-0.683312	-0.228550	0.606759	0.417613	0.460619	-0.495251
55544	-9.206151	0.512635	2.677058	0.112471	-0.547110	-0.227772	0.606309	0.417125	0.461860	-0.495058
55545	-9.593877	0.437666	2.685760	0.028474	-0.492089	0.147450	0.606210	0.416381	0.462820	-0.494908
55546	-9.900404	0.408870	2.793131	0.007515	-0.531545	0.468565	0.606559	0.415338	0.463349	-0.494862
55547	-10.033468	0.374277	2.964631	-0.001392	-0.660676	0.635426	0.607433	0.414095	0.463663	-0.494538
55548	-10.307498	-0.004378	3.086814	-0.373601	-0.764047	0.913430	0.608573	0.412822	0.463894	-0.493983
55549	-10.392015	-0.249739	2.879866	-0.653400	-0.566906	0.939132	0.609507	0.411842	0.463567	-0.493957
55550	-10.238437	-0.443615	2.652567	-0.873190	-0.386111	0.729934	0.609987	0.411507	0.462238	-0.494887
55551	-9.988993	-0.357971	2.594387	-0.790703	-0.335506	0.478137	0.609819	0.411955	0.459986	-0.496818
55552	-9.772779	0.197321	2.484903	-0.259698	-0.151341	0.268503	0.609334	0.412861	0.457165	-0.499258
55553	-9.699695	0.567319	2.337432	0.070161	0.069717	0.180290	0.609236	0.413493	0.454314	-0.501452
55554	-9.640857	0.448461	2.308016	-0.070325	0.108390	0.109877	0.609838	0.413661	0.451618	-0.503014
55555	-9.726462	0.232145	2.312738	-0.318746	0.136999	0.181617	0.610992	0.413445	0.449234	-0.503925
55556	-9.669695	0.120838	2.222246	-0.465122	0.239232	0.096004	0.612445	0.412989	0.446998	-0.504524
55557	-9.548984	-0.000373	2.161525	-0.611344	0.294235	-0.045664	0.613969	0.412450	0.444951	-0.504922
55558	-9.517794	-0.114845	2.217282	-0.742897	0.256721	-0.071027	0.615318	0.412041	0.443047	-0.505288
55559	-9.488817	-0.159261	2.330051	-0.795560	0.170866	-0.074623	0.616446	0.411704	0.441332	-0.505688
55560	-9.491104	-0.021517	2.354129	-0.679520	0.200015	-0.059658	0.617454	0.411430	0.439796	-0.506019
55561	-9.446458	0.063061	2.427353	-0.604010	0.156293	-0.079124	0.618346	0.411334	0.438537	-0.506101
55562	-9.699568	0.022973	2.636864	-0.664220	0.033275	0.216912	0.619303	0.411172	0.437898	-0.505614
55563	-10.073173	-0.175481	2.790197	-0.899477	-0.037270	0.602414	0.620260	0.411118	0.437664	-0.504688
55564	-10.282085	-0.432821	2.755829	-1.202025	0.010319	0.773066	0.620908	0.411650	0.437226	-0.503836
55565	-9.996775	-0.355458	2.638357	-1.136590	0.053081	0.469728	0.620800	0.413168	0.436027	-0.503766
55566	-9.704693	-0.155629	2.552998	-0.951391	0.082750	0.177856	0.619761	0.415898	0.433661	-0.504840
55567	-9.553568	0.079970	2.725074	-0.722427	-0.090342	0.095535	0.617819	0.419472	0.430409	-0.507041
55568	-9.314463	0.454242	2.716435	-0.366840	-0.097744	-0.107002	0.615496	0.423243	0.426798	-0.509778
55569	-9.433672	0.629724	2.462969	-0.268605	0.197371	-0.048175	0.613445	0.426758	0.423103	-0.512393
55570	-9.455597	0.403772	2.370057	-0.541511	0.274828	-0.075151	0.611744	0.430009	0.419330	-0.514804
55571	-9.430088	0.304035	2.294813	-0.683084	0.343684	-0.132796	0.610290	0.433043	0.415509	-0.517081
55572	-9.402228	0.473578	2.338195	-0.549072	0.323244	-0.133472	0.609148	0.435638	0.412134	-0.518945
55573	-9.463510	0.579257	2.379554	-0.485271	0.322216	-0.054797	0.608585	0.437407	0.409444	-0.520245
55574	-9.388211	0.570527	2.447794	-0.513026	0.253197	-0.110714	0.608540	0.438519	0.407072	-0.521222
55575	-9.494348	0.468379	2.501449	-0.653327	0.245699	-0.007996	0.608744	0.439197	0.405012	-0.522017
55576	-9.417018	0.359215	2.509047	-0.775814	0.234968	-0.094283	0.608872	0.439791	0.402857	-0.523035
55577	-9.289712	0.418719	2.531216	-0.721962	0.207659	-0.204530	0.608633	0.440612	0.400560	-0.524384
55578	-9.332253	0.603052	2.460511	-0.566362	0.320750	-0.164629	0.608147	0.441643	0.398283	-0.525813
55579	-9.397676	0.750964	2.461730	-0.447287	0.365365	-0.086086	0.607559	0.442725	0.396062	-0.527258
55580	-9.448081	0.760717	2.454981	-0.462197	0.403143	-0.040499	0.607050	0.443744	0.394137	-0.528429
55581	-9.448141	0.838108	2.311788	-0.402666	0.557218	-0.074028	0.606557	0.444708	0.392324	-0.529533
55582	-9.329273	0.940272	2.195643	-0.300642	0.650071	-0.209183	0.606045	0.445652	0.390591	-0.530605
55583	-9.322141	0.917983	2.148021	-0.335842	0.702802	-0.233948	0.605513	0.446670	0.388964	-0.531551
55584	-9.256417	1.004871	2.101150	-0.254271	0.736045	-0.299569	0.604899	0.447779	0.387651	-0.532277
55585	-9.166754	1.225481	1.953516	-0.034180	0.854908	-0.399115	0.604471	0.448755	0.386871	-0.532507
55586	-9.254337	1.228159	1.846427	-0.054899	0.975004	-0.346604	0.604269	0.449745	0.386448	-0.532209
55587	-9.408453	1.104163	1.810200	-0.214175	1.037831	-0.226658	0.604108	0.450877	0.386244	-0.531582
55588	-9.356981	1.136023	1.742857	-0.190869	1.066519	-0.288654	0.603950	0.451994	0.386633	-0.530530
55589	-9.202442	1.328786	1.694013	0.008891	1.040485	-0.419208	0.603781	0.453076	0.387964	-0.528824
55590	-9.174810	1.306023	1.813988	-0.021944	0.871651	-0.409874	0.603763	0.454067	0.390180	-0.526359
55591	-9.206639	1.047588	2.152211	-0.296434	0.491008	-0.317303	0.603990	0.455105	0.392961	-0.523122
55592	-9.473963	0.660562	2.401665	-0.731691	0.240506	-0.047107	0.604431	0.456208	0.396166	-0.519221
55593	-9.104581	0.732670	2.454548	-0.617658	0.016563	-0.374855	0.604919	0.457264	0.399768	-0.514945
55594	-8.946832	0.954254	2.177130	-0.391386	0.174392	-0.565411	0.605638	0.458505	0.403335	-0.510193
55595	-8.910106	1.270021	2.286796	-0.095944	-0.005166	-0.527080	0.606126	0.460454	0.406327	-0.505461
55596	-9.235248	1.489955	2.620199	0.042576	-0.321971	-0.103464	0.606846	0.462688	0.408856	-0.500495
55597	-9.654990	1.596317	2.964844	0.037995	-0.633954	0.392862	0.608137	0.465083	0.410320	-0.495484
55598	-9.951913	1.785219	2.883673	0.108524	-0.548487	0.686351	0.609417	0.467398	0.411475	-0.490752
55599	-10.077603	2.273184	2.571451	0.491525	-0.250587	0.818995	0.610150	0.469976	0.412428	-0.486561
55600	-9.935612	2.624206	2.661431	0.808886	-0.410402	0.763828	0.610412	0.472650	0.413384	-0.482817
55601	-9.813503	2.908340	2.737540	1.066421	-0.554135	0.714067	0.610617	0.474907	0.414574	-0.479311
55602	-9.619501	2.927263	2.988506	1.097972	-0.894263	0.581025	0.611285	0.476347	0.416192	-0.475614
55603	-9.547612	2.688016	3.182854	0.862622	-1.163750	0.503044	0.612696	0.476684	0.418152	-0.471725
55604	-9.446924	2.371033	3.096643	0.556442	-1.158968	0.326468	0.614357	0.476115	0.420607	-0.467942
55605	-9.243186	2.181752	3.133530	0.417894	-1.273756	0.097833	0.615925	0.475116	0.423158	-0.464584
55606	-9.278665	1.984473	3.313521	0.243585	-1.485113	0.124427	0.617476	0.473714	0.425858	-0.461480
55607	-9.486184	1.594904	3.378225	-0.153892	-1.574928	0.259039	0.619100	0.471877	0.428455	-0.458773
55608	-9.488585	1.553308	3.441594	-0.163341	-1.647948	0.264420	0.620316	0.470044	0.430598	-0.457004
55609	-9.068753	2.107082	3.346093	0.485801	-1.544722	-0.052762	0.620911	0.468226	0.432568	-0.456200
55610	-8.784615	2.325951	3.325331	0.793562	-1.534181	-0.291461	0.621009	0.466565	0.434551	-0.455884
55611	-8.640136	2.167543	3.391454	0.717437	-1.639960	-0.450646	0.620821	0.464976	0.436342	-0.456053
55612	-8.501997	2.002585	3.202403	0.605615	-1.494834	-0.650361	0.620199	0.463548	0.437720	-0.457032
55613	-8.338560	1.870607	3.226673	0.554431	-1.555660	-0.828560	0.619182	0.462317	0.438803	-0.458616
55614	-8.438092	1.784451	3.334076	0.508249	-1.649391	-0.728486	0.617788	0.461139	0.439910	-0.460617
55615	-8.505322	1.933436	3.165346	0.672841	-1.443920	-0.671560	0.616044	0.459863	0.440997	-0.463181
55616	-8.391765	1.788908	3.095934	0.601460	-1.404423	-0.819787	0.613967	0.458532	0.441984	-0.466308
55617	-8.423988	1.567596	3.070107	0.437824	-1.393013	-0.828592	0.611486	0.457286	0.442952	-0.469860
55618	-8.780099	1.532951	2.994032	0.403278	-1.254221	-0.503112	0.608334	0.456421	0.443703	-0.474065
55619	-9.383004	1.613019	2.968513	0.458467	-1.110044	0.087402	0.604707	0.455837	0.444257	-0.478725
55620	-9.971844	1.287433	2.954387	0.131694	-1.028186	0.615564	0.600871	0.455274	0.444895	-0.483475
55621	-10.372461	1.092836	2.761783	-0.042380	-0.784447	0.947972	0.596766	0.454780	0.445452	-0.488485
55622	-10.533182	0.902705	2.550747	-0.170625	-0.560080	1.046661	0.592428	0.454268	0.446017	-0.493699
55623	-10.390113	0.820831	2.653028	-0.125797	-0.680706	0.919818	0.588151	0.453426	0.446587	-0.499042
55624	-9.917191	1.110321	2.097259	0.275286	-0.181449	0.379093	0.584131	0.452280	0.447293	-0.504146
55625	-9.446579	1.518451	1.816184	0.802208	0.050903	-0.107262	0.580557	0.451214	0.447931	-0.508642
55626	-9.011072	1.730643	2.159834	1.147009	-0.343827	-0.462545	0.578108	0.449804	0.448938	-0.511783
55627	-8.771770	1.707388	2.539925	1.224374	-0.750717	-0.634050	0.577486	0.447500	0.450563	-0.513076
55628	-8.624958	1.547090	2.449336	1.119857	-0.679955	-0.809022	0.578511	0.444371	0.452820	-0.512653
55629	-8.268927	0.923744	1.668789	0.508862	-0.010404	-1.341903	0.579769	0.441705	0.455015	-0.511592
55630	-8.054128	-0.006432	1.416783	-0.402355	0.120847	-1.645694	0.580433	0.440556	0.456837	-0.510204
55631	-8.004713	-0.868609	1.503158	-1.247173	-0.064025	-1.717639	0.580341	0.441102	0.457669	-0.509090
55632	-8.142543	-0.956872	1.747491	-1.336624	-0.311754	-1.543076	0.579668	0.443123	0.457658	-0.508111
55633	-8.877058	-1.218321	1.357800	-1.698477	0.146236	-0.911919	0.578263	0.446469	0.456979	-0.507393
55634	-9.788590	-2.037306	1.481624	-2.596969	0.081405	-0.044819	0.576155	0.450304	0.455989	-0.507293
55635	-10.511045	-2.601129	1.488050	-3.236304	0.133019	0.626221	0.573428	0.454283	0.454100	-0.508528
55636	-11.249713	-2.577489	1.226137	-3.295453	0.514403	1.303889	0.569935	0.458203	0.451689	-0.511078
55637	-11.887399	-2.274747	1.070038	-3.042727	0.806680	1.922760	0.566167	0.461616	0.448887	-0.514651
55638	-12.358953	-1.900094	0.835725	-2.687067	1.160861	2.372731	0.562315	0.464467	0.446033	-0.518775
55639	-12.573076	-1.481998	0.692984	-2.248041	1.382846	2.588626	0.558636	0.466547	0.443562	-0.522983
55640	-12.522769	-1.140663	0.350073	-1.852316	1.750391	2.505920	0.555510	0.467549	0.441897	-0.526814
55641	-12.035957	-0.901510	0.001185	-1.522381	2.043837	1.984840	0.552694	0.468002	0.440589	-0.530458
55642	-11.370106	-0.670172	0.166218	-1.203667	1.791687	1.371984	0.550209	0.468484	0.439461	-0.533542
55643	-11.120416	-0.441964	0.437440	-0.929002	1.492588	1.185466	0.548195	0.469159	0.438611	-0.535717
55644	-11.090221	-0.419889	0.878352	-0.895029	1.055118	1.233871	0.546687	0.470108	0.437928	-0.536983
55645	-10.589072	-0.684579	1.197997	-1.144798	0.658845	0.783899	0.545828	0.471078	0.437124	-0.537662
55646	-10.007263	-1.097472	1.060878	-1.538762	0.703326	0.167931	0.544696	0.472936	0.435758	-0.538286
55647	-9.751611	-1.666588	1.264304	-2.126505	0.477372	-0.080271	0.543038	0.475831	0.433455	-0.539270
55648	-9.388819	-1.866714	1.227221	-2.340808	0.473587	-0.461923	0.540785	0.479604	0.429585	-0.541284
55649	-9.193137	-1.904502	1.150255	-2.403593	0.550286	-0.681225	0.538040	0.484106	0.424399	-0.544095
55650	-9.147764	-1.749161	1.425265	-2.313049	0.307813	-0.684316	0.535302	0.488701	0.418463	-0.547277
55651	-9.029591	-1.416612	1.268561	-2.008276	0.464141	-0.818212	0.532743	0.492889	0.412623	-0.550444
55652	-9.052889	-1.630892	0.813378	-2.211507	0.989563	-0.901694	0.530665	0.496494	0.406765	-0.553563
55653	-8.929374	-2.086236	0.788714	-2.686488	1.109112	-1.079976	0.529006	0.499728	0.400649	-0.556691
55654	-8.924892	-2.283249	0.798271	-2.915728	1.202716	-1.120423	0.527492	0.502797	0.394234	-0.559935
55655	-9.167409	-2.101553	0.698627	-2.769020	1.405196	-0.907452	0.525953	0.505843	0.387699	-0.563192
55656	-9.376993	-1.910992	0.717611	-2.628845	1.482995	-0.703127	0.524427	0.508650	0.381357	-0.566409
55657	-9.411786	-1.951028	0.647143	-2.684109	1.647586	-0.708437	0.523015	0.511154	0.375227	-0.569545
55658	-9.356293	-2.228900	0.398968	-2.924061	2.009618	-0.864057	0.521464	0.513653	0.368907	-0.572838
55659	-9.323016	-2.396584	0.250143	-3.065659	2.270128	-0.971182	0.519193	0.516498	0.361952	-0.576766
55660	-9.525055	-1.993005	0.374250	-2.722205	2.212184	-0.727875	0.516089	0.519951	0.354305	-0.581180
55661	-9.611346	-0.890389	0.859692	-1.793805	1.614721	-0.427368	0.513091	0.523351	0.346925	-0.585222
55662	-10.394836	-0.002391	1.321465	-1.147383	1.219575	0.531133	0.511128	0.526068	0.340861	-0.588060
55663	-10.679362	1.004608	1.846976	-0.380239	0.595121	1.048728	0.509969	0.527471	0.336553	-0.590286
55664	-10.711005	1.542855	2.605762	-0.102002	-0.207975	1.315758	0.509255	0.527883	0.334265	-0.591832
55665	-10.965681	1.449061	3.163275	-0.375094	-0.615489	1.669154	0.508618	0.527863	0.333002	-0.593109
55666	-11.432639	1.161460	3.079655	-0.648967	-0.328529	2.062049	0.506447	0.528329	0.331433	-0.595426
55667	-11.803233	1.224893	2.835830	-0.517128	-0.020261	2.377091	0.501056	0.530323	0.328054	-0.600067
55668	-11.813603	1.771482	3.072942	-0.040193	-0.405325	2.515179	0.492563	0.533679	0.323051	-0.606800
55669	-11.361008	2.704900	3.240317	0.837025	-1.004254	2.236343	0.482516	0.537582	0.317568	-0.614276
55670	-10.567515	3.849093	3.146150	1.983079	-1.579605	1.587209	0.472659	0.541622	0.312143	-0.621132
55671	-9.591863	4.579496	3.168559	2.662888	-2.199807	0.726969	0.464730	0.545489	0.307623	-0.625967
55672	-8.804938	4.412344	3.157138	2.493957	-2.400011	-0.066778	0.459540	0.548955	0.304500	-0.628293
55673	-8.313460	3.181740	2.782317	1.494170	-1.752572	-0.775322	0.456868	0.552130	0.302538	-0.628407
55674	-7.933430	1.564737	2.318101	0.183936	-0.814614	-1.442291	0.454915	0.555740	0.300653	-0.627545
55675	-7.463547	0.585972	2.013175	-0.612263	-0.283108	-2.089647	0.451859	0.560591	0.297524	-0.626930
55676	-7.181954	0.289734	1.831560	-0.852535	-0.093073	-2.444983	0.446993	0.566837	0.293298	-0.626792
55677	-7.335716	0.414549	1.788028	-0.797143	-0.110246	-2.293814	0.440122	0.574151	0.288068	-0.627424
55678	-7.209350	1.097269	1.837680	-0.285098	-0.534446	-2.316807	0.432380	0.581420	0.282450	-0.628665
55679	-7.360295	1.703386	1.939251	0.109827	-0.934034	-2.069897	0.424940	0.588258	0.277917	-0.629397
55680	-7.888521	1.817048	2.083455	0.036125	-1.071838	-1.522915	0.418702	0.593779	0.275050	-0.629652
55681	-8.428704	1.541717	2.234759	-0.361745	-1.017019	-1.023578	0.413711	0.597939	0.273194	-0.629823
55682	-8.921359	1.323356	2.249839	-0.621331	-0.876787	-0.579671	0.409368	0.601209	0.271839	-0.630134
55683	-9.211662	1.015490	2.159718	-0.871863	-0.636058	-0.358304	0.405415	0.603767	0.271172	-0.630532
55684	-9.086876	0.740383	2.018352	-1.027403	-0.442892	-0.542233	0.401285	0.606024	0.270654	-0.631230
55685	-8.919874	0.556296	1.918438	-1.119804	-0.338152	-0.747065	0.396696	0.608459	0.270094	-0.632027
55686	-8.729282	0.711648	1.850551	-0.946815	-0.449134	-0.922641	0.391270	0.611250	0.269051	-0.633161
55687	-8.565144	0.946643	1.945558	-0.803972	-0.732282	-1.045691	0.385511	0.613949	0.267489	-0.634742
55688	-8.165536	1.171931	1.902744	-0.579649	-0.930155	-1.418135	0.379537	0.616469	0.265367	-0.636788
55689	-8.138044	1.012220	1.825876	-0.663415	-0.815039	-1.477120	0.373846	0.618552	0.263194	-0.639032
55690	-8.258683	0.906995	1.717821	-0.679877	-0.676073	-1.382977	0.368323	0.619979	0.261080	-0.641718
55691	-8.665612	0.840101	1.708201	-0.717689	-0.591383	-0.989333	0.363118	0.620406	0.259658	-0.644840
55692	-8.990705	0.828470	1.810484	-0.751402	-0.637103	-0.657026	0.358109	0.619749	0.258828	-0.648596
55693	-9.396366	0.872569	2.003926	-0.773341	-0.772361	-0.227618	0.353458	0.618016	0.258616	-0.652872
55694	-9.942258	0.671095	2.092631	-0.891961	-0.650268	0.309485	0.349148	0.615230	0.259031	-0.657640
55695	-10.232603	0.372343	2.088008	-0.989706	-0.424386	0.581695	0.344972	0.611475	0.259808	-0.663018
55696	-10.421214	0.298528	2.093335	-0.891507	-0.358907	0.777259	0.340419	0.607169	0.260872	-0.668884
55697	-10.536376	0.390147	2.116505	-0.656854	-0.427199	0.912528	0.335628	0.602358	0.262460	-0.675006
55698	-10.420500	0.403849	2.083067	-0.441617	-0.437371	0.803324	0.330980	0.597044	0.264285	-0.681282
55699	-10.611764	0.293170	2.372402	-0.505405	-0.570810	1.038089	0.327237	0.591430	0.267012	-0.686899
55700	-11.446878	-0.128623	2.401500	-0.572890	-0.227141	1.867694	0.324217	0.585579	0.270403	-0.691999
55701	-12.174690	-0.567226	2.339255	-0.577750	0.180366	2.582737	0.321253	0.579648	0.273606	-0.697097
55702	-12.794520	-0.944378	2.171609	-0.459417	0.613749	3.176363	0.317785	0.574031	0.276314	-0.702248
55703	-13.085063	-1.122915	1.983023	-0.206585	0.890993	3.437644	0.313225	0.568961	0.278007	-0.707733
55704	-13.054819	-1.136942	1.528285	0.297824	1.219035	3.320379	0.307559	0.564349	0.278591	-0.713656
55705	-12.459781	-1.121083	0.845673	0.874725	1.625711	2.589153	0.300275	0.560231	0.277473	-0.720406
55706	-11.338135	-0.854358	0.281248	1.449923	1.715477	1.336890	0.291496	0.556470	0.273928	-0.728240
55707	-10.529035	-0.228051	0.243968	1.966549	1.213065	0.464966	0.282022	0.553206	0.268395	-0.736472
55708	-10.615430	0.708910	0.540221	2.622986	0.351260	0.506049	0.273418	0.550301	0.262553	-0.743960
55709	-10.935438	1.387840	0.874763	3.080072	-0.331207	0.802265	0.267453	0.547122	0.258283	-0.749944
55710	-11.372964	1.146585	1.102394	2.990056	-0.243562	1.272136	0.264765	0.543511	0.256199	-0.754227
55711	-11.661281	0.251661	1.075690	2.588420	0.503447	1.600090	0.264614	0.539734	0.255352	-0.757273
55712	-11.345869	-0.450093	0.780373	2.319811	1.231787	1.261640	0.265450	0.536324	0.254566	-0.759664
55713	-10.560918	-0.288387	0.473059	2.480847	1.271427	0.388705	0.266661	0.533537	0.254151	-0.761339
55714	-9.766750	-0.264662	0.186988	2.506041	1.385965	-0.469615	0.268025	0.531300	0.253553	-0.762623
55715	-8.929571	-0.293385	0.275451	2.210713	1.280480	-1.246939	0.269441	0.529514	0.251815	-0.763941
55716	-8.403442	-0.320675	0.604352	1.829170	1.061063	-1.650953	0.271349	0.528194	0.249258	-0.765017
55717	-8.382939	-0.027235	0.700701	1.958440	0.841386	-1.675020	0.274547	0.526698	0.247442	-0.765497
55718	-8.437696	-0.299075	0.679495	1.800111	1.131128	-1.613566	0.279602	0.524614	0.247116	-0.765203
55719	-8.672479	-0.433199	0.744181	1.719997	1.297733	-1.368141	0.286496	0.522082	0.248366	-0.763979
55720	-8.860895	-0.646559	0.761583	1.587487	1.548581	-1.175866	0.295323	0.519176	0.251168	-0.761679
55721	-8.940267	-0.869427	0.783071	1.390295	1.782379	-1.084177	0.305993	0.516158	0.255236	-0.758158
55722	-8.994970	-1.234019	0.736632	1.095024	2.148870	-1.028776	0.318164	0.513201	0.260221	-0.753446
55723	-9.040830	-1.679978	0.583289	0.761060	2.630683	-1.015086	0.331354	0.510503	0.265502	-0.747730
55724	-9.215601	-1.845714	0.606204	0.528179	2.815467	-0.840868	0.344997	0.508103	0.271005	-0.741192
55725	-9.409457	-1.764421	0.754815	0.401176	2.742446	-0.618304	0.358757	0.505829	0.277165	-0.733901
55726	-9.506242	-1.702232	0.919651	0.226508	2.631144	-0.478037	0.372699	0.503252	0.284096	-0.726032
55727	-9.396882	-1.582670	1.269815	-0.032077	2.275407	-0.472537	0.387524	0.499852	0.292073	-0.717403
55728	-9.196394	-1.360093	1.630745	-0.202635	1.815723	-0.552914	0.403918	0.495538	0.301425	-0.707415
55729	-9.483396	-1.042510	1.718909	-0.055817	1.658436	-0.261719	0.421882	0.490519	0.312027	-0.695734
55730	-10.123756	-0.996685	1.714347	-0.066743	1.814759	0.342242	0.441408	0.484507	0.323600	-0.682419
55731	-10.599076	-1.143892	1.847351	-0.359694	1.881319	0.835794	0.462395	0.476894	0.336415	-0.667524
55732	-10.958879	-1.467314	1.769818	-0.777831	2.130481	1.152491	0.483646	0.467975	0.350203	-0.651494
55733	-10.775059	-1.528637	2.007675	-1.090433	1.810776	1.050043	0.504732	0.457839	0.364353	-0.634725
55734	-10.335106	-1.346352	2.349153	-1.153659	1.237398	0.736331	0.525097	0.447330	0.378345	-0.617271
55735	-10.074507	-1.034291	2.930591	-1.042402	0.468836	0.668069	0.544192	0.437108	0.392147	-0.599177
55736	-10.017187	-0.323503	3.889396	-0.465926	-0.619730	0.909923	0.561747	0.427171	0.405954	-0.580661
55737	-10.262692	0.260757	4.384122	0.116918	-1.114722	1.293826	0.577919	0.417491	0.419497	-0.561901
55738	-10.161106	0.275354	4.327172	0.169490	-1.155040	1.172983	0.592431	0.408315	0.432233	-0.543579
55739	-9.554946	0.027680	4.376299	-0.014992	-1.467254	0.593850	0.604887	0.400603	0.443321	-0.526398
55740	-8.922830	-0.118748	4.069639	-0.137931	-1.455829	-0.114558	0.614457	0.395940	0.451990	-0.511252
55741	-8.691400	0.177763	3.531518	0.078729	-1.055010	-0.489409	0.621305	0.394346	0.458277	-0.498452
55742	-8.548035	0.673932	2.913435	0.425343	-0.507800	-0.781000	0.626046	0.394946	0.462845	-0.487708
55743	-8.673368	1.048935	2.369544	0.616321	0.022195	-0.781579	0.629302	0.396419	0.466647	-0.478614
55744	-8.619364	1.790180	2.185700	1.246068	0.265900	-0.832079	0.632179	0.397624	0.470042	-0.470431
55745	-8.626118	2.860401	2.361527	2.267109	0.299182	-0.705602	0.635823	0.397197	0.473971	-0.461861
55746	-8.573660	3.716837	2.351724	3.050697	0.504516	-0.686262	0.641147	0.394066	0.479397	-0.451466
55747	-8.756892	3.432168	2.045402	2.630093	0.778562	-0.586489	0.648272	0.387997	0.486658	-0.438596
55748	-8.874291	2.446727	2.078160	1.648747	0.497108	-0.534075	0.656581	0.379725	0.495205	-0.423654
55749	-9.052833	1.324354	2.149635	0.575754	0.072341	-0.432290	0.664709	0.370785	0.504197	-0.408002
55750	-9.150845	0.459293	2.116760	-0.243402	-0.261220	-0.415787	0.671562	0.362495	0.512858	-0.393165
55751	-8.942244	-0.173741	2.122052	-0.754945	-0.643930	-0.674217	0.676445	0.356004	0.520687	-0.380221
55752	-9.006830	-0.040826	2.527355	-0.430124	-1.021835	-0.523871	0.679294	0.351194	0.528024	-0.369341
55753	-9.488485	0.227489	2.690766	-0.143319	-1.062529	-0.005912	0.681054	0.347129	0.534973	-0.359821
55754	-10.168936	0.454391	2.785913	0.048763	-1.036795	0.689541	0.682511	0.343143	0.541557	-0.350924
55755	-10.883848	0.604174	2.745959	0.103776	-0.924561	1.389864	0.684401	0.338298	0.547855	-0.342060
55756	-11.039618	0.683978	2.477342	0.068139	-0.694164	1.500637	0.687043	0.332072	0.553862	-0.333073
55757	-10.560546	0.523137	1.974871	-0.205748	-0.440823	0.932639	0.690367	0.324659	0.559649	-0.323702
55758	-9.823951	0.028226	1.605051	-0.655273	-0.511848	0.106760	0.693934	0.316977	0.565058	-0.314149
55759	-9.429295	-0.141204	1.306506	-0.866682	-0.440060	-0.342023	0.696966	0.310191	0.570032	-0.305097
55760	-9.457378	-0.209002	0.948467	-1.115816	-0.242190	-0.374394	0.699552	0.304507	0.574168	-0.297042
55761	-9.322921	0.076637	0.705933	-1.011384	0.074720	-0.517934	0.701386	0.300288	0.577489	-0.290500
55762	-9.234366	1.224332	1.176633	0.180093	0.421340	-0.434684	0.702471	0.296941	0.580639	-0.284990
55763	-9.416362	2.284424	1.915558	1.432077	0.563981	-0.056311	0.703832	0.292463	0.584019	-0.279298
55764	-9.350968	2.526648	2.546505	2.052708	0.281062	-0.013890	0.705749	0.286241	0.587755	-0.272997
55765	-9.372125	2.036513	3.258530	2.203801	-0.516406	0.060416	0.708095	0.278463	0.591928	-0.265858
55766	-8.741779	1.677841	3.687980	2.396465	-1.017569	-0.536086	0.711236	0.268143	0.596761	-0.257136
55767	-8.473627	1.369604	3.691535	2.295018	-1.148562	-0.828374	0.714541	0.256840	0.601723	-0.247778
55768	-8.441512	1.024391	3.772634	2.199444	-1.357918	-0.876324	0.717482	0.246331	0.606214	-0.238842
55769	-8.522603	0.917864	3.879514	2.265948	-1.412109	-0.790588	0.719979	0.236938	0.609999	-0.231066
55770	-8.372185	0.841544	3.873538	2.297378	-1.389569	-0.947232	0.721860	0.228648	0.613389	-0.224481
55771	-8.483868	0.887127	3.956075	2.433236	-1.328215	-0.827805	0.722901	0.221852	0.616657	-0.218932
55772	-8.935788	1.015239	3.946376	2.495818	-1.146628	-0.383552	0.723381	0.216402	0.619691	-0.214182
55773	-9.134650	1.404776	3.798631	2.629436	-0.694847	-0.197713	0.723525	0.211769	0.622581	-0.209902
55774	-9.198185	1.462021	3.604037	2.546252	-0.503278	-0.169233	0.723238	0.207779	0.625584	-0.205908
55775	-8.993349	1.563623	3.367149	2.487226	-0.271802	-0.410427	0.722709	0.204106	0.628659	-0.202041
55776	-8.819255	1.766900	3.217934	2.547065	-0.006297	-0.605708	0.722262	0.200035	0.631908	-0.197524
55777	-8.727017	1.644789	3.020675	2.374386	0.014796	-0.737861	0.721836	0.195720	0.635311	-0.192423
55778	-8.761587	1.640813	3.006693	2.402846	0.035752	-0.717484	0.721320	0.191525	0.638737	-0.187166
55779	-9.022774	1.425664	2.987479	2.293288	-0.120395	-0.480265	0.720669	0.187779	0.641975	-0.182328
55780	-9.255527	1.843068	3.051572	2.583466	0.221061	-0.239266	0.719876	0.184252	0.645073	-0.178076
55781	-9.516516	2.119879	2.934327	2.639871	0.540274	0.006030	0.719146	0.180374	0.648104	-0.173943
55782	-9.539745	2.290219	2.917646	2.747424	0.721355	0.020705	0.718609	0.176219	0.650936	-0.169796
55783	-9.706454	2.309888	3.235207	3.057208	0.620734	0.201568	0.718154	0.171561	0.653869	-0.165157
55784	-9.880275	1.926297	3.238044	2.904872	0.322883	0.349622	0.717946	0.166282	0.656684	-0.160221
55785	-9.621113	1.547947	2.986502	2.570333	0.139314	0.049101	0.717689	0.161514	0.659134	-0.156134
55786	-9.698836	1.060637	2.764894	2.190454	-0.162361	0.087429	0.717252	0.157357	0.661334	-0.153051
55787	-10.056574	0.846626	2.670036	2.025517	-0.275751	0.424575	0.716840	0.153778	0.663060	-0.151141
55788	-10.519503	0.728954	2.426557	1.755765	-0.234518	0.861654	0.716695	0.150468	0.664235	-0.150000
55789	-11.090939	0.134182	2.299829	1.371504	-0.673903	1.411432	0.717070	0.147640	0.664704	-0.148938
55790	-11.507188	-0.098461	1.967518	0.940849	-0.710037	1.802250	0.718333	0.145137	0.664300	-0.147101
55791	-11.594070	-0.481358	1.195697	0.044827	-0.723937	1.830233	0.720229	0.142920	0.663241	-0.144757
55792	-11.626484	-0.910624	1.043655	-0.321498	-1.043744	1.844950	0.722562	0.141288	0.661453	-0.142905
55793	-11.533352	-0.675466	1.336110	-0.024811	-0.931282	1.780034	0.725339	0.140112	0.658911	-0.141736
55794	-11.441866	-0.229505	1.443904	0.168812	-0.542787	1.708159	0.728553	0.138760	0.655869	-0.140686
55795	-11.380800	-0.303466	1.182555	-0.194488	-0.481577	1.621579	0.732124	0.137013	0.652559	-0.139244
55796	-11.477925	-0.953401	1.026362	-0.709625	-0.988370	1.686165	0.736083	0.134844	0.648926	-0.137454
55797	-11.539755	-1.238576	1.037795	-0.931340	-1.220345	1.738033	0.740179	0.132484	0.645047	-0.136004
55798	-11.307179	-0.890313	0.982543	-0.938392	-0.841087	1.501952	0.744151	0.130329	0.641044	-0.135340
55799	-10.464790	-0.372328	1.002988	-0.723384	-0.350075	0.675851	0.748067	0.128338	0.636964	-0.134915
55800	-9.302362	-0.136681	0.992751	-0.572882	-0.131864	-0.475030	0.751679	0.126328	0.633305	-0.133957
55801	-8.176602	-0.216695	0.924228	-0.567420	-0.203412	-1.603291	0.754967	0.124414	0.630163	-0.132062
55802	-7.505609	-0.542993	0.890656	-0.667901	-0.517331	-2.282196	0.757858	0.123115	0.627480	-0.129473
55803	-7.336785	-0.917325	1.058533	-0.670689	-0.944366	-2.433764	0.760361	0.122780	0.625139	-0.126399
55804	-7.631089	-1.422474	1.305163	-0.725174	-1.518643	-2.123217	0.762603	0.123600	0.622859	-0.123318
55805	-8.004298	-1.799273	1.524118	-0.781644	-1.972882	-1.742655	0.764623	0.126046	0.620288	-0.121268
55806	-8.529234	-1.825635	1.713724	-0.787840	-2.091730	-1.209142	0.766359	0.129809	0.617494	-0.120604
55807	-9.287024	-1.685996	1.949364	-0.757379	-2.069022	-0.429926	0.767913	0.134222	0.614495	-0.121206
55808	-10.078820	-1.334113	2.118204	-0.737119	-1.820450	0.384912	0.769639	0.138584	0.611032	-0.122843
55809	-10.474986	-0.773458	2.163866	-0.680702	-1.325889	0.807276	0.771741	0.142141	0.607078	-0.125171
55810	-10.366467	-0.337714	2.020045	-0.728698	-0.863449	0.693540	0.774192	0.144434	0.602869	-0.127728
55811	-10.032850	-0.205531	1.833781	-0.866590	-0.648907	0.330790	0.776796	0.145483	0.598709	-0.130271
55812	-9.913070	-0.230565	1.717035	-1.042321	-0.585206	0.179339	0.779395	0.145447	0.594798	-0.132678
55813	-10.161614	-0.405439	1.698221	-1.275879	-0.673329	0.396356	0.782026	0.144674	0.590988	-0.135049
55814	-10.213805	-0.412582	1.692216	-1.381256	-0.608358	0.438005	0.784577	0.143566	0.587273	-0.137614
55815	-9.977652	-0.230534	1.641976	-1.365909	-0.363232	0.202520	0.786727	0.142649	0.583959	-0.140374
55816	-9.824963	-0.026282	1.542139	-1.392420	-0.082982	0.034270	0.788411	0.142134	0.581169	-0.142998
55817	-9.753837	0.129879	1.604693	-1.302550	0.080843	-0.013412	0.789599	0.141907	0.579045	-0.145269
55818	-9.659102	0.488501	1.760012	-1.027673	0.377403	-0.043559	0.790253	0.141881	0.577712	-0.147035
55819	-9.559366	0.609821	2.129596	-0.644711	0.354139	-0.027625	0.790480	0.142174	0.577058	-0.148094
55820	-9.902227	0.708916	2.610616	-0.290806	0.278646	0.444494	0.790355	0.142921	0.576895	-0.148676
55821	-10.502009	1.253983	3.308961	0.373839	0.529173	1.250498	0.789660	0.143489	0.577587	-0.149133
55822	-11.244087	1.540987	4.203990	1.094477	0.469549	2.231357	0.788234	0.143515	0.579509	-0.149197
55823	-11.802840	1.390326	5.017159	1.659586	0.032883	2.980116	0.786079	0.142887	0.582565	-0.149265
55824	-11.688679	1.568782	5.340501	2.168922	0.060162	2.950439	0.782636	0.141821	0.587104	-0.150584
55825	-10.858687	1.291587	4.930517	2.075042	-0.079515	2.001485	0.778131	0.141784	0.592344	-0.153421
55826	-9.299576	0.275772	4.067064	1.433049	-0.783222	0.208820	0.773127	0.145132	0.596887	-0.157914
55827	-8.381473	-0.492104	3.237459	0.699548	-1.253540	-0.929520	0.767545	0.152632	0.600479	-0.164325
55828	-8.304289	-0.563603	2.415960	0.038857	-1.038500	-1.208331	0.761839	0.162717	0.602925	-0.172067
55829	-8.293026	-0.503520	1.995639	-0.242105	-0.867974	-1.315762	0.756060	0.174276	0.604451	-0.180667
55830	-8.483656	-0.104751	2.229721	0.159109	-0.708094	-1.070413	0.750012	0.186412	0.605689	-0.189404
55831	-9.139232	0.303768	2.645953	0.637221	-0.638740	-0.336209	0.744394	0.197930	0.606395	-0.197449
55832	-9.211763	0.749417	2.632486	0.890804	-0.361284	-0.251144	0.739720	0.208230	0.606338	-0.204471
