// General information: 
//  MT Manager version: 2021.0.0 
//  XDA version: 2021.0.0 build 5908 rev 109668 built on 2021-04-19
// Device information: 
//  DeviceId: 00B43DFD
//  ProductCode: MTW2-3A7G6
//  Firmware Version: 4.3.5
//  Hardware Version: 1.1.0
// Device settings: 
//  Filter Profile: human(46.1)
//  Option Flags: Orientation Smoother Disabled, Position/Velocity Smoother Disabled, Continuous Zero Rotation Update Disabled, AHS Disabled, ICC Disabled
// Coordinate system: ENU
PacketCounter	Acc_X	Acc_Y	Acc_Z	FreeAcc_E	FreeAcc_N	FreeAcc_U	Quat_q0	Quat_q1	Quat_q2	Quat_q3
07551	-0.054799	-0.003702	9.793343	0.010939	-0.014550	-0.019208	0.999271	-0.000995	-0.000536	0.038155
07552	-0.048932	0.009829	9.791584	0.015555	-0.000549	-0.020989	0.999271	-0.000998	-0.000541	0.038155
07553	-0.052527	-0.006018	9.779003	0.013267	-0.016690	-0.033565	0.999271	-0.000986	-0.000519	0.038153
07554	-0.060667	0.012703	9.774845	0.004014	0.001308	-0.037646	0.999271	-0.000992	-0.000511	0.038148
07555	-0.080841	0.006844	9.788558	-0.015562	-0.006094	-0.023807	0.999272	-0.000984	-0.000517	0.038137
07556	-0.063640	-0.003041	9.762270	0.002059	-0.014727	-0.050221	0.999272	-0.000982	-0.000523	0.038143
07557	-0.054431	-0.000415	9.807697	0.011187	-0.011533	-0.004852	0.999271	-0.000975	-0.000532	0.038156
07558	-0.067268	0.031756	9.770697	-0.004323	0.019647	-0.041728	0.999272	-0.000987	-0.000524	0.038143
07559	-0.046821	0.010675	9.791593	0.017808	0.000213	-0.020993	0.999271	-0.000980	-0.000532	0.038156
07560	-0.077271	0.004992	9.774230	-0.012285	-0.007923	-0.038161	0.999271	-0.000971	-0.000530	0.038157
07561	-0.058041	0.013551	9.774860	0.006238	0.002089	-0.037648	0.999271	-0.000980	-0.000533	0.038149
07562	-0.064786	0.002549	9.790970	0.000568	-0.009320	-0.021507	0.999271	-0.000980	-0.000518	0.038148
07563	-0.059182	0.016172	9.789206	0.005177	0.004702	-0.023291	0.999271	-0.000980	-0.000525	0.038152
07564	-0.055043	0.032377	9.801786	0.008109	0.021056	-0.010719	0.999271	-0.000971	-0.000523	0.038165
07565	-0.065150	0.032466	9.770709	-0.002105	0.020440	-0.041729	0.999271	-0.000983	-0.000517	0.038164
07566	-0.085867	-0.000381	9.819039	-0.019728	-0.014012	0.006698	0.999271	-0.000962	-0.000504	0.038153
07567	-0.061942	0.000738	9.776634	0.003851	-0.011127	-0.035864	0.999272	-0.000974	-0.000506	0.038141
07568	-0.053339	-0.017815	9.780794	0.013783	-0.028906	-0.031784	0.999271	-0.000968	-0.000514	0.038152
07569	-0.047700	-0.004035	9.779029	0.018401	-0.014906	-0.033570	0.999272	-0.000957	-0.000500	0.038141
07570	-0.061082	0.001198	9.776640	0.004819	-0.010781	-0.035864	0.999271	-0.000960	-0.000496	0.038152
07571	-0.062422	0.003802	9.790985	0.003444	-0.008302	-0.021507	0.999271	-0.000957	-0.000493	0.038157
07572	-0.048383	0.025895	9.758762	0.015738	0.014831	-0.053795	0.999271	-0.000955	-0.000493	0.038160
07573	-0.060555	0.001499	9.776643	0.005454	-0.010580	-0.035864	0.999271	-0.000947	-0.000490	0.038160
07574	-0.063295	0.006640	9.805333	0.002412	-0.005743	-0.007150	0.999271	-0.000951	-0.000505	0.038163
07575	-0.049235	0.001586	9.807724	0.016622	-0.009623	-0.004858	0.999271	-0.000955	-0.000510	0.038161
07576	-0.069114	0.022746	9.786837	-0.004845	0.010015	-0.025586	0.999270	-0.000956	-0.000496	0.038182
07577	-0.053842	0.015248	9.774882	0.011054	0.003750	-0.037652	0.999271	-0.000957	-0.000490	0.038170
07578	-0.055214	0.017823	9.789227	0.009703	0.006236	-0.023296	0.999271	-0.000959	-0.000485	0.038169
07579	-0.039749	0.010351	9.777271	0.025623	-0.000027	-0.035363	0.999271	-0.000957	-0.000489	0.038163
07580	-0.059791	0.004458	9.791001	0.006070	-0.007424	-0.021507	0.999270	-0.000962	-0.000496	0.038185
07581	-0.057735	0.001990	9.776660	0.008077	-0.009696	-0.035865	0.999269	-0.000960	-0.000503	0.038204
07582	-0.070817	0.007226	9.774278	-0.005518	-0.005554	-0.038154	0.999270	-0.000952	-0.000509	0.038180
07583	-0.057129	0.002355	9.776664	0.008706	-0.009440	-0.035865	0.999270	-0.000952	-0.000485	0.038188
07584	-0.053128	0.018438	9.789237	0.011671	0.006929	-0.023298	0.999270	-0.000956	-0.000498	0.038177
07585	-0.059583	0.007396	9.805356	0.006007	-0.004478	-0.007150	0.999271	-0.000964	-0.000501	0.038171
07586	-0.084740	0.015096	9.786247	-0.019796	0.001289	-0.026082	0.999271	-0.000955	-0.000498	0.038171
07587	-0.055757	0.002516	9.776671	0.009994	-0.008987	-0.035866	0.999271	-0.000969	-0.000501	0.038159
07588	-0.050097	0.016033	9.774900	0.014627	0.005016	-0.037658	0.999271	-0.000965	-0.000496	0.038152
07589	-0.075602	-0.003345	9.790410	-0.009225	-0.016270	-0.022003	0.999271	-0.000969	-0.000501	0.038164
07590	-0.066736	0.005180	9.759951	-0.001276	-0.007003	-0.052510	0.999271	-0.000971	-0.000497	0.038163
07591	-0.076085	0.026294	9.770143	-0.012262	0.013380	-0.042229	0.999271	-0.000975	-0.000513	0.038153
07592	-0.050168	0.018708	9.789252	0.014173	0.007863	-0.023302	0.999271	-0.000979	-0.000510	0.038160
07593	-0.074000	-0.003253	9.790422	-0.008012	-0.015762	-0.022001	0.999271	-0.000985	-0.000524	0.038159
07594	-0.068109	0.010320	9.788652	-0.003405	-0.001766	-0.023794	0.999271	-0.000982	-0.000531	0.038154
07595	-0.058104	-0.010598	9.778463	0.008197	-0.021929	-0.034074	0.999271	-0.000976	-0.000516	0.038148
07596	-0.052513	0.002975	9.776689	0.012825	-0.007943	-0.035868	0.999271	-0.000985	-0.000520	0.038154
07597	-0.058793	0.019085	9.758193	0.005203	0.007702	-0.054303	0.999272	-0.000980	-0.000516	0.038137
07598	-0.058823	-0.007999	9.792813	0.007471	-0.019230	-0.019716	0.999271	-0.000996	-0.000520	0.038159
07599	-0.066762	0.010625	9.788661	-0.001837	-0.001216	-0.023793	0.999271	-0.000985	-0.000508	0.038148
07600	-0.070176	-0.005150	9.776095	-0.004158	-0.017367	-0.036356	0.999271	-0.000979	-0.000526	0.038150
07601	-0.058941	0.021891	9.772545	0.004770	0.010525	-0.039947	0.999272	-0.000992	-0.000528	0.038137
07602	-0.055933	-0.010237	9.778476	0.010368	-0.021138	-0.034074	0.999272	-0.000993	-0.000513	0.038135
07603	-0.073522	0.029512	9.784518	-0.010211	0.017145	-0.027869	0.999272	-0.000992	-0.000532	0.038143
07604	-0.046081	0.019524	9.789271	0.017918	0.009226	-0.023310	0.999271	-0.000988	-0.000518	0.038148
07605	-0.063108	0.008866	9.774329	0.001667	-0.002886	-0.038151	0.999272	-0.000971	-0.000529	0.038148
07606	-0.065849	0.014230	9.803021	-0.001366	0.001972	-0.009435	0.999271	-0.000963	-0.000528	0.038160
07607	-0.052349	0.015208	9.729520	0.011592	0.004095	-0.083023	0.999270	-0.000977	-0.000523	0.038180
07608	-0.075881	-0.012764	9.806584	-0.009354	-0.025582	-0.005840	0.999270	-0.000971	-0.000541	0.038184
07609	-0.051197	0.009231	9.805402	0.013465	-0.001697	-0.007157	0.999271	-0.000983	-0.000534	0.038170
07610	-0.040924	0.015112	9.760589	0.023075	0.005184	-0.052030	0.999271	-0.000991	-0.000529	0.038173
07611	-0.063886	0.041239	9.768411	-0.001755	0.029598	-0.044026	0.999270	-0.000996	-0.000534	0.038183
07612	-0.066090	-0.004288	9.776124	-0.000441	-0.015955	-0.036353	0.999270	-0.000993	-0.000530	0.038188
07613	-0.065870	-0.004287	9.776125	-0.000123	-0.015851	-0.036352	0.999270	-0.001005	-0.000523	0.038187
07614	-0.049396	0.036498	9.770787	0.013094	0.025924	-0.041751	0.999270	-0.000977	-0.000536	0.038189
07615	-0.061250	0.012107	9.788695	0.003124	0.000653	-0.023793	0.999270	-0.001002	-0.000537	0.038187
07616	-0.063069	-0.006525	9.761788	0.002431	-0.017873	-0.050710	0.999270	-0.000995	-0.000547	0.038199
07617	-0.075619	0.019625	9.800676	-0.011851	0.007264	-0.011710	0.999269	-0.001007	-0.000540	0.038199
07618	-0.039805	0.018038	9.774944	0.023876	0.008474	-0.037678	0.999269	-0.000999	-0.000539	0.038200
07619	-0.071969	0.014916	9.771988	-0.007930	0.002750	-0.040426	0.999270	-0.000990	-0.000537	0.038199
07620	-0.065102	-0.000932	9.790486	0.000292	-0.012655	-0.021993	0.999270	-0.000987	-0.000534	0.038193
07621	-0.059409	0.012620	9.788706	0.004889	0.001359	-0.023794	0.999270	-0.000997	-0.000540	0.038197
07622	-0.052386	0.023543	9.772579	0.011196	0.012980	-0.039955	0.999270	-0.001005	-0.000511	0.038183
07623	-0.059101	0.012611	9.788708	0.005531	0.001586	-0.023795	0.999270	-0.001000	-0.000529	0.038184
07624	-0.058872	0.012668	9.788709	0.005841	0.001713	-0.023795	0.999270	-0.001010	-0.000503	0.038180
07625	-0.064116	-0.000824	9.790493	0.001829	-0.012050	-0.021992	0.999270	-0.001008	-0.000510	0.038186
07626	-0.058308	0.012755	9.788712	0.006429	0.001949	-0.023795	0.999270	-0.001012	-0.000517	0.038186
07627	-0.057947	0.012952	9.788714	0.006703	0.002070	-0.023795	0.999270	-0.000998	-0.000517	0.038181
07628	-0.044144	0.008101	9.791082	0.020903	-0.001843	-0.021525	0.999270	-0.000999	-0.000513	0.038182
07629	-0.050521	0.024220	9.772587	0.013240	0.013808	-0.039958	0.999270	-0.001002	-0.000511	0.038180
07630	-0.055625	0.010859	9.774373	0.009242	0.000035	-0.038155	0.999270	-0.000994	-0.000509	0.038192
07631	-0.068804	0.016058	9.772009	-0.004351	0.004155	-0.040425	0.999270	-0.000997	-0.000515	0.038193
07632	-0.056318	0.013518	9.788723	0.008201	0.002620	-0.023797	0.999270	-0.001000	-0.000530	0.038184
07633	-0.071887	0.000114	9.759454	-0.006407	-0.011879	-0.052978	0.999271	-0.000999	-0.000505	0.038170
07634	-0.056177	0.013713	9.788724	0.008786	0.002861	-0.023797	0.999271	-0.000999	-0.000492	0.038169
07635	-0.052734	0.008726	9.760034	0.012385	-0.001770	-0.052515	0.999271	-0.001004	-0.000507	0.038157
07636	-0.052427	0.008718	9.760036	0.012708	-0.001654	-0.052515	0.999271	-0.001010	-0.000491	0.038160
07637	-0.053558	0.011247	9.774384	0.011362	0.000848	-0.038157	0.999271	-0.001012	-0.000519	0.038166
07638	-0.070527	0.000464	9.759464	-0.004874	-0.011280	-0.052976	0.999270	-0.001001	-0.000497	0.038176
07639	-0.068219	0.019207	9.786369	-0.003578	0.007465	-0.026065	0.999271	-0.001002	-0.000492	0.038166
07640	-0.051171	0.009338	9.760042	0.013939	-0.001208	-0.052517	0.999270	-0.000986	-0.000504	0.038190
07641	-0.055561	0.017082	9.803080	0.009267	0.006060	-0.009441	0.999270	-0.000992	-0.000490	0.038194
07642	-0.059248	0.001073	9.790523	0.006925	-0.010067	-0.021992	0.999270	-0.000995	-0.000485	0.038191
07643	-0.067091	0.019691	9.786376	-0.002354	0.007950	-0.026065	0.999270	-0.000998	-0.000491	0.038191
07644	-0.068992	0.001284	9.759475	-0.003085	-0.010592	-0.052975	0.999270	-0.000989	-0.000490	0.038193
07645	-0.057997	0.028528	9.755898	0.005834	0.017276	-0.056592	0.999270	-0.000984	-0.000486	0.038177
07646	-0.049529	0.009949	9.760050	0.015721	-0.000508	-0.052520	0.999270	-0.000998	-0.000490	0.038176
07647	-0.071316	0.006595	9.788172	-0.005487	-0.005473	-0.024256	0.999270	-0.000990	-0.000479	0.038185
07648	-0.050498	0.012657	9.774398	0.014672	0.002107	-0.038162	0.999270	-0.000993	-0.000494	0.038176
07649	-0.070453	0.006746	9.788178	-0.004863	-0.005264	-0.024256	0.999270	-0.000996	-0.000499	0.038177
07650	-0.063183	0.017822	9.772044	0.001434	0.006354	-0.040425	0.999270	-0.000993	-0.000495	0.038181
07651	-0.049318	0.012791	9.774404	0.015648	0.002453	-0.038163	0.999270	-0.001002	-0.000498	0.038174
07652	-0.064095	0.020428	9.786394	0.000397	0.008967	-0.026066	0.999271	-0.000998	-0.000495	0.038169
07653	-0.063866	0.020485	9.786396	0.000672	0.009101	-0.026066	0.999271	-0.001006	-0.000492	0.038173
07654	-0.061986	0.017940	9.772052	0.002599	0.006831	-0.040425	0.999270	-0.001011	-0.000500	0.038184
07655	-0.056253	0.031582	9.770262	0.007194	0.020834	-0.042237	0.999270	-0.001003	-0.000499	0.038184
07656	-0.069441	0.036794	9.767907	-0.006396	0.024963	-0.044498	0.999270	-0.001005	-0.000504	0.038185
07657	-0.067774	0.007244	9.788197	-0.002444	-0.004336	-0.024255	0.999270	-0.001008	-0.000509	0.038186
07658	-0.060402	0.018356	9.772061	0.003823	0.007279	-0.040426	0.999270	-0.001001	-0.000517	0.038187
07659	-0.072353	-0.006057	9.789995	-0.006151	-0.017969	-0.022441	0.999270	-0.001010	-0.000513	0.038190
07660	-0.047832	0.015939	9.788765	0.016690	0.005880	-0.023809	0.999270	-0.001006	-0.000510	0.038195
07661	-0.051390	0.000123	9.776213	0.013150	-0.011237	-0.036355	0.999266	-0.000950	-0.000569	0.038283
07662	-0.064683	0.005363	9.773860	-0.000449	-0.007085	-0.038614	0.999266	-0.000952	-0.000565	0.038281
07663	-0.059073	0.018921	9.772068	0.004178	0.006920	-0.040426	0.999266	-0.000955	-0.000561	0.038290
07664	-0.065537	0.008048	9.788211	-0.001466	-0.004467	-0.024254	0.999266	-0.000950	-0.000579	0.038292
07665	-0.043168	0.011636	9.760078	0.020323	0.000738	-0.052528	0.999266	-0.000944	-0.000566	0.038285
07666	-0.070426	-0.005180	9.790010	-0.005211	-0.018116	-0.022441	0.999266	-0.000951	-0.000562	0.038279
07667	-0.061720	0.003396	9.759523	0.002691	-0.008889	-0.052973	0.999266	-0.000943	-0.000559	0.038279
07668	-0.059098	0.022099	9.786422	0.004062	0.009866	-0.026068	0.999267	-0.000945	-0.000563	0.038269
07669	-0.060106	0.024735	9.800771	0.002720	0.012358	-0.011709	0.999267	-0.000938	-0.000581	0.038272
07670	-0.068752	-0.004709	9.790022	-0.003970	-0.017679	-0.022440	0.999266	-0.000943	-0.000588	0.038283
07671	-0.063105	0.008942	9.788227	0.000633	-0.003677	-0.024254	0.999266	-0.000933	-0.000578	0.038294
07672	-0.054607	0.017497	9.757736	0.008527	0.005537	-0.054788	0.999266	-0.000943	-0.000561	0.038282
07673	-0.055923	0.020078	9.772084	0.007171	0.008044	-0.040429	0.999266	-0.000937	-0.000571	0.038293
07674	-0.068986	0.025313	9.769737	-0.006396	0.012180	-0.042683	0.999266	-0.000936	-0.000577	0.038299
07675	-0.074132	0.011862	9.771537	-0.010412	-0.001587	-0.040868	0.999266	-0.000935	-0.000577	0.038300
07676	-0.075358	0.014433	9.785886	-0.012068	0.000803	-0.026508	0.999266	-0.000935	-0.000594	0.038295
07677	-0.054470	0.020482	9.772091	0.008074	0.008397	-0.040430	0.999267	-0.000931	-0.000591	0.038277
07678	-0.048913	0.007238	9.804934	0.014667	-0.004612	-0.007641	0.999266	-0.000915	-0.000612	0.038279
07679	-0.060585	0.010135	9.788241	0.002697	-0.002855	-0.024254	0.999266	-0.000905	-0.000593	0.038300
07680	-0.058869	0.007771	9.773896	0.004636	-0.005131	-0.038614	0.999266	-0.000909	-0.000599	0.038300
07681	-0.046420	0.005343	9.790591	0.017203	-0.006661	-0.022002	0.999266	-0.000901	-0.000607	0.038302
07682	-0.073226	0.015701	9.785900	-0.010318	0.001510	-0.026506	0.999265	-0.000897	-0.000595	0.038307
07683	-0.052516	0.021702	9.772099	0.009816	0.009096	-0.040432	0.999265	-0.000901	-0.000603	0.038318
07684	-0.059007	0.010677	9.788250	0.004181	-0.002281	-0.024254	0.999265	-0.000910	-0.000608	0.038323
07685	-0.045230	0.005713	9.790597	0.018412	-0.006201	-0.022004	0.999265	-0.000899	-0.000594	0.038313
07686	-0.036559	0.014232	9.760102	0.026289	0.003016	-0.052543	0.999265	-0.000913	-0.000598	0.038312
07687	-0.058311	0.010904	9.788254	0.005075	-0.001947	-0.024255	0.999265	-0.000904	-0.000589	0.038323
07688	-0.056493	0.008639	9.773909	0.007003	-0.004223	-0.038615	0.999265	-0.000896	-0.000596	0.038314
07689	-0.060616	0.016501	9.816952	0.002410	0.003071	0.004465	0.999265	-0.000884	-0.000606	0.038320
07690	-0.070705	0.016704	9.785917	-0.007930	0.002431	-0.026504	0.999265	-0.000887	-0.000603	0.038331
07691	-0.049901	0.022681	9.772111	0.012253	0.009998	-0.040436	0.999264	-0.000885	-0.000609	0.038338
07692	-0.060199	-0.004216	9.775723	0.003900	-0.017650	-0.036795	0.999264	-0.000883	-0.000618	0.038345
07693	-0.068007	0.014509	9.771578	-0.005396	0.000375	-0.040863	0.999264	-0.000879	-0.000615	0.038339
07694	-0.038415	0.022932	9.803151	0.023796	0.011099	-0.009470	0.999265	-0.000891	-0.000606	0.038326
07695	-0.055543	0.011827	9.788269	0.007510	-0.001006	-0.024256	0.999265	-0.000906	-0.000609	0.038312
07696	-0.067444	0.014351	9.771582	-0.004461	0.000746	-0.040863	0.999265	-0.000905	-0.000586	0.038321
07697	-0.053658	0.009376	9.773924	0.009740	-0.003168	-0.038617	0.999265	-0.000904	-0.000602	0.038317
07698	-0.071385	0.022012	9.814628	-0.008739	0.008147	0.002218	0.999265	-0.000917	-0.000596	0.038316
07699	-0.066475	0.014411	9.771589	-0.003562	0.001088	-0.040863	0.999265	-0.000915	-0.000604	0.038322
07700	-0.056423	-0.006505	9.761389	0.007950	-0.019094	-0.051155	0.999265	-0.000906	-0.000601	0.038312
07701	-0.065559	0.014703	9.771594	-0.002963	0.001321	-0.040862	0.999264	-0.000914	-0.000629	0.038335
07702	-0.053205	0.012174	9.788282	0.009621	-0.000194	-0.024258	0.999264	-0.000913	-0.000605	0.038333
07703	-0.061127	0.030935	9.784138	0.000335	0.017840	-0.028326	0.999265	-0.000907	-0.000621	0.038311
07704	-0.069987	0.001648	9.773408	-0.006385	-0.012179	-0.039038	0.999265	-0.000898	-0.000611	0.038321
07705	-0.071366	0.004300	9.787756	-0.007709	-0.009678	-0.024678	0.999265	-0.000905	-0.000605	0.038315
07706	-0.060272	0.031403	9.784142	0.001225	0.018194	-0.028327	0.999265	-0.000898	-0.000614	0.038316
07707	-0.072213	0.007010	9.802109	-0.008747	-0.007041	-0.010317	0.999265	-0.000906	-0.000610	0.038320
07708	-0.058154	0.029063	9.769797	0.003441	0.016047	-0.042687	0.999265	-0.000897	-0.000608	0.038321
07709	-0.068641	0.002197	9.773418	-0.004902	-0.011582	-0.039037	0.999264	-0.000902	-0.000606	0.038341
07710	-0.050912	0.013180	9.788293	0.012016	0.000761	-0.024261	0.999264	-0.000903	-0.000610	0.038332
07711	-0.065684	0.020737	9.800307	-0.003230	0.007313	-0.012141	0.999265	-0.000917	-0.000605	0.038330
07712	-0.081167	0.007180	9.771090	-0.017913	-0.007189	-0.041276	0.999265	-0.000922	-0.000620	0.038318
07713	-0.048286	0.010540	9.773951	0.014489	-0.001241	-0.038622	0.999265	-0.000925	-0.000618	0.038327
07714	-0.068367	0.004782	9.787778	-0.005082	-0.008566	-0.024675	0.999265	-0.000919	-0.000628	0.038328
07715	-0.062528	0.018463	9.785970	-0.000478	0.005421	-0.026502	0.999265	-0.000916	-0.000636	0.038324
07716	-0.065955	0.002504	9.773436	-0.002905	-0.010762	-0.039035	0.999265	-0.000919	-0.000643	0.038328
07717	-0.060266	0.015999	9.771626	0.001714	0.003240	-0.040863	0.999265	-0.000926	-0.000638	0.038320
07718	-0.058411	0.013562	9.757281	0.003622	0.000976	-0.055223	0.999265	-0.000920	-0.000646	0.038320
07719	-0.061037	0.018653	9.785979	0.000680	0.005897	-0.026502	0.999265	-0.000934	-0.000650	0.038307
07720	-0.047268	0.013627	9.788310	0.014863	0.001984	-0.024265	0.999265	-0.000924	-0.000640	0.038318
07721	-0.089325	0.031587	9.795667	-0.028170	0.016596	-0.016616	0.999265	-0.000926	-0.000627	0.038328
07722	-0.067372	0.008014	9.802142	-0.004402	-0.005217	-0.010313	0.999264	-0.000925	-0.000636	0.038333
07723	-0.060101	0.019173	9.785984	0.001797	0.006392	-0.026503	0.999264	-0.000917	-0.000636	0.038333
07724	-0.063692	0.003345	9.773451	-0.000613	-0.009760	-0.039033	0.999264	-0.000915	-0.000634	0.038338
07725	-0.064857	0.005955	9.787801	-0.001947	-0.007233	-0.024673	0.999264	-0.000920	-0.000642	0.038349
07726	-0.066003	0.008612	9.802151	-0.003252	-0.004711	-0.010312	0.999263	-0.000912	-0.000641	0.038359
07727	-0.062803	0.003716	9.773456	0.000252	-0.009356	-0.039033	0.999264	-0.000915	-0.000628	0.038355
07728	-0.045238	0.014844	9.788318	0.017172	0.003008	-0.024269	0.999264	-0.000906	-0.000626	0.038355
07729	-0.058424	0.020070	9.785992	0.003532	0.007158	-0.026504	0.999264	-0.000910	-0.000634	0.038355
07730	-0.044656	0.015041	9.788321	0.017716	0.003244	-0.024270	0.999264	-0.000911	-0.000621	0.038354
07731	-0.057965	0.020184	9.785994	0.004096	0.007397	-0.026504	0.999264	-0.000914	-0.000628	0.038355
07732	-0.068398	-0.006725	9.789629	-0.004266	-0.020235	-0.022839	0.999264	-0.000911	-0.000625	0.038350
07733	-0.055966	0.017930	9.771649	0.006252	0.005247	-0.040865	0.999264	-0.000906	-0.000614	0.038343
07734	-0.062529	0.007057	9.787815	0.000616	-0.006112	-0.024672	0.999264	-0.000911	-0.000630	0.038344
07735	-0.060496	0.004524	9.773471	0.002506	-0.008391	-0.039032	0.999264	-0.000915	-0.000637	0.038344
07736	-0.070057	0.025619	9.783677	-0.008395	0.012040	-0.028737	0.999264	-0.000925	-0.000611	0.038342
07737	-0.048028	0.001975	9.790146	0.015403	-0.009791	-0.022440	0.999264	-0.000922	-0.000640	0.038355
07738	-0.048739	0.031569	9.769841	0.012066	0.019712	-0.042701	0.999263	-0.000929	-0.000635	0.038359
07739	-0.052384	0.015591	9.757312	0.009664	0.003553	-0.055228	0.999264	-0.000926	-0.000631	0.038353
07740	-0.074091	0.012359	9.785504	-0.011464	-0.001370	-0.026902	0.999264	-0.000928	-0.000626	0.038352
07741	-0.054805	0.020905	9.786011	0.007076	0.008584	-0.026507	0.999263	-0.000921	-0.000635	0.038364
07742	-0.071753	0.010190	9.771161	-0.009231	-0.003538	-0.041262	0.999264	-0.000912	-0.000640	0.038342
07743	-0.054205	0.021213	9.786014	0.007703	0.008816	-0.026507	0.999263	-0.000924	-0.000615	0.038361
07744	-0.054116	0.021076	9.786015	0.008016	0.008932	-0.026508	0.999264	-0.000937	-0.000618	0.038349
07745	-0.074222	0.015237	9.799862	-0.011502	0.001611	-0.012539	0.999263	-0.000929	-0.000616	0.038360
07746	-0.070942	0.010318	9.771167	-0.007980	-0.003074	-0.041261	0.999263	-0.000931	-0.000612	0.038360
07747	-0.050175	0.016224	9.757322	0.012164	0.004478	-0.055231	0.999263	-0.000935	-0.000618	0.038370
07748	-0.043089	0.000237	9.775814	0.020453	-0.010918	-0.036806	0.999263	-0.000933	-0.000624	0.038365
07749	-0.069920	0.010583	9.771174	-0.007041	-0.002726	-0.041260	0.999263	-0.000928	-0.000610	0.038359
07750	-0.056046	0.005588	9.773497	0.007175	-0.006649	-0.039033	0.999263	-0.000933	-0.000625	0.038359
07751	-0.063766	0.024188	9.769358	-0.002091	0.011380	-0.043098	0.999263	-0.000935	-0.000622	0.038369
07752	-0.056766	0.008276	9.787849	0.006200	-0.004015	-0.024673	0.999263	-0.000928	-0.000628	0.038359
07753	-0.062956	0.024570	9.769363	-0.001465	0.011612	-0.043098	0.999264	-0.000920	-0.000635	0.038349
07754	-0.061236	-0.004804	9.789677	0.002502	-0.017657	-0.022834	0.999264	-0.000918	-0.000642	0.038354
07755	-0.048624	0.019688	9.771685	0.013065	0.007804	-0.040874	0.999263	-0.000926	-0.000637	0.038359
07756	-0.053782	0.006182	9.773509	0.009053	-0.005954	-0.039035	0.999263	-0.000929	-0.000633	0.038369
07757	-0.064062	0.006230	9.742496	-0.001341	-0.006605	-0.069981	0.999262	-0.000932	-0.000630	0.038390
07758	-0.068213	0.013983	9.785544	-0.005823	0.000721	-0.026897	0.999263	-0.000923	-0.000636	0.038369
07759	-0.052724	0.006604	9.773514	0.009942	-0.005606	-0.039035	0.999263	-0.000916	-0.000645	0.038360
07760	-0.065805	0.011809	9.771201	-0.003689	-0.001441	-0.041258	0.999263	-0.000921	-0.000655	0.038382
07761	-0.046516	0.020285	9.771694	0.014829	0.008516	-0.040877	0.999262	-0.000919	-0.000653	0.038387
07762	-0.051746	0.006964	9.773519	0.010794	-0.005242	-0.039036	0.999263	-0.000914	-0.000640	0.038382
07763	-0.061156	0.028205	9.783729	-0.000100	0.015214	-0.028738	0.999263	-0.000918	-0.000647	0.038380
07764	-0.064659	0.012403	9.771208	-0.002517	-0.000948	-0.041258	0.999262	-0.000900	-0.000648	0.038392
07765	-0.045334	0.021035	9.771698	0.016026	0.009000	-0.040879	0.999262	-0.000904	-0.000654	0.038403
07766	-0.038382	0.004919	9.790188	0.024321	-0.006394	-0.022455	0.999262	-0.000916	-0.000647	0.038390
07767	-0.062334	0.010102	9.756865	0.000015	-0.003005	-0.055619	0.999262	-0.000906	-0.000635	0.038401
07768	-0.059547	0.028914	9.783737	0.001467	0.015794	-0.028739	0.999262	-0.000901	-0.000653	0.038402
07769	-0.066000	0.018032	9.799916	-0.004139	0.004442	-0.012534	0.999262	-0.000908	-0.000647	0.038395
07770	-0.049066	0.007831	9.773533	0.013260	-0.004295	-0.039038	0.999262	-0.000913	-0.000662	0.038396
07771	-0.065071	0.018006	9.799922	-0.003541	0.004694	-0.012534	0.999262	-0.000917	-0.000669	0.038394
07772	-0.048140	0.007805	9.773537	0.013834	-0.004042	-0.039039	0.999262	-0.000926	-0.000674	0.038389
07773	-0.068130	0.002017	9.787408	-0.005701	-0.011338	-0.025051	0.999262	-0.000919	-0.000683	0.038389
07774	-0.057031	0.029058	9.783752	0.003260	0.016537	-0.028741	0.999263	-0.000932	-0.000675	0.038375
07775	-0.063780	0.018177	9.799931	-0.002370	0.005199	-0.012534	0.999262	-0.000923	-0.000665	0.038385
07776	-0.048362	0.010777	9.787892	0.013419	-0.001118	-0.024679	0.999262	-0.000918	-0.000684	0.038385
07777	-0.066859	0.002450	9.787416	-0.004514	-0.010833	-0.025050	0.999263	-0.000925	-0.000678	0.038380
07778	-0.067895	0.032055	9.767100	-0.007889	0.018669	-0.045320	0.999262	-0.000922	-0.000677	0.038385
07779	-0.047443	0.011068	9.787896	0.014284	-0.000753	-0.024680	0.999263	-0.000919	-0.000674	0.038379
07780	-0.043293	0.027210	9.800416	0.017309	0.015631	-0.012166	0.999262	-0.000922	-0.000672	0.038391
07781	-0.062179	0.018959	9.799939	-0.000833	0.006775	-0.012535	0.999261	-0.000958	-0.000657	0.038407
07782	-0.077956	0.005700	9.770766	-0.015591	-0.007750	-0.041624	0.999261	-0.000953	-0.000667	0.038430
07783	-0.056965	0.011764	9.756896	0.004513	-0.000209	-0.055619	0.999261	-0.000946	-0.000685	0.038410
07784	-0.044473	0.009341	9.773553	0.017129	-0.001714	-0.039044	0.999261	-0.000950	-0.000682	0.038420
07785	-0.063130	0.001084	9.773082	-0.000819	-0.011413	-0.039408	0.999261	-0.000943	-0.000682	0.038430
07786	-0.058827	0.017413	9.785600	0.002236	0.004993	-0.026897	0.999261	-0.000930	-0.000690	0.038425
07787	-0.050213	-0.000946	9.789741	0.012097	-0.012786	-0.022833	0.999261	-0.000929	-0.000698	0.038418
07788	-0.044485	0.012643	9.787908	0.016726	0.001204	-0.024684	0.999261	-0.000931	-0.000694	0.038418
07789	-0.061500	0.001712	9.773092	0.000364	-0.010902	-0.039408	0.999261	-0.000938	-0.000711	0.038429
07790	-0.095109	0.001104	9.784672	-0.033078	-0.014143	-0.027619	0.999262	-0.000927	-0.000699	0.038406
07791	-0.076028	0.009688	9.785141	-0.014535	-0.004201	-0.027258	0.999261	-0.000930	-0.000695	0.038417
07792	-0.077352	0.012411	9.799492	-0.015807	-0.001656	-0.012896	0.999262	-0.000920	-0.000682	0.038404
07793	-0.045448	-0.005174	9.761051	0.017046	-0.016849	-0.051558	0.999261	-0.000916	-0.000701	0.038415
07794	-0.075022	0.010280	9.785148	-0.013626	-0.003810	-0.027256	0.999261	-0.000912	-0.000698	0.038409
07795	-0.073196	0.007884	9.770801	-0.011750	-0.006099	-0.041618	0.999262	-0.000911	-0.000705	0.038404
07796	-0.068851	0.024000	9.783317	-0.008714	0.010312	-0.029108	0.999262	-0.000915	-0.000712	0.038403
07797	-0.054897	0.018930	9.785620	0.005484	0.006409	-0.026899	0.999262	-0.000919	-0.000717	0.038389
07798	-0.066727	0.021539	9.768971	-0.006545	0.008164	-0.043470	0.999262	-0.000920	-0.000704	0.038399
07799	-0.052950	0.016490	9.771273	0.007639	0.004252	-0.041261	0.999262	-0.000925	-0.000712	0.038398
07800	-0.072814	0.010743	9.785165	-0.011871	-0.003043	-0.027254	0.999262	-0.000919	-0.000730	0.038400
07801	-0.055852	0.000722	9.758767	0.005495	-0.011806	-0.053769	0.999262	-0.000916	-0.000727	0.038407
07802	-0.053085	0.019283	9.785629	0.006966	0.007028	-0.026900	0.999261	-0.000932	-0.000732	0.038415
07803	-0.066226	0.024300	9.783334	-0.006661	0.011213	-0.029108	0.999262	-0.000936	-0.000738	0.038403
07804	-0.071285	0.010900	9.785176	-0.010704	-0.002529	-0.027252	0.999261	-0.000933	-0.000736	0.038407
07805	-0.051972	0.019474	9.785635	0.007845	0.007411	-0.026901	0.999261	-0.000927	-0.000745	0.038419
07806	-0.036508	0.011949	9.773583	0.023638	0.001066	-0.039057	0.999261	-0.000930	-0.000750	0.038408
07807	-0.054337	0.024765	9.814337	0.005320	0.012474	0.001822	0.999261	-0.000930	-0.000726	0.038417
07808	-0.045887	0.033138	9.783797	0.013116	0.021632	-0.028759	0.999262	-0.000943	-0.000728	0.038404
07809	-0.075108	-0.002288	9.787028	-0.013472	-0.015811	-0.025393	0.999261	-0.000943	-0.000745	0.038411
07810	-0.081337	0.013826	9.768545	-0.021157	-0.000192	-0.043817	0.999261	-0.000945	-0.000741	0.038410
07811	-0.048520	0.017204	9.771295	0.011296	0.005698	-0.041265	0.999261	-0.000944	-0.000748	0.038416
07812	-0.051039	0.022318	9.799997	0.008462	0.010646	-0.012542	0.999261	-0.000952	-0.000751	0.038410
07813	-0.081626	0.016508	9.782905	-0.021793	0.002576	-0.029453	0.999262	-0.000950	-0.000758	0.038404
07814	-0.066052	0.009010	9.770851	-0.006020	-0.003767	-0.041611	0.999261	-0.000946	-0.000777	0.038417
07815	-0.067000	0.011559	9.785205	-0.007303	-0.001230	-0.027249	0.999261	-0.000959	-0.000780	0.038405
07816	-0.044704	0.014875	9.756955	0.014369	0.003890	-0.055630	0.999261	-0.000954	-0.000790	0.038416
