// General information: 
//  MT Manager version: 2021.0.0 
//  XDA version: 2021.0.0 build 5908 rev 109668 built on 2021-04-19
// Device information: 
//  DeviceId: 00B43DED
//  ProductCode: MTW2-3A7G6
//  Firmware Version: 4.3.5
//  Hardware Version: 1.1.0
// Device settings: 
//  Filter Profile: human(46.1)
//  Option Flags: Orientation Smoother Disabled, Position/Velocity Smoother Disabled, Continuous Zero Rotation Update Disabled, AHS Disabled, ICC Disabled
// Coordinate system: ENU
PacketCounter	Acc_X	Acc_Y	Acc_Z	FreeAcc_E	FreeAcc_N	FreeAcc_U	Quat_q0	Quat_q1	Quat_q2	Quat_q3
07551	-0.021468	0.059624	9.805685	0.124165	0.024450	-0.007614	-0.999976	0.002703	-0.005857	0.002360
07552	-0.001996	0.063538	9.864504	0.144263	0.027785	0.050927	-0.999977	0.002677	-0.005854	0.002354
07553	-0.009717	0.071499	9.833562	0.136135	0.035839	0.020132	-0.999976	0.002693	-0.005860	0.002370
07554	-0.022863	0.063923	9.834629	0.123081	0.028391	0.021365	-0.999976	0.002692	-0.005858	0.002363
07555	-0.036025	0.058757	9.850166	0.110070	0.023237	0.037077	-0.999976	0.002689	-0.005859	0.002372
07556	-0.009068	0.040838	9.853095	0.136897	0.005211	0.039544	-0.999976	0.002694	-0.005851	0.002382
07557	-0.011278	0.068486	9.819093	0.134188	0.032977	0.005679	-0.999976	0.002689	-0.005846	0.002376
07558	-0.017246	0.053286	9.851097	0.128699	0.017448	0.037713	-0.999976	0.002671	-0.005854	0.002383
07559	-0.005175	0.065055	9.878980	0.141244	0.028861	0.065456	-0.999977	0.002670	-0.005849	0.002370
07560	-0.025077	0.061112	9.820154	0.120337	0.025131	0.006919	-0.999977	0.002662	-0.005837	0.002351
07561	-0.012866	0.072858	9.848038	0.132883	0.036572	0.034664	-0.999977	0.002652	-0.005840	0.002358
07562	-0.005970	0.060262	9.850036	0.139673	0.023858	0.036515	-0.999977	0.002653	-0.005834	0.002332
07563	-0.026528	0.065430	9.849098	0.119148	0.029132	0.035899	-0.999977	0.002649	-0.005842	0.002355
07564	-0.014383	0.072666	9.848037	0.131290	0.036247	0.034686	-0.999977	0.002647	-0.005834	0.002356
07565	-0.047400	0.072971	9.862628	0.098240	0.036453	0.049768	-0.999977	0.002632	-0.005813	0.002352
07566	-0.027673	0.067732	9.863567	0.117909	0.030860	0.050398	-0.999977	0.002625	-0.005821	0.002350
07567	-0.008023	0.057872	9.835562	0.137083	0.020889	0.022071	-0.999977	0.002617	-0.005823	0.002327
07568	-0.015898	0.070306	9.833563	0.129313	0.033303	0.020233	-0.999977	0.002616	-0.005825	0.002312
07569	-0.021784	0.052650	9.851092	0.123526	0.015644	0.037782	-0.999977	0.002618	-0.005818	0.002341
07570	-0.014892	0.040058	9.853091	0.130340	0.002952	0.039634	-0.999977	0.002611	-0.005818	0.002351
07571	-0.029825	0.060504	9.820145	0.115067	0.023524	0.006987	-0.999977	0.002612	-0.005818	0.002359
07572	-0.010396	0.057391	9.835563	0.134869	0.020170	0.022103	-0.999977	0.002605	-0.005831	0.002385
07573	-0.018299	0.072132	9.848035	0.127306	0.034725	0.034744	-0.999977	0.002596	-0.005830	0.002395
07574	-0.018548	0.069861	9.833561	0.126711	0.032354	0.020270	-0.999977	0.002586	-0.005822	0.002381
07575	-0.018807	0.067524	9.819088	0.126054	0.030004	0.005796	-0.999977	0.002587	-0.005816	0.002362
07576	-0.011879	0.059368	9.850036	0.133151	0.021740	0.036611	-0.999977	0.002589	-0.005794	0.002385
07577	-0.024910	0.052045	9.851088	0.119926	0.014386	0.037829	-0.999977	0.002581	-0.005801	0.002377
07578	-0.007465	0.076691	9.832510	0.137379	0.038995	0.019088	-0.999977	0.002585	-0.005810	0.002359
07579	-0.013414	0.056798	9.835563	0.131446	0.019115	0.022152	-0.999977	0.002579	-0.005808	0.002372
07580	-0.013846	0.059045	9.850035	0.131050	0.021202	0.036640	-0.999977	0.002575	-0.005791	0.002377
07581	-0.001229	0.061706	9.820040	0.143099	0.023814	0.006475	-0.999977	0.002571	-0.005787	0.002366
07582	-0.014393	0.056726	9.835562	0.130006	0.018633	0.022172	-0.999977	0.002555	-0.005784	0.002349
07583	-0.009271	0.076498	9.832510	0.134960	0.038242	0.019124	-0.999977	0.002554	-0.005762	0.002350
07584	-0.027783	0.051546	9.851083	0.116572	0.013278	0.037871	-0.999977	0.002555	-0.005778	0.002331
07585	-0.002958	0.063626	9.834515	0.141455	0.025313	0.020984	-0.999977	0.002551	-0.005787	0.002339
07586	-0.016178	0.058619	9.850034	0.128417	0.020092	0.036677	-0.999977	0.002537	-0.005778	0.002322
07587	-0.029210	0.049046	9.836606	0.114999	0.010576	0.023407	-0.999977	0.002539	-0.005779	0.002318
07588	-0.004369	0.063456	9.834516	0.139885	0.024867	0.021008	-0.999977	0.002535	-0.005776	0.002345
07589	-0.030201	0.051098	9.851078	0.114074	0.012520	0.037901	-0.999978	0.002539	-0.005762	0.002313
07590	-0.025109	0.066366	9.819082	0.118878	0.027719	0.005892	-0.999977	0.002517	-0.005780	0.002361
07591	-0.005981	0.067793	9.863462	0.138678	0.028815	0.049993	-0.999977	0.002531	-0.005774	0.002336
07592	-0.019332	0.060287	9.864505	0.125508	0.021477	0.051199	-0.999977	0.002529	-0.005795	0.002352
07593	-0.026886	0.068235	9.833553	0.117359	0.029554	0.020395	-0.999977	0.002525	-0.005764	0.002347
07594	-0.007190	0.065108	9.848991	0.136978	0.026233	0.035534	-0.999977	0.002527	-0.005759	0.002343
07595	-0.020344	0.057672	9.850032	0.123713	0.018934	0.036740	-0.999978	0.002532	-0.005757	0.002333
07596	-0.008081	0.062625	9.834519	0.135779	0.023733	0.021068	-0.999978	0.002514	-0.005758	0.002311
07597	-0.001701	0.056833	9.879944	0.142859	0.017685	0.066372	-0.999977	0.002522	-0.005766	0.002344
07598	-0.016655	0.074986	9.832512	0.127482	0.036115	0.019232	-0.999977	0.002519	-0.005772	0.002348
07599	-0.009678	0.062489	9.834518	0.134240	0.023377	0.021090	-0.999978	0.002503	-0.005750	0.002330
07600	-0.022807	0.057558	9.850027	0.121090	0.018282	0.036773	-0.999978	0.002500	-0.005751	0.002339
07601	-0.003236	0.049922	9.836525	0.140457	0.010612	0.022956	-0.999978	0.002502	-0.005750	0.002374
07602	-0.031068	0.067791	9.833544	0.112609	0.028370	0.020454	-0.999978	0.002481	-0.005749	0.002320
07603	-0.051445	0.073164	9.832569	0.092186	0.033625	0.019799	-0.999978	0.002476	-0.005737	0.002333
07604	-0.024580	0.055245	9.835550	0.118962	0.015453	0.022317	-0.999978	0.002472	-0.005747	0.002303
07605	-0.006877	0.079882	9.817000	0.136413	0.040077	0.003611	-0.999978	0.002471	-0.005732	0.002301
07606	-0.012928	0.064547	9.848989	0.130643	0.024620	0.035624	-0.999978	0.002469	-0.005734	0.002296
07607	-0.025726	0.050271	9.806603	0.117125	0.010717	-0.006628	-0.999978	0.002487	-0.005723	0.002310
07608	-0.006671	0.053759	9.865473	0.137038	0.014000	0.051973	-0.999978	0.002480	-0.005735	0.002309
07609	-0.021973	0.080977	9.875928	0.122084	0.041230	0.062757	-0.999978	0.002487	-0.005730	0.002313
07610	0.005455	0.053951	9.821024	0.148364	0.014285	0.007355	-0.999978	0.002480	-0.005713	0.002301
07611	-0.015157	0.063725	9.848991	0.128137	0.023927	0.035659	-0.999978	0.002475	-0.005720	0.002289
07612	-0.008280	0.048900	9.836527	0.134829	0.009054	0.023037	-0.999978	0.002470	-0.005720	0.002324
07613	-0.023451	0.078364	9.861454	0.119926	0.038533	0.048301	-0.999978	0.002479	-0.005702	0.002317
07614	-0.003724	0.068428	9.833490	0.139236	0.028518	0.020014	-0.999978	0.002466	-0.005717	0.002306
07615	-0.016990	0.061264	9.834516	0.125959	0.021252	0.021204	-0.999978	0.002457	-0.005708	0.002312
07616	-0.010155	0.050905	9.851000	0.132770	0.010755	0.037549	-0.999978	0.002462	-0.005696	0.002316
07617	-0.017697	0.061013	9.834516	0.124907	0.021038	0.021218	-0.999978	0.002465	-0.005691	0.002344
07618	-0.018120	0.063117	9.848990	0.124429	0.023095	0.035709	-0.999978	0.002465	-0.005673	0.002316
07619	0.001643	0.055468	9.835503	0.143779	0.015394	0.021909	-0.999978	0.002460	-0.005670	0.002343
07620	-0.031377	0.051298	9.821066	0.110504	0.011363	0.007935	-0.999978	0.002458	-0.005666	0.002366
07621	-0.019118	0.062875	9.848990	0.122879	0.022821	0.035729	-0.999978	0.002466	-0.005640	0.002365
07622	-0.012198	0.050090	9.851002	0.129579	0.010136	0.037592	-0.999978	0.002473	-0.005647	0.002385
07623	-0.007132	0.065288	9.819020	0.134223	0.025389	0.005602	-0.999978	0.002461	-0.005640	0.002360
07624	-0.007872	0.071999	9.862441	0.133882	0.031856	0.049060	-0.999978	0.002466	-0.005623	0.002333
07625	-0.033612	0.055233	9.850010	0.107808	0.015185	0.036933	-0.999978	0.002455	-0.005625	0.002318
07626	-0.001376	0.054807	9.835507	0.139858	0.014585	0.021967	-0.999978	0.002456	-0.005627	0.002316
07627	-0.021862	0.060031	9.834514	0.119292	0.019893	0.021290	-0.999979	0.002452	-0.005617	0.002299
07628	-0.009467	0.067085	9.833495	0.131402	0.026918	0.020126	-0.999979	0.002459	-0.005598	0.002261
07629	-0.022779	0.062075	9.848987	0.118188	0.021872	0.035788	-0.999979	0.002446	-0.005606	0.002287
07630	-0.023247	0.062144	9.848985	0.117507	0.021758	0.035797	-0.999979	0.002442	-0.005581	0.002256
07631	-0.003809	0.059040	9.864455	0.137000	0.018353	0.050977	-0.999979	0.002433	-0.005586	0.002223
07632	0.001393	0.076476	9.846951	0.141824	0.035715	0.033475	-0.999979	0.002430	-0.005559	0.002186
07633	-0.024308	0.059693	9.834510	0.115693	0.019053	0.021335	-0.999979	0.002426	-0.005569	0.002146
07634	-0.005102	0.056647	9.849982	0.135181	0.015682	0.036518	-0.999979	0.002411	-0.005567	0.002135
07635	-0.025518	0.062029	9.848981	0.114615	0.021034	0.035832	-0.999979	0.002411	-0.005552	0.002150
07636	-0.005783	0.054134	9.835509	0.133916	0.013274	0.022052	-0.999979	0.002430	-0.005546	0.002134
07637	-0.038968	0.051907	9.835522	0.100630	0.011426	0.022527	-0.999979	0.002435	-0.005542	0.002112
07638	0.000209	0.043400	9.852000	0.140094	0.002626	0.038411	-0.999979	0.002423	-0.005555	0.002105
07639	-0.014697	0.066255	9.833494	0.124984	0.025438	0.020214	-0.999980	0.002419	-0.005535	0.002073
07640	-0.014812	0.066161	9.833495	0.124372	0.025316	0.020222	-0.999980	0.002417	-0.005510	0.002039
07641	-0.015124	0.066001	9.833495	0.123724	0.025255	0.020230	-0.999980	0.002425	-0.005503	0.002039
07642	-0.015751	0.068085	9.847970	0.123325	0.027274	0.034720	-0.999980	0.002422	-0.005503	0.002026
07643	-0.015874	0.061164	9.804548	0.122608	0.020551	-0.008724	-0.999980	0.002426	-0.005506	0.002025
07644	-0.029070	0.056084	9.820031	0.109449	0.015421	0.006925	-0.999980	0.002419	-0.005490	0.002008
07645	-0.009565	0.055335	9.849986	0.129107	0.014286	0.036602	-0.999980	0.002403	-0.005478	0.002039
07646	-0.016906	0.065607	9.833495	0.121162	0.024602	0.020264	-0.999980	0.002414	-0.005454	0.002042
07647	-0.017566	0.069949	9.862443	0.120818	0.028826	0.049238	-0.999980	0.002406	-0.005462	0.002029
07648	-0.010308	0.050589	9.821038	0.127257	0.009545	0.007657	-0.999980	0.002405	-0.005439	0.002015
07649	-0.031078	0.060423	9.848975	0.106837	0.019285	0.035923	-0.999980	0.002398	-0.005456	0.002028
07650	0.000957	0.062250	9.848980	0.139090	0.020837	0.035485	-0.999980	0.002393	-0.005453	0.002026
07651	-0.012206	0.054974	9.849985	0.125772	0.013581	0.036646	-0.999980	0.002393	-0.005449	0.002022
07652	-0.032648	0.057973	9.834496	0.105199	0.016633	0.021457	-0.999980	0.002389	-0.005457	0.001984
07653	-0.020578	0.065278	9.833490	0.117351	0.023702	0.020312	-0.999980	0.002367	-0.005459	0.002013
07654	-0.020855	0.065355	9.833489	0.116737	0.023610	0.020320	-0.999980	0.002372	-0.005424	0.001994
07655	-0.020984	0.065152	9.833490	0.116153	0.023519	0.020327	-0.999981	0.002378	-0.005411	0.002003
07656	-0.008886	0.074485	9.846962	0.128387	0.032750	0.033669	-0.999981	0.002373	-0.005415	0.002010
07657	-0.022180	0.067295	9.847963	0.115070	0.025486	0.034825	-0.999981	0.002367	-0.005410	0.002010
07658	-0.022539	0.064937	9.833488	0.114447	0.023145	0.020348	-0.999981	0.002370	-0.005408	0.001988
07659	-0.035616	0.057618	9.834488	0.101128	0.015896	0.021501	-0.999981	0.002366	-0.005389	0.001983
07660	-0.010560	0.074123	9.846963	0.126101	0.032233	0.033700	-0.999981	0.002370	-0.005375	0.001965
07661	-0.016223	0.052168	9.835508	0.120027	0.010244	0.022234	-0.999981	0.002352	-0.005368	0.002023
07662	-0.016599	0.054413	9.849981	0.119521	0.012302	0.036726	-0.999981	0.002361	-0.005345	0.002014
07663	-0.029595	0.044818	9.836505	0.106161	0.002782	0.023391	-0.999981	0.002351	-0.005352	0.001980
07664	-0.012043	0.073777	9.846964	0.123934	0.031756	0.033730	-0.999981	0.002369	-0.005342	0.001981
07665	-0.025083	0.064204	9.833487	0.110669	0.022323	0.020393	-0.999981	0.002355	-0.005346	0.002003
07666	-0.005900	0.061124	9.848985	0.130193	0.018916	0.035610	-0.999981	0.002352	-0.005359	0.002012
07667	-0.019061	0.051692	9.835505	0.116835	0.009385	0.022274	-0.999981	0.002337	-0.005351	0.001965
07668	-0.014076	0.071333	9.832489	0.121863	0.029051	0.019272	-0.999981	0.002348	-0.005357	0.002000
07669	-0.001760	0.078296	9.831496	0.134062	0.036047	0.018141	-0.999981	0.002349	-0.005340	0.001979
07670	-0.013075	0.038666	9.837527	0.122478	-0.003545	0.024161	-0.999981	0.002348	-0.005337	0.001979
07671	-0.020756	0.051214	9.835504	0.114672	0.009010	0.022300	-0.999981	0.002342	-0.005327	0.002005
07672	-0.015639	0.073316	9.846963	0.119686	0.030811	0.033785	-0.999981	0.002329	-0.005302	0.001988
07673	-0.021478	0.053437	9.849977	0.113552	0.010986	0.036798	-0.999981	0.002345	-0.005303	0.001989
07674	-0.016595	0.072958	9.846964	0.118433	0.030597	0.033801	-0.999981	0.002340	-0.005299	0.001978
07675	-0.015427	0.042758	9.866474	0.119743	0.000290	0.053165	-0.999981	0.002344	-0.005293	0.001983
07676	-0.010019	0.057820	9.834514	0.124648	0.015559	0.021199	-0.999981	0.002347	-0.005288	0.002000
07677	-0.023160	0.052710	9.849977	0.111354	0.010524	0.036823	-0.999981	0.002353	-0.005264	0.002002
07678	-0.018121	0.074552	9.861440	0.116336	0.032356	0.048312	-0.999981	0.002353	-0.005258	0.001998
07679	0.001591	0.066747	9.848002	0.135691	0.024604	0.034576	-0.999981	0.002360	-0.005246	0.002013
07680	-0.011631	0.061747	9.863464	0.122490	0.019522	0.050197	-0.999981	0.002349	-0.005239	0.002010
07681	-0.011845	0.057085	9.834516	0.121789	0.015056	0.021236	-0.999981	0.002365	-0.005242	0.002005
07682	-0.005224	0.046450	9.851015	0.128521	0.004478	0.037599	-0.999982	0.002367	-0.005230	0.001988
07683	-0.019996	0.069272	9.832493	0.113459	0.027458	0.019377	-0.999982	0.002362	-0.005230	0.001998
07684	-0.013191	0.056677	9.834516	0.120092	0.014795	0.021257	-0.999982	0.002364	-0.005216	0.002031
07685	-0.033654	0.061973	9.833476	0.099522	0.020193	0.020517	-0.999982	0.002366	-0.005219	0.002021
07686	-0.014243	0.056311	9.834517	0.118943	0.014562	0.021271	-0.999982	0.002378	-0.005214	0.002007
07687	-0.014666	0.058315	9.848993	0.118517	0.016619	0.035762	-0.999982	0.002376	-0.005195	0.002008
07688	0.004914	0.052854	9.850035	0.137867	0.011060	0.036520	-0.999982	0.002373	-0.005198	0.002019
07689	-0.022747	0.068677	9.832491	0.110134	0.026881	0.019417	-0.999982	0.002359	-0.005200	0.002025
07690	-0.023337	0.070842	9.846966	0.109679	0.028950	0.033907	-0.999982	0.002370	-0.005191	0.002023
07691	-0.016765	0.060282	9.863466	0.116430	0.018362	0.050273	-0.999982	0.002368	-0.005200	0.002004
07692	-0.016935	0.055851	9.834515	0.115840	0.013824	0.021309	-0.999982	0.002347	-0.005189	0.001990
07693	-0.017179	0.055838	9.834515	0.115268	0.013700	0.021316	-0.999982	0.002354	-0.005171	0.001962
07694	-0.012308	0.077715	9.845986	0.120256	0.035651	0.032814	-0.999982	0.002354	-0.005178	0.002042
07695	-0.018052	0.053405	9.820040	0.113993	0.011471	0.006846	-0.999982	0.002360	-0.005164	0.002041
07696	-0.005977	0.064865	9.848013	0.126245	0.022859	0.034705	-0.999982	0.002364	-0.005153	0.002024
07697	-0.019086	0.055490	9.834514	0.112860	0.013484	0.021344	-0.999982	0.002348	-0.005156	0.002048
07698	-0.019750	0.057824	9.848987	0.112333	0.015588	0.035836	-0.999982	0.002347	-0.005147	0.002053
07699	-0.007494	0.064923	9.848012	0.124488	0.022616	0.034728	-0.999982	0.002346	-0.005146	0.002039
07700	0.004780	0.069798	9.832563	0.136533	0.027442	0.019138	-0.999982	0.002341	-0.005146	0.002016
07701	-0.008619	0.064716	9.848012	0.123155	0.022464	0.034745	-0.999982	0.002355	-0.005129	0.002007
07702	-0.028979	0.070041	9.846956	0.102600	0.027878	0.033987	-0.999982	0.002343	-0.005121	0.002006
07703	-0.022001	0.055430	9.834508	0.109144	0.012944	0.021387	-0.999982	0.002321	-0.005108	0.001996
07704	-0.002409	0.050068	9.835565	0.128557	0.007331	0.022162	-0.999982	0.002324	-0.005101	0.001987
07705	0.002886	0.067510	9.818090	0.133507	0.024808	0.004696	-0.999982	0.002318	-0.005091	0.002002
07706	-0.017666	0.075164	9.831505	0.113028	0.032343	0.018418	-0.999982	0.002315	-0.005087	0.001970
07707	-0.016578	0.045005	9.851009	0.114027	0.002112	0.037778	-0.999983	0.002314	-0.005073	0.001958
07708	0.001548	0.069487	9.832566	0.131719	0.026678	0.019206	-0.999983	0.002323	-0.005054	0.001936
07709	-0.019100	0.077137	9.845979	0.111270	0.034277	0.032924	-0.999983	0.002307	-0.005069	0.001947
07710	-0.004882	0.047447	9.821091	0.125001	0.004555	0.007723	-0.999983	0.002315	-0.005052	0.001922
07711	-0.018124	0.044601	9.851008	0.111712	0.001749	0.037805	-0.999983	0.002316	-0.005027	0.001921
07712	-0.012977	0.064285	9.848010	0.116595	0.021430	0.034828	-0.999983	0.002314	-0.005025	0.001918
07713	-0.013293	0.062041	9.833535	0.115930	0.019154	0.020350	-0.999983	0.002309	-0.005008	0.001889
07714	-0.007996	0.079362	9.816064	0.120772	0.036671	0.002889	-0.999983	0.002325	-0.004999	0.001885
07715	-0.007000	0.049054	9.835567	0.121757	0.006461	0.022249	-0.999983	0.002328	-0.004991	0.001887
07716	-0.014707	0.061475	9.833536	0.113941	0.018971	0.020374	-0.999983	0.002334	-0.004985	0.001861
07717	-0.007947	0.048754	9.835568	0.120492	0.006268	0.022265	-0.999983	0.002332	-0.004972	0.001876
07718	-0.028404	0.056431	9.848974	0.099949	0.013949	0.035972	-0.999983	0.002330	-0.004955	0.001881
07719	-0.003211	0.068472	9.832573	0.124919	0.025846	0.019297	-0.999983	0.002324	-0.004962	0.001874
07720	-0.016710	0.063505	9.848010	0.111557	0.020889	0.034887	-0.999983	0.002328	-0.004955	0.001865
07721	-0.030115	0.058548	9.863445	0.098259	0.015898	0.050475	-0.999983	0.002324	-0.004950	0.001878
07722	-0.030466	0.058427	9.863444	0.097762	0.015776	0.050480	-0.999983	0.002331	-0.004937	0.001887
07723	-0.010487	0.048336	9.835568	0.117086	0.005806	0.022306	-0.999983	0.002329	-0.004928	0.001888
07724	-0.005653	0.072499	9.861525	0.122112	0.029821	0.048305	-0.999983	0.002328	-0.004916	0.001881
07725	-0.018604	0.062929	9.848010	0.108752	0.020499	0.034919	-0.999983	0.002343	-0.004905	0.001898
07726	-0.031634	0.053471	9.834492	0.095356	0.011174	0.021533	-0.999983	0.002331	-0.004902	0.001913
07727	-0.019528	0.060708	9.833533	0.107470	0.018201	0.020448	-0.999983	0.002326	-0.004907	0.001898
07728	-0.007294	0.065732	9.818099	0.119592	0.023044	0.004879	-0.999983	0.002311	-0.004907	0.001910
07729	-0.013530	0.050473	9.850040	0.113419	0.007640	0.036835	-0.999984	0.002322	-0.004878	0.001919
07730	-0.033433	0.053549	9.834486	0.092862	0.010866	0.021557	-0.999984	0.002316	-0.004858	0.001888
07731	-0.020959	0.060698	9.833530	0.104919	0.017898	0.020476	-0.999984	0.002310	-0.004840	0.001878
07732	-0.001644	0.057532	9.849084	0.124235	0.014516	0.035771	-0.999984	0.002307	-0.004836	0.001890
07733	-0.027692	0.043241	9.850992	0.098098	0.000282	0.037950	-0.999984	0.002309	-0.004831	0.001897
07734	-0.009700	0.067629	9.832575	0.115807	0.024865	0.019411	-0.999984	0.002324	-0.004825	0.001888
07735	-0.002958	0.054890	9.834611	0.122356	0.012198	0.021309	-0.999984	0.002319	-0.004812	0.001907
07736	-0.016484	0.049835	9.850039	0.108891	0.007204	0.036887	-0.999984	0.002335	-0.004817	0.001886
07737	-0.031540	0.077057	9.860441	0.094107	0.034506	0.047596	-0.999984	0.002329	-0.004803	0.001882
07738	-0.018853	0.079740	9.830539	0.106375	0.037083	0.017548	-0.999984	0.002316	-0.004812	0.001885
07739	-0.019342	0.079631	9.830539	0.105905	0.036935	0.017553	-0.999984	0.002325	-0.004805	0.001875
07740	-0.025243	0.059634	9.833526	0.099821	0.017069	0.020531	-0.999984	0.002328	-0.004798	0.001871
07741	-0.012969	0.066649	9.832578	0.112128	0.024002	0.019456	-0.999984	0.002321	-0.004807	0.001868
07742	-0.006232	0.053907	9.834615	0.118819	0.011216	0.021353	-0.999984	0.002327	-0.004795	0.001851
07743	0.006379	0.058825	9.819193	0.131110	0.015969	0.005795	-0.999984	0.002302	-0.004793	0.001846
07744	-0.034534	0.074258	9.845959	0.090791	0.031294	0.033144	-0.999984	0.002312	-0.004815	0.001845
07745	-0.026319	0.029020	9.853019	0.099019	-0.013848	0.039902	-0.999984	0.002318	-0.004803	0.001853
07746	-0.015280	0.066078	9.832578	0.109774	0.023260	0.019484	-0.999984	0.002313	-0.004798	0.001843
07747	0.004220	0.060453	9.833673	0.129242	0.017549	0.020307	-0.999984	0.002317	-0.004800	0.001833
07748	-0.029163	0.060948	9.847997	0.096064	0.018065	0.035056	-0.999984	0.002309	-0.004800	0.001836
07749	-0.029355	0.058776	9.833520	0.095580	0.015741	0.020575	-0.999984	0.002295	-0.004790	0.001825
07750	-0.022558	0.046178	9.835558	0.102265	0.002953	0.022473	-0.999984	0.002293	-0.004791	0.001821
07751	-0.004628	0.072996	9.831634	0.120202	0.029595	0.018440	-0.999984	0.002282	-0.004786	0.001817
07752	-0.023135	0.043964	9.821081	0.101310	0.000483	0.007997	-0.999984	0.002273	-0.004776	0.001825
07753	-0.005754	0.077438	9.860585	0.119281	0.033650	0.047424	-0.999984	0.002275	-0.004783	0.001803
07754	-0.031560	0.060829	9.847990	0.093049	0.017348	0.035086	-0.999984	0.002280	-0.004765	0.001845
07755	0.000846	0.060101	9.833676	0.125107	0.016644	0.020362	-0.999984	0.002285	-0.004766	0.001855
07756	-0.012685	0.055167	9.849090	0.111716	0.011701	0.035925	-0.999984	0.002282	-0.004759	0.001868
07757	-0.012810	0.052775	9.834615	0.111063	0.009467	0.021446	-0.999984	0.002295	-0.004733	0.001868
07758	-0.012979	0.052600	9.834616	0.110392	0.009449	0.021454	-0.999985	0.002296	-0.004709	0.001881
07759	-0.033206	0.058114	9.833512	0.089823	0.014965	0.020631	-0.999985	0.002290	-0.004696	0.001880
07760	-0.001025	0.059635	9.833679	0.121912	0.016387	0.020403	-0.999985	0.002299	-0.004699	0.001868
07761	-0.014297	0.052356	9.834615	0.108437	0.009284	0.021475	-0.999985	0.002301	-0.004679	0.001873
07762	-0.009405	0.076478	9.860589	0.113495	0.033247	0.047494	-0.999985	0.002299	-0.004669	0.001855
07763	-0.034934	0.057655	9.833508	0.087344	0.014735	0.020653	-0.999985	0.002308	-0.004656	0.001887
07764	-0.022784	0.066919	9.847049	0.099517	0.023927	0.034083	-0.999985	0.002303	-0.004653	0.001894
07765	-0.016067	0.054166	9.849090	0.106100	0.011212	0.035987	-0.999985	0.002316	-0.004642	0.001905
07766	-0.016449	0.051929	9.834614	0.105516	0.008983	0.021508	-0.999985	0.002297	-0.004653	0.001934
07767	-0.024432	0.067000	9.847044	0.097768	0.023766	0.034101	-0.999985	0.002289	-0.004646	0.001936
07768	-0.037580	0.059963	9.847974	0.084455	0.016595	0.035165	-0.999985	0.002282	-0.004634	0.001943
07769	-0.010599	0.039448	9.836655	0.110997	-0.003889	0.023425	-0.999985	0.002296	-0.004624	0.001959
07770	-0.018500	0.056345	9.863562	0.103253	0.013065	0.050504	-0.999985	0.002296	-0.004613	0.001967
07771	-0.018568	0.051730	9.834611	0.102740	0.008590	0.021537	-0.999985	0.002301	-0.004612	0.001954
07772	-0.019086	0.051760	9.834610	0.102275	0.008494	0.021542	-0.999985	0.002281	-0.004616	0.001981
07773	-0.019932	0.056302	9.863560	0.101723	0.012775	0.050520	-0.999985	0.002286	-0.004608	0.002012
07774	-0.014051	0.069094	9.817162	0.106749	0.025914	0.004113	-0.999985	0.002297	-0.004587	0.002005
07775	-0.014515	0.071088	9.831639	0.106153	0.028011	0.018606	-0.999985	0.002304	-0.004573	0.002005
07776	-0.020675	0.053536	9.849085	0.099892	0.010356	0.036053	-0.999985	0.002294	-0.004562	0.001979
07777	-0.000933	0.045736	9.835728	0.119288	0.002460	0.022423	-0.999985	0.002296	-0.004555	0.001984
07778	-0.015993	0.075203	9.860591	0.104509	0.031977	0.047597	-0.999985	0.002305	-0.004546	0.001967
07779	-0.014549	0.040391	9.851130	0.105410	-0.002609	0.037972	-0.999985	0.002311	-0.004528	0.001979
07780	-0.016210	0.070157	9.831643	0.103432	0.027493	0.018637	-0.999985	0.002332	-0.004524	0.001987
07781	-0.009349	0.057176	9.833689	0.110002	0.014749	0.020546	-0.999985	0.002338	-0.004503	0.001971
07782	-0.023005	0.054491	9.863563	0.096708	0.011859	0.050572	-0.999985	0.002324	-0.004521	0.001940
07783	-0.023326	0.052296	9.849086	0.096139	0.009590	0.036091	-0.999985	0.002320	-0.004502	0.001955
07784	-0.005306	0.078949	9.845198	0.114089	0.036217	0.032100	-0.999985	0.002328	-0.004506	0.001948
07785	-0.018368	0.069622	9.831643	0.100674	0.026963	0.018667	-0.999985	0.002312	-0.004491	0.001952
07786	-0.017430	0.039578	9.851129	0.101551	-0.003295	0.038013	-0.999985	0.002317	-0.004484	0.001955
07787	-0.012229	0.059208	9.848163	0.106684	0.016316	0.035070	-0.999985	0.002312	-0.004480	0.001965
07788	-0.019623	0.069456	9.831641	0.099010	0.026686	0.018684	-0.999985	0.002320	-0.004472	0.001932
07789	-0.007635	0.078540	9.845199	0.111327	0.035739	0.032134	-0.999985	0.002321	-0.004488	0.001917
07790	-0.006410	0.043979	9.835734	0.112252	0.001113	0.022506	-0.999985	0.002306	-0.004470	0.001941
07791	-0.014129	0.056544	9.833687	0.104566	0.013724	0.020607	-0.999985	0.002320	-0.004491	0.001954
07792	-0.002221	0.065736	9.847246	0.116829	0.022853	0.034059	-0.999985	0.002312	-0.004484	0.001975
07793	-0.007807	0.039186	9.806782	0.110599	-0.003442	-0.006448	-0.999985	0.002326	-0.004490	0.001982
07794	-0.016362	0.060458	9.862639	0.102873	0.017810	0.049598	-0.999985	0.002332	-0.004488	0.001979
07795	-0.029499	0.050944	9.849077	0.089566	0.008487	0.036154	-0.999985	0.002335	-0.004492	0.001986
07796	-0.024266	0.070373	9.846117	0.094722	0.028090	0.033215	-0.999985	0.002350	-0.004477	0.001970
07797	0.002445	0.052056	9.849300	0.121233	0.009678	0.035999	-0.999985	0.002338	-0.004474	0.001957
07798	-0.017987	0.059731	9.862640	0.100803	0.017367	0.049620	-0.999985	0.002349	-0.004456	0.001962
07799	-0.005319	0.062266	9.832777	0.113115	0.019952	0.019618	-0.999985	0.002335	-0.004476	0.001976
07800	-0.038713	0.062978	9.847025	0.079878	0.020565	0.034270	-0.999985	0.002334	-0.004452	0.001955
07801	-0.013538	0.076914	9.845206	0.104937	0.034532	0.032208	-0.999985	0.002344	-0.004464	0.001950
07802	-0.006999	0.064105	9.847255	0.111463	0.021817	0.034124	-0.999985	0.002345	-0.004454	0.001965
07803	-0.020239	0.056888	9.848163	0.098073	0.014720	0.035162	-0.999985	0.002353	-0.004451	0.001969
07804	-0.033325	0.047412	9.834594	0.084688	0.005429	0.021712	-0.999985	0.002354	-0.004445	0.001963
07805	-0.008511	0.063792	9.847256	0.109752	0.021545	0.034143	-0.999985	0.002342	-0.004451	0.001969
07806	-0.021563	0.054545	9.833685	0.096503	0.012184	0.020691	-0.999986	0.002333	-0.004442	0.001940
07807	-0.014972	0.044179	9.850210	0.103046	0.001575	0.037094	-0.999986	0.002324	-0.004433	0.001939
07808	-0.022188	0.054486	9.833684	0.095376	0.011989	0.020702	-0.999986	0.002333	-0.004415	0.001948
07809	-0.002655	0.046467	9.820353	0.114742	0.004130	0.007105	-0.999985	0.002341	-0.004435	0.001966
07810	-0.036448	0.049154	9.849062	0.081431	0.006986	0.036226	-0.999986	0.002352	-0.004425	0.001962
07811	-0.005319	0.080635	9.829828	0.112257	0.038464	0.016757	-0.999986	0.002344	-0.004416	0.001963
07812	-0.011609	0.063306	9.847256	0.105963	0.020862	0.034186	-0.999986	0.002329	-0.004411	0.001968
07813	-0.024240	0.051653	9.819205	0.092702	0.009425	0.006242	-0.999986	0.002349	-0.004388	0.001997
07814	-0.005196	0.050355	9.849308	0.111981	0.008009	0.036111	-0.999986	0.002339	-0.004402	0.001994
07815	-0.012791	0.062988	9.847256	0.104347	0.020598	0.034204	-0.999986	0.002340	-0.004380	0.001987
07816	0.001421	0.035468	9.836883	0.118016	-0.006972	0.023549	-0.999986	0.002334	-0.004371	0.002011
