// General information: 
//  MT Manager version: 2021.0.0 
//  XDA version: 2021.0.0 build 5908 rev 109668 built on 2021-04-19
// Device information: 
//  DeviceId: 00B43DEE
//  ProductCode: MTW2-3A7G6
//  Firmware Version: 4.3.5
//  Hardware Version: 1.1.0
// Device settings: 
//  Filter Profile: human(46.1)
//  Option Flags: Orientation Smoother Disabled, Position/Velocity Smoother Disabled, Continuous Zero Rotation Update Disabled, AHS Disabled, ICC Disabled
// Coordinate system: ENU
PacketCounter	Acc_X	Acc_Y	Acc_Z	FreeAcc_E	FreeAcc_N	FreeAcc_U	Quat_q0	Quat_q1	Quat_q2	Quat_q3
50291	-9.580932	0.183137	-1.692160	0.039817	0.008673	-0.081832	0.488609	0.506214	0.577941	-0.413512
50292	-9.613426	0.184818	-1.683037	0.043612	-0.008520	-0.051399	0.488544	0.506258	0.578017	-0.413430
50293	-9.575932	0.103208	-1.770128	-0.048941	0.069792	-0.074350	0.488519	0.506244	0.578117	-0.413336
50294	-9.570173	0.100670	-1.808996	-0.055674	0.106342	-0.073262	0.488456	0.506207	0.578245	-0.413277
50295	-9.595576	0.083336	-1.858372	-0.077898	0.145638	-0.039853	0.488385	0.506199	0.578360	-0.413209
50296	-9.588490	0.046610	-1.854078	-0.112340	0.135715	-0.048063	0.488272	0.506238	0.578407	-0.413230
50297	-9.528557	0.098589	-1.800971	-0.052281	0.100360	-0.115584	0.488099	0.506333	0.578367	-0.413374
50298	-9.561424	0.166274	-1.822080	0.014296	0.123197	-0.078568	0.487952	0.506417	0.578360	-0.413455
50299	-9.547010	0.196522	-1.829395	0.044766	0.135863	-0.091050	0.487872	0.506427	0.578400	-0.413480
50300	-9.536211	0.150026	-1.926319	-0.013085	0.224781	-0.085312	0.487757	0.506495	0.578419	-0.413507
50301	-9.522422	0.164250	-1.867724	0.010323	0.169985	-0.108931	0.487550	0.506641	0.578402	-0.413594
50302	-9.544181	0.180881	-1.851208	0.030980	0.149792	-0.090152	0.487375	0.506753	0.578426	-0.413630
50303	-9.563876	0.180114	-1.858233	0.031252	0.150612	-0.069508	0.487227	0.506821	0.578482	-0.413644
50304	-9.549186	0.143115	-1.834657	-0.000934	0.123113	-0.088581	0.487132	0.506864	0.578532	-0.413633
50305	-9.539960	0.089465	-1.853791	-0.055677	0.134166	-0.094957	0.487024	0.506917	0.578600	-0.413600
50306	-9.556443	0.105727	-1.872809	-0.040573	0.149342	-0.075118	0.486897	0.506970	0.578676	-0.413578
50307	-9.592357	0.157377	-1.883078	0.011160	0.157809	-0.037257	0.486799	0.506993	0.578732	-0.413587
50308	-9.582179	0.137235	-1.889969	-0.008378	0.162446	-0.046291	0.486739	0.506982	0.578791	-0.413588
50309	-9.577357	0.117838	-1.861230	-0.022178	0.131604	-0.056355	0.486641	0.506987	0.578850	-0.413614
50310	-9.615532	0.118885	-1.815257	-0.012755	0.079064	-0.026916	0.486515	0.507032	0.578863	-0.413691
50311	-9.617295	0.108260	-1.738712	-0.010864	0.002334	-0.038892	0.486370	0.507072	0.578838	-0.413845
50312	-9.578507	0.118789	-1.710016	0.005376	-0.016713	-0.082027	0.486266	0.507084	0.578791	-0.414020
50313	-9.582768	0.089347	-1.764671	-0.028444	0.033411	-0.068481	0.486176	0.507070	0.578747	-0.414203
50314	-9.584948	0.085234	-1.819544	-0.037397	0.087530	-0.056654	0.486102	0.507054	0.578716	-0.414354
50315	-9.566750	0.104253	-1.926679	-0.030550	0.199065	-0.055377	0.486006	0.507059	0.578676	-0.414515
50316	-9.535707	0.139965	-1.971810	0.001069	0.254505	-0.077568	0.485909	0.507061	0.578628	-0.414695
50317	-9.493827	0.167597	-1.954896	0.032221	0.249875	-0.121507	0.485817	0.507086	0.578603	-0.414807
50318	-9.549322	0.144546	-1.946179	0.012476	0.228461	-0.068679	0.485723	0.507161	0.578565	-0.414877
50319	-9.574517	0.077413	-1.883538	-0.044309	0.153857	-0.055667	0.485536	0.507315	0.578447	-0.415073
50320	-9.531277	0.096899	-1.879615	-0.023444	0.159767	-0.098702	0.485304	0.507545	0.578286	-0.415286
50321	-9.515675	0.075842	-1.921605	-0.048566	0.199718	-0.106806	0.485102	0.507746	0.578175	-0.415431
50322	-9.513066	0.099001	-1.924925	-0.024769	0.204911	-0.108515	0.484901	0.507925	0.578099	-0.415555
50323	-9.528342	0.039275	-1.922575	-0.082565	0.190592	-0.094457	0.484799	0.508025	0.578088	-0.415566
50324	-9.561974	0.006587	-1.923852	-0.113945	0.180015	-0.061421	0.484656	0.508134	0.578075	-0.415617
50325	-9.557539	0.097724	-1.904898	-0.019791	0.172258	-0.068218	0.484485	0.508249	0.578047	-0.415716
50326	-9.573067	0.104706	-1.934855	-0.015050	0.198116	-0.047506	0.484367	0.508332	0.578051	-0.415745
50327	-9.566232	0.135631	-1.961672	0.013265	0.228330	-0.049131	0.484271	0.508391	0.578027	-0.415818
50328	-9.544850	0.208866	-1.926452	0.091228	0.206475	-0.075745	0.484159	0.508474	0.577981	-0.415912
50329	-9.552822	0.148885	-1.903791	0.035464	0.174682	-0.072501	0.484121	0.508490	0.578010	-0.415896
50330	-9.548693	0.053801	-1.908427	-0.059110	0.167282	-0.076618	0.484114	0.508464	0.578060	-0.415866
50331	-9.543672	-0.007393	-1.901950	-0.118416	0.153452	-0.083269	0.484081	0.508450	0.578116	-0.415845
50332	-9.529345	0.023315	-1.909560	-0.087971	0.165947	-0.095686	0.483995	0.508456	0.578189	-0.415834
50333	-9.505404	0.103066	-1.954149	-0.013123	0.222068	-0.110495	0.483922	0.508422	0.578315	-0.415786
50334	-9.532939	0.145936	-1.957228	0.030427	0.223499	-0.082421	0.483938	0.508356	0.578460	-0.415646
50335	-9.524426	0.101899	-1.964231	-0.014127	0.224118	-0.089887	0.483909	0.508360	0.578567	-0.415527
50336	-9.523695	0.076181	-1.913166	-0.032688	0.168292	-0.099944	0.483731	0.508511	0.578578	-0.415534
50337	-9.531863	0.101799	-1.847805	0.002281	0.102641	-0.103382	0.483496	0.508703	0.578597	-0.415547
50338	-9.577180	0.104174	-1.824551	0.009481	0.067851	-0.062943	0.483293	0.508866	0.578649	-0.415510
50339	-9.595867	0.138462	-1.821696	0.044978	0.062205	-0.044754	0.483182	0.508955	0.578706	-0.415451
50340	-9.588285	0.127876	-1.872690	0.027898	0.109290	-0.043050	0.483103	0.509073	0.578701	-0.415404
50341	-9.546422	0.081438	-1.892034	-0.021452	0.127987	-0.081102	0.483037	0.509155	0.578693	-0.415392
50342	-9.542264	0.053823	-1.929450	-0.053236	0.160498	-0.078630	0.482966	0.509194	0.578706	-0.415408
50343	-9.545408	0.025472	-1.986425	-0.087124	0.210640	-0.065411	0.482877	0.509187	0.578797	-0.415395
50344	-9.578670	0.068880	-1.954162	-0.038061	0.176738	-0.038143	0.482837	0.509134	0.578936	-0.415312
50345	-9.500921	0.053612	-1.920206	-0.049317	0.154027	-0.120865	0.482844	0.509095	0.579039	-0.415207
50346	-9.511766	0.055120	-1.852078	-0.039206	0.084340	-0.122575	0.482850	0.509084	0.579106	-0.415120
50347	-9.533287	0.054755	-1.912836	-0.046798	0.138223	-0.090331	0.482778	0.509142	0.579121	-0.415113
50348	-9.557151	0.071747	-1.950981	-0.033925	0.171226	-0.059732	0.482661	0.509252	0.579138	-0.415090
50349	-9.565080	0.002550	-1.996501	-0.107630	0.203025	-0.044168	0.482532	0.509369	0.579144	-0.415089
50350	-9.584303	0.012393	-1.937529	-0.089495	0.140423	-0.035914	0.482333	0.509557	0.579117	-0.415127
50351	-9.579353	0.071130	-1.875982	-0.022783	0.086101	-0.051517	0.482091	0.509819	0.578977	-0.415280
50352	-9.560526	0.186915	-1.873583	0.093079	0.100174	-0.069474	0.481957	0.509948	0.578900	-0.415386
50353	-9.551177	0.200968	-1.923055	0.101203	0.151227	-0.069465	0.481937	0.509975	0.578897	-0.415380
50354	-9.581711	0.185681	-1.935564	0.084442	0.155227	-0.037267	0.481935	0.510015	0.578898	-0.415332
50355	-9.638904	0.071836	-1.894419	-0.023184	0.090032	0.010439	0.481734	0.510319	0.578638	-0.415554
50356	-9.604563	0.102031	-1.897093	0.005963	0.102916	-0.022571	0.481429	0.510739	0.578235	-0.415952
50357	-9.733167	0.091068	-2.014490	-0.017410	0.194163	0.125270	0.481210	0.511132	0.577775	-0.416362
50358	-9.761158	-0.341431	-2.036280	-0.449327	0.162730	0.152996	0.480639	0.511996	0.576837	-0.417260
50359	-9.720839	-0.442452	-1.750928	-0.514491	-0.116694	0.060402	0.479020	0.513833	0.575317	-0.418958
50360	-9.691977	-0.378735	-1.892738	-0.463131	0.038160	0.058703	0.477933	0.515237	0.573890	-0.420429
50361	-9.341120	-0.472452	-2.522469	-0.622359	0.721872	-0.172453	0.477428	0.516071	0.572357	-0.422067
50362	-9.159861	-0.333971	-2.545740	-0.485160	0.809367	-0.346700	0.476951	0.516888	0.571001	-0.423440
50363	-9.121530	-0.272661	-2.694545	-0.437150	0.982072	-0.358500	0.476550	0.517798	0.569646	-0.424604
50364	-9.203747	-0.043447	-2.805085	-0.219918	1.106507	-0.257238	0.475955	0.519177	0.568099	-0.425659
50365	-9.580589	0.062616	-2.451551	-0.085727	0.704662	0.051278	0.474888	0.521243	0.566254	-0.426783
50366	-9.827102	-0.318534	-2.151396	-0.446192	0.342239	0.236475	0.473517	0.523668	0.563510	-0.428965
50367	-9.780744	-0.161856	-1.917344	-0.275646	0.148442	0.150611	0.471122	0.527045	0.559709	-0.432428
50368	-9.955888	-0.048034	-1.631116	-0.145292	-0.140813	0.274017	0.468505	0.530490	0.555923	-0.435928
50369	-9.678268	-0.185003	-1.524218	-0.277655	-0.184648	-0.019061	0.466636	0.533023	0.552527	-0.439149
50370	-9.255018	-0.154129	-1.850844	-0.256310	0.233364	-0.379525	0.465338	0.534842	0.549899	-0.441606
50371	-9.252348	0.048054	-1.970782	-0.054590	0.369303	-0.360023	0.463902	0.536577	0.548051	-0.443305
50372	-9.375606	0.399907	-1.955319	0.300252	0.339778	-0.237742	0.462754	0.537876	0.546912	-0.444337
50373	-9.495437	0.873510	-2.232652	0.766201	0.599436	-0.067705	0.463125	0.537867	0.546753	-0.444158
50374	-9.663037	0.687765	-1.998420	0.573462	0.343866	0.056146	0.463917	0.537624	0.546578	-0.443839
50375	-9.518959	0.472108	-0.899468	0.368864	-0.710143	-0.273183	0.464138	0.537895	0.545949	-0.444054
50376	-9.557879	0.034904	-0.536876	-0.073140	-1.074904	-0.300499	0.465141	0.537582	0.546008	-0.443311
50377	-9.949065	-0.611595	-1.115260	-0.750555	-0.578272	0.172501	0.467624	0.535861	0.547316	-0.441165
50378	-10.400496	-0.971015	-1.722599	-1.152363	-0.063459	0.711026	0.471053	0.532959	0.549575	-0.438213
50379	-10.479107	-0.909206	-1.883286	-1.119616	0.086782	0.813883	0.475043	0.529160	0.552299	-0.435075
50380	-10.223610	-0.966069	-1.748998	-1.184515	0.004363	0.536774	0.479190	0.525035	0.554817	-0.432311
50381	-10.273178	-0.920689	-1.184207	-1.110727	-0.532918	0.496066	0.482741	0.521223	0.556494	-0.430815
50382	-10.231724	-0.789805	-1.007132	-0.960173	-0.645711	0.433634	0.485644	0.517591	0.557119	-0.431124
50383	-9.879199	-0.608409	-1.052746	-0.761173	-0.467306	0.100877	0.487491	0.514476	0.556777	-0.433206
50384	-9.491940	-0.876408	-0.578399	-0.954857	-0.827759	-0.346852	0.488383	0.511811	0.555883	-0.436493
50385	-9.279164	-1.730829	0.116371	-1.710854	-1.479905	-0.647840	0.488813	0.509421	0.554708	-0.440286
50386	-9.480188	-1.971048	0.278579	-1.903843	-1.597822	-0.450101	0.488844	0.507820	0.552150	-0.445287
50387	-9.493335	-0.992634	0.105300	-0.918037	-1.253370	-0.394343	0.488596	0.507046	0.548535	-0.450874
50388	-9.743992	0.734222	0.021923	0.814917	-0.994088	-0.125985	0.488211	0.507015	0.544857	-0.455759
50389	-9.882215	1.270315	-0.598732	1.322369	-0.286183	0.076668	0.489199	0.505922	0.542230	-0.459036
50390	-9.668032	0.619202	-1.549618	0.628331	0.727513	-0.048941	0.490598	0.504134	0.539415	-0.462811
50391	-9.257554	0.544190	-1.653566	0.557762	0.954824	-0.458053	0.492747	0.501320	0.537468	-0.465840
50392	-9.227091	0.272351	-2.209709	0.268749	1.576040	-0.456422	0.494856	0.498327	0.537135	-0.467197
50393	-9.478517	0.069617	-2.702971	0.056435	2.090146	-0.180390	0.495413	0.496709	0.536998	-0.468487
50394	-9.558212	0.259276	-2.481285	0.286251	1.903149	-0.123552	0.494153	0.496709	0.536007	-0.470945
50395	-9.264341	0.437752	-2.028221	0.519059	1.499076	-0.452318	0.492483	0.497038	0.534607	-0.473930
50396	-8.964492	0.285638	-1.753643	0.410011	1.252337	-0.769326	0.490410	0.497827	0.533125	-0.476910
50397	-9.069369	-0.154223	-1.645716	0.014936	1.128662	-0.663296	0.487727	0.498954	0.532135	-0.479583
50398	-9.253374	-0.083330	-2.003607	0.125882	1.471443	-0.460410	0.484445	0.500260	0.531558	-0.482181
50399	-9.257413	0.138538	-2.268755	0.395899	1.715429	-0.444320	0.480811	0.501459	0.532314	-0.483738
50400	-9.249447	0.507562	-2.271837	0.819974	1.681615	-0.460122	0.477448	0.502098	0.534115	-0.484420
50401	-8.571018	0.827737	-2.931282	1.156344	2.340223	-1.099151	0.474678	0.501837	0.537119	-0.484090
50402	-7.645351	1.779573	-3.062231	2.102165	2.506876	-2.047911	0.472583	0.501155	0.540830	-0.482713
50403	-7.633626	1.938544	-3.292630	2.269918	2.692025	-2.036326	0.471600	0.500343	0.546016	-0.478661
50404	-8.510463	2.189457	-2.715686	2.578159	1.978479	-1.208344	0.469917	0.501195	0.550540	-0.474223
50405	-10.092852	2.570407	-2.020269	3.056404	1.039652	0.293267	0.467871	0.503542	0.554450	-0.469177
50406	-12.633102	2.305590	-0.620803	2.948393	-0.792506	2.676217	0.465911	0.507080	0.557428	-0.463757
50407	-13.278983	1.045263	1.371934	1.729191	-3.049856	3.110642	0.464187	0.511937	0.556742	-0.460965
50408	-11.353229	0.056928	3.495127	0.616304	-4.997229	0.946563	0.463050	0.516836	0.552238	-0.462059
50409	-9.908275	-0.928952	2.842846	-0.526746	-4.182954	-0.360500	0.464934	0.517843	0.550805	-0.460748
50410	-9.231758	-2.511804	-0.454813	-2.240566	-0.884185	-0.542343	0.469594	0.514018	0.554389	-0.455982
50411	-8.641472	-1.916630	-3.472003	-1.810402	2.149637	-0.729506	0.472605	0.509403	0.560735	-0.450255
50412	-9.055112	-0.504744	-3.968089	-0.447887	2.591104	-0.269082	0.474073	0.505604	0.567735	-0.444180
50413	-10.185805	-1.065738	-2.645243	-0.868188	0.998519	0.681717	0.473656	0.504610	0.571276	-0.441206
50414	-10.263834	-1.106127	-1.161460	-0.773463	-0.514873	0.534073	0.471740	0.506687	0.569906	-0.442647
50415	-10.012092	-0.458658	-0.535048	-0.094781	-1.036335	0.170080	0.468698	0.510445	0.566105	-0.446423
50416	-9.589077	0.299207	-0.475324	0.639180	-0.966650	-0.277338	0.466318	0.513328	0.562585	-0.450044
50417	-9.332144	0.568438	-0.667341	0.884323	-0.711184	-0.508411	0.465794	0.514015	0.561238	-0.451482
50418	-9.674300	-0.021678	-0.731562	0.305791	-0.721665	-0.142454	0.467403	0.512157	0.562824	-0.449954
50419	-9.902170	-0.921134	-0.924475	-0.586742	-0.623308	0.138358	0.469517	0.509193	0.565883	-0.447273
50420	-9.880804	-0.654932	-1.159646	-0.324888	-0.386467	0.144674	0.471001	0.506560	0.568968	-0.444782
50421	-9.998949	-0.181164	-1.903185	0.108986	0.353376	0.360668	0.471839	0.504754	0.570917	-0.443448
50422	-9.445276	-0.212130	-2.393017	0.025394	0.916857	-0.109931	0.471438	0.504632	0.570767	-0.444204
50423	-9.126998	-0.475948	-2.390593	-0.238117	0.946968	-0.416407	0.470177	0.505690	0.569599	-0.445834
50424	-9.184037	-0.874804	-2.342984	-0.616672	0.863342	-0.353526	0.468929	0.506817	0.568747	-0.446955
50425	-9.422469	-0.915597	-2.002701	-0.615659	0.487277	-0.168229	0.468329	0.507371	0.568464	-0.447316
50426	-9.674858	-0.283684	-1.193375	0.082462	-0.309984	-0.065657	0.467842	0.507807	0.568611	-0.447144
50427	-9.860067	-0.081356	-0.979683	0.307490	-0.546940	0.076378	0.467624	0.507966	0.569077	-0.446599
50428	-9.749730	-0.028287	-1.220005	0.340660	-0.303111	0.002531	0.467424	0.507943	0.569734	-0.445996
50429	-9.531335	-0.354164	-1.802291	-0.031560	0.264361	-0.109641	0.467135	0.508011	0.570453	-0.445300
50430	-9.537853	-0.576424	-1.921779	-0.258872	0.350054	-0.075821	0.466700	0.508337	0.570634	-0.445154
50431	-9.453931	-0.808150	-2.016290	-0.498838	0.428992	-0.134751	0.466270	0.508788	0.570682	-0.445028
50432	-9.613665	-0.849620	-2.069869	-0.536064	0.446662	0.033221	0.465768	0.509432	0.570298	-0.445308
50433	-9.595480	-0.733113	-1.768577	-0.400080	0.155490	-0.037499	0.464925	0.510369	0.569882	-0.445650
50434	-9.591412	-0.505180	-1.761046	-0.170461	0.157163	-0.050622	0.464171	0.511099	0.569550	-0.446024
50435	-9.372168	0.004880	-1.815251	0.329554	0.270822	-0.275879	0.462830	0.512339	0.568983	-0.446716
50436	-9.484521	0.339678	-1.789410	0.674187	0.235201	-0.181299	0.461815	0.513480	0.568489	-0.447086
50437	-9.687439	-0.212265	-1.706712	0.136452	0.070328	0.025036	0.461524	0.513853	0.568969	-0.446346
50438	-9.634936	-0.427500	-1.859194	-0.091928	0.199195	0.006844	0.461514	0.513866	0.569576	-0.445566
50439	-9.521922	-0.260689	-1.884219	0.066038	0.239100	-0.105798	0.461214	0.514172	0.569919	-0.445086
50440	-9.505078	-0.294158	-1.924061	0.026256	0.264588	-0.114011	0.461148	0.514436	0.570320	-0.444335
50441	-9.470886	-0.387572	-1.888662	-0.071730	0.214489	-0.150195	0.460961	0.514811	0.570651	-0.443669
50442	-9.616859	-0.215823	-1.508042	0.124389	-0.189476	-0.078555	0.460646	0.515202	0.571017	-0.443071
50443	-9.690617	-0.515360	-1.607865	-0.179055	-0.140324	0.021290	0.460795	0.514968	0.571940	-0.441996
50444	-9.715205	-0.609962	-1.660723	-0.276770	-0.112327	0.057775	0.460972	0.514701	0.572573	-0.441303
50445	-9.723823	-0.594266	-1.491881	-0.250924	-0.288173	0.035438	0.461202	0.514375	0.573257	-0.440553
50446	-9.772447	-0.624866	-1.578073	-0.284958	-0.219989	0.099522	0.461409	0.514093	0.573573	-0.440255
50447	-9.727673	-0.405790	-1.565047	-0.067856	-0.207672	0.046011	0.461796	0.513674	0.573747	-0.440110
50448	-9.606242	-0.385840	-1.771963	-0.067573	0.024718	-0.037032	0.462104	0.513384	0.573639	-0.440268
50449	-9.539830	-0.473836	-1.741257	-0.155130	0.006811	-0.104921	0.462231	0.513125	0.573623	-0.440456
50450	-9.612718	-0.407120	-1.616057	-0.073454	-0.118385	-0.057570	0.462235	0.512906	0.573605	-0.440731
50451	-9.545487	-0.286002	-1.922408	0.027015	0.208097	-0.073605	0.462585	0.512346	0.573908	-0.440621
50452	-9.641780	-0.310714	-1.915688	0.008732	0.187730	0.020675	0.463055	0.511732	0.574246	-0.440399
50453	-9.482953	-0.396015	-1.931749	-0.084366	0.230136	-0.129981	0.463506	0.511171	0.574456	-0.440303
50454	-9.475153	-0.415987	-2.160352	-0.120457	0.461788	-0.097188	0.463639	0.511065	0.574191	-0.440631
50455	-9.486108	-0.305107	-1.903725	0.008817	0.223762	-0.135221	0.463593	0.511214	0.573780	-0.441043
50456	-9.500073	-0.463706	-1.962780	-0.152596	0.272009	-0.105904	0.463552	0.511293	0.573566	-0.441272
50457	-9.512122	-0.399642	-1.885225	-0.082232	0.199982	-0.109724	0.463395	0.511438	0.573474	-0.441389
50458	-9.484689	-0.178452	-1.956802	0.132797	0.290345	-0.131866	0.463249	0.511574	0.573442	-0.441427
50459	-9.464316	-0.056432	-2.119797	0.242159	0.460599	-0.127688	0.463168	0.511710	0.573451	-0.441342
50460	-9.463304	0.042083	-2.053098	0.344365	0.399734	-0.143524	0.462909	0.512041	0.573262	-0.441476
50461	-9.556643	0.021562	-1.821473	0.342795	0.152342	-0.091220	0.462860	0.512221	0.573172	-0.441434
50462	-9.669987	-0.208237	-1.800629	0.117411	0.093025	0.024580	0.463301	0.511836	0.573638	-0.440812
50463	-9.664097	-0.353640	-1.851219	-0.034932	0.130823	0.032540	0.463976	0.511139	0.574279	-0.440075
50464	-9.493571	-0.332912	-1.861855	-0.025502	0.171201	-0.134089	0.464534	0.510469	0.574917	-0.439432
50465	-9.478153	-0.321362	-1.948270	-0.023120	0.257855	-0.134496	0.465072	0.509849	0.575566	-0.438732
50466	-9.428882	-0.409557	-2.118788	-0.128609	0.424330	-0.150171	0.465290	0.509654	0.575794	-0.438429
50467	-9.480236	-0.458977	-2.011536	-0.168669	0.304217	-0.116770	0.465252	0.509746	0.575803	-0.438349
50468	-9.514615	-0.451748	-1.815544	-0.146285	0.103395	-0.117530	0.465304	0.509765	0.575956	-0.438071
50469	-9.595906	-0.457806	-1.713667	-0.142116	-0.015888	-0.055270	0.465269	0.509813	0.576144	-0.437806
50470	-9.623779	-0.320801	-1.837042	-0.014741	0.108581	-0.010507	0.465257	0.509841	0.576182	-0.437736
50471	-9.528269	-0.302222	-1.898262	-0.006480	0.184504	-0.094223	0.465177	0.510009	0.576160	-0.437654
50472	-9.539849	-0.295995	-1.832480	0.003608	0.114952	-0.094607	0.465264	0.509976	0.576358	-0.437340
50473	-9.500387	-0.370937	-1.826481	-0.074765	0.104185	-0.132061	0.465379	0.509916	0.576687	-0.436853
50474	-9.571850	-0.419134	-1.727565	-0.113802	-0.015837	-0.077839	0.465426	0.509898	0.576956	-0.436468
50475	-9.550045	-0.315340	-1.836386	-0.021557	0.097234	-0.083083	0.465358	0.509966	0.577198	-0.436141
50476	-9.585624	-0.170777	-1.739451	0.130551	0.001759	-0.069895	0.465198	0.510212	0.577266	-0.435934
50477	-9.575383	-0.296058	-1.753150	0.000916	0.000842	-0.073635	0.465457	0.510133	0.577470	-0.435479
50478	-9.581462	-0.310762	-1.665311	-0.011729	-0.090463	-0.083045	0.465971	0.509811	0.577819	-0.434844
50479	-9.609780	-0.313706	-1.800214	-0.029972	0.035092	-0.030820	0.466604	0.509238	0.578330	-0.434156
50480	-9.469467	-0.311697	-1.876600	-0.044172	0.131681	-0.155032	0.466718	0.509138	0.578664	-0.433706
50481	-9.603415	-0.384146	-2.073824	-0.129936	0.288480	0.014509	0.466901	0.508999	0.579020	-0.433196
50482	-9.521312	-0.428045	-1.952942	-0.169530	0.175063	-0.086784	0.467021	0.508944	0.579269	-0.432798
50483	-9.469566	-0.387633	-1.999968	-0.138616	0.230067	-0.130194	0.467248	0.508767	0.579549	-0.432387
50484	-9.535322	-0.375992	-1.871235	-0.115176	0.089823	-0.089318	0.467393	0.508690	0.579769	-0.432026
50485	-9.616288	-0.373878	-1.605806	-0.087384	-0.188958	-0.058302	0.467296	0.508859	0.579847	-0.431827
50486	-9.543851	-0.312365	-1.704767	-0.040380	-0.076904	-0.113134	0.467347	0.508910	0.579890	-0.431655
50487	-9.467231	-0.290142	-2.055890	-0.055719	0.279444	-0.124647	0.467246	0.509103	0.579901	-0.431521
50488	-9.521988	-0.337411	-2.050452	-0.101535	0.255347	-0.070462	0.467041	0.509451	0.579772	-0.431505
50489	-9.537955	-0.332629	-1.852630	-0.080186	0.054415	-0.091264	0.466856	0.509781	0.579715	-0.431393
50490	-9.513604	-0.192304	-1.796496	0.060854	0.011786	-0.129238	0.466708	0.510093	0.579676	-0.431236
50491	-9.593361	-0.108583	-1.921692	0.133226	0.121432	-0.029806	0.466664	0.510285	0.579798	-0.430892
50492	-9.478630	-0.166608	-2.033090	0.057663	0.238262	-0.120137	0.466489	0.510576	0.579876	-0.430633
50493	-9.533607	-0.175428	-1.966934	0.054983	0.154481	-0.078090	0.466306	0.510860	0.579975	-0.430359
50494	-9.551088	-0.145728	-1.926633	0.087785	0.106663	-0.069108	0.465960	0.511251	0.579961	-0.430290
50495	-9.617416	-0.016361	-1.784903	0.231695	-0.038589	-0.033850	0.465700	0.511563	0.579923	-0.430252
50496	-9.668316	-0.085837	-1.858179	0.157430	0.011572	0.031683	0.465589	0.511722	0.580000	-0.430078
50497	-9.656535	-0.100359	-1.812254	0.146061	-0.037147	0.011787	0.465444	0.511864	0.580046	-0.430003
50498	-9.571283	-0.097226	-1.977806	0.131839	0.137734	-0.040570	0.465283	0.511955	0.580075	-0.430032
50499	-9.611253	-0.098882	-1.988910	0.132703	0.139331	0.000809	0.465129	0.512035	0.580050	-0.430136
50500	-9.577828	-0.138712	-2.163870	0.078326	0.313862	0.002185	0.465176	0.511866	0.580089	-0.430235
50501	-9.497040	-0.078538	-2.029263	0.149266	0.205597	-0.104274	0.465175	0.511698	0.580148	-0.430355
50502	-9.279581	-0.008868	-2.106629	0.204188	0.330947	-0.304934	0.465449	0.511316	0.580375	-0.430207
50503	-9.358206	-0.143517	-2.260239	0.060395	0.454864	-0.195268	0.465592	0.511056	0.580626	-0.430022
50504	-9.331834	-0.255595	-2.245363	-0.049793	0.432794	-0.221008	0.465457	0.511098	0.580724	-0.429986
50505	-9.506804	-0.299622	-2.057127	-0.068234	0.207292	-0.083698	0.465335	0.511186	0.580918	-0.429752
50506	-9.482018	-0.435403	-2.197695	-0.217059	0.330488	-0.077608	0.465107	0.511444	0.580920	-0.429689
50507	-9.442391	-0.452879	-2.184992	-0.235042	0.317005	-0.118241	0.464725	0.511872	0.580913	-0.429601
50508	-9.556722	-0.464712	-2.035377	-0.229185	0.137799	-0.034236	0.464302	0.512385	0.580983	-0.429353
50509	-9.503302	-0.454913	-2.141563	-0.231089	0.241917	-0.066198	0.463631	0.513126	0.580750	-0.429508
50510	-9.585418	-0.287384	-1.923817	-0.040786	0.019326	-0.032000	0.462950	0.513854	0.580550	-0.429644
50511	-9.540812	-0.271410	-2.036964	-0.034788	0.130745	-0.054016	0.462291	0.514540	0.580304	-0.429864
50512	-9.634640	-0.202226	-1.776547	0.061017	-0.143168	-0.014775	0.461887	0.514946	0.580241	-0.429898
50513	-9.640370	-0.057740	-1.887712	0.197401	-0.029163	0.008906	0.461513	0.515263	0.580205	-0.429967
50514	-9.593982	-0.054934	-2.061247	0.185272	0.145991	-0.002458	0.461360	0.515441	0.580111	-0.430045
50515	-9.585968	-0.295406	-2.074201	-0.054701	0.139705	-0.001579	0.461268	0.515505	0.579952	-0.430282
50516	-9.531308	-0.304856	-2.134336	-0.069056	0.211526	-0.043110	0.461264	0.515384	0.579900	-0.430501
50517	-9.542084	-0.289537	-1.976792	-0.038497	0.060422	-0.063956	0.461429	0.515091	0.580027	-0.430503
50518	-9.492025	-0.370039	-2.227874	-0.139284	0.312356	-0.061691	0.461626	0.514764	0.580122	-0.430555
50519	-9.514031	-0.249886	-2.159399	-0.010985	0.255499	-0.056826	0.461737	0.514479	0.580262	-0.430589
50520	-9.427252	-0.195861	-2.267039	0.032995	0.384929	-0.122401	0.461712	0.514365	0.580262	-0.430752
50521	-9.510245	-0.186871	-2.118771	0.059503	0.227264	-0.070322	0.461769	0.514260	0.580262	-0.430814
50522	-9.454235	-0.224742	-1.982454	0.031524	0.102996	-0.150825	0.461707	0.514271	0.580218	-0.430928
50523	-9.547102	-0.345630	-1.901576	-0.077434	-0.003396	-0.072225	0.461850	0.514086	0.580322	-0.430854
50524	-9.538883	-0.324366	-1.939255	-0.059209	0.037321	-0.073523	0.461861	0.514012	0.580413	-0.430810
50525	-9.596445	-0.313563	-2.172719	-0.064317	0.256298	0.028093	0.461938	0.513902	0.580417	-0.430854
50526	-9.582861	-0.400591	-2.040374	-0.140465	0.124530	-0.008627	0.462059	0.513773	0.580391	-0.430912
50527	-9.481549	-0.431553	-1.917924	-0.165673	0.024740	-0.130932	0.462119	0.513728	0.580287	-0.431041
50528	-9.552685	-0.477430	-1.987511	-0.214177	0.079373	-0.046432	0.462345	0.513522	0.580240	-0.431109
50529	-9.491708	-0.342685	-2.066269	-0.088482	0.185388	-0.094806	0.462348	0.513455	0.580071	-0.431411
50530	-9.509182	-0.247658	-2.127267	0.003461	0.256031	-0.068685	0.462461	0.513317	0.579928	-0.431647
50531	-9.434582	-0.315508	-2.188274	-0.072024	0.330097	-0.128408	0.462695	0.513083	0.579856	-0.431771
50532	-9.453982	-0.321875	-2.145510	-0.074493	0.288846	-0.117554	0.462933	0.512844	0.579923	-0.431709
50533	-9.366396	-0.297936	-2.262877	-0.065624	0.424658	-0.181793	0.463123	0.512708	0.579966	-0.431609
50534	-9.378390	-0.301074	-2.204201	-0.065764	0.365565	-0.181208	0.463291	0.512670	0.579984	-0.431451
50535	-9.423011	-0.365345	-2.198485	-0.129971	0.344954	-0.136735	0.463297	0.512786	0.579945	-0.431359
50536	-9.435433	-0.365996	-2.241308	-0.135831	0.381904	-0.116270	0.463240	0.512957	0.579932	-0.431235
50537	-9.479987	-0.426988	-2.183458	-0.192089	0.308040	-0.081903	0.463122	0.513244	0.579818	-0.431173
50538	-9.528534	-0.384104	-2.097110	-0.142627	0.214575	-0.051951	0.462978	0.513549	0.579713	-0.431106
50539	-9.542149	-0.288896	-1.970429	-0.039290	0.093090	-0.065460	0.462889	0.513795	0.579617	-0.431036
50540	-9.478213	-0.184866	-2.066633	0.051251	0.205535	-0.112337	0.462729	0.514121	0.579444	-0.431052
50541	-9.429286	-0.101515	-2.091122	0.127973	0.243128	-0.157687	0.462619	0.514378	0.579338	-0.431006
50542	-9.427256	-0.135599	-2.257969	0.077869	0.400322	-0.126427	0.462537	0.514634	0.579254	-0.430902
50543	-9.455492	-0.148395	-2.122138	0.074111	0.255919	-0.124507	0.462430	0.514922	0.579269	-0.430652
50544	-9.438039	-0.184323	-2.209571	0.026483	0.334624	-0.123514	0.462383	0.515186	0.579334	-0.430299
50545	-9.428596	-0.124406	-2.147344	0.085717	0.272678	-0.146081	0.462334	0.515487	0.579435	-0.429854
50546	-9.414608	-0.139418	-2.215509	0.058511	0.330382	-0.145725	0.462319	0.515783	0.579650	-0.429226
50547	-9.468055	-0.091711	-2.157813	0.105615	0.254806	-0.105343	0.462321	0.516075	0.579989	-0.428414
50548	-9.490081	-0.118867	-2.206553	0.067712	0.280764	-0.073016	0.462284	0.516402	0.580331	-0.427596
50549	-9.584982	-0.214464	-2.021579	-0.015373	0.057552	-0.014673	0.462044	0.516935	0.580487	-0.426999
50550	-9.585991	-0.309507	-2.029085	-0.116679	0.043024	-0.010202	0.461805	0.517487	0.580443	-0.426650
50551	-9.584914	-0.301327	-1.985875	-0.109894	-0.008996	-0.020195	0.461455	0.518077	0.580358	-0.426427
50552	-9.574579	-0.215471	-2.024696	-0.031332	0.029093	-0.024095	0.461082	0.518657	0.580182	-0.426365
50553	-9.587955	-0.176905	-2.008520	0.005989	0.006276	-0.015022	0.460832	0.519092	0.580088	-0.426233
50554	-9.582360	-0.164208	-1.985152	0.017382	-0.020764	-0.025518	0.460649	0.519447	0.580006	-0.426110
50555	-9.580825	-0.191158	-2.043919	-0.016800	0.029886	-0.014465	0.460501	0.519746	0.579881	-0.426077
50556	-9.619020	-0.140688	-1.961824	0.039576	-0.056416	0.005120	0.460280	0.520098	0.579645	-0.426207
50557	-9.563548	-0.141238	-2.068585	0.027706	0.058000	-0.027172	0.460114	0.520372	0.579392	-0.426396
50558	-9.538051	-0.106904	-2.035934	0.063312	0.034584	-0.059448	0.459914	0.520645	0.579113	-0.426657
50559	-9.526923	-0.154709	-2.091328	0.011069	0.088369	-0.058103	0.459835	0.520787	0.578894	-0.426865
50560	-9.568588	-0.089271	-2.135016	0.074131	0.130512	-0.009544	0.459901	0.520762	0.578777	-0.426984
50561	-9.495788	-0.111823	-2.274289	0.038605	0.283463	-0.051896	0.460001	0.520665	0.578652	-0.427165
50562	-9.441521	0.028461	-2.263831	0.178155	0.300497	-0.109800	0.459991	0.520676	0.578440	-0.427448
50563	-9.507158	0.046284	-2.252884	0.199987	0.281763	-0.048247	0.460011	0.520634	0.578353	-0.427596
50564	-9.461310	0.020615	-2.319105	0.168736	0.356745	-0.079275	0.460079	0.520529	0.578305	-0.427715
50565	-9.418163	0.003133	-2.276152	0.153442	0.325061	-0.130050	0.460231	0.520354	0.578354	-0.427698
50566	-9.428402	-0.099507	-2.289059	0.049746	0.328447	-0.115569	0.460427	0.520161	0.578534	-0.427479
50567	-9.428841	-0.124818	-2.289620	0.023552	0.325798	-0.114528	0.460467	0.520103	0.578665	-0.427328
50568	-9.473504	-0.107056	-2.181434	0.050257	0.210599	-0.093093	0.460508	0.520093	0.578769	-0.427156
50569	-9.488867	-0.127153	-2.114172	0.035245	0.137051	-0.091347	0.460488	0.520076	0.578958	-0.426942
50570	-9.452413	-0.164222	-2.138872	-0.005209	0.162114	-0.121272	0.460496	0.520064	0.579082	-0.426780
50571	-9.565810	-0.256809	-2.068583	-0.088802	0.060563	-0.022991	0.460552	0.520015	0.579205	-0.426612
50572	-9.583627	-0.237193	-2.034120	-0.066342	0.023299	-0.012949	0.460611	0.519914	0.579353	-0.426470
50573	-9.555281	-0.241684	-2.066269	-0.073940	0.059716	-0.034025	0.460685	0.519777	0.579448	-0.426428
50574	-9.537185	-0.120736	-1.991302	0.052646	0.002131	-0.069229	0.460778	0.519631	0.579469	-0.426478
50575	-9.535866	-0.126004	-2.045056	0.043494	0.056775	-0.059444	0.460998	0.519358	0.579625	-0.426360
50576	-9.525455	-0.144576	-2.045865	0.024284	0.061164	-0.069155	0.461382	0.518914	0.579846	-0.426186
50577	-9.421090	-0.129817	-2.131495	0.028093	0.171289	-0.154172	0.461754	0.518452	0.580069	-0.426041
50578	-9.525406	-0.059286	-2.132168	0.101505	0.161259	-0.053246	0.462149	0.518002	0.580312	-0.425829
50579	-9.516176	-0.132694	-2.085896	0.029995	0.114912	-0.070405	0.462788	0.517342	0.580752	-0.425337
50580	-9.499737	-0.095541	-1.917004	0.077018	-0.040261	-0.121378	0.463702	0.516431	0.581443	-0.424505
50581	-9.479818	-0.142298	-2.060662	0.011191	0.102296	-0.110990	0.464957	0.515142	0.582419	-0.423358
50582	-9.375293	-0.098096	-2.529713	0.002158	0.586620	-0.119336	0.465650	0.514306	0.583132	-0.422631
50583	-9.409743	-0.066175	-2.466383	0.038023	0.521338	-0.098911	0.465972	0.514006	0.583400	-0.422270
50584	-9.505854	-0.104421	-2.131800	0.033315	0.171202	-0.071727	0.466234	0.513805	0.583635	-0.421901
50585	-9.506229	-0.088386	-1.840952	0.074517	-0.112189	-0.130375	0.466626	0.513517	0.583940	-0.421396
50586	-9.556275	0.030283	-1.602148	0.212703	-0.343257	-0.131410	0.467420	0.512920	0.584468	-0.420509
50587	-9.423349	-0.127526	-2.030782	-0.002845	0.083790	-0.172521	0.468843	0.511676	0.585456	-0.419064
50588	-9.371944	-0.367457	-2.773115	-0.332804	0.785200	-0.069422	0.469421	0.511006	0.586362	-0.417966
50589	-9.607244	-0.281847	-2.609795	-0.225259	0.582124	0.127131	0.469490	0.510961	0.586603	-0.417607
50590	-9.588618	-0.349776	-2.367660	-0.267991	0.339848	0.060632	0.469458	0.511111	0.586459	-0.417661
50591	-9.549750	-0.262833	-1.958999	-0.137213	-0.039246	-0.061579	0.469258	0.511306	0.586276	-0.417904
50592	-9.543465	-0.165452	-1.736532	-0.014054	-0.243097	-0.114164	0.469055	0.511423	0.586215	-0.418074
50593	-9.543771	-0.128768	-1.825569	0.014199	-0.152179	-0.096233	0.469104	0.511305	0.586288	-0.418061
50594	-9.535585	-0.119911	-2.003665	0.003785	0.023562	-0.068158	0.469345	0.510899	0.586695	-0.417715
50595	-9.568700	-0.102107	-2.233336	-0.002893	0.243035	0.010711	0.469701	0.510423	0.587010	-0.417455
50596	-9.495200	-0.111640	-2.135475	-0.003808	0.164372	-0.081063	0.469927	0.510112	0.587135	-0.417405
50597	-9.499628	-0.123563	-2.164220	-0.017652	0.194054	-0.070815	0.470016	0.509931	0.587108	-0.417564
50598	-9.500671	-0.153363	-2.162246	-0.043904	0.191362	-0.069843	0.469803	0.509978	0.587030	-0.417856
50599	-9.489189	-0.256311	-2.272025	-0.154263	0.290600	-0.057471	0.469489	0.510150	0.586770	-0.418364
50600	-9.501020	-0.335702	-2.178533	-0.216996	0.191226	-0.063614	0.469232	0.510239	0.586591	-0.418793
50601	-9.455043	-0.251071	-2.183459	-0.129743	0.217899	-0.108871	0.468959	0.510277	0.586489	-0.419196
50602	-9.459452	-0.155365	-2.152110	-0.025174	0.199465	-0.112351	0.468733	0.510247	0.586497	-0.419474
50603	-9.498975	-0.144004	-2.401255	-0.034305	0.436911	-0.023652	0.468470	0.510319	0.586384	-0.419839
50604	-9.456219	-0.034417	-2.200228	0.099837	0.264524	-0.107929	0.468108	0.510589	0.586058	-0.420369
50605	-9.436891	-0.014250	-2.141383	0.130973	0.215880	-0.139173	0.467547	0.511027	0.585584	-0.421120
50606	-9.435928	0.025016	-2.046164	0.185689	0.128748	-0.160067	0.467075	0.511375	0.585317	-0.421593
50607	-9.429993	0.027438	-2.072227	0.189127	0.154940	-0.160752	0.466829	0.511524	0.585226	-0.421810
50608	-9.476502	-0.053725	-2.156017	0.103844	0.216596	-0.096840	0.466797	0.511437	0.585442	-0.421652
50609	-9.477999	-0.252033	-2.403074	-0.117373	0.432261	-0.041806	0.466730	0.511391	0.585603	-0.421558
50610	-9.524577	-0.195475	-2.426183	-0.059244	0.449730	0.007515	0.466438	0.511593	0.585501	-0.421779
50611	-9.481471	-0.135965	-2.281183	0.016856	0.322747	-0.065066	0.466002	0.511962	0.585207	-0.422219
50612	-9.518364	-0.167077	-2.118752	0.008330	0.153371	-0.061139	0.465583	0.512255	0.585000	-0.422613
50613	-9.468733	-0.150014	-2.148317	0.025158	0.193120	-0.104096	0.465122	0.512576	0.584778	-0.423039
50614	-9.509973	-0.142367	-2.246498	0.029782	0.281087	-0.044028	0.464699	0.512874	0.584525	-0.423491
50615	-9.502021	-0.128388	-2.185799	0.053877	0.225437	-0.064412	0.464430	0.513001	0.584401	-0.423804
50616	-9.487602	-0.103008	-2.247148	0.076772	0.291030	-0.066700	0.464203	0.513060	0.584371	-0.424023
50617	-9.442191	-0.104413	-2.165689	0.084608	0.220029	-0.127621	0.464151	0.512960	0.584510	-0.424010
50618	-9.439822	-0.142294	-2.178178	0.048163	0.227856	-0.126578	0.464054	0.512918	0.584600	-0.424043
50619	-9.447613	-0.200844	-2.100223	0.000296	0.142918	-0.133419	0.463843	0.513033	0.584589	-0.424149
50620	-9.464477	-0.244548	-2.075037	-0.037621	0.108316	-0.121002	0.463604	0.513181	0.584582	-0.424240
50621	-9.546139	-0.259842	-2.183380	-0.056649	0.193312	-0.018666	0.463283	0.513368	0.584557	-0.424400
50622	-9.527707	-0.333553	-2.221210	-0.131531	0.225221	-0.027279	0.463089	0.513523	0.584414	-0.424621
50623	-9.616753	-0.391230	-2.159371	-0.176632	0.142244	0.048674	0.462839	0.513688	0.584233	-0.424943
50624	-9.562175	-0.272085	-2.018358	-0.043241	0.030005	-0.036174	0.462514	0.513865	0.583952	-0.425468
50625	-9.507758	-0.169154	-2.017659	0.061419	0.053006	-0.092068	0.462449	0.513716	0.584022	-0.425622
50626	-9.494540	-0.121914	-2.305563	0.085029	0.343563	-0.047878	0.462575	0.513389	0.584186	-0.425657
50627	-9.384146	-0.132171	-2.370559	0.066753	0.431235	-0.142693	0.462559	0.513282	0.584147	-0.425855
50628	-9.378035	-0.119090	-2.209910	0.096762	0.279272	-0.181589	0.462469	0.513280	0.584116	-0.425998
50629	-9.454492	-0.269572	-2.300120	-0.055388	0.337313	-0.084697	0.462298	0.513350	0.584098	-0.426124
50630	-9.427222	-0.256384	-2.139012	-0.026065	0.184824	-0.144245	0.462006	0.513532	0.584100	-0.426219
50631	-9.406576	-0.252857	-2.182285	-0.025763	0.228485	-0.155715	0.461904	0.513612	0.584141	-0.426178
50632	-9.430721	-0.282645	-2.263420	-0.061780	0.297717	-0.114801	0.461891	0.513655	0.584176	-0.426092
50633	-9.464813	-0.228176	-2.205104	-0.001059	0.236471	-0.094596	0.461670	0.513900	0.584134	-0.426094
50634	-9.519444	-0.199284	-2.151178	0.035283	0.171842	-0.052753	0.461488	0.514083	0.584138	-0.426063
50635	-9.532092	-0.261963	-2.052888	-0.017197	0.062008	-0.058734	0.461361	0.514132	0.584393	-0.425793
50636	-9.566810	-0.238760	-2.223394	-0.005892	0.217956	0.009573	0.461093	0.514237	0.584488	-0.425825
50637	-9.567669	-0.135775	-2.123844	0.109205	0.128111	-0.012632	0.460748	0.514461	0.584354	-0.426111
50638	-9.636083	-0.158377	-1.875783	0.114900	-0.129541	0.004020	0.460655	0.514460	0.584304	-0.426282
50639	-9.592740	-0.324390	-2.021178	-0.062015	0.007414	-0.004163	0.460646	0.514274	0.584342	-0.426466
50640	-9.583840	-0.281956	-2.057028	-0.018684	0.051970	-0.006679	0.460471	0.514221	0.584236	-0.426862
50641	-9.520916	-0.346263	-2.145271	-0.088006	0.150661	-0.048494	0.460375	0.514138	0.583987	-0.427407
50642	-9.479880	-0.357553	-2.183476	-0.098514	0.204294	-0.080674	0.460094	0.514242	0.583488	-0.428265
50643	-9.457450	-0.324862	-2.186347	-0.060450	0.223405	-0.103134	0.459719	0.514430	0.583042	-0.429048
50644	-9.501238	-0.292832	-2.225181	-0.022930	0.262110	-0.053514	0.459422	0.514505	0.582751	-0.429672
50645	-9.479561	-0.187645	-2.039675	0.102039	0.100304	-0.115415	0.459220	0.514507	0.582546	-0.430162
50646	-9.477207	-0.251695	-2.142337	0.034685	0.200621	-0.095231	0.459228	0.514297	0.582512	-0.430451
50647	-9.476967	-0.133646	-2.049125	0.164669	0.125206	-0.118005	0.459077	0.514210	0.582411	-0.430851
50648	-9.518382	-0.134541	-2.099789	0.166907	0.170552	-0.067439	0.458966	0.514108	0.582362	-0.431158
50649	-9.513693	-0.263384	-2.166331	0.037083	0.230622	-0.054709	0.458962	0.514014	0.582138	-0.431577
50650	-9.449522	-0.442443	-2.213757	-0.144732	0.281202	-0.102388	0.458869	0.514013	0.581840	-0.432079
50651	-9.445598	-0.443165	-2.136541	-0.135388	0.211062	-0.121575	0.458671	0.514008	0.581786	-0.432367
50652	-9.543260	-0.526260	-2.405583	-0.228436	0.449562	0.030244	0.458294	0.514145	0.581627	-0.432818
50653	-9.580914	-0.453173	-2.192102	-0.128749	0.242514	0.022412	0.457360	0.514843	0.580910	-0.433938
50654	-9.669012	-0.349380	-1.897649	0.010833	-0.048351	0.046849	0.456436	0.515548	0.579996	-0.435294
50655	-9.674597	-0.217180	-1.779878	0.161243	-0.144828	0.024282	0.455816	0.515837	0.579271	-0.436566
50656	-9.619894	-0.229902	-1.972059	0.144002	0.065603	0.008675	0.455431	0.515819	0.578704	-0.437738
50657	-9.476123	-0.311818	-1.945218	0.068004	0.076134	-0.134487	0.454858	0.516069	0.577793	-0.439241
50658	-9.503580	-0.619203	-1.996157	-0.228856	0.116899	-0.085405	0.454164	0.516547	0.576617	-0.440939
50659	-9.384325	-0.787099	-1.995129	-0.392005	0.144718	-0.195464	0.453314	0.517222	0.575405	-0.442602
50660	-9.391327	-0.723700	-2.444683	-0.341806	0.604275	-0.106234	0.452602	0.517840	0.574213	-0.444153
50661	-9.406070	-0.481208	-2.342904	-0.083376	0.530935	-0.122174	0.451496	0.518891	0.572681	-0.446027
50662	-9.591650	-0.721164	-2.009531	-0.289065	0.170217	0.007979	0.450740	0.519573	0.571591	-0.447394
50663	-9.610016	-0.746979	-2.066435	-0.307840	0.236162	0.037692	0.450298	0.519813	0.570685	-0.448716
50664	-9.573048	-0.386836	-2.017617	0.058863	0.227163	-0.024501	0.450098	0.519887	0.569978	-0.449727
50665	-9.721775	-0.232514	-1.582301	0.239202	-0.207848	0.034659	0.450601	0.519329	0.570011	-0.449825
50666	-9.715163	-0.365408	-1.450687	0.111000	-0.329942	0.010816	0.451894	0.517930	0.570743	-0.449213
50667	-9.649104	-0.233131	-2.020162	0.215381	0.264005	0.042489	0.453752	0.515828	0.571849	-0.448351
50668	-9.419472	-0.148214	-2.163436	0.278309	0.470134	-0.162280	0.455425	0.513884	0.572726	-0.447767
50669	-9.402915	-0.247820	-2.032708	0.182301	0.358786	-0.197796	0.456915	0.512222	0.573390	-0.447305
50670	-9.292918	-0.321572	-1.533275	0.127025	-0.101310	-0.390041	0.458082	0.511067	0.573786	-0.446923
50671	-9.375660	-0.642382	-1.359725	-0.183493	-0.298303	-0.323649	0.459432	0.509974	0.574513	-0.445852
50672	-9.303094	-0.912542	-1.437592	-0.470871	-0.228106	-0.369531	0.460894	0.508792	0.575547	-0.444357
50673	-9.285594	-0.899155	-2.459039	-0.537152	0.772217	-0.210982	0.461957	0.507694	0.576900	-0.442751
50674	-9.483530	-0.551929	-2.649670	-0.197890	0.941370	0.002472	0.461541	0.507992	0.577215	-0.442433
50675	-9.444272	-0.729848	-2.210319	-0.346387	0.492962	-0.104471	0.461007	0.508898	0.576677	-0.442651
50676	-9.312924	-0.773883	-1.719385	-0.366863	0.025508	-0.317926	0.460134	0.510218	0.575711	-0.443295
50677	-9.285905	-0.506265	-1.615041	-0.099355	-0.059670	-0.374507	0.459566	0.511163	0.575375	-0.443231
50678	-9.578444	-0.387580	-1.794955	0.019649	0.059546	-0.060010	0.458545	0.512411	0.575092	-0.443216
50679	-9.827094	-0.356248	-1.974423	0.052076	0.176407	0.215432	0.457316	0.513893	0.574460	-0.443589
50680	-9.748455	-0.331711	-1.800588	0.083060	0.004238	0.105860	0.455365	0.516149	0.573172	-0.444642
50681	-9.633199	-0.371607	-1.696632	0.042103	-0.094970	-0.024717	0.453930	0.517978	0.572091	-0.445374
50682	-9.612925	-0.306940	-1.699153	0.100767	-0.096942	-0.046926	0.453169	0.519244	0.571351	-0.445625
50683	-9.925472	-0.342088	-1.725193	0.073541	-0.139683	0.266171	0.452639	0.520178	0.570857	-0.445708
50684	-9.845192	-0.074512	-1.913673	0.329352	0.070049	0.211390	0.451014	0.521896	0.569119	-0.447565
50685	-9.906247	0.102427	-1.550162	0.528904	-0.285029	0.196620	0.449418	0.523500	0.567105	-0.449848
50686	-9.885525	-0.024066	-1.584841	0.408701	-0.235928	0.187971	0.448468	0.524365	0.565240	-0.452130
50687	-9.842505	-0.272531	-1.611757	0.167348	-0.182065	0.161565	0.447577	0.525159	0.563097	-0.454758
50688	-9.832016	-0.119643	-1.314375	0.331343	-0.429150	0.092679	0.447678	0.525163	0.560886	-0.457379
50689	-10.979845	-0.614066	-1.122221	-0.112950	-0.768551	1.214082	0.447964	0.526051	0.557456	-0.460262
50690	-6.209582	-4.240329	-2.680746	-3.989092	1.545057	-3.072853	0.453483	0.521863	0.559249	-0.457441
50691	-10.831307	-2.232248	-5.944226	-1.829626	4.108759	1.909221	0.451042	0.525742	0.552812	-0.463201
50692	-10.116768	1.619159	0.251838	2.027430	-1.835250	0.064326	0.442136	0.532732	0.544175	-0.473904
50693	-8.423070	3.435468	-0.769770	3.832864	-0.664706	-1.553766	0.434936	0.536855	0.538210	-0.482646
50694	-8.968311	1.890964	-1.627235	2.392055	0.149579	-0.817692	0.435334	0.536689	0.538585	-0.482053
50695	-9.601279	-2.741560	-2.928441	-2.155331	1.565051	0.246200	0.439877	0.533784	0.541567	-0.477795
50696	-9.785573	-2.273216	-1.863562	-1.761544	0.459564	0.241345	0.440677	0.533210	0.541340	-0.477956
50697	-9.421487	-1.260322	-1.067663	-0.802756	-0.306410	-0.286176	0.441801	0.531925	0.542797	-0.476696
50698	-9.714982	-0.659064	-1.961082	-0.156791	0.510269	0.105787	0.443281	0.530372	0.544198	-0.475454
50699	-9.469939	-0.596668	-1.642519	-0.123801	0.235963	-0.186545	0.443508	0.530813	0.543326	-0.475748
50700	-9.794777	-1.292826	-0.643676	-0.851897	-0.772436	0.020978	0.444409	0.530711	0.543134	-0.475239
50701	-9.535742	-1.754650	-1.375278	-1.311726	0.007144	-0.108055	0.446311	0.529175	0.544023	-0.474151
50702	-9.171400	-1.120737	-1.958409	-0.690596	0.629596	-0.414141	0.448387	0.527611	0.545050	-0.472755
50703	-9.585110	-1.354100	-1.342518	-0.937904	-0.033397	-0.084920	0.450428	0.526413	0.546024	-0.471023
50704	-9.746828	-1.432732	-0.860602	-1.037711	-0.535025	0.007236	0.453028	0.524822	0.547338	-0.468773
50705	-9.546746	-1.388446	-1.410000	-1.019425	0.034863	-0.116515	0.455625	0.523200	0.548590	-0.466601
50706	-9.434278	-1.021604	-1.845131	-0.681379	0.486940	-0.181885	0.457590	0.522261	0.548944	-0.465312
50707	-9.213929	-0.995111	-1.798188	-0.687887	0.480312	-0.409695	0.458904	0.522311	0.548399	-0.464604
50708	-9.652372	-0.701516	-1.365712	-0.406830	0.003981	-0.047445	0.459865	0.523154	0.547099	-0.464237
50709	-9.615725	-0.169062	-1.293931	0.086528	-0.046475	-0.109327	0.460790	0.524592	0.545213	-0.463917
50710	-9.872415	-1.004573	-1.346154	-0.790166	-0.034125	0.170304	0.462950	0.524909	0.544991	-0.461662
50711	-9.389785	-1.306176	-2.345537	-1.160797	1.012951	-0.168934	0.464791	0.525432	0.544589	-0.459689
50712	-9.392043	-0.646667	-2.022630	-0.547948	0.690678	-0.224039	0.465853	0.526937	0.543831	-0.457783
50713	-9.441850	-0.520412	-1.750392	-0.469434	0.401884	-0.215755	0.467235	0.528205	0.543086	-0.455795
50714	-9.261611	-0.584172	-2.317006	-0.596309	0.973756	-0.316207	0.468848	0.529273	0.542632	-0.453434
50715	-9.549874	-0.659171	-2.212555	-0.727013	0.812090	-0.048382	0.470231	0.530777	0.541853	-0.451170
50716	-9.592766	-0.874112	-1.876041	-0.997384	0.449862	-0.060393	0.472517	0.531369	0.541951	-0.447955
50717	-9.726045	-0.782571	-1.747399	-0.968467	0.277762	0.048664	0.475199	0.531374	0.543059	-0.443750
50718	-10.084509	-0.299188	-1.158781	-0.534634	-0.376951	0.321477	0.478292	0.530819	0.544748	-0.438996
50719	-10.266672	0.471310	-0.839454	0.188590	-0.711451	0.472710	0.481793	0.529584	0.546315	-0.434692
50720	-10.424433	1.303119	-0.684535	0.974512	-0.842136	0.636066	0.485231	0.528146	0.547004	-0.431739
50721	-10.361688	1.682265	-0.568333	1.322020	-0.891041	0.578444	0.488337	0.526684	0.546471	-0.430697
50722	-10.659619	1.438351	0.293267	1.097723	-1.736483	0.749574	0.490878	0.525447	0.544103	-0.432315
50723	-10.685465	0.830290	1.000618	0.518087	-2.379259	0.672510	0.493489	0.523594	0.540821	-0.435696
50724	-10.667349	-0.036578	0.375911	-0.393786	-1.689021	0.719441	0.495902	0.521217	0.537575	-0.439804
50725	-10.839429	0.043408	0.112710	-0.327294	-1.312155	0.942656	0.496793	0.519575	0.533602	-0.445542
50726	-10.492707	0.928535	0.611809	0.612512	-1.586895	0.600680	0.498024	0.517444	0.529073	-0.452001
50727	-9.281452	1.672493	0.692047	1.411752	-1.378763	-0.564678	0.501760	0.513237	0.525707	-0.456572
50728	-8.935829	1.824038	-0.112871	1.542055	-0.397067	-0.832069	0.507982	0.506867	0.524951	-0.457676
50729	-8.873713	1.698471	-0.661720	1.382661	0.286889	-0.864506	0.514753	0.499841	0.525740	-0.456930
50730	-8.930069	0.902905	-1.320360	0.528759	0.992407	-0.810484	0.521463	0.491756	0.529575	-0.453655
50731	-10.040915	-0.621644	-1.911474	-1.083929	1.468621	0.263425	0.527573	0.483406	0.533254	-0.451250
50732	-8.387777	0.932281	-4.338516	0.227517	4.206802	-1.309980	0.530840	0.478649	0.530668	-0.455517
50733	-5.429564	1.367599	-7.079947	0.449166	7.107398	-4.266627	0.529858	0.478977	0.528103	-0.459281
50734	-4.946990	0.243453	-5.458966	-0.461274	5.378751	-4.793885	0.529394	0.478934	0.530670	-0.456896
50735	-5.143159	1.254673	-5.506646	0.512238	5.492638	-4.529004	0.527654	0.480984	0.534109	-0.452728
50736	-7.320371	2.850958	-3.602128	2.258663	3.616581	-2.295550	0.522808	0.488320	0.536038	-0.448194
50737	-13.082380	2.967206	-0.324118	2.550084	-0.157944	3.359963	0.515674	0.499478	0.536899	-0.443103
50738	-16.745939	3.042715	0.246948	2.455171	-1.362615	6.975580	0.508281	0.511037	0.535576	-0.440057
50739	-14.049921	2.752057	3.301657	2.370532	-4.478558	3.978301	0.502147	0.520946	0.531615	-0.440283
50740	-10.319409	0.594628	2.727772	0.269991	-3.790517	0.179463	0.503228	0.521407	0.534524	-0.434949
50741	-8.800750	-1.532204	-1.248421	-2.074246	0.119120	-1.035305	0.504469	0.520902	0.536809	-0.431287
50742	-8.036235	1.269483	-1.197345	0.736759	0.326456	-1.628750	0.505176	0.521147	0.537988	-0.428687
50743	-8.339105	0.751443	-2.495804	0.059808	1.496969	-1.205164	0.507153	0.520105	0.541598	-0.423034
50744	-9.982169	0.140338	-1.085523	-0.534395	-0.232851	0.212340	0.506804	0.520774	0.544955	-0.418292
50745	-10.722283	-0.553794	-0.713864	-1.245708	-0.846516	0.841648	0.507067	0.521353	0.546737	-0.414912
50746	-10.109178	-1.260575	-1.992520	-2.067906	0.389522	0.352285	0.504827	0.524799	0.544774	-0.415881
50747	-9.428665	0.086764	-1.154012	-0.611821	-0.230442	-0.335793	0.501125	0.529531	0.541452	-0.418688
50748	-9.390569	0.832005	-0.907929	0.145866	-0.432234	-0.352709	0.498670	0.532687	0.539531	-0.420094
50749	-9.588423	1.157553	-0.988107	0.442635	-0.381916	-0.121850	0.498006	0.533793	0.539152	-0.419964
50750	-9.781835	1.370766	-0.750247	0.649509	-0.644541	0.050824	0.499105	0.533183	0.540251	-0.418018
50751	-10.075895	1.104033	-0.743920	0.350568	-0.722119	0.319025	0.501201	0.531563	0.542180	-0.415065
50752	-9.956446	1.114574	-0.867794	0.343094	-0.586188	0.220498	0.503273	0.529862	0.544050	-0.412278
50753	-9.820193	1.079681	-1.159750	0.275665	-0.283828	0.126646	0.504741	0.528678	0.545296	-0.410351
50754	-9.581745	1.033161	-1.827632	0.164444	0.403620	-0.013323	0.505473	0.528275	0.545747	-0.409369
50755	-9.481629	0.824271	-2.251161	-0.089549	0.811575	-0.066829	0.505222	0.528936	0.545360	-0.409340
50756	-9.575659	0.499455	-2.002338	-0.395277	0.518004	-0.038871	0.504428	0.530130	0.544315	-0.410167
50757	-9.660782	0.296674	-1.619512	-0.564136	0.111866	-0.029499	0.503680	0.531201	0.543134	-0.411264
50758	-10.008904	0.263968	-1.259787	-0.589673	-0.291492	0.257179	0.503763	0.531481	0.542416	-0.411747
50759	-10.441739	0.496924	-0.963146	-0.367942	-0.615304	0.660635	0.505001	0.530514	0.542386	-0.411518
50760	-11.119635	1.053318	-0.277443	0.199445	-1.312748	1.280982	0.507141	0.528300	0.542729	-0.411281
50761	-11.661119	1.772479	0.517087	0.965819	-2.044467	1.775128	0.510157	0.524690	0.543163	-0.411599
50762	-12.242709	2.429645	1.185695	1.673183	-2.607006	2.336187	0.513430	0.520464	0.542250	-0.414092
50763	-12.419095	3.299861	2.127855	2.656455	-3.299278	2.504186	0.516244	0.516544	0.538541	-0.420295
50764	-12.393675	4.975853	3.707664	4.497557	-4.469722	2.511972	0.518915	0.512949	0.531174	-0.430656
50765	-12.506164	7.110331	4.688300	6.686731	-4.968397	2.817927	0.524764	0.506628	0.522686	-0.441304
50766	-12.586939	8.700883	4.469394	8.231348	-4.171957	3.184366	0.536505	0.495180	0.515272	-0.448836
50767	-12.487030	9.566632	4.292768	9.096494	-3.223712	3.327973	0.554474	0.477276	0.511111	-0.451144
50768	-11.861815	9.048723	2.791004	8.445472	-0.886573	2.763930	0.578021	0.452371	0.508834	-0.449823
50769	-10.587157	5.698775	-3.405577	4.004328	5.408735	0.714115	0.602683	0.424872	0.510024	-0.442868
50770	-9.705646	-0.872972	-10.201517	-4.205623	10.772060	-1.733009	0.618097	0.407837	0.506621	-0.441543
50771	-8.354196	-1.843003	-6.693571	-4.378113	7.125577	-2.881377	0.628979	0.398183	0.500061	-0.442464
50772	-7.711850	-4.389988	-6.344764	-6.828263	6.050928	-3.833172	0.640819	0.388680	0.494578	-0.440081
50773	-7.192777	-3.707979	-4.092310	-5.654790	4.082926	-4.017849	0.652215	0.382202	0.486811	-0.437667
50774	-5.268243	-0.681131	-2.608518	-2.228897	3.306832	-5.440378	0.663255	0.378260	0.478927	-0.433175
50775	-6.178261	1.897587	-0.007081	0.669139	1.983642	-3.698168	0.670264	0.380873	0.473271	-0.426259
50776	-7.148423	3.202379	1.081409	1.859201	1.627847	-2.301701	0.676781	0.385131	0.468547	-0.417259
50777	-7.386951	2.974401	0.265289	1.160292	2.320117	-2.279294	0.683541	0.388033	0.465830	-0.406454
50778	-7.771050	3.423057	0.497452	1.368704	2.315122	-1.743111	0.690003	0.388993	0.465674	-0.394623
50779	-8.357556	3.388691	0.856847	1.130263	2.064494	-1.064878	0.697188	0.386988	0.467451	-0.381653
50780	-8.885539	3.789961	1.578232	1.430627	1.666612	-0.274291	0.704513	0.383957	0.468981	-0.369181
50781	-9.584332	3.730614	1.887364	1.128813	1.500062	0.473834	0.712016	0.379891	0.470178	-0.357280
50782	-8.910701	2.954126	2.755493	0.848922	0.295811	-0.070478	0.717865	0.378511	0.469166	-0.348257
50783	-8.511065	1.641986	4.310426	0.361892	-1.733369	-0.295437	0.722665	0.377570	0.468243	-0.340507
50784	-8.434958	-0.677226	4.440571	-1.583638	-2.963195	-0.866328	0.727034	0.374896	0.468015	-0.334419
50785	-7.341952	-0.724657	5.182938	-0.945222	-3.775019	-1.679548	0.729908	0.371825	0.468171	-0.331355
50786	-6.311478	-0.630062	4.476787	-0.736746	-3.237226	-2.794912	0.734416	0.361129	0.474089	-0.324745
50787	-6.335094	-1.133256	2.414139	-1.951787	-1.739918	-3.456020	0.739082	0.347122	0.483370	-0.315622
50788	-6.696288	-1.028050	2.777548	-1.671591	-1.940886	-2.953474	0.742549	0.334618	0.492211	-0.307215
50789	-6.924458	-0.375996	4.299730	-0.305784	-2.752453	-2.137667	0.743616	0.326500	0.499194	-0.302056
50790	-8.227649	1.571247	6.198784	1.946178	-2.927329	-0.003025	0.742175	0.323350	0.505312	-0.298799
50791	-11.763153	2.616875	5.721065	1.496381	-1.539874	3.353122	0.740112	0.324035	0.509558	-0.295950
50792	-11.541348	2.402807	4.701359	0.893554	-0.995911	2.808229	0.737681	0.327741	0.511176	-0.295146
50793	-11.118527	3.272919	5.429523	2.136954	-1.196877	2.749689	0.735479	0.329809	0.513773	-0.293826
50794	-12.911326	2.995813	4.776053	1.111995	-0.712042	4.213813	0.736168	0.323412	0.520789	-0.286775
50795	-15.008282	0.949516	3.983809	-1.438955	-1.157911	5.634296	0.737675	0.319300	0.523198	-0.283103
50796	-13.607565	2.481864	6.633228	1.632206	-2.310251	5.264490	0.740473	0.318546	0.518393	-0.285476
50797	-11.053978	3.451349	5.794842	2.522192	-1.135273	2.837449	0.746741	0.313095	0.511948	-0.286807
50798	-9.093063	2.639116	3.201795	0.887969	0.336012	0.136861	0.754402	0.306485	0.504190	-0.287642
50799	-8.304937	1.785704	0.917762	-0.950165	1.603875	-1.474596	0.761768	0.301482	0.495025	-0.289429
50800	-7.682992	1.546066	-0.850531	-2.057022	2.836594	-2.751469	0.768731	0.298909	0.483754	-0.292725
50801	-6.520998	4.106813	-0.069418	0.592141	3.803725	-3.136331	0.774250	0.300548	0.471522	-0.296438
50802	-4.889033	6.115124	1.522170	3.474300	3.645417	-3.627756	0.779604	0.300598	0.462264	-0.296936
50803	-3.356084	5.061125	2.361256	3.663536	2.113664	-4.856472	0.783911	0.296802	0.458735	-0.294881
50804	-3.068584	4.359537	3.487427	3.829314	0.828163	-4.789317	0.785459	0.293807	0.458342	-0.294370
50805	-6.908285	5.368523	7.107410	4.959199	-0.366968	0.303219	0.785770	0.289781	0.459850	-0.295178
50806	-9.879520	4.974780	7.460500	3.749468	-0.116983	2.990959	0.786832	0.279617	0.463084	-0.297091
50807	-9.164729	6.999498	5.017546	4.340573	2.963302	1.612525	0.783146	0.276480	0.468304	-0.301550
50808	-10.088197	7.300863	7.496517	5.833608	1.741866	3.385378	0.782555	0.261522	0.481045	-0.296327
50809	-6.682688	0.094297	-1.435907	-3.195878	2.486657	-4.305323	0.783416	0.242829	0.495318	-0.286277
50810	-5.027271	-0.533767	2.052474	-0.752648	-0.700455	-4.454432	0.781141	0.229260	0.511265	-0.275440
50811	-6.679019	-3.287193	-3.246521	-6.504834	0.884915	-5.032820	0.778084	0.213028	0.529255	-0.262857
50812	-9.276414	-4.475827	-0.298516	-5.737991	-1.586142	-1.403555	0.772525	0.196970	0.547908	-0.253386
50813	-12.269035	-7.747993	-1.631908	-9.073937	-3.051514	1.211204	0.764946	0.179555	0.567446	-0.246218
50814	-15.009297	-6.275312	-1.004692	-7.786093	-1.886775	4.380498	0.756586	0.166999	0.583341	-0.243725
50815	-14.208794	-3.883960	0.629098	-4.456079	-0.986778	4.206054	0.749166	0.160656	0.594080	-0.244968
50816	-12.195784	-0.060682	0.527440	-1.679715	1.857491	2.134779	0.742935	0.158128	0.601946	-0.246381
50817	-10.244217	3.578548	1.696458	1.839728	3.858801	0.304173	0.738091	0.153968	0.610175	-0.243313
50818	-10.035200	2.021355	1.197591	0.742563	2.787431	0.081880	0.734408	0.143833	0.620739	-0.233752
50819	-10.329657	-0.889693	0.527887	-1.229652	0.685694	0.472531	0.731326	0.130622	0.631766	-0.221295
50820	-10.350869	-2.828633	0.848057	-1.695845	-1.204416	0.748024	0.728088	0.119457	0.641178	-0.210973
50821	-9.097567	-2.949088	0.968317	-1.317196	-1.615364	-0.429010	0.724804	0.112931	0.647956	-0.205082
50822	-7.849412	-1.335745	1.323752	-0.019689	-0.569125	-1.761339	0.721458	0.108292	0.654146	-0.199661
50823	-8.735477	0.170412	1.829865	1.151136	0.659334	-0.985177	0.718060	0.103793	0.660637	-0.192809
50824	-9.261337	-0.295610	1.743254	0.969720	0.321688	-0.439686	0.714885	0.096325	0.667856	-0.183383
50825	-9.526486	-0.113900	2.135427	1.522074	0.358720	-0.175255	0.712185	0.087805	0.674441	-0.173818
50826	-8.735197	-0.571873	0.894110	0.346893	0.289165	-1.024900	0.710404	0.076301	0.680700	-0.161718
50827	-10.221513	-0.980785	0.293729	-0.292717	0.278183	0.451980	0.709277	0.063956	0.686175	-0.148321
50828	-9.423823	0.720807	-1.474178	-1.389885	2.276507	-0.626469	0.709726	0.053476	0.688976	-0.136901
50829	-9.872237	4.756429	-0.154314	0.931932	5.780015	-0.548210	0.709578	0.045804	0.691690	-0.126354
50830	-10.116171	7.880606	-0.363667	1.324030	8.854324	-0.624974	0.709829	0.034332	0.694736	-0.110933
50831	-10.612596	6.714600	-1.102883	-0.009608	7.892120	0.017297	0.711378	0.017586	0.697077	-0.087835
50832	-10.080563	2.695630	-3.309154	-3.194480	4.018797	-0.145220	0.714548	-0.005538	0.697304	-0.056184
50833	-8.917105	-3.702064	-4.647840	-5.072254	-2.791902	-0.797815	0.716496	-0.033217	0.696526	-0.019534
50834	-8.482765	-9.203940	-4.089745	-3.932329	-8.815121	-0.859768	0.715507	-0.059753	0.695865	0.015843
50835	-9.128773	-14.606574	-4.022671	-2.397362	-14.499470	0.024325	0.710973	-0.081122	0.697028	0.045703
50836	-10.497091	-9.920872	-1.032181	0.523956	-9.496662	1.105172	0.706615	-0.088782	0.699331	0.061233
50837	-8.449754	0.726803	1.207630	0.883552	1.210027	-1.378286	0.703771	-0.089338	0.701127	0.071734
50838	-6.153998	10.380447	4.645376	2.011702	11.275865	-3.813001	0.696173	-0.099687	0.704586	0.094681
50839	-9.535393	4.880109	-1.004794	-2.338837	4.274210	-0.221908	0.682894	-0.129463	0.704689	0.142505
50840	-12.436195	-1.114926	-2.047109	-0.927696	-2.189303	2.613315	0.669601	-0.153052	0.702435	0.186533
50841	-14.289767	-9.160552	-4.765007	1.301424	-10.940574	3.945091	0.655504	-0.181083	0.696611	0.228597
50842	-11.728297	-12.035909	-8.387371	0.661106	-15.289506	1.073760	0.644150	-0.184540	0.701374	0.243085
50843	-12.636409	-0.446636	-3.460222	-1.226559	-3.085689	2.868719	0.637227	-0.170077	0.712678	0.238968
50844	-13.020122	5.635957	-4.046662	-4.616747	1.675225	4.098850	0.631674	-0.160171	0.721374	0.234421
50845	-9.970663	10.714711	-0.886051	-4.714546	7.913500	1.595515	0.627535	-0.153579	0.726919	0.232815
50846	-10.981810	12.611209	1.989589	-2.987000	10.855899	2.710153	0.620545	-0.157142	0.727900	0.245746
50847	-12.684744	8.216488	-1.528524	-3.411847	4.863138	4.167617	0.611960	-0.169223	0.725593	0.265297
50848	-10.546819	5.339667	-2.603126	-3.133945	1.751236	1.746940	0.601424	-0.188858	0.719879	0.290510
50849	-13.405570	-0.449387	-3.959597	0.077353	-4.048373	3.573278	0.591682	-0.208226	0.712232	0.315087
50850	-7.642658	-3.810796	-3.093964	1.959623	-5.510940	-2.863456	0.587842	-0.214253	0.708117	0.327274
50851	-6.222916	-2.381189	-1.917212	1.603945	-3.576421	-4.093692	0.586648	-0.210968	0.709842	0.327813
50852	-6.279639	0.479721	0.139693	1.159652	-0.132784	-3.622294	0.587182	-0.203959	0.714093	0.322009
50853	-6.469659	1.743121	2.538972	2.128698	2.405476	-3.407731	0.586623	-0.200833	0.716419	0.319816
50854	-7.640841	1.776277	3.560837	3.139504	3.014168	-2.377941	0.586217	-0.200250	0.716860	0.319939
50855	-8.105600	2.113061	4.306588	3.573946	3.715550	-1.930172	0.587044	-0.199025	0.717014	0.318841
50856	-8.052919	2.206495	3.580086	2.984507	3.266936	-1.878278	0.590136	-0.195287	0.717071	0.315296
50857	-7.744037	2.655449	2.723823	2.005026	3.006230	-1.977958	0.595290	-0.189728	0.716487	0.310289
50858	-7.510794	2.318979	1.764019	1.433174	2.096804	-2.167394	0.602108	-0.183822	0.714647	0.304884
50859	-7.543321	2.332453	1.429401	1.122527	1.838286	-2.083183	0.610606	-0.177502	0.711808	0.298299
50860	-7.229296	1.851960	0.805075	0.784275	1.068433	-2.424667	0.620354	-0.171666	0.707679	0.291346
50861	-6.708527	0.779095	-0.466466	0.209218	-0.512537	-3.065786	0.630709	-0.166106	0.703180	0.283113
50862	-6.590213	0.089724	-1.818403	-0.649018	-1.841287	-3.260481	0.640837	-0.160173	0.699698	0.272204
50863	-7.651183	1.265585	-3.423622	-2.669700	-1.876784	-1.989007	0.649572	-0.155113	0.697330	0.260245
50864	-9.423745	3.268918	-6.994156	-6.730644	-2.289025	0.079954	0.656091	-0.154075	0.694422	0.252158
50865	-9.555826	4.193740	-11.335577	-11.064134	-3.705984	0.248986	0.663274	-0.153296	0.690486	0.244535
50866	-10.350685	5.732517	-7.229236	-8.518960	-0.028812	1.126743	0.670415	-0.147679	0.690121	0.229059
50867	-14.784174	5.522126	-7.203782	-8.310355	-0.207386	5.413244	0.678130	-0.135893	0.691234	0.209448
50868	-16.693945	10.264527	-8.551593	-11.572779	3.913149	7.732956	0.682265	-0.120960	0.697262	0.183598
50869	-19.340604	13.313060	-5.508487	-9.503005	8.665539	10.586630	0.681365	-0.110901	0.705712	0.159415
50870	-14.612119	12.408053	-8.697209	-11.927451	7.636639	5.760217	0.678283	-0.114855	0.710139	0.149812
50871	-12.770713	9.583724	5.941287	3.022962	10.595957	3.179265	0.675402	-0.107168	0.717904	0.130231
50872	-14.681531	2.441039	20.051380	18.896913	8.693714	4.002142	0.674032	-0.119530	0.715625	0.138831
50873	-10.902248	-8.456276	2.568685	5.866578	-7.256585	0.670060	0.681280	-0.120131	0.707977	0.142112
50874	-8.075167	0.143617	0.683441	0.751302	0.086354	-1.743210	0.696359	-0.103065	0.697851	0.132158
50875	-6.956802	-6.201880	-4.185986	-2.020745	-7.541645	-3.223225	0.706049	-0.109014	0.685630	0.139722
50876	-6.536574	-7.645143	-5.182832	-2.519006	-9.225504	-3.764508	0.709952	-0.115195	0.681275	0.136246
50877	-7.826510	-6.713842	-0.695054	1.289698	-6.768847	-2.110223	0.708478	-0.121404	0.683581	0.126637
50878	-8.565575	-4.295572	2.913298	3.818201	-3.147022	-1.104986	0.707151	-0.122652	0.687355	0.111522
50879	-9.179830	-1.879865	5.618780	5.589292	0.097703	-0.425259	0.706634	-0.121906	0.690109	0.097759
50880	-8.707318	-1.697705	3.739324	3.742933	-0.280129	-0.947368	0.708731	-0.117202	0.690108	0.087835
50881	-8.266606	-2.160614	2.093465	2.258176	-1.223056	-1.398884	0.710422	-0.108985	0.691011	0.076992
50882	-8.465751	-2.426771	0.082198	0.319958	-1.972353	-1.235275	0.710669	-0.100363	0.693391	0.063922
50883	-8.210431	-2.866784	0.404267	0.692018	-2.292719	-1.442674	0.709665	-0.090857	0.697032	0.047618
50884	-8.093619	-3.463541	1.925389	2.257268	-2.574007	-1.476680	0.707431	-0.081338	0.701415	0.030713
50885	-8.520829	-4.889482	1.376920	1.850955	-4.030349	-0.939297	0.704412	-0.069582	0.706246	0.013373
50886	-8.954333	-4.633935	1.680503	2.012534	-3.737825	-0.514608	0.701904	-0.053139	0.710254	-0.006740
50887	-9.053657	-3.468364	0.616592	0.773989	-2.652332	-0.499053	0.699731	-0.036245	0.712997	-0.026410
50888	-8.813103	-2.433414	-0.288205	-0.218060	-1.624589	-0.813354	0.698025	-0.018452	0.714359	-0.045954
50889	-8.599250	-2.965592	0.381620	0.345353	-2.185924	-0.981528	0.695861	-0.002343	0.715373	-0.063347
50890	-7.573698	-6.056458	-1.177588	-1.676496	-5.144306	-1.679455	0.693962	0.012196	0.715576	-0.078863
50891	-10.708864	-11.294737	-4.525081	-5.985361	-9.375670	1.975956	0.692783	0.031947	0.714157	-0.094926
50892	-11.836500	-16.531360	-9.008537	-12.223533	-12.997731	3.453393	0.694411	0.063769	0.706843	-0.118744
50893	-11.407021	-17.101927	-11.857513	-16.637084	-11.443869	2.631480	0.696437	0.109430	0.691615	-0.157063
50894	-11.881176	-9.309236	-9.292533	-12.566690	-3.357774	2.214829	0.694394	0.156733	0.672195	-0.203485
50895	-10.641739	-1.970993	-6.765319	-6.964009	2.965456	0.460128	0.687013	0.197844	0.653964	-0.247392
50896	-9.466429	-0.512788	-7.513163	-6.321989	5.293775	-0.965393	0.677738	0.229246	0.638849	-0.282823
50897	-7.619501	0.087177	-9.550541	-6.777406	7.616886	-3.085735	0.665662	0.260291	0.624717	-0.314439
50898	-6.895908	0.437659	-9.370981	-5.682810	8.203823	-3.820686	0.651883	0.291078	0.611543	-0.341083
50899	-6.487276	-0.965085	-7.950638	-5.364192	6.629853	-4.027835	0.638101	0.321438	0.597524	-0.363962
50900	-7.380099	-1.977201	-7.489971	-5.518154	6.208642	-3.071613	0.623084	0.354404	0.579484	-0.387765
50901	-8.551526	-0.614620	-6.877269	-3.506304	6.730677	-1.865018	0.603250	0.392558	0.555394	-0.416563
50902	-9.140412	2.176125	-5.501687	0.223546	6.534962	-1.108976	0.578783	0.432747	0.524908	-0.449680
50903	-9.493605	3.739020	-5.136990	2.466584	6.318228	-0.622948	0.553632	0.468786	0.494558	-0.478689
50904	-10.186619	4.138727	-8.564231	3.297137	9.426538	-0.095415	0.528109	0.500120	0.465559	-0.504218
50905	-9.621101	5.008188	-11.567757	5.381726	11.812067	-0.713667	0.498490	0.530785	0.434156	-0.530361
50906	-8.563836	6.905481	-10.369875	8.343658	9.354675	-1.373851	0.462458	0.563704	0.401265	-0.554398
50907	-10.465239	9.524639	-9.058505	11.224921	6.172906	1.048392	0.426276	0.594743	0.370844	-0.571878
50908	-11.466968	11.764440	-9.572360	13.834699	4.224477	2.516548	0.391537	0.622662	0.340723	-0.585575
50909	-10.592811	15.483050	-7.069372	15.930709	-1.587509	2.240980	0.357171	0.648667	0.313682	-0.594360
50910	-8.943450	15.789177	-5.729640	15.155152	-4.469941	0.784561	0.332640	0.668122	0.295841	-0.596190
50911	-7.868812	15.430261	-3.700965	13.252067	-6.859131	-0.274766	0.316647	0.683858	0.282719	-0.593417
50912	-9.685867	12.889595	-0.167937	8.386765	-8.398123	1.100767	0.312432	0.694205	0.277753	-0.585935
50913	-9.440319	7.522133	-0.190171	4.202376	-4.927554	0.375329	0.319425	0.698119	0.281410	-0.575679
50914	-9.538109	1.885917	-0.589326	0.062049	-0.957425	-0.119526	0.330293	0.698843	0.288984	-0.564812
50915	-9.414082	-3.758199	-0.503496	-4.499606	2.406194	-1.040103	0.343261	0.697629	0.300572	-0.552396
50916	-10.182007	-11.009796	-4.035409	-8.703322	9.254077	-0.881765	0.353253	0.696326	0.311938	-0.541330
50917	-9.742989	-8.626664	-5.340097	-6.116900	8.807063	-0.708952	0.342159	0.704127	0.308723	-0.540205
50918	-10.243359	1.504676	-3.240613	0.748444	1.014302	0.962200	0.321264	0.716873	0.293085	-0.544962
50919	-10.881235	8.367638	-0.148962	3.805016	-6.023152	1.920442	0.306356	0.726993	0.280395	-0.546814
50920	-11.967631	7.870584	-0.687994	3.266055	-5.545490	3.002207	0.309229	0.731280	0.283552	-0.537778
50921	-11.665822	4.784767	0.546818	0.153150	-4.473706	1.987550	0.317264	0.733439	0.291255	-0.525910
50922	-10.743801	0.217172	0.295308	-3.016711	-1.378226	0.412772	0.335220	0.730462	0.306784	-0.509839
50923	-9.180850	-5.543408	-3.154881	-5.422038	4.814565	-1.305107	0.347057	0.730916	0.314228	-0.496562
50924	-9.355107	-2.739829	-1.072687	-4.579055	1.393529	-1.253358	0.342546	0.740974	0.308497	-0.488313
50925	-9.961981	0.046757	1.135759	-3.951653	-2.120357	-0.845179	0.333647	0.752184	0.299120	-0.483142
50926	-10.060276	0.528268	2.955579	-4.822580	-3.874794	-1.330537	0.328756	0.760707	0.292621	-0.477093
50927	-11.015472	-2.162890	4.907788	-8.443344	-3.822439	-1.800141	0.329572	0.765074	0.288688	-0.471915
50928	-11.951589	-4.443343	8.636051	-12.654316	-5.296767	-2.814521	0.329920	0.767771	0.282727	-0.470900
50929	-13.738766	-5.349322	10.228150	-14.985588	-5.964794	-1.949328	0.331727	0.767638	0.276259	-0.473677
50930	-15.563862	-4.619424	8.340027	-14.137657	-4.925124	0.627145	0.335897	0.764070	0.270794	-0.479626
50931	-17.179539	-4.857317	5.658867	-13.319115	-2.512344	3.110872	0.343529	0.756096	0.264950	-0.490009
50932	-18.293726	-5.029312	5.008511	-13.226448	-1.366440	4.615109	0.348605	0.746070	0.253037	-0.507766
50933	-17.907329	-1.539055	6.980666	-11.351809	-4.134512	5.209087	0.351328	0.732437	0.232833	-0.534691
50934	-18.296469	0.995263	8.807297	-10.286072	-5.939417	6.679904	0.358982	0.711173	0.215167	-0.564861
50935	-14.772696	-0.912180	3.690540	-6.529815	-0.239429	3.966324	0.377809	0.679252	0.215492	-0.591135
50936	-16.787270	-3.914793	-6.057147	-1.969110	10.025770	5.331808	0.394276	0.645496	0.228522	-0.612911
50937	-16.687180	-0.783078	-9.131949	3.196634	11.074478	5.336302	0.399486	0.616379	0.237278	-0.635756
50938	-15.606411	-1.850970	-7.774862	2.441753	10.797796	3.781776	0.403486	0.586994	0.250087	-0.655815
50939	-13.014425	-8.536943	-4.323804	-4.272537	11.380366	0.824120	0.397402	0.564918	0.259849	-0.674847
50940	-16.026817	-14.344091	-2.188701	-9.209511	13.842329	4.001894	0.384123	0.544459	0.265567	-0.696770
50941	-17.709334	-10.179260	-5.179432	-2.355397	14.512562	5.272391	0.350466	0.534522	0.249497	-0.727469
50942	-15.658723	-2.794835	-2.575394	3.086618	7.501481	4.103347	0.314074	0.521607	0.232135	-0.758549
50943	-13.307614	-0.681370	-3.635886	5.947187	5.877158	1.175337	0.276638	0.508645	0.217578	-0.785755
50944	-12.308548	1.121873	-4.154481	8.087463	4.055451	-0.428435	0.239431	0.497274	0.203774	-0.808621
50945	-10.904966	-1.583563	-7.097811	8.882944	6.928218	-3.121237	0.201213	0.487988	0.185852	-0.828758
50946	-9.246590	0.245491	-7.692820	10.258376	4.528094	-5.468917	0.158290	0.480988	0.156230	-0.848049
50947	-8.498626	2.409118	-5.767607	9.713542	0.710954	-5.769345	0.115199	0.473487	0.123179	-0.864504
50948	-6.310525	4.085385	-3.263671	7.092756	-2.650969	-6.683938	0.074271	0.465894	0.090068	-0.877106
50949	-4.079530	3.196059	-2.886825	5.167338	-2.512742	-8.343836	0.039127	0.459567	0.063156	-0.885030
50950	-2.023343	1.415015	-4.471339	4.900911	-0.980516	-10.858095	0.006002	0.456754	0.036837	-0.888810
50951	-0.043055	1.225137	-5.658825	4.588214	-1.136131	-13.153475	-0.028459	0.456951	0.005164	-0.889021
50952	0.058295	1.391632	-6.223286	4.849747	-1.851998	-13.512488	-0.062269	0.460639	-0.031271	-0.884848
50953	-0.918686	2.934061	-6.500338	5.168707	-4.085115	-12.686438	-0.092471	0.467031	-0.071571	-0.876475
50954	-1.560281	2.921370	-7.503972	6.007744	-4.954333	-12.379535	-0.115840	0.478107	-0.109759	-0.863683
50955	-4.733517	4.689951	-7.671754	6.795595	-7.508731	-9.036543	-0.134150	0.495789	-0.151848	-0.844476
50956	-9.605121	8.258714	-6.524149	5.989089	-10.843705	-2.787998	-0.147000	0.517234	-0.199719	-0.819129
50957	-14.554854	12.805520	-0.230463	-0.232333	-11.083631	6.077428	-0.160541	0.530874	-0.256329	-0.791640
50958	-15.849421	19.120727	21.121426	-20.071792	-1.136918	15.833037	-0.178743	0.527808	-0.305586	-0.772066
50959	-16.825470	21.912713	13.888646	-16.677035	-5.781465	15.574835	-0.185246	0.528188	-0.319292	-0.764692
50960	-18.157489	15.879595	-5.457573	0.326583	-14.366642	10.314614	-0.192512	0.535150	-0.316964	-0.759005
50961	-17.217241	13.173624	-13.222760	7.003482	-18.265888	6.373224	-0.196769	0.528694	-0.293870	-0.771625
50962	-6.237888	-4.033725	-12.217614	13.324088	-5.022799	-8.519906	-0.198521	0.524975	-0.265848	-0.783783
50963	-30.488979	6.217993	40.584986	-20.965646	19.648207	32.492859	-0.207697	0.523351	-0.263230	-0.783375
50964	-29.559942	-36.471290	-9.286466	39.268539	21.268096	7.379013	-0.192359	0.516387	-0.231647	-0.801675
50965	-4.898295	2.112100	-5.900223	4.725636	-5.744412	-7.007216	-0.226908	0.488506	-0.299748	-0.787417
50966	6.990398	5.855630	-14.322589	2.239751	-13.542504	-19.804889	-0.215694	0.482073	-0.282657	-0.800741
50967	2.179440	-11.259327	-4.742015	9.234910	5.093099	-16.351984	-0.228551	0.482342	-0.297216	-0.791690
50968	-6.517930	-3.721496	-1.825577	6.372128	0.828509	-5.526183	-0.233743	0.488475	-0.307528	-0.782421
50969	-15.762196	3.628246	-0.939435	4.577114	-4.125438	5.170793	-0.238631	0.491884	-0.325719	-0.771371
50970	-21.773255	8.599252	7.136887	-1.436284	-1.334538	14.581857	-0.242081	0.493037	-0.336186	-0.765043
50971	-17.380466	5.599076	4.961688	0.126166	-0.711170	9.095630	-0.240431	0.493354	-0.330266	-0.767932
50972	-9.453790	3.027288	-0.049017	1.732237	-2.556725	-0.378626	-0.239628	0.491881	-0.321511	-0.772827
50973	-5.599169	1.993204	-0.442302	1.168975	-2.026930	-4.331472	-0.239360	0.490060	-0.314921	-0.776771
50974	-4.236040	0.507775	-1.225085	2.128476	-1.536193	-6.233253	-0.238021	0.489702	-0.310158	-0.779320
50975	-7.105249	0.626624	1.531585	1.574317	0.159820	-2.690964	-0.236356	0.489656	-0.307977	-0.780719
50976	-10.354999	0.876574	3.985355	1.277737	1.498784	1.141687	-0.234331	0.488557	-0.305813	-0.782866
50977	-11.201891	1.322998	5.690636	0.346100	2.302828	2.604738	-0.233195	0.485771	-0.303915	-0.785674
50978	-9.357243	2.318523	5.749289	-1.054501	1.723519	1.228341	-0.232170	0.482221	-0.301594	-0.789051
50979	-7.358860	2.271402	3.549702	-0.463687	0.270403	-1.349652	-0.228086	0.479382	-0.294495	-0.794634
50980	-6.149210	-0.394818	3.336293	0.930413	2.043215	-3.175021	-0.224667	0.475890	-0.288160	-0.800011
50981	-6.100803	-1.636641	3.773460	1.462556	3.185127	-3.343301	-0.221272	0.472819	-0.281606	-0.805096
50982	-8.687143	-2.571608	5.252426	2.353246	4.558429	-0.683071	-0.219657	0.468825	-0.277808	-0.809182
50983	-10.747601	-3.237798	5.493814	3.660464	4.925147	1.073940	-0.219080	0.463977	-0.273903	-0.813453
50984	-9.678909	-1.225809	2.049233	4.150508	1.190869	-0.827300	-0.220360	0.458827	-0.272999	-0.816327
50985	-8.457558	0.478035	-2.374657	5.307497	-2.890926	-3.419689	-0.219802	0.456284	-0.270078	-0.818871
50986	-9.853430	2.045238	-2.465968	5.122925	-4.301779	-1.900396	-0.218232	0.456606	-0.267512	-0.819953
50987	-12.821893	1.847238	-0.921834	5.757542	-3.474582	1.297698	-0.213364	0.460198	-0.262739	-0.820769
50988	-15.983352	1.276851	-3.431566	9.249340	-4.854111	2.826792	-0.203796	0.467029	-0.254061	-0.822073
50989	-16.957301	2.088737	-6.067131	11.083360	-6.916260	2.758407	-0.188589	0.475873	-0.237784	-0.825492
50990	-15.489815	2.714613	-10.372112	13.311333	-9.292743	-0.258216	-0.169389	0.486053	-0.214162	-0.830178
50991	-11.712793	5.012196	-12.128636	12.127060	-11.252926	-3.840509	-0.150510	0.498318	-0.195577	-0.831129
50992	-11.478567	4.277727	-9.233981	10.542673	-8.581997	-2.707894	-0.129405	0.515859	-0.180510	-0.827381
50993	-10.441376	2.226110	-2.241406	5.364988	-3.134071	-0.847385	-0.109046	0.538830	-0.166377	-0.818590
50994	-14.560461	2.403437	5.368220	0.082149	-0.026447	5.889087	-0.085807	0.563609	-0.149294	-0.807894
50995	-20.164279	2.312505	4.950855	1.770790	0.273658	11.000818	-0.068771	0.579334	-0.141719	-0.799724
50996	-17.887088	7.303338	11.315043	-6.506791	-2.037587	11.513025	-0.064154	0.581109	-0.156202	-0.796114
50997	-16.309091	7.503422	11.811887	-7.428825	-1.792401	10.272135	-0.051620	0.578144	-0.155283	-0.799357
50998	-14.583934	11.519574	13.171337	-9.746978	-5.652152	9.981451	-0.033235	0.569371	-0.135908	-0.810087
50999	-14.021045	7.102832	9.452270	-4.581335	-3.497545	7.591868	0.002352	0.556706	-0.087696	-0.826064
51000	-11.227511	5.434240	3.940161	0.699421	-3.857777	2.662098	0.040802	0.539943	-0.035767	-0.839951
51001	-9.850995	1.378429	1.694482	2.891468	-0.348889	-0.153328	0.089988	0.521100	0.033019	-0.848096
51002	-3.908990	-9.690650	-7.264403	5.577642	11.425378	-9.920762	0.135416	0.499335	0.097517	-0.850187
51003	-1.685680	-7.147351	-4.453332	1.964204	8.344391	-10.316724	0.155516	0.494054	0.114304	-0.847738
51004	-1.927274	-4.580663	-2.000397	0.789809	5.235586	-8.998850	0.165439	0.496836	0.110135	-0.844781
51005	-4.166814	-4.699697	-1.229076	1.063485	5.512859	-6.740880	0.173315	0.503549	0.102158	-0.840217
51006	-5.125535	-0.974449	-1.592356	3.130752	2.471955	-6.092159	0.185512	0.504512	0.096772	-0.837668
51007	-2.655443	1.169801	2.267490	-0.215903	-1.233686	-6.349708	0.205775	0.501256	0.097438	-0.834808
51008	-2.016591	0.864319	3.427664	-1.488191	-1.530275	-6.347801	0.235523	0.500440	0.108212	-0.826062
51009	-5.538203	1.090708	0.228998	2.445862	0.615137	-4.758206	0.256320	0.509067	0.107234	-0.814648
51010	-7.550076	4.562363	1.718501	3.647026	-2.133647	-1.881038	0.274134	0.514966	0.104555	-0.805437
51011	-6.957804	3.923101	-1.298078	5.346493	-0.215563	-3.742439	0.293688	0.517377	0.109013	-0.796357
51012	-7.931070	1.912151	-1.232064	4.297890	1.991747	-3.057771	0.314093	0.519898	0.114344	-0.786115
51013	-9.831671	-0.184601	-1.579486	3.515586	4.779211	-1.814370	0.338118	0.521200	0.121824	-0.774071
51014	-10.097169	0.693931	-0.226889	2.772015	3.754501	-0.829979	0.357805	0.527014	0.122074	-0.761137
51015	-8.980891	4.629364	2.659189	2.735872	-0.936152	0.226475	0.376065	0.536549	0.121775	-0.745561
51016	-7.717448	4.283504	3.398872	1.506924	-1.537816	-0.602965	0.397277	0.545917	0.129664	-0.726177
51017	-7.828542	0.952677	2.191254	-0.317912	1.444443	-1.763153	0.417673	0.557252	0.139026	-0.704054
51018	-10.284319	0.444392	1.331789	-0.514311	3.304932	0.011844	0.436118	0.570244	0.147562	-0.680329
51019	-12.567350	-0.789672	0.632062	-1.699360	5.320579	1.488573	0.455208	0.580190	0.160117	-0.656146
51020	-11.796639	0.007616	0.191090	-1.381950	4.657514	0.937377	0.471752	0.587784	0.175001	-0.633509
51021	-9.823251	0.157036	0.470160	-1.636410	3.305922	-0.695944	0.486720	0.592599	0.197454	-0.610689
51022	-7.692504	-0.240574	1.758345	-2.578758	1.319710	-2.469784	0.497321	0.598569	0.219748	-0.588301
51023	-9.283775	-1.869424	2.874723	-5.054696	1.125722	-1.380558	0.502899	0.608255	0.238841	-0.565750
51024	-17.234093	-9.838352	5.148726	-15.117481	3.907662	3.471153	0.499011	0.620658	0.247538	-0.551812
51025	-17.724814	-10.632088	12.283444	-19.458413	-2.287770	4.123054	0.482231	0.637973	0.243820	-0.548631
51026	-19.427372	-3.294058	15.600379	-15.798098	-7.896505	8.066743	0.461650	0.653646	0.237608	-0.550608
51027	-18.070824	9.902424	13.709559	-3.897911	-12.783180	11.018986	0.456864	0.652302	0.239432	-0.555382
51028	-10.446547	10.447122	4.902351	3.453857	-6.940428	3.684669	0.467350	0.639424	0.250872	-0.556583
51029	-7.693297	8.553750	4.757867	3.294175	-6.158623	0.489629	0.493010	0.616187	0.279225	-0.547073
51030	-10.956159	-1.996693	-11.748081	-0.269419	13.745223	-1.276937	0.530483	0.579460	0.316738	-0.531498
51031	-12.730595	-12.360612	-4.440342	-13.168508	9.778524	-1.717184	0.534247	0.574453	0.321749	-0.530152
51032	-15.997806	-4.869253	7.884829	-10.497828	-2.782923	5.148034	0.520307	0.583191	0.303730	-0.544901
51033	-12.168988	3.457503	5.768935	-1.468001	-3.581700	3.541333	0.511520	0.585411	0.288335	-0.559020
51034	-6.728931	6.651357	-0.637546	4.955011	0.233713	-1.731459	0.522198	0.569091	0.290646	-0.564773
51035	-4.584966	1.842821	-4.280158	2.274892	4.683159	-5.859761	0.535628	0.552045	0.300248	-0.564092
51036	-7.892979	-0.399368	-4.903530	-0.264617	6.879740	-3.559570	0.540207	0.543538	0.303483	-0.566252
51037	-10.534688	2.022319	1.553526	-0.382693	1.131949	0.960192	0.534495	0.546874	0.295213	-0.572795
51038	-11.133625	4.636398	7.602401	-0.124085	-4.855425	3.590802	0.528631	0.551311	0.282314	-0.580435
51039	-10.783764	5.425423	8.940670	-0.034395	-6.229936	3.856196	0.528172	0.550988	0.270357	-0.586816
51040	-8.404894	4.969263	6.982999	0.557158	-4.894654	1.133790	0.531226	0.546285	0.262639	-0.591940
51041	-4.896785	3.033495	4.218758	0.418710	-2.891583	-3.298122	0.538307	0.537542	0.259775	-0.594804
51042	-3.500299	1.260642	0.875466	0.293355	0.176949	-6.006122	0.546535	0.529703	0.259174	-0.594595
51043	-4.041322	2.301587	0.596697	1.257920	0.401982	-5.313647	0.551722	0.528074	0.255683	-0.592762
51044	-5.700519	3.517577	2.539752	1.356252	-0.937824	-2.841326	0.555376	0.529535	0.250636	-0.590197
51045	-6.980239	4.299527	3.998198	1.231333	-1.878690	-0.972522	0.556295	0.532149	0.244711	-0.589465
51046	-6.546948	7.014962	6.442478	2.808993	-4.923210	0.259503	0.554288	0.533708	0.242426	-0.590889
51047	-7.096754	7.995235	4.235336	4.435312	-3.069049	0.342810	0.554416	0.532526	0.246759	-0.590041
51048	-14.090661	11.159672	10.829097	3.669106	-6.990493	9.630145	0.550788	0.534351	0.246153	-0.592038
51049	-11.389845	5.337139	6.969020	0.500376	-3.025219	4.235729	0.558820	0.519919	0.259089	-0.591842
51050	-5.138433	-0.336592	-1.747615	-0.554090	3.659857	-5.829065	0.562128	0.509899	0.273664	-0.590866
51051	-3.398337	4.790033	-0.511846	4.179695	0.727207	-5.719371	0.564834	0.502800	0.286306	-0.588374
51052	-4.486783	-0.676636	-2.814295	-0.554955	4.365731	-6.789478	0.572418	0.491935	0.307239	-0.579604
51053	-9.304010	0.786743	2.829234	-1.123192	0.581941	-0.138911	0.570437	0.491822	0.322032	-0.573592
51054	-11.082761	1.082314	-0.775569	-0.229940	4.297425	0.486697	0.576843	0.479336	0.345539	-0.563997
51055	-10.983674	-1.679815	0.049502	-2.934347	3.563466	0.293974	0.579892	0.466813	0.370421	-0.555517
51056	-12.734201	-2.583415	1.265189	-3.881031	2.614760	2.373471	0.582995	0.450318	0.401100	-0.544472
51057	-14.241946	-6.423806	-2.323086	-7.433830	6.003346	2.763104	0.583582	0.436114	0.426921	-0.535701
51058	-11.903842	-5.229939	-0.724489	-5.863982	3.494834	1.276379	0.580783	0.428769	0.441091	-0.533186
51059	-11.802830	-1.808999	-0.356460	-2.258254	3.108938	1.498270	0.578235	0.425372	0.450191	-0.531066
51060	-11.574307	0.540461	0.103069	0.219888	2.638919	1.467994	0.577856	0.422419	0.458213	-0.526959
51061	-11.995978	0.704359	0.057912	0.427442	2.694563	1.890244	0.580109	0.416802	0.468499	-0.519864
51062	-11.004384	0.359388	0.514171	0.206936	1.919883	1.039063	0.581970	0.411112	0.477373	-0.514212
51063	-9.276170	2.257004	1.885429	2.355478	0.424281	-0.380433	0.584501	0.404816	0.485880	-0.508333
51064	-7.723450	4.070529	1.621696	4.185244	0.675594	-2.010319	0.589917	0.396438	0.494295	-0.500508
51065	-8.047027	5.058917	2.037008	5.250353	0.663253	-1.658703	0.598145	0.385938	0.504105	-0.489033
51066	-8.759744	4.642523	1.002044	4.584852	1.916100	-1.175939	0.609129	0.372733	0.514437	-0.474749
51067	-9.164774	4.648314	0.158789	4.247270	3.028733	-0.957995	0.621984	0.358025	0.524399	-0.458214
51068	-8.840730	3.072476	1.175171	2.941165	1.736625	-1.020098	0.636191	0.341639	0.535636	-0.437765
51069	-9.210210	0.648933	0.690883	0.386650	1.432744	-0.673579	0.650133	0.324727	0.547168	-0.415314
51070	-9.336239	-3.500151	-0.250085	-3.824344	0.324412	-0.607275	0.665374	0.303398	0.560238	-0.389052
51071	-9.267344	-4.327394	-0.421014	-4.631356	-0.278096	-0.688429	0.677195	0.287919	0.569009	-0.367068
51072	-9.796858	-1.222034	-0.217562	-2.034128	1.123879	-0.215037	0.686640	0.275768	0.576795	-0.346099
51073	-9.352467	3.221174	0.863445	2.068607	2.775701	-0.506580	0.695100	0.264818	0.584831	-0.323542
51074	-10.136924	0.657045	0.638186	-0.262748	1.335714	0.273957	0.704929	0.245877	0.597731	-0.292125
51075	-10.679669	-5.001533	0.476266	-4.392533	-2.784365	0.780824	0.714329	0.224491	0.610477	-0.258178
51076	-10.238913	-7.376645	0.071863	-5.879918	-4.905976	0.216105	0.720399	0.209090	0.620353	-0.229061
51077	-10.114170	-4.147905	0.986269	-2.929107	-3.321387	0.229709	0.723716	0.198312	0.628683	-0.204121
51078	-10.082060	-2.164529	0.325455	-2.205984	-1.618694	0.134402	0.726240	0.187057	0.636620	-0.179722
51079	-9.144262	-0.699480	1.564390	-0.165642	-1.235260	-0.593267	0.727666	0.175010	0.644729	-0.155558
51080	-8.136895	-1.901034	1.627813	-0.371092	-2.478157	-1.677081	0.729717	0.156717	0.653534	-0.125879
51081	-8.643705	-4.005732	1.578176	-1.047276	-4.554076	-1.362722	0.732209	0.138972	0.659745	-0.096403
51082	-8.751786	-5.538537	-0.554529	-3.272655	-5.502747	-1.653476	0.736770	0.123016	0.661166	-0.069982
51083	-9.137340	-5.876650	-3.299394	-5.818489	-5.383352	-1.684767	0.739626	0.115531	0.661151	-0.049853
51084	-9.886988	-2.195881	-1.673559	-3.389815	-2.564207	-0.468921	0.739639	0.117528	0.661461	-0.039890
51085	-11.709316	-1.712934	0.520428	-1.340412	-2.984615	1.571710	0.737200	0.118663	0.664479	-0.030383
51086	-13.355089	-2.786481	-3.173835	-5.289818	-3.552855	2.660809	0.736201	0.122314	0.665161	-0.024651
51087	-11.975873	0.786381	-4.296458	-5.419367	0.189495	1.723910	0.733300	0.134702	0.665899	-0.026561
51088	-12.053937	3.901720	-3.314015	-3.630406	2.816898	2.450383	0.727403	0.144068	0.670366	-0.027196
51089	-11.435809	4.803926	-2.700823	-2.522985	3.493048	2.127840	0.720418	0.151723	0.676124	-0.028886
51090	-9.492119	3.676508	-1.873726	-1.633768	2.418688	0.117348	0.714259	0.155184	0.681899	-0.027696
51091	-9.622400	1.954617	-1.324537	-1.409592	0.545982	-0.020945	0.708493	0.157881	0.687275	-0.027642
51092	-9.412644	1.425807	-1.450388	-1.525495	0.074391	-0.304768	0.703837	0.162124	0.690965	-0.029950
51093	-8.943622	2.030379	-2.183961	-1.914885	0.909339	-0.626541	0.698737	0.170451	0.693880	-0.035260
51094	-9.734827	4.776256	-0.961271	0.231987	2.904652	0.675685	0.691415	0.183508	0.697391	-0.043776
51095	-9.829889	7.971736	0.419021	2.897832	5.236538	1.346033	0.683441	0.198027	0.700602	-0.053383
51096	-9.684871	9.113158	1.649060	4.754844	5.672505	1.357507	0.677960	0.206421	0.703252	-0.056547
51097	-8.676660	6.619823	0.611448	2.983189	3.894444	-0.044686	0.676111	0.207867	0.704849	-0.053422
51098	-7.854349	4.861373	-0.337836	1.431620	2.793139	-1.118642	0.676568	0.204370	0.705911	-0.046679
51099	-7.705662	3.526622	-1.348321	-0.055440	1.946993	-1.455778	0.677930	0.198739	0.706712	-0.038362
51100	-8.150316	2.400941	-2.047283	-1.150982	1.013837	-1.208579	0.678515	0.194898	0.707527	-0.032215
51101	-8.657279	1.844545	-0.774715	-0.144190	-0.061280	-0.928635	0.677715	0.194974	0.708360	-0.030222
51102	-9.068156	1.444374	0.397837	0.846981	-0.929149	-0.708010	0.676613	0.196735	0.708934	-0.030040
51103	-8.811790	0.847840	0.619415	0.868564	-1.516861	-1.112411	0.675642	0.200496	0.708719	-0.032040
51104	-8.978061	0.970986	1.048282	1.310678	-1.613148	-0.962427	0.675354	0.202944	0.708261	-0.032828
51105	-9.187669	1.898199	-0.754787	-0.076692	-0.242890	-0.404117	0.675435	0.206522	0.707077	-0.034327
51106	-9.119485	3.838654	1.099536	2.334844	0.861794	-0.173459	0.674999	0.212107	0.705700	-0.037075
51107	-9.262247	3.141351	1.546210	2.477182	-0.003353	-0.225645	0.676542	0.212208	0.704322	-0.034487
51108	-9.087706	1.831665	1.354977	1.772410	-1.093506	-0.678154	0.679405	0.211338	0.701984	-0.031027
51109	-9.615711	1.863057	2.155534	2.430519	-1.477749	-0.195674	0.683893	0.209013	0.698526	-0.025806
51110	-9.963332	-0.049455	0.365613	-0.032985	-2.705950	-0.216885	0.690520	0.203461	0.693884	-0.017617
51111	-9.805466	-1.970109	-0.724774	-1.788420	-4.086089	-0.831695	0.696017	0.200577	0.689322	-0.012783
51112	-8.525193	-2.509408	-2.446449	-3.597630	-3.750018	-2.199869	0.700081	0.197652	0.686119	-0.007779
51113	-9.692785	-3.282938	-1.889729	-3.389078	-4.983877	-1.328968	0.699656	0.198469	0.686349	-0.004216
51114	-11.744843	-3.470365	-1.541841	-3.207763	-5.878262	0.556370	0.696013	0.203245	0.688657	-0.003092
51115	-12.592896	-3.185786	-0.937059	-2.500689	-6.139209	1.397218	0.689553	0.209413	0.693296	-0.002093
51116	-12.976907	-5.452138	-0.328259	-2.482525	-8.625814	1.034525	0.681373	0.216216	0.699271	-0.001329
51117	-12.474342	-7.471267	0.039591	-2.614258	-10.533351	-0.135809	0.670875	0.224950	0.706622	-0.003090
51118	-13.031294	-8.580798	1.904362	-1.108466	-12.402567	-0.220224	0.657848	0.234780	0.715586	-0.007200
51119	-13.974841	-10.014597	3.296870	-0.228049	-14.542399	-0.069901	0.644846	0.244950	0.723864	-0.013900
51120	-13.709725	-12.103207	2.812749	-1.550581	-16.163958	-0.942756	0.633131	0.255854	0.730142	-0.023999
51121	-16.710486	-13.282226	5.295689	0.013199	-19.119186	1.055961	0.623463	0.271589	0.731919	-0.042747
51122	-16.180396	-11.580103	8.514708	2.657666	-18.839051	0.496790	0.618717	0.293587	0.724878	-0.074480
51123	-16.473967	-7.400568	11.500342	5.906193	-17.108720	1.613078	0.620175	0.318653	0.707290	-0.116549
51124	-16.200527	-0.669424	5.062056	3.456486	-8.040352	4.740559	0.633698	0.330669	0.681824	-0.155565
51125	-16.828230	2.547330	-6.346820	-3.684317	2.339421	7.816360	0.644539	0.336206	0.659516	-0.191240
51126	-16.663690	5.815618	-6.058255	-1.279388	5.628446	7.928893	0.653870	0.342304	0.634041	-0.230812
51127	-14.159494	4.918158	-5.654242	-1.328754	6.057142	4.956445	0.658978	0.344981	0.614111	-0.263826
51128	-17.639320	-2.346927	-4.769344	-6.739252	1.665771	7.248697	0.665094	0.337281	0.599149	-0.291399
51129	-18.581766	-6.962687	-3.237155	-9.646839	-0.983291	7.794991	0.669594	0.326822	0.583603	-0.322862
51130	-16.034535	-3.972439	-2.426456	-6.437111	1.327785	5.530746	0.673991	0.315670	0.564237	-0.357387
51131	-15.475236	-1.898455	-3.825587	-5.257162	4.788747	4.575937	0.678294	0.301825	0.546577	-0.387392
51132	-15.320904	-1.339158	-4.311510	-4.765510	6.572783	3.937927	0.678475	0.291696	0.527448	-0.419981
51133	-15.483447	-1.131648	-5.460591	-4.712236	8.747897	3.301181	0.674297	0.285204	0.507610	-0.454219
51134	-14.719206	-1.857798	-7.582674	-5.573129	11.016961	1.368099	0.666656	0.284524	0.483570	-0.490690
51135	-12.413174	-1.209636	-7.553919	-4.073856	11.225367	-1.454117	0.656979	0.289332	0.453312	-0.528369
51136	-10.225287	-0.438072	-6.748803	-2.260403	10.412296	-3.756473	0.645581	0.298679	0.420274	-0.563370
51137	-7.716538	1.944823	-6.505853	0.925686	9.686354	-6.510048	0.632699	0.313225	0.382032	-0.596350
51138	-4.941575	4.907094	-4.507825	4.718259	6.632655	-8.221822	0.618495	0.330483	0.344541	-0.624128
51139	-3.530245	5.488736	-2.739049	5.662632	4.005662	-8.411427	0.605291	0.345361	0.315046	-0.644278
51140	-1.253566	4.400611	-2.964354	4.736313	2.645828	-10.342052	0.591979	0.358999	0.290933	-0.660332
51141	1.353694	3.787681	-2.341021	4.060833	0.455655	-12.038804	0.578556	0.373600	0.271950	-0.672116
51142	1.667976	1.326305	-4.977354	2.322069	2.663883	-13.913973	0.564774	0.390017	0.255174	-0.681031
51143	1.499454	0.449805	-3.965965	1.460621	2.102271	-13.221810	0.550335	0.409293	0.238309	-0.687619
51144	0.913025	-2.351355	-4.681079	-0.660006	3.810207	-13.461197	0.535926	0.432428	0.220642	-0.690729
51145	-1.629723	-1.929398	-4.112105	-0.025125	4.692361	-10.935809	0.521136	0.460355	0.200265	-0.690207
51146	-3.725846	0.729943	-2.862576	2.082285	3.802618	-7.861299	0.504769	0.489953	0.180165	-0.687528
51147	-6.886134	4.374408	-0.637563	4.034144	1.927197	-2.961848	0.481723	0.526211	0.162777	-0.681578
51148	-13.630638	8.435211	7.467085	1.868027	-3.374669	7.438452	0.452848	0.564313	0.152780	-0.673155
51149	-19.204827	11.265698	14.492894	-1.642435	-8.531728	15.289476	0.434387	0.584755	0.156338	-0.667030
51150	-21.083424	13.683381	17.068023	-2.202537	-11.620176	18.172494	0.423023	0.588693	0.149855	-0.672336
51151	-15.855065	9.702721	-5.828163	10.478352	4.470550	5.989322	0.422647	0.582590	0.152080	-0.677369
51152	-21.566266	18.684319	-5.933351	17.084711	1.096222	13.772967	0.410240	0.588231	0.138929	-0.682925
51153	-20.164047	8.938660	-12.474754	14.747158	11.628498	7.185920	0.444471	0.548132	0.178458	-0.685674
51154	-24.912078	-9.179426	12.764193	-14.796190	6.501606	14.816166	0.444069	0.547010	0.170606	-0.688822
51155	-20.589721	-10.651766	2.162722	-9.204602	13.533857	6.743956	0.454707	0.521075	0.169229	-0.702199
51156	0.675315	2.537547	-11.127336	8.737431	5.827611	-14.325578	0.442781	0.522518	0.142906	-0.714492
51157	-3.239415	4.369098	0.714778	3.220690	-1.319106	-5.572784	0.455953	0.508599	0.150909	-0.714605
51158	-3.743474	-4.353313	-3.876072	-0.904944	6.856929	-9.422576	0.458957	0.498505	0.153372	-0.719255
51159	-3.431280	3.942347	4.044711	1.047738	-3.077881	-4.059149	0.451881	0.502460	0.144772	-0.722758
51160	-5.293701	4.643563	4.868321	1.265056	-3.046590	-1.913093	0.454391	0.498228	0.148421	-0.723373
51161	-7.215920	4.431645	5.477164	1.019283	-2.313267	-0.049641	0.457175	0.493596	0.151341	-0.724189
51162	-7.685186	4.857241	5.845185	1.307173	-2.489582	0.623438	0.460231	0.488046	0.152899	-0.725686
51163	-6.627173	5.705371	6.630127	1.546415	-3.949864	0.308337	0.462260	0.483092	0.153917	-0.727494
51164	-4.498713	5.714110	6.269391	1.656703	-4.798890	-1.662923	0.465220	0.477483	0.159191	-0.728174
51165	-2.600174	4.855062	4.232390	2.005032	-3.983887	-4.487968	0.468662	0.472764	0.167408	-0.727203
51166	-2.547490	3.796547	2.531728	2.130963	-2.320102	-5.642707	0.471393	0.471445	0.176791	-0.724067
51167	-5.982792	4.158370	6.354898	0.902960	-3.418808	-0.814646	0.472966	0.471821	0.186859	-0.720258
51168	-9.637633	4.273724	9.686294	-0.180517	-4.134527	3.892778	0.473263	0.472032	0.197239	-0.717150
51169	-11.876284	5.404330	6.949498	2.607415	-1.823022	4.623911	0.474282	0.469078	0.212918	-0.713925
51170	-8.341412	2.599008	-0.220713	3.341719	2.929533	-2.287227	0.476457	0.465487	0.231831	-0.708918
51171	-6.707315	2.318721	1.391258	2.246063	0.964644	-3.006570	0.479438	0.462373	0.252299	-0.701923
51172	-8.617240	-1.895582	-0.071667	-0.709591	4.550844	-2.287282	0.489703	0.450813	0.285692	-0.689448
51173	-11.885781	-6.526541	-0.527270	-4.556843	7.597472	0.464638	0.492041	0.448794	0.310198	-0.678422
51174	-13.933708	-7.500905	-0.735278	-5.287356	8.308813	2.593313	0.494692	0.444552	0.336184	-0.666809
51175	-15.274395	-7.472404	1.046616	-5.557432	6.609284	4.871846	0.492578	0.440440	0.356356	-0.660598
51176	-12.892510	-4.228143	2.648734	-2.952082	3.051799	3.342949	0.490057	0.436206	0.369923	-0.657819
51177	-10.639456	-0.335041	-0.969316	1.421378	4.435327	-0.192043	0.489232	0.432951	0.376339	-0.656943
51178	-10.054879	5.717819	0.642786	6.891660	1.255577	-0.585794	0.490378	0.430731	0.380196	-0.655325
51179	-11.101679	7.403549	0.329628	8.748861	1.491965	0.157262	0.491894	0.430875	0.383996	-0.651870
51180	-11.379718	6.131846	1.021849	7.417367	1.310128	0.742236	0.499099	0.425526	0.395038	-0.643252
51181	-10.482849	0.098639	-0.783691	1.654332	3.971422	-0.220804	0.510178	0.415064	0.411475	-0.630974
51182	-9.575667	-3.346925	0.053067	-2.021011	3.321323	-0.443642	0.521283	0.402365	0.428417	-0.618729
51183	-8.959936	-3.869534	1.929160	-2.725109	1.227061	-0.323718	0.529343	0.392303	0.441312	-0.609211
51184	-8.516102	-0.354579	4.444881	0.747853	-1.610689	-0.365397	0.536651	0.383097	0.451814	-0.600921
51185	-8.215779	-0.579454	2.489747	0.586261	0.133750	-1.229517	0.546910	0.369674	0.467590	-0.587869
51186	-6.486393	1.623948	2.891982	2.707772	-0.699823	-3.085930	0.559165	0.352995	0.487590	-0.570075
51187	-7.573354	0.807622	1.535228	2.002210	0.885785	-2.358160	0.574442	0.328205	0.519138	-0.541104
51188	-11.670604	-8.210201	-0.093887	-6.304190	1.275670	2.918913	0.587037	0.294841	0.561405	-0.503270
51189	-16.034252	-23.261056	-3.937848	-20.319769	-0.381682	10.190360	0.589130	0.268992	0.592447	-0.479141
51190	-9.297806	-15.806350	-2.543312	-13.519547	-1.520510	2.743268	0.579005	0.267839	0.601311	-0.481082
51191	-13.158869	-1.868168	3.239528	2.249784	-0.567364	3.668670	0.562967	0.279166	0.604409	-0.489719
51192	-12.154685	5.713859	6.848453	10.453773	-1.572374	0.935542	0.556405	0.277063	0.612381	-0.488507
51193	-11.583181	0.558035	1.511929	3.752734	1.240332	1.193894	0.556441	0.270936	0.621409	-0.480435
51194	-8.609980	0.845535	2.857056	3.967392	-0.466965	-1.624248	0.560902	0.262178	0.629006	-0.470109
51195	-8.192170	-3.434411	-1.603585	-1.812774	1.619099	-1.119639	0.567729	0.250581	0.637092	-0.457173
51196	-4.356185	-6.562163	-1.000161	-5.009349	-1.243538	-3.779776	0.572068	0.241947	0.642816	-0.448317
51197	-1.879207	-10.116872	-1.662125	-8.810542	-2.984355	-5.110276	0.571368	0.241919	0.645667	-0.445115
51198	-2.753339	-9.395590	-0.097133	-7.232436	-3.801623	-4.417693	0.565474	0.251220	0.646129	-0.446818
51199	-6.292142	-3.248458	-0.797773	-1.665536	0.334832	-2.892162	0.557939	0.265321	0.644569	-0.450377
51200	-8.399074	0.725053	-0.595303	2.315467	2.168653	-1.979562	0.551388	0.276532	0.644137	-0.452315
51201	-7.740556	0.641435	-2.040848	1.501032	3.184161	-2.594750	0.543589	0.286926	0.644282	-0.455066
51202	-8.631699	-0.441898	0.599389	1.974163	0.331144	-1.383480	0.537134	0.294701	0.646969	-0.453950
51203	-11.677756	-3.730684	2.511478	0.678211	-2.590470	2.411054	0.529832	0.303102	0.650482	-0.451973
51204	-13.250624	-1.514697	2.544034	3.074838	-1.835860	3.283697	0.523870	0.308375	0.654617	-0.449379
51205	-13.065988	-2.512687	1.406313	1.753128	-1.399479	3.377343	0.521426	0.309692	0.658943	-0.444971
51206	-11.627801	-3.260731	-0.457807	0.013835	-0.228998	2.270096	0.521172	0.308520	0.663488	-0.439294
51207	-8.541588	-2.987078	-2.858924	-1.527745	1.793034	-0.620015	0.521591	0.305432	0.667832	-0.434343
51208	-8.098964	0.425452	-1.796673	1.779865	2.204683	-2.004132	0.520272	0.303397	0.671664	-0.431434
51209	-9.811006	3.053674	-1.679667	4.576414	3.294107	-1.060127	0.519925	0.299581	0.677574	-0.425231
51210	-11.912067	2.555260	-2.166516	4.493521	3.585694	1.145018	0.522497	0.292964	0.684437	-0.415590
51211	-11.193195	1.790523	-1.858015	3.713255	2.938832	0.652480	0.527936	0.286285	0.688757	-0.406126
51212	-8.181499	-0.354397	-2.608163	0.637385	2.406645	-1.586754	0.533868	0.280263	0.691747	-0.397396
51213	-6.482367	-1.096169	-4.523485	-1.506378	3.541498	-2.821853	0.539158	0.274928	0.694568	-0.388969
51214	-6.300632	-1.566313	-3.892359	-1.694270	2.674613	-2.936884	0.543072	0.270871	0.697539	-0.380974
51215	-7.368192	-2.875335	-2.538210	-1.778112	0.774479	-1.735696	0.545727	0.267937	0.701069	-0.372684
51216	-9.182721	-4.262415	-0.449260	-1.252171	-1.785635	0.083495	0.547358	0.266550	0.704654	-0.364434
51217	-8.375326	-4.030180	0.341912	-0.821482	-2.444296	-0.876546	0.548607	0.266776	0.707552	-0.356694
51218	-7.441666	-2.609820	-0.935526	-0.705268	-0.708305	-1.934580	0.549412	0.268449	0.709973	-0.349313
51219	-7.077765	-2.008768	-0.006389	0.194872	-1.195833	-2.555888	0.550489	0.269188	0.712811	-0.341174
51220	-6.031286	-3.060101	-0.771914	-1.325242	-1.329472	-3.269604	0.551623	0.268360	0.716015	-0.333193
51221	-8.278315	-1.352410	0.900297	1.520548	-1.693024	-1.689222	0.551354	0.271419	0.717861	-0.327134
51222	-11.966149	-2.695540	2.877960	2.567990	-4.283169	1.754308	0.552961	0.272867	0.719871	-0.318690
51223	-11.547640	-9.653376	2.492923	-2.967270	-8.572439	2.453324	0.557023	0.269079	0.722316	-0.309163
51224	-8.486508	-15.282051	-1.675270	-10.421610	-9.078399	1.019724	0.557931	0.268193	0.721922	-0.309215
51225	-7.586961	-11.625838	-5.132298	-10.110651	-3.955118	0.246719	0.552743	0.273634	0.721525	-0.314645
51226	-10.569269	-2.590547	-5.202082	-2.597075	1.933676	1.806031	0.542042	0.292686	0.715420	-0.329695
51227	-11.226973	6.019506	-3.536341	5.453370	5.694844	0.798885	0.535672	0.309299	0.707532	-0.341743
51228	-10.632794	3.919410	1.308989	6.321417	0.345186	-0.323279	0.532735	0.318320	0.705378	-0.342501
51229	-10.309692	-0.504484	-1.489597	1.117345	0.084201	0.555827	0.532479	0.320750	0.707493	-0.336214
51230	-9.738263	-2.138136	-2.789524	-1.051276	0.194934	0.485043	0.529097	0.327426	0.706738	-0.336705
51231	-9.810890	-0.262759	0.087506	1.997219	-1.234866	-0.282936	0.527099	0.331989	0.705762	-0.337416
51232	-8.957651	-1.170540	-1.412068	0.259097	-0.435012	-0.683229	0.527955	0.333680	0.705387	-0.335186
51233	-8.868642	-2.725640	-3.603798	-2.225561	0.511756	-0.124872	0.529388	0.335835	0.704675	-0.332258
51234	-8.845570	-2.601193	-4.569645	-2.665689	1.323243	0.037927	0.527522	0.342091	0.703897	-0.330490
51235	-10.833733	-0.171096	-4.056453	0.002827	1.835836	1.610157	0.525893	0.348608	0.703766	-0.326531
51236	-11.403154	3.182681	-2.381751	3.718577	2.000907	1.501033	0.525351	0.357505	0.699877	-0.326142
51237	-9.684497	4.588325	-3.242027	4.066216	3.605241	-0.023974	0.528151	0.362513	0.697025	-0.322175
51238	-9.696789	3.228914	-2.146919	3.356429	1.881035	-0.104068	0.528752	0.366212	0.697440	-0.316052
51239	-10.749429	1.968655	-3.165802	1.828070	1.803172	1.271158	0.535086	0.361577	0.700816	-0.302989
51240	-9.799026	-4.212196	-4.463487	-4.332720	-0.534750	0.893260	0.543227	0.353422	0.706341	-0.284746
51241	-9.548809	-4.047559	-2.595138	-3.285715	-2.139589	0.133149	0.548293	0.349684	0.709274	-0.272077
51242	-8.200784	-2.672376	-0.021668	-0.922087	-3.208230	-1.859639	0.557743	0.339815	0.712837	-0.255563
51243	-6.399826	-3.519205	-2.109540	-3.126364	-1.977160	-3.171513	0.569480	0.325579	0.717211	-0.235159
51244	-5.913571	-3.290557	-1.418221	-2.572955	-2.420947	-3.869176	0.579814	0.312977	0.720784	-0.215247
51245	-5.749238	-3.029288	-1.091322	-2.154325	-2.623496	-4.165302	0.590517	0.297989	0.725653	-0.189525
51246	-9.717346	-3.673904	-1.878633	-2.610248	-3.712411	-0.281512	0.598429	0.281287	0.733083	-0.159214
51247	-12.825328	-3.020282	-3.989500	-3.433195	-3.032264	3.169352	0.604368	0.268725	0.737434	-0.136811
51248	-15.705668	1.308039	-4.251328	-0.910185	-0.296907	6.482469	0.608854	0.261644	0.738529	-0.124156
51249	-14.279210	7.970762	-3.382643	3.022119	5.068583	5.808906	0.617823	0.257321	0.733320	-0.119677
51250	-9.596240	10.302196	-1.821869	4.675687	7.416658	1.351951	0.627920	0.245876	0.730752	-0.106129
51251	-8.067690	5.857241	-2.913247	0.936067	4.565807	-0.531109	0.636585	0.234462	0.729261	-0.089254
51252	-6.643408	3.892650	-5.595462	-2.762524	4.276679	-1.771056	0.642571	0.226044	0.728325	-0.074496
51253	-8.235086	6.257897	-6.301116	-2.492740	6.146494	0.320624	0.645391	0.221614	0.728152	-0.064432
51254	-11.297401	7.560015	-5.633150	-1.417814	6.201532	3.455271	0.650296	0.214917	0.726697	-0.053266
51255	-8.757855	5.988567	-6.637279	-3.404264	5.654133	0.819797	0.655739	0.208419	0.724418	-0.042258
51256	-9.443980	6.104284	-2.903364	-0.054405	4.182996	1.021456	0.656994	0.208340	0.723645	-0.035935
51257	-11.595230	5.162377	0.643475	2.905397	1.504712	2.467648	0.658772	0.206300	0.722998	-0.027092
51258	-10.137633	2.113040	0.902414	1.945545	-1.041406	0.345090	0.661262	0.204061	0.721642	-0.018030
51259	-9.108126	1.148008	1.438853	2.041984	-1.867674	-0.942063	0.662547	0.203749	0.720673	-0.012211
51260	-9.209818	3.825890	3.379587	4.712871	-0.066043	-0.396519	0.663094	0.203488	0.720288	-0.009124
51261	-11.118371	6.586791	4.900415	7.009718	1.524042	2.000706	0.666317	0.197420	0.719057	-0.002244
51262	-11.522187	6.108076	3.322375	5.176037	1.546398	2.512758	0.672826	0.187587	0.715582	0.007668
51263	-6.880333	2.129759	-0.645373	-0.017224	0.240651	-2.585621	0.681346	0.176236	0.710182	0.018704
51264	-1.270088	-3.550938	-4.213151	-4.910191	-2.753553	-9.283626	0.686144	0.169443	0.707017	0.024976
51265	-0.576219	-6.560840	-5.902022	-7.238398	-5.008000	-10.669058	0.682201	0.177639	0.708993	0.019368
51266	-7.231561	-2.483782	2.852260	2.178261	-5.024512	-3.762245	0.675923	0.188002	0.712408	0.016045
51267	-14.936279	-1.532386	2.986393	2.646279	-6.546847	3.770056	0.670329	0.198708	0.714865	0.011923
51268	-15.006863	5.441297	1.806636	3.566241	-0.011061	5.851164	0.666560	0.206353	0.716300	0.005639
51269	-10.804179	3.792522	0.004061	1.285492	0.226884	1.563076	0.670457	0.197091	0.715151	0.014195
51270	-9.608319	-0.456241	1.044091	1.027956	-3.531508	-0.863417	0.673813	0.189545	0.713933	0.018694
51271	-8.225511	0.832625	-1.992232	-1.614282	-1.152048	-1.542982	0.675959	0.182545	0.713655	0.021291
51272	-7.568359	4.725969	-2.843382	-1.513178	2.869930	-1.027845	0.675254	0.179713	0.714993	0.022831
51273	-10.293780	2.015909	-2.352817	-1.643507	-0.586518	0.794660	0.675540	0.172420	0.716128	0.032823
51274	-12.238260	-3.308673	-3.318250	-3.699273	-6.025725	1.220826	0.675227	0.175033	0.715665	0.035448
51275	-11.124203	0.426132	0.368043	0.684750	-3.041151	0.880584	0.670887	0.189510	0.716410	0.027436
51276	-10.506063	2.484208	2.678643	3.429748	-1.607693	0.645529	0.669314	0.199492	0.715363	0.021832
51277	-8.773406	4.084767	2.006030	3.180919	0.457391	-0.466346	0.669600	0.207565	0.712957	0.015642
51278	-8.194176	5.173094	3.199109	4.616834	1.243240	-0.797220	0.671803	0.212220	0.709607	0.010080
51279	-7.717775	2.911343	2.730927	3.433297	-0.526906	-1.848283	0.676647	0.210890	0.705418	0.007738
51280	-8.040554	1.039355	1.599995	1.687910	-1.947243	-1.961034	0.681785	0.211736	0.700240	0.001138
51281	-8.075849	2.164672	2.220142	2.502510	-1.069211	-1.601306	0.687395	0.214535	0.693824	-0.008383
51282	-8.161712	2.156980	1.587035	1.768021	-0.832703	-1.448278	0.693725	0.215274	0.687117	-0.016501
51283	-7.540565	2.276321	0.383885	0.589018	-0.066370	-1.949101	0.699862	0.215006	0.680743	-0.023533
51284	-7.972619	2.810405	-1.573246	-1.210746	1.083319	-1.369072	0.705636	0.213874	0.674899	-0.029112
51285	-8.624515	5.167154	-3.105680	-1.985358	3.720070	-0.171939	0.710926	0.216006	0.668209	-0.037717
51286	-9.231790	9.228347	-3.339530	-0.806766	7.461912	1.376874	0.714922	0.223094	0.660666	-0.051343
51287	-10.115726	11.180064	-4.656223	-1.243709	9.690735	2.578388	0.718748	0.229660	0.653029	-0.064892
51288	-11.554806	10.479051	-2.890110	-0.032831	8.201982	3.766686	0.722175	0.231295	0.647574	-0.074924
51289	-12.835616	8.840669	-0.152577	1.558622	5.511408	4.682969	0.724224	0.227403	0.645821	-0.081872
51290	-13.728658	7.787359	-2.037252	-0.703866	5.524750	5.095150	0.725862	0.218599	0.646459	-0.086195
51291	-14.874538	7.901759	-5.439868	-3.782243	7.203786	5.905893	0.723469	0.212469	0.650336	-0.092259
51292	-15.683750	8.901659	-6.649722	-4.320924	8.737241	6.752852	0.719594	0.208722	0.654779	-0.099416
51293	-13.143778	8.829376	-7.512581	-4.497026	9.569493	4.163968	0.714466	0.206557	0.659913	-0.106714
51294	-10.990492	5.510287	-1.869487	-0.305284	4.456113	1.792709	0.705264	0.213736	0.665177	-0.120248
51295	-8.408232	2.353207	1.587961	1.808724	0.356058	-1.131897	0.696970	0.220352	0.669424	-0.132471
51296	-5.051034	0.910657	0.056099	0.131922	0.221684	-4.686407	0.694830	0.221848	0.670350	-0.136474
51297	-6.451440	-5.322149	5.627105	1.728220	-8.086466	-4.047937	0.693958	0.226236	0.669405	-0.138334
51298	-10.976822	-9.193365	-2.058887	-7.293224	-7.882824	-0.121873	0.690257	0.236319	0.667711	-0.147854
51299	-11.620410	-3.836892	-1.909718	-4.471882	-3.315559	1.251015	0.682986	0.248630	0.666201	-0.167002
51300	-9.901119	-6.365610	-1.705264	-5.587989	-5.089923	-0.630007	0.674705	0.250680	0.670554	-0.179693
51301	-10.039175	-4.844611	0.529726	-2.795997	-5.031032	-0.252158	0.658092	0.263693	0.676088	-0.200715
51302	-10.653373	0.950476	2.382830	2.459000	-1.743092	0.722224	0.642244	0.276652	0.679124	-0.223110
51303	-9.178651	4.107961	3.320083	5.483095	-0.039390	-0.753333	0.629938	0.285694	0.680746	-0.241126
51304	-7.257228	2.749472	0.727157	2.769676	0.890916	-2.581521	0.626277	0.282250	0.684074	-0.245266
51305	-3.707246	-0.736427	-5.404304	-4.153922	2.969091	-5.638748	0.623879	0.278855	0.687377	-0.246024
51306	-2.207887	-5.310544	-6.732615	-8.344859	0.837269	-6.973435	0.613583	0.292951	0.688372	-0.252664
51307	-5.347607	-6.188183	-4.535573	-7.225424	-1.306165	-4.021735	0.594114	0.326708	0.684130	-0.268805
51308	-10.318444	-2.581863	-2.911259	-2.981034	-0.644910	0.784840	0.569814	0.365257	0.675250	-0.293151
51309	-10.630540	2.277796	-0.721256	2.475575	0.038593	0.797275	0.545728	0.396966	0.665093	-0.319766
51310	-8.290033	3.829294	0.698131	4.461474	-0.401982	-1.825257	0.529556	0.416552	0.658038	-0.336215
51311	-8.282115	1.925993	-1.904392	1.768538	0.876927	-1.325654	0.517131	0.432921	0.651767	-0.346923
51312	-12.749735	2.861740	2.196407	4.535033	-3.642965	2.091913	0.502314	0.450980	0.644565	-0.358934
51313	-15.649485	1.889094	5.379622	4.800954	-7.796902	4.100262	0.493321	0.458415	0.642767	-0.365158
51314	-15.566964	-0.309329	0.021902	1.207663	-3.586023	5.290500	0.486979	0.459547	0.643578	-0.370775
51315	-11.201538	1.762387	1.350741	3.200412	-3.246534	0.657380	0.482160	0.463006	0.639501	-0.379718
51316	-8.036102	-0.594809	-2.750934	-0.456705	0.681989	-1.337653	0.486329	0.460947	0.637827	-0.379722
51317	-6.629462	-1.669910	-7.081586	-2.786625	4.816812	-1.693613	0.488676	0.462990	0.632755	-0.382696
51318	-6.816194	-0.665376	-5.115297	-1.293647	3.243178	-2.010274	0.486513	0.466324	0.630566	-0.385009
51319	-8.612994	-1.359661	-2.414596	-1.101023	0.132803	-0.833132	0.479288	0.473411	0.628016	-0.389565
51320	-10.213153	-0.306077	-0.977374	0.413791	-1.365289	0.352052	0.471257	0.482689	0.622923	-0.396100
51321	-10.343655	0.992991	-1.113146	1.662223	-1.044349	0.451935	0.465436	0.490812	0.616700	-0.402684
51322	-9.964685	1.460144	-1.035216	2.086977	-0.983287	0.045114	0.461815	0.496341	0.611561	-0.407881
51323	-9.409213	1.511210	-0.258413	2.187562	-1.604542	-0.673553	0.461418	0.498331	0.608790	-0.410043
51324	-9.701467	-0.022744	-0.958349	0.567799	-1.221519	-0.157491	0.463305	0.498060	0.608109	-0.409253
51325	-10.159601	-0.979561	-2.334732	-0.579532	-0.115958	0.640942	0.465958	0.497500	0.606529	-0.409267
51326	-9.407594	-1.810961	-4.051913	-1.744843	1.615355	0.313825	0.467905	0.497735	0.604333	-0.410007
51327	-8.898095	-1.864773	-3.976848	-1.849993	1.685535	-0.210338	0.468331	0.499757	0.601292	-0.411529
51328	-9.001868	-1.077510	-3.634651	-1.030947	1.480656	-0.213202	0.466958	0.503189	0.597981	-0.413727
51329	-9.382358	1.309258	-2.513113	1.494801	0.648007	-0.148105	0.463995	0.508609	0.593099	-0.417443
51330	-9.237871	2.399269	-1.573627	2.657760	-0.125513	-0.512609	0.462636	0.512530	0.589619	-0.419083
51331	-8.931043	0.539385	-2.602020	0.652238	0.706458	-0.544444	0.463546	0.513762	0.589035	-0.417385
51332	-8.638100	-1.967529	-3.247662	-1.950679	1.097033	-0.646088	0.463338	0.515433	0.588405	-0.416446
51333	-8.661181	-2.350627	-3.077198	-2.327461	0.875102	-0.656937	0.461221	0.519119	0.586099	-0.417467
51334	-9.476940	-1.206372	-2.634716	-1.123650	0.373241	0.026393	0.457393	0.524524	0.582842	-0.419476
51335	-9.914610	1.814153	-1.472600	1.986226	-0.644553	0.157169	0.451667	0.531689	0.578088	-0.423224
51336	-10.005790	4.438709	0.160266	4.672379	-2.184762	-0.156712	0.447242	0.538198	0.573464	-0.425978
51337	-10.324367	3.295616	0.552000	3.500634	-2.773637	0.077231	0.447368	0.540323	0.573106	-0.423629
51338	-10.390280	0.779299	0.671022	0.963884	-3.043760	0.128235	0.450674	0.538291	0.575573	-0.419347
51339	-9.840575	-0.919843	0.142171	-0.766697	-2.500468	-0.280476	0.456856	0.532483	0.580008	-0.413926
51340	-9.564654	-1.222826	-1.101425	-1.168698	-1.252257	-0.259833	0.462852	0.526900	0.583786	-0.409070
51341	-9.867943	-0.083811	-0.770397	-0.010447	-1.520937	-0.031918	0.468133	0.521987	0.587335	-0.404251
51342	-10.422042	0.450133	-0.369155	0.568674	-1.947745	0.426486	0.473374	0.516941	0.590602	-0.399849
51343	-10.558938	-0.082911	-0.607176	0.007372	-1.782706	0.612689	0.478711	0.511678	0.593360	-0.396162
51344	-10.301920	-1.114940	-1.032909	-1.090612	-1.426543	0.444744	0.483870	0.506879	0.594742	-0.393987
51345	-9.651187	-1.611159	-2.081625	-1.781137	-0.303811	0.026486	0.487056	0.504483	0.593834	-0.394505
51346	-9.293726	0.001552	-2.040039	-0.205847	0.060288	-0.300125	0.487051	0.505965	0.590187	-0.398069
51347	-9.292704	1.068345	-2.285992	0.800063	0.511847	-0.230448	0.486019	0.508765	0.585948	-0.402006
51348	-9.739613	1.570941	-1.514125	1.405199	-0.227157	0.066294	0.485336	0.511046	0.582656	-0.404714
51349	-9.716637	1.285807	-1.069040	1.167060	-0.667891	-0.045347	0.486570	0.510943	0.580966	-0.405790
51350	-9.727580	1.023778	-0.597208	0.955878	-1.121075	-0.124557	0.488771	0.509504	0.580055	-0.406256
51351	-9.448591	0.556453	-0.660961	0.472539	-1.013422	-0.390814	0.491527	0.507078	0.579186	-0.407206
51352	-9.357592	0.589880	-0.547705	0.519562	-1.033773	-0.492096	0.494071	0.504346	0.578494	-0.408501
51353	-9.690116	0.680376	-1.258701	0.508393	-0.315641	-0.035822	0.496423	0.501512	0.578071	-0.409736
51354	-9.779779	0.596137	-1.713348	0.360099	0.167370	0.125974	0.498240	0.499502	0.577093	-0.411362
51355	-9.466593	0.668998	-1.225057	0.507434	-0.184180	-0.258998	0.499591	0.498127	0.575512	-0.413599
51356	-9.058011	0.572570	-1.296125	0.401156	-0.006122	-0.653315	0.501240	0.496417	0.574292	-0.415352
51357	-8.963468	0.384989	-1.389908	0.201774	0.123907	-0.737029	0.502893	0.494532	0.573753	-0.416346
51358	-9.178414	-0.116005	-1.911145	-0.371364	0.570821	-0.461466	0.504374	0.492709	0.573428	-0.417163
51359	-9.215276	-0.360289	-2.391903	-0.678524	1.038187	-0.366315	0.504383	0.492166	0.572340	-0.419282
51360	-9.075338	0.073913	-2.202129	-0.194287	0.967529	-0.526000	0.502390	0.493112	0.570806	-0.422641
51361	-9.026648	0.427673	-2.271282	0.185510	1.110751	-0.563166	0.499624	0.494947	0.568727	-0.426560
51362	-9.464795	0.751665	-2.516711	0.522329	1.350669	-0.097552	0.496764	0.496976	0.566418	-0.430593
51363	-9.998899	1.505155	-2.229145	1.355553	1.093305	0.394152	0.493420	0.499826	0.563692	-0.434698
51364	-10.041792	2.419848	-1.194357	2.410915	0.150925	0.300885	0.490323	0.502665	0.561252	-0.438072
51365	-9.496534	2.403247	-0.865674	2.440154	-0.126667	-0.287002	0.488696	0.503505	0.560790	-0.439515
51366	-9.080093	1.899475	-0.923664	1.952049	-0.075843	-0.697156	0.487829	0.502571	0.562416	-0.439469
51367	-9.109442	1.895444	-1.277667	1.949039	0.255562	-0.628851	0.487008	0.500888	0.565476	-0.438374
51368	-9.745331	1.835610	-1.129231	1.956598	0.003358	-0.025570	0.487145	0.498234	0.569361	-0.436211
51369	-9.902983	0.830605	-2.029403	0.900638	0.740295	0.262933	0.487244	0.495430	0.573188	-0.434279
51370	-9.643732	0.012431	-1.735181	0.151074	0.363008	-0.021990	0.486176	0.494118	0.575944	-0.433324
51371	-9.799189	-1.370933	-1.491816	-1.150124	-0.108209	0.126845	0.484906	0.493474	0.578422	-0.432177
51372	-9.896477	-2.171699	-1.907997	-1.957488	0.147071	0.308746	0.482715	0.494090	0.579450	-0.432548
51373	-9.771983	-2.207664	-2.214308	-1.993909	0.436441	0.242271	0.478730	0.496339	0.579348	-0.434535
51374	-9.668400	-1.335399	-1.799416	-1.035414	0.128409	0.056978	0.474000	0.499178	0.578449	-0.437655
51375	-9.335413	-0.534319	-1.352078	-0.162403	-0.199045	-0.368256	0.468682	0.502767	0.577163	-0.440959
51376	-9.884758	0.091442	-0.953541	0.565946	-0.661987	0.080096	0.463710	0.506096	0.576350	-0.443465
51377	-10.214953	0.295912	-0.962992	0.825115	-0.731737	0.392395	0.460355	0.507722	0.576159	-0.445345
51378	-9.448587	-0.197724	-1.622486	0.281699	-0.016005	-0.227929	0.457650	0.508613	0.576128	-0.447152
51379	-9.148685	-0.760542	-1.671517	-0.267978	0.026547	-0.485404	0.455709	0.509240	0.576497	-0.447945
51380	-9.112945	-1.798200	-2.001270	-1.300644	0.260256	-0.403924	0.454342	0.509471	0.577828	-0.447355
51381	-9.752803	-2.662997	-2.177029	-2.110000	0.227972	0.308773	0.452514	0.510348	0.578628	-0.447175
51382	-10.173207	-2.033803	-1.627492	-1.407536	-0.374554	0.587201	0.449909	0.512504	0.578241	-0.447838
51383	-10.192506	-0.846290	-1.069651	-0.187837	-0.877208	0.431467	0.447255	0.515148	0.576915	-0.449171
51384	-9.879942	-0.833356	-0.963669	-0.188075	-0.941305	0.102702	0.445352	0.516766	0.576172	-0.450156
51385	-9.304498	-1.258889	-0.751623	-0.634523	-1.069343	-0.475810	0.443804	0.517583	0.575561	-0.451525
51386	-9.449192	-0.617444	-0.889310	0.024467	-0.928970	-0.347185	0.442482	0.518215	0.574728	-0.453157
51387	-9.408917	-0.118273	-1.380982	0.515438	-0.408030	-0.324977	0.442477	0.518023	0.574235	-0.454004
51388	-9.557931	-0.118446	-1.335742	0.528346	-0.463838	-0.186787	0.443645	0.516992	0.574409	-0.453820
51389	-9.882290	-1.059993	-1.686660	-0.398071	-0.200040	0.258537	0.444038	0.516583	0.573985	-0.454436
51390	-9.402832	-0.564619	-1.343330	0.076686	-0.415621	-0.307007	0.442951	0.517389	0.572895	-0.455954
51391	-9.348965	-0.298736	-1.725094	0.338898	-0.016042	-0.307256	0.442175	0.517652	0.572584	-0.456799
51392	-9.060520	0.094845	-1.760861	0.723023	0.089248	-0.610954	0.441165	0.518064	0.571823	-0.458259
51393	-8.802611	-0.257941	-2.156521	0.358831	0.522971	-0.768308	0.441271	0.517221	0.572036	-0.458843
51394	-9.358880	-1.076905	-2.831203	-0.419857	1.055437	-0.041618	0.441933	0.515495	0.574408	-0.457182
51395	-10.189750	-1.495833	-3.409874	-0.776381	1.423213	0.914253	0.442288	0.512984	0.578273	-0.454785
51396	-9.798055	-0.433112	-3.276998	0.269225	1.378464	0.432089	0.443411	0.509511	0.582720	-0.451911
51397	-9.245358	-0.618367	-3.163160	0.050119	1.328714	-0.112351	0.444324	0.506895	0.586374	-0.449221
51398	-8.859528	-0.045334	-1.709287	0.668997	-0.006277	-0.814503	0.444123	0.506571	0.587576	-0.448214
51399	-9.086070	-0.263608	-1.409352	0.491461	-0.386185	-0.635452	0.445202	0.505014	0.590729	-0.444742
51400	-9.191711	-1.134565	-2.498354	-0.443208	0.540593	-0.245681	0.447230	0.502077	0.595258	-0.439967
51401	-9.496372	-1.341719	-2.644396	-0.641893	0.542430	0.100308	0.449449	0.498304	0.600706	-0.434558
51402	-9.759730	-1.379378	-2.536831	-0.647833	0.313675	0.339753	0.451417	0.494690	0.605936	-0.429356
51403	-9.944535	-1.069778	-1.846481	-0.247117	-0.398303	0.347428	0.453690	0.491547	0.609230	-0.425894
51404	-9.340978	-0.926126	-2.127375	-0.211028	0.003109	-0.190175	0.455558	0.489870	0.610735	-0.423671
51405	-9.395046	-1.575826	-2.006943	-0.844804	-0.234716	-0.116858	0.456443	0.489337	0.611691	-0.421952
51406	-8.691974	-2.575203	-2.524289	-1.977362	0.242850	-0.615668	0.456746	0.488613	0.612487	-0.421308
51407	-9.830042	-2.700826	-3.339634	-2.085058	0.760522	0.682617	0.455610	0.489070	0.613029	-0.421219
51408	-10.348726	-0.975102	-3.059424	-0.270381	0.647615	1.000010	0.453508	0.490891	0.611209	-0.424004
51409	-9.699864	1.124048	-3.360444	1.720896	1.394351	0.273821	0.451672	0.492831	0.608829	-0.427126
51410	-9.352436	1.877021	-3.786474	2.398083	1.985862	-0.033414	0.450857	0.493739	0.607784	-0.428426
51411	-8.965706	0.838288	-3.647138	1.357537	1.790010	-0.360641	0.450329	0.494228	0.607382	-0.428986
51412	-9.030877	-0.164231	-2.875034	0.469968	0.889258	-0.387304	0.449288	0.494890	0.607309	-0.429418
51413	-9.704849	-0.897698	-2.731207	-0.157797	0.504978	0.295208	0.448779	0.494995	0.607553	-0.429484
51414	-9.747217	-1.481884	-3.071833	-0.759074	0.756087	0.458266	0.448613	0.494942	0.606967	-0.430545
51415	-9.395190	-1.303041	-3.087888	-0.609129	0.893632	0.103604	0.447914	0.495583	0.605274	-0.432913
51416	-9.206775	-0.966319	-3.210207	-0.290289	1.127215	-0.083921	0.446794	0.496721	0.602996	-0.435936
51417	-9.292724	-0.729171	-3.011519	-0.003411	0.979657	-0.066111	0.445006	0.498469	0.600162	-0.439663
51418	-9.268887	-0.158321	-3.050457	0.584191	1.115899	-0.135087	0.443282	0.500104	0.597297	-0.443433
51419	-8.927426	-0.229123	-3.382650	0.483387	1.528809	-0.398725	0.441454	0.501647	0.594821	-0.446830
51420	-8.824454	0.423626	-2.850024	1.189273	1.107783	-0.673137	0.439476	0.502953	0.592331	-0.450603
51421	-8.427018	-0.012925	-3.598736	0.701440	1.906715	-0.877476	0.438871	0.502757	0.591306	-0.452752
51422	-8.405377	-0.104183	-3.074956	0.661331	1.409699	-0.998387	0.437590	0.503359	0.590140	-0.454840
51423	-8.824220	-0.601739	-2.914152	0.244060	1.146569	-0.574344	0.436334	0.503921	0.589527	-0.456218
51424	-8.870992	-0.589888	-2.493704	0.300433	0.729738	-0.612785	0.434856	0.504707	0.588681	-0.457849
51425	-9.140720	-0.712058	-1.467706	0.266317	-0.336841	-0.537477	0.433481	0.505465	0.588415	-0.458658
51426	-9.412530	-0.888672	-0.787052	0.162122	-1.076645	-0.388283	0.432257	0.505561	0.588946	-0.459025
51427	-9.357054	-1.194798	0.026201	-0.099826	-1.896438	-0.572765	0.433054	0.503750	0.591369	-0.457146
51428	-10.168777	-1.126034	0.167646	0.097390	-2.209205	0.177801	0.433682	0.501584	0.594277	-0.455158
51429	-10.646690	-0.859653	0.291063	0.458722	-2.413411	0.586382	0.436128	0.498064	0.597241	-0.452800
51430	-8.415422	-1.273281	-1.721281	-0.325108	-0.033543	-1.135331	0.439617	0.493430	0.599691	-0.451259
51431	-8.134266	-1.649374	-2.773623	-0.810071	0.988693	-1.155581	0.440338	0.491581	0.604229	-0.446496
51432	-10.155086	-0.764242	-1.163574	0.461359	-0.930192	0.384642	0.440635	0.489978	0.606808	-0.444461
51433	-8.269532	-1.202652	-1.172408	-0.202236	-0.627053	-1.400084	0.442450	0.486715	0.610424	-0.441282
51434	-9.062555	-1.656834	-1.375931	-0.546426	-0.676684	-0.538450	0.443475	0.483825	0.614489	-0.437774
51435	-11.765693	-3.172730	0.668193	-1.404869	-3.481781	1.799660	0.442657	0.482811	0.618491	-0.434070
51436	-11.412012	-2.904719	-2.196156	-1.487901	-0.696030	2.053035	0.433340	0.491861	0.615806	-0.437119
51437	-9.748840	3.149655	3.855781	4.889716	-5.373895	-1.625328	0.441816	0.481546	0.617995	-0.437029
51438	-9.421603	-5.002554	-4.830339	-4.125268	1.970455	0.967890	0.446966	0.472244	0.627022	-0.429011
51439	-9.689133	-0.725902	0.097429	0.797315	-2.169017	-0.374714	0.445575	0.472777	0.626003	-0.431353
51440	-9.951325	-1.777385	-0.711564	-0.291601	-1.616738	0.187083	0.449612	0.467978	0.629685	-0.427015
51441	-9.207402	-2.261459	-2.134123	-1.111956	-0.192471	-0.160155	0.451821	0.466949	0.629827	-0.425598
51442	-9.633280	-1.356878	-0.898238	0.024973	-1.293131	-0.128927	0.452477	0.465652	0.631057	-0.424498
51443	-9.501754	-1.852498	-1.761489	-0.610099	-0.545606	-0.007180	0.452997	0.464040	0.632828	-0.423071
51444	-9.669229	-1.547728	-1.730700	-0.268686	-0.569289	0.111445	0.453985	0.461625	0.635610	-0.420476
51445	-10.365972	-1.914951	-1.638440	-0.488339	-0.898957	0.806081	0.454732	0.460346	0.637322	-0.418474
51446	-10.647192	-1.655754	-0.631947	-0.003652	-1.876828	0.816568	0.456033	0.458845	0.638514	-0.416887
51447	-10.238541	-1.898533	-0.990980	-0.371482	-1.500505	0.532585	0.457131	0.457615	0.638753	-0.416671
51448	-9.501478	-1.468694	-1.173359	-0.109558	-1.066029	-0.186502	0.457705	0.457040	0.638277	-0.417400
51449	-9.437258	-1.242221	-1.749024	-0.013328	-0.434888	-0.144455	0.457976	0.457015	0.637742	-0.417947
51450	-9.689184	-1.091592	-1.707229	0.173510	-0.476099	0.073145	0.458628	0.457026	0.637095	-0.418208
51451	-9.884883	-1.718523	-1.570238	-0.388518	-0.770900	0.305842	0.459521	0.456758	0.636774	-0.418009
51452	-9.881614	-1.965629	-1.376503	-0.602254	-0.997112	0.289183	0.459875	0.456965	0.635993	-0.418582
51453	-9.981076	-2.076508	-1.267562	-0.680704	-1.123346	0.376285	0.459609	0.457736	0.634550	-0.420218
51454	-9.806428	-1.672300	-0.933396	-0.260946	-1.292959	0.091550	0.459241	0.458804	0.632531	-0.422494
51455	-9.661928	-1.589919	-1.003709	-0.228857	-1.148989	-0.039485	0.459073	0.460053	0.630405	-0.424492
51456	-9.702637	-1.571540	-1.081117	-0.238841	-1.048301	0.017044	0.459286	0.461411	0.628181	-0.426081
51457	-9.973073	-1.875152	-1.572661	-0.603600	-0.665416	0.416901	0.459588	0.462568	0.626872	-0.426428
51458	-10.510189	-1.774634	-1.056052	-0.359336	-1.225005	0.822106	0.459163	0.464151	0.624907	-0.428048
51459	-10.410117	-1.263180	-0.494149	0.198942	-1.626784	0.556703	0.459295	0.465077	0.623093	-0.429542
51460	-10.634335	-1.581625	-0.467670	-0.095426	-1.720832	0.809875	0.459492	0.465970	0.621081	-0.431273
51461	-10.371703	-1.689736	-0.016150	-0.191395	-2.087597	0.484531	0.459929	0.466910	0.618329	-0.433739
51462	-10.190207	-1.936116	-0.068044	-0.492772	-2.000833	0.353291	0.461186	0.466990	0.616424	-0.435027
51463	-10.474685	-2.229610	-0.387629	-0.812415	-1.739005	0.730368	0.462009	0.467180	0.614223	-0.437059
51464	-9.844070	-1.682582	-0.236160	-0.354260	-1.625846	0.037351	0.462373	0.467351	0.611236	-0.440663
51465	-9.404098	-1.612130	-0.384253	-0.370716	-1.330770	-0.364146	0.462582	0.467252	0.608602	-0.444182
51466	-9.011733	-1.962735	-0.859166	-0.831444	-0.797798	-0.621728	0.462340	0.467540	0.605896	-0.447814
51467	-9.301910	-1.976589	-1.187973	-0.843940	-0.466398	-0.277815	0.461824	0.467964	0.603923	-0.450560
51468	-10.038872	-1.633729	-1.320557	-0.415939	-0.346742	0.429309	0.460825	0.468868	0.601616	-0.453719
