// General information: 
//  MT Manager version: 2021.0.0 
//  XDA version: 2021.0.0 build 5908 rev 109668 built on 2021-04-19
// Device information: 
//  DeviceId: 00B43DF6
//  ProductCode: MTW2-3A7G6
//  Firmware Version: 4.3.5
//  Hardware Version: 1.1.0
// Device settings: 
//  Filter Profile: human(46.1)
//  Option Flags: Orientation Smoother Disabled, Position/Velocity Smoother Disabled, Continuous Zero Rotation Update Disabled, AHS Disabled, ICC Disabled
// Coordinate system: ENU
PacketCounter	Acc_X	Acc_Y	Acc_Z	FreeAcc_E	FreeAcc_N	FreeAcc_U	Quat_q0	Quat_q1	Quat_q2	Quat_q3
50291	2.824784	2.664461	8.892952	-0.109263	0.088256	-0.109924	0.106360	-0.130761	-0.156472	-0.973193
50292	2.739479	2.737810	8.949840	-0.000389	0.060950	-0.060956	0.106421	-0.130638	-0.156856	-0.973142
50293	2.830575	2.766534	8.947375	-0.080867	0.023237	-0.029318	0.106471	-0.130676	-0.157011	-0.973106
50294	2.793117	2.690288	8.873683	-0.079428	0.074726	-0.129222	0.106433	-0.130717	-0.156834	-0.973133
50295	2.803477	2.765832	8.943545	-0.056590	0.021275	-0.040654	0.106425	-0.130516	-0.156438	-0.973225
50296	2.728291	2.638233	8.975839	-0.013976	0.153016	-0.068669	0.106365	-0.130298	-0.155857	-0.973354
50297	2.857385	2.584493	9.040956	-0.140604	0.194001	0.012063	0.106318	-0.129938	-0.155567	-0.973453
50298	2.716316	2.628442	9.148748	0.020498	0.210240	0.083880	0.106181	-0.129690	-0.155565	-0.973502
50299	2.704323	2.678178	9.113263	0.035353	0.155393	0.062138	0.105888	-0.129870	-0.155649	-0.973496
50300	2.730016	2.650707	8.966314	-0.023840	0.130765	-0.073265	0.105521	-0.130127	-0.155853	-0.973469
50301	2.790806	2.746540	8.848000	-0.082590	-0.000787	-0.137339	0.105200	-0.130039	-0.156318	-0.973441
50302	2.797038	2.943045	8.951773	-0.023463	-0.141479	0.015772	0.104967	-0.129703	-0.156554	-0.973473
50303	2.715380	2.840606	9.040229	0.038646	-0.003859	0.044622	0.104814	-0.129237	-0.156290	-0.973594
50304	2.643961	2.649349	9.112396	0.067550	0.203022	0.036147	0.104670	-0.129017	-0.155943	-0.973694
50305	2.682577	2.662637	9.131067	0.035841	0.185668	0.067924	0.104498	-0.128998	-0.155780	-0.973741
50306	2.764019	2.638831	9.072777	-0.058912	0.171964	0.030354	0.104187	-0.129105	-0.155620	-0.973786
50307	2.770793	2.677933	9.063364	-0.058526	0.130499	0.034786	0.103860	-0.128999	-0.155609	-0.973837
50308	2.830686	2.741272	9.155558	-0.085614	0.091236	0.154055	0.103501	-0.128658	-0.155399	-0.973954
50309	2.811040	2.671805	9.228031	-0.077340	0.178642	0.195266	0.103080	-0.128214	-0.155144	-0.974098
50310	2.788260	2.713380	9.337185	-0.032783	0.178803	0.301006	0.102568	-0.127788	-0.155215	-0.974196
50311	2.636787	2.907413	9.498902	0.185417	0.078908	0.463218	0.101881	-0.127810	-0.155163	-0.974274
50312	2.676612	2.850906	9.217133	0.078865	0.030661	0.199320	0.101237	-0.128367	-0.155082	-0.974281
50313	2.777334	2.908622	8.987570	-0.041682	-0.111133	0.032919	0.100745	-0.128983	-0.155417	-0.974197
50314	2.829077	3.069825	8.933181	-0.055673	-0.276776	0.043758	0.100485	-0.129406	-0.155933	-0.974085
50315	2.788525	3.037890	8.918151	-0.022112	-0.239398	0.009750	0.100338	-0.129714	-0.155936	-0.974059
50316	2.748985	2.877891	8.854227	-0.032817	-0.106068	-0.105773	0.100166	-0.129828	-0.155874	-0.974071
50317	2.720945	2.912977	8.876433	0.006608	-0.125192	-0.083128	0.100061	-0.129751	-0.156056	-0.974063
50318	2.671976	2.880378	8.907838	0.051695	-0.073264	-0.077310	0.099965	-0.129862	-0.156196	-0.974036
50319	2.610986	2.772695	8.747000	0.053028	-0.011111	-0.272659	0.099902	-0.130194	-0.156739	-0.973911
50320	2.748981	2.907449	8.598388	-0.072936	-0.193278	-0.331140	0.099863	-0.130478	-0.157672	-0.973726
50321	2.772414	3.160479	8.614004	-0.029334	-0.413100	-0.236443	0.099831	-0.130550	-0.158057	-0.973657
50322	2.804499	2.981936	8.624385	-0.101095	-0.249405	-0.269902	0.099957	-0.130340	-0.157665	-0.973736
50323	2.766292	2.668637	8.720758	-0.124025	0.072114	-0.283520	0.100076	-0.129902	-0.157354	-0.973833
50324	2.775479	2.761175	8.840030	-0.094490	0.023819	-0.145010	0.100128	-0.129343	-0.157622	-0.973858
50325	2.657655	2.908084	8.998782	0.075709	-0.034773	0.010307	0.100256	-0.128877	-0.158004	-0.973845
50326	2.641679	2.888620	9.023503	0.085019	-0.002549	0.022910	0.100404	-0.128671	-0.158060	-0.973848
50327	2.854837	2.787954	9.017853	-0.144772	0.054636	0.047359	0.100582	-0.128565	-0.158011	-0.973852
50328	2.825173	2.743880	8.988902	-0.137120	0.090881	-0.000258	0.100724	-0.128234	-0.158222	-0.973846
50329	2.912158	2.947355	9.211601	-0.132464	-0.035037	0.286935	0.100861	-0.127707	-0.158153	-0.973912
50330	2.848248	2.795917	9.231288	-0.115286	0.116083	0.243134	0.101021	-0.127016	-0.157814	-0.974041
50331	2.570006	2.736279	9.310772	0.139377	0.235544	0.222635	0.101081	-0.126475	-0.157619	-0.974137
50332	2.655718	2.767401	9.214439	0.040456	0.157608	0.166830	0.101015	-0.126483	-0.157618	-0.974143
50333	2.799113	2.787330	9.015456	-0.130201	0.051008	0.029219	0.100925	-0.126690	-0.157835	-0.974090
50334	2.812452	2.945666	9.019998	-0.101910	-0.089687	0.083209	0.100863	-0.126784	-0.158226	-0.974021
50335	2.773053	3.001921	9.064378	-0.041467	-0.117008	0.129590	0.100804	-0.126783	-0.158147	-0.974040
50336	2.765853	2.851287	9.039486	-0.076386	0.011269	0.060818	0.100658	-0.126719	-0.157819	-0.974117
50337	2.754084	2.873491	9.089178	-0.051249	0.005483	0.109633	0.100630	-0.126618	-0.157737	-0.974146
50338	2.673648	2.834804	9.135366	0.024823	0.067747	0.118788	0.100701	-0.126637	-0.157625	-0.974154
50339	2.591406	2.799628	9.101546	0.090635	0.101538	0.055084	0.100803	-0.126906	-0.157692	-0.974098
50340	2.681817	2.822108	8.952124	-0.015063	0.018436	-0.050700	0.100883	-0.127209	-0.157887	-0.974019
50341	2.731969	2.861153	8.961868	-0.047003	-0.019456	-0.016650	0.101054	-0.127327	-0.157966	-0.973973
50342	2.754820	2.813603	9.057316	-0.057967	0.051439	0.063261	0.101290	-0.127357	-0.157698	-0.973988
50343	2.671763	2.721319	9.168711	0.025618	0.180706	0.115850	0.101346	-0.127601	-0.157210	-0.974029
50344	2.725092	2.492019	9.030133	-0.101533	0.329770	-0.062789	0.101270	-0.128027	-0.156832	-0.974042
50345	2.707390	2.566299	8.918450	-0.084551	0.226429	-0.148517	0.101034	-0.128238	-0.157165	-0.973985
50346	2.756751	2.939958	8.930215	-0.039337	-0.114507	-0.015897	0.100811	-0.128188	-0.157700	-0.973928
50347	2.794749	3.076181	9.051284	-0.019755	-0.202088	0.145125	0.100644	-0.128100	-0.157475	-0.973993
50348	2.741388	2.749237	9.038423	-0.050873	0.097671	0.023697	0.100448	-0.128086	-0.156935	-0.974102
50349	2.637746	2.591769	8.905118	-0.018437	0.211555	-0.172615	0.100133	-0.128104	-0.157103	-0.974105
50350	2.540422	2.887696	8.788024	0.119006	-0.076925	-0.220931	0.099863	-0.128200	-0.157947	-0.973984
50351	2.660745	3.255895	8.860045	0.108037	-0.398861	-0.014216	0.099894	-0.128323	-0.158441	-0.973884
50352	2.789996	3.069885	8.885563	-0.049126	-0.240265	-0.009558	0.100035	-0.128582	-0.157685	-0.973958
50353	2.710820	2.613125	8.757409	-0.103976	0.137611	-0.281716	0.100163	-0.128739	-0.156965	-0.974041
50354	2.715666	2.525648	8.663470	-0.146716	0.178375	-0.391642	0.100223	-0.128748	-0.156884	-0.974047
50355	2.585592	2.713087	8.515447	-0.010089	-0.023678	-0.509016	0.100159	-0.128749	-0.157144	-0.974011
50356	2.605800	2.913603	8.370379	-0.012938	-0.260397	-0.578265	0.100170	-0.128688	-0.157072	-0.974030
50357	2.635657	2.752400	8.089463	-0.140613	-0.217346	-0.874299	0.100196	-0.128488	-0.156497	-0.974146
50358	2.564214	2.545551	7.859637	-0.175063	-0.102026	-1.164690	0.100267	-0.128051	-0.156048	-0.974268
50359	2.445235	2.568287	7.584101	-0.123646	-0.205449	-1.443915	0.100320	-0.127327	-0.155733	-0.974408
50360	2.362219	2.687861	7.378845	-0.072881	-0.381384	-1.621153	0.100224	-0.126329	-0.155187	-0.974635
50361	2.490255	2.582227	7.042048	-0.307290	-0.431565	-1.927324	0.100218	-0.124922	-0.154175	-0.974977
50362	2.346792	2.467802	6.682871	-0.294124	-0.443406	-2.331041	0.100167	-0.123148	-0.152834	-0.975419
50363	2.335051	2.175479	6.094243	-0.496193	-0.382500	-2.961966	0.100205	-0.121066	-0.152208	-0.975774
50364	2.018688	2.157312	5.627037	-0.319839	-0.471487	-3.482761	0.100341	-0.118733	-0.153085	-0.975909
50365	1.780116	2.406294	5.138372	-0.158227	-0.812262	-3.923969	0.100552	-0.116138	-0.155216	-0.975863
50366	2.062771	2.707922	4.892015	-0.437276	-1.200978	-3.991522	0.101042	-0.112719	-0.157333	-0.975875
50367	2.484177	2.782104	4.683951	-0.904482	-1.399743	-4.061771	0.102418	-0.107467	-0.158492	-0.976136
50368	2.419761	2.466930	4.872012	-0.946960	-1.039297	-4.007504	0.104400	-0.100388	-0.158941	-0.976607
50369	1.573753	1.676184	4.754597	-0.415948	-0.208741	-4.551947	0.106031	-0.092606	-0.159964	-0.977033
50370	0.742140	1.417570	4.364148	0.192007	0.060910	-5.168881	0.107292	-0.084750	-0.164315	-0.976886
50371	1.244969	2.763175	4.932609	0.018272	-1.023215	-4.114667	0.109077	-0.076738	-0.170972	-0.976208
50372	2.104142	3.047731	5.076325	-0.827181	-1.356108	-3.733149	0.111292	-0.066181	-0.173913	-0.976211
50373	1.358660	2.994542	5.627623	-0.205555	-0.962324	-3.369617	0.113742	-0.053224	-0.174667	-0.976587
50374	-0.117600	1.751166	5.523953	0.771448	0.416546	-4.083465	0.116150	-0.040101	-0.173773	-0.977090
50375	-1.660014	0.308963	4.695235	1.763472	1.763515	-5.491211	0.117382	-0.027580	-0.176450	-0.976896
50376	-1.927375	1.204494	4.878420	2.108201	1.133726	-4.992706	0.117149	-0.014444	-0.186344	-0.975368
50377	-0.544697	2.981707	5.418953	0.991018	-0.484614	-3.702787	0.116505	0.002316	-0.194846	-0.973887
50378	-1.147457	3.927801	6.166274	1.495845	-0.825299	-2.612641	0.116103	0.022756	-0.200923	-0.972436
50379	-2.575323	4.363690	7.008248	2.580169	-0.513680	-1.575078	0.116004	0.043816	-0.201365	-0.971635
50380	-4.093562	3.035327	6.638928	3.512342	0.867754	-2.266363	0.116319	0.063929	-0.198327	-0.971107
50381	-6.761923	1.433080	5.846303	5.631789	2.649428	-3.239198	0.115283	0.082358	-0.198025	-0.969903
50382	-6.681925	1.788613	5.675830	5.399447	2.266325	-3.047871	0.111716	0.101031	-0.202614	-0.967605
50383	-4.157917	4.356288	6.048722	3.018042	-0.487925	-1.844551	0.107289	0.124280	-0.208281	-0.964190
50384	-4.549875	6.125869	7.142119	2.865702	-1.529253	0.120016	0.104475	0.152905	-0.207874	-0.960465
50385	-6.525467	6.416844	8.435305	3.675339	-0.881419	2.044053	0.104506	0.183714	-0.200228	-0.956680
50386	-8.462690	4.539463	8.728750	4.421924	1.229596	2.324200	0.107099	0.211744	-0.187647	-0.953144
50387	-10.673314	1.883811	8.286596	5.638240	3.923195	1.973513	0.108877	0.235573	-0.178111	-0.949172
50388	-9.762828	2.706328	8.603141	4.224236	2.869981	2.456793	0.107564	0.257176	-0.173779	-0.944506
50389	-9.549425	3.769616	8.172285	3.836861	1.601942	2.632006	0.104483	0.278832	-0.170519	-0.939287
50390	-9.053815	5.078362	8.447453	2.819429	0.204475	3.267681	0.102082	0.301690	-0.166280	-0.933227
50391	-9.055908	5.119556	8.941392	1.901827	0.135154	3.770196	0.102610	0.325591	-0.159285	-0.926331
50392	-10.021395	2.984066	8.272341	2.275837	2.064427	3.159953	0.103957	0.347836	-0.151495	-0.919376
50393	-10.590071	1.857609	7.650834	2.443128	3.012734	2.799270	0.102859	0.368433	-0.147782	-0.912052
50394	-11.227107	2.697665	7.477013	2.513000	2.283926	3.516653	0.098742	0.387898	-0.146369	-0.904633
50395	-9.996726	4.645570	8.180166	0.683877	0.132486	3.895406	0.094221	0.408934	-0.144585	-0.896098
50396	-10.460682	5.969494	9.137880	-0.363991	-0.968832	5.268533	0.093248	0.432001	-0.137349	-0.886462
50397	-11.394321	5.081650	9.035745	-0.441784	-0.164940	5.583097	0.095827	0.453593	-0.125215	-0.877150
50398	-11.580422	3.656267	7.939801	-0.089218	0.775269	4.674431	0.099971	0.471017	-0.112458	-0.869196
50399	-11.313672	2.903864	6.712800	0.301406	1.043074	3.614810	0.103179	0.485209	-0.103092	-0.862148
50400	-9.991839	3.061853	7.232210	-1.199243	0.400642	2.832593	0.105991	0.499683	-0.096476	-0.854269
50401	-10.577673	2.526025	7.907722	-1.985711	0.965996	3.450163	0.108755	0.515382	-0.089868	-0.845268
50402	-11.055433	1.310103	7.470941	-1.943756	2.082888	3.287618	0.108867	0.530254	-0.084645	-0.836549
50403	-11.513206	1.438495	6.740605	-1.506358	1.928766	3.380327	0.104125	0.543229	-0.083667	-0.828891
50404	-10.803525	3.507149	6.353137	-1.648204	-0.349567	3.091907	0.096044	0.554354	-0.085760	-0.822261
50405	-9.841798	5.487227	5.879653	-1.799704	-2.586372	2.500002	0.088202	0.564465	-0.087777	-0.816024
50406	-9.024689	6.598446	6.255805	-2.721178	-3.897308	2.083388	0.085034	0.575147	-0.087245	-0.808927
50407	-9.615641	5.799901	7.081572	-3.645283	-3.008042	2.593059	0.088301	0.586852	-0.083538	-0.800518
50408	-10.935759	4.012189	7.701368	-4.217412	-1.035341	3.458757	0.095234	0.597572	-0.077323	-0.792376
50409	-11.193153	2.308418	7.454733	-4.274242	0.555743	3.133484	0.101497	0.605902	-0.071357	-0.785805
50410	-10.757941	2.643354	7.424892	-4.537518	0.017001	2.727527	0.104760	0.611571	-0.067025	-0.781354
50411	-9.561215	3.659655	7.189413	-4.627986	-1.356387	1.730186	0.107096	0.615514	-0.062613	-0.778301
50412	-8.643557	4.590372	6.864353	-4.495752	-2.574032	0.960584	0.110682	0.618746	-0.057417	-0.775633
50413	-8.304047	4.755160	6.643539	-4.356000	-2.917109	0.590189	0.117037	0.621669	-0.050492	-0.772839
50414	-8.203496	4.499819	6.781165	-4.524841	-2.837441	0.434391	0.126570	0.624316	-0.041213	-0.769748
50415	-8.654581	3.541085	6.626224	-4.391773	-1.948695	0.592135	0.138557	0.626437	-0.030159	-0.766465
50416	-9.431130	2.776446	6.473228	-4.199005	-1.168094	1.121621	0.151774	0.626748	-0.018546	-0.764073
50417	-9.773779	1.936928	5.824846	-3.614639	-0.320948	1.143441	0.165080	0.624180	-0.007357	-0.763606
50418	-9.400279	1.399618	4.859568	-2.769746	0.182101	0.494273	0.177116	0.619461	0.001966	-0.764783
50419	-9.221200	0.954870	4.163591	-2.138288	0.662789	0.100187	0.187471	0.614021	0.009447	-0.766644
50420	-9.124370	0.186970	3.440877	-1.594986	1.518002	-0.311120	0.194609	0.609090	0.014040	-0.768726
50421	-9.122539	0.271298	3.160836	-1.225245	1.528648	-0.355063	0.197663	0.605214	0.015058	-0.770985
50422	-9.078465	0.875745	3.004156	-0.820600	1.028259	-0.300635	0.197927	0.601842	0.014054	-0.773572
50423	-8.916607	1.473047	2.859696	-0.456273	0.496126	-0.357593	0.196654	0.598851	0.012192	-0.776245
50424	-8.845691	1.913381	2.863974	-0.275155	0.090598	-0.324514	0.195018	0.596462	0.010344	-0.778521
50425	-9.047832	2.046604	2.921407	-0.195059	0.030349	-0.089143	0.193770	0.594452	0.008833	-0.780385
50426	-9.011309	1.960787	2.845603	-0.110426	0.135892	-0.163079	0.193025	0.592292	0.007517	-0.782225
50427	-8.930161	1.819887	2.788003	-0.067780	0.278598	-0.286394	0.192298	0.590074	0.005910	-0.784092
50428	-8.946543	1.804417	2.752542	0.013449	0.329429	-0.285667	0.191343	0.587884	0.004219	-0.785979
50429	-9.106210	1.897810	2.857889	0.028874	0.287243	-0.085986	0.190140	0.585799	0.002544	-0.787833
50430	-9.155767	1.967232	2.914428	0.057642	0.242663	-0.008120	0.189006	0.583675	0.001178	-0.789683
50431	-9.237250	1.801155	2.806372	0.180354	0.459815	-0.004401	0.187883	0.581490	-0.000120	-0.791561
50432	-9.151582	1.904987	2.859549	0.190579	0.340739	-0.045149	0.186440	0.579423	-0.001639	-0.793415
50433	-9.009094	2.068987	2.881004	0.228357	0.153755	-0.134428	0.184942	0.577479	-0.003096	-0.795176
50434	-9.005153	2.210176	2.931762	0.261908	0.022166	-0.091387	0.183510	0.575772	-0.004584	-0.796737
50435	-9.002673	2.338439	3.035966	0.237444	-0.106882	-0.031808	0.182295	0.574189	-0.005956	-0.798148
50436	-9.039801	2.485024	3.142758	0.224678	-0.242191	0.069672	0.181482	0.572591	-0.006883	-0.799473
50437	-9.086930	2.347134	3.171979	0.208976	-0.094110	0.091359	0.181037	0.571023	-0.007560	-0.800688
50438	-9.101780	2.122184	3.084264	0.268163	0.147862	0.024226	0.180599	0.569510	-0.008230	-0.801857
50439	-9.203762	2.004362	2.999533	0.375888	0.316522	0.060627	0.179781	0.568126	-0.009485	-0.803008
50440	-9.136378	2.086469	2.853516	0.543406	0.262424	-0.034903	0.178670	0.566758	-0.011321	-0.804198
50441	-8.972869	2.260324	2.888995	0.537143	0.064626	-0.134105	0.177672	0.565455	-0.013317	-0.805305
50442	-8.969221	2.370544	2.879856	0.598687	-0.018017	-0.117268	0.177266	0.564208	-0.014625	-0.806246
50443	-8.810632	2.551347	3.007724	0.506718	-0.241658	-0.175894	0.177783	0.563032	-0.014795	-0.806951
50444	-8.612399	2.376653	2.995640	0.437358	-0.128673	-0.400574	0.179197	0.562113	-0.013631	-0.807299
50445	-8.656040	2.018513	3.074523	0.301013	0.204841	-0.414734	0.180842	0.561604	-0.011921	-0.807314
50446	-8.914699	1.706532	3.141166	0.241799	0.558059	-0.227222	0.181835	0.561435	-0.010750	-0.807225
50447	-8.968387	1.750361	3.221913	0.199627	0.515422	-0.139480	0.181927	0.561301	-0.010595	-0.807299
50448	-8.913402	1.944118	3.237466	0.225203	0.316922	-0.140130	0.181346	0.561114	-0.011338	-0.807549
50449	-8.818099	2.198528	3.306317	0.205951	0.045797	-0.144202	0.180592	0.560862	-0.012544	-0.807875
50450	-8.762130	2.293389	3.318876	0.206905	-0.050693	-0.168824	0.180053	0.560541	-0.013668	-0.808201
50451	-8.654074	2.173347	3.219777	0.236748	0.057053	-0.329856	0.179695	0.560312	-0.014563	-0.808423
50452	-8.619189	2.111011	3.306572	0.128261	0.098530	-0.344106	0.179188	0.560528	-0.015419	-0.808370
50453	-8.554282	2.625924	4.121147	-0.521258	-0.533060	0.010709	0.178914	0.561691	-0.016372	-0.807604
50454	-8.570548	3.246272	5.227719	-1.399685	-1.286742	0.565498	0.180815	0.562934	-0.015980	-0.806322
50455	-8.396421	3.130542	6.004933	-2.215457	-1.360129	0.656371	0.185513	0.563772	-0.014333	-0.804699
50456	-8.741838	3.013993	7.261316	-3.295271	-1.374269	1.389237	0.192632	0.563598	-0.011209	-0.803196
50457	-8.741845	2.637545	8.408242	-4.404506	-1.283531	1.721051	0.201783	0.561743	-0.006011	-0.802304
50458	-9.230356	1.940068	9.367845	-5.250458	-0.767496	2.375868	0.211898	0.557915	0.001177	-0.802389
50459	-8.867472	1.377135	10.313067	-6.245429	-0.717579	2.326653	0.221345	0.553076	0.008573	-0.803144
50460	-8.897073	1.347955	11.782710	-7.384200	-1.196691	2.987437	0.230395	0.547935	0.015845	-0.804011
50461	-9.752506	1.119011	12.866100	-7.966271	-1.144843	4.227250	0.239086	0.541521	0.023282	-0.805637
50462	-10.115435	0.566291	13.399418	-8.249145	-0.832770	4.796568	0.247538	0.531787	0.030873	-0.809305
50463	-10.281130	-0.192251	13.313073	-8.042154	-0.183712	4.960388	0.254412	0.518489	0.037179	-0.815513
50464	-10.444370	-0.831504	13.023586	-7.528850	0.510911	5.100874	0.258561	0.502355	0.041371	-0.824060
50465	-10.308963	-0.878038	12.618233	-6.700372	0.712774	5.047555	0.259507	0.484860	0.042793	-0.834108
50466	-10.619515	-0.571768	12.194589	-5.491468	0.866076	5.381493	0.257594	0.466591	0.042013	-0.845087
50467	-10.923763	-0.152422	11.762473	-4.183678	0.970128	5.654039	0.253351	0.447449	0.039293	-0.856773
50468	-11.143535	0.368180	11.412894	-2.896537	0.951762	5.847003	0.247615	0.427491	0.035093	-0.868739
50469	-11.628929	0.828163	11.406236	-1.716262	1.010830	6.373723	0.241380	0.406322	0.029904	-0.880764
50470	-11.858402	0.866731	11.322099	-0.737656	1.367744	6.530137	0.235045	0.383582	0.024385	-0.892762
50471	-11.959898	0.712986	10.822005	0.425956	1.933350	6.208457	0.227895	0.359000	0.018085	-0.904907
50472	-11.740946	0.599474	10.085777	1.571701	2.356806	5.413607	0.219523	0.333214	0.010634	-0.916878
50473	-11.403465	0.804234	9.201318	2.800345	2.432141	4.383452	0.209631	0.306866	0.000920	-0.928379
50474	-10.850143	1.775387	8.994304	3.664809	1.591475	3.816644	0.199405	0.280814	-0.009804	-0.938768
50475	-10.323756	2.218146	8.728006	4.267220	1.212317	3.147081	0.189889	0.255452	-0.019829	-0.947783
50476	-9.991750	2.366344	8.703720	4.705017	1.123367	2.747253	0.181423	0.230927	-0.028696	-0.955476
50477	-9.713964	2.100014	8.450355	5.100614	1.416573	2.108816	0.173541	0.206871	-0.036729	-0.962153
50478	-9.442442	2.207930	8.182252	5.575056	1.337361	1.504657	0.165785	0.182809	-0.045149	-0.968017
50479	-8.934377	2.453974	8.039129	5.784683	1.037967	0.953159	0.158461	0.158515	-0.053467	-0.973090
50480	-8.210306	2.857438	8.273302	5.681424	0.538232	0.743114	0.151979	0.133548	-0.060850	-0.977428
50481	-7.334678	2.578158	7.949730	5.385850	0.590148	-0.103848	0.146364	0.108159	-0.066907	-0.981021
50482	-6.827371	2.311011	7.664834	5.369217	0.737616	-0.795590	0.141437	0.082826	-0.072763	-0.983789
50483	-5.990283	2.410041	7.586147	5.044652	0.467173	-1.236240	0.137200	0.058101	-0.078362	-0.985728
50484	-4.797423	2.150398	7.226376	4.271078	0.401433	-1.974150	0.133817	0.034591	-0.083181	-0.986903
50485	-4.494032	1.857591	6.686566	4.287977	0.579790	-2.768328	0.130812	0.012045	-0.088372	-0.987387
50486	-4.219042	1.893403	6.488899	4.334294	0.508768	-3.146616	0.128037	-0.009633	-0.094068	-0.987251
50487	-3.330909	1.939639	6.609614	3.754650	0.338197	-3.155036	0.125799	-0.030206	-0.099353	-0.986606
50488	-2.491214	2.033760	7.106745	3.246969	0.221975	-2.724095	0.123909	-0.050277	-0.103226	-0.985628
50489	-1.359295	1.731670	7.130872	2.347498	0.305377	-2.735605	0.121956	-0.069387	-0.105320	-0.984490
50490	-1.134173	1.186108	6.777784	2.207820	0.724154	-3.237946	0.119313	-0.087853	-0.106011	-0.983264
50491	-0.048723	0.925480	6.429137	1.282546	0.680235	-3.481737	0.115934	-0.104977	-0.107151	-0.981864
50492	0.025418	0.905568	5.977871	1.321958	0.611309	-3.944838	0.111833	-0.119831	-0.109579	-0.980371
50493	0.445757	1.163199	5.713853	1.088207	0.267894	-4.073176	0.107182	-0.132551	-0.113410	-0.978816
50494	0.459272	1.501468	5.285374	1.182982	-0.103122	-4.428544	0.102253	-0.143875	-0.119149	-0.977061
50495	0.756741	2.317446	4.994923	1.126382	-0.927384	-4.449635	0.097380	-0.154880	-0.126172	-0.974992
50496	0.961552	2.810412	4.394841	0.976021	-1.515546	-4.823991	0.092830	-0.165542	-0.132857	-0.972794
50497	0.767386	2.956734	3.467788	0.996747	-1.833178	-5.689349	0.088728	-0.176782	-0.139701	-0.970237
50498	0.593486	2.870663	2.204974	0.806588	-2.067564	-6.892245	0.084978	-0.189301	-0.147057	-0.967118
50499	0.944881	2.741965	0.798496	0.029164	-2.398168	-7.997140	0.081721	-0.203078	-0.156751	-0.963073
50500	1.646889	2.940501	-0.342653	-0.943103	-3.004372	-8.563912	0.079583	-0.216553	-0.168333	-0.958350
50501	3.282540	3.481594	-1.036225	-2.515238	-3.856100	-8.147731	0.079473	-0.227094	-0.180906	-0.953617
50502	4.008634	4.053368	-0.578061	-2.790687	-4.215865	-7.116380	0.081466	-0.232035	-0.191573	-0.950170
50503	4.047605	3.977729	0.687726	-2.288076	-3.600057	-6.007112	0.084988	-0.231355	-0.198491	-0.948606
50504	3.987158	3.327090	1.985172	-1.872779	-2.450157	-5.186969	0.089336	-0.226655	-0.201602	-0.948685
50505	4.013286	2.537649	3.401403	-1.589450	-1.146921	-4.310546	0.094656	-0.219218	-0.203616	-0.949486
50506	4.061300	2.660554	5.565338	-0.877566	-0.336913	-2.487312	0.101150	-0.210457	-0.205899	-0.950306
50507	3.973150	3.114592	7.417926	-0.143293	0.059003	-0.841263	0.106646	-0.201474	-0.206139	-0.951600
50508	4.193388	3.435075	8.778223	0.045153	0.286101	0.500135	0.109859	-0.192197	-0.203701	-0.953676
50509	3.997931	3.619446	9.908594	0.447760	0.522041	1.447242	0.111523	-0.183059	-0.198346	-0.956405
50510	3.652931	3.397000	10.495513	0.691963	0.851614	1.755801	0.112799	-0.174938	-0.191695	-0.959128
50511	3.256253	3.108900	10.936508	0.944535	1.176501	1.917416	0.114226	-0.168437	-0.185512	-0.961336
50512	3.115693	2.879640	11.230793	0.974909	1.379111	2.073280	0.116119	-0.163994	-0.181212	-0.962696
50513	3.347705	2.984187	11.641930	0.829551	1.306214	2.566807	0.118522	-0.161493	-0.178365	-0.963358
50514	3.202075	2.752441	11.406536	0.809116	1.377760	2.244887	0.120734	-0.160908	-0.176195	-0.963580
50515	3.278142	2.656416	10.719523	0.549277	1.142810	1.637337	0.122253	-0.162185	-0.174995	-0.963393
50516	3.374577	2.689298	10.124002	0.360399	0.846537	1.154023	0.123381	-0.164465	-0.174196	-0.963008
50517	3.496831	2.570135	9.400558	0.079222	0.640654	0.521087	0.124298	-0.167199	-0.173228	-0.962594
50518	3.783122	2.051548	8.674912	-0.479132	0.766244	-0.171212	0.125029	-0.169546	-0.172333	-0.962249
50519	3.855186	1.923934	8.274174	-0.655152	0.711187	-0.534171	0.125340	-0.170991	-0.172383	-0.961944
50520	3.768890	2.049819	8.156977	-0.551942	0.574724	-0.630770	0.125059	-0.171614	-0.172704	-0.961812
50521	3.779536	2.162589	8.141279	-0.526525	0.472457	-0.607164	0.124330	-0.171770	-0.172903	-0.961843
50522	3.813924	2.376264	8.221475	-0.478538	0.309396	-0.460653	0.123207	-0.171144	-0.173050	-0.962072
50523	3.695351	2.511186	8.367299	-0.309111	0.267146	-0.336064	0.121883	-0.170090	-0.172999	-0.962437
50524	3.498355	2.618037	8.591446	-0.060125	0.289433	-0.178472	0.120503	-0.168969	-0.172756	-0.962852
50525	3.384842	2.578368	8.665701	0.029884	0.372376	-0.165931	0.119215	-0.168134	-0.172753	-0.963159
50526	3.544877	2.937062	8.744737	-0.010357	0.053032	0.069618	0.117992	-0.167431	-0.173034	-0.963381
50527	3.393566	3.261423	8.951237	0.260638	-0.136802	0.296276	0.116787	-0.166819	-0.172639	-0.963705
50528	3.367220	3.153806	9.113844	0.287402	0.008202	0.398290	0.115593	-0.166636	-0.170985	-0.964176
50529	3.299856	2.605064	8.855472	0.122770	0.395303	-0.018637	0.114557	-0.166861	-0.169675	-0.964492
50530	3.333445	2.572637	8.589891	0.013421	0.310809	-0.251319	0.113635	-0.167180	-0.169697	-0.964542
50531	3.321046	2.982284	8.573086	0.139278	-0.055889	-0.148392	0.112943	-0.167721	-0.170516	-0.964385
50532	3.472409	3.215764	8.611927	0.084681	-0.268310	0.009984	0.112427	-0.168427	-0.170467	-0.964331
50533	3.672672	2.820570	8.548367	-0.217166	0.027886	-0.093081	0.111917	-0.168814	-0.169334	-0.964522
50534	3.745432	2.412093	8.418060	-0.432415	0.322249	-0.303779	0.111123	-0.168530	-0.168251	-0.964853
50535	3.551378	2.475587	8.516017	-0.220366	0.322232	-0.267482	0.110202	-0.167793	-0.168179	-0.965099
50536	3.490712	2.760369	8.707304	-0.050914	0.144837	-0.035251	0.109208	-0.167084	-0.168441	-0.965290
50537	3.352030	2.836022	8.682346	0.074167	0.095953	-0.083991	0.108091	-0.166542	-0.168854	-0.965437
50538	3.439611	2.956247	8.616489	-0.006596	-0.037472	-0.075506	0.107051	-0.166152	-0.169768	-0.965460
50539	3.538459	3.248504	8.671517	-0.017763	-0.280501	0.096381	0.106229	-0.165745	-0.170650	-0.965465
50540	3.589662	3.193326	8.703089	-0.082959	-0.214232	0.125822	0.105497	-0.165346	-0.170827	-0.965582
50541	3.491543	3.161465	8.679704	-0.018214	-0.180459	0.061019	0.104788	-0.164890	-0.170408	-0.965811
50542	3.518711	3.028672	8.658804	-0.094272	-0.080315	0.011452	0.104145	-0.164470	-0.169748	-0.966069
50543	3.403186	3.098264	8.853074	0.075431	-0.067986	0.164662	0.103466	-0.164171	-0.168997	-0.966324
50544	3.421978	2.991743	8.826634	0.016602	0.000676	0.115536	0.102750	-0.163928	-0.167949	-0.966625
50545	3.438858	2.810673	8.837282	-0.050066	0.153797	0.076550	0.102033	-0.163546	-0.167380	-0.966864
50546	3.509894	2.917415	8.851865	-0.096578	0.046789	0.145959	0.101258	-0.162956	-0.167450	-0.967033
50547	3.386115	3.243686	9.007456	0.126201	-0.177239	0.339857	0.100422	-0.162145	-0.167471	-0.967253
50548	3.254066	3.288763	9.050673	0.254861	-0.189426	0.346974	0.099582	-0.161562	-0.166894	-0.967537
50549	3.262374	3.283517	9.053498	0.237821	-0.199461	0.350679	0.098915	-0.161475	-0.165925	-0.967786
50550	3.383754	3.191254	9.029949	0.093702	-0.156365	0.343130	0.098557	-0.161454	-0.165161	-0.967957
50551	3.203976	3.123780	9.055340	0.251841	-0.071575	0.284545	0.098341	-0.161569	-0.164682	-0.968041
50552	3.334761	2.913460	8.888790	0.037310	0.040064	0.117895	0.098266	-0.161902	-0.164636	-0.968001
50553	3.274591	2.967309	8.858474	0.104466	-0.006204	0.086275	0.098294	-0.162241	-0.165193	-0.967847
50554	3.189680	2.990854	8.679813	0.148292	-0.067117	-0.095080	0.098329	-0.162788	-0.165902	-0.967630
50555	3.285467	3.089810	8.535355	0.055687	-0.207769	-0.161408	0.098512	-0.163504	-0.166731	-0.967348
50556	3.300176	3.158040	8.386996	0.030789	-0.311961	-0.267648	0.098716	-0.164131	-0.167314	-0.967121
50557	3.630870	3.148009	8.368246	-0.275996	-0.349321	-0.173055	0.098995	-0.164272	-0.167339	-0.967064
50558	3.451818	2.970356	8.520503	-0.112884	-0.110950	-0.152876	0.099349	-0.163881	-0.166870	-0.967175
50559	3.368211	2.706785	8.508857	-0.110122	0.126796	-0.270992	0.099465	-0.163492	-0.166213	-0.967342
50560	3.267580	2.707342	8.503066	-0.024388	0.131474	-0.310528	0.099407	-0.163167	-0.166252	-0.967396
50561	3.281761	2.902703	8.495675	0.003236	-0.050991	-0.253947	0.099450	-0.162892	-0.166518	-0.967392
50562	3.355772	3.103161	8.546252	-0.006010	-0.225398	-0.123601	0.099498	-0.162715	-0.166560	-0.967410
50563	3.375761	2.894581	8.499425	-0.093149	-0.056814	-0.220885	0.099598	-0.162452	-0.166208	-0.967504
50564	3.429573	2.743808	8.529580	-0.178512	0.079878	-0.220715	0.099677	-0.162024	-0.166096	-0.967587
50565	3.346944	2.647521	8.438349	-0.160286	0.148739	-0.359153	0.099527	-0.161459	-0.166493	-0.967629
50566	3.369754	3.028885	8.515221	-0.080327	-0.167050	-0.168831	0.099286	-0.160641	-0.167346	-0.967642
50567	3.388644	3.460841	8.659868	0.028525	-0.507088	0.096684	0.099161	-0.159543	-0.167471	-0.967815
50568	3.215062	3.358859	8.828884	0.189833	-0.337556	0.158155	0.099263	-0.158541	-0.166564	-0.968126
50569	3.162912	3.035751	9.005770	0.190994	0.010113	0.201655	0.099489	-0.157898	-0.165566	-0.968379
50570	3.174131	2.889860	8.946392	0.120309	0.106009	0.108936	0.099685	-0.157520	-0.165186	-0.968485
50571	3.222255	2.994772	8.929831	0.092140	-0.004983	0.141455	0.100000	-0.157306	-0.165563	-0.968423
50572	3.209665	3.222568	8.962080	0.167406	-0.195171	0.234185	0.100431	-0.157271	-0.165941	-0.968320
50573	3.293386	3.126897	8.918562	0.055223	-0.134818	0.194480	0.100931	-0.157245	-0.165696	-0.968314
50574	3.326842	2.906517	8.819530	-0.057627	0.019322	0.051192	0.101449	-0.156978	-0.165292	-0.968372
50575	3.345923	2.851819	8.876394	-0.078788	0.075654	0.092185	0.101937	-0.156531	-0.164743	-0.968487
50576	3.159725	2.757800	8.917313	0.075355	0.192182	0.039478	0.102384	-0.156092	-0.164280	-0.968589
50577	3.234105	2.862322	9.109526	0.079448	0.141774	0.267459	0.102902	-0.155987	-0.163738	-0.968643
50578	3.183346	2.789667	9.066789	0.100323	0.185574	0.191215	0.103191	-0.156151	-0.162830	-0.968739
50579	3.400455	2.703085	8.883800	-0.166539	0.147462	0.073775	0.103263	-0.156273	-0.161737	-0.968895
50580	3.286862	2.684738	8.838696	-0.075597	0.147606	-0.009305	0.103254	-0.156151	-0.160997	-0.969038
50581	3.213264	2.783198	8.828961	0.012067	0.051541	-0.013759	0.103150	-0.155854	-0.160452	-0.969188
50582	3.243690	2.867854	8.919898	0.022737	-0.010182	0.102456	0.103119	-0.155475	-0.159956	-0.969334
50583	3.214670	2.922907	9.054910	0.091522	-0.019826	0.230226	0.103118	-0.155054	-0.159489	-0.969478
50584	3.132187	2.955613	9.071775	0.175987	-0.042783	0.227757	0.103156	-0.154882	-0.158917	-0.969596
50585	3.183804	2.914729	9.127111	0.132210	-0.005460	0.282801	0.103451	-0.154938	-0.158363	-0.969646
50586	3.226286	2.733815	9.102396	0.043971	0.135811	0.223043	0.103786	-0.155037	-0.157890	-0.969671
50587	3.125811	2.658071	9.005256	0.097109	0.182843	0.081139	0.104020	-0.155199	-0.157920	-0.969616
50588	3.192183	2.846263	8.974385	0.080368	-0.010186	0.128352	0.104276	-0.155521	-0.158097	-0.969508
50589	3.222194	3.055987	9.050468	0.132827	-0.185151	0.266034	0.104580	-0.155812	-0.157636	-0.969503
50590	3.175415	2.793971	8.962869	0.096421	0.017172	0.097555	0.104970	-0.156225	-0.156390	-0.969596
50591	3.276409	2.485741	8.939478	-0.069392	0.252345	0.023952	0.105292	-0.156791	-0.154937	-0.969703
50592	3.194040	2.190993	8.757722	-0.103762	0.454758	-0.248042	0.105425	-0.157211	-0.154110	-0.969753
50593	3.330293	2.188836	8.716549	-0.236296	0.416298	-0.240282	0.105478	-0.157303	-0.154384	-0.969689
50594	3.236252	2.440135	8.788551	-0.068386	0.235519	-0.137667	0.105467	-0.157026	-0.155462	-0.969562
50595	3.203501	2.704674	8.854955	0.041382	0.037001	-0.015504	0.105384	-0.156871	-0.156337	-0.969456
50596	3.254049	2.892391	8.863133	0.042088	-0.132645	0.061041	0.105195	-0.156894	-0.156385	-0.969465
50597	3.294454	2.795269	8.844828	-0.025884	-0.061661	0.030759	0.105053	-0.156804	-0.155662	-0.969611
50598	3.244199	2.552055	8.806856	-0.054325	0.145518	-0.087751	0.104985	-0.156503	-0.155082	-0.969760
50599	3.190304	2.657972	8.977766	0.061971	0.107338	0.078104	0.104999	-0.156174	-0.155012	-0.969823
50600	3.058997	2.769315	9.080099	0.237167	0.059395	0.158019	0.105148	-0.156252	-0.155087	-0.969782
50601	3.178042	2.845306	9.094189	0.155551	-0.025664	0.230974	0.105282	-0.156729	-0.154903	-0.969720
50602	3.252969	2.582371	8.886522	-0.026247	0.131404	-0.004387	0.105509	-0.157135	-0.154649	-0.969670
50603	3.214134	2.526617	8.817021	-0.014268	0.163521	-0.095313	0.105745	-0.157504	-0.154669	-0.969581
50604	3.290362	2.507712	8.719191	-0.109848	0.137654	-0.163419	0.105913	-0.157709	-0.154856	-0.969500
50605	3.327005	2.610607	8.749955	-0.107494	0.050440	-0.095082	0.106072	-0.157673	-0.155047	-0.969458
50606	3.297848	2.618786	8.876715	-0.045997	0.090749	0.011750	0.106294	-0.157527	-0.154920	-0.969478
50607	3.188259	2.406737	8.822097	-0.012339	0.283707	-0.132495	0.106474	-0.157687	-0.154882	-0.969438
50608	3.179658	2.358001	8.648731	-0.057060	0.277657	-0.305292	0.106481	-0.158151	-0.155586	-0.969249
50609	3.268674	2.649223	8.518290	-0.092993	-0.034890	-0.312478	0.106457	-0.158463	-0.156470	-0.969058
50610	3.432614	2.881916	8.618447	-0.157167	-0.231616	-0.102509	0.106541	-0.158364	-0.156617	-0.969041
50611	3.401593	2.624174	8.589528	-0.207420	-0.002095	-0.210913	0.106598	-0.157922	-0.156170	-0.969179
50612	3.212471	2.467675	8.732248	-0.043726	0.215003	-0.189102	0.106599	-0.157340	-0.156025	-0.969297
50613	3.127993	2.428422	8.837169	0.041768	0.301721	-0.133621	0.106642	-0.156846	-0.156397	-0.969313
50614	3.086839	2.478377	8.824079	0.081948	0.268203	-0.145390	0.106587	-0.156662	-0.157217	-0.969216
50615	3.199555	2.636063	8.660060	-0.026019	0.065848	-0.211772	0.106414	-0.156936	-0.158256	-0.969021
50616	3.446021	2.878485	8.592558	-0.208745	-0.202741	-0.122069	0.106271	-0.157012	-0.159002	-0.968903
50617	3.476290	2.945670	8.668400	-0.205831	-0.235066	-0.024680	0.106158	-0.156416	-0.159113	-0.968993
50618	3.314479	2.786073	8.853067	-0.064606	-0.002685	0.042288	0.105984	-0.155371	-0.158648	-0.969256
50619	3.214519	2.720009	8.969726	0.021402	0.104591	0.095699	0.105793	-0.154350	-0.158288	-0.969499
50620	3.160870	2.919281	9.153900	0.153370	-0.013595	0.300842	0.105638	-0.153723	-0.158146	-0.969639
50621	3.221110	3.042784	9.239839	0.141132	-0.115072	0.433070	0.105625	-0.153363	-0.157641	-0.969780
50622	3.116013	2.981629	9.229614	0.219242	-0.060593	0.372285	0.105754	-0.153430	-0.156707	-0.969906
50623	3.077766	2.705270	9.020736	0.139905	0.111119	0.093515	0.105960	-0.154084	-0.155799	-0.969926
50624	3.249061	2.703966	8.727802	-0.079477	-0.029942	-0.115517	0.106125	-0.154872	-0.155103	-0.969894
50625	3.271435	2.632200	8.519861	-0.159612	-0.048214	-0.315794	0.106325	-0.155281	-0.154650	-0.969879
50626	3.177224	2.612608	8.513501	-0.073642	-0.023260	-0.357836	0.106586	-0.155265	-0.154469	-0.969882
50627	3.217436	2.665176	8.627364	-0.070943	-0.041923	-0.227298	0.106757	-0.154882	-0.154515	-0.969917
50628	3.203697	2.777473	8.798901	0.005481	-0.088431	-0.045865	0.106939	-0.154182	-0.154323	-0.970039
50629	3.146375	2.681053	9.036205	0.082166	0.082472	0.123466	0.107154	-0.153437	-0.153886	-0.970203
50630	3.098552	2.576427	9.264832	0.145745	0.253010	0.286363	0.107357	-0.152774	-0.153369	-0.970367
50631	2.931408	2.420107	9.312154	0.266075	0.432154	0.232646	0.107490	-0.152610	-0.153132	-0.970416
50632	3.089871	2.365409	9.167781	0.069133	0.406127	0.138240	0.107614	-0.152891	-0.153201	-0.970347
50633	3.186134	2.502820	9.058148	-0.008311	0.227580	0.107683	0.107672	-0.153073	-0.153266	-0.970301
50634	3.214898	2.559864	9.014016	-0.030838	0.153450	0.092688	0.107869	-0.152921	-0.153069	-0.970335
50635	3.192015	2.403090	9.099314	-0.031291	0.322426	0.119903	0.108127	-0.152638	-0.152485	-0.970442
50636	3.199151	2.169373	9.188811	-0.078890	0.554248	0.140281	0.108321	-0.152425	-0.151805	-0.970561
50637	3.175617	2.113051	9.241333	-0.059364	0.618463	0.165576	0.108371	-0.152409	-0.151584	-0.970592
50638	3.149639	2.318634	9.171515	0.003599	0.406946	0.149609	0.108181	-0.152746	-0.151564	-0.970564
50639	3.256795	2.355329	9.030908	-0.115624	0.307497	0.066769	0.107891	-0.153158	-0.151369	-0.970562
50640	3.287352	2.232973	8.842161	-0.216827	0.352873	-0.127382	0.107533	-0.153556	-0.151382	-0.970536
50641	3.236694	2.270728	8.576843	-0.223310	0.245183	-0.374222	0.106929	-0.153843	-0.151973	-0.970465
50642	3.373854	2.719689	8.634764	-0.221221	-0.160503	-0.155357	0.106266	-0.153822	-0.152579	-0.970446
50643	3.230152	2.867524	8.642182	-0.054818	-0.268705	-0.155117	0.105555	-0.153369	-0.152163	-0.970661
50644	3.061355	2.694183	8.677098	0.057153	-0.080704	-0.225574	0.104849	-0.152906	-0.151283	-0.970948
50645	3.009068	2.733572	8.705413	0.114465	-0.111665	-0.206151	0.104171	-0.152598	-0.150810	-0.971143
50646	2.954042	2.923163	8.699152	0.203840	-0.288293	-0.178279	0.103679	-0.152229	-0.150492	-0.971303
50647	2.879179	2.840899	8.599870	0.220982	-0.239921	-0.314701	0.103428	-0.151974	-0.150077	-0.971434
50648	2.842739	2.728217	8.412915	0.177230	-0.197524	-0.526620	0.103256	-0.152060	-0.149809	-0.971480
50649	2.728000	2.622330	7.945674	0.140187	-0.234520	-1.016229	0.103214	-0.152221	-0.150165	-0.971404
50650	2.473524	2.732396	7.396904	0.267497	-0.468597	-1.566031	0.103392	-0.152461	-0.151016	-0.971216
50651	2.062793	2.726169	6.659795	0.466297	-0.624851	-2.367417	0.103862	-0.153006	-0.152620	-0.970829
50652	2.135598	2.546486	5.567011	0.084153	-0.808966	-3.380319	0.105016	-0.154019	-0.155162	-0.970141
50653	2.317255	2.130415	4.851677	-0.361562	-0.658763	-4.078384	0.107803	-0.154580	-0.159528	-0.969038
50654	2.264753	1.140669	4.153102	-0.742896	0.061140	-5.004081	0.111473	-0.154699	-0.165288	-0.967637
50655	1.663659	0.708994	3.692594	-0.423156	0.438944	-5.746523	0.114108	-0.153686	-0.172858	-0.966168
50656	1.268164	0.625008	2.809094	-0.315296	0.301600	-6.698325	0.114866	-0.151422	-0.181781	-0.964797
50657	1.324001	1.215108	2.142980	-0.388435	-0.452370	-7.080286	0.114381	-0.146386	-0.192030	-0.963646
50658	0.923392	1.895243	1.920783	0.085753	-1.033259	-7.155894	0.113200	-0.137968	-0.203427	-0.962688
50659	0.268060	2.572222	2.230822	0.896051	-1.329972	-6.797391	0.112372	-0.126261	-0.215429	-0.961780
50660	0.810680	3.457799	2.846952	0.653110	-1.841883	-5.701986	0.113122	-0.111436	-0.226735	-0.960925
50661	-0.134630	4.155811	4.024137	1.790800	-1.654230	-4.565202	0.115010	-0.094262	-0.234217	-0.960744
50662	-1.306303	2.985155	3.985968	2.443733	-0.398940	-5.299149	0.116818	-0.076744	-0.237552	-0.961266
50663	-3.035712	1.620189	3.751665	3.591089	1.031478	-6.355399	0.117646	-0.059210	-0.242146	-0.961259
50664	-2.344634	1.729391	3.533015	2.810830	0.755746	-6.277737	0.117054	-0.042072	-0.250747	-0.960028
50665	-0.966160	3.769358	3.811120	1.817751	-1.031722	-4.783460	0.115923	-0.022235	-0.259494	-0.958504
50666	-2.014791	4.483999	4.101035	2.778068	-1.193393	-4.170359	0.114307	0.000194	-0.263563	-0.957846
50667	-4.101805	3.664234	3.942126	4.396224	-0.105706	-4.670239	0.112017	0.025041	-0.263448	-0.957821
50668	-6.762004	2.202607	3.752402	6.464835	1.642806	-5.323998	0.108370	0.051575	-0.263790	-0.957084
50669	-7.488131	2.409692	3.657882	6.958434	1.630036	-4.897056	0.102558	0.078257	-0.269076	-0.954440
50670	-5.392779	5.174845	4.473614	4.819231	-0.706414	-2.592863	0.096642	0.108366	-0.273829	-0.950755
50671	-7.044445	6.361749	5.070885	5.864234	-0.947552	-0.841584	0.091493	0.141798	-0.273895	-0.946839
50672	-8.207444	6.705799	6.350543	5.902182	-0.350421	1.033483	0.088716	0.177917	-0.266174	-0.943200
50673	-9.367345	4.548795	6.632615	5.936226	1.755213	0.866094	0.088603	0.215824	-0.252394	-0.939078
50674	-10.964103	3.306772	7.086466	6.236242	3.301617	1.653861	0.087820	0.253115	-0.241144	-0.932775
50675	-11.735934	4.361549	7.642176	5.716095	2.663395	3.427113	0.085139	0.288366	-0.230196	-0.925530
50676	-12.994001	5.811457	7.850618	5.678204	1.578219	5.333780	0.080259	0.320063	-0.219070	-0.918219
50677	-10.878362	7.447810	9.554238	1.988881	-0.263035	6.341909	0.078023	0.350925	-0.203798	-0.910621
50678	-12.087777	5.019907	9.580590	1.884498	1.795522	6.193988	0.079966	0.382937	-0.184160	-0.901693
50679	-13.289446	2.201571	8.654314	2.383083	4.004853	5.501784	0.080724	0.412620	-0.167357	-0.891751
50680	-14.604050	0.839357	7.338379	3.294686	4.972531	5.424543	0.075140	0.438876	-0.158456	-0.881268
50681	-14.042388	4.172097	7.778346	1.667713	1.535709	6.615576	0.062707	0.462431	-0.157785	-0.870247
50682	-11.893814	8.349720	9.205673	-1.867066	-2.842808	7.047388	0.051497	0.488278	-0.155215	-0.857228
50683	-13.005210	9.911261	10.152947	-3.286369	-4.159916	8.686623	0.048571	0.516611	-0.144126	-0.842604
50684	-13.571085	7.734090	9.118673	-2.925390	-2.628296	7.839147	0.053558	0.542296	-0.126759	-0.828842
50685	-12.819358	5.166078	8.827977	-3.615850	-0.827495	6.160309	0.061709	0.564916	-0.111075	-0.815306
50686	-12.160768	3.684287	10.354352	-5.979627	0.265003	5.444376	0.070865	0.587184	-0.098772	-0.800273
50687	-12.677595	2.006830	10.707131	-6.906539	1.720930	5.309045	0.076911	0.607365	-0.090001	-0.785552
50688	-12.612252	2.682945	10.610528	-7.508192	0.807219	5.079770	0.076713	0.623697	-0.085558	-0.773173
50689	-12.268912	4.735846	10.012718	-7.492202	-1.464973	4.847128	0.073462	0.634785	-0.082338	-0.764769
50690	-11.532589	7.221579	9.577867	-7.502731	-4.233561	4.423361	0.072453	0.641573	-0.077303	-0.759710
50691	-10.675242	8.778617	9.446787	-7.596417	-6.179243	3.765583	0.079259	0.646364	-0.066497	-0.755983
50692	-10.658915	7.592631	8.935189	-7.000970	-5.381656	3.344223	0.095944	0.649475	-0.048836	-0.752723
50693	-14.500477	6.788859	13.203921	-10.404173	-4.390136	7.598102	0.117421	0.643572	-0.034162	-0.755553
50694	-10.625775	4.520366	11.958271	-9.307723	-3.328069	3.549133	0.145476	0.624975	-0.016839	-0.766785
50695	-10.843282	1.510531	11.629893	-8.716441	-0.604949	3.555110	0.164753	0.602305	-0.006164	-0.781055
50696	-7.179715	3.192107	7.089354	-4.089606	-2.427331	-0.360699	0.182917	0.578235	0.004381	-0.795089
50697	-6.389447	1.814205	3.884316	-1.239803	-0.690900	-2.250958	0.202660	0.560541	0.017042	-0.802766
50698	-6.734546	0.518824	3.426268	-0.921402	0.740409	-2.331800	0.221882	0.549805	0.027852	-0.804803
50699	-7.428284	0.100990	3.607692	-0.954238	1.320838	-1.716408	0.238834	0.544724	0.035633	-0.803097
50700	-8.058434	-0.059357	3.954097	-1.149217	1.597485	-1.054611	0.252584	0.543148	0.041403	-0.799674
50701	-8.560956	0.507914	4.309340	-1.104589	1.174873	-0.351304	0.263736	0.542510	0.046905	-0.796195
50702	-8.272238	0.595611	3.717638	-0.676797	1.212234	-0.830604	0.273168	0.541875	0.051315	-0.793169
50703	-8.008407	0.802931	3.277325	-0.315168	1.126314	-1.201536	0.280965	0.541979	0.053345	-0.790235
50704	-7.988106	0.959663	3.292792	-0.303221	1.023704	-1.185235	0.287464	0.542542	0.053570	-0.787492
50705	-8.082364	0.884668	3.444022	-0.491219	1.112733	-1.066906	0.292439	0.543034	0.052863	-0.785365
50706	-8.243975	1.090589	3.643103	-0.549213	0.973174	-0.802926	0.295582	0.543170	0.051810	-0.784164
50707	-8.220790	1.137692	3.753697	-0.642302	0.916045	-0.773098	0.297247	0.543164	0.050830	-0.783603
50708	-8.253051	1.347337	3.932894	-0.691487	0.713049	-0.625242	0.297820	0.543522	0.049283	-0.783236
50709	-8.688244	1.289359	4.118665	-0.792104	0.903607	-0.186303	0.298094	0.543525	0.046355	-0.783308
50710	-8.786838	0.948782	3.499199	-0.437587	1.526415	-0.440854	0.296816	0.543348	0.041035	-0.784213
50711	-8.460137	1.585561	3.143835	0.095206	1.071125	-0.712424	0.292976	0.543731	0.033199	-0.785760
50712	-7.885127	2.617713	2.868075	0.670343	0.129650	-1.049866	0.288010	0.545042	0.025377	-0.786979
50713	-8.006356	3.275302	2.998257	0.841775	-0.382400	-0.704253	0.283051	0.547556	0.018657	-0.787221
50714	-8.944930	3.615944	3.413347	0.774390	-0.390363	0.384605	0.279444	0.551035	0.013108	-0.786193
50715	-9.630410	4.305244	4.482913	0.201918	-0.987594	1.604786	0.279423	0.554324	0.008302	-0.783951
50716	-10.103128	4.535174	4.446390	0.329230	-0.892490	2.082897	0.283976	0.556754	0.005946	-0.780607
50717	-10.301231	4.312804	4.584388	0.067207	-0.578963	2.245155	0.290957	0.558338	0.006159	-0.776894
50718	-10.020810	3.960441	4.449706	-0.084116	-0.301832	1.840773	0.298729	0.558994	0.008780	-0.773440
50719	-9.941375	4.047770	4.196402	0.127103	-0.277875	1.708231	0.305756	0.559577	0.011296	-0.770233
50720	-9.987817	4.953772	4.075290	0.633054	-0.896034	2.006792	0.311995	0.560404	0.011927	-0.767114
50721	-9.940933	5.410395	4.041529	0.813213	-1.159716	2.121278	0.319053	0.561282	0.008433	-0.763608
50722	-9.677430	5.207254	3.823939	0.750271	-0.848504	1.767543	0.326649	0.562726	0.000563	-0.759368
50723	-9.988015	5.503323	3.872264	0.725307	-0.692529	2.188373	0.333388	0.565598	-0.010927	-0.754210
50724	-10.116776	5.791153	3.868763	0.652746	-0.562213	2.438804	0.339762	0.569168	-0.023767	-0.748361
50725	-10.177516	6.098037	3.813422	0.593882	-0.438187	2.627196	0.346637	0.572742	-0.037210	-0.741906
50726	-9.675345	5.887111	3.462688	0.506557	-0.119732	2.018493	0.354873	0.575382	-0.049632	-0.735212
50727	-9.133728	5.562341	3.288839	0.259603	0.167547	1.371048	0.364341	0.577158	-0.059752	-0.728405
50728	-8.706265	5.078894	3.058315	0.051775	0.618292	0.701809	0.375378	0.577596	-0.068265	-0.721675
50729	-7.871388	4.421104	2.808318	-0.187497	0.902746	-0.403324	0.386930	0.576902	-0.075097	-0.715423
50730	-7.417362	4.248907	2.654216	-0.232841	0.999797	-0.921256	0.398017	0.575394	-0.080939	-0.709896
50731	-7.119533	4.186038	2.628269	-0.303090	1.056544	-1.215781	0.409111	0.572376	-0.086377	-0.705374
50732	-6.661437	3.852655	2.446951	-0.333185	1.216058	-1.836927	0.419171	0.568507	-0.091541	-0.701937
50733	-6.245577	3.989208	2.464284	-0.295427	1.005117	-2.073568	0.428122	0.564311	-0.096521	-0.699248
50734	-5.891344	4.089110	2.506274	-0.279318	0.830107	-2.266736	0.436109	0.559849	-0.100636	-0.697317
50735	-5.259502	3.988661	2.714747	-0.481791	0.490543	-2.708621	0.443560	0.554955	-0.103044	-0.696177
50736	-4.624228	2.933848	2.812863	-1.042306	0.712141	-3.787004	0.451555	0.549110	-0.104129	-0.695509
50737	-4.116277	1.137384	2.665126	-1.776851	1.485004	-5.343060	0.458546	0.543057	-0.104475	-0.695636
50738	-3.909834	-0.927948	2.508210	-2.676779	2.576509	-6.874084	0.463460	0.536805	-0.103917	-0.697314
50739	-4.466027	-3.022946	1.640986	-3.016119	4.476925	-8.188985	0.462611	0.532627	-0.103557	-0.701125
50740	-6.732021	-1.966666	1.502713	-2.250790	5.666400	-6.035153	0.450653	0.534017	-0.105151	-0.707589
50741	-9.116858	3.317888	2.414356	-0.131330	4.032491	-0.665399	0.431871	0.537616	-0.110288	-0.715746
50742	-9.775882	8.930592	3.286897	1.968060	0.643760	3.671889	0.415713	0.538118	-0.114350	-0.724249
50743	-9.025372	10.881819	3.024398	3.118465	-1.285743	4.245638	0.405761	0.536365	-0.115173	-0.731031
50744	-9.315585	11.344655	2.536665	3.843947	-1.455363	4.505763	0.397707	0.536072	-0.114252	-0.735801
50745	-8.421607	11.255042	2.241846	3.993496	-2.142805	3.681135	0.390645	0.536216	-0.114154	-0.739485
50746	-7.046424	10.421219	1.548579	4.018456	-2.509548	1.943328	0.384346	0.539335	-0.117262	-0.740031
50747	-6.634680	10.498163	2.334428	3.152416	-3.116245	2.020670	0.380997	0.544836	-0.119578	-0.737358
50748	-7.157148	9.799216	3.733682	1.514406	-2.643973	2.512276	0.383157	0.549832	-0.118244	-0.732731
50749	-7.556118	6.684061	4.459172	-0.470586	-0.443344	1.198115	0.390426	0.551500	-0.112271	-0.728567
50750	-7.758254	3.821077	4.469519	-1.702997	1.590520	-0.360828	0.397343	0.550877	-0.106004	-0.726235
50751	-7.083682	3.335099	4.403435	-1.891503	1.435573	-1.149378	0.401447	0.549789	-0.101983	-0.725377
50752	-6.737216	4.252589	4.242904	-1.323586	0.612703	-0.904858	0.403096	0.549233	-0.099020	-0.725295
50753	-6.829519	5.025165	4.059078	-0.769061	0.196053	-0.445685	0.403442	0.548954	-0.096796	-0.725614
50754	-6.666676	5.462986	3.547080	-0.106969	-0.074450	-0.493163	0.402741	0.549009	-0.095970	-0.726071
50755	-6.792257	6.463474	3.416229	0.483591	-0.621358	0.135272	0.401693	0.549496	-0.096813	-0.726171
50756	-6.499498	7.632365	3.601448	0.833415	-1.649550	0.677846	0.401764	0.549721	-0.097399	-0.725883
50757	-6.438760	8.980288	4.260205	0.874534	-2.762008	1.670300	0.403473	0.549618	-0.097302	-0.725025
50758	-6.061316	9.969706	4.764217	0.902294	-3.786016	2.174130	0.407486	0.548324	-0.096033	-0.723929
50759	-6.321526	11.426720	5.262319	1.253901	-4.631149	3.423705	0.412860	0.545772	-0.095125	-0.722932
50760	-6.358869	12.711098	4.822551	2.362591	-5.145333	4.087081	0.418661	0.541305	-0.097423	-0.722648
50761	-5.582247	14.212215	4.030770	3.832511	-6.157181	4.215437	0.423981	0.534424	-0.104216	-0.723720
50762	-4.886344	16.576729	2.552386	6.272544	-7.362990	4.734031	0.428320	0.526108	-0.116338	-0.725409
50763	-3.889776	20.468195	1.689709	8.926693	-9.778036	6.361517	0.436917	0.513769	-0.127940	-0.727170
50764	-3.814017	19.527529	-0.796282	10.884496	-7.996934	4.816866	0.453113	0.498288	-0.134430	-0.726860
50765	-4.540735	17.584003	-1.524726	10.960852	-5.377389	3.715578	0.473601	0.484013	-0.138867	-0.722599
50766	-5.900440	15.394750	-1.414197	10.064548	-2.342418	3.109150	0.494299	0.473466	-0.144401	-0.714595
50767	-6.636907	15.354211	-0.334826	9.285368	-1.178935	4.052772	0.513921	0.467144	-0.150496	-0.703572
50768	-9.100695	16.641700	1.400948	8.682239	0.809014	7.087544	0.536484	0.460041	-0.153613	-0.690616
50769	-10.338850	15.355736	1.756447	7.655084	3.245647	6.817475	0.561784	0.449724	-0.151230	-0.677699
50770	-10.476125	13.453487	1.812707	6.470569	4.846687	5.307287	0.587673	0.438728	-0.144255	-0.664341
50771	-11.332943	12.379736	2.345247	5.225063	6.468317	4.952497	0.612292	0.431195	-0.136417	-0.648506
50772	-11.980576	12.102978	3.198830	4.067055	7.438028	5.298281	0.637262	0.426037	-0.128136	-0.629262
50773	-13.481618	12.123361	4.210408	2.628899	8.976670	6.277966	0.663650	0.422289	-0.119529	-0.605767
50774	-15.136762	11.417326	5.275512	0.318206	10.631056	6.743351	0.692897	0.416018	-0.112288	-0.578113
50775	-15.551887	9.192806	5.691028	-2.508706	11.353071	5.135843	0.723572	0.406097	-0.109919	-0.547217
50776	-14.642306	6.593560	6.008297	-5.115505	10.596692	2.653285	0.754284	0.393245	-0.112586	-0.513554
50777	-13.523537	4.118701	5.608008	-6.988709	9.579968	-0.295493	0.782690	0.380707	-0.119256	-0.477741
50778	-12.565790	2.626149	5.588388	-8.312181	8.328543	-2.231719	0.807382	0.370522	-0.129635	-0.440503
50779	-10.710448	1.571541	5.161814	-8.394951	6.452829	-4.188642	0.828867	0.362563	-0.144286	-0.400885
50780	-9.401725	0.565264	4.704000	-8.484107	4.906114	-5.976909	0.847714	0.356486	-0.161729	-0.357970
50781	-8.731016	0.146501	4.519712	-8.613867	3.846624	-7.053595	0.863692	0.352238	-0.179392	-0.312702
50782	-8.186142	0.472703	4.637884	-8.533088	3.083273	-7.289529	0.877428	0.347671	-0.194235	-0.267426
50783	-7.515538	0.343498	4.629317	-8.346430	2.071372	-7.805165	0.889699	0.341123	-0.207077	-0.221788
50784	-6.874582	-0.944155	4.469594	-8.211356	0.401060	-9.103670	0.900692	0.331883	-0.217776	-0.176584
50785	-7.374630	-2.160943	4.619828	-8.904008	-0.925091	-10.281154	0.909067	0.323590	-0.225256	-0.134704
50786	-8.207857	-2.651736	5.022792	-9.761834	-1.810165	-10.824498	0.914937	0.316322	-0.229848	-0.100000
50787	-8.686452	-3.053894	4.758438	-9.926172	-2.371531	-11.614246	0.918192	0.310603	-0.234894	-0.072619
50788	-7.665150	-4.029717	3.914494	-8.443627	-3.374586	-12.573086	0.918892	0.306975	-0.242428	-0.051308
50789	-6.676629	-4.986810	3.181969	-6.971893	-4.241121	-13.413539	0.916676	0.308655	-0.251544	-0.034096
50790	-4.724704	-5.786606	2.969298	-4.869413	-5.326910	-13.352498	0.912465	0.315225	-0.260055	-0.020293
50791	-3.340905	-8.476927	2.095364	-2.646506	-7.256734	-15.079198	0.906502	0.327451	-0.266356	-0.009187
50792	-2.176619	-10.774284	1.479880	-0.660954	-8.716853	-16.636032	0.895990	0.353208	-0.269156	-0.000925
50793	-1.118211	-12.139130	1.264559	0.915117	-9.290936	-17.746949	0.879286	0.393821	-0.267879	-0.001336
50794	0.505202	-9.132947	0.961709	1.956138	-6.606740	-15.894686	0.852946	0.453003	-0.258976	-0.014242
50795	2.523570	-1.765472	0.655390	2.276227	-2.160822	-10.036275	0.816157	0.521374	-0.245682	-0.041187
50796	8.744733	10.553665	-3.487875	7.373549	3.692013	1.656639	0.765632	0.596191	-0.228990	-0.076986
50797	9.771471	23.681107	-1.881554	5.963107	2.177288	15.047813	0.716168	0.653328	-0.220203	-0.108522
50798	13.305750	25.310314	-7.482510	11.995545	2.119775	17.100972	0.681416	0.685139	-0.216552	-0.139147
50799	16.153232	22.837844	-9.182821	16.149517	-0.369334	14.794970	0.659701	0.702906	-0.212366	-0.160060
50800	15.984102	16.799059	-8.852277	16.825008	-1.527973	8.369564	0.649619	0.713197	-0.201385	-0.169674
50801	11.496146	11.884309	-6.533011	12.461767	-1.158942	2.813818	0.643032	0.724017	-0.182982	-0.169784
50802	6.102716	10.125153	-4.242389	6.933933	-0.414867	0.651768	0.636263	0.735864	-0.162270	-0.165353
50803	1.840098	9.826389	-3.364461	2.866149	0.610088	0.320026	0.628544	0.747928	-0.141260	-0.159942
50804	-1.570301	9.597736	-4.039757	0.101534	2.348796	0.451923	0.618439	0.761238	-0.119369	-0.154271
50805	-5.838125	12.616977	-2.926395	-4.248076	1.671290	3.638834	0.602950	0.777449	-0.101212	-0.147583
50806	-6.381548	12.453507	-3.285950	-4.591048	1.562293	3.717593	0.592753	0.787128	-0.087465	-0.146368
50807	-5.237454	9.059022	-3.860013	-3.346321	2.281777	0.578664	0.582925	0.795547	-0.075644	-0.146902
50808	-5.753728	6.290595	-5.488570	-3.428502	4.377940	-1.335724	0.563995	0.809893	-0.067146	-0.146543
50809	-6.610790	7.326859	-4.274150	-4.601998	2.586616	-0.445448	0.531929	0.830989	-0.067671	-0.148088
50810	-6.248903	7.942259	-6.155293	-3.691071	3.082243	0.995907	0.491607	0.853714	-0.076461	-0.153782
50811	-4.560248	8.723939	-8.032505	-1.490496	2.762578	2.494448	0.446613	0.874932	-0.091527	-0.163261
50812	-2.007809	7.670215	-10.722061	1.855141	3.436781	2.931898	0.400409	0.894065	-0.105463	-0.170875
50813	-1.661015	8.656259	-10.157725	1.785184	0.982189	3.475167	0.353712	0.911869	-0.114504	-0.173987
50814	-1.801765	10.528040	-8.505979	0.641645	-2.488171	3.594292	0.317715	0.923833	-0.119414	-0.177003
50815	-2.046843	10.079319	-9.135344	0.582486	-2.560998	3.689064	0.292766	0.930805	-0.122711	-0.181198
50816	-0.466744	11.185589	-10.406438	2.330681	-3.986957	4.756793	0.273592	0.934902	-0.126871	-0.187111
50817	2.659749	16.049850	-13.787897	5.665620	-8.263009	9.010414	0.250095	0.940971	-0.131584	-0.186312
50818	2.015778	21.365433	-10.659362	2.419942	-14.743677	8.916902	0.225622	0.948472	-0.135907	-0.176136
50819	-0.015914	11.090315	-9.145105	1.364078	-6.220253	3.074057	0.220692	0.950064	-0.141859	-0.168968
50820	0.812996	2.573117	-10.103257	3.946366	1.135686	-0.195456	0.215916	0.951778	-0.145543	-0.162225
50821	2.817189	0.053888	-11.535746	6.633892	3.057220	-0.450500	0.209059	0.954953	-0.145494	-0.152286
50822	2.128334	-0.346055	-12.403670	6.118146	3.838819	0.498339	0.198780	0.959830	-0.140668	-0.139378
50823	2.837785	2.415205	-12.914536	5.948253	1.175786	2.182437	0.184339	0.966329	-0.131185	-0.122545
50824	2.739785	5.272578	-12.587774	4.734127	-1.665903	3.170103	0.172518	0.971822	-0.121641	-0.104894
50825	4.247974	6.041321	-12.783449	5.641961	-2.827787	3.533266	0.164934	0.976212	-0.111619	-0.085719
50826	5.072069	4.389336	-13.636560	6.458857	-1.229612	3.887403	0.160739	0.979589	-0.101836	-0.064795
50827	6.480018	2.967861	-14.523332	7.617197	0.090239	4.457706	0.151388	0.983556	-0.090320	-0.039272
50828	6.387871	6.087734	-12.970216	6.168488	-3.323102	4.221325	0.138505	0.987172	-0.078710	-0.010579
50829	7.653296	5.429316	-13.593243	6.821625	-2.775276	4.970102	0.130681	0.988892	-0.068171	0.019184
50830	7.911637	4.333380	-14.053619	6.380694	-1.605364	5.533478	0.123101	0.989404	-0.056960	0.051790
50831	8.857588	3.728453	-15.289625	6.284426	-0.793207	7.095914	0.115247	0.988589	-0.046665	0.085044
50832	10.730840	2.605063	-16.014633	7.000818	0.352995	8.329409	0.108432	0.986326	-0.037247	0.118393
50833	12.623097	1.845486	-17.849371	7.200866	1.440748	10.857235	0.102394	0.982741	-0.028630	0.151381
50834	14.915259	0.201952	-19.919767	7.399311	3.525957	13.679385	0.099514	0.977519	-0.019652	0.184844
50835	16.803536	1.568608	-21.466181	6.757198	2.767542	16.493008	0.099338	0.970655	-0.007485	0.218872
50836	19.578955	4.672238	-23.445419	6.380956	0.851181	20.403654	0.110107	0.961992	0.003137	0.249877
50837	24.424105	9.182255	-25.642526	7.210236	-1.331965	26.017551	0.135751	0.949799	0.008950	0.281733
50838	22.947316	9.982836	-25.501753	3.425266	0.169237	25.732577	0.178880	0.931558	0.004790	0.316510
50839	23.130780	9.206544	-20.289964	3.882125	2.287447	21.961576	0.238785	0.903706	-0.016521	0.354999
50840	16.086408	4.074756	-14.163115	1.182513	6.222700	11.040693	0.322009	0.858928	-0.058294	0.393897
50841	6.429503	-1.141565	-9.068157	-0.903364	8.083247	-2.178819	0.428037	0.794186	-0.110017	0.417073
50842	-6.410498	-10.944119	-8.005559	-1.110512	10.663419	-20.203435	0.563064	0.698717	-0.171161	0.406764
50843	-30.447683	-34.458088	-20.900678	0.450030	17.827497	-56.907136	0.700611	0.590104	-0.230460	0.328344
50844	-47.680217	-41.880767	-26.271964	-5.979490	8.992552	-77.586591	0.783510	0.525924	-0.235584	0.232414
50845	-61.268399	18.624820	-6.844476	-60.378282	5.128348	-31.421953	0.798820	0.544168	-0.173340	0.189001
50846	-43.904892	96.062679	23.163337	-84.576031	18.914416	54.293541	0.892918	0.392359	-0.135193	0.174569
50847	-47.411125	17.594784	17.816590	-52.815714	-6.289559	-4.081788	0.968389	0.142840	-0.152764	0.135953
50848	-4.071723	-65.710216	-24.430609	22.481102	-56.757473	-44.330960	0.965585	0.064385	-0.230783	0.101191
50849	24.334407	-16.609028	-33.909511	38.904020	-0.283467	-32.005120	0.947075	0.207733	-0.201768	0.138515
50850	-12.334531	31.447817	31.058853	-30.772298	8.427386	23.120411	0.937969	0.264310	-0.167314	0.149534
50851	7.922320	-9.642090	-13.864659	14.283927	-0.303820	-21.759218	0.956565	0.170018	-0.199747	0.127196
50852	3.085783	-2.118437	-0.775365	3.662687	-1.089723	-9.883191	0.963224	0.167773	-0.172939	0.118928
50853	-4.299666	7.988129	17.716861	-11.208150	0.395024	6.629099	0.968477	0.144916	-0.166939	0.114816
50854	-2.305074	-0.279059	9.397979	-4.657033	-3.737336	-2.193167	0.969114	0.144024	-0.163199	0.115935
50855	0.471783	5.339935	11.531333	-4.167948	1.315611	2.129090	0.969762	0.142057	-0.160706	0.116423
50856	0.633003	-0.135005	9.037588	-1.818371	-2.859327	-1.409501	0.970975	0.135837	-0.159588	0.115269
50857	-0.294319	1.702233	9.850736	-3.394126	-1.461297	-0.519413	0.971957	0.131586	-0.159416	0.112125
50858	-0.150979	2.961852	7.714014	-3.018740	0.464120	-2.133308	0.972575	0.128556	-0.160400	0.108822
50859	0.062523	3.262845	7.654756	-2.885464	0.853745	-2.054439	0.973056	0.126253	-0.160797	0.106617
50860	-0.388383	3.336624	8.636907	-3.587205	0.582736	-1.287875	0.973172	0.126879	-0.160152	0.105777
50861	-0.464603	4.394342	10.277764	-4.369437	1.083418	0.429029	0.973079	0.127317	-0.160320	0.105851
50862	-0.581235	4.510821	11.848141	-4.971612	0.737572	1.840736	0.972994	0.125230	-0.162764	0.105398
50863	0.108010	2.942913	10.988288	-3.788648	-0.321272	0.909070	0.972608	0.121880	-0.168059	0.104567
50864	1.012223	2.958255	10.860363	-3.027312	-0.085467	1.075406	0.971940	0.121285	-0.172471	0.104291
50865	0.322140	4.431758	12.487470	-4.611846	0.718837	2.592728	0.971048	0.122647	-0.176104	0.104931
50866	-0.320103	4.735492	12.878042	-5.507267	0.756606	2.735905	0.969989	0.122710	-0.180968	0.106364
50867	-1.443625	4.270403	12.128046	-6.308371	0.280542	1.480351	0.968204	0.125835	-0.186487	0.109401
50868	-1.593567	2.940152	10.570102	-5.699821	-0.671937	-0.327510	0.966075	0.131261	-0.191406	0.113287
50869	-0.498058	2.303762	9.223690	-4.149478	-0.837707	-1.285735	0.963920	0.139937	-0.193708	0.117277
50870	1.977184	4.164159	11.243737	-3.122606	0.509994	1.920121	0.962953	0.145259	-0.192317	0.120977
50871	4.068386	6.210902	14.724241	-2.926319	1.591891	6.337599	0.963521	0.142942	-0.188711	0.124835
50872	4.828922	7.700552	18.394943	-3.784298	2.192665	10.233285	0.965283	0.131230	-0.184632	0.130071
50873	2.701286	5.837626	19.661128	-5.519903	0.156102	10.122615	0.966387	0.117598	-0.183222	0.136736
50874	1.534269	3.892973	19.232534	-5.968347	-1.399500	8.890514	0.965259	0.109566	-0.187816	0.144899
50875	1.347736	-0.139513	16.190807	-4.096615	-4.254644	5.322946	0.962141	0.108154	-0.197242	0.153897
50876	2.842325	-2.298498	12.101761	-0.869992	-4.891638	1.811432	0.957235	0.119233	-0.207658	0.162364
50877	4.159189	0.976120	10.991570	-0.660768	-1.571792	1.855257	0.951826	0.138249	-0.215152	0.169184
50878	3.680314	4.655160	10.590458	-2.469021	1.312201	1.999911	0.946795	0.155055	-0.221521	0.174544
50879	3.518294	6.714430	9.782877	-3.319935	3.045788	1.713714	0.942463	0.164830	-0.229160	0.179111
50880	3.888891	7.531578	8.882542	-3.244080	4.046027	1.316010	0.939237	0.166109	-0.237389	0.184087
50881	3.323409	6.402275	8.045589	-3.123927	3.248759	0.008114	0.937377	0.160764	-0.244236	0.189285
50882	2.324421	5.550590	8.047409	-3.734104	2.334260	-0.780748	0.936369	0.151599	-0.249601	0.194757
50883	1.603443	4.213424	7.821033	-3.789247	1.193666	-1.706901	0.934950	0.139968	-0.256641	0.201028
50884	1.593215	2.953675	7.237092	-3.167602	0.453347	-2.505616	0.932416	0.128024	-0.266237	0.208153
50885	1.661942	3.032317	6.992149	-3.257141	0.783755	-2.768846	0.929188	0.113490	-0.278733	0.214564
50886	1.352726	2.812595	6.774425	-3.527981	0.761167	-3.286182	0.926028	0.093028	-0.293259	0.218670
50887	0.718309	1.127016	5.883976	-3.011730	-0.432635	-4.603215	0.922683	0.067362	-0.309356	0.220039
50888	0.005586	-1.230473	4.777705	-2.089755	-2.276883	-5.967930	0.918365	0.041029	-0.326843	0.219308
50889	-0.081999	-2.285478	3.721838	-1.290443	-2.866813	-6.780501	0.913048	0.019309	-0.344877	0.216865
50890	0.105063	-1.476657	3.104683	-1.297056	-1.847365	-7.217926	0.906456	0.000380	-0.364475	0.213295
50891	0.763966	-1.511031	2.303696	-0.484762	-1.416337	-7.377380	0.899748	-0.019450	-0.382971	0.208347
50892	-0.368802	-1.837642	2.655965	-1.457246	-2.120972	-7.827089	0.893842	-0.041398	-0.398658	0.201007
50893	-1.122379	-3.220929	2.450294	-1.469167	-3.568518	-8.156983	0.887797	-0.064974	-0.413836	0.190616
50894	-1.476665	-4.660874	1.998561	-1.133940	-4.920578	-8.265205	0.881806	-0.086942	-0.428105	0.177720
50895	-0.820390	-6.272194	0.934864	0.187485	-6.096562	-7.895733	0.876041	-0.105179	-0.442259	0.160923
50896	1.026079	-6.279661	0.128914	1.545607	-5.468458	-6.949001	0.872677	-0.116512	-0.453369	0.138984
50897	2.119713	-4.510630	0.377941	1.401564	-3.509430	-6.542339	0.872429	-0.125134	-0.458917	0.112268
50898	2.215736	-2.998498	1.853877	-0.105312	-1.962204	-6.142066	0.874207	-0.136828	-0.459062	0.079390
50899	1.629953	-3.393170	2.655896	-1.280544	-2.349767	-6.063191	0.877074	-0.150957	-0.454381	0.038612
50900	0.155478	-3.966496	3.552050	-3.154183	-2.840855	-6.596668	0.879974	-0.164808	-0.445394	-0.010376
50901	-1.577170	-2.161881	6.015856	-5.990960	-0.200752	-7.094378	0.881194	-0.177400	-0.433139	-0.066468
50902	-2.748660	-3.273989	6.037089	-7.067018	-0.565788	-7.714220	0.878699	-0.189338	-0.419236	-0.127594
50903	-1.526916	-3.069060	6.901001	-6.814754	0.650294	-6.281196	0.873618	-0.194578	-0.402933	-0.191247
50904	-2.334543	-3.069596	7.933409	-7.792447	2.005993	-6.205165	0.865465	-0.191795	-0.384790	-0.257141
50905	-7.150480	-0.644136	10.267448	-9.916894	7.518464	-8.427210	0.852675	-0.180097	-0.368821	-0.323236
50906	-9.756489	2.300083	10.518282	-8.273093	11.933028	-9.892407	0.831872	-0.167205	-0.360227	-0.387644
50907	-6.137002	3.326525	9.365163	-4.075055	10.700796	-7.534886	0.805635	-0.153258	-0.355208	-0.448655
50908	-7.127489	1.565203	8.148341	-4.192710	10.035738	-8.718459	0.772740	-0.134044	-0.348176	-0.513496
50909	-10.135789	4.130185	8.108652	-1.071200	13.557851	-9.443015	0.728505	-0.101514	-0.336565	-0.587962
50910	-11.691230	7.540645	8.711613	3.867532	15.722053	-7.293686	0.673066	-0.064942	-0.311950	-0.667422
50911	-11.650531	4.894735	6.968610	4.278679	13.528574	-7.357730	0.609911	-0.026872	-0.270087	-0.744540
50912	-14.721712	2.811063	6.106667	5.538933	14.984991	-7.473144	0.542147	0.026721	-0.223780	-0.809497
50913	-22.640729	8.955114	8.481399	15.302468	18.632055	-0.833671	0.473355	0.089696	-0.185017	-0.856539
50914	-30.058284	21.171858	15.078890	27.053147	16.462663	14.126379	0.422446	0.138940	-0.165805	-0.880195
50915	-26.511733	28.030823	15.875391	28.327952	5.139479	20.342565	0.376453	0.177463	-0.151790	-0.896521
50916	-21.950934	39.328149	20.708523	27.584740	-10.835846	29.860691	0.319148	0.220559	-0.123648	-0.913351
50917	-20.166084	39.315699	21.341402	22.884960	-18.631501	29.336314	0.274259	0.254201	-0.074824	-0.924427
50918	-14.824861	30.822385	21.954847	12.928211	-19.527836	23.381662	0.245328	0.272922	-0.036061	-0.929531
50919	-8.324060	19.361431	21.216961	2.810411	-14.845864	15.992039	0.230303	0.280739	-0.022451	-0.931473
50920	-5.929895	12.381832	20.493892	-1.914694	-10.122683	12.599791	0.217980	0.285250	-0.025802	-0.932980
50921	-5.090467	7.257568	17.288245	-3.030120	-5.564103	8.553737	0.206779	0.283618	-0.030261	-0.935889
50922	-3.797125	3.696559	12.519105	-2.744863	-2.382783	3.286636	0.194108	0.281159	-0.041088	-0.938927
50923	-2.495187	4.957821	11.408911	-2.821410	-3.715676	1.985174	0.181286	0.280520	-0.056191	-0.940897
50924	-2.005442	5.474826	12.490410	-3.813708	-4.091861	2.785427	0.171303	0.281436	-0.064155	-0.941984
50925	-2.646449	4.253808	12.405313	-3.723685	-2.554381	2.780868	0.162918	0.281052	-0.069515	-0.943205
50926	-2.767004	3.374185	12.052921	-3.683615	-1.552011	2.366564	0.157078	0.277857	-0.075600	-0.944673
50927	-2.957983	1.184295	10.245000	-3.026779	0.649118	0.459849	0.151297	0.273414	-0.085431	-0.946074
50928	-2.633538	1.510969	9.264951	-2.624801	0.403007	-0.431906	0.143642	0.269683	-0.099702	-0.946941
50929	-2.986547	3.393099	9.429955	-2.032279	-0.928694	0.402775	0.135781	0.267154	-0.115231	-0.947056
50930	-4.250909	4.836623	10.019215	-1.070778	-1.490784	1.954744	0.129525	0.264050	-0.127902	-0.947176
50931	-6.141846	4.967446	9.864802	0.622779	-0.817732	2.783037	0.124642	0.258697	-0.136791	-0.948066
50932	-7.628925	4.275754	9.177101	2.230314	0.312736	2.662315	0.120541	0.251042	-0.144873	-0.949452
50933	-7.675922	3.741438	8.091037	2.908711	0.755152	1.560380	0.115485	0.242354	-0.156841	-0.950436
50934	-6.593490	6.746648	9.157539	1.979826	-1.837761	3.053872	0.109610	0.235312	-0.170059	-0.950628
50935	-6.450761	8.498201	10.448333	1.526029	-2.905457	4.755286	0.106033	0.229117	-0.176982	-0.951283
50936	-6.304114	7.427347	10.550084	1.375763	-1.838246	4.362515	0.104678	0.221273	-0.178548	-0.952996
50937	-6.571541	7.558483	11.059736	1.633940	-1.686252	4.922072	0.103989	0.210721	-0.179951	-0.955197
50938	-6.369206	6.810086	10.331643	2.038076	-1.288617	3.893472	0.104166	0.196290	-0.177309	-0.958739
50939	-5.045677	5.852787	8.469861	1.880630	-1.402114	1.409599	0.103556	0.181108	-0.174208	-0.962355
50940	-4.430196	4.980827	7.432305	1.918771	-1.137754	-0.081732	0.102702	0.166722	-0.171515	-0.965525
50941	-2.559791	4.606223	6.300079	0.771608	-1.650964	-1.804081	0.100056	0.155826	-0.170821	-0.967743
50942	-1.351897	5.164935	6.491662	-0.244650	-2.415880	-1.765986	0.095738	0.151291	-0.170642	-0.968930
50943	-1.923583	5.488047	6.540314	0.295250	-2.565877	-1.450683	0.089674	0.153066	-0.171894	-0.969011
50944	-3.797151	6.432272	7.836700	1.585839	-2.598474	0.576534	0.080171	0.158590	-0.175553	-0.968299
50945	-3.884185	6.848278	7.643159	1.573858	-2.957146	0.636084	0.071386	0.163119	-0.184869	-0.966499
50946	-5.949106	7.350923	8.750431	2.984073	-2.254109	2.515223	0.069687	0.164867	-0.211277	-0.960898
50947	-7.493537	8.785365	8.079469	4.690842	-2.716934	3.193233	0.073460	0.160259	-0.246447	-0.952987
50948	-8.982979	10.092802	7.968479	6.295909	-2.526346	4.326600	0.078415	0.149691	-0.286716	-0.942994
50949	-10.061970	11.265083	7.727410	7.745541	-2.209662	5.115859	0.086194	0.133083	-0.322548	-0.933179
50950	-11.018001	11.017508	6.839920	9.379668	-1.199260	4.330358	0.100067	0.113521	-0.353128	-0.923255
50951	-13.723639	9.271942	6.174216	12.509312	1.440208	2.585460	0.122152	0.093197	-0.378766	-0.912650
50952	-17.661898	5.891424	5.756240	16.289386	5.762870	-0.815304	0.151175	0.069354	-0.406967	-0.898172
50953	-20.356849	4.430722	6.543958	18.531100	9.346155	-3.056568	0.181869	0.041445	-0.440642	-0.878089
50954	-22.241800	3.711294	7.764898	19.770605	12.508276	-5.246448	0.211838	0.013060	-0.474603	-0.854229
50955	-24.129843	2.597199	7.781313	20.847477	14.616745	-9.013444	0.241078	-0.018867	-0.500685	-0.831168
50956	-23.083366	-0.384007	5.288247	18.725115	13.522145	-15.001436	0.267646	-0.058311	-0.517323	-0.810767
50957	-18.172996	-3.534125	1.103972	13.065502	8.694520	-19.680325	0.287614	-0.100212	-0.527002	-0.793413
50958	-11.494889	-4.293628	-1.825809	6.886570	3.407406	-19.547902	0.301814	-0.137287	-0.530908	-0.779870
50959	-6.439660	-4.739836	-2.905193	2.169961	0.538188	-18.019106	0.313914	-0.170100	-0.528242	-0.770379
50960	-1.276365	-6.882797	-3.110781	-3.607608	-0.831392	-16.516860	0.322941	-0.204811	-0.517274	-0.765630
50961	10.510002	-17.771393	-6.543191	-20.089104	-4.145012	-16.748282	0.316877	-0.239721	-0.500944	-0.768881
50962	28.918932	-26.896660	-13.425099	-40.240493	-10.718428	-12.096308	0.284176	-0.253429	-0.506789	-0.773423
50963	31.230424	-12.363013	-15.133820	-33.023754	-14.793025	-2.976546	0.227867	-0.243193	-0.535678	-0.775876
50964	27.421497	13.207272	-13.140507	-16.679457	-18.106670	12.353933	0.166250	-0.216270	-0.567350	-0.776983
50965	18.643001	25.200213	-4.288613	-5.125425	-11.406766	19.237814	0.121345	-0.205679	-0.573208	-0.783839
50966	17.104930	12.655230	-8.869838	-11.800902	-11.269185	6.466861	0.093638	-0.208530	-0.572810	-0.787169
50967	15.539847	13.767086	-4.820365	-9.830412	-7.079697	7.719963	0.081512	-0.198670	-0.598178	-0.772055
50968	15.817515	21.363992	-1.543299	-7.016377	-4.818424	15.414944	0.080816	-0.187360	-0.620913	-0.756856
50969	10.803583	23.206490	5.587722	-0.909864	1.716204	16.315570	0.093330	-0.167123	-0.624096	-0.757538
50970	3.293605	13.948812	11.226713	3.019565	8.070363	6.221684	0.106317	-0.148180	-0.604525	-0.775428
50971	-1.578101	4.460368	13.505839	4.087996	11.908906	-3.015732	0.113363	-0.133526	-0.584883	-0.791980
50972	-3.015636	3.093506	11.633690	4.637989	10.331682	-4.738928	0.110842	-0.125966	-0.577093	-0.799256
50973	-1.819127	5.299787	6.428297	3.820959	4.600044	-3.733256	0.102413	-0.123064	-0.578513	-0.799806
50974	-1.172278	7.091396	2.170255	3.397381	0.007568	-3.117258	0.094028	-0.121494	-0.584357	-0.796822
50975	-0.595666	7.972913	1.087670	2.935881	-1.217140	-2.396298	0.087172	-0.119539	-0.590044	-0.793700
50976	0.030851	7.125275	1.760037	2.061756	-0.300317	-2.775179	0.080971	-0.116777	-0.590339	-0.794548
50977	0.069167	5.234482	2.593278	1.516161	1.007203	-4.261464	0.074829	-0.114339	-0.588766	-0.796669
50978	0.745498	4.193641	3.354808	0.622989	2.013007	-4.817019	0.068200	-0.113361	-0.587301	-0.798484
50979	1.913828	4.023813	3.792256	-0.527753	2.509413	-4.553488	0.061886	-0.113346	-0.589379	-0.797468
50980	3.281862	7.817463	4.788583	-0.912981	2.484801	-0.442284	0.057149	-0.111100	-0.594052	-0.794665
50981	4.753022	11.446758	4.989351	-1.620569	1.746145	3.334009	0.054071	-0.106333	-0.592550	-0.796652
50982	5.738074	12.878903	5.258205	-2.432382	1.383090	4.972131	0.053347	-0.098328	-0.581614	-0.805736
50983	4.828592	13.315588	5.978904	-1.587179	1.385317	5.415414	0.056766	-0.090061	-0.566412	-0.817217
50984	4.673196	12.467367	5.961256	-1.673815	1.057637	4.639363	0.063281	-0.087087	-0.550638	-0.827773
50985	5.003685	14.170477	6.463535	-1.531067	0.352147	6.470074	0.070562	-0.087917	-0.539091	-0.834669
50986	6.104393	15.306232	5.349029	-2.240004	-1.600804	7.291606	0.077149	-0.091108	-0.528671	-0.840390
50987	8.060299	18.180424	4.436473	-3.324769	-4.222895	9.840746	0.083899	-0.092130	-0.516291	-0.847300
50988	7.948382	17.585750	3.182336	-3.231013	-5.713345	8.611125	0.094300	-0.088091	-0.502548	-0.854864
50989	3.294011	18.271147	3.969267	1.727422	-5.502012	8.274973	0.108695	-0.084277	-0.493379	-0.858871
50990	0.650560	18.045567	5.106922	4.588621	-4.381827	7.847279	0.122144	-0.085645	-0.487042	-0.860544
50991	-0.120718	13.832580	3.974644	4.373457	-3.206746	3.519064	0.130012	-0.089874	-0.490237	-0.857139
50992	1.270756	10.113852	2.116248	2.018898	-2.949272	-0.035548	0.134522	-0.091622	-0.507952	-0.845869
50993	2.016730	10.857590	-0.655244	1.567099	-5.215566	-0.187103	0.137610	-0.084874	-0.544221	-0.823215
50994	2.006504	20.183020	1.564757	4.395091	-5.259494	9.333614	0.141564	-0.073258	-0.580057	-0.798828
50995	0.059130	20.630868	0.987947	6.340530	-4.396983	9.345146	0.149037	-0.068877	-0.594229	-0.787360
50996	-0.176271	14.637176	-0.946612	4.997430	-4.310942	3.287215	0.158946	-0.071644	-0.595816	-0.783969
50997	0.879337	8.201305	-2.950489	2.292948	-4.795113	-2.849746	0.173040	-0.075416	-0.599410	-0.777867
50998	0.848714	4.384321	-3.780555	1.270237	-4.624188	-6.461620	0.189990	-0.073727	-0.614782	-0.761913
50999	-1.167685	5.990555	-3.001414	3.803898	-3.364383	-5.291802	0.204625	-0.060688	-0.644660	-0.734070
51000	-2.484684	11.314263	-1.143852	6.657577	-0.848025	-0.307535	0.214151	-0.044527	-0.676448	-0.703260
51001	-1.065354	14.595632	-0.743540	6.258743	0.293737	3.430130	0.222407	-0.029254	-0.698229	-0.679820
51002	-1.608242	13.168110	-0.697466	6.086251	1.152996	1.937736	0.235706	-0.016674	-0.707938	-0.665574
51003	-2.515462	10.598691	-1.419032	6.255563	0.919874	-0.830520	0.254409	-0.006282	-0.712093	-0.654340
51004	-3.625506	8.810579	-1.093652	6.547419	1.713463	-3.019399	0.275891	0.002981	-0.713020	-0.644576
51005	-3.404501	8.289625	-0.767134	6.084313	2.179058	-3.558080	0.297652	0.011534	-0.711789	-0.636102
51006	-2.865615	8.158987	-0.633389	5.584827	2.334630	-3.605127	0.320203	0.017590	-0.708108	-0.629081
51007	-2.008409	7.775989	-0.383010	4.746829	2.297581	-3.743987	0.344483	0.019139	-0.700637	-0.624558
51008	-1.253639	6.546417	-0.659759	3.999492	1.545904	-4.667786	0.371434	0.016801	-0.688559	-0.622608
51009	-0.224144	5.365196	-0.768504	3.024643	0.732402	-5.370389	0.400514	0.010976	-0.673423	-0.621264
51010	-0.604783	3.689836	-0.909162	2.758454	0.460899	-7.170514	0.430671	0.003344	-0.656300	-0.619501
51011	-0.231612	2.803937	-0.595858	2.012440	0.339535	-7.787026	0.459058	-0.002841	-0.639608	-0.616570
51012	0.673929	2.390134	-0.083542	1.067097	0.147885	-7.573949	0.485994	-0.006319	-0.623334	-0.612556
51013	1.804769	3.031558	0.383047	0.715444	0.000717	-6.337068	0.511740	-0.007828	-0.608769	-0.606185
51014	2.523547	3.415987	1.084247	0.367151	0.176459	-5.448838	0.538329	-0.009921	-0.594603	-0.597118
51015	2.298706	2.042732	1.084034	-0.243598	-0.093637	-6.562827	0.564615	-0.012108	-0.581111	-0.585981
51016	2.493160	1.347330	0.893556	-0.504685	-0.592969	-6.945357	0.588574	-0.010476	-0.569845	-0.573366
51017	3.285219	0.638322	1.961958	-1.805407	-0.724451	-6.456700	0.610536	-0.004509	-0.560993	-0.559028
51018	5.009450	0.804237	-0.698701	-0.091443	-3.560195	-6.133004	0.631080	0.003407	-0.550608	-0.546405
51019	3.208623	0.485519	1.177320	-1.075328	-1.399189	-6.846119	0.650964	0.018203	-0.539585	-0.533632
51020	2.508752	0.055634	0.886653	-0.937080	-1.342544	-7.714800	0.666467	0.037366	-0.530709	-0.522277
51021	1.147913	-0.113504	0.782153	-0.774777	-0.545799	-8.791049	0.676079	0.062205	-0.526173	-0.512045
51022	1.541354	0.890464	0.651053	-0.083538	-0.490168	-7.983757	0.680499	0.091692	-0.525980	-0.501856
51023	1.834098	2.510764	1.188584	0.327560	0.200537	-6.506468	0.682237	0.124621	-0.526365	-0.491897
51024	2.271685	3.956893	2.663334	-0.323378	0.887343	-4.615460	0.683158	0.158511	-0.522389	-0.485056
51025	2.012549	4.239927	4.273368	-1.762724	1.375065	-3.873335	0.684046	0.191743	-0.511630	-0.483270
51026	0.538438	3.727264	6.084760	-3.769649	2.364413	-4.210622	0.683911	0.224216	-0.494655	-0.487144
51027	-1.075694	4.515877	8.315389	-5.646248	3.898764	-3.211634	0.681472	0.258686	-0.473351	-0.494587
51028	-2.448297	8.125370	11.837961	-7.470924	6.056274	1.121413	0.676876	0.286958	-0.446821	-0.509750
51029	-3.820233	9.500666	13.353137	-8.042944	6.919471	3.242218	0.672772	0.299794	-0.413676	-0.535139
51030	-3.584596	8.156923	12.534475	-7.198388	5.508444	2.604392	0.667104	0.303971	-0.378335	-0.565187
51031	-0.664817	6.858963	11.467143	-6.070983	1.645216	1.991712	0.655819	0.314388	-0.347783	-0.591700
51032	3.219901	9.901207	11.660012	-4.140121	-2.867812	4.981812	0.639028	0.340773	-0.327252	-0.606978
51033	2.771827	18.780487	13.029508	-0.960744	-3.759066	12.874764	0.618696	0.379746	-0.312276	-0.612773
51034	1.640543	29.440311	16.799525	0.548995	-5.564090	23.652144	0.606573	0.408460	-0.292832	-0.616019
51035	1.814596	28.897917	16.555199	0.847691	-7.369013	22.702254	0.611400	0.412999	-0.268196	-0.619429
51036	3.650657	21.341539	14.356555	0.264427	-8.542762	14.715654	0.626293	0.401446	-0.243735	-0.622247
51037	3.521858	14.344456	13.835217	-1.956376	-7.623306	8.828999	0.644422	0.386234	-0.223907	-0.620813
51038	1.291618	9.313512	14.305133	-4.677352	-5.095925	5.843759	0.663150	0.370170	-0.207273	-0.616639
51039	-0.947069	5.030428	14.171993	-6.971631	-2.675699	3.273169	0.679935	0.354012	-0.192667	-0.612572
51040	-2.681496	2.070239	13.687198	-8.415317	-0.829623	1.469088	0.693741	0.336280	-0.180793	-0.610699
51041	-3.402583	-1.039745	13.200604	-10.030822	-0.009009	-0.524497	0.704732	0.316459	-0.171987	-0.611250
51042	-4.559893	-4.145488	12.488197	-11.794636	1.297758	-2.524997	0.711567	0.294743	-0.167406	-0.615447
51043	-5.216019	-6.036123	10.843612	-12.118061	2.519192	-4.521125	0.711703	0.270453	-0.168918	-0.625940
51044	-5.722865	-7.961310	7.505945	-11.536922	4.026470	-8.045449	0.704254	0.244013	-0.179339	-0.642123
51045	-6.488195	-9.194287	3.442781	-9.985092	5.805078	-12.057406	0.687909	0.218630	-0.201027	-0.662247
51046	-8.907973	-8.243194	-0.635773	-6.315151	8.874773	-15.193767	0.659313	0.197164	-0.233807	-0.686852
51047	-10.749185	-3.194614	-4.085159	1.079565	10.381794	-15.581935	0.616533	0.175494	-0.270913	-0.718119
51048	-11.585578	3.014529	-9.486054	10.762668	8.570247	-16.411250	0.560558	0.147019	-0.300874	-0.757387
51049	-3.132754	10.311995	-18.305068	18.732778	-5.764005	-17.950794	0.495225	0.121530	-0.301000	-0.805842
51050	-0.379625	12.194833	-19.262870	17.997396	-11.289333	-18.066999	0.438521	0.128557	-0.264159	-0.849348
51051	-14.476750	11.287772	-16.950444	24.014383	0.423158	-16.682501	0.395590	0.169806	-0.232715	-0.872077
51052	-22.379224	23.393535	-9.414669	32.469065	0.288366	-0.786859	0.362399	0.210683	-0.229634	-0.878378
51053	-15.623589	33.631272	-5.822827	30.720830	-11.912495	8.161207	0.343801	0.239826	-0.213903	-0.882344
51054	-13.656320	34.402586	-4.336218	28.524665	-14.739216	9.102644	0.344571	0.269586	-0.167830	-0.883418
51055	-16.363346	26.967247	-3.342246	25.966134	-7.975941	6.566833	0.356955	0.302003	-0.113052	-0.876697
51056	-18.658100	25.431453	-0.512619	24.476798	-5.041009	9.435659	0.376857	0.339426	-0.081688	-0.857960
51057	-16.852632	28.791218	2.605704	22.884001	-8.107301	13.210094	0.406607	0.377223	-0.061874	-0.829786
51058	-17.259721	27.975640	4.042308	20.716841	-6.136723	15.279757	0.445785	0.413734	-0.039953	-0.792782
51059	-19.264723	25.258416	5.942372	16.936801	-1.918061	17.635750	0.493463	0.443694	-0.015890	-0.747915
51060	-20.974394	21.330637	6.676552	12.100506	2.813357	18.196881	0.547479	0.466631	0.006379	-0.694609
51061	-22.478272	17.092675	7.536345	5.844704	6.663908	18.024495	0.603774	0.483034	0.024524	-0.633666
51062	-24.123229	14.476446	9.725091	-0.754691	8.064690	18.817191	0.657508	0.493219	0.038077	-0.568303
51063	-25.622413	13.660729	11.879542	-6.021165	8.041157	19.896113	0.709472	0.491907	0.047473	-0.502417
51064	-25.582404	12.400511	12.648222	-10.031809	7.600273	18.633285	0.760504	0.478537	0.051501	-0.435871
51065	-25.327395	9.453872	14.259625	-14.933112	5.649473	16.240019	0.809036	0.456566	0.051167	-0.366592
51066	-26.587457	5.099400	17.962852	-21.494564	1.487219	14.495639	0.850554	0.429557	0.042633	-0.300370
51067	-24.442914	2.211293	19.501987	-23.016878	-2.619739	11.300019	0.881778	0.401438	0.020788	-0.246745
51068	-20.636665	-0.939397	16.940720	-21.748991	-4.295955	5.088366	0.903309	0.375679	-0.012253	-0.206758
51069	-17.153699	-1.285921	14.998175	-19.258317	-4.518353	1.558329	0.914328	0.360812	-0.052843	-0.176141
51070	-15.616992	2.444634	15.139339	-17.807125	-2.442636	2.665335	0.920763	0.346026	-0.096783	-0.151968
51071	-12.421217	2.200159	13.355349	-15.318788	-2.100525	0.098322	0.927830	0.319790	-0.138838	-0.132627
51072	-11.404078	-0.430428	11.721756	-14.828623	-2.958635	-3.574310	0.934811	0.287235	-0.174676	-0.114508
51073	-12.832080	-3.307299	11.909828	-16.820347	-4.629970	-6.201369	0.939342	0.257106	-0.205666	-0.096099
51074	-15.059205	-1.401014	15.835364	-20.676274	-3.785024	-3.685507	0.941684	0.221892	-0.238918	-0.083142
51075	-13.259381	-4.474413	14.273875	-18.881239	-5.583849	-6.380363	0.942506	0.173370	-0.274491	-0.079245
51076	-11.039034	-7.879510	12.906937	-16.853765	-7.952090	-8.033759	0.940038	0.122907	-0.307625	-0.081172
51077	-10.488955	-10.009714	13.284195	-17.287956	-9.209826	-8.118408	0.934235	0.070636	-0.338703	-0.086577
51078	-8.445330	-15.913022	11.601281	-15.990237	-14.233702	-8.990454	0.923934	0.012849	-0.370992	-0.092441
51079	-9.236302	-23.067901	9.649507	-17.288560	-20.248207	-11.024200	0.908348	-0.034465	-0.403968	-0.102595
51080	-7.415459	-22.026306	7.699371	-15.664285	-18.786849	-10.743934	0.885311	-0.071496	-0.442063	-0.125271
51081	-3.453481	-20.499819	0.817361	-9.167676	-18.553679	-11.875254	0.854825	-0.106848	-0.480740	-0.163546
51082	1.599528	-16.765116	-6.841989	-1.105744	-18.045337	-11.613769	0.823112	-0.132679	-0.508088	-0.216168
51083	0.766459	-10.185349	-8.595124	1.428225	-12.803367	-13.287094	0.796182	-0.141194	-0.518051	-0.278894
51084	-5.850456	-0.175102	-8.746129	4.721860	-2.653673	-18.835225	0.772125	-0.127284	-0.518111	-0.345230
51085	-8.388505	12.501216	-3.476726	9.212503	10.868736	-15.760444	0.756883	-0.081307	-0.510473	-0.399918
51086	-14.232739	34.909505	10.087043	14.223035	35.914899	-4.444941	0.746318	-0.029131	-0.505263	-0.432284
51087	-15.972855	43.616205	14.305172	17.103461	43.423450	3.714084	0.734987	-0.007449	-0.499548	-0.458465
51088	-8.142502	36.936566	8.832838	18.265403	30.567757	5.691259	0.724553	-0.007725	-0.496366	-0.478106
51089	-1.819551	28.195868	5.519703	15.666219	19.089899	4.982476	0.720686	-0.008296	-0.492657	-0.487680
51090	2.397121	21.921274	5.970754	11.485653	12.753395	5.265568	0.723093	-0.014073	-0.485825	-0.490828
51091	5.209638	13.361372	5.970065	5.975851	6.286812	3.072830	0.730312	-0.030038	-0.473284	-0.491674
51092	6.331193	5.256867	5.804303	0.666413	1.299166	0.150355	0.738445	-0.044693	-0.461341	-0.489762
51093	7.829989	2.809910	6.879503	-1.403365	-0.403493	0.882819	0.745255	-0.049721	-0.452710	-0.487008
51094	6.826103	3.708087	9.453908	-2.261742	2.011822	2.042956	0.750777	-0.048919	-0.446125	-0.484679
51095	5.248555	3.581105	10.128871	-2.875673	3.300391	1.313977	0.753199	-0.049714	-0.442157	-0.484476
51096	5.565121	2.578891	8.518773	-2.545440	1.733840	0.222514	0.752714	-0.049567	-0.441849	-0.485524
51097	5.371703	3.928702	7.210636	-0.761748	1.902720	-0.216767	0.751228	-0.045036	-0.443780	-0.486505
51098	5.045095	5.645069	6.225196	1.056555	2.503582	-0.395246	0.750242	-0.041827	-0.444770	-0.487410
51099	5.247411	6.060801	5.329044	1.945323	2.127921	-0.628190	0.751361	-0.041597	-0.444264	-0.486166
51100	5.006257	4.909241	5.517692	0.965214	1.803845	-1.128113	0.754609	-0.045179	-0.441290	-0.483516
51101	5.048835	2.964967	6.250630	-0.879613	1.139622	-1.370018	0.757995	-0.049715	-0.438295	-0.480489
51102	5.429388	1.786510	6.985984	-2.101462	0.637119	-1.057607	0.760406	-0.051822	-0.436544	-0.478044
51103	5.441069	2.096178	7.404672	-2.101568	1.007981	-0.680562	0.761324	-0.050539	-0.437279	-0.476044
51104	6.168056	3.390250	7.324195	-0.965389	1.184781	0.229561	0.761502	-0.050010	-0.438828	-0.474388
51105	6.361928	3.304540	6.025136	-0.200552	0.408675	-0.459133	0.762096	-0.050847	-0.440225	-0.472046
51106	6.207502	2.650621	5.680424	-0.509648	0.040484	-1.005627	0.763127	-0.052748	-0.442367	-0.468152
51107	6.417467	2.285207	5.371957	-0.562110	-0.360944	-1.163032	0.763564	-0.056438	-0.446528	-0.463031
51108	7.324185	1.484452	4.470294	-0.454299	-1.716497	-1.287685	0.762820	-0.061844	-0.452914	-0.457328
51109	8.218862	0.897403	3.936895	-0.452786	-2.726771	-1.082837	0.760897	-0.065910	-0.462296	-0.450527
51110	9.352408	1.987259	4.374637	0.149370	-2.366111	0.430700	0.757953	-0.069562	-0.473360	-0.443395
51111	10.095841	1.675846	4.005031	0.128235	-2.935353	0.776538	0.753944	-0.074374	-0.486619	-0.435017
51112	10.569584	1.615154	3.314107	0.406750	-3.299870	0.875513	0.747946	-0.078297	-0.503589	-0.425258
51113	11.240552	1.845180	2.273497	1.047597	-3.720231	1.139749	0.737593	-0.081664	-0.526169	-0.415252
51114	11.805126	1.334686	-0.089283	1.957574	-5.245148	0.663935	0.722317	-0.080162	-0.555324	-0.404286
51115	11.503045	2.948206	-2.434682	4.102935	-4.984081	0.443801	0.701896	-0.064563	-0.589351	-0.394764
51116	11.981990	8.383700	-2.966266	6.921551	-1.560669	3.307890	0.676576	-0.041904	-0.622901	-0.390491
51117	10.795260	6.687390	-5.728570	7.153593	-3.640377	1.567933	0.646755	-0.018839	-0.651638	-0.395879
51118	7.413611	0.395156	-10.534157	7.668619	-9.006961	-4.700349	0.615421	0.030743	-0.673842	-0.407736
51119	-0.269041	-1.365224	-12.058088	10.247266	-6.258008	-11.531819	0.576402	0.129010	-0.690297	-0.417860
51120	-13.382753	0.485522	-13.838264	17.115637	5.176162	-16.783427	0.520820	0.262723	-0.693629	-0.422613
51121	-26.468822	0.304840	-17.426106	24.173004	19.192534	-16.223073	0.441139	0.421139	-0.679640	-0.407588
51122	-37.040676	7.726971	-18.680881	20.791651	35.054882	0.020215	0.328840	0.580800	-0.646268	-0.369965
51123	-34.543388	19.711983	-17.069973	1.408451	30.987281	19.996828	0.203464	0.709311	-0.588733	-0.329960
51124	-19.489989	26.831735	-11.053442	-16.761296	7.798017	19.684647	0.100775	0.797988	-0.515164	-0.296084
51125	-9.104575	28.290797	-3.390055	-22.911651	-7.725983	7.710466	0.059267	0.853153	-0.441922	-0.270780
51126	-9.059283	28.630839	-2.135191	-23.598820	-11.789197	4.667387	0.067261	0.883890	-0.391092	-0.247509
51127	-15.290445	32.666141	0.662956	-30.078529	-11.622014	6.341753	0.125308	0.890165	-0.367084	-0.239067
51128	-13.409465	29.820824	-3.194836	-23.402686	-10.064266	10.881866	0.216296	0.872847	-0.360416	-0.247899
51129	-6.941598	21.567384	-7.478684	-10.326911	-5.552167	10.920652	0.318165	0.838313	-0.364028	-0.251966
51130	-4.082632	14.150047	-6.723892	-4.190563	-0.610533	5.786994	0.411410	0.799501	-0.369855	-0.233980
51131	-8.652586	14.175316	-1.605864	-9.927684	2.991121	3.245646	0.494512	0.761628	-0.367779	-0.200297
51132	-10.351502	16.147390	2.535083	-14.146202	3.195320	2.981631	0.580162	0.713023	-0.354885	-0.170492
51133	-14.087252	13.064523	6.859152	-18.170354	4.503570	-1.712723	0.661247	0.649771	-0.345738	-0.144965
51134	-13.999584	12.493214	10.103700	-19.652877	3.502332	-2.376480	0.733104	0.568553	-0.349611	-0.130683
51135	-9.602556	4.165671	5.448277	-11.293260	3.290752	-8.917081	0.795834	0.469536	-0.359357	-0.130566
51136	-6.914999	-2.934154	2.526964	-6.353518	0.331418	-14.536379	0.838672	0.376821	-0.369207	-0.135358
51137	-3.568366	-5.449611	1.393321	-3.360542	-2.879300	-14.785929	0.864813	0.298613	-0.376074	-0.146618
51138	-2.303399	-6.744677	0.395092	-2.234258	-4.472958	-14.902170	0.878598	0.239802	-0.379614	-0.162647
51139	0.741872	-4.592722	1.093566	-0.915570	-4.499701	-11.131950	0.883678	0.203270	-0.380048	-0.182644
51140	1.973712	-1.740055	1.851973	-0.434835	-2.820226	-8.326538	0.884428	0.182608	-0.377486	-0.204807
51141	1.377483	2.920685	3.103961	-0.699674	1.238669	-5.565823	0.883234	0.171654	-0.369870	-0.231580
51142	-2.226810	5.793559	5.488282	-3.549586	5.316812	-4.544988	0.880782	0.159796	-0.358468	-0.264933
51143	-2.933670	2.286239	3.466796	-3.319746	3.307654	-7.843795	0.874873	0.146635	-0.348708	-0.302488
51144	0.423369	1.039480	2.224481	-0.843497	0.403648	-7.503297	0.863355	0.145366	-0.342847	-0.340504
51145	5.561678	5.041891	1.015830	4.684918	-0.559996	-3.890001	0.844133	0.159725	-0.338891	-0.383510
51146	8.149252	13.921382	-0.539148	11.753777	1.976364	1.055289	0.815681	0.177222	-0.336093	-0.436233
51147	8.869426	22.398429	-4.538133	20.064141	3.534446	3.789486	0.780870	0.176258	-0.338648	-0.494462
51148	23.127930	27.143998	-13.816469	33.308622	-11.408116	5.056121	0.747469	0.155930	-0.342056	-0.547699
51149	32.665148	25.494255	-16.596363	34.192738	-24.951396	4.315019	0.727575	0.147744	-0.332376	-0.581663
51150	25.173763	25.861478	-4.849764	25.011923	-17.844863	9.728866	0.721955	0.158552	-0.320219	-0.592538
51151	16.713022	19.487528	5.685762	12.651519	-10.388184	10.764460	0.726877	0.160195	-0.310880	-0.591051
51152	11.230589	9.824462	12.428785	0.679899	-6.620904	8.430519	0.733148	0.157158	-0.312137	-0.583409
51153	9.272193	2.689115	13.303326	-5.448828	-6.300306	4.357365	0.735912	0.151689	-0.321961	-0.575990
51154	8.373171	3.724171	12.961652	-4.779661	-4.952391	4.491184	0.733773	0.154417	-0.334422	-0.570871
51155	5.007802	8.326233	12.610274	-1.924997	-0.371863	5.985210	0.731010	0.159847	-0.339929	-0.569669
51156	2.484652	11.456841	12.293068	0.110644	2.845098	6.933792	0.731587	0.161502	-0.337384	-0.569973
51157	2.013849	7.674625	9.898203	-0.900389	1.786538	2.714222	0.737578	0.156998	-0.330359	-0.567621
51158	2.394633	2.997464	7.242356	-2.300837	-0.369289	-1.955233	0.745390	0.155624	-0.325342	-0.560649
51159	3.056912	2.752067	6.215281	-1.636504	-1.239342	-2.647927	0.752173	0.162605	-0.324160	-0.550196
51160	2.920388	5.647245	6.771183	-0.017392	-0.123235	-0.525476	0.758594	0.173300	-0.324199	-0.537956
51161	2.260245	9.193981	8.370509	1.115818	1.868964	2.635787	0.765346	0.179790	-0.322485	-0.527185
51162	1.924150	9.080148	8.361020	0.978161	2.185993	2.447838	0.772966	0.176577	-0.317301	-0.520253
51163	2.181222	7.138698	8.013391	0.123059	1.280568	1.062642	0.780354	0.168158	-0.311262	-0.515641
51164	2.404168	4.654331	7.374586	-0.930021	0.148399	-0.816168	0.786387	0.159767	-0.307518	-0.511373
51165	2.913122	3.116594	6.485106	-1.198085	-0.915259	-2.198070	0.789836	0.156571	-0.309966	-0.505535
51166	3.576168	3.614435	6.137025	-0.473643	-1.234398	-1.953499	0.791150	0.158409	-0.317343	-0.498279
51167	3.609559	4.899976	5.780332	0.498022	-0.633429	-1.458168	0.790697	0.163700	-0.327912	-0.490382
51168	3.347318	7.084229	6.620777	1.082465	0.748337	0.360276	0.790175	0.165878	-0.337571	-0.483894
51169	3.350412	6.915681	6.295297	1.053698	0.769120	0.035094	0.790078	0.163011	-0.344155	-0.480376
51170	3.437959	6.423034	5.953172	0.956848	0.552986	-0.469624	0.789918	0.157890	-0.347937	-0.479626
51171	3.423781	5.633363	5.752089	0.576388	0.253129	-1.086470	0.789550	0.154483	-0.350797	-0.479257
51172	3.140489	5.236797	5.694117	0.233958	0.351219	-1.474161	0.788448	0.155041	-0.355353	-0.477532
51173	3.105339	5.985835	6.125723	0.279028	0.822703	-0.743993	0.786410	0.158189	-0.362287	-0.474641
51174	3.410767	6.621280	5.950879	0.722695	0.894366	-0.348944	0.783571	0.161831	-0.370671	-0.471625
51175	3.496685	7.884931	5.770832	1.452588	1.475886	0.356349	0.780444	0.165886	-0.379272	-0.468554
51176	3.467563	8.310003	5.587293	1.643823	1.742158	0.510007	0.778258	0.168447	-0.386459	-0.465391
51177	3.442821	8.164007	5.629226	1.364650	1.737950	0.449270	0.777471	0.171151	-0.391538	-0.461459
51178	2.981280	8.437733	6.764006	0.403062	2.406544	1.136300	0.778409	0.173493	-0.394167	-0.456741
51179	2.176380	7.888005	7.570645	-0.842161	2.909926	0.915516	0.780235	0.173966	-0.396231	-0.451632
51180	2.212410	7.935160	8.401934	-1.532824	3.031380	1.452925	0.781344	0.173820	-0.399593	-0.446780
51181	2.892759	7.801443	8.518309	-1.587296	2.467401	1.727835	0.781724	0.173581	-0.402933	-0.443196
51182	3.360810	7.718931	8.563151	-1.619478	2.080366	1.902819	0.782014	0.175237	-0.405674	-0.439518
51183	3.115041	7.187829	8.403855	-1.949945	1.992326	1.332738	0.782581	0.178155	-0.408386	-0.434797
51184	2.943872	6.799235	8.748694	-2.604871	1.948719	1.180536	0.783193	0.181196	-0.412543	-0.428469
51185	2.953141	6.623548	9.348440	-3.310842	1.931372	1.380683	0.783778	0.180853	-0.418069	-0.422141
51186	3.189834	5.616804	8.818497	-3.420053	1.247247	0.494322	0.783909	0.176804	-0.424060	-0.417613
51187	3.813830	3.887148	7.831296	-3.349796	-0.186305	-0.883723	0.783232	0.170667	-0.429613	-0.415756
51188	4.109176	2.426390	6.653260	-3.083948	-1.263830	-2.334090	0.780971	0.167495	-0.435629	-0.415039
51189	3.785001	1.934444	5.281255	-2.388467	-1.368102	-3.617367	0.776067	0.169955	-0.443807	-0.414574
51190	4.095980	3.514391	4.950382	-1.435219	-0.711445	-2.666779	0.768507	0.178475	-0.454195	-0.413825
51191	4.318816	6.335913	5.097188	-0.445823	0.732642	-0.645688	0.759938	0.188736	-0.464428	-0.413738
51192	4.053863	9.520855	5.458618	0.322675	2.737990	1.556984	0.752280	0.196550	-0.471608	-0.415969
51193	3.636617	11.531777	5.528454	0.902423	4.123441	2.794939	0.748008	0.198241	-0.472799	-0.421481
51194	2.671521	10.673213	5.057759	0.826944	4.299547	1.477245	0.747743	0.194398	-0.468938	-0.428004
51195	1.644889	8.822502	5.028249	0.013348	4.090857	-0.374126	0.750452	0.187526	-0.463237	-0.432512
51196	1.326257	6.251580	4.784303	-0.855563	2.933845	-2.437798	0.753676	0.179277	-0.458440	-0.435505
51197	1.747071	3.386711	3.736305	-1.152278	0.911873	-4.682154	0.755064	0.173377	-0.456155	-0.437883
51198	2.661850	2.557462	2.925988	-0.663282	-0.390581	-5.165650	0.753814	0.173840	-0.456508	-0.439482
51199	3.728760	4.184275	2.821221	0.422629	-0.408552	-3.565670	0.751480	0.178060	-0.457175	-0.441094
51200	4.848887	5.619315	2.660279	1.462486	-0.637468	-2.091316	0.749996	0.182345	-0.455093	-0.444012
51201	4.978849	6.574607	2.741469	1.927842	-0.324111	-1.344713	0.750611	0.184645	-0.448394	-0.448812
51202	4.785216	6.146857	3.049817	1.536956	-0.473993	-1.603350	0.752866	0.185108	-0.438172	-0.454898
51203	4.897713	5.074153	3.180905	1.042745	-1.235573	-2.247240	0.754924	0.187149	-0.427967	-0.460336
51204	5.117834	4.884245	3.682121	0.683541	-1.607083	-2.031068	0.755868	0.192925	-0.419439	-0.464235
51205	5.625182	5.331150	4.227754	0.632283	-1.950925	-1.226165	0.755005	0.203487	-0.413508	-0.466445
51206	5.931959	7.077612	5.410354	0.632253	-1.527456	0.761505	0.752985	0.216422	-0.409043	-0.467823
51207	5.405210	8.484246	6.231129	0.494724	-0.639566	1.992591	0.750412	0.228796	-0.405401	-0.469238
51208	4.278238	10.106575	7.132916	0.225028	0.865895	3.245602	0.748084	0.238034	-0.402950	-0.470468
51209	3.042964	10.612180	7.178515	0.069948	2.018014	3.200003	0.746275	0.243057	-0.402473	-0.471182
51210	2.329462	8.840772	6.072074	-0.137246	1.793893	1.014044	0.744023	0.246207	-0.404516	-0.471358
51211	2.497457	6.752721	4.301247	0.243521	0.672081	-1.456597	0.739653	0.253116	-0.408853	-0.470835
51212	2.917443	4.866733	1.810102	1.381864	-0.603212	-4.051099	0.732255	0.269805	-0.414760	-0.467956
51213	2.664636	6.293679	1.709658	1.807701	0.063522	-3.004689	0.721551	0.297562	-0.420937	-0.462204
51214	1.922732	8.101008	2.639964	1.171857	1.145547	-1.234735	0.710108	0.328014	-0.425505	-0.455082
51215	1.053908	7.747152	3.078548	0.024505	1.465772	-1.540099	0.698933	0.355839	-0.429425	-0.447734
51216	1.052675	8.850238	3.652715	-0.591721	1.450736	-0.310311	0.686501	0.381850	-0.434045	-0.441035
51217	1.534315	9.866306	3.434428	-0.421970	1.010139	0.688402	0.674818	0.402996	-0.436861	-0.437455
51218	2.203935	10.103437	2.789883	0.063122	0.225102	0.894772	0.664666	0.421097	-0.437515	-0.435289
51219	2.457292	9.519483	2.264426	0.249177	-0.383253	0.265301	0.655872	0.438572	-0.435693	-0.433194
51220	1.434619	9.579982	2.660175	-0.589528	0.210815	0.212616	0.647327	0.455953	-0.432913	-0.430883
51221	0.958333	10.627326	3.870079	-1.933895	0.297786	1.367394	0.638682	0.471101	-0.431937	-0.428461
51222	0.716089	8.714648	3.694561	-2.287031	-0.026503	-0.600115	0.630461	0.480954	-0.433815	-0.427793
51223	1.166945	6.079560	2.608989	-1.605905	-0.781401	-3.336922	0.617944	0.491919	-0.440206	-0.427059
51224	1.085137	6.053270	2.458709	-1.721380	-0.804650	-3.468792	0.599852	0.507011	-0.450106	-0.424879
51225	-0.080190	6.425334	2.004199	-1.851548	0.312048	-3.349696	0.576635	0.523475	-0.463150	-0.423035
51226	-1.075966	7.579378	0.995847	-1.459898	1.408463	-2.365295	0.548265	0.539856	-0.478684	-0.422875
51227	0.512734	8.677626	-0.545528	-0.175706	-0.057482	-1.106563	0.517359	0.555054	-0.494864	-0.423515
51228	1.943370	7.803080	-2.842828	1.876148	-1.451267	-1.622135	0.486280	0.571771	-0.509091	-0.421232
51229	1.868402	7.259929	-3.858863	2.373019	-1.587218	-1.882104	0.452234	0.593898	-0.522052	-0.412591
51230	0.580245	8.460957	-3.750011	1.072729	-0.752181	-0.636749	0.413359	0.618757	-0.536307	-0.398308
51231	0.250596	10.562567	-3.474021	-0.870465	-1.046507	1.221106	0.372229	0.639215	-0.551761	-0.385239
51232	0.579496	8.857314	-5.751732	0.981574	-1.512161	0.605167	0.328938	0.653441	-0.568502	-0.376325
51233	3.324421	7.005937	-9.707288	4.505580	-4.520131	0.840372	0.280487	0.667436	-0.585372	-0.364960
51234	3.937787	7.070226	-12.194212	5.213633	-5.931564	2.499968	0.228726	0.685300	-0.598950	-0.345409
51235	4.426836	8.021429	-14.600073	4.687970	-7.521224	4.958929	0.174259	0.703643	-0.610685	-0.318724
51236	7.144563	16.238754	-14.293150	-3.726623	-12.326830	8.966208	0.125248	0.724619	-0.615982	-0.282501
51237	6.048289	20.319633	-12.911032	-9.999355	-12.220600	9.331869	0.095128	0.735765	-0.620815	-0.253356
51238	7.728705	16.252830	-16.802182	-5.909312	-13.622825	9.822686	0.077488	0.739447	-0.627906	-0.230102
51239	10.630439	8.367719	-21.163685	2.014282	-15.377354	9.941625	0.064238	0.738963	-0.638467	-0.205346
51240	11.468366	3.313113	-23.537385	6.100064	-15.323757	10.782235	0.046382	0.744500	-0.644499	-0.167900
51241	13.378029	5.637113	-24.413705	2.572810	-17.141983	12.680467	0.029730	0.750952	-0.647377	-0.126849
51242	14.722901	7.763441	-24.782355	-0.878567	-18.032930	13.956133	0.023668	0.757619	-0.646358	-0.087606
51243	16.214290	11.454648	-23.539852	-5.309852	-18.915428	13.894919	0.036593	0.764530	-0.640919	-0.058124
51244	18.484292	15.001160	-23.833805	-7.830889	-20.286031	15.901828	0.077245	0.768230	-0.633759	-0.046964
51245	20.587991	18.758063	-27.576745	-8.202656	-20.387133	22.606689	0.144267	0.763918	-0.626908	-0.051023
51246	22.357516	22.140560	-30.963520	-6.042342	-17.910870	30.012841	0.236492	0.741762	-0.624439	-0.062734
51247	17.255083	21.367723	-30.982629	-0.541552	-6.790230	30.931996	0.348791	0.692021	-0.626709	-0.081782
51248	11.667722	10.148912	-28.898751	12.601833	2.778188	20.238044	0.459234	0.612866	-0.634213	-0.106180
51249	6.986536	0.158306	-21.883862	18.028645	3.446182	3.935970	0.551399	0.518187	-0.638930	-0.138600
51250	2.971211	-5.942614	-15.440704	16.724679	0.144210	-8.555721	0.619419	0.425083	-0.631232	-0.192796
51251	-2.211223	-7.628588	-11.422355	12.176453	-0.470872	-16.437572	0.670896	0.330459	-0.605490	-0.272171
51252	-31.947946	-34.536351	-17.347066	10.079264	3.822903	-58.700645	0.698312	0.241403	-0.560490	-0.374080
51253	-62.951686	-31.779092	-23.707516	10.627486	32.423492	-75.879138	0.664808	0.258727	-0.550690	-0.433395
51254	-47.997793	78.773564	22.599461	-1.585416	79.780667	41.569330	0.649396	0.306396	-0.522349	-0.459953
51255	-47.212505	106.916663	28.504977	21.569979	86.948584	69.416868	0.758000	0.171322	-0.338762	-0.530401
51256	-66.205890	-48.623617	0.325281	-54.346627	43.897726	-52.490871	0.773753	-0.056655	-0.202708	-0.597500
51257	9.742479	-80.544660	-61.602587	-50.041867	-54.185261	-79.846204	0.732588	-0.017855	-0.328059	-0.596132
51258	10.771220	51.930488	-12.154040	48.609670	4.741530	13.506312	0.723122	0.136027	-0.416701	-0.533808
51259	-7.879132	12.693127	1.301853	7.820095	12.064479	-5.679846	0.739562	0.022341	-0.356357	-0.570577
51260	9.396469	-37.184851	-27.776770	-14.167810	-30.907027	-42.774708	0.745813	0.030585	-0.341377	-0.571218
51261	-7.344604	11.357536	20.015882	-3.056551	16.745154	7.324227	0.747307	0.058658	-0.342569	-0.566337
51262	1.118964	1.072216	4.211556	-1.391754	0.632230	-5.593678	0.746835	0.044824	-0.331674	-0.574649
51263	2.155812	7.400827	5.112280	3.451669	2.122525	-1.498008	0.746882	0.054052	-0.333882	-0.572511
51264	2.705886	5.944828	7.071021	1.191700	1.659408	-0.405895	0.751680	0.055441	-0.328109	-0.569428
51265	1.821659	-0.466267	13.455185	-7.617408	1.925969	1.270504	0.757239	0.053507	-0.319215	-0.567299
51266	2.704903	-3.294792	11.761717	-8.774512	-0.412914	-0.904975	0.758074	0.055262	-0.319528	-0.565837
51267	3.322146	-1.886568	8.442098	-5.737382	-1.399690	-2.672181	0.756752	0.060646	-0.323327	-0.564896
51268	4.623311	2.947656	8.064703	-1.531687	-1.031798	-0.237290	0.755952	0.072515	-0.326106	-0.562968
51269	4.464555	6.509177	11.464968	-0.768171	1.095175	4.042143	0.757743	0.076381	-0.322783	-0.561963
51270	5.099123	4.012112	11.590604	-2.624276	-0.409841	3.202013	0.760297	0.072580	-0.317232	-0.562178
51271	6.637268	1.013382	10.754047	-4.089658	-3.055047	1.791899	0.762188	0.065336	-0.310381	-0.564327
51272	4.556469	-0.194649	10.275327	-4.998756	-1.712042	0.110088	0.762483	0.062599	-0.304075	-0.567662
51273	2.360412	2.505463	9.496911	-2.676873	1.001024	-0.123914	0.760434	0.064241	-0.302641	-0.570983
51274	1.846718	7.443863	9.815045	1.097570	3.179196	2.180801	0.758125	0.067609	-0.304088	-0.572893
51275	2.062149	7.034683	8.434475	1.522196	2.487554	0.975017	0.757578	0.066660	-0.303869	-0.573843
51276	2.605123	5.907264	9.391555	0.196382	1.852414	1.430689	0.758605	0.064818	-0.302403	-0.573471
51277	2.153578	5.366078	10.473712	-0.820660	2.370907	1.884974	0.759730	0.060268	-0.299659	-0.573918
51278	1.777823	4.678985	9.467673	-0.797478	2.291522	0.618125	0.760371	0.054403	-0.297477	-0.574790
51279	2.299178	5.546172	10.115477	-0.250825	2.323064	1.715947	0.761454	0.052598	-0.297319	-0.573604
51280	1.356105	5.870432	11.630570	-0.890175	3.720932	2.714598	0.762972	0.049670	-0.297114	-0.571953
51281	1.523225	5.159734	10.486394	-0.833234	3.107660	1.525525	0.764371	0.046608	-0.298276	-0.569734
51282	1.082217	4.196999	9.212580	-1.085282	2.916586	-0.118754	0.766424	0.045867	-0.302209	-0.564943
51283	0.975877	4.961655	10.460966	-1.202808	3.700648	1.135315	0.769505	0.045085	-0.306636	-0.558394
51284	-0.179582	3.964390	11.093356	-2.658745	4.634521	0.687852	0.771780	0.041219	-0.311066	-0.553078
51285	0.836095	3.958336	10.544821	-2.229384	3.733363	0.610822	0.772790	0.036883	-0.317202	-0.548469
51286	1.433220	4.502943	9.756872	-1.331270	3.334845	0.416266	0.773650	0.036606	-0.323351	-0.543663
51287	0.042879	4.663104	10.261500	-1.894021	4.835395	0.190987	0.775210	0.037241	-0.329565	-0.537634
51288	-0.024157	5.453536	9.493851	-1.011541	5.075422	-0.164463	0.777095	0.039658	-0.335928	-0.530757
51289	-1.182802	5.390499	9.233427	-1.326975	6.007451	-0.988847	0.780314	0.041707	-0.339473	-0.523573
51290	-1.407768	6.117294	10.630917	-1.800244	6.944626	0.234522	0.782743	0.045037	-0.344594	-0.516275
51291	-0.878883	6.348407	10.732152	-1.772406	6.687671	0.597989	0.784592	0.046458	-0.351346	-0.508736
51292	0.819275	5.132936	10.722100	-2.488253	4.767223	0.820244	0.786378	0.047698	-0.358536	-0.500786
51293	2.142312	3.208890	10.364330	-3.573947	2.658186	0.309725	0.787608	0.052535	-0.364970	-0.493670
51294	4.191741	2.627206	9.178942	-2.958352	0.288480	0.181472	0.786699	0.065486	-0.371755	-0.488482
51295	7.844992	5.129349	7.818063	0.320120	-1.977712	2.226530	0.784008	0.087662	-0.378099	-0.484446
51296	9.549943	10.887242	9.034726	3.423375	-0.560789	6.898988	0.783329	0.115758	-0.379868	-0.478222
51297	4.723371	14.615167	11.651758	2.267458	5.400464	8.554051	0.786426	0.135616	-0.377890	-0.469406
51298	1.141131	12.978014	11.068992	0.320696	7.278762	5.652298	0.791040	0.141270	-0.377558	-0.460162
51299	1.565675	8.251359	6.706689	0.549228	3.956874	0.164963	0.793795	0.140791	-0.382975	-0.450997
51300	3.652649	5.459343	2.887237	2.170057	0.395783	-2.985356	0.794559	0.146001	-0.393628	-0.438654
51301	3.962534	5.954673	1.422566	3.451367	0.404169	-3.401722	0.795351	0.160703	-0.405072	-0.421316
51302	3.233694	6.906801	2.345201	2.723350	1.739087	-2.518190	0.798387	0.178287	-0.412833	-0.400449
51303	1.967757	7.038267	4.345672	0.426501	2.947758	-1.849374	0.805390	0.193838	-0.415115	-0.376103
51304	-0.682622	4.879224	5.447490	-2.711644	3.551650	-3.984009	0.814881	0.202648	-0.416208	-0.348818
51305	-0.463631	1.566406	4.915225	-3.671243	1.078410	-6.322114	0.823279	0.208134	-0.419936	-0.320228
51306	0.949935	-0.029360	3.414848	-2.405827	-1.028863	-7.421683	0.827926	0.217713	-0.426490	-0.291970
51307	3.001649	3.179557	5.796734	-2.572319	-0.448135	-3.037687	0.831303	0.231867	-0.431329	-0.262924
51308	1.346135	3.743628	7.978703	-5.205425	0.566639	-2.596877	0.837965	0.232746	-0.432137	-0.238541
51309	0.845091	0.046773	7.365847	-5.661128	-1.923738	-5.428399	0.846139	0.224111	-0.431829	-0.217592
51310	0.821553	-3.385260	6.783006	-5.681650	-4.569215	-7.580748	0.852762	0.211429	-0.433361	-0.200730
51311	0.960621	-3.970009	6.872178	-5.687573	-5.164228	-7.601094	0.856232	0.202323	-0.436802	-0.187449
51312	0.834895	-2.828113	7.869890	-6.400640	-4.282659	-6.448283	0.857961	0.189374	-0.441966	-0.180848
51313	0.502858	-4.327362	6.435666	-5.659074	-5.031590	-8.066029	0.858157	0.172068	-0.449134	-0.179547
51314	1.334487	-7.695773	3.927394	-3.745461	-7.888557	-10.220980	0.856088	0.155373	-0.458478	-0.181028
51315	3.795058	-10.650385	0.674029	-0.334272	-11.214105	-11.367982	0.851683	0.154580	-0.465571	-0.184348
51316	4.062044	-7.705020	2.869429	-1.605700	-8.980509	-8.881936	0.846693	0.169932	-0.468318	-0.186849
51317	2.220838	-5.721515	4.150636	-3.278495	-6.585146	-8.932114	0.841485	0.188985	-0.468086	-0.192570
51318	0.835044	-4.721114	4.459763	-4.084725	-5.110202	-9.548390	0.833990	0.208348	-0.468420	-0.204046
51319	1.382169	-4.777281	3.040333	-2.645405	-5.181312	-10.164481	0.823575	0.228180	-0.470277	-0.220221
51320	4.480917	-4.518911	1.225819	0.340043	-6.431383	-9.098356	0.810676	0.251851	-0.472055	-0.237780
51321	5.223499	-2.596564	1.217514	0.866649	-5.536179	-7.789413	0.796218	0.282463	-0.470227	-0.255224
51322	5.415831	0.919569	3.461145	-0.614763	-3.970181	-4.714655	0.783391	0.317116	-0.458776	-0.274337
51323	0.682637	3.620039	6.010416	-4.558831	0.060051	-4.437915	0.770929	0.351135	-0.441178	-0.296199
51324	-0.976558	7.282332	8.766374	-7.118923	2.048687	-1.099940	0.757849	0.379190	-0.423405	-0.320325
51325	1.272057	7.537578	6.861203	-4.242239	0.270583	-0.464165	0.743146	0.404334	-0.406041	-0.345513
51326	1.184675	10.697628	6.731715	-3.487903	0.862147	2.359158	0.723072	0.434314	-0.390258	-0.369103
51327	0.594422	15.948987	7.793960	-3.532546	1.526444	7.520955	0.702862	0.461809	-0.370730	-0.394052
51328	-0.118945	17.340276	8.442715	-3.489044	0.861521	9.130171	0.691756	0.473393	-0.341446	-0.425192
51329	-1.997960	14.216579	7.707231	-3.370141	1.101664	6.085325	0.684578	0.479083	-0.306502	-0.455949
51330	-3.584861	11.922678	7.655915	-3.678219	1.382969	4.259731	0.675428	0.482476	-0.272796	-0.486411
51331	-4.485630	10.194505	6.580721	-3.030122	1.737898	2.640250	0.658516	0.491488	-0.248133	-0.513055
51332	-4.463050	10.500243	5.137593	-1.233814	1.477762	2.548150	0.634561	0.504404	-0.229357	-0.538799
51333	-3.340304	13.360935	4.953163	0.923453	-0.752594	4.770251	0.609512	0.517666	-0.206738	-0.563717
51334	-4.119339	12.737951	5.106466	0.867772	-1.135536	4.438883	0.591940	0.523536	-0.170629	-0.588560
51335	-7.328173	9.716881	4.721274	-0.340483	1.544154	3.139924	0.578769	0.524749	-0.127611	-0.611048
51336	-10.770344	8.881678	6.071795	-1.781984	3.158387	4.968032	0.565587	0.523416	-0.093238	-0.630439
51337	-11.877332	7.865116	4.504697	-0.644132	4.317024	4.472958	0.543840	0.526244	-0.071319	-0.649784
51338	-10.057064	13.969037	6.052717	2.690366	-1.344718	8.179769	0.512553	0.536477	-0.058040	-0.667917
51339	-10.123326	18.168278	5.585855	5.751678	-4.562067	10.426246	0.480088	0.551084	-0.040341	-0.681318
51340	-12.460592	23.379081	9.143963	6.008296	-9.189231	15.967412	0.456706	0.561142	-0.019023	-0.690056
51341	-12.256252	19.735896	7.478250	5.564562	-7.687116	12.670332	0.446216	0.560531	0.000091	-0.697636
51342	-9.949098	14.875085	5.551757	4.605387	-5.815925	7.392520	0.437335	0.557632	0.008298	-0.705490
51343	-7.416654	12.348071	4.371672	4.102311	-5.508959	3.581645	0.425153	0.558731	0.007175	-0.712049
51344	-6.485585	10.935483	4.427556	3.055327	-5.439656	2.116960	0.411640	0.563531	0.003412	-0.716222
51345	-6.924203	9.625597	4.721386	1.852778	-4.669514	1.919480	0.398869	0.568693	-0.000753	-0.719369
51346	-6.934417	9.163071	4.514194	1.588554	-4.420249	1.604848	0.388341	0.571937	-0.004521	-0.722537
51347	-7.157272	9.095854	4.405455	1.557965	-4.291360	1.699293	0.383009	0.571854	-0.007295	-0.725420
51348	-7.161803	7.898197	3.901276	1.356740	-3.229049	0.986612	0.383107	0.568153	-0.007623	-0.728267
51349	-7.023506	6.357685	2.980220	1.373512	-1.786499	-0.140422	0.384638	0.564061	-0.007352	-0.730640
51350	-7.076261	5.887906	3.253602	0.963132	-1.499387	-0.213167	0.385878	0.561327	-0.007361	-0.732090
51351	-7.390034	5.184145	3.521288	0.409030	-0.906154	-0.174276	0.385779	0.560254	-0.008644	-0.732950
51352	-7.947744	4.966483	3.969917	-0.046001	-0.588515	0.348230	0.384082	0.559838	-0.012268	-0.734106
51353	-7.889590	4.750092	4.161095	-0.342476	-0.490991	0.275173	0.381672	0.558804	-0.018267	-0.736024
51354	-7.718047	3.750932	3.607128	-0.433723	0.423006	-0.523910	0.377901	0.557476	-0.026708	-0.738714
51355	-7.638638	3.628524	3.351229	-0.298564	0.651481	-0.744528	0.371578	0.556663	-0.037286	-0.742068
51356	-7.529575	4.068711	3.338819	-0.094539	0.350086	-0.633104	0.364258	0.555919	-0.047293	-0.745677
51357	-7.542010	4.820930	3.535681	0.080392	-0.207948	-0.191124	0.357362	0.555186	-0.054940	-0.749028
51358	-7.636923	4.958701	3.536418	0.157583	-0.232341	-0.048532	0.352422	0.553650	-0.058709	-0.752212
51359	-7.818220	4.811870	3.665499	0.035475	-0.056594	0.072145	0.348906	0.551822	-0.059807	-0.755103
51360	-7.813956	4.362287	3.650766	-0.097834	0.260270	-0.151538	0.346674	0.549665	-0.058358	-0.757812
51361	-7.790166	3.902496	3.696427	-0.280803	0.537166	-0.367491	0.344804	0.547873	-0.055305	-0.760189
51362	-7.817013	3.828147	3.951491	-0.465583	0.471378	-0.276709	0.343083	0.546498	-0.050964	-0.762258
51363	-7.922031	4.037994	4.765649	-0.989979	0.050875	0.226811	0.342128	0.545032	-0.045395	-0.764086
51364	-8.550257	3.347675	4.870326	-1.203881	0.815947	0.478921	0.341658	0.542435	-0.039341	-0.766477
51365	-8.943911	3.052797	4.837346	-1.123116	1.183265	0.677747	0.339739	0.538783	-0.033527	-0.770173
51366	-8.895095	2.851576	4.388962	-0.698214	1.355426	0.394659	0.336032	0.534871	-0.028319	-0.774722
51367	-8.805313	3.348601	4.311693	-0.255981	0.840428	0.510221	0.330750	0.530836	-0.023298	-0.779919
51368	-8.080486	3.452745	3.879413	0.159836	0.380490	-0.216225	0.324365	0.527171	-0.017536	-0.785220
51369	-7.764461	3.627046	3.565635	0.563872	0.036075	-0.548015	0.317562	0.524917	-0.011752	-0.789606
51370	-7.508604	3.410415	3.801724	0.283506	-0.131647	-0.737243	0.311523	0.524441	-0.006555	-0.792384
51371	-7.937257	2.397491	3.983350	-0.200611	0.726040	-0.644991	0.306322	0.525098	-0.002860	-0.793997
51372	-8.529388	2.114794	4.275999	-0.404890	1.053207	-0.105320	0.299292	0.526309	-0.001531	-0.795878
51373	-8.504697	2.570243	4.503627	-0.367676	0.497196	0.128908	0.290762	0.527069	-0.000622	-0.798533
51374	-8.531465	2.788869	4.179822	0.049539	0.318590	0.083246	0.281557	0.527066	0.000114	-0.801827
51375	-8.332297	3.414782	4.071756	0.407231	-0.378138	0.054281	0.272279	0.526454	0.000872	-0.805425
51376	-8.072485	3.297653	3.674033	0.669663	-0.388219	-0.382009	0.263878	0.525323	0.002159	-0.808950
51377	-7.771555	2.767888	3.296573	0.727209	-0.055037	-0.958711	0.255378	0.524492	0.002778	-0.812208
51378	-7.608040	3.156770	3.378878	0.789782	-0.576013	-0.963505	0.245676	0.524815	0.001730	-0.814990
51379	-7.501520	3.323949	3.466964	0.742925	-0.876883	-0.979809	0.236526	0.525653	0.000739	-0.817156
51380	-7.839929	3.275383	3.451659	0.833501	-0.784413	-0.713463	0.227923	0.526903	-0.000520	-0.818794
51381	-8.248212	2.980757	3.416209	0.874190	-0.440941	-0.451643	0.219925	0.528238	-0.001619	-0.820119
51382	-8.802585	2.822401	3.534398	0.877449	-0.205885	0.042787	0.211651	0.530274	-0.003163	-0.820977
51383	-9.194753	2.899203	3.771966	0.788750	-0.274362	0.506145	0.203227	0.532654	-0.004851	-0.821556
51384	-8.795655	2.847722	3.685955	0.661263	-0.428433	0.108888	0.194994	0.535221	-0.006468	-0.821872
51385	-8.254151	3.125190	3.491000	0.669957	-0.899470	-0.387925	0.186898	0.538217	-0.008739	-0.821776
51386	-7.666171	3.479371	3.617257	0.376741	-1.498048	-0.780871	0.179544	0.541663	-0.011136	-0.821122
51387	-7.638464	3.610016	3.880188	0.079701	-1.716896	-0.675984	0.173789	0.544877	-0.013374	-0.820199
51388	-7.557775	3.385776	4.024816	-0.207114	-1.580106	-0.743915	0.169853	0.546923	-0.014983	-0.819635
51389	-7.180690	2.481251	3.707875	-0.319434	-0.805647	-1.403405	0.166589	0.548334	-0.016287	-0.819337
51390	-7.124032	1.485552	3.247645	-0.203063	0.175580	-1.848164	0.161396	0.550715	-0.019293	-0.818714
51391	-7.150738	1.542498	3.173058	-0.170658	0.125657	-1.841788	0.153572	0.554539	-0.023714	-0.817521
51392	-7.242579	1.805986	2.842464	0.127369	-0.096283	-1.827123	0.143840	0.560521	-0.027231	-0.815098
51393	-7.132445	2.200168	2.287678	0.545124	-0.524842	-2.042863	0.133589	0.569113	-0.027850	-0.810857
51394	-7.910106	2.342188	2.064544	0.816407	-0.586662	-1.368783	0.123322	0.581747	-0.024978	-0.803578
51395	-9.088990	1.409005	1.049866	1.668050	0.472608	-0.720064	0.112015	0.598480	-0.019536	-0.793027
51396	-11.002711	1.892923	1.438264	1.402370	0.064681	1.354499	0.096396	0.619086	-0.017315	-0.779193
51397	-12.416602	3.501128	2.986030	-0.227099	-1.733163	3.311419	0.080189	0.638983	-0.015299	-0.764877
51398	-12.142113	4.864685	3.437241	-1.223367	-3.483400	3.196530	0.067337	0.656038	-0.010618	-0.751643
51399	-11.859042	4.812207	3.121882	-1.465174	-3.747779	2.730166	0.060462	0.669934	-0.002703	-0.739949
51400	-10.952562	3.511171	2.968263	-1.858830	-2.773635	1.586312	0.058923	0.681003	0.005989	-0.729882
51401	-10.457964	1.986311	2.860063	-2.175132	-1.456469	0.894098	0.059998	0.689792	0.013036	-0.721400
51402	-9.985437	1.655376	2.727443	-2.299335	-1.265209	0.336027	0.060696	0.696830	0.018513	-0.714423
51403	-9.556043	2.246253	2.701101	-2.381818	-1.980513	-0.114185	0.061509	0.702967	0.024683	-0.708127
51404	-9.445793	1.884671	2.316249	-2.176726	-1.690044	-0.297283	0.063778	0.708755	0.031662	-0.701852
51405	-9.153761	2.688528	3.375560	-3.248149	-2.723530	-0.623368	0.067908	0.714692	0.037540	-0.695122
51406	-10.668625	1.485836	7.174621	-7.313992	-2.164041	0.642880	0.082623	0.718031	0.049577	-0.689309
51407	-11.275813	-3.575705	5.564530	-6.763738	2.859555	1.002030	0.103313	0.717297	0.066121	-0.685886
51408	-10.692887	-4.878518	2.657760	-4.354068	4.540814	0.464507	0.117355	0.713830	0.080436	-0.685715
51409	-9.348003	-4.703283	-0.529570	-1.270004	5.033276	-0.711151	0.123222	0.711214	0.092660	-0.685861
51410	-8.934466	-3.317278	-0.741532	-0.693601	3.642213	-1.001871	0.122037	0.710817	0.101063	-0.685297
51411	-9.007891	-1.753712	-0.838885	-0.139154	2.056660	-0.831006	0.114631	0.712208	0.103598	-0.684753
51412	-9.104727	-0.048950	-0.412259	-0.046541	0.183967	-0.700533	0.105333	0.713914	0.102367	-0.684655
51413	-8.883833	0.035568	-0.589569	0.161593	0.062182	-0.910952	0.097769	0.714535	0.100400	-0.685420
51414	-8.884684	0.726764	-0.371533	0.156950	-0.729957	-0.921906	0.092249	0.713971	0.099879	-0.686847
51415	-8.753069	0.481824	-0.635692	0.403133	-0.476833	-1.045588	0.091422	0.711293	0.103733	-0.689161
51416	-8.184022	-0.502939	-1.097209	0.671429	0.569847	-1.587166	0.093441	0.708256	0.109726	-0.691088
51417	-7.912047	-1.698363	-1.393092	0.672160	1.784776	-1.825926	0.096845	0.705695	0.116145	-0.692189
51418	-7.953771	-1.426732	-0.638277	0.043908	1.280737	-1.808744	0.099701	0.703719	0.122556	-0.692690
51419	-8.335696	-1.484262	-0.543231	-0.057143	1.249210	-1.421150	0.102701	0.701774	0.130440	-0.692785
51420	-8.808924	-1.085225	-0.471937	0.011683	0.764031	-0.957565	0.105026	0.699826	0.139150	-0.692712
51421	-8.780768	-0.917803	-0.395646	0.017644	0.510997	-0.990051	0.108693	0.697543	0.148771	-0.692450
51422	-9.220714	-1.649465	0.597689	-1.140281	0.762596	-0.527355	0.113851	0.694389	0.157094	-0.692953
51423	-8.695276	-2.137450	0.466937	-1.162510	1.257684	-1.011483	0.119578	0.690478	0.163895	-0.694319
51424	-8.256225	-2.902927	0.183023	-1.167927	2.068399	-1.387532	0.123948	0.686905	0.170824	-0.695426
51425	-8.015942	-3.797908	-0.108920	-1.237412	2.960056	-1.542408	0.122723	0.685095	0.176268	-0.696070
51426	-9.128143	-2.618895	1.309963	-1.990142	1.143974	-0.505313	0.114137	0.685081	0.177127	-0.697326
51427	-9.399054	-2.908656	1.349005	-2.053789	1.301158	-0.184067	0.103842	0.684621	0.174036	-0.700159
51428	-10.109486	0.040174	2.466722	-1.876607	-1.927542	0.239704	0.092317	0.682782	0.167699	-0.705098
51429	-8.824098	-2.611617	-0.381053	-0.099255	1.658916	-0.753581	0.089691	0.678403	0.168873	-0.709371
51430	-8.465666	-3.442629	-0.380821	-0.306492	2.406629	-0.993559	0.080329	0.678101	0.168539	-0.710859
51431	-10.148135	-3.441041	-0.494076	-0.015474	2.102219	0.706169	0.065001	0.680049	0.166579	-0.711027
51432	-11.712387	-0.609975	0.837532	-0.285564	-1.391290	1.859176	0.046156	0.682892	0.161609	-0.710923
51433	-12.278445	0.690622	1.619488	-0.692135	-3.107163	2.175816	0.028610	0.684613	0.154461	-0.711778
51434	-11.923543	0.179792	1.321773	-0.565796	-2.602646	1.885840	0.015749	0.683781	0.149276	-0.714082
51435	-10.422386	-0.392926	0.537756	0.008306	-1.692513	0.492868	0.001964	0.683687	0.141907	-0.715842
51436	-10.854451	-1.447827	0.215907	0.168727	-0.781999	1.110740	-0.011257	0.684387	0.134648	-0.716490
51437	-11.394516	-1.761205	0.000563	0.374435	-0.649477	1.692696	-0.026566	0.685618	0.125772	-0.716522
51438	-11.469086	-1.590332	-0.284383	0.688609	-0.913491	1.712927	-0.043586	0.686490	0.116046	-0.716495
51439	-11.329863	-1.127779	-0.030718	0.465433	-1.481603	1.466746	-0.059705	0.687004	0.106888	-0.716265
51440	-11.037991	-0.684883	0.263413	0.166602	-1.962306	1.072929	-0.074012	0.686881	0.098218	-0.716289
51441	-11.018789	-0.862472	0.336424	0.087343	-1.863646	1.086373	-0.085644	0.685869	0.091292	-0.716879
51442	-10.925990	-1.274212	-0.002445	0.444936	-1.516269	1.073230	-0.096866	0.684565	0.085029	-0.717466
51443	-10.360975	-1.259549	-0.257703	0.690111	-1.477472	0.499577	-0.108315	0.684012	0.078860	-0.717061
51444	-10.627366	-0.435903	0.313485	0.046009	-2.395336	0.554980	-0.119721	0.684884	0.072663	-0.715067
51445	-11.211390	0.338840	0.761957	-0.529742	-3.328428	0.912540	-0.129698	0.685902	0.067422	-0.712861
51446	-11.217247	0.582219	0.659465	-0.536294	-3.619019	0.827563	-0.137175	0.686606	0.063327	-0.711157
51447	-11.047200	0.343722	0.676613	-0.593442	-3.368221	0.719128	-0.142847	0.687243	0.059373	-0.709765
51448	-10.953045	0.874474	0.761539	-0.806254	-3.841035	0.478568	-0.146779	0.688105	0.055974	-0.708402
51449	-11.217493	1.621053	0.894777	-1.094618	-4.599004	0.527107	-0.147943	0.689181	0.054465	-0.707231
51450	-11.339004	1.101149	1.053548	-1.193614	-4.099039	0.801860	-0.143282	0.690090	0.056722	-0.707127
51451	-10.672958	-0.528786	0.334128	-0.246599	-2.417323	0.598788	-0.136174	0.690624	0.060213	-0.707722
51452	-10.296105	-0.991779	0.368420	-0.211425	-1.816309	0.374817	-0.128727	0.691091	0.063690	-0.708355
51453	-10.083891	-1.341070	0.601749	-0.402214	-1.350735	0.279835	-0.120755	0.691667	0.067798	-0.708815
51454	-10.224496	-1.333013	0.991802	-0.789207	-1.319337	0.431204	-0.113232	0.692073	0.071595	-0.709286
51455	-10.703611	-1.188078	1.548949	-1.332087	-1.507145	0.879925	-0.104389	0.691501	0.076136	-0.710727
51456	-10.741611	-1.507839	1.378582	-1.097706	-1.178163	1.002251	-0.094588	0.689849	0.081595	-0.713094
51457	-10.667004	-1.731233	0.948539	-0.597368	-0.914992	0.980242	-0.084363	0.687414	0.087922	-0.715971
51458	-10.123740	-1.821391	0.344354	0.054006	-0.657769	0.458156	-0.074579	0.684940	0.094805	-0.718545
51459	-9.837523	-2.032164	0.057845	0.361739	-0.346137	0.220218	-0.065897	0.683655	0.101818	-0.719657
51460	-10.047483	-2.344053	-0.122485	0.531611	-0.069107	0.491389	-0.059467	0.683951	0.108244	-0.718998
51461	-10.272133	-1.927257	-0.181224	0.568809	-0.530414	0.611249	-0.055380	0.685971	0.113737	-0.716548
51462	-10.741377	-1.066212	0.465630	-0.077460	-1.554235	0.878819	-0.051996	0.688691	0.119239	-0.713291
51463	-11.351037	-0.649029	1.288718	-0.915532	-2.219627	1.374916	-0.046777	0.690837	0.126110	-0.710389
51464	-11.404278	-1.227350	0.703845	-0.443205	-1.646580	1.551794	-0.040404	0.691990	0.132542	-0.708485
51465	-11.332883	-0.940312	0.487379	-0.232447	-1.873680	1.411890	-0.033489	0.692712	0.137129	-0.707265
51466	-10.780065	-0.808048	0.281287	-0.060727	-1.790818	0.851767	-0.025536	0.693972	0.139809	-0.705836
51467	-10.972460	-0.831592	0.099929	0.073370	-1.697764	1.059641	-0.016420	0.695637	0.141899	-0.704049
51468	-11.014599	-0.660467	0.077108	0.072663	-1.763172	1.079896	-0.005572	0.696987	0.145384	-0.702169
51469	-10.879958	-1.045746	-0.078835	0.104820	-1.229824	1.047736	0.006720	0.697598	0.150495	-0.700474
