// General information: 
//  MT Manager version: 2021.0.0 
//  XDA version: 2021.0.0 build 5908 rev 109668 built on 2021-04-19
// Device information: 
//  DeviceId: 00B43DFC
//  ProductCode: MTW2-3A7G6
//  Firmware Version: 4.3.5
//  Hardware Version: 1.1.0
// Device settings: 
//  Filter Profile: human(46.1)
//  Option Flags: Orientation Smoother Disabled, Position/Velocity Smoother Disabled, Continuous Zero Rotation Update Disabled, AHS Disabled, ICC Disabled
// Coordinate system: ENU
PacketCounter	Acc_X	Acc_Y	Acc_Z	FreeAcc_E	FreeAcc_N	FreeAcc_U	Quat_q0	Quat_q1	Quat_q2	Quat_q3
50291	-9.706762	-0.582999	-1.584282	0.164969	0.099970	0.037890	0.352115	0.606661	0.450180	-0.552554
50292	-9.693813	-0.652179	-1.546003	0.087687	0.091166	0.024460	0.352206	0.606556	0.450248	-0.552555
50293	-9.641796	-0.857550	-1.515681	-0.114119	0.144759	-0.016620	0.352108	0.606542	0.450221	-0.552656
50294	-9.625388	-0.766715	-1.445233	-0.053111	0.049123	-0.049522	0.351815	0.606679	0.450140	-0.552757
50295	-9.688526	-0.837115	-1.637075	-0.046857	0.238104	0.045782	0.351597	0.606762	0.450119	-0.552823
50296	-9.750365	-0.692002	-1.532134	0.054230	0.077266	0.081098	0.351037	0.607025	0.449853	-0.553106
50297	-9.710611	-0.634505	-1.556577	0.118512	0.084954	0.041258	0.351044	0.606976	0.449812	-0.553188
50298	-9.585909	-0.804098	-1.661606	-0.002010	0.263154	-0.054208	0.351073	0.606888	0.449883	-0.553209
50299	-9.652056	-0.627688	-1.411323	0.074396	-0.041508	-0.038192	0.350779	0.607015	0.449773	-0.553346
50300	-9.653770	-0.744347	-1.485964	-0.005607	0.066324	-0.017128	0.350581	0.607110	0.449740	-0.553393
50301	-9.639171	-0.808910	-1.642370	-0.007714	0.233433	-0.003977	0.350254	0.607284	0.449582	-0.553537
50302	-9.650746	-0.764394	-1.521858	-0.007821	0.101906	-0.013361	0.349796	0.607518	0.449412	-0.553708
50303	-9.669925	-0.743596	-1.496786	0.004926	0.064995	0.000390	0.349513	0.607631	0.449368	-0.553799
50304	-9.709290	-0.698718	-1.522475	0.059275	0.063916	0.039665	0.349344	0.607620	0.449406	-0.553887
50305	-9.705679	-0.648179	-1.363112	0.050208	-0.101973	0.008998	0.349109	0.607717	0.449349	-0.553975
50306	-9.657016	-0.757925	-1.469688	-0.012177	0.041684	-0.015213	0.348977	0.607757	0.449332	-0.554029
50307	-9.695847	-0.753949	-1.568414	0.030360	0.122817	0.037278	0.348672	0.607858	0.449263	-0.554165
50308	-9.682140	-0.737828	-1.578166	0.051768	0.125454	0.023999	0.348314	0.607980	0.449198	-0.554310
50309	-9.655006	-0.701571	-1.517968	0.066161	0.058003	-0.014329	0.347848	0.608176	0.449065	-0.554494
50310	-9.599795	-0.728896	-1.617419	0.079748	0.165115	-0.052064	0.347439	0.608347	0.448891	-0.554704
50311	-9.702834	-0.799474	-1.633801	0.024793	0.186728	0.057367	0.347170	0.608446	0.448798	-0.554840
50312	-9.665250	-0.725984	-1.547662	0.062586	0.086264	0.001996	0.347086	0.608432	0.448793	-0.554912
50313	-9.692504	-0.814001	-1.488702	-0.038842	0.059916	0.026945	0.347201	0.608266	0.448940	-0.554903
50314	-9.670661	-0.746784	-1.518596	0.036541	0.066418	0.004632	0.347005	0.608288	0.448910	-0.555025
50315	-9.654905	-0.743708	-1.481143	0.027436	0.032036	-0.016653	0.346715	0.608429	0.448788	-0.555152
50316	-9.606193	-0.835737	-1.669341	0.013575	0.243538	-0.029815	0.346135	0.608728	0.448482	-0.555432
50317	-9.655315	-0.778036	-1.604082	0.045870	0.151365	0.004568	0.345885	0.608865	0.448440	-0.555472
50318	-9.616686	-0.856830	-1.777752	0.038566	0.344327	-0.001716	0.345879	0.608764	0.448501	-0.555537
50319	-9.691376	-0.788018	-1.419858	-0.027486	-0.022460	0.013730	0.345611	0.608850	0.448508	-0.555604
50320	-9.694047	-0.734628	-1.395281	0.014717	-0.067675	0.008526	0.345357	0.608974	0.448436	-0.555684
50321	-9.658325	-0.845109	-1.495659	-0.049059	0.068551	-0.003134	0.345035	0.609118	0.448286	-0.555847
50322	-9.626620	-0.860108	-1.654454	-0.001817	0.222512	-0.009662	0.344667	0.609301	0.448133	-0.555997
50323	-9.648375	-0.823842	-1.675682	0.041554	0.222518	0.012104	0.344590	0.609317	0.448207	-0.555969
50324	-9.669702	-0.805250	-1.536477	0.007894	0.082252	0.011033	0.344481	0.609320	0.448336	-0.555928
50325	-9.656654	-0.677727	-1.439983	0.091150	-0.053670	-0.026338	0.344343	0.609323	0.448442	-0.555925
50326	-9.650345	-0.771769	-1.496426	0.026651	0.031908	-0.016650	0.344314	0.609286	0.448486	-0.555949
50327	-9.660075	-0.849763	-1.514098	-0.037259	0.074593	0.001827	0.344113	0.609353	0.448396	-0.556072
50328	-9.750092	-0.812158	-1.585506	0.027800	0.110283	0.098155	0.343882	0.609472	0.448234	-0.556215
50329	-9.671815	-0.846938	-1.542718	-0.020670	0.097940	0.017433	0.343998	0.609344	0.448265	-0.556259
50330	-9.586826	-0.839146	-1.565503	-0.004948	0.131463	-0.063590	0.343930	0.609306	0.448262	-0.556345
50331	-9.647470	-0.818105	-1.679472	0.060721	0.217558	0.011394	0.343754	0.609338	0.448202	-0.556467
50332	-9.663383	-0.716031	-1.610579	0.131562	0.113498	0.008588	0.343664	0.609333	0.448231	-0.556505
50333	-9.618649	-0.795835	-1.650102	0.073128	0.185879	-0.023168	0.343646	0.609286	0.448287	-0.556522
50334	-9.588065	-0.853086	-1.608261	0.004879	0.173298	-0.054860	0.343519	0.609327	0.448242	-0.556593
50335	-9.566010	-0.872461	-1.592430	-0.018528	0.168360	-0.077345	0.343386	0.609394	0.448245	-0.556598
50336	-9.625888	-0.868319	-1.548233	-0.029692	0.114034	-0.025204	0.343289	0.609434	0.448318	-0.556555
50337	-9.690311	-0.835534	-1.518351	-0.008446	0.061091	0.031186	0.343038	0.609551	0.448273	-0.556619
50338	-9.710280	-0.794410	-1.575359	0.053021	0.092067	0.056005	0.342752	0.609697	0.448164	-0.556722
50339	-9.683703	-0.755110	-1.515579	0.067412	0.024752	0.017680	0.342531	0.609809	0.448150	-0.556747
50340	-9.651294	-0.719433	-1.479726	0.087704	-0.018084	-0.022559	0.342334	0.609864	0.448112	-0.556839
50341	-9.642869	-0.738776	-1.458255	0.062993	-0.030509	-0.032486	0.342197	0.609914	0.448091	-0.556885
50342	-9.678315	-0.859540	-1.616520	0.013004	0.152142	0.036090	0.342232	0.609848	0.448161	-0.556879
50343	-9.670191	-0.877556	-1.593707	-0.011665	0.139698	0.026161	0.342427	0.609650	0.448374	-0.556804
50344	-9.666203	-0.885569	-1.503471	-0.052414	0.060766	0.009415	0.342466	0.609566	0.448515	-0.556759
50345	-9.655958	-0.898070	-1.439123	-0.087421	0.006489	-0.009247	0.342273	0.609639	0.448537	-0.556781
50346	-9.593344	-0.881661	-1.606062	-0.009742	0.159466	-0.047264	0.342106	0.609747	0.448674	-0.556655
50347	-9.653136	-0.860192	-1.724617	0.055921	0.245622	0.027730	0.342124	0.609718	0.448855	-0.556528
50348	-9.677052	-0.827143	-1.632147	0.052858	0.142215	0.034667	0.341891	0.609803	0.448835	-0.556596
50349	-9.649166	-0.849068	-1.561963	0.006968	0.089246	-0.001518	0.341718	0.609878	0.448765	-0.556676
50350	-9.623088	-0.946167	-1.646617	-0.050569	0.206845	-0.006309	0.341791	0.609811	0.448796	-0.556680
50351	-9.598113	-0.864041	-1.591689	0.004117	0.129888	-0.046064	0.341616	0.609941	0.448749	-0.556682
50352	-9.687728	-0.707543	-1.436564	0.092774	-0.087272	0.005672	0.341430	0.609993	0.448745	-0.556742
50353	-9.733219	-0.728570	-1.551320	0.119498	0.015914	0.069541	0.341338	0.609988	0.448771	-0.556783
50354	-9.734646	-0.823793	-1.545409	0.030940	0.046005	0.078075	0.341312	0.609930	0.448712	-0.556910
50355	-9.667319	-0.961301	-1.557973	-0.091314	0.122861	0.025249	0.341386	0.609847	0.448607	-0.557041
50356	-9.658008	-0.903711	-1.454928	-0.076092	0.012370	-0.004289	0.341207	0.609944	0.448290	-0.557299
50357	-9.861699	-0.937457	-1.363095	-0.136274	-0.089486	0.185482	0.341068	0.610010	0.447898	-0.557627
50358	-9.965050	-1.111559	-1.318116	-0.310062	-0.075045	0.295400	0.341038	0.610008	0.447310	-0.558119
50359	-9.815058	-1.276471	-1.067260	-0.559786	-0.203880	0.124557	0.340922	0.610120	0.446419	-0.558781
50360	-9.985704	-1.272163	-0.642135	-0.714717	-0.603670	0.230706	0.340655	0.610386	0.445020	-0.559768
50361	-10.305410	-1.368390	-0.329018	-0.918062	-0.874102	0.510838	0.340498	0.610627	0.442761	-0.561390
50362	-10.540699	-1.357190	-0.068130	-1.006947	-1.099340	0.710147	0.340595	0.610839	0.439354	-0.563772
50363	-10.667435	-1.334799	0.289821	-1.131568	-1.368616	0.794171	0.341416	0.610747	0.434893	-0.566827
50364	-10.578932	-1.398385	0.365235	-1.230954	-1.281841	0.715504	0.343423	0.610054	0.429635	-0.570358
50365	-10.395474	-1.412650	0.243179	-1.210573	-0.993505	0.563529	0.346390	0.609080	0.423384	-0.574267
50366	-10.745079	-0.554955	0.529774	-0.557834	-1.472923	0.843849	0.349679	0.607701	0.416332	-0.578871
50367	-10.459401	-0.064471	0.431044	-0.083301	-1.361579	0.566357	0.355093	0.604545	0.409975	-0.583400
50368	-10.306657	0.330029	0.592756	0.211919	-1.442567	0.412631	0.362260	0.599713	0.404432	-0.587832
50369	-9.899461	1.007853	-0.154221	1.150965	-0.793784	0.040213	0.369702	0.594369	0.398980	-0.592335
50370	-9.501760	1.187935	-2.058239	2.117692	1.095684	-0.313096	0.375899	0.589638	0.393191	-0.597016
50371	-8.769609	0.957477	-3.032634	2.315614	2.271469	-1.066495	0.380341	0.586115	0.387493	-0.601381
50372	-7.709014	-0.330499	-3.235750	1.221686	3.122367	-2.146824	0.384033	0.582990	0.383916	-0.604359
50373	-7.423312	-1.724031	-3.567002	0.093921	4.075785	-2.451964	0.386599	0.580154	0.383673	-0.605606
50374	-7.611988	-2.692286	-2.658401	-1.153412	3.677626	-2.236240	0.388098	0.577681	0.385675	-0.605738
50375	-8.090527	-2.780768	-1.704938	-1.599749	2.837165	-1.720266	0.388624	0.575675	0.389381	-0.604939
50376	-8.590498	-2.649842	-1.446332	-1.554022	2.501200	-1.196501	0.388049	0.574479	0.394560	-0.603087
50377	-9.214089	-0.984877	-0.725406	-0.274158	1.109109	-0.588277	0.387403	0.574149	0.399741	-0.600399
50378	-10.335343	1.523031	-0.211012	1.873747	-0.416273	0.458566	0.388405	0.574687	0.405376	-0.595438
50379	-10.666160	0.583801	-1.306663	1.370147	0.870376	0.825878	0.392166	0.575267	0.411545	-0.588136
50380	-10.619434	-1.493863	-3.085350	-0.032568	3.178379	0.883931	0.391365	0.580522	0.413080	-0.582403
50381	-11.860398	-1.558479	-0.603781	-1.077968	0.728822	2.093908	0.387115	0.587711	0.411362	-0.579240
50382	-11.215520	-1.098696	2.067818	-1.714165	-1.994320	1.338754	0.385681	0.589945	0.412611	-0.577034
50383	-9.684992	-1.395742	1.873477	-1.924005	-1.706697	-0.187620	0.386532	0.588281	0.417560	-0.574597
50384	-9.295199	-1.543286	1.190607	-1.774481	-1.063763	-0.543432	0.387764	0.585481	0.423046	-0.572611
50385	-9.332398	-1.437231	-1.001954	-0.871319	0.896714	-0.399946	0.388027	0.583713	0.426994	-0.571306
50386	-9.464548	0.119131	-2.429895	1.090553	1.654176	-0.243441	0.387057	0.584592	0.428481	-0.569950
50387	-9.415537	1.141465	-2.237996	1.961708	1.070726	-0.327513	0.384230	0.588746	0.427256	-0.568505
50388	-9.856063	0.455593	-0.616418	0.713461	-0.308312	0.042508	0.383404	0.591495	0.428003	-0.565640
50389	-10.034050	-0.694751	-0.741967	-0.354964	0.140168	0.265483	0.385825	0.590204	0.432254	-0.562099
50390	-10.061441	0.181522	-0.693557	0.450121	-0.238789	0.261381	0.387738	0.588292	0.436632	-0.559396
50391	-10.206694	0.581945	-1.296428	1.029928	0.162778	0.439566	0.389509	0.586835	0.440011	-0.557043
50392	-9.951012	-0.452272	-1.383088	0.066219	0.579188	0.227245	0.390744	0.586413	0.441452	-0.555480
50393	-9.754894	-1.530991	-0.585459	-1.221085	0.164102	0.001927	0.388525	0.588489	0.440139	-0.555884
50394	-9.815808	-0.827356	0.405717	-0.882353	-1.015359	-0.045923	0.384031	0.592042	0.436820	-0.557848
50395	-10.049823	0.353926	0.557547	0.159669	-1.591807	0.130933	0.379271	0.595890	0.433189	-0.559836
50396	-10.163704	1.274971	0.215854	1.112751	-1.630263	0.241013	0.375528	0.599138	0.429762	-0.561530
50397	-10.160806	1.482735	-0.635970	1.587391	-0.933994	0.309207	0.372739	0.601571	0.426338	-0.563395
50398	-9.984857	1.405574	-1.225094	1.720978	-0.347080	0.191893	0.371311	0.602861	0.423528	-0.565076
50399	-9.634032	1.310353	-1.421262	1.705669	-0.090407	-0.136216	0.370184	0.603649	0.421408	-0.566557
50400	-9.815154	1.013101	-1.053633	1.292832	-0.331063	0.020560	0.369489	0.604027	0.420683	-0.567146
50401	-9.739109	0.148382	-1.168686	0.542665	0.109416	-0.018218	0.369876	0.603348	0.421564	-0.566963
50402	-9.367706	-0.602915	-1.309554	-0.089663	0.551875	-0.351201	0.370992	0.601936	0.423905	-0.565988
50403	-9.182892	-1.106581	-1.501745	-0.477860	0.917227	-0.499494	0.371544	0.600950	0.426279	-0.564890
50404	-9.319617	-1.236541	-1.324673	-0.659429	0.759855	-0.371992	0.371006	0.600969	0.427952	-0.563957
50405	-9.850684	-0.713904	-1.212036	-0.210947	0.372499	0.128703	0.369727	0.601612	0.429446	-0.562975
50406	-10.271216	0.133539	-1.664294	0.743602	0.384957	0.559591	0.367611	0.603115	0.430518	-0.561933
50407	-10.089661	0.722646	-2.085678	1.439178	0.516695	0.401761	0.365183	0.605281	0.430860	-0.560924
50408	-9.601834	0.634683	-2.078446	1.341918	0.537236	-0.074706	0.363025	0.607421	0.431306	-0.559667
50409	-9.263665	0.177251	-1.675526	0.757305	0.322504	-0.433105	0.361598	0.608531	0.432719	-0.558293
50410	-9.386583	-0.224437	-1.215674	0.212978	-0.015376	-0.347467	0.360479	0.608797	0.434821	-0.557092
50411	-10.079917	-0.138471	-0.960667	0.206100	-0.416118	0.303192	0.359178	0.609019	0.436324	-0.556515
50412	-10.507322	-0.100972	-0.951644	0.248715	-0.524249	0.722156	0.358326	0.609131	0.436755	-0.556603
50413	-10.424452	-0.231960	-0.518957	-0.028448	-0.870788	0.590833	0.357410	0.609737	0.435892	-0.557205
50414	-9.845019	-0.272543	-0.535707	-0.064815	-0.758338	0.021253	0.356354	0.610915	0.434129	-0.557967
50415	-9.487420	-0.325548	-0.659319	-0.075932	-0.572727	-0.314370	0.355346	0.611991	0.432682	-0.558554
50416	-9.886624	-0.923149	-0.888398	-0.544493	-0.185941	0.139988	0.355238	0.611985	0.432205	-0.558999
50417	-9.851420	-0.973644	-1.158084	-0.478975	0.095060	0.142268	0.355427	0.611273	0.432236	-0.559633
50418	-9.719347	-0.528332	-1.436079	0.053657	0.206916	0.024053	0.354554	0.611331	0.431513	-0.560680
50419	-9.742871	-0.465938	-1.269654	0.055452	0.032382	0.023395	0.353898	0.611762	0.430660	-0.561280
50420	-9.662305	-0.539021	-1.027710	-0.107241	-0.147207	-0.082646	0.353542	0.612258	0.430002	-0.561469
50421	-9.612753	-0.253964	-0.925620	0.110590	-0.342455	-0.158840	0.353634	0.612416	0.429789	-0.561401
50422	-9.732685	-0.304703	-0.632283	-0.053468	-0.602678	-0.073504	0.354217	0.612060	0.430001	-0.561260
50423	-9.698518	-0.598430	-0.751490	-0.275923	-0.369018	-0.077607	0.355062	0.611328	0.430498	-0.561142
50424	-9.863967	-0.484031	-0.997428	-0.070719	-0.201485	0.111091	0.355433	0.610845	0.430574	-0.561375
50425	-9.885579	-0.441554	-1.041529	-0.009413	-0.170134	0.135950	0.355171	0.610893	0.429795	-0.562085
50426	-9.774522	-0.584124	-1.262935	-0.052818	0.112455	0.059600	0.354763	0.611300	0.428666	-0.562762
50427	-9.719923	-0.737965	-1.207473	-0.219094	0.137875	0.006298	0.354625	0.611713	0.427785	-0.563070
50428	-9.604799	-0.751708	-1.261928	-0.215455	0.215791	-0.101009	0.354816	0.611845	0.427276	-0.563193
50429	-9.424492	-0.694205	-1.438164	-0.096732	0.384944	-0.262099	0.355196	0.611715	0.427093	-0.563233
50430	-9.307557	-0.616173	-1.362279	-0.056119	0.304769	-0.390901	0.355611	0.611429	0.427413	-0.563039
50431	-9.460217	-0.605520	-1.606731	0.049423	0.503265	-0.211217	0.355830	0.611126	0.428021	-0.562769
50432	-9.681359	-0.417522	-1.533978	0.196716	0.328437	-0.009140	0.355439	0.611169	0.428468	-0.562629
50433	-9.737933	-0.354737	-1.505813	0.246345	0.260027	0.040857	0.355161	0.611241	0.428944	-0.562363
50434	-9.615088	-0.528826	-1.577476	0.114441	0.395395	-0.063402	0.354921	0.611361	0.429618	-0.561870
50435	-9.765393	-0.544778	-1.350093	0.010601	0.158962	0.059346	0.354723	0.611432	0.430351	-0.561356
50436	-9.604849	-0.728744	-1.483650	-0.107439	0.358496	-0.073831	0.354764	0.611319	0.431241	-0.560770
50437	-9.671272	-0.794563	-1.420608	-0.192368	0.304430	-0.012011	0.354590	0.611330	0.431841	-0.560406
50438	-9.724259	-0.820653	-1.369710	-0.235667	0.248443	0.035841	0.354414	0.611386	0.432428	-0.560003
50439	-9.783925	-0.784031	-1.384927	-0.196169	0.226578	0.095293	0.353912	0.611696	0.432788	-0.559704
50440	-9.730162	-0.419931	-1.379201	0.138376	0.074723	0.022446	0.353148	0.612126	0.432973	-0.559574
50441	-9.797817	-0.349540	-1.305702	0.176750	-0.042999	0.076253	0.352566	0.612400	0.433232	-0.559440
50442	-9.745364	-0.470178	-1.249297	0.045157	-0.051720	0.023431	0.352375	0.612461	0.433582	-0.559223
50443	-9.790518	-0.590338	-1.078798	-0.131236	-0.174408	0.052347	0.352363	0.612455	0.433844	-0.559034
50444	-9.810500	-0.630071	-1.123016	-0.150632	-0.124319	0.080033	0.352568	0.612268	0.434121	-0.558894
50445	-9.766095	-0.578802	-1.251952	-0.052776	-0.018501	0.050166	0.352593	0.612215	0.434004	-0.559028
50446	-9.882492	-0.492371	-1.234439	0.021963	-0.079424	0.158427	0.352589	0.612151	0.433732	-0.559311
50447	-9.806478	-0.427504	-1.282854	0.102379	-0.042484	0.085958	0.352690	0.612048	0.433431	-0.559593
50448	-9.721942	-0.515419	-1.433660	0.080768	0.149291	0.026437	0.353060	0.611770	0.433290	-0.559773
50449	-9.561760	-0.586100	-1.483857	0.035552	0.252585	-0.122098	0.353281	0.611623	0.433117	-0.559929
50450	-9.603173	-0.662485	-1.448564	-0.049042	0.248950	-0.081615	0.353481	0.611554	0.433050	-0.559929
50451	-9.691162	-0.675420	-1.347300	-0.100498	0.153399	-0.006751	0.353550	0.611514	0.432839	-0.560092
50452	-9.725221	-0.591557	-1.283542	-0.045957	0.064293	0.014372	0.353402	0.611533	0.432376	-0.560523
50453	-9.689901	-0.585887	-1.304511	-0.029919	0.092916	-0.018319	0.353271	0.611570	0.431910	-0.560924
50454	-9.644997	-0.510569	-1.353830	0.060193	0.121292	-0.060705	0.353352	0.611506	0.431680	-0.561119
50455	-9.710558	-0.454524	-1.398671	0.129876	0.136725	0.006796	0.353229	0.611615	0.431284	-0.561383
50456	-9.692767	-0.382417	-1.288226	0.153790	0.015485	-0.028434	0.353115	0.611718	0.430814	-0.561704
50457	-9.755851	-0.522414	-1.255152	0.011754	0.035585	0.037365	0.353245	0.611682	0.430679	-0.561765
50458	-9.638528	-0.592899	-1.485549	0.036278	0.293189	-0.046812	0.353437	0.611546	0.430595	-0.561855
50459	-9.627889	-0.601626	-1.416462	0.001717	0.238746	-0.065505	0.353448	0.611536	0.430450	-0.561971
50460	-9.632126	-0.516842	-1.290062	0.031007	0.091685	-0.081302	0.353418	0.611541	0.430407	-0.562017
50461	-9.775645	-0.468404	-1.371532	0.108602	0.129075	0.068369	0.353413	0.611468	0.430398	-0.562107
50462	-9.754513	-0.589895	-1.335639	-0.015577	0.147218	0.049387	0.353461	0.611366	0.430453	-0.562145
50463	-9.704653	-0.464574	-1.389381	0.122784	0.155406	-0.000080	0.353556	0.611178	0.430622	-0.562160
50464	-9.660082	-0.416792	-1.405552	0.174812	0.157521	-0.044827	0.353553	0.611127	0.430731	-0.562134
50465	-9.637338	-0.513191	-1.411993	0.088669	0.201955	-0.061445	0.353686	0.611035	0.430997	-0.561947
50466	-9.684736	-0.555568	-1.294235	0.003072	0.102367	-0.026609	0.354021	0.610810	0.431438	-0.561642
50467	-9.647616	-0.652966	-1.192847	-0.127471	0.050383	-0.070668	0.354484	0.610524	0.431949	-0.561267
50468	-9.658687	-0.704082	-1.250765	-0.153596	0.118817	-0.049866	0.354585	0.610462	0.432250	-0.561040
50469	-9.748975	-0.629974	-1.181470	-0.111979	0.010943	0.027160	0.354478	0.610498	0.432434	-0.560927
50470	-9.792792	-0.539016	-1.191517	-0.022884	-0.023621	0.066986	0.354448	0.610420	0.432595	-0.560906
50471	-9.697112	-0.461940	-1.282841	0.084554	0.040891	-0.020638	0.354524	0.610311	0.432917	-0.560729
50472	-9.709122	-0.402493	-1.176874	0.098118	-0.084274	-0.025075	0.354898	0.610087	0.433538	-0.560255
50473	-9.749708	-0.397303	-1.278160	0.139915	-0.002714	0.027473	0.355313	0.609827	0.434103	-0.559838
50474	-9.692641	-0.495873	-1.244423	0.034135	0.008348	-0.027978	0.355564	0.609686	0.434511	-0.559515
50475	-9.708035	-0.627125	-1.151488	-0.123976	-0.033199	-0.017348	0.355672	0.609635	0.434827	-0.559257
50476	-9.723913	-0.674649	-1.186886	-0.155743	0.010559	0.005356	0.355855	0.609523	0.435251	-0.558932
50477	-9.666245	-0.549569	-1.192277	-0.039562	-0.029366	-0.057821	0.355953	0.609487	0.435732	-0.558535
50478	-9.718131	-0.481415	-1.219697	0.033685	-0.042012	-0.006639	0.356367	0.609095	0.436430	-0.558154
50479	-9.760590	-0.456643	-1.516874	0.168990	0.211682	0.071905	0.356625	0.608841	0.437052	-0.557778
50480	-9.810215	-0.471598	-1.338721	0.088139	0.040831	0.099197	0.356607	0.608858	0.437414	-0.557488
50481	-9.686652	-0.518989	-1.310243	0.031396	0.044192	-0.024206	0.356816	0.608792	0.437757	-0.557156
50482	-9.639132	-0.661833	-1.369951	-0.082688	0.154571	-0.055797	0.357201	0.608670	0.438230	-0.556671
50483	-9.582393	-0.792680	-1.561483	-0.137676	0.382575	-0.080087	0.357710	0.608409	0.438885	-0.556113
50484	-9.784648	-0.621261	-1.472637	-0.013186	0.203030	0.099555	0.357515	0.608524	0.439220	-0.555849
50485	-9.791398	-0.569779	-1.393342	0.006032	0.102546	0.093218	0.357228	0.608635	0.439369	-0.555793
50486	-9.632700	-0.557673	-1.366082	0.008048	0.089659	-0.068049	0.357027	0.608728	0.439522	-0.555700
50487	-9.614125	-0.684484	-1.576805	-0.032950	0.326314	-0.051609	0.357053	0.608774	0.439876	-0.555353
50488	-9.683192	-0.609223	-1.496897	0.005696	0.208679	0.002224	0.356946	0.608876	0.440118	-0.555118
50489	-9.732076	-0.578859	-1.362812	-0.016869	0.059517	0.031184	0.356711	0.609081	0.440334	-0.554873
50490	-9.754933	-0.569357	-1.430649	0.016178	0.106640	0.062433	0.356466	0.609223	0.440577	-0.554682
50491	-9.668832	-0.508445	-1.360212	0.046654	0.022637	-0.035555	0.356120	0.609429	0.440874	-0.554441
50492	-9.765858	-0.416405	-1.354592	0.130702	-0.041552	0.054504	0.355789	0.609579	0.441270	-0.554173
50493	-9.764601	-0.298171	-1.382199	0.251744	-0.069193	0.050306	0.355638	0.609593	0.441695	-0.553916
50494	-9.663969	-0.333750	-1.529288	0.273643	0.085128	-0.026969	0.355467	0.609617	0.442129	-0.553654
50495	-9.648865	-0.339390	-1.543728	0.274838	0.092612	-0.039522	0.355135	0.609746	0.442522	-0.553410
50496	-9.756823	-0.404493	-1.464471	0.186277	0.015968	0.059948	0.355074	0.609700	0.443168	-0.552983
50497	-9.638756	-0.473604	-1.490416	0.131480	0.072115	-0.049043	0.354952	0.609714	0.443699	-0.552620
50498	-9.672076	-0.603273	-1.568939	0.039765	0.175066	0.002726	0.354688	0.609837	0.444144	-0.552297
50499	-9.714642	-0.617387	-1.570716	0.027966	0.163696	0.046065	0.354482	0.609873	0.444674	-0.551962
50500	-9.573198	-0.432229	-1.497622	0.174763	0.039925	-0.115076	0.354154	0.609954	0.445184	-0.551673
50501	-9.611636	-0.434863	-1.413043	0.143239	-0.055282	-0.089223	0.353926	0.609995	0.445765	-0.551303
50502	-9.553140	-0.539804	-1.466244	0.065093	0.028531	-0.132880	0.353992	0.609867	0.446577	-0.550746
50503	-9.646595	-0.539944	-1.516538	0.083857	0.049398	-0.033181	0.354018	0.609732	0.447248	-0.550333
50504	-9.670443	-0.557193	-1.545194	0.078878	0.070142	-0.004302	0.354183	0.609526	0.447862	-0.549956
50505	-9.718788	-0.751068	-1.569273	-0.092514	0.148410	0.059039	0.354451	0.609239	0.448403	-0.549662
50506	-9.747058	-0.777508	-1.443650	-0.160750	0.034208	0.069962	0.354439	0.609135	0.448660	-0.549574
50507	-9.706755	-0.891335	-1.571165	-0.220480	0.194393	0.056342	0.354366	0.609149	0.448892	-0.549416
50508	-9.651938	-0.835951	-1.763644	-0.099667	0.356261	0.027653	0.354233	0.609184	0.449080	-0.549309
50509	-9.634565	-0.745700	-1.774845	-0.009793	0.334430	0.006633	0.354056	0.609202	0.449086	-0.549399
50510	-9.660571	-0.618252	-1.738358	0.098903	0.250087	0.018815	0.353816	0.609267	0.449028	-0.549528
50511	-9.697377	-0.587768	-1.717679	0.123185	0.212308	0.050109	0.353445	0.609404	0.448897	-0.549723
50512	-9.757541	-0.543871	-1.678738	0.152899	0.148709	0.100842	0.353178	0.609544	0.448801	-0.549817
50513	-9.678529	-0.683182	-1.623647	0.003650	0.158890	0.023553	0.353132	0.609551	0.448792	-0.549846
50514	-9.670106	-0.743260	-1.674983	-0.033679	0.228376	0.026807	0.353164	0.609522	0.448866	-0.549798
50515	-9.726525	-0.707314	-1.702929	0.011417	0.231381	0.084377	0.352884	0.609640	0.448709	-0.549975
50516	-9.742436	-0.672008	-1.588677	0.005065	0.110815	0.080656	0.352749	0.609697	0.448587	-0.550098
50517	-9.613666	-0.744873	-1.730988	-0.011121	0.289189	-0.020345	0.352569	0.609808	0.448389	-0.550251
50518	-9.631644	-0.695533	-1.741665	0.040144	0.278930	-0.004206	0.352333	0.609939	0.448168	-0.550437
50519	-9.652578	-0.758820	-1.587672	-0.072668	0.156593	-0.002541	0.352077	0.610054	0.447970	-0.550634
50520	-9.607190	-0.812583	-1.587685	-0.121584	0.181775	-0.043793	0.351661	0.610343	0.447730	-0.550776
50521	-9.642770	-0.672691	-1.619820	0.021463	0.152095	-0.012904	0.351285	0.610586	0.447567	-0.550879
50522	-9.636874	-0.616690	-1.655931	0.087501	0.163064	-0.016897	0.351081	0.610708	0.447523	-0.550909
50523	-9.707867	-0.667657	-1.632353	0.032811	0.145945	0.052943	0.350870	0.610810	0.447447	-0.550992
50524	-9.701753	-0.711115	-1.493179	-0.057269	0.033893	0.028799	0.350807	0.610799	0.447440	-0.551051
50525	-9.634958	-0.783591	-1.554054	-0.101842	0.126785	-0.023149	0.350780	0.610790	0.447443	-0.551075
50526	-9.670764	-0.683114	-1.499257	-0.026745	0.033323	-0.002679	0.350432	0.610955	0.447282	-0.551244
50527	-9.711660	-0.661475	-1.407992	-0.037929	-0.066524	0.022478	0.350080	0.611155	0.447030	-0.551451
50528	-9.676263	-0.702266	-1.393671	-0.080147	-0.059737	-0.011893	0.349808	0.611333	0.446788	-0.551623
50529	-9.711150	-0.685354	-1.483777	-0.030683	0.011042	0.034986	0.349646	0.611475	0.446583	-0.551733
50530	-9.705493	-0.669836	-1.588804	0.022490	0.104153	0.044199	0.349638	0.611491	0.446414	-0.551857
50531	-9.700075	-0.691323	-1.528484	-0.019801	0.060465	0.031173	0.349623	0.611541	0.446189	-0.551994
50532	-9.680843	-0.735509	-1.548513	-0.053498	0.101754	0.018100	0.349608	0.611568	0.445924	-0.552188
50533	-9.613189	-0.780661	-1.643708	-0.060177	0.221092	-0.031476	0.349649	0.611556	0.445679	-0.552373
50534	-9.582334	-0.850159	-1.630140	-0.130579	0.243349	-0.059484	0.349773	0.611563	0.445506	-0.552426
50535	-9.639472	-0.831607	-1.651714	-0.105678	0.250972	-0.001214	0.349775	0.611579	0.445267	-0.552600
50536	-9.620944	-0.812582	-1.602249	-0.106311	0.205576	-0.028185	0.349722	0.611655	0.444973	-0.552785
50537	-9.588151	-0.838466	-1.711580	-0.091061	0.322703	-0.042695	0.349635	0.611847	0.444734	-0.552821
50538	-9.602963	-0.670482	-1.654241	0.041657	0.205806	-0.047501	0.349417	0.612091	0.444505	-0.552872
50539	-9.584013	-0.571942	-1.702128	0.149321	0.215184	-0.065428	0.349290	0.612259	0.444377	-0.552869
50540	-9.631997	-0.610384	-1.621496	0.081857	0.146279	-0.027541	0.349265	0.612377	0.444341	-0.552784
50541	-9.627484	-0.656740	-1.527690	0.001646	0.076079	-0.042948	0.349296	0.612425	0.444458	-0.552616
50542	-9.667685	-0.676072	-1.589571	0.005127	0.131313	0.007225	0.349310	0.612482	0.444484	-0.552524
50543	-9.708679	-0.630030	-1.502442	0.014206	0.026910	0.031691	0.349297	0.612529	0.444478	-0.552484
50544	-9.685068	-0.643958	-1.522187	0.008675	0.052709	0.012251	0.349040	0.612672	0.444347	-0.552593
50545	-9.696512	-0.659880	-1.548915	0.004877	0.080884	0.028571	0.348893	0.612765	0.444145	-0.552745
50546	-9.641830	-0.728719	-1.716272	0.004158	0.270296	0.004055	0.348966	0.612699	0.444075	-0.552830
50547	-9.613132	-0.725009	-1.760363	0.024283	0.316234	-0.017984	0.349076	0.612620	0.444090	-0.552835
50548	-9.658548	-0.647969	-1.606917	0.038345	0.140641	-0.001044	0.349171	0.612554	0.444216	-0.552748
50549	-9.656930	-0.600273	-1.570319	0.068930	0.089619	-0.011170	0.349293	0.612436	0.444367	-0.552679
50550	-9.688289	-0.531503	-1.659573	0.166639	0.140481	0.028660	0.349283	0.612409	0.444447	-0.552650
50551	-9.685963	-0.548127	-1.692881	0.164065	0.176107	0.032425	0.349174	0.612473	0.444441	-0.552655
50552	-9.659985	-0.579770	-1.824519	0.183438	0.310528	0.028564	0.349058	0.612595	0.444409	-0.552618
50553	-9.706832	-0.528231	-1.634829	0.159629	0.108425	0.043126	0.348935	0.612733	0.444313	-0.552620
50554	-9.676969	-0.622202	-1.509105	0.023866	0.031072	0.000911	0.348975	0.612776	0.444404	-0.552473
50555	-9.695681	-0.677408	-1.472561	-0.043550	0.012585	0.017445	0.349147	0.612771	0.444612	-0.552203
50556	-9.744035	-0.617382	-1.566988	0.044927	0.066939	0.075504	0.349081	0.612902	0.444563	-0.552139
50557	-9.736833	-0.511273	-1.565617	0.141628	0.027010	0.061404	0.348891	0.613078	0.444321	-0.552258
50558	-9.721224	-0.526344	-1.602968	0.140294	0.070058	0.052613	0.348861	0.613210	0.444103	-0.552306
50559	-9.705667	-0.599500	-1.550757	0.050917	0.053723	0.034075	0.348860	0.613314	0.443873	-0.552376
50560	-9.669039	-0.630049	-1.491448	-0.001027	0.018473	-0.009047	0.348742	0.613455	0.443634	-0.552486
50561	-9.654139	-0.523202	-1.548280	0.118853	0.034336	-0.021977	0.348614	0.613569	0.443438	-0.552598
50562	-9.646442	-0.501432	-1.611120	0.162114	0.085613	-0.021499	0.348628	0.613602	0.443382	-0.552597
50563	-9.603297	-0.600653	-1.645383	0.082454	0.161685	-0.052645	0.348696	0.613565	0.443362	-0.552612
50564	-9.646305	-0.564403	-1.678091	0.128751	0.172279	-0.007613	0.348699	0.613530	0.443351	-0.552658
50565	-9.691130	-0.554064	-1.672089	0.137155	0.156351	0.035034	0.348708	0.613474	0.443374	-0.552694
50566	-9.660045	-0.585102	-1.667562	0.107123	0.169433	0.005632	0.348813	0.613398	0.443442	-0.552658
50567	-9.586302	-0.610687	-1.636437	0.071119	0.162887	-0.070179	0.348976	0.613300	0.443586	-0.552549
50568	-9.636497	-0.638680	-1.679426	0.061044	0.204312	-0.012433	0.349104	0.613188	0.443754	-0.552457
50569	-9.660002	-0.603051	-1.586011	0.059311	0.100999	-0.005495	0.349148	0.613129	0.443907	-0.552371
50570	-9.690679	-0.632260	-1.502884	0.001187	0.028522	0.014157	0.349209	0.613071	0.444147	-0.552206
50571	-9.705669	-0.639708	-1.542963	0.009550	0.063056	0.035455	0.349184	0.613040	0.444277	-0.552152
50572	-9.685607	-0.648309	-1.653092	0.043531	0.168265	0.032809	0.349056	0.613082	0.444308	-0.552160
50573	-9.714778	-0.650797	-1.528773	-0.004056	0.049283	0.043029	0.349021	0.613053	0.444354	-0.552178
50574	-9.678158	-0.604574	-1.562101	0.052201	0.068939	0.008969	0.349155	0.612907	0.444487	-0.552148
50575	-9.703679	-0.578442	-1.588715	0.087569	0.080626	0.036467	0.349272	0.612762	0.444596	-0.552147
50576	-9.655244	-0.599323	-1.581010	0.066783	0.090214	-0.011161	0.349287	0.612662	0.444646	-0.552208
50577	-9.633628	-0.662192	-1.634232	0.030436	0.166993	-0.020487	0.349288	0.612562	0.444627	-0.552333
50578	-9.625730	-0.704187	-1.685330	0.013046	0.231831	-0.017945	0.349220	0.612498	0.444624	-0.552450
50579	-9.756084	-0.680127	-1.579168	-0.001046	0.104569	0.093199	0.349094	0.612478	0.444629	-0.552547
50580	-9.688718	-0.622743	-1.535986	0.038348	0.055208	0.016545	0.349039	0.612413	0.444604	-0.552675
50581	-9.603326	-0.658393	-1.551519	0.013268	0.098029	-0.063083	0.349099	0.612257	0.444660	-0.552765
50582	-9.572435	-0.654335	-1.709847	0.078300	0.248159	-0.070227	0.349209	0.612075	0.444798	-0.552785
50583	-9.654219	-0.631216	-1.679612	0.091008	0.199012	0.004420	0.349181	0.611993	0.444898	-0.552814
50584	-9.677539	-0.615480	-1.504070	0.041813	0.027168	0.000229	0.349127	0.611978	0.445027	-0.552760
50585	-9.696836	-0.590206	-1.400859	0.027950	-0.082526	0.002188	0.349045	0.611967	0.445179	-0.552702
50586	-9.676729	-0.619862	-1.507481	0.041656	0.027228	0.000229	0.349060	0.611851	0.445353	-0.552681
50587	-9.650737	-0.671348	-1.555837	0.013259	0.093101	-0.014768	0.349078	0.611771	0.445542	-0.552606
50588	-9.737771	-0.665022	-1.500960	0.000335	0.023732	0.062472	0.349029	0.611737	0.445730	-0.552523
50589	-9.767050	-0.627186	-1.384153	-0.006715	-0.104294	0.071319	0.349021	0.611687	0.445863	-0.552476
50590	-9.734569	-0.553620	-1.510954	0.109222	-0.009610	0.053380	0.349228	0.611508	0.446012	-0.552423
50591	-9.691709	-0.573198	-1.637017	0.137525	0.121393	0.031294	0.349360	0.611428	0.446087	-0.552367
50592	-9.654460	-0.607036	-1.658133	0.112934	0.159135	-0.000021	0.349342	0.611484	0.446084	-0.552319
50593	-9.675700	-0.627650	-1.589684	0.068325	0.100433	0.012050	0.349267	0.611526	0.445962	-0.552419
50594	-9.648105	-0.711176	-1.585082	-0.010115	0.133320	-0.010325	0.349389	0.611385	0.445954	-0.552504
50595	-9.667507	-0.767877	-1.542451	-0.077545	0.114672	0.006189	0.349666	0.611154	0.446120	-0.552450
50596	-9.663524	-0.819383	-1.601010	-0.103004	0.190347	0.014391	0.349798	0.611020	0.446146	-0.552495
50597	-9.670153	-0.775038	-1.580728	-0.068117	0.156668	0.014929	0.349789	0.610978	0.446089	-0.552592
50598	-9.684856	-0.674796	-1.669142	0.058881	0.199881	0.035886	0.349688	0.611030	0.445985	-0.552683
50599	-9.644382	-0.657011	-1.687889	0.082665	0.217748	-0.002464	0.349533	0.611146	0.445773	-0.552824
50600	-9.652247	-0.658336	-1.627277	0.059502	0.161958	-0.003633	0.349335	0.611290	0.445547	-0.552971
50601	-9.666310	-0.637683	-1.623297	0.078401	0.150068	0.008240	0.349194	0.611351	0.445279	-0.553209
50602	-9.677769	-0.712139	-1.557905	-0.013352	0.118601	0.014783	0.349191	0.611309	0.445134	-0.553374
50603	-9.636919	-0.776326	-1.560851	-0.070400	0.154402	-0.020836	0.349144	0.611277	0.444999	-0.553547
50604	-9.628655	-0.667826	-1.591093	0.044025	0.145833	-0.031821	0.348962	0.611296	0.444818	-0.553786
50605	-9.654536	-0.643123	-1.616053	0.079330	0.157578	-0.004315	0.348870	0.611268	0.444664	-0.553999
50606	-9.606225	-0.666762	-1.686370	0.085752	0.240212	-0.040128	0.348796	0.611234	0.444615	-0.554122
50607	-9.626149	-0.622822	-1.662033	0.119465	0.199079	-0.027029	0.348713	0.611228	0.444581	-0.554208
50608	-9.640286	-0.582883	-1.661913	0.158542	0.182674	-0.015835	0.348699	0.611138	0.444591	-0.554309
50609	-9.655419	-0.629378	-1.612734	0.099192	0.153113	-0.004994	0.348659	0.611095	0.444597	-0.554376
50610	-9.666500	-0.687173	-1.632080	0.054841	0.190210	0.012685	0.348560	0.611072	0.444611	-0.554453
50611	-9.668361	-0.671096	-1.520529	0.030186	0.081526	-0.002895	0.348520	0.611001	0.444670	-0.554510
50612	-9.728477	-0.688826	-1.548596	0.026798	0.104598	0.061736	0.348564	0.610889	0.444721	-0.554564
50613	-9.686451	-0.667413	-1.601382	0.068198	0.153598	0.026466	0.348637	0.610728	0.444768	-0.554657
50614	-9.671414	-0.685002	-1.635104	0.066730	0.196646	0.017670	0.348898	0.610442	0.444891	-0.554710
50615	-9.578648	-0.696104	-1.634430	0.057614	0.217656	-0.073297	0.348982	0.610263	0.445026	-0.554746
50616	-9.621079	-0.723916	-1.657202	0.043225	0.241800	-0.026207	0.348933	0.610172	0.445169	-0.554761
50617	-9.608247	-0.623025	-1.601045	0.118253	0.153837	-0.053985	0.348849	0.610108	0.445296	-0.554782
50618	-9.668971	-0.707915	-1.585564	0.036595	0.159192	0.009608	0.348811	0.610034	0.445456	-0.554759
50619	-9.693335	-0.765664	-1.600315	-0.009000	0.188822	0.039838	0.348816	0.609908	0.445596	-0.554784
50620	-9.747204	-0.782948	-1.494919	-0.061351	0.090392	0.078918	0.348877	0.609766	0.445670	-0.554841
50621	-9.683531	-0.776386	-1.451407	-0.070253	0.060913	0.009303	0.348992	0.609624	0.445631	-0.554955
50622	-9.653793	-0.748052	-1.532609	-0.012481	0.133607	-0.010331	0.349091	0.609502	0.445560	-0.555085
50623	-9.744419	-0.752613	-1.671073	0.038561	0.252450	0.099295	0.349078	0.609378	0.445363	-0.555386
50624	-9.694006	-0.703205	-1.740088	0.113598	0.310855	0.055778	0.348988	0.609296	0.445132	-0.555719
50625	-9.571375	-0.686787	-1.822929	0.162287	0.404570	-0.054821	0.348812	0.609300	0.444848	-0.556053
50626	-9.522585	-0.725903	-1.730289	0.094110	0.345456	-0.113601	0.348669	0.609316	0.444571	-0.556345
50627	-9.613146	-0.791870	-1.666702	0.012634	0.300284	-0.028660	0.348646	0.609271	0.444457	-0.556500
50628	-9.696509	-0.792770	-1.595634	-0.012363	0.224478	0.043594	0.348771	0.609132	0.444540	-0.556509
50629	-9.670919	-0.776571	-1.494762	-0.034467	0.130648	0.002902	0.348815	0.609048	0.444662	-0.556475
50630	-9.645160	-0.761030	-1.394591	-0.056559	0.036815	-0.037791	0.348670	0.609081	0.444593	-0.556585
50631	-9.717883	-0.689692	-1.387485	0.010134	-0.007357	0.027937	0.348409	0.609162	0.444404	-0.556810
50632	-9.762384	-0.677993	-1.300437	-0.008532	-0.096416	0.058766	0.348386	0.609094	0.444254	-0.557019
50633	-9.703893	-0.624577	-1.352968	0.062298	-0.055259	0.004604	0.348451	0.608957	0.444211	-0.557162
50634	-9.746188	-0.585077	-1.418530	0.126114	-0.013355	0.052739	0.348452	0.608900	0.444113	-0.557303
50635	-9.768560	-0.674246	-1.378257	0.030558	-0.016842	0.075576	0.348540	0.608767	0.443975	-0.557502
50636	-9.593365	-0.727467	-1.516061	0.032956	0.162003	-0.074466	0.348695	0.608563	0.443882	-0.557701
50637	-9.684442	-0.665869	-1.505370	0.090400	0.121285	0.009484	0.348763	0.608386	0.443731	-0.557973
50638	-9.700376	-0.671334	-1.457827	0.071565	0.082736	0.018960	0.348765	0.608226	0.443606	-0.558246
50639	-9.758548	-0.616446	-1.483296	0.136821	0.081646	0.075894	0.348748	0.608101	0.443441	-0.558522
50640	-9.735661	-0.671349	-1.488121	0.090686	0.116283	0.057802	0.348885	0.607919	0.443217	-0.558814
50641	-9.617303	-0.855494	-1.589062	-0.041210	0.302876	-0.032295	0.349021	0.607767	0.442977	-0.559084
50642	-9.701478	-0.770767	-1.447204	-0.012275	0.136137	0.025425	0.349066	0.607639	0.442701	-0.559415
50643	-9.697723	-0.670011	-1.402171	0.067069	0.065540	0.008312	0.349084	0.607532	0.442379	-0.559773
50644	-9.725189	-0.644691	-1.307295	0.057752	-0.026933	0.020922	0.349220	0.607379	0.442096	-0.560078
50645	-9.674544	-0.739075	-1.430506	0.018191	0.135778	-0.006026	0.349298	0.607272	0.441894	-0.560305
50646	-9.656212	-0.764668	-1.450183	0.004470	0.172438	-0.019812	0.349308	0.607137	0.441634	-0.560649
50647	-9.728863	-0.689330	-1.355831	0.044150	0.055155	0.034100	0.349275	0.606984	0.441243	-0.561143
50648	-9.743023	-0.664491	-1.377716	0.080608	0.074419	0.049061	0.349473	0.606693	0.440914	-0.561594
50649	-9.734627	-0.782394	-1.325896	-0.044962	0.083766	0.042466	0.349742	0.606463	0.440601	-0.561920
50650	-9.786420	-0.784288	-1.395462	-0.017475	0.151880	0.102607	0.349934	0.606308	0.440180	-0.562297
50651	-9.821755	-0.734807	-1.469420	0.059648	0.207735	0.143179	0.349901	0.606261	0.439538	-0.562871
50652	-9.639546	-0.736125	-1.547348	0.088690	0.318444	-0.027611	0.349902	0.606169	0.438860	-0.563498
50653	-9.443351	-0.779429	-1.624619	0.078541	0.445462	-0.209606	0.349868	0.606120	0.438263	-0.564036
50654	-9.423482	-0.716154	-1.498189	0.091672	0.318023	-0.249742	0.349696	0.606148	0.437710	-0.564542
50655	-9.518341	-0.609471	-1.240614	0.095205	0.035141	-0.195043	0.349643	0.606163	0.437389	-0.564807
50656	-9.882325	-0.631652	-1.037494	0.004501	-0.188271	0.142224	0.349810	0.606008	0.437337	-0.564910
50657	-10.139768	-0.664399	-0.841450	-0.094050	-0.383247	0.375965	0.350220	0.605610	0.437255	-0.565147
50658	-10.079814	-0.832159	-0.842547	-0.245692	-0.293365	0.329233	0.351022	0.604945	0.436879	-0.565652
50659	-9.921560	-1.046703	-0.892022	-0.424031	-0.117757	0.194055	0.351945	0.604264	0.436061	-0.566436
50660	-10.077754	-1.132596	-0.679265	-0.578880	-0.264656	0.331278	0.352742	0.603738	0.434663	-0.567576
50661	-10.188746	-0.972353	-0.755416	-0.397155	-0.226068	0.440002	0.353485	0.603312	0.432787	-0.568998
50662	-9.807233	-0.760741	-0.774714	-0.201662	-0.194129	0.050486	0.354254	0.602975	0.430700	-0.570458
50663	-9.454912	-0.441694	-1.130962	0.221882	0.096620	-0.283217	0.354759	0.602996	0.428323	-0.571910
50664	-9.293981	-0.242773	-1.217232	0.431812	0.160178	-0.447518	0.355435	0.602942	0.425911	-0.573347
50665	-9.237468	-0.193579	-1.472119	0.572528	0.422093	-0.483736	0.356379	0.602675	0.424040	-0.574427
50666	-9.622653	-0.184459	-1.525251	0.604682	0.462235	-0.097932	0.357479	0.602194	0.423035	-0.574988
50667	-9.617757	-0.277433	-1.565703	0.531688	0.564945	-0.095294	0.358990	0.601268	0.423060	-0.574999
50668	-9.214207	-0.854018	-1.926974	0.134592	1.179577	-0.435340	0.360149	0.600415	0.423618	-0.574754
50669	-9.279997	-1.221544	-1.924828	-0.203435	1.319624	-0.350516	0.360568	0.599912	0.424187	-0.574598
50670	-9.612200	-1.290717	-1.585961	-0.389935	1.001606	-0.044353	0.360758	0.599489	0.424775	-0.574485
50671	-9.885444	-1.385953	-1.157190	-0.636255	0.613428	0.197349	0.360913	0.599260	0.425338	-0.574210
50672	-9.746978	-1.252683	-0.999230	-0.576849	0.423547	0.039171	0.360729	0.599364	0.425668	-0.573972
50673	-9.565747	-0.965429	-0.917970	-0.346610	0.245557	-0.163968	0.360002	0.599793	0.425834	-0.573858
50674	-9.750503	-0.758580	-0.846479	-0.178694	0.066064	0.001994	0.359149	0.600270	0.426075	-0.573714
50675	-9.956119	-0.767707	-0.854353	-0.177891	0.038418	0.207814	0.358200	0.600797	0.426209	-0.573656
50676	-9.818438	-0.673592	-0.941037	-0.056722	0.080049	0.073230	0.356746	0.601619	0.425767	-0.574029
50677	-9.492605	-0.397281	-0.790686	0.137077	-0.145035	-0.281018	0.354686	0.602745	0.424802	-0.574839
50678	-9.777327	-0.103979	-0.634386	0.354754	-0.450111	-0.031026	0.352770	0.603801	0.424002	-0.575500
50679	-10.231659	-0.125358	-0.473246	0.282835	-0.652528	0.405959	0.351510	0.604488	0.423462	-0.575947
50680	-10.020352	-0.369540	-0.680312	0.141395	-0.349361	0.230459	0.350928	0.604811	0.423040	-0.576273
50681	-9.702163	-0.717299	-0.942112	-0.074232	0.066550	-0.039043	0.350636	0.604960	0.422384	-0.576775
50682	-9.560654	-0.792445	-0.893333	-0.162018	0.074582	-0.179396	0.349736	0.605431	0.421321	-0.577605
50683	-9.898943	-0.622194	-0.705671	-0.073207	-0.198298	0.128614	0.348508	0.606159	0.420066	-0.578497
50684	-9.856910	-0.472518	-0.499380	-0.022015	-0.440211	0.058334	0.347527	0.606808	0.419043	-0.579148
50685	-9.791224	-0.414209	-0.578726	0.062083	-0.384909	-0.003378	0.346690	0.607423	0.418147	-0.579653
50686	-10.036412	-0.283034	-0.181705	0.016701	-0.819525	0.195849	0.346339	0.607762	0.417094	-0.580266
50687	-10.289278	-0.662172	0.282383	-0.520905	-1.085051	0.431271	0.347012	0.607485	0.415825	-0.581063
50688	-10.690883	-1.067900	0.834332	-1.120227	-1.412996	0.811804	0.347757	0.607352	0.413667	-0.582296
50689	-10.722190	-0.930690	1.871706	-1.451037	-2.343815	0.757804	0.349033	0.607142	0.410412	-0.584052
50690	-10.366750	-1.297332	2.327306	-1.998910	-2.470246	0.408375	0.351829	0.605904	0.406752	-0.586216
50691	-10.228010	-3.255414	0.851253	-3.129863	-0.166248	0.488241	0.353213	0.604581	0.401605	-0.590285
50692	-9.578900	-3.984045	0.257887	-3.492278	0.890814	-0.081203	0.350923	0.603815	0.394070	-0.597469
50693	-8.050279	-2.010353	0.844721	-1.967720	-0.290021	-1.712995	0.344603	0.604940	0.386620	-0.604831
50694	-10.930860	-2.018298	-2.144866	-0.351721	2.308465	1.264297	0.333770	0.607464	0.372608	-0.617048
50695	-10.837561	-0.967311	-1.539859	0.432975	1.406380	1.077208	0.327695	0.606121	0.361810	-0.627955
50696	-9.612876	-1.366382	-0.652641	-0.288815	1.050356	-0.142591	0.325079	0.603279	0.354210	-0.636327
50697	-9.383695	-2.219841	-1.527426	-0.424775	2.364070	-0.349941	0.321427	0.601842	0.348741	-0.642535
50698	-10.268273	-1.179772	-1.242059	0.456147	1.605325	0.462785	0.318981	0.598552	0.346843	-0.647832
50699	-10.068638	-0.182256	-1.016161	1.259273	0.900696	0.189558	0.319338	0.593074	0.349711	-0.651144
50700	-9.748660	0.375910	-0.303005	1.420769	0.032829	-0.156170	0.322115	0.585963	0.355435	-0.653112
50701	-9.397128	-0.125433	-0.032765	0.939886	0.111648	-0.462508	0.325560	0.578893	0.361720	-0.654257
50702	-9.180830	-1.210942	-0.264235	0.224928	0.895278	-0.594712	0.326895	0.573563	0.366850	-0.655429
50703	-8.990897	-1.546477	-0.475598	0.112609	1.235425	-0.762028	0.326298	0.569605	0.371160	-0.656750
50704	-8.588475	-1.496160	-0.553136	0.218809	1.250351	-1.170084	0.325415	0.566036	0.375169	-0.657994
50705	-8.099709	-1.314543	0.075787	0.050795	0.591483	-1.628175	0.325256	0.562637	0.379544	-0.658479
50706	-7.537461	-1.581165	-0.000598	-0.175205	0.755129	-2.150301	0.325792	0.559770	0.385499	-0.657197
50707	-8.033762	-2.218947	-0.820045	-0.215678	1.714930	-1.618209	0.325629	0.558335	0.391794	-0.654771
50708	-9.141478	-2.636961	-0.136252	-0.716198	1.220818	-0.403397	0.324487	0.558303	0.396432	-0.652570
50709	-9.536946	-2.841179	0.175993	-0.970663	0.953800	0.046532	0.322493	0.559205	0.399235	-0.651075
50710	-9.376194	-2.909222	-0.281949	-0.833734	1.319547	-0.116330	0.318461	0.561872	0.399974	-0.650310
50711	-9.115363	-2.262797	-0.267825	-0.324520	0.932633	-0.468906	0.312221	0.565976	0.399023	-0.650362
50712	-9.127979	-1.980240	0.231730	-0.327029	0.281933	-0.479516	0.306438	0.569569	0.398915	-0.650041
50713	-9.473818	-2.348664	0.917319	-0.932484	-0.233391	-0.056346	0.302235	0.572118	0.400830	-0.648592
50714	-10.304015	-2.996992	0.744445	-1.268247	0.082068	0.868733	0.299317	0.574040	0.403818	-0.646388
50715	-10.993338	-1.839993	-0.112903	0.240282	0.074355	1.331252	0.294384	0.577763	0.404609	-0.644841
50716	-11.531946	0.580668	-1.134733	2.831846	-0.459869	1.429056	0.288583	0.584605	0.403140	-0.642211
50717	-11.693530	2.698126	-0.857392	4.334226	-1.972651	1.235859	0.284481	0.593995	0.400687	-0.636938
50718	-12.026565	1.644145	1.913053	1.840287	-3.931922	1.683062	0.287859	0.598358	0.404063	-0.629156
50719	-9.496120	-1.379344	-0.007663	-0.091294	-0.486719	-0.229719	0.297092	0.595937	0.411431	-0.622349
50720	-8.392596	-2.021724	-0.441634	-0.590725	0.299567	-1.194157	0.304244	0.591744	0.420473	-0.616828
50721	-8.554178	-1.655725	-0.191332	-0.379808	-0.163424	-1.107469	0.310175	0.586909	0.429184	-0.612479
50722	-9.314390	-2.824045	-1.248412	-0.850883	1.140213	-0.103568	0.317092	0.582628	0.437731	-0.606950
50723	-9.455991	-3.301960	-2.137867	-0.941873	2.056353	0.175926	0.322912	0.580496	0.444174	-0.601216
50724	-9.772729	-2.107298	-2.137123	0.092708	1.473974	0.303264	0.323990	0.582091	0.445952	-0.597769
50725	-10.045163	-0.834350	-1.902113	1.118422	0.662966	0.362213	0.322205	0.585606	0.445091	-0.595939
50726	-10.113132	-0.405338	-1.269034	1.197761	-0.146243	0.316169	0.320566	0.588806	0.444360	-0.594213
50727	-9.869711	-0.111695	-0.523012	1.078483	-0.945257	-0.033098	0.321200	0.590134	0.445445	-0.591736
50728	-9.797557	-0.399867	-0.649783	0.827653	-0.728583	-0.047531	0.324421	0.589479	0.448602	-0.588236
50729	-9.645848	-0.614991	-1.024462	0.736781	-0.299260	-0.125708	0.327706	0.588692	0.451948	-0.584631
50730	-9.997970	-0.348149	-0.809700	0.888820	-0.673522	0.161901	0.330509	0.588400	0.455032	-0.580944
50731	-10.125633	-0.193010	-0.484695	0.879652	-1.073731	0.230908	0.332635	0.588434	0.457379	-0.577844
50732	-10.423955	-0.325447	-0.798414	0.874938	-0.803394	0.579194	0.333521	0.588780	0.458167	-0.576354
50733	-10.005031	-0.198067	-1.434835	1.180705	-0.210282	0.225257	0.333048	0.589774	0.457529	-0.576118
50734	-9.223104	0.075649	-1.239944	1.275626	-0.380243	-0.601990	0.332515	0.591256	0.457310	-0.575081
50735	-8.920467	-0.750762	-1.468824	0.558726	0.157889	-0.759586	0.332517	0.591875	0.458306	-0.573648
50736	-9.153805	-2.118162	-2.791820	-0.184185	1.797991	-0.179091	0.330786	0.592826	0.459153	-0.572989
50737	-10.788478	-1.838353	-2.103826	-0.053510	0.739734	1.306958	0.326148	0.595749	0.457791	-0.573706
50738	-11.095100	-1.408328	-1.249291	0.037563	-0.292408	1.437131	0.320692	0.599730	0.453379	-0.576132
50739	-10.602762	-1.605225	-0.941748	-0.312115	-0.412706	0.939727	0.315374	0.604334	0.447400	-0.578923
50740	-9.810514	-1.849550	-0.280828	-0.887763	-0.744992	0.107123	0.309519	0.609149	0.440495	-0.582322
50741	-9.266451	-1.807434	0.011020	-1.033070	-0.888571	-0.470467	0.304294	0.613103	0.433767	-0.585966
50742	-9.096932	-1.952576	-1.031310	-0.691842	0.165526	-0.478659	0.300001	0.615998	0.427402	-0.589809
50743	-9.272757	-1.741551	-1.704556	-0.153305	0.667468	-0.249566	0.296168	0.618122	0.421606	-0.593682
50744	-9.282851	-1.068360	-1.771363	0.494615	0.438426	-0.325146	0.292976	0.619562	0.416919	-0.597065
50745	-9.335906	-0.226158	-1.929800	1.326509	0.172964	-0.371032	0.290309	0.620864	0.413325	-0.599509
50746	-9.575168	0.061216	-1.818640	1.539104	-0.100561	-0.188962	0.288669	0.621979	0.411029	-0.600722
50747	-9.521470	-0.544546	-1.688158	0.947181	0.103233	-0.174379	0.288551	0.622507	0.410292	-0.600736
50748	-9.419613	-1.231775	-1.503195	0.248245	0.308869	-0.202852	0.288957	0.622764	0.410496	-0.600135
50749	-9.440245	-1.768536	-1.303945	-0.323539	0.399783	-0.133757	0.289328	0.622890	0.411060	-0.599439
50750	-9.670975	-1.770454	-0.869738	-0.544260	-0.017055	0.042371	0.289133	0.623187	0.411384	-0.599002
50751	-9.830051	-1.466312	-0.471032	-0.484784	-0.544423	0.110539	0.289179	0.623223	0.411796	-0.598659
50752	-9.900124	-1.187985	-0.549983	-0.205980	-0.634674	0.151298	0.289783	0.623066	0.412460	-0.598073
50753	-9.925032	-1.089774	-0.791683	-0.002995	-0.483658	0.191646	0.290567	0.622912	0.412839	-0.597591
50754	-9.890401	-1.213049	-1.031859	0.003265	-0.206827	0.202973	0.291347	0.622892	0.412750	-0.597294
50755	-10.072119	-1.413313	-0.921839	-0.226696	-0.221887	0.394867	0.291894	0.623132	0.412144	-0.597195
50756	-9.949603	-1.561059	-1.397996	-0.129650	0.291559	0.350188	0.292397	0.623468	0.411240	-0.597221
50757	-9.765623	-1.629631	-1.295754	-0.263744	0.288193	0.164756	0.293277	0.623671	0.410253	-0.597257
50758	-9.565898	-1.939079	-1.918365	-0.236249	1.029688	0.078238	0.294773	0.623480	0.409574	-0.597185
50759	-9.050619	-1.710822	-2.640806	0.292704	1.646375	-0.377744	0.296306	0.622911	0.408732	-0.597598
50760	-9.087027	-1.367618	-2.053233	0.280256	1.001845	-0.454383	0.298668	0.621971	0.408752	-0.597387
50761	-9.397761	-1.372358	-2.724795	0.622497	1.556834	-0.075412	0.299215	0.621810	0.407906	-0.597860
50762	-10.160836	-0.547018	-1.985196	0.993840	0.422176	0.498317	0.299798	0.621557	0.406930	-0.598494
50763	-9.840926	0.123501	-1.954966	1.548686	0.154107	0.099856	0.301937	0.619800	0.406316	-0.599657
50764	-9.690344	0.233942	-1.832769	1.590541	0.079865	-0.077189	0.305324	0.617077	0.406702	-0.600488
50765	-9.776831	0.564403	-0.464370	1.218965	-1.208965	-0.160081	0.309247	0.614004	0.408332	-0.600524
50766	-9.727231	0.286828	0.394339	0.592343	-1.751726	-0.250428	0.316938	0.608319	0.413462	-0.598789
50767	-8.343133	-0.051637	-1.116630	0.959710	-0.031208	-1.449968	0.326163	0.601848	0.420542	-0.595433
50768	-8.761849	-0.226304	-0.931233	0.751541	-0.128995	-1.031633	0.334261	0.595955	0.428660	-0.591065
50769	-10.212402	-1.059121	0.486981	-0.486708	-1.243839	0.378866	0.342843	0.589457	0.438721	-0.585256
50770	-10.428336	-1.997791	1.558485	-1.707643	-1.941673	0.602850	0.349242	0.584146	0.447014	-0.580501
50771	-10.386021	-1.019637	2.082976	-0.938051	-2.828537	0.403320	0.354317	0.579493	0.453501	-0.577048
50772	-10.562436	0.642172	1.122419	1.033421	-2.534102	0.470660	0.358229	0.575138	0.458256	-0.575230
50773	-10.436683	0.616145	0.886840	1.140908	-2.260987	0.369471	0.361542	0.571194	0.461441	-0.574540
50774	-10.567307	-0.027336	1.385735	0.439230	-2.499863	0.538463	0.364943	0.567227	0.463935	-0.574311
50775	-9.875958	-1.396426	-0.431920	-0.289307	-0.227365	0.164050	0.368930	0.563115	0.464963	-0.574980
50776	-9.150975	-2.506023	-0.706371	-1.297538	0.503421	-0.400878	0.371261	0.560513	0.464612	-0.576304
50777	-8.925008	-2.089689	0.334334	-1.221094	-0.534661	-0.737606	0.370579	0.559475	0.462642	-0.579328
50778	-9.296590	-0.387859	0.728348	0.331780	-1.428746	-0.595528	0.366397	0.560362	0.459816	-0.583367
50779	-9.580576	1.444643	0.005705	2.354879	-1.342220	-0.510682	0.362827	0.560462	0.456982	-0.587713
50780	-9.547021	2.515449	0.203058	3.325711	-1.880255	-0.706730	0.358477	0.560942	0.453936	-0.592267
50781	-9.563007	1.572190	0.415883	2.421110	-1.768823	-0.587449	0.357596	0.558818	0.455312	-0.593749
50782	-10.010357	1.838843	-0.064012	2.955322	-1.459480	-0.183147	0.354599	0.557132	0.457125	-0.595736
50783	-9.907021	2.368900	-0.579914	3.693881	-1.142544	-0.370963	0.356251	0.552361	0.462160	-0.595308
50784	-10.095748	2.207144	-2.240580	4.196270	0.496089	-0.119365	0.358954	0.546876	0.468718	-0.593618
50785	-10.036718	1.077742	-1.849771	3.062519	0.531339	-0.032248	0.363956	0.539320	0.477371	-0.590582
50786	-9.889848	0.263726	-1.910047	2.339075	0.871386	-0.050711	0.368971	0.531898	0.486855	-0.586445
50787	-9.761330	-0.389383	-1.388625	1.591524	0.547736	-0.090015	0.372822	0.526256	0.495589	-0.581764
50788	-9.499959	-1.656938	-2.759526	0.691666	2.150930	-0.040056	0.375659	0.521787	0.503989	-0.576726
50789	-8.944614	-1.798586	-1.252267	0.122571	0.699716	-0.630965	0.376201	0.518698	0.510685	-0.573259
50790	-9.302178	-2.606395	-1.755532	-0.432724	1.246691	-0.083168	0.375408	0.515235	0.516372	-0.571806
50791	-9.412395	-2.075623	-1.339148	0.080472	0.670407	-0.105058	0.374473	0.511274	0.521824	-0.571024
50792	-9.640214	-1.088105	-1.906941	1.258041	0.975042	-0.054600	0.374392	0.507038	0.528002	-0.569172
50793	-9.844731	-2.158336	-2.281206	0.400245	1.457153	0.409699	0.375505	0.501989	0.534361	-0.566975
50794	-9.039558	-3.883240	-4.567695	-0.984999	4.016755	0.214883	0.376289	0.496362	0.540298	-0.565782
50795	-8.794764	-4.138342	-5.216418	-1.150105	4.658572	0.120040	0.376402	0.490825	0.547403	-0.563705
50796	-8.286882	-4.282218	-4.932014	-1.429735	4.354595	-0.308674	0.375929	0.485612	0.556268	-0.559844
50797	-7.456494	-5.001399	-4.324603	-2.396255	3.781663	-0.909355	0.375852	0.479562	0.567248	-0.554064
50798	-7.048275	-5.495368	-3.581752	-3.033280	2.958482	-1.166931	0.372812	0.475625	0.577272	-0.549135
50799	-7.622545	-4.449610	-2.181294	-1.946429	1.254002	-1.020861	0.367599	0.473358	0.585637	-0.545740
50800	-9.188872	-3.169085	-2.148991	-0.181674	0.757209	0.111390	0.361373	0.471931	0.592519	-0.543702
50801	-10.622651	-1.697506	-1.322862	1.685420	-0.507038	0.881771	0.353931	0.471727	0.597299	-0.543544
50802	-10.642278	0.676870	0.150816	3.914221	-2.189832	-0.136950	0.346173	0.472043	0.600749	-0.544463
50803	-11.825994	1.938726	1.565811	5.436054	-3.976288	0.222261	0.339970	0.470783	0.605015	-0.544740
50804	-12.458486	2.052096	2.226532	5.822277	-4.811002	0.547535	0.336651	0.465622	0.610426	-0.545200
50805	-12.774334	2.773460	2.981751	6.719538	-5.600865	0.348000	0.335684	0.457961	0.615422	-0.546667
50806	-13.597233	5.230879	5.653638	9.293516	-8.265350	-0.351627	0.340286	0.447023	0.621289	-0.546238
50807	-14.850975	4.822355	6.723087	9.659820	-9.166411	0.753051	0.352931	0.431317	0.629252	-0.541708
50808	-16.484261	1.014168	6.394102	7.192530	-8.735422	3.809587	0.369029	0.413769	0.636653	-0.535990
50809	-18.286218	-1.485015	7.719581	6.004067	-9.905871	6.372402	0.384343	0.396931	0.637570	-0.536871
50810	-16.723450	0.087222	9.896644	7.316735	-10.972197	4.456077	0.402247	0.377652	0.630375	-0.546080
50811	-13.476304	2.117224	8.024860	8.012084	-7.825515	1.365921	0.426454	0.356499	0.620413	-0.553293
50812	-10.022095	1.921051	1.590034	5.717747	-0.776675	-1.249425	0.450897	0.341354	0.607730	-0.557524
50813	-11.915263	-1.388671	-4.346723	2.082198	5.393078	1.559224	0.475806	0.331926	0.590747	-0.560761
50814	-14.656648	-5.076893	-5.449086	-1.211008	6.977726	5.021088	0.500567	0.319786	0.573922	-0.563722
50815	-13.589981	-0.648600	-1.825054	2.776904	4.625123	2.807759	0.523875	0.309740	0.556171	-0.565942
50816	-13.579469	4.843909	-0.412586	7.697208	4.832724	1.383892	0.549979	0.300288	0.541665	-0.560312
50817	-15.058638	4.023511	0.930241	6.883980	4.575799	3.430582	0.581605	0.286794	0.533042	-0.543461
50818	-15.042359	-0.997422	-2.013386	0.385496	6.646092	3.858809	0.612909	0.272678	0.523424	-0.525373
50819	-12.832329	-3.700589	-4.035426	-3.983258	7.136748	1.490817	0.640832	0.265097	0.505853	-0.513002
50820	-11.416090	-1.761524	-2.595767	-2.493315	6.143238	-0.006456	0.664719	0.263594	0.486408	-0.502070
50821	-10.266292	0.035659	-2.061757	-1.266278	5.989018	-1.319072	0.686663	0.264312	0.467725	-0.489761
50822	-8.301488	1.605630	-1.104500	0.138360	5.063590	-2.954778	0.708071	0.262786	0.452582	-0.474076
50823	-7.881518	1.702831	-1.798099	-0.483523	5.550281	-3.714259	0.728672	0.259410	0.440919	-0.455339
50824	-7.797187	1.783810	-2.171502	-1.044318	5.857634	-4.044745	0.748814	0.253633	0.432378	-0.433586
50825	-7.739034	2.074880	-2.036864	-1.228449	5.848046	-4.101689	0.768212	0.245285	0.427222	-0.408861
50826	-7.023194	1.666289	-1.843245	-1.759438	5.124251	-4.701255	0.787226	0.232453	0.425624	-0.380901
50827	-5.678778	1.053738	-1.000408	-1.766630	3.541787	-5.490089	0.804460	0.216816	0.426756	-0.351730
50828	-4.963248	0.146122	-0.132024	-1.959034	1.997520	-5.708893	0.818391	0.199999	0.431370	-0.322733
50829	-4.930932	-1.179531	0.334470	-2.709331	0.613800	-5.558580	0.828412	0.183516	0.439027	-0.295483
50830	-5.060491	-2.373165	1.295058	-2.903190	-0.963356	-4.959118	0.834442	0.165894	0.450144	-0.271212
50831	-5.689175	-2.625494	1.333047	-3.124887	-1.156561	-4.342160	0.837731	0.141253	0.466187	-0.246829
50832	-6.912350	-3.158655	2.298523	-2.944992	-1.820107	-2.668555	0.839134	0.108200	0.484103	-0.223137
50833	-8.139244	-4.746365	2.402976	-3.653133	-2.937958	-1.295848	0.838865	0.068137	0.501644	-0.200042
50834	-9.218663	-6.669008	2.269688	-4.331806	-4.315466	0.044745	0.835942	0.029919	0.517411	-0.180532
50835	-12.033365	-7.910976	2.669438	-4.752417	-4.689036	3.220702	0.829909	-0.002911	0.532501	-0.166390
50836	-13.766999	-7.453925	5.893151	-1.618721	-4.051419	6.334050	0.822934	-0.030159	0.545269	-0.156694
50837	-12.704266	-4.426521	11.477413	5.124647	-1.622382	7.032714	0.820802	-0.057780	0.550149	-0.142412
50838	-6.711683	-6.397023	8.536403	4.634036	-4.373047	1.058530	0.820263	-0.091206	0.552210	-0.117961
50839	-9.418777	-8.084327	8.019338	3.427982	-4.732878	3.759862	0.820579	-0.107754	0.552238	-0.100365
50840	-9.206520	0.000771	-0.912966	-4.227656	2.429659	-1.950701	0.821728	-0.105351	0.553601	-0.084798
50841	-15.683084	-7.970990	-16.876868	-21.539172	-5.386710	0.250688	0.821367	-0.108941	0.556379	-0.062694
50842	-10.723776	-1.573637	-3.254031	-7.159667	0.520381	-1.065641	0.835099	-0.074963	0.540198	-0.071951
50843	-22.595543	8.802529	26.925315	15.711131	14.085492	19.644676	0.839647	-0.070455	0.534156	-0.068600
50844	-14.494077	2.816343	-15.250801	-19.922661	4.440936	-3.994524	0.843095	-0.100034	0.525857	-0.051568
50845	-2.712682	1.905890	-9.335846	-9.590188	1.430441	-11.844970	0.844690	-0.097405	0.523371	-0.055616
50846	-5.868344	-5.061521	-1.286120	-3.652279	-3.929245	-4.074288	0.842905	-0.113161	0.524097	-0.045040
50847	-10.511219	-0.148694	0.296419	-4.302321	1.945978	-0.416067	0.837655	-0.120415	0.531314	-0.039246
50848	-14.075219	4.249676	-0.294907	-6.480657	6.799752	1.501982	0.833365	-0.125969	0.537060	-0.034652
50849	-12.999654	1.965336	0.071153	-5.479625	4.421561	1.290556	0.829451	-0.138802	0.540470	-0.025249
50850	-10.329003	-7.152235	-1.361685	-4.604252	-5.176179	0.756008	0.825719	-0.149990	0.543579	-0.014628
50851	-9.728947	-7.289996	-0.406152	-3.255419	-5.243807	0.668904	0.822736	-0.152590	0.547467	-0.010129
50852	-9.322709	-5.160421	-0.361979	-3.250021	-3.303171	-0.210607	0.820967	-0.149490	0.550965	-0.010173
50853	-8.845517	-1.724076	1.081963	-2.176324	0.199376	-1.003048	0.819429	-0.144318	0.554566	-0.012833
50854	-9.561960	-1.026321	1.626656	-1.988044	1.103731	-0.327979	0.818375	-0.141272	0.556841	-0.015242
50855	-9.377613	-1.136130	1.320168	-2.153735	0.903234	-0.565048	0.817941	-0.139955	0.557761	-0.016931
50856	-8.868702	-2.131650	0.806753	-2.309689	-0.245962	-0.955290	0.818141	-0.139019	0.557666	-0.018097
50857	-8.832945	-2.596169	1.686116	-1.445398	-0.524806	-0.580171	0.818702	-0.137060	0.557268	-0.019858
50858	-9.912568	-1.606310	3.611959	-0.218360	0.991352	0.810629	0.820019	-0.133661	0.556023	-0.023293
50859	-10.484885	-0.645623	4.446854	0.169379	2.159044	1.387011	0.822804	-0.130127	0.552551	-0.027344
50860	-9.729342	-0.075955	3.144974	-0.895781	2.323336	0.104731	0.826674	-0.126916	0.547267	-0.031650
50861	-8.975867	-0.212236	1.765511	-1.980320	1.816052	-1.065869	0.831430	-0.123859	0.540468	-0.035754
50862	-8.513560	0.411930	1.516575	-2.199818	2.292998	-1.759638	0.836720	-0.120160	0.532789	-0.039962
50863	-8.890112	0.514389	0.863100	-3.093641	2.372204	-1.760118	0.841988	-0.115557	0.525056	-0.044933
50864	-9.367956	-0.342544	-0.017228	-4.204039	1.531564	-1.575331	0.847262	-0.110537	0.517067	-0.050688
50865	-10.659868	-1.260503	-1.352309	-6.106921	0.776776	-0.916078	0.851253	-0.107733	0.510524	-0.055927
50866	-11.775663	-1.834554	-4.641569	-9.639682	0.146892	-1.408598	0.853250	-0.105905	0.506973	-0.061054
50867	-15.160620	-0.102568	-5.789333	-12.283677	2.571416	0.476488	0.853574	-0.100874	0.506555	-0.068105
50868	-19.678622	-2.225608	-7.369126	-15.828611	1.606816	4.093060	0.852485	-0.097379	0.507882	-0.076434
50869	-19.376231	-7.893124	-8.860335	-17.174328	-3.742474	4.584171	0.849985	-0.098490	0.510673	-0.083892
50870	-10.643049	-10.586115	-10.348191	-14.679577	-8.197509	-2.761611	0.846378	-0.088597	0.516439	-0.095312
50871	-5.064626	-7.930761	-9.407681	-11.416450	-6.464285	-7.603837	0.834687	-0.065623	0.534704	-0.114380
50872	-12.340682	-3.515757	5.332526	-0.155540	-0.399582	4.074658	0.815780	-0.040608	0.559839	-0.139407
50873	-21.768993	-1.491311	20.265575	11.483721	2.557643	17.543709	0.810408	-0.040397	0.564682	-0.150801
50874	-18.181180	-4.142191	22.798939	14.412006	-0.834280	15.858818	0.816133	-0.053416	0.555956	-0.148281
50875	-16.214948	-7.864512	16.464760	7.775233	-4.130334	12.952196	0.826830	-0.043102	0.538814	-0.155476
50876	-7.354180	-3.879869	9.564361	4.667644	-2.808449	1.625265	0.835186	-0.004178	0.518152	-0.184295
50877	-0.147926	-1.225477	7.431096	5.773283	-2.836953	-5.899897	0.840467	0.036004	0.496751	-0.213440
50878	4.945067	5.026574	-2.729533	2.120611	3.759404	-16.017790	0.838255	0.082369	0.481717	-0.241853
50879	0.527913	7.714973	-10.263807	-3.494205	10.656544	-16.081069	0.826789	0.115479	0.484147	-0.262082
50880	-4.622551	2.386872	-12.736912	-9.664161	9.518170	-12.101180	0.811599	0.135475	0.494617	-0.279836
50881	-3.889856	-1.248138	-8.761431	-8.346472	4.852356	-10.277937	0.795821	0.146938	0.505873	-0.298615
50882	-5.874646	-3.814179	-2.888010	-6.163372	0.620233	-5.451971	0.781009	0.145482	0.519517	-0.314583
50883	-3.962854	-5.924860	-2.681077	-6.713424	-1.560847	-6.576226	0.766258	0.134199	0.535876	-0.328139
50884	-6.860516	-7.391870	-6.880238	-11.094216	1.031606	-4.828892	0.744226	0.131951	0.555476	-0.346644
50885	-11.441585	-6.133499	-8.999084	-11.862275	5.399629	-0.895813	0.717618	0.137284	0.573402	-0.370658
50886	-15.778048	-4.214077	-7.653063	-8.765436	8.079631	3.713778	0.687582	0.146754	0.589613	-0.397556
50887	-17.509587	-5.102001	-3.551992	-5.228695	5.752864	7.058567	0.657284	0.155784	0.605819	-0.420348
50888	-17.579765	-10.221492	4.381570	-2.556401	-3.064227	10.599897	0.621454	0.168863	0.627825	-0.437169
50889	-19.827698	-12.458297	-4.929050	-8.406932	3.321301	12.340014	0.593137	0.172951	0.646190	-0.448012
50890	-19.221837	-5.639806	-15.300693	-7.873493	15.228833	8.655209	0.558108	0.203121	0.648225	-0.476510
50891	-20.513235	4.041188	-4.882113	7.790290	10.891106	6.956626	0.513815	0.250640	0.629607	-0.526088
50892	-16.597956	11.612027	-0.522161	16.165778	6.638897	0.415717	0.470018	0.291471	0.604857	-0.572953
50893	-14.357426	8.983481	-0.028933	13.876136	3.397497	-0.727349	0.433940	0.318343	0.591330	-0.600568
50894	-12.326974	7.226774	-0.382971	11.793349	2.069339	-2.011524	0.402472	0.340988	0.579290	-0.621423
50895	-11.924305	8.968024	1.436313	13.364655	-0.862302	-3.087457	0.376136	0.361916	0.569071	-0.635371
50896	-10.908876	8.129147	1.712241	12.046527	-2.088636	-3.610028	0.354219	0.383524	0.557222	-0.645710
50897	-9.311035	4.762067	-0.303315	8.427066	-0.399908	-3.627286	0.334764	0.406488	0.539969	-0.656608
50898	-7.441193	0.754226	-0.547822	4.031216	0.221581	-3.493377	0.315431	0.430243	0.520833	-0.666429
50899	-7.605526	-3.313670	-3.688428	1.429011	4.148699	-1.864646	0.294957	0.452861	0.501780	-0.675378
50900	-7.297897	-3.394669	-6.982562	2.665632	7.194724	-2.420514	0.271618	0.474499	0.476991	-0.688153
50901	-8.700254	-3.250979	-7.384323	4.117976	7.164756	-1.300789	0.240279	0.499099	0.446442	-0.702749
50902	-12.811913	0.971819	-0.399496	5.764415	-1.820785	1.531030	0.205941	0.522090	0.415590	-0.715748
50903	-14.331866	14.009611	6.378972	10.944706	-15.704618	-1.113421	0.178852	0.543274	0.386541	-0.723500
50904	-19.736395	11.674509	10.534872	7.285755	-18.647870	5.546169	0.174817	0.555357	0.370721	-0.723590
50905	-15.272096	-2.689406	1.230389	2.217495	-1.434353	5.517095	0.163020	0.562683	0.347012	-0.732390
50906	-14.078634	5.540784	7.217168	2.383802	-11.014339	2.595729	0.146983	0.568046	0.324121	-0.742068
50907	-14.018864	6.708424	6.629677	3.051242	-11.372741	2.304230	0.138830	0.570114	0.306769	-0.749393
50908	-11.988498	5.906748	2.764080	4.701482	-7.964982	0.222305	0.129754	0.569778	0.283825	-0.760237
50909	-10.629658	2.157515	1.743190	3.079419	-4.001332	-0.056423	0.125112	0.564817	0.264017	-0.771766
50910	-10.172474	-2.076483	2.940728	0.034835	-0.835609	0.945135	0.123466	0.557419	0.252239	-0.781291
50911	-9.637489	-1.343675	1.747082	1.370057	-0.560550	-0.038173	0.120667	0.549399	0.240834	-0.790948
50912	-8.400451	0.532900	0.467515	2.983128	-1.275727	-2.031901	0.117801	0.541593	0.229638	-0.800042
50913	-7.564835	2.321477	1.494823	2.724661	-3.187424	-2.937697	0.116617	0.533742	0.223854	-0.807100
50914	-7.876038	2.304490	2.330930	2.293077	-3.525411	-2.390627	0.118601	0.525672	0.224153	-0.812009
50915	-8.144978	-0.289500	2.715277	1.156764	-1.410604	-1.418227	0.124307	0.516836	0.229388	-0.815358
50916	-8.078987	-3.619596	4.039828	-1.227031	0.822226	-0.194533	0.130430	0.509215	0.235559	-0.817435
50917	-9.248842	-6.001619	7.375467	-4.245248	1.086477	2.707448	0.135327	0.502816	0.239561	-0.819435
50918	-8.212254	-8.248540	6.642269	-5.035421	3.452891	2.116991	0.136552	0.496185	0.235707	-0.824376
50919	-7.141203	-8.398588	4.832064	-4.015255	4.773249	0.480996	0.130109	0.492095	0.220557	-0.832027
50920	-6.848878	-6.494064	2.987586	-1.672267	4.340947	-1.074763	0.120679	0.489974	0.200317	-0.839783
50921	-7.279625	-3.655579	3.315711	-0.420818	1.925520	-1.241813	0.113932	0.488431	0.183111	-0.845532
50922	-5.960987	-1.190530	4.032099	-0.662930	-0.453319	-2.562714	0.111340	0.486717	0.172925	-0.849003
50923	-4.777895	-0.312561	4.708670	-1.462833	-1.463160	-3.423896	0.111695	0.486076	0.169669	-0.849980
50924	-4.506767	-0.403856	4.978856	-1.835865	-1.463099	-3.507771	0.112586	0.485100	0.169155	-0.850523
50925	-3.592216	-0.707482	5.089683	-2.470995	-1.246478	-4.186866	0.113619	0.483581	0.169744	-0.851133
50926	-3.980273	-2.141884	4.598709	-2.384773	0.285478	-3.828569	0.112517	0.484130	0.167743	-0.851364
50927	-4.666004	-2.173804	4.641496	-2.100537	0.376472	-3.218321	0.107026	0.487364	0.159280	-0.851852
50928	-4.848327	-3.406658	7.232923	-4.528118	0.701520	-1.662341	0.100554	0.491476	0.149986	-0.851965
50929	-5.154052	-6.221317	7.465265	-5.469629	3.441121	-0.911126	0.093169	0.496796	0.141116	-0.851234
50930	-6.551351	-4.348768	6.716171	-3.709648	2.082056	-0.387258	0.086913	0.507243	0.133781	-0.846908
50931	-11.037904	-4.491768	7.389172	-2.492224	2.172012	3.813328	0.083751	0.520794	0.125583	-0.840231
50932	-13.389812	-7.790471	4.055829	0.226544	6.444724	4.844626	0.079573	0.531392	0.116079	-0.835354
50933	-7.553978	-2.876293	2.448683	0.200983	2.166625	-1.652207	0.072589	0.545536	0.108663	-0.827837
50934	-10.046770	-3.086752	-5.028680	7.634010	4.095222	-2.022410	0.056111	0.563697	0.091599	-0.818967
50935	-10.340387	3.186122	-0.066312	4.053903	-3.298538	-0.339754	0.041072	0.582149	0.075329	-0.808542
50936	-14.911309	5.168568	-0.501506	5.529230	-5.419349	3.946378	0.025499	0.598850	0.056362	-0.798469
50937	-15.530847	7.174576	-1.550606	6.231707	-7.382028	4.390358	0.021356	0.611243	0.047879	-0.789705
50938	-14.112322	6.022721	2.407553	1.503514	-6.521448	4.202478	0.025443	0.621559	0.045315	-0.781642
50939	-13.188035	1.452668	-0.682329	3.570113	-1.553438	2.888991	0.031472	0.630532	0.045860	-0.774168
50940	-12.350918	-2.333027	-1.801371	3.831686	2.432021	2.046009	0.036179	0.639057	0.045451	-0.766963
50941	-11.518876	-3.778922	-1.231153	2.701040	3.886641	1.415529	0.037105	0.648463	0.040747	-0.759248
50942	-9.868661	-4.336074	-1.258922	2.196513	4.493803	-0.181762	0.034476	0.658766	0.032192	-0.750868
50943	-8.645145	-4.116030	-1.083576	1.729793	4.285150	-1.357025	0.028402	0.669311	0.020377	-0.742160
50944	-8.222380	-2.759980	-0.717052	1.287677	2.920229	-1.716254	0.016345	0.679932	0.004140	-0.733081
50945	-7.876029	-1.150153	-1.574752	2.029557	1.289860	-2.063525	0.000682	0.689026	-0.012448	-0.724629
50946	-8.680838	-0.876903	-2.075648	2.417440	0.917185	-1.225173	-0.016964	0.696583	-0.027369	-0.716753
50947	-9.765228	-0.988020	-3.009400	3.226391	0.791430	-0.099352	-0.039620	0.703176	-0.044828	-0.708494
50948	-10.400776	-0.156098	-2.652301	2.586920	-0.230893	0.602731	-0.065061	0.707546	-0.063029	-0.700837
50949	-10.296005	-1.042095	-4.614310	4.496591	-0.049339	0.586752	-0.092501	0.710342	-0.084563	-0.692608
50950	-9.319183	-1.083252	-2.741332	2.609096	0.157296	-0.394733	-0.119435	0.709314	-0.106364	-0.686510
50951	-9.703806	-1.146037	-1.221528	1.121240	0.475254	-0.041164	-0.154247	0.706393	-0.133737	-0.677740
50952	-11.343778	1.814518	-2.589738	0.889973	-3.041477	1.528495	-0.189646	0.701212	-0.159276	-0.668557
50953	-9.877951	6.676363	-4.357635	-0.453678	-8.295228	-0.218406	-0.228939	0.693764	-0.186746	-0.656813
50954	-9.631000	11.396326	-1.046585	-6.773235	-10.108485	-1.119844	-0.264137	0.686713	-0.210756	-0.643614
50955	-9.015920	11.657055	0.096820	-8.629198	-9.045327	-2.013405	-0.292159	0.680908	-0.230298	-0.630849
50956	-8.476137	6.646088	3.256329	-7.879949	-2.771899	-2.274369	-0.312772	0.676136	-0.244724	-0.620584
50957	-7.723225	1.912613	3.080231	-4.383893	0.645215	-2.521942	-0.331928	0.672701	-0.259916	-0.608063
50958	-7.712541	0.557197	3.544890	-3.679570	2.049088	-2.422149	-0.352926	0.668623	-0.273513	-0.594624
50959	-7.327821	-1.996622	3.324225	-1.420324	3.468764	-2.417882	-0.379923	0.661110	-0.287045	-0.579825
50960	-9.714977	4.597134	2.120127	-6.668852	-1.090431	-1.191205	-0.411110	0.651228	-0.302987	-0.561328
50961	-15.656166	15.871769	1.942371	-17.712171	-6.635379	2.146330	-0.425712	0.649526	-0.303164	-0.552247
50962	-15.257594	6.451873	-1.094345	-8.229612	-5.238553	3.619431	-0.415562	0.659087	-0.280819	-0.560405
50963	-10.786466	-13.725651	-8.224746	13.282801	-1.237938	4.130614	-0.410457	0.662272	-0.265082	-0.568025
50964	-7.471325	-18.372403	-11.078921	19.286117	-0.966677	2.154067	-0.419248	0.658969	-0.265655	-0.565171
50965	-10.219248	-13.002389	-6.239763	11.611360	-0.199849	3.512263	-0.428039	0.659300	-0.268635	-0.556724
50966	-12.695424	-15.533411	-3.771117	11.747561	2.638716	6.670900	-0.433927	0.660406	-0.273732	-0.548308
50967	-13.939405	-12.549993	0.456796	6.837579	4.531684	7.060832	-0.450062	0.656278	-0.286034	-0.533786
50968	-10.234574	-3.126356	2.286651	-1.071477	2.314332	0.828959	-0.469667	0.649480	-0.296518	-0.519294
50969	-8.905831	-2.437023	3.381371	-1.727676	3.152044	-0.660294	-0.482585	0.645349	-0.303198	-0.508632
50970	-8.578311	-0.716845	2.451549	-2.823455	1.721039	-1.495387	-0.493527	0.640872	-0.307949	-0.500881
50971	-7.470691	2.147516	0.520429	-4.424077	-0.891661	-3.462400	-0.500014	0.638057	-0.309599	-0.497008
50972	-6.928583	1.646199	0.131052	-3.708762	-1.053702	-3.823767	-0.501493	0.637731	-0.308790	-0.496440
50973	-6.853788	0.417414	1.581633	-3.058953	0.671564	-3.500647	-0.500242	0.638903	-0.304992	-0.498538
50974	-6.750880	-1.472242	3.024930	-1.854061	2.593393	-2.976873	-0.494775	0.643162	-0.298106	-0.502666
50975	-7.760981	-3.870136	3.908184	-0.459142	4.088438	-1.236137	-0.488124	0.648236	-0.290378	-0.507154
50976	-8.214641	-4.585072	4.132991	-0.172693	4.492719	-0.573119	-0.483921	0.650922	-0.283326	-0.511710
50977	-7.824463	-4.177511	3.801175	-0.334160	4.048674	-1.059459	-0.483019	0.650324	-0.279211	-0.515571
50978	-7.303703	-3.392638	3.377242	-0.678475	3.373438	-1.786551	-0.483034	0.647663	-0.276364	-0.520416
50979	-6.457116	-3.588776	1.300148	0.623617	1.588941	-2.508601	-0.482711	0.643686	-0.272802	-0.527482
50980	-5.966970	-4.404507	-1.069822	2.511399	-0.262147	-2.757759	-0.483047	0.638650	-0.269497	-0.534943
50981	-5.851422	-4.387614	-1.693939	2.873530	-0.892945	-2.934909	-0.484643	0.632703	-0.266946	-0.541801
50982	-6.085180	-3.380748	-0.645842	1.585568	-0.450141	-3.018710	-0.485610	0.626813	-0.265211	-0.548590
50983	-6.663184	-2.678552	0.252503	0.541739	-0.084819	-2.647868	-0.484135	0.621955	-0.264081	-0.555920
50984	-7.327032	-3.028541	0.012484	0.898004	-0.331962	-1.942504	-0.479522	0.618884	-0.263382	-0.563624
50985	-8.870584	-4.083197	-1.032485	2.059977	-1.157772	-0.281709	-0.473180	0.616801	-0.262837	-0.571466
50986	-11.385157	-6.161877	-0.463894	3.268357	-0.281463	2.718855	-0.464836	0.614749	-0.260844	-0.581353
50987	-13.837189	-6.915969	-0.303757	3.659523	-0.262677	5.217899	-0.455786	0.611081	-0.260614	-0.592385
50988	-16.577290	-7.276042	1.435021	3.087646	0.941445	8.058123	-0.446032	0.606436	-0.264242	-0.602882
50989	-17.644042	-11.611637	2.914824	6.359567	4.238837	10.092136	-0.432906	0.605331	-0.266070	-0.612677
50990	-17.225954	-14.281885	-1.682039	11.323274	2.088078	9.446862	-0.422013	0.605599	-0.270932	-0.617860
50991	-14.823763	-9.928923	-8.433020	11.543688	-4.942093	5.410614	-0.413028	0.606741	-0.272164	-0.622254
50992	-11.044205	-7.474255	-3.452775	7.313418	-1.165342	1.802599	-0.414654	0.602517	-0.276910	-0.623182
50993	-6.810761	-2.469148	-0.795640	2.023041	-0.654224	-2.841647	-0.412066	0.604359	-0.275645	-0.623676
50994	-5.208344	3.184622	-1.801338	-2.134124	-4.053913	-5.394013	-0.407222	0.608895	-0.271109	-0.624433
50995	-5.252890	2.378546	2.167967	-3.565382	-0.371790	-4.802754	-0.396500	0.615679	-0.261321	-0.628839
50996	-10.293718	2.595697	4.558620	-5.529072	0.463321	0.320920	-0.381645	0.625495	-0.247730	-0.633825
50997	-15.019324	3.818715	3.385980	-6.177011	-2.230882	4.626377	-0.367011	0.631218	-0.232338	-0.642562
50998	-11.274047	3.553454	-1.360741	-2.534024	-5.240893	0.564667	-0.358083	0.630531	-0.226511	-0.650308
50999	-9.772523	8.403699	0.781092	-7.322763	-6.455638	-1.360951	-0.350742	0.629272	-0.230434	-0.654138
51000	-9.812160	9.621352	2.019371	-8.847233	-6.337662	-1.182670	-0.334335	0.632552	-0.229367	-0.659916
51001	-10.788981	7.665121	3.382031	-8.087563	-4.312577	0.315349	-0.309275	0.640494	-0.221852	-0.667007
51002	-11.544270	8.061643	1.473873	-6.691514	-6.159784	1.036161	-0.282307	0.648965	-0.212484	-0.673793
51003	-11.725766	9.848572	1.985802	-7.738814	-7.410475	1.303786	-0.246584	0.658400	-0.195007	-0.683870
51004	-11.727163	4.867774	-3.393485	0.268980	-6.700986	1.488026	-0.203763	0.667755	-0.168806	-0.695765
51005	-9.987591	1.419480	-4.930877	3.957709	-4.030355	-0.110781	-0.159780	0.676202	-0.134415	-0.706509
51006	-6.710883	-3.418251	-9.745658	10.531808	-0.587683	-3.463650	-0.118609	0.682621	-0.095625	-0.714714
51007	-5.442478	-3.449797	-10.151618	10.881239	0.526420	-4.733625	-0.083437	0.687416	-0.057728	-0.719142
51008	-4.063192	-2.904262	-9.802648	10.264436	1.156957	-6.036798	-0.051536	0.692683	-0.020239	-0.719114
51009	-3.327753	-2.087988	-9.168834	9.354532	1.366793	-6.641191	-0.021078	0.698360	0.017854	-0.715213
51010	-4.044060	-1.641113	-7.273935	7.248697	1.676958	-5.743841	0.010794	0.703624	0.058341	-0.708091
51011	-5.430375	-1.902367	-6.057325	5.701865	2.336559	-4.174306	0.043791	0.707905	0.100750	-0.697713
51012	-8.639933	-4.848676	-2.236893	0.814371	4.458172	-0.724992	0.075067	0.711209	0.138283	-0.685146
51013	-12.168242	-5.615529	2.087245	-4.258482	3.384085	2.610224	0.103015	0.712969	0.168368	-0.672841
51014	-13.071841	-10.060985	5.325712	-9.529388	5.731490	3.481828	0.123081	0.714683	0.187664	-0.662466
51015	-13.202833	-10.575842	6.887273	-11.635025	5.135110	3.295914	0.129004	0.720275	0.193296	-0.653604
51016	-16.166433	-3.164315	7.276781	-9.150058	-2.103502	5.555110	0.131245	0.721366	0.192815	-0.652096
51017	-15.190410	1.080892	5.023494	-5.037406	-4.776433	4.642429	0.135876	0.713012	0.195795	-0.659406
51018	-8.891566	3.273437	-0.581420	1.616542	-3.564307	-1.164583	0.137130	0.703550	0.203872	-0.666820
51019	-6.236733	4.495158	-12.675847	13.196050	1.139256	-3.154220	0.131954	0.695882	0.205710	-0.675293
51020	-5.600086	6.703269	-4.713204	7.230379	-4.393486	-4.623482	0.131931	0.695617	0.209265	-0.674477
51021	-10.854603	9.307033	2.852959	1.764784	-10.756225	-0.129169	0.137522	0.696121	0.215530	-0.670858
51022	-10.547063	4.034627	-0.840120	2.657490	-4.298881	0.320260	0.152162	0.690229	0.229873	-0.669021
51023	-10.026859	-1.567557	-1.472970	0.487522	0.927632	0.388549	0.165203	0.679259	0.247498	-0.670865
51024	-9.154527	-6.161464	-2.769261	-0.914964	5.509902	0.098973	0.173373	0.667789	0.262874	-0.674461
51025	-9.679997	-8.017932	-4.674824	-0.420106	7.986493	0.952192	0.179531	0.657309	0.275649	-0.678035
51026	-10.562468	-8.188266	-5.901099	0.567386	8.695141	1.913656	0.177176	0.652478	0.280314	-0.681400
51027	-11.903784	-4.980591	-2.745288	0.243605	4.020992	2.749655	0.172278	0.649497	0.282245	-0.684698
51028	-11.404590	-4.737931	-1.235613	-0.728779	2.908187	2.230954	0.170052	0.646411	0.286120	-0.686564
51029	-9.516952	-5.973097	-0.246073	-2.363525	3.459298	0.615962	0.169905	0.642418	0.291788	-0.687961
51030	-8.038082	-6.899011	-1.172194	-2.299609	4.873382	-0.618020	0.167900	0.639393	0.297178	-0.688964
51031	-9.686980	-5.314128	-0.189285	-1.839854	2.689209	0.746404	0.163697	0.636883	0.302274	-0.690083
51032	-10.168112	-4.361047	-0.513010	-0.865495	1.971083	1.051792	0.163071	0.633344	0.308790	-0.690603
51033	-9.122164	-4.374057	-2.329377	0.440519	3.213776	0.048823	0.163113	0.630696	0.314521	-0.690430
51034	-8.505809	-3.705309	-1.759665	0.344362	2.386558	-0.682531	0.161284	0.629535	0.318825	-0.689945
51035	-8.139883	-2.233711	-0.601297	0.328416	0.534811	-1.373835	0.159540	0.628441	0.324221	-0.688831
51036	-8.380293	-2.317865	0.849676	-0.788449	-0.479150	-1.125263	0.157244	0.628655	0.330420	-0.686214
51037	-10.582133	-3.124762	2.011299	-1.836223	-1.217738	1.184328	0.155183	0.628987	0.336732	-0.683304
51038	-10.624237	-4.129341	1.199063	-1.833804	-0.099288	1.500574	0.152702	0.628601	0.340780	-0.682211
51039	-9.389517	-2.935602	-0.056249	-0.290355	0.034843	0.020817	0.148022	0.628395	0.342373	-0.682635
51040	-8.644336	-1.328443	0.164987	0.473581	-1.175919	-1.157698	0.142004	0.627950	0.343225	-0.683894
51041	-8.859824	-0.694888	0.658078	0.564038	-2.085357	-1.167181	0.135123	0.628136	0.344345	-0.684554
51042	-9.423266	-0.145818	1.022332	0.737160	-2.953221	-0.835019	0.128029	0.628857	0.345315	-0.684767
51043	-9.576693	0.978405	1.185681	1.316674	-4.019881	-1.084452	0.120702	0.630060	0.345624	-0.684835
51044	-9.476803	2.435472	1.803324	1.653132	-5.548587	-1.721192	0.113413	0.631956	0.345780	-0.684255
51045	-9.844625	4.083289	2.782019	1.869505	-7.566542	-2.029340	0.108540	0.633292	0.348337	-0.682511
51046	-10.406577	4.012682	2.741311	1.964004	-7.743354	-1.560715	0.107477	0.633021	0.354381	-0.679815
51047	-11.828394	2.662838	3.592313	0.830508	-7.799858	0.105776	0.110078	0.630612	0.363698	-0.676709
51048	-12.795183	0.453914	5.104027	-1.307288	-7.569945	1.630810	0.117104	0.624332	0.375291	-0.675021
51049	-12.282320	-0.137164	4.963646	-1.356721	-6.981013	1.364352	0.126478	0.614302	0.385795	-0.676608
51050	-11.819653	-1.224071	4.263630	-1.299416	-5.648771	1.402289	0.135136	0.603896	0.394279	-0.679406
51051	-12.301696	-0.563129	5.029524	-1.023102	-6.715817	1.623647	0.138274	0.595798	0.396238	-0.684763
51052	-12.461061	2.585286	6.854078	0.039720	-9.985511	0.638111	0.141761	0.587365	0.394907	-0.692066
51053	-10.546672	4.407729	5.332339	2.065443	-9.388784	-1.647850	0.151978	0.577234	0.392199	-0.699917
51054	-8.250509	5.728796	2.072413	4.778717	-7.086442	-4.145396	0.168729	0.569537	0.388611	-0.704372
51055	-10.528931	4.214482	-1.007953	6.615952	-3.942634	-1.428197	0.190490	0.564193	0.385231	-0.704981
51056	-14.443764	0.030740	-1.076642	4.876974	-1.335540	3.758582	0.214930	0.554903	0.384391	-0.705784
51057	-15.092797	-1.231458	0.855651	3.021012	-1.480689	4.975227	0.242578	0.538158	0.388112	-0.707750
51058	-14.168860	0.499402	4.185723	2.395343	-4.432383	4.083010	0.272386	0.518716	0.391098	-0.709776
51059	-15.747912	3.747429	6.073652	4.789032	-7.074208	5.216517	0.306503	0.504491	0.394022	-0.704480
51060	-18.823212	0.259674	1.889592	4.839641	-0.685208	8.462146	0.350656	0.487536	0.403953	-0.690051
51061	-15.762496	-6.221211	-5.805458	0.699507	9.610444	5.282688	0.392619	0.468551	0.406943	-0.678755
51062	-12.314746	-6.642416	-8.709430	-0.419683	12.522073	0.890955	0.417047	0.462478	0.389967	-0.678315
51063	-13.362723	-4.112498	-2.310137	-0.310047	6.581955	2.730603	0.439310	0.456021	0.370934	-0.679308
51064	-12.967192	-0.922302	3.408657	0.553971	0.904739	3.582979	0.467248	0.441435	0.358835	-0.676795
51065	-11.218777	-2.222778	2.795274	-1.038033	1.930816	1.753824	0.496792	0.424561	0.351273	-0.670487
51066	-9.547557	-2.798833	0.514135	-1.589461	3.915983	-0.791994	0.523351	0.411412	0.342452	-0.663002
51067	-8.113921	-2.803099	-0.844102	-1.813577	4.779922	-2.866191	0.546348	0.402606	0.332385	-0.654929
51068	-7.628127	0.082209	-0.331548	0.606179	3.780742	-3.207190	0.567432	0.393470	0.324047	-0.646681
51069	-7.604658	2.719179	0.508038	2.862054	2.918263	-2.829608	0.588538	0.381267	0.321102	-0.636516
51070	-6.781277	3.011501	-0.409917	3.054693	3.577917	-4.061269	0.610095	0.364549	0.324144	-0.624355
51071	-5.819730	2.823224	-1.587570	2.757322	4.364123	-5.605282	0.629823	0.345754	0.331858	-0.611267
51072	-5.092349	1.746398	-1.715482	1.499533	4.269649	-6.430349	0.648310	0.322922	0.345358	-0.596778
51073	-3.656886	-1.201283	-2.803785	-1.662243	4.200832	-8.309147	0.666080	0.296202	0.363568	-0.580018
51074	-2.086575	-4.382903	-4.563187	-5.219888	4.087107	-10.458275	0.680309	0.273342	0.380517	-0.563622
51075	-1.436259	-1.370638	-2.936828	-2.103725	2.830992	-10.165037	0.688261	0.261501	0.393001	-0.550876
51076	-2.947539	-0.556286	0.880053	-0.552805	0.750491	-6.828935	0.692213	0.254633	0.406179	-0.539464
51077	-5.400603	-1.547369	3.861358	-0.756944	-0.699601	-3.074568	0.692618	0.247873	0.425944	-0.526698
51078	-9.246925	-2.447448	10.028876	0.527767	-4.185545	3.386680	0.689809	0.238787	0.452132	-0.512563
51079	-14.022780	-4.104182	8.512277	-0.987669	-1.555603	6.993318	0.692509	0.212175	0.483134	-0.491929
51080	-14.071398	-9.251625	7.293803	-5.075403	-3.026796	7.559053	0.698581	0.181870	0.504935	-0.473232
51081	-7.848298	-9.634525	10.672173	-2.809193	-8.723788	3.763625	0.704361	0.174200	0.502454	-0.470181
51082	-3.506188	-3.034417	-2.050456	-3.858877	1.631805	-6.957793	0.709749	0.174001	0.504836	-0.459479
51083	-7.559587	-5.432457	-3.072702	-6.698356	2.813249	-3.232123	0.709090	0.175670	0.518928	-0.443898
51084	-18.105903	-9.785946	-8.976199	-14.199913	9.229492	4.929508	0.702325	0.186763	0.520938	-0.447752
51085	-28.552602	0.586807	22.376167	11.729840	-3.546418	24.335078	0.704984	0.174565	0.526086	-0.442446
51086	-26.658216	-8.178756	9.265187	-2.413265	1.171234	19.445802	0.721039	0.132561	0.528123	-0.428505
51087	-1.707899	-10.530648	-22.266946	-22.555162	8.631909	-14.939773	0.732821	0.112504	0.515927	-0.429110
51088	3.636699	-1.431637	-11.941734	-8.312580	4.827345	-17.902290	0.730833	0.132536	0.503207	-0.441702
51089	-15.745520	-1.890817	1.670395	-1.941071	5.716235	4.946432	0.725952	0.137363	0.512240	-0.437876
51090	-14.324578	5.915951	1.079072	4.034334	9.691934	1.639204	0.724724	0.142589	0.510801	-0.439916
51091	-10.542406	-0.516668	-2.163380	-2.653161	6.286507	-1.474222	0.724232	0.144876	0.510551	-0.440269
51092	-9.950747	-0.629773	0.990965	-0.771211	3.800153	-0.573651	0.723632	0.147027	0.511908	-0.438965
51093	-8.719135	0.095528	0.424334	-0.441829	3.938814	-2.034345	0.723820	0.150079	0.512974	-0.436370
51094	-7.945633	0.342291	0.887354	0.089667	3.329427	-2.536434	0.723315	0.154002	0.515289	-0.433101
51095	-9.211791	-1.343549	2.798176	-0.191559	1.573102	-0.222073	0.722813	0.155872	0.518722	-0.429154
51096	-10.407423	-2.716940	4.108682	-0.556259	0.347620	1.682816	0.722540	0.156677	0.521477	-0.425969
51097	-10.093163	-3.049807	4.172750	-0.733641	-0.098338	1.502656	0.722416	0.157906	0.522652	-0.424283
51098	-9.012492	-1.985895	3.923540	0.038546	0.172938	0.213852	0.721937	0.159902	0.522499	-0.424539
51099	-8.246386	-1.398146	3.706333	0.433766	0.305694	-0.679617	0.721366	0.160425	0.522994	-0.424703
51100	-8.463209	-0.865121	3.032517	0.432064	1.164462	-0.866860	0.720728	0.160395	0.523600	-0.425050
51101	-9.260553	-0.241765	3.205604	0.970028	1.760556	-0.218331	0.720333	0.160451	0.523688	-0.425590
51102	-9.929461	-0.521162	3.970109	1.163379	1.383848	0.739992	0.720986	0.159172	0.523421	-0.425293
51103	-9.825900	-1.546230	4.335324	0.576844	0.524010	1.009818	0.722790	0.157281	0.522149	-0.424498
51104	-9.628422	-3.169576	4.669752	-0.511267	-0.683626	1.315198	0.725814	0.154622	0.519153	-0.423987
51105	-9.361888	-4.801634	5.271722	-1.453971	-2.071371	1.680152	0.729703	0.150929	0.514433	-0.424396
51106	-8.773805	-6.205301	5.930206	-2.190992	-3.450938	1.760482	0.734321	0.147520	0.506142	-0.427587
51107	-7.885531	-5.572778	6.189387	-1.566227	-3.456126	1.010516	0.739552	0.141026	0.497100	-0.431353
51108	-6.337494	-4.734931	6.078899	-0.859140	-3.426421	-0.482483	0.744522	0.131699	0.489242	-0.434724
51109	-4.936333	-3.589908	5.266338	-0.309539	-2.771101	-2.248861	0.747726	0.124396	0.482136	-0.439290
51110	-4.745692	-2.577805	5.634785	0.688706	-2.357406	-2.404338	0.749529	0.118788	0.475663	-0.444793
51111	-5.216679	-2.461644	6.628510	1.271548	-2.476066	-1.478422	0.751200	0.111863	0.469714	-0.450060
51112	-5.128706	-3.836478	6.096546	-0.122582	-2.802458	-1.427116	0.753020	0.102391	0.464858	-0.454295
51113	-4.672642	-6.433058	5.118676	-2.665622	-3.779812	-1.565062	0.753293	0.094842	0.460984	-0.459401
51114	-4.966640	-7.137736	4.961530	-3.375165	-3.741046	-1.161570	0.751545	0.092157	0.456919	-0.466811
51115	-5.087474	-7.285305	4.618917	-3.770922	-3.396497	-1.179373	0.748954	0.092083	0.452982	-0.474758
51116	-5.132965	-8.066666	4.945628	-4.297868	-3.830092	-0.716863	0.745320	0.095516	0.449533	-0.483006
51117	-5.535029	-9.779322	7.436061	-4.481627	-5.805774	1.490822	0.740787	0.104552	0.446280	-0.491058
51118	-6.666888	-10.644186	7.634615	-5.484838	-5.596416	2.621988	0.737233	0.116806	0.442486	-0.497041
51119	-7.604963	-7.524081	4.327705	-5.004700	-1.514069	0.474637	0.733408	0.136104	0.438042	-0.501705
51120	-6.145475	-4.011532	1.675070	-3.358981	0.826499	-3.127139	0.728393	0.160661	0.433152	-0.505976
51121	-4.497441	-1.676927	-2.340511	-3.024792	3.553890	-7.217094	0.722138	0.187005	0.428125	-0.510152
51122	-6.674484	1.573549	4.696182	2.573584	0.893054	-1.961710	0.710015	0.219827	0.422658	-0.518570
51123	-12.017386	-0.163672	0.015087	-1.274433	6.291107	0.346834	0.692270	0.252831	0.424017	-0.526353
51124	-15.842829	0.075776	-2.994872	-2.011774	10.308700	2.418904	0.672610	0.292014	0.416088	-0.537768
51125	-16.200399	1.667426	0.603849	0.569548	7.323510	4.733902	0.657174	0.323541	0.409000	-0.544208
51126	-11.733149	1.834333	0.785199	1.080468	4.722009	1.057906	0.644137	0.348813	0.401615	-0.549657
51127	-9.377188	2.041534	2.979368	1.680789	1.451411	-0.012917	0.631258	0.368747	0.396809	-0.555051
51128	-10.222093	1.645647	1.850250	1.124985	2.475854	0.347023	0.615925	0.385592	0.394347	-0.562535
51129	-10.563612	1.244107	0.704192	0.759993	3.354123	0.276767	0.597377	0.403085	0.390713	-0.572719
51130	-11.003707	2.343135	0.448088	1.993867	3.428602	0.724194	0.575647	0.423837	0.384683	-0.583962
51131	-11.205834	3.988062	1.374728	3.662950	2.094279	1.391769	0.553671	0.445680	0.375678	-0.594713
51132	-10.491501	5.296884	1.521535	4.940789	1.091142	0.902843	0.535919	0.463227	0.368904	-0.601766
51133	-9.301615	5.069324	0.856045	4.796379	0.975569	-0.379658	0.520427	0.478051	0.362539	-0.607609
51134	-9.200215	4.216248	0.892124	3.925993	0.749967	-0.472817	0.505872	0.490743	0.356624	-0.613257
51135	-9.478617	1.858371	1.672287	1.431091	0.415886	-0.124028	0.492162	0.501390	0.352185	-0.618345
51136	-9.079867	-2.966451	2.148452	-3.331006	1.092513	-0.671003	0.478305	0.510992	0.347634	-0.623909
51137	-8.371366	-5.473915	1.985306	-5.626690	1.895103	-1.522187	0.460106	0.523301	0.340927	-0.631052
51138	-8.575735	-4.359492	0.174992	-3.809455	3.293984	-1.614335	0.435167	0.539072	0.329816	-0.641290
51139	-9.457794	-2.117682	-0.155223	-1.383995	2.851516	-0.652628	0.405072	0.554504	0.315536	-0.654888
51140	-8.428344	-3.972930	-1.174159	-2.249661	4.421699	-1.839524	0.371825	0.567634	0.300562	-0.670224
51141	-8.604652	-5.212708	-1.415576	-2.655868	5.371028	-1.609752	0.334129	0.581704	0.284378	-0.684915
51142	-10.693277	-3.144658	-1.814382	-0.047657	4.542706	0.524532	0.289202	0.598533	0.263396	-0.699102
51143	-12.989746	2.469019	-1.280611	4.144843	-0.109676	2.805678	0.239473	0.615211	0.237396	-0.712609
51144	-13.517622	8.729029	-0.063785	6.919468	-6.653815	3.096445	0.191953	0.626885	0.212659	-0.724531
51145	-10.565996	10.479337	-0.327466	7.050744	-8.942241	-0.231916	0.152753	0.633074	0.195955	-0.733134
51146	-10.680123	10.321047	2.534183	3.823652	-10.822752	-0.056181	0.118349	0.638981	0.182335	-0.737869
51147	-8.942573	12.558936	3.015768	3.382416	-13.351341	-2.259484	0.093288	0.640077	0.173935	-0.742526
51148	-7.510490	14.651751	3.871436	2.538446	-15.725786	-4.130301	0.073044	0.640942	0.167508	-0.745520
51149	-7.503469	9.431972	4.770411	-0.255711	-11.270271	-3.414660	0.063036	0.635652	0.168373	-0.750748
51150	-8.438819	1.667283	-0.431809	2.484960	-2.487830	-1.950541	0.057435	0.630022	0.172133	-0.755079
51151	-10.659605	-2.467827	0.852806	0.600384	0.580921	1.130121	0.054768	0.626587	0.176713	-0.757074
51152	-11.834271	-5.674823	-0.840241	1.508750	3.870438	2.665377	0.053890	0.626151	0.181359	-0.756399
51153	-13.834428	-5.733459	-1.483293	2.441288	3.742727	4.557212	0.056202	0.626753	0.189138	-0.753823
51154	-13.886348	-7.025738	-3.193507	3.442566	5.424510	4.716807	0.064107	0.626706	0.203679	-0.749429
51155	-11.909210	-10.140895	-4.478958	2.798187	8.953148	3.480896	0.071383	0.628671	0.219000	-0.742776
51156	-11.496492	-9.879235	-2.561037	0.704862	7.834117	3.395045	0.072809	0.633746	0.228440	-0.735445
51157	-10.044545	-4.952498	-0.387688	0.166391	2.630467	1.078556	0.069135	0.640030	0.232405	-0.729088
51158	-9.042749	0.876989	1.640059	0.295587	-3.322133	-1.204369	0.065458	0.646654	0.235879	-0.722437
51159	-7.518926	2.687279	1.861941	0.472750	-4.788585	-3.174353	0.066824	0.651601	0.242997	-0.715474
51160	-7.108837	1.175672	0.223966	1.231869	-2.740284	-3.259763	0.070268	0.654761	0.251902	-0.709152
51161	-7.829806	-0.241626	-1.051315	1.815419	-1.175290	-2.210595	0.073294	0.656974	0.260774	-0.703569
51162	-9.232252	-1.382708	-0.639599	1.040571	-0.815331	-0.549536	0.075493	0.659402	0.270763	-0.697264
51163	-10.319084	-1.479595	-0.261856	0.673615	-1.345054	0.505918	0.076001	0.663373	0.281862	-0.688995
51164	-11.101621	-0.713053	0.866715	-0.010595	-2.960946	0.945155	0.075194	0.668195	0.293300	-0.679586
51165	-10.499328	0.167793	1.552063	-0.356752	-4.083007	-0.021441	0.073496	0.672659	0.304238	-0.670498
51166	-11.619267	0.318676	3.140505	-1.666693	-5.599955	0.714662	0.071544	0.677162	0.315364	-0.660968
51167	-11.778945	1.214766	4.249014	-2.212806	-7.181855	0.276427	0.070169	0.679997	0.325850	-0.653071
51168	-11.853888	1.794843	4.370815	-2.002042	-7.942683	-0.027986	0.070307	0.680632	0.336172	-0.647136
51169	-12.596569	3.114588	5.752439	-2.317190	-10.124861	-0.139098	0.070798	0.679226	0.344432	-0.644210
51170	-13.799553	5.161965	8.331345	-3.007611	-13.632255	-0.242500	0.077802	0.674461	0.354376	-0.643014
51171	-14.343345	5.875242	12.493218	-5.355999	-16.828988	-0.627611	0.096424	0.665131	0.368690	-0.642161
51172	-13.886175	6.910085	12.899001	-4.034893	-17.767904	-1.162405	0.125801	0.648829	0.382979	-0.645385
51173	-13.459347	6.137933	5.776650	1.789759	-12.230343	0.152919	0.156460	0.630694	0.390683	-0.652006
51174	-14.861552	4.062962	-0.487648	5.643266	-6.174936	3.131069	0.186922	0.613155	0.391023	-0.660456
51175	-18.170042	2.640411	-4.187688	8.008713	-2.203372	7.084710	0.218270	0.595815	0.389350	-0.667660
51176	-20.410602	0.635365	-4.743704	7.413173	0.493429	9.785575	0.257091	0.574553	0.392022	-0.670904
51177	-25.410667	-0.218909	-3.912747	7.244932	1.564615	14.799899	0.301673	0.549466	0.396771	-0.670562
51178	-28.945325	-3.948449	-3.713850	4.616777	5.463559	18.744111	0.351512	0.514419	0.399557	-0.672433
51179	-23.935610	-7.156052	-0.837012	-0.626306	6.298938	14.361458	0.396842	0.473952	0.395417	-0.679361
51180	-23.885798	-11.677820	6.035869	-6.939188	3.810457	16.269503	0.434399	0.436474	0.379316	-0.690584
51181	-23.041431	-14.602609	3.828120	-9.058301	8.856488	14.636391	0.462499	0.404414	0.348867	-0.707697
51182	-23.942529	-7.638861	-1.051827	-1.071833	13.450780	11.401025	0.486021	0.377494	0.311616	-0.724001
51183	-23.853726	-4.084725	0.929906	1.631118	12.876969	10.619115	0.511921	0.345577	0.275198	-0.736736
51184	-24.293242	1.496176	4.723615	5.952301	10.845608	11.657361	0.536399	0.313413	0.233986	-0.747863
51185	-25.605645	4.928742	4.055494	9.473765	13.696045	10.637730	0.564944	0.273072	0.200038	-0.752499
51186	-24.268767	4.587285	-1.698014	9.628475	18.662349	3.265693	0.595309	0.221112	0.174563	-0.752492
51187	-23.088730	2.562063	-2.965172	6.983524	20.547125	-1.056786	0.623894	0.162152	0.152706	-0.749096
51188	-15.051510	-2.551772	-5.640498	-0.091152	16.251767	-9.209757	0.649663	0.097353	0.131733	-0.742366
51189	-11.223724	-2.084132	-4.542010	-0.970950	12.175812	-11.059314	0.670256	0.036155	0.109251	-0.733153
51190	-8.823790	-1.896363	-3.161480	-1.549203	9.303959	-11.356913	0.686465	-0.022495	0.088237	-0.721439
51191	-7.378722	-2.028677	-6.545297	-2.892010	7.709597	-15.598330	0.698331	-0.082739	0.068979	-0.707622
51192	-4.705249	-0.250968	-5.160151	-1.471872	4.349826	-15.074447	0.703328	-0.138506	0.050207	-0.695431
51193	-1.596520	-2.604329	-4.497064	-3.840213	0.849490	-13.562912	0.701243	-0.192338	0.039848	-0.685330
51194	0.218659	-8.152199	-7.365827	-10.120862	-1.899531	-13.641160	0.696722	-0.239630	0.031215	-0.675412
51195	2.298169	-8.158549	-7.812747	-10.217499	-4.418273	-12.800083	0.693281	-0.272263	0.018190	-0.667010
51196	3.854875	-4.611171	-6.921092	-6.417345	-5.988164	-12.452438	0.692072	-0.291915	0.000928	-0.660167
51197	5.333341	-1.063701	-5.671988	-2.419584	-7.162761	-11.952728	0.690441	-0.306209	-0.011968	-0.655274
51198	7.100048	-0.843431	-5.507291	-1.856569	-8.760976	-10.929310	0.688373	-0.316524	-0.017169	-0.652427
51199	10.128241	0.329428	-4.918565	-0.105625	-11.259457	-9.503684	0.687920	-0.320684	-0.014317	-0.650940
51200	11.984913	0.713474	-6.165974	-0.006749	-13.495788	-9.968459	0.689140	-0.318104	-0.003220	-0.651065
51201	14.630938	0.172315	-5.853436	-0.059128	-15.726547	-8.813582	0.693008	-0.305480	0.010779	-0.652921
51202	14.220095	-0.130767	4.257248	3.609298	-11.468363	-1.108318	0.694670	-0.291128	0.026966	-0.657230
51203	3.516600	-7.732696	20.799474	2.416305	4.034053	12.154221	0.690086	-0.282032	0.053371	-0.664372
51204	-17.482634	-22.134428	25.693313	-9.486262	25.338719	17.083539	0.683276	-0.282669	0.075908	-0.668932
51205	-16.088846	-19.520630	21.287320	-8.477501	22.545587	12.833953	0.682781	-0.286045	0.070446	-0.668600
51206	-7.842957	-3.595846	20.028738	5.360779	13.922480	6.091164	0.684987	-0.297659	0.051143	-0.663006
51207	5.649080	1.383200	15.286682	8.984117	0.197860	3.850445	0.684302	-0.320758	0.036344	-0.653853
51208	10.127467	3.192367	3.897696	6.091691	-7.829600	-4.379580	0.682776	-0.336195	0.020997	-0.648343
51209	7.867750	0.167569	0.583850	1.690520	-6.786690	-6.159255	0.681204	-0.348117	0.010004	-0.643953
51210	7.486042	-4.566591	3.349337	-1.149754	-4.714145	-1.777530	0.682064	-0.356751	0.002162	-0.638368
51211	5.930520	-5.591625	-1.623893	-4.470278	-5.602490	-5.605461	0.684416	-0.364135	-0.002262	-0.631645
51212	7.048314	-5.026481	-5.364007	-5.303738	-8.513976	-8.053058	0.689244	-0.366492	-0.006842	-0.624964
51213	9.237550	-1.841473	-4.911589	-1.684311	-10.378252	-8.296813	0.696891	-0.361579	-0.008585	-0.619298
51214	7.886001	-1.871335	-2.126453	-0.676158	-7.856025	-6.978275	0.705955	-0.351233	-0.006233	-0.614999
51215	6.900170	-2.312576	-3.140385	-1.621254	-7.585090	-8.183582	0.715619	-0.339614	0.001117	-0.610369
51216	6.665768	-1.589897	-3.771726	-1.211184	-7.718132	-9.445849	0.727894	-0.316555	0.009099	-0.608178
51217	3.143785	-0.572088	-1.616475	-0.306175	-3.567161	-9.812777	0.741979	-0.282578	0.015762	-0.607756
51218	1.332099	-1.250633	-1.298395	-1.235357	-1.857320	-10.028146	0.754028	-0.248707	0.027758	-0.607303
51219	-1.169140	-1.605653	0.898822	-1.466738	1.116437	-8.649051	0.764482	-0.211485	0.042165	-0.607505
51220	-4.022552	-1.139772	3.196772	-1.090319	4.358263	-7.073577	0.772418	-0.173530	0.058442	-0.608146
51221	-4.243492	-1.028991	5.769367	-0.377423	4.764830	-4.383258	0.778824	-0.135589	0.071899	-0.608177
51222	-4.368173	-0.300231	8.167472	0.817486	4.811006	-1.937447	0.782229	-0.101030	0.091257	-0.607934
51223	-4.709578	-2.066503	10.024431	-0.486398	4.090942	0.671050	0.783870	-0.069677	0.111924	-0.606767
51224	-4.912470	-2.164432	11.126870	-0.430318	3.392911	2.055566	0.784466	-0.035899	0.129586	-0.605419
51225	-7.321178	0.082158	11.103285	0.955081	5.413538	2.294671	0.784600	-0.001185	0.143956	-0.603057
51226	-7.758539	1.331223	13.727188	2.456670	4.751017	5.076878	0.783074	0.028581	0.159994	-0.600317
51227	-7.370650	-0.485574	13.246129	0.696824	3.040874	5.026992	0.780154	0.051541	0.180321	-0.596814
51228	-7.107262	-2.801606	12.892099	-1.428333	1.396652	5.037300	0.776956	0.071037	0.199077	-0.593011
51229	-6.464579	-3.894981	11.595012	-2.559155	0.239037	3.780091	0.773195	0.090735	0.213556	-0.590196
51230	-6.886000	-1.926695	11.793060	-0.792797	0.436310	3.947784	0.768603	0.113151	0.223119	-0.588782
51231	-7.661747	0.036313	12.452922	0.945999	0.710441	4.759359	0.764043	0.132831	0.232535	-0.586959
51232	-8.176512	1.649566	11.642370	2.191486	1.376467	4.272724	0.760836	0.147508	0.244003	-0.582952
51233	-7.003274	0.822610	9.751286	1.305760	0.704618	2.128667	0.758966	0.157650	0.256080	-0.577529
51234	-4.046138	-1.494887	8.729575	-0.453147	-2.064242	-0.308053	0.757514	0.165434	0.267457	-0.572075
51235	-1.564394	-2.696159	9.293957	-0.872902	-4.907894	-1.372486	0.755689	0.171508	0.280653	-0.566350
51236	-0.855283	-3.589462	8.838818	-1.508501	-5.694277	-2.260944	0.752178	0.176414	0.298730	-0.560239
51237	-2.561506	-5.046216	6.551198	-3.612158	-3.762839	-2.904045	0.746156	0.185490	0.316293	-0.555701
51238	-3.008425	-2.849767	5.813873	-1.700444	-2.549224	-3.364626	0.738055	0.196916	0.331399	-0.553781
51239	-2.663349	-1.103654	4.992248	-0.122356	-1.923341	-4.379864	0.728709	0.206410	0.347652	-0.552735
51240	-2.986164	-1.597294	3.492924	-0.950386	-1.006495	-5.149062	0.718817	0.214501	0.366153	-0.550657
51241	-3.249013	-2.132543	2.653567	-1.604673	-0.580634	-5.427698	0.709323	0.219987	0.390015	-0.544384
51242	-6.574498	-2.349530	3.026984	-1.804983	0.756068	-2.460576	0.698105	0.224277	0.421343	-0.533684
51243	-11.033048	1.079614	5.301978	2.324661	2.044521	2.076465	0.685082	0.225094	0.459292	-0.518697
51244	-16.129057	0.620583	11.605667	5.082639	-1.310118	9.357005	0.672648	0.219882	0.497208	-0.501977
51245	-21.657781	-4.217096	15.639568	4.152158	-4.716591	16.484685	0.664303	0.201243	0.533943	-0.482812
51246	-21.436668	-11.507186	8.001685	-4.265789	-2.637268	15.299450	0.663528	0.175519	0.559059	-0.465162
51247	-20.114018	-8.329916	16.790208	4.252931	-8.471175	15.994392	0.666486	0.166635	0.564844	-0.457144
51248	-12.672050	-4.331317	1.843366	-1.702650	1.542280	3.508529	0.676845	0.159654	0.569455	-0.438306
51249	-16.657061	-8.469446	-21.814696	-19.564202	18.221634	0.680697	0.684024	0.192389	0.544141	-0.446104
51250	-9.324604	3.654316	17.963878	12.439231	-8.153248	4.383667	0.695212	0.218023	0.512946	-0.453909
51251	-14.428144	12.275316	-4.214649	7.411337	15.185354	-0.268920	0.700544	0.210633	0.510801	-0.451613
51252	-7.069667	7.436440	-8.849255	1.521894	13.355924	-8.119502	0.696451	0.219499	0.497431	-0.468337
51253	-3.978797	-0.722471	-1.348989	-1.542629	2.435805	-6.672679	0.698965	0.212495	0.497714	-0.467520
51254	-13.127333	-1.556975	10.680991	3.199913	-3.185896	6.571337	0.703478	0.203348	0.507923	-0.453633
51255	-18.618438	-2.004403	2.677585	-1.657414	4.975841	8.362185	0.711323	0.191117	0.511585	-0.442464
51256	-8.483142	-4.761720	-2.305895	-5.943705	2.812901	-2.281784	0.716034	0.182272	0.510338	-0.440031
51257	-8.965643	-3.674036	1.159970	-3.124665	1.162502	-0.641471	0.714927	0.178038	0.511556	-0.442146
51258	-12.523992	-5.713896	1.315832	-4.925313	1.626585	3.006210	0.714456	0.172555	0.511963	-0.444602
51259	-12.161271	-5.476945	1.450636	-4.552530	1.635819	2.701052	0.715239	0.164847	0.511027	-0.447336
51260	-10.727922	1.215130	2.096679	1.432460	4.300648	0.207783	0.714264	0.158806	0.508018	-0.454450
51261	-7.622084	6.849939	4.596147	7.738785	4.206979	-2.844800	0.713548	0.150146	0.506050	-0.460672
51262	-7.057724	5.622504	5.240264	7.204371	2.977227	-2.876254	0.713422	0.140610	0.506729	-0.463123
51263	-7.565189	2.770144	5.933741	5.372926	1.447145	-1.497264	0.713877	0.126861	0.511844	-0.460762
51264	-7.409061	-3.112605	4.698630	0.157098	-0.803903	-0.540074	0.713282	0.109679	0.518000	-0.459213
51265	-6.168317	-4.259881	5.406434	-0.037975	-2.406301	-0.889172	0.712022	0.099108	0.520041	-0.461259
51266	-7.452166	-3.051291	10.315856	4.027639	-4.011266	1.974942	0.712620	0.099391	0.515384	-0.465481
51267	-8.284761	9.186424	14.465402	15.933691	0.761219	0.569390	0.722348	0.093206	0.508890	-0.458866
51268	-2.527374	0.388548	0.662295	0.533091	1.255194	-7.550645	0.735791	0.085277	0.505076	-0.442988
51269	-0.716603	-0.598814	1.598617	0.538903	-0.876263	-8.273403	0.745150	0.087770	0.499376	-0.433211
51270	-3.364507	-2.553091	2.300741	-0.776462	-1.032257	-5.179924	0.747034	0.093091	0.501952	-0.425814
51271	-8.136016	-5.543484	-2.005895	-6.421786	2.017836	-2.354065	0.744852	0.093342	0.512525	-0.416894
51272	-9.820256	-11.502694	-3.404706	-11.736759	-0.349382	0.309071	0.743410	0.088791	0.523065	-0.407260
51273	-11.467025	-19.523593	2.470496	-13.207509	-8.368171	6.748902	0.742141	0.087115	0.530035	-0.400876
51274	-19.708570	-14.570711	12.963598	-3.109186	-7.056302	16.820551	0.741911	0.088657	0.530012	-0.400993
51275	-17.228089	-2.320470	6.850410	1.221037	3.308363	8.536064	0.744558	0.086769	0.523690	-0.404788
51276	-3.816894	1.316026	-1.565834	-0.623816	3.701745	-7.654030	0.745636	0.092204	0.512551	-0.415711
51277	-3.403187	4.192294	5.136564	6.089201	1.439226	-5.764256	0.744203	0.100042	0.507630	-0.422451
51278	-7.765506	3.404799	4.116464	4.275274	3.765242	-2.303628	0.744381	0.100886	0.507996	-0.421496
51279	-8.408910	1.224108	4.076865	2.551475	2.772526	-1.173703	0.746191	0.098682	0.508889	-0.417724
51280	-8.526905	-1.954303	4.421454	0.419961	0.649131	-0.041363	0.748560	0.097820	0.507800	-0.415004
51281	-9.365231	-3.035635	4.658824	-0.384668	0.264488	1.068888	0.750263	0.100054	0.504659	-0.415229
51282	-9.291141	-3.794637	2.890865	-2.218786	0.788448	0.362548	0.751251	0.105006	0.498647	-0.419460
51283	-8.675700	-4.125109	3.647007	-2.015323	-0.112436	0.262435	0.751976	0.109914	0.490987	-0.425890
51284	-9.434363	-6.249839	3.795711	-3.785337	-0.980755	1.464768	0.752781	0.112406	0.484128	-0.431630
51285	-10.539444	-3.726800	3.585000	-2.277239	1.390616	1.619675	0.752643	0.113355	0.477845	-0.438569
51286	-9.814681	0.484790	1.420968	-0.267739	4.890177	-1.175866	0.750996	0.114675	0.470202	-0.449182
51287	-10.144767	1.787361	0.559794	0.254465	6.449625	-1.765360	0.747965	0.116198	0.463482	-0.460686
51288	-12.806845	2.748074	0.240158	0.598516	8.805656	-0.131634	0.743766	0.117032	0.459703	-0.470945
51289	-15.121068	2.271457	-2.787166	-1.591368	11.858587	0.107483	0.738613	0.117908	0.459994	-0.478491
51290	-17.248633	1.285296	-4.782957	-3.455949	13.900549	0.997650	0.731669	0.122694	0.462970	-0.485042
51291	-18.383070	1.280103	-8.117311	-4.993836	16.678969	0.302369	0.723001	0.131553	0.468034	-0.490824
51292	-17.068584	-0.105535	-10.559919	-6.881617	16.823027	-1.300937	0.712606	0.141839	0.476572	-0.494928
51293	-12.815953	-1.125488	-9.733655	-6.575417	13.364006	-3.617188	0.699264	0.157058	0.487211	-0.498988
51294	-9.736341	-2.618272	-4.452230	-4.596157	7.196280	-2.845947	0.682071	0.176903	0.501690	-0.501789
51295	-12.058157	-4.794230	4.372907	-1.652227	0.399898	3.772850	0.659783	0.198662	0.520691	-0.504084
51296	-19.524410	-5.239165	10.071043	1.521239	-1.709173	12.653962	0.641819	0.213671	0.535269	-0.505866
51297	-18.807096	-11.979390	16.353742	-0.967086	-10.526833	15.738071	0.635041	0.211413	0.549083	-0.500535
51298	-18.004988	-13.352078	24.647458	1.982949	-18.193216	18.025836	0.638862	0.206769	0.541547	-0.505795
51299	-14.687941	-9.611055	20.552818	2.234006	-13.976903	13.207398	0.645216	0.209561	0.515069	-0.523912
51300	-6.674923	-7.677739	12.654092	-1.435936	-9.703212	3.119014	0.639966	0.227337	0.481825	-0.553721
51301	-3.361449	-0.780526	5.825430	1.323342	-3.390157	-4.105986	0.626453	0.253357	0.445671	-0.587149
51302	-1.960193	8.360375	0.114313	8.353322	1.967401	-9.617037	0.609406	0.280098	0.413263	-0.615941
51303	-3.083753	9.300830	0.683146	9.586775	1.531213	-8.324007	0.598969	0.291062	0.402549	-0.628072
51304	-2.781722	6.322976	-0.686432	6.501019	2.214290	-8.801732	0.592450	0.290392	0.408539	-0.630691
51305	-2.371299	2.846804	-1.630958	2.930499	2.698691	-9.094029	0.589443	0.284653	0.418520	-0.629579
51306	-1.306963	-0.744523	-1.280240	-0.709847	1.726546	-9.167251	0.588591	0.277279	0.426983	-0.627983
51307	-2.161598	-3.589837	0.129580	-3.135088	0.767051	-7.137127	0.586581	0.271186	0.433797	-0.627854
51308	-3.371389	-5.354881	0.887619	-4.476327	0.598966	-5.292522	0.582718	0.267179	0.437930	-0.630296
51309	-5.051997	-5.113982	2.344365	-3.643736	0.207511	-3.190655	0.575762	0.269571	0.438637	-0.635159
51310	-6.660988	-3.396192	3.367191	-1.481535	0.170255	-1.749395	0.566896	0.277254	0.439337	-0.639330
51311	-7.083169	-3.818770	2.172825	-1.956173	1.339817	-1.821876	0.558556	0.287051	0.440976	-0.641215
51312	-6.642475	-4.112409	0.913096	-2.480346	2.195084	-2.678436	0.547956	0.302414	0.438033	-0.645304
51313	-6.694663	-2.021547	2.120354	-0.368583	1.015739	-2.585503	0.534086	0.321308	0.433067	-0.651127
51314	-7.390657	-0.271297	3.800654	1.477502	-0.519234	-1.646831	0.519021	0.339407	0.432592	-0.654434
51315	-9.211263	-0.224151	3.199128	1.880165	0.400578	-0.251074	0.502426	0.357590	0.435354	-0.655869
51316	-10.281103	-0.961782	1.386495	1.482005	2.176849	0.267114	0.485293	0.375952	0.436028	-0.658051
51317	-9.570401	-0.762190	1.492810	1.486293	1.491511	-0.327967	0.468412	0.394566	0.434410	-0.660451
51318	-9.267031	0.698358	3.760105	2.448321	-1.356203	-0.186859	0.452473	0.412872	0.434672	-0.660201
51319	-8.821079	1.405518	4.444179	2.766057	-2.649649	-0.601197	0.439599	0.428020	0.440448	-0.655406
51320	-8.481095	-0.067891	1.514255	1.720236	0.051573	-1.371441	0.426104	0.443060	0.445960	-0.650579
51321	-8.398354	0.075041	0.475647	1.992373	0.653468	-1.666674	0.410092	0.460246	0.448171	-0.647411
51322	-9.484693	0.116448	0.440479	2.236966	0.426658	-0.594929	0.394892	0.476582	0.452161	-0.642246
51323	-11.020889	0.486379	1.027567	2.702136	-0.566546	0.916286	0.381149	0.491067	0.458466	-0.635128
51324	-11.862490	0.639337	1.456204	2.806667	-1.472646	1.727743	0.369100	0.504159	0.465453	-0.626851
51325	-12.477709	0.325754	2.261575	2.276448	-2.630529	2.385320	0.358185	0.516702	0.471892	-0.618094
51326	-12.320230	-0.601226	2.306997	1.203490	-2.829761	2.352760	0.348672	0.529137	0.476845	-0.609148
51327	-13.021942	-1.404728	3.799246	-0.098032	-4.451064	3.076795	0.338952	0.542366	0.478709	-0.601488
51328	-12.837102	-0.844527	5.939721	-0.590961	-6.925647	2.534731	0.331300	0.553364	0.477969	-0.596301
51329	-12.342553	0.100973	7.176237	-0.485020	-8.506342	1.643633	0.326991	0.561571	0.476252	-0.592367
51330	-9.703644	0.596936	6.603730	-0.439950	-7.842561	-1.070658	0.324925	0.569179	0.473899	-0.588114
51331	-9.240434	-0.501208	4.145251	-0.812529	-5.183035	-1.135635	0.319586	0.579296	0.468742	-0.585287
51332	-10.768935	-1.710316	2.450575	-1.271579	-3.510531	0.720929	0.312718	0.588251	0.462603	-0.584950
51333	-11.224041	-4.258225	0.143398	-2.714287	-0.582047	1.867435	0.309567	0.592684	0.461694	-0.582867
51334	-12.956423	-4.534847	0.639091	-3.035483	-1.360409	3.520553	0.309269	0.593400	0.466175	-0.578714
51335	-12.773084	-3.354069	0.915414	-2.074605	-2.152076	3.083155	0.313060	0.589035	0.473753	-0.574969
51336	-10.623076	-0.463556	0.583005	0.521267	-2.533498	0.517555	0.314514	0.586742	0.478488	-0.572595
51337	-9.795109	0.329406	0.053124	1.374580	-2.182694	-0.357432	0.317494	0.585611	0.481689	-0.569415
51338	-9.050932	-0.027200	-1.429026	1.475773	-0.554137	-0.786228	0.321217	0.585652	0.483779	-0.565499
51339	-9.988195	-1.227736	-2.383821	0.727191	0.501942	0.491303	0.324220	0.586973	0.486405	-0.560137
51340	-10.578751	-1.576271	-0.730247	-0.190849	-1.081510	0.851337	0.325081	0.588363	0.487433	-0.557280
51341	-10.402494	-1.215033	-0.166454	-0.100700	-1.703089	0.521973	0.327234	0.587811	0.488852	-0.555356
51342	-9.900834	-1.582605	-0.923444	-0.254398	-0.777904	0.222949	0.330647	0.586302	0.490577	-0.553404
51343	-9.459687	-1.842329	-0.975048	-0.543065	-0.547195	-0.156798	0.333430	0.585189	0.491736	-0.551882
51344	-9.070916	-1.628230	-1.315854	-0.281493	-0.202418	-0.509790	0.334559	0.584847	0.491706	-0.551588
51345	-9.364753	-0.501442	-1.076144	0.723740	-0.817127	-0.436300	0.333440	0.585743	0.490248	-0.552611
51346	-10.056209	-0.004294	-0.944503	1.208186	-1.228756	0.139693	0.332641	0.586517	0.488534	-0.553789
51347	-10.212876	-0.692789	-1.247802	0.668443	-0.748713	0.450467	0.333448	0.586586	0.487307	-0.554312
51348	-9.918153	-0.937076	-1.284209	0.410909	-0.550477	0.208545	0.334361	0.586844	0.485896	-0.554728
51349	-9.715543	-0.593275	-1.200141	0.673625	-0.665737	-0.051179	0.335729	0.586541	0.485102	-0.554915
51350	-9.842387	-0.096935	-0.716210	0.980984	-1.267193	-0.074784	0.337596	0.585600	0.485227	-0.554668
51351	-9.805606	-0.192290	-0.941867	0.960808	-0.986633	-0.056804	0.340618	0.583493	0.486152	-0.554231
51352	-9.545416	-0.864608	-1.753866	0.567647	0.067360	-0.085836	0.344061	0.580812	0.487389	-0.553833
51353	-9.008581	-1.156201	-1.805019	0.261210	0.339130	-0.562491	0.346835	0.578462	0.488776	-0.553340
51354	-9.255280	-1.207160	-1.803857	0.236712	0.323106	-0.314745	0.348039	0.577124	0.490087	-0.552821
51355	-9.882333	-0.907929	-1.527477	0.499194	-0.135565	0.214797	0.348206	0.576584	0.490610	-0.552815
51356	-10.062369	-1.076652	-1.174046	0.255516	-0.452419	0.361734	0.348752	0.575868	0.491299	-0.552606
51357	-10.028728	-1.164218	-0.909749	0.096282	-0.667325	0.301849	0.349359	0.575090	0.491939	-0.552463
51358	-9.744686	-0.940287	-0.996979	0.320247	-0.587685	0.005105	0.349712	0.574086	0.492376	-0.552894
51359	-9.862926	-0.332597	-1.188770	0.988498	-0.579547	0.060913	0.350138	0.572478	0.492745	-0.553962
51360	-9.886823	-0.368294	-1.463445	1.066878	-0.288741	0.127375	0.350717	0.570799	0.493035	-0.555070
51361	-9.846583	-0.708208	-1.253115	0.704190	-0.360169	0.107057	0.351746	0.568883	0.493772	-0.555730
51362	-9.691931	-0.919533	-1.404631	0.556143	-0.114135	0.007174	0.351679	0.567786	0.494187	-0.556524
51363	-10.082085	-0.683940	-0.764849	0.659934	-0.851210	0.264071	0.350367	0.567568	0.494475	-0.557319
51364	-10.368844	-0.723787	-0.512147	0.605689	-1.137150	0.513931	0.348486	0.567673	0.494042	-0.558774
51365	-10.255670	-0.743154	-0.789949	0.688697	-0.846257	0.442287	0.346262	0.567802	0.492583	-0.561307
51366	-9.780955	-0.745600	-1.728520	0.956882	0.153269	0.100500	0.345786	0.566418	0.490979	-0.564395
51367	-9.501285	-1.342360	-2.306201	0.587590	0.965321	-0.008742	0.345068	0.564779	0.489537	-0.567720
51368	-10.094455	-0.650843	-0.697402	0.867292	-0.803036	0.257591	0.343642	0.563435	0.487852	-0.571359
51369	-10.373419	-0.525057	-0.583518	1.040411	-0.942252	0.495232	0.342705	0.561793	0.485991	-0.575113
51370	-10.405525	-0.586234	-0.783353	1.101758	-0.682850	0.558023	0.341657	0.560732	0.483329	-0.579002
51371	-10.321698	-0.705468	-1.283710	1.177824	-0.103056	0.545150	0.340815	0.560590	0.479794	-0.582565
51372	-10.230866	-0.975864	-2.041973	1.183321	0.767573	0.570127	0.340467	0.561123	0.475787	-0.585534
51373	-9.850371	-1.174809	-1.996492	0.930820	0.907000	0.222576	0.341951	0.560849	0.472821	-0.587331
51374	-9.412630	-1.034439	-1.453167	0.808373	0.479592	-0.278774	0.344795	0.559190	0.471381	-0.588407
51375	-9.152197	-0.833347	-1.104855	0.835376	0.189861	-0.596203	0.349081	0.556367	0.471396	-0.588544
51376	-9.081984	-0.527999	-0.427820	0.874420	-0.463842	-0.759289	0.352976	0.554523	0.469973	-0.589099
51377	-9.310844	-0.758426	0.139475	0.480780	-0.868675	-0.522909	0.355626	0.554260	0.465853	-0.591022
51378	-9.227882	-2.161056	-0.027560	-0.816007	-0.163837	-0.371752	0.357149	0.554963	0.460911	-0.593315
51379	-9.883992	-2.810497	0.271540	-1.471718	-0.216997	0.358472	0.358009	0.556030	0.457452	-0.594473
51380	-10.898593	-1.979760	0.545350	-0.707995	-0.774409	1.227902	0.360434	0.556542	0.454567	-0.594741
51381	-10.909822	0.039290	-0.276741	1.382361	-0.596236	0.996308	0.365272	0.557361	0.450768	-0.593914
51382	-10.314536	1.782145	-1.194887	3.136122	-0.186837	0.243203	0.371908	0.559219	0.448288	-0.589912
51383	-9.461673	2.889432	-1.243113	3.961636	-0.364298	-0.670084	0.382449	0.559163	0.451163	-0.580966
51384	-8.670965	1.574361	-2.180727	2.780825	1.062427	-1.236277	0.394865	0.557204	0.457411	-0.569544
51385	-8.321472	0.890106	-0.911945	1.586508	0.102808	-1.545793	0.406739	0.555197	0.464101	-0.557610
51386	-8.657044	1.705806	-0.002383	2.038663	-0.973367	-1.283364	0.418255	0.553402	0.470240	-0.545603
51387	-9.323191	2.094480	-0.155172	2.352232	-0.906091	-0.594394	0.430400	0.550987	0.475339	-0.534062
51388	-8.712588	1.030076	-1.458822	1.382292	0.668286	-1.052652	0.443454	0.547731	0.480213	-0.522241
51389	-7.319707	-2.362960	-3.626432	-1.844401	3.417792	-2.247942	0.454460	0.545429	0.483965	-0.511616
51390	-7.117802	-5.238797	-2.767450	-4.986318	2.868035	-2.554936	0.461492	0.545356	0.485859	-0.503541
51391	-7.685247	-6.635795	-0.981480	-6.701378	1.119006	-2.203634	0.465423	0.546941	0.486428	-0.497619
51392	-8.896863	-5.922369	-0.708144	-6.146129	0.632704	-1.063172	0.466167	0.550669	0.484741	-0.494448
51393	-9.963663	-4.424419	-0.486418	-4.802720	0.151314	-0.014882	0.463704	0.556683	0.482019	-0.492687
51394	-13.585903	-2.599937	0.898155	-3.410698	-1.784581	3.503621	0.457870	0.564351	0.478774	-0.492584
51395	-15.051578	-3.342632	2.237836	-4.422812	-3.188738	4.781886	0.458047	0.562996	0.479778	-0.492992
51396	-11.865947	-2.272072	0.424313	-2.893432	-1.205340	1.862799	0.456750	0.560104	0.480154	-0.497107
51397	-8.643532	1.173783	-0.899950	0.929601	-0.032993	-1.093031	0.453319	0.558447	0.482157	-0.500164
51398	-9.219961	4.099659	-5.512352	4.452769	4.056937	-0.019076	0.451890	0.557767	0.486198	-0.498301
51399	-9.472119	3.379988	-4.764277	3.630479	3.340122	0.162612	0.451593	0.558571	0.488477	-0.495432
51400	-9.038534	0.334325	-1.961372	0.253623	0.937064	-0.608828	0.452663	0.558788	0.491715	-0.490988
51401	-9.447073	-3.152103	-0.381109	-3.426062	-0.342754	-0.460031	0.454091	0.558139	0.495269	-0.486818
51402	-9.331585	-4.222333	-1.421791	-4.384588	0.744773	-0.477347	0.452313	0.559108	0.496678	-0.485924
51403	-9.892079	-2.585030	-0.998133	-2.795333	0.044860	0.072439	0.446665	0.562613	0.496101	-0.487689
51404	-10.632135	-0.563188	-0.584051	-0.823475	-0.732576	0.793234	0.441860	0.565302	0.495233	-0.489834
51405	-10.446777	1.643361	-1.912355	1.569825	0.285378	0.814961	0.438896	0.566518	0.494323	-0.492008
51406	-10.176457	3.836014	-1.262116	3.695241	-0.631167	0.473952	0.437302	0.566944	0.493915	-0.493346
51407	-9.837552	2.646036	-1.121818	2.515469	-0.547433	0.107493	0.439697	0.565059	0.494516	-0.492776
51408	-9.472446	-0.896728	-3.324109	-0.716424	2.174123	0.002646	0.442716	0.562924	0.494617	-0.492416
51409	-9.376072	-1.990209	-3.326027	-1.813361	2.368165	-0.115395	0.444241	0.561894	0.493614	-0.493225
51410	-9.286391	-2.327721	-2.988627	-2.190572	2.127470	-0.259552	0.444887	0.561649	0.492246	-0.494287
51411	-9.417824	-1.320965	-2.599991	-1.235364	1.630414	-0.168213	0.443350	0.562949	0.490035	-0.496381
51412	-9.539723	0.364685	-2.735233	0.471234	1.533551	-0.012335	0.441121	0.564434	0.488189	-0.498496
51413	-9.932432	1.677622	-2.361120	1.733006	0.926750	0.345082	0.439554	0.564962	0.487789	-0.499673
51414	-10.017958	1.581592	-1.981795	1.602654	0.556341	0.380957	0.439838	0.563761	0.488738	-0.499851
51415	-9.698561	0.628457	-1.889627	0.669503	0.655974	0.043738	0.441680	0.561204	0.490515	-0.499363
51416	-9.575658	-0.153693	-2.011740	-0.076288	0.923232	-0.070732	0.443977	0.558397	0.492107	-0.498907
51417	-9.716846	-0.201375	-2.022225	-0.117613	0.955443	0.067608	0.446090	0.555866	0.493132	-0.498836
51418	-9.732465	0.064741	-1.935143	0.141427	0.873565	0.070964	0.448304	0.553447	0.493671	-0.499009
51419	-9.375957	0.300723	-1.716281	0.359433	0.708771	-0.309376	0.450496	0.551138	0.494110	-0.499155
51420	-9.185491	0.497415	-1.444020	0.529087	0.475787	-0.528323	0.452776	0.548859	0.494773	-0.498946
51421	-9.145542	0.546888	-1.577052	0.590467	0.643441	-0.557185	0.455536	0.546367	0.495714	-0.498233
51422	-9.114777	0.006051	-1.766132	0.062401	0.927733	-0.575064	0.458760	0.543642	0.496507	-0.497467
51423	-9.268058	-0.289978	-1.481870	-0.271099	0.693634	-0.452012	0.461062	0.541719	0.497169	-0.496776
51424	-9.177916	-0.177336	-1.181173	-0.190328	0.413681	-0.568587	0.462798	0.540167	0.497976	-0.496042
51425	-9.287076	0.107132	-0.623676	0.045340	-0.151297	-0.505421	0.464417	0.538537	0.498287	-0.495989
51426	-5.438358	2.588215	-0.595855	2.547278	-0.053908	-4.322878	0.468004	0.537433	0.504552	-0.487407
51427	-17.046287	-5.523310	0.746448	-5.780114	-1.985469	7.048128	0.469076	0.533926	0.508181	-0.486461
51428	-7.907782	0.724168	0.693079	0.609512	-1.405313	-1.990230	0.471223	0.531590	0.505578	-0.489645
51429	-9.095767	-1.071469	-0.081950	-1.150669	-0.585674	-0.745127	0.471644	0.531077	0.504924	-0.490470
51430	-8.461975	-0.132113	0.258787	-0.224447	-0.911204	-1.397893	0.469965	0.532607	0.503149	-0.492243
51431	-8.395432	0.164065	0.173294	0.069611	-0.847619	-1.457039	0.468224	0.534730	0.502229	-0.492541
51432	-9.601616	0.464028	0.290246	0.333151	-1.104832	-0.264972	0.466946	0.536722	0.501461	-0.492369
51433	-11.598900	0.268892	0.595333	0.078326	-1.595409	1.694248	0.465768	0.538102	0.501834	-0.491598
51434	-11.027733	-0.093785	0.934334	-0.292888	-1.880253	1.090133	0.465752	0.537244	0.502807	-0.491558
51435	-10.594041	0.344676	1.418821	0.138871	-2.355076	0.618030	0.465545	0.536548	0.503495	-0.491809
51436	-10.555721	0.038296	0.875035	-0.113990	-1.783570	0.627440	0.466495	0.535316	0.504099	-0.491633
51437	-10.251186	-0.061578	0.451127	-0.175121	-1.313706	0.362655	0.467630	0.534099	0.504505	-0.491462
51438	-10.174225	-0.005497	0.237456	-0.102799	-1.080235	0.306293	0.468145	0.533681	0.504063	-0.491879
51439	-10.332627	0.036053	0.240116	-0.064385	-1.078190	0.466196	0.468275	0.533657	0.503027	-0.492842
51440	-9.664617	0.106933	0.312106	0.004435	-1.076043	-0.202499	0.468636	0.533484	0.501806	-0.493930
51441	-9.224546	0.188005	-0.242829	0.120490	-0.473192	-0.595958	0.468851	0.533542	0.500849	-0.494634
51442	-9.649506	0.179163	-0.314728	0.105065	-0.420476	-0.166120	0.468907	0.534006	0.499936	-0.495003
51443	-10.140085	0.006575	-0.273584	-0.086627	-0.479067	0.319399	0.468936	0.534606	0.499052	-0.495220
51444	-10.097227	-0.294924	0.178657	-0.429228	-0.894618	0.241579	0.468640	0.535272	0.497691	-0.496149
51445	-9.761969	-0.341239	0.379629	-0.493804	-1.057084	-0.107260	0.467484	0.536516	0.496236	-0.497352
51446	-10.123769	0.085219	0.210211	-0.069149	-0.949113	0.268808	0.466011	0.538219	0.494801	-0.498323
51447	-10.427965	0.716885	0.053629	0.558322	-0.872231	0.588598	0.465474	0.539131	0.493789	-0.498844
51448	-9.937514	0.414344	-0.278742	0.285195	-0.478458	0.121763	0.465471	0.539343	0.493342	-0.499059
51449	-10.441759	0.873743	0.188155	0.690520	-1.015493	0.595056	0.465421	0.539563	0.492981	-0.499225
51450	-10.920213	0.788531	0.764161	0.547962	-1.601894	1.031223	0.466731	0.538364	0.493285	-0.498995
51451	-10.516473	0.496401	0.479667	0.293155	-1.241138	0.648970	0.468403	0.536669	0.493903	-0.498642
51452	-10.595537	0.207363	0.444379	0.016091	-1.160302	0.730521	0.470221	0.534702	0.494633	-0.498322
51453	-10.225368	-0.121670	0.318345	-0.287058	-0.953204	0.369806	0.472785	0.532111	0.495521	-0.497786
51454	-9.479424	-0.247652	-0.060461	-0.367629	-0.487930	-0.349540	0.475207	0.529504	0.496524	-0.497260
51455	-9.455059	-0.244095	-0.140534	-0.348685	-0.380026	-0.367508	0.477081	0.527206	0.497616	-0.496816
51456	-9.471223	-0.231072	-0.238529	-0.316050	-0.263680	-0.344589	0.478473	0.525033	0.498855	-0.496536
51457	-9.995003	-0.248742	0.013130	-0.332818	-0.524137	0.166119	0.479196	0.523411	0.499600	-0.496802
51458	-10.519725	-0.313627	0.623625	-0.414114	-1.135289	0.660681	0.479537	0.522481	0.499310	-0.497743
51459	-10.768209	-0.449006	1.072548	-0.564935	-1.550737	0.891618	0.480131	0.521762	0.497764	-0.499468
51460	-9.966284	-0.736182	1.150140	-0.853703	-1.517253	0.094901	0.480920	0.521144	0.494967	-0.502128
51461	-8.824374	-0.683851	0.899723	-0.791015	-1.160969	-1.027879	0.480789	0.521608	0.491297	-0.505366
51462	-9.305737	-0.038902	1.016282	-0.173040	-1.287150	-0.542073	0.478904	0.523654	0.487635	-0.508576
51463	-10.323141	0.295826	1.223745	0.119425	-1.522608	0.474180	0.476986	0.525724	0.484364	-0.511362
51464	-10.484954	0.286922	1.201555	0.092961	-1.473228	0.641074	0.476089	0.526809	0.481110	-0.514145
51465	-9.766187	0.216486	0.864979	0.043039	-1.073174	-0.064881	0.475915	0.527509	0.478032	-0.516454
51466	-9.530392	0.349179	0.406009	0.206506	-0.589448	-0.287721	0.475252	0.528638	0.475243	-0.518479
51467	-9.544389	0.530797	0.425545	0.372243	-0.608863	-0.270733	0.473665	0.530419	0.472546	-0.520575
