// General information: 
//  MT Manager version: 2021.0.0 
//  XDA version: 2021.0.0 build 5908 rev 109668 built on 2021-04-19
// Device information: 
//  DeviceId: 00B43DF8
//  ProductCode: MTW2-3A7G6
//  Firmware Version: 4.3.5
//  Hardware Version: 1.1.0
// Device settings: 
//  Filter Profile: human(46.1)
//  Option Flags: Orientation Smoother Disabled, Position/Velocity Smoother Disabled, Continuous Zero Rotation Update Disabled, AHS Disabled, ICC Disabled
// Coordinate system: ENU
PacketCounter	Acc_X	Acc_Y	Acc_Z	FreeAcc_E	FreeAcc_N	FreeAcc_U	Quat_q0	Quat_q1	Quat_q2	Quat_q3
50291	-8.491841	-1.500546	4.692197	-0.013542	0.038338	0.004545	-0.624854	-0.282146	-0.419916	0.594661
50292	-8.479031	-1.500575	4.685189	-0.015202	0.037691	-0.009880	-0.624814	-0.282155	-0.419925	0.594692
50293	-8.492549	-1.515111	4.691242	-0.026736	0.036833	0.006917	-0.624781	-0.282157	-0.419963	0.594700
50294	-8.478910	-1.517149	4.651139	-0.037070	0.063108	-0.023847	-0.624748	-0.282190	-0.419994	0.594696
50295	-8.513567	-1.515444	4.681387	-0.027049	0.053957	0.020376	-0.624703	-0.282233	-0.420015	0.594709
50296	-8.474251	-1.529987	4.662330	-0.047075	0.047211	-0.020513	-0.624661	-0.282270	-0.420079	0.594690
50297	-8.496519	-1.499127	4.684175	-0.010813	0.042945	0.004530	-0.624625	-0.282314	-0.420097	0.594694
50298	-8.491401	-1.497578	4.695838	-0.007044	0.029445	0.005490	-0.624576	-0.282356	-0.420145	0.594691
50299	-8.498528	-1.498246	4.680811	-0.009814	0.044437	0.004524	-0.624534	-0.282397	-0.420186	0.594688
50300	-8.500022	-1.483039	4.677967	0.004689	0.048171	0.002138	-0.624494	-0.282466	-0.420236	0.594661
50301	-8.507681	-1.510500	4.697417	-0.017695	0.029946	0.022289	-0.624459	-0.282510	-0.420276	0.594648
50302	-8.482373	-1.495607	4.682628	-0.007311	0.030824	-0.008939	-0.624416	-0.282546	-0.420313	0.594651
50303	-8.502436	-1.510877	4.674670	-0.022210	0.044228	0.006898	-0.624365	-0.282593	-0.420364	0.594646
50304	-8.490602	-1.495907	4.665685	-0.009712	0.046617	-0.009911	-0.624332	-0.282641	-0.420410	0.594625
50305	-8.492002	-1.480921	4.662927	0.004865	0.050408	-0.012302	-0.624289	-0.282669	-0.420463	0.594619
50306	-8.505241	-1.524416	4.670241	-0.034861	0.043357	0.009279	-0.624249	-0.282707	-0.420507	0.594612
50307	-8.473525	-1.523149	4.669658	-0.035322	0.026894	-0.018590	-0.624211	-0.282745	-0.420553	0.594601
50308	-8.488408	-1.508019	4.672718	-0.018629	0.032161	-0.006562	-0.624166	-0.282805	-0.420626	0.594569
50309	-8.476670	-1.507576	4.663922	-0.020352	0.031440	-0.020982	-0.624105	-0.282894	-0.420716	0.594527
50310	-8.491899	-1.506821	4.666757	-0.017761	0.033678	-0.006565	-0.624031	-0.283004	-0.420815	0.594482
50311	-8.507713	-1.491418	4.668192	-0.001067	0.039004	0.005459	-0.623954	-0.283120	-0.420937	0.594421
50312	-8.522333	-1.478453	4.636787	0.006955	0.071399	0.001110	-0.623868	-0.283215	-0.421063	0.594377
50313	-8.505274	-1.518869	4.675845	-0.025150	0.020226	0.011219	-0.623793	-0.283318	-0.421184	0.594321
50314	-8.538488	-1.479838	4.602889	0.001175	0.101541	-0.000859	-0.623715	-0.283406	-0.421279	0.594294
50315	-8.476289	-1.517376	4.670473	-0.025329	0.004709	-0.016640	-0.623629	-0.283494	-0.421361	0.594284
50316	-8.531441	-1.460451	4.655092	0.031422	0.050678	0.015065	-0.623565	-0.283567	-0.421458	0.594247
50317	-8.505328	-1.504585	4.642962	-0.014638	0.039219	-0.006580	-0.623469	-0.283618	-0.421574	0.594241
50318	-8.533966	-1.490395	4.650927	0.004235	0.046016	0.019852	-0.623365	-0.283674	-0.421694	0.594239
50319	-8.528847	-1.519276	4.663067	-0.020261	0.026251	0.025632	-0.623276	-0.283718	-0.421821	0.594221
50320	-8.523259	-1.506467	4.639949	-0.011055	0.042830	0.007830	-0.623190	-0.283751	-0.421916	0.594227
50321	-8.491709	-1.520708	4.639276	-0.025710	0.023217	-0.017620	-0.623107	-0.283814	-0.422046	0.594192
50322	-8.526531	-1.507367	4.633640	-0.010191	0.044245	0.007824	-0.623016	-0.283877	-0.422172	0.594168
50323	-8.520534	-1.523463	4.612012	-0.029316	0.054750	-0.005178	-0.622922	-0.283947	-0.422277	0.594158
50324	-8.516541	-1.507888	4.621286	-0.011444	0.044316	-0.006598	-0.622855	-0.284014	-0.422378	0.594126
50325	-8.531428	-1.507773	4.624487	-0.008840	0.046588	0.007815	-0.622778	-0.284071	-0.422463	0.594118
50326	-8.519212	-1.522344	4.616753	-0.024652	0.042742	-0.004198	-0.622716	-0.284141	-0.422551	0.594087
50327	-8.528880	-1.491873	4.631230	0.009413	0.036936	0.006391	-0.622648	-0.284201	-0.422654	0.594057
50328	-8.522936	-1.493193	4.609168	0.004462	0.050446	-0.009018	-0.622568	-0.284245	-0.422740	0.594058
50329	-8.529256	-1.538402	4.596092	-0.040658	0.056138	-0.002787	-0.622496	-0.284288	-0.422851	0.594034
50330	-8.530272	-1.553064	4.594526	-0.054282	0.053722	-0.000379	-0.622443	-0.284339	-0.422923	0.594014
50331	-8.526267	-1.522306	4.603722	-0.022216	0.046337	-0.004208	-0.622410	-0.284396	-0.422983	0.593979
50332	-8.519780	-1.537106	4.583340	-0.041310	0.056742	-0.017208	-0.622384	-0.284466	-0.423021	0.593944
50333	-8.536574	-1.504431	4.618046	-0.001801	0.038190	0.008783	-0.622355	-0.284549	-0.423048	0.593917
50334	-8.557359	-1.489829	4.607927	0.011644	0.057776	0.019784	-0.622323	-0.284587	-0.423083	0.593907
50335	-8.538334	-1.517564	4.615629	-0.014982	0.036569	0.011192	-0.622290	-0.284629	-0.423126	0.593890
50336	-8.533213	-1.515789	4.627688	-0.011194	0.023081	0.012188	-0.622276	-0.284662	-0.423123	0.593891
50337	-8.526880	-1.501467	4.606261	-0.002009	0.039674	-0.005642	-0.622248	-0.284703	-0.423147	0.593884
50338	-8.533971	-1.487222	4.590643	0.009294	0.057699	-0.009062	-0.622226	-0.284732	-0.423166	0.593879
50339	-8.548452	-1.472152	4.594311	0.025929	0.063075	0.002928	-0.622186	-0.284757	-0.423199	0.593886
50340	-8.534526	-1.530783	4.590787	-0.032295	0.049950	-0.001815	-0.622135	-0.284772	-0.423251	0.593895
50341	-8.560956	-1.518262	4.567457	-0.022134	0.083772	0.008170	-0.622094	-0.284794	-0.423299	0.593893
50342	-8.490637	-1.571549	4.618814	-0.068209	-0.003657	-0.020371	-0.622068	-0.284826	-0.423334	0.593880
50343	-8.539909	-1.483537	4.615571	0.020072	0.034271	0.007336	-0.622049	-0.284929	-0.423368	0.593827
50344	-8.527888	-1.482174	4.607568	0.018396	0.033470	-0.007080	-0.622018	-0.285005	-0.423402	0.593798
50345	-8.542389	-1.495839	4.612101	0.006912	0.032697	0.009751	-0.621964	-0.285077	-0.423488	0.593758
50346	-8.528654	-1.512252	4.571811	-0.017701	0.055783	-0.018664	-0.621919	-0.285142	-0.423565	0.593720
50347	-8.511759	-1.537591	4.611314	-0.035634	0.007529	-0.010794	-0.621895	-0.285224	-0.423636	0.593655
50348	-8.531201	-1.539263	4.568558	-0.045029	0.050975	-0.013819	-0.621870	-0.285338	-0.423695	0.593584
50349	-8.549488	-1.462638	4.599436	0.036816	0.041671	0.004887	-0.621831	-0.285418	-0.423769	0.593534
50350	-8.543028	-1.492089	4.579308	0.003612	0.048965	-0.005684	-0.621786	-0.285512	-0.423851	0.593478
50351	-8.524635	-1.534031	4.586578	-0.037128	0.024727	-0.011802	-0.621730	-0.285617	-0.423947	0.593417
50352	-8.531271	-1.521200	4.536249	-0.034511	0.069692	-0.031679	-0.621693	-0.285756	-0.424023	0.593335
50353	-8.532373	-1.441385	4.606338	0.057278	0.017647	-0.009946	-0.621631	-0.285869	-0.424152	0.593253
50354	-8.554171	-1.427259	4.593933	0.070753	0.037198	0.001014	-0.621547	-0.285956	-0.424297	0.593195
50355	-8.521248	-1.543613	4.599159	-0.042662	-0.004046	-0.007340	-0.621442	-0.286043	-0.424487	0.593128
50356	-8.531069	-1.486542	4.576675	0.010963	0.023224	-0.018085	-0.621338	-0.286166	-0.424712	0.593016
50357	-8.496993	-1.341148	4.543292	0.146042	0.050234	-0.085652	-0.621204	-0.286297	-0.424957	0.592917
50358	-8.486242	-1.422097	4.679961	0.097873	-0.091066	-0.018668	-0.620968	-0.286313	-0.425422	0.592823
50359	-8.523739	-1.657548	4.525139	-0.153758	0.017101	-0.022155	-0.620663	-0.286465	-0.426022	0.592639
50360	-8.540400	-1.406299	4.594187	0.112763	-0.010760	-0.014227	-0.620411	-0.286684	-0.426580	0.592395
50361	-8.577901	-1.577197	4.511453	-0.061769	0.041589	0.006456	-0.620072	-0.286826	-0.427245	0.592202
50362	-8.644969	-1.410654	4.464450	0.104681	0.126582	0.017356	-0.619761	-0.286873	-0.427874	0.592051
50363	-8.601537	-1.311192	4.489648	0.212757	0.088828	-0.024459	-0.619550	-0.286786	-0.428430	0.591912
50364	-8.593710	-1.553784	4.508848	-0.009267	0.026109	0.015589	-0.619308	-0.286438	-0.429190	0.591782
50365	-8.553791	-1.831105	4.452492	-0.281263	0.008044	-0.001175	-0.619091	-0.286218	-0.429847	0.591640
50366	-8.562941	-1.526169	4.502693	0.036343	0.005158	-0.018504	-0.618934	-0.286228	-0.430374	0.591416
50367	-8.613469	-1.455249	4.570632	0.131320	-0.028114	0.045417	-0.618681	-0.286141	-0.431028	0.591246
50368	-8.674812	-1.721648	4.426037	-0.144253	0.076953	0.075664	-0.618371	-0.286177	-0.431692	0.591069
50369	-8.630791	-1.755700	4.380212	-0.183911	0.079686	0.021901	-0.618165	-0.286400	-0.432099	0.590879
50370	-8.631958	-1.814540	4.342282	-0.248577	0.095009	0.015224	-0.618097	-0.286723	-0.432294	0.590651
50371	-8.643436	-1.748338	4.320042	-0.194969	0.122243	0.004413	-0.618175	-0.287364	-0.432036	0.590446
50372	-8.694054	-1.446016	4.396062	0.100902	0.117951	0.035091	-0.618097	-0.288727	-0.431246	0.590440
50373	-8.677910	-1.518092	4.373739	-0.004928	0.108362	0.022374	-0.617639	-0.290965	-0.430036	0.590703
50374	-8.716689	-1.599317	4.375831	-0.116236	0.101831	0.069741	-0.617344	-0.292995	-0.428778	0.590924
50375	-8.706815	-1.546108	4.414587	-0.091761	0.063041	0.070387	-0.617098	-0.294859	-0.427466	0.591203
50376	-8.739103	-1.646658	4.358057	-0.234640	0.107263	0.087281	-0.616968	-0.296827	-0.426082	0.591353
50377	-8.716074	-1.754581	4.361863	-0.379537	0.074177	0.083002	-0.617221	-0.298478	-0.424679	0.591267
50378	-8.765362	-1.449775	4.395782	-0.109886	0.108021	0.098541	-0.617885	-0.299694	-0.423334	0.590923
50379	-8.734045	-1.355168	4.402552	-0.054025	0.103673	0.060950	-0.618743	-0.300529	-0.422086	0.590494
50380	-8.696607	-1.282603	4.537090	0.006418	-0.016063	0.079777	-0.619633	-0.301172	-0.421035	0.589984
50381	-8.626836	-1.375017	4.495188	-0.125601	-0.020726	0.010927	-0.620601	-0.301760	-0.420178	0.589275
50382	-8.521518	-1.368909	4.569395	-0.141191	-0.133648	-0.048893	-0.621678	-0.302374	-0.419476	0.588326
50383	-8.508607	-1.671406	4.609833	-0.464085	-0.219394	-0.005704	-0.622780	-0.303271	-0.418788	0.587187
50384	-8.245009	-1.664435	5.537770	-0.344735	-1.172184	0.183525	-0.623653	-0.305457	-0.418560	0.585287
50385	-8.381111	-1.584387	5.036519	-0.378661	-0.766775	0.055738	-0.623385	-0.310072	-0.424201	0.579051
50386	-8.776629	-0.961086	4.378414	0.126622	-0.093203	0.041050	-0.623874	-0.312721	-0.431542	0.571627
50387	-9.464097	-0.988263	3.549539	-0.030588	0.780241	0.313204	-0.624556	-0.314114	-0.437696	0.565407
50388	-9.335445	-0.965395	3.176177	-0.081501	0.945675	0.049816	-0.625405	-0.314668	-0.442057	0.560748
50389	-8.930198	-0.768441	3.895954	0.254877	0.097702	-0.043214	-0.626823	-0.314716	-0.445058	0.556749
50390	-9.333628	-1.339559	3.356956	-0.419619	0.576348	0.170879	-0.629463	-0.313816	-0.448339	0.551623
50391	-9.549377	-2.403613	2.652176	-1.632836	1.007950	0.203268	-0.633730	-0.311516	-0.452041	0.544980
50392	-9.711146	-2.758977	2.337600	-2.087531	1.194904	0.266813	-0.639258	-0.308403	-0.455886	0.537033
50393	-9.956544	-3.212634	0.955998	-2.937298	2.306870	0.006534	-0.644428	-0.304993	-0.460348	0.528934
50394	-9.927715	-3.914391	0.124546	-3.881397	2.733734	-0.254554	-0.646736	-0.303270	-0.464387	0.523550
50395	-10.368057	-3.329813	0.136323	-3.317685	2.967948	0.126446	-0.645194	-0.303654	-0.468011	0.522000
50396	-10.169271	-3.653517	0.291582	-3.505564	2.604957	0.075247	-0.640495	-0.304981	-0.471646	0.523739
50397	-9.044729	-3.673207	1.502387	-3.055594	1.070551	-0.481404	-0.633518	-0.307672	-0.474592	0.527973
50398	-8.811497	-1.694492	2.634538	-0.720676	0.462574	-0.500343	-0.625090	-0.310303	-0.477566	0.533766
50399	-8.822173	-1.339649	2.973818	-0.147191	0.210021	-0.410496	-0.615848	-0.311611	-0.480723	0.540865
50400	-8.040737	-0.882709	3.746504	0.596247	-0.697753	-0.945599	-0.606927	-0.312579	-0.483097	0.548225
50401	-7.507962	-2.019459	4.936556	-0.122320	-2.229723	-0.877937	-0.600083	-0.311500	-0.485827	0.553931
50402	-6.925594	0.878507	6.042811	2.914775	-2.873847	-1.536470	-0.597249	-0.315330	-0.481934	0.558211
50403	-6.186246	0.024691	6.870624	2.139710	-4.049997	-1.781866	-0.599914	-0.316839	-0.477507	0.558304
50404	-10.082534	9.828650	9.655820	12.473754	-3.270319	1.376414	-0.606759	-0.318412	-0.471429	0.555169
50405	-11.916658	8.465489	5.195033	10.138078	1.351664	1.851362	-0.610287	-0.315221	-0.470378	0.554013
50406	-9.904031	-1.792961	3.655552	-0.279799	0.083015	0.891593	-0.609677	-0.311860	-0.469678	0.557171
50407	-8.526748	-2.143897	4.882796	-0.379056	-1.549669	0.116962	-0.609218	-0.310053	-0.468344	0.559799
50408	-9.274964	-3.203390	2.665062	-1.856527	0.600409	0.166374	-0.609003	-0.308419	-0.466737	0.562272
50409	-8.940092	-2.960245	3.256740	-1.500869	0.055138	0.038122	-0.609578	-0.306840	-0.463879	0.564872
50410	-8.928333	-2.323908	3.248009	-0.896053	0.262186	-0.076524	-0.610643	-0.305019	-0.460444	0.567511
50411	-8.952295	-1.837616	3.467383	-0.388218	0.261365	-0.049328	-0.612026	-0.302843	-0.456453	0.570405
50412	-8.845808	-1.192361	4.272332	0.392127	-0.287469	0.070920	-0.613337	-0.300961	-0.452722	0.572960
50413	-8.867813	-0.772935	4.517713	0.841397	-0.344724	0.128044	-0.614108	-0.299476	-0.450421	0.574722
50414	-8.808206	-1.429759	4.469405	0.187698	-0.387468	0.158210	-0.614313	-0.298168	-0.449429	0.575960
50415	-8.691037	-1.659196	4.184458	-0.098949	-0.195928	-0.027570	-0.614217	-0.297580	-0.448965	0.576727
50416	-8.712903	-1.569774	4.030025	-0.040023	-0.020570	-0.085512	-0.614116	-0.297362	-0.448624	0.577212
50417	-8.794854	-1.651298	3.932873	-0.132941	0.097454	-0.039431	-0.614059	-0.297132	-0.448317	0.577630
50418	-8.774825	-1.781798	3.988674	-0.249288	0.027528	-0.013760	-0.614116	-0.296993	-0.447887	0.577975
50419	-8.847839	-1.539568	4.122116	0.017823	-0.009634	0.068909	-0.614165	-0.296989	-0.447492	0.578231
50420	-8.877595	-1.314083	4.204340	0.255339	-0.027797	0.094331	-0.614084	-0.297025	-0.447389	0.578377
50421	-8.804110	-1.493845	4.153998	0.066949	-0.045302	0.035819	-0.613839	-0.296983	-0.447564	0.578524
50422	-8.832017	-1.594122	3.994583	-0.057462	0.090067	0.010298	-0.613606	-0.296916	-0.447717	0.578687
50423	-8.848236	-1.588018	3.905938	-0.064748	0.177558	-0.013008	-0.613443	-0.296795	-0.447705	0.578930
50424	-8.821311	-1.573387	3.976355	-0.033492	0.109849	-0.010173	-0.613380	-0.296588	-0.447615	0.579173
50425	-8.858942	-1.472185	4.038197	0.084694	0.095718	0.033067	-0.613383	-0.296227	-0.447432	0.579496
50426	-8.800642	-1.590540	4.109873	-0.015351	-0.002608	0.029666	-0.613414	-0.295799	-0.447238	0.579832
50427	-8.788811	-1.626799	4.054210	-0.060501	0.045587	0.001616	-0.613486	-0.295459	-0.446989	0.580121
50428	-8.806415	-1.523955	4.127553	0.058650	0.015441	0.031519	-0.613569	-0.295102	-0.446725	0.580417
50429	-8.778670	-1.615553	4.116220	-0.033046	0.008560	0.016715	-0.613617	-0.294770	-0.446467	0.580734
50430	-8.804811	-1.637406	4.043153	-0.066314	0.091391	0.012796	-0.613685	-0.294433	-0.446171	0.581061
50431	-8.790567	-1.579687	4.076909	-0.002770	0.075877	0.004893	-0.613769	-0.294105	-0.445808	0.581417
50432	-8.760945	-1.624202	4.111350	-0.040068	0.037127	0.000182	-0.613855	-0.293755	-0.445432	0.581791
50433	-8.768793	-1.669797	4.129236	-0.079444	0.030181	0.022114	-0.613971	-0.293405	-0.445027	0.582154
50434	-8.779719	-1.479939	4.136023	0.106563	0.072271	0.003818	-0.614146	-0.293118	-0.444527	0.582496
50435	-8.744134	-1.521904	4.185942	0.072559	0.019289	0.000189	-0.614310	-0.292726	-0.444081	0.582861
50436	-8.747261	-1.613058	4.175095	-0.018198	0.029947	0.013131	-0.614468	-0.292290	-0.443654	0.583238
50437	-8.693508	-1.702073	4.189763	-0.105530	-0.006931	-0.013858	-0.614659	-0.291869	-0.443196	0.583595
50438	-8.717209	-1.556042	4.204645	0.040476	0.027643	-0.010258	-0.614860	-0.291549	-0.442723	0.583903
50439	-8.708907	-1.597657	4.264378	0.010966	-0.022160	0.014920	-0.615044	-0.291171	-0.442325	0.584199
50440	-8.725258	-1.572228	4.218827	0.026618	0.041559	0.005565	-0.615219	-0.290837	-0.441939	0.584473
50441	-8.732216	-1.471802	4.196941	0.119232	0.092249	-0.014250	-0.615448	-0.290451	-0.441512	0.584748
50442	-8.662824	-1.691417	4.212962	-0.097272	0.026000	-0.032897	-0.615732	-0.289959	-0.441071	0.585025
50443	-8.613249	-1.718993	4.256289	-0.119536	-0.025357	-0.053382	-0.615976	-0.289590	-0.440679	0.585247
50444	-8.653838	-1.643329	4.310253	-0.033030	-0.031483	-0.006280	-0.616185	-0.289356	-0.440355	0.585385
50445	-8.659449	-1.626565	4.334719	-0.012756	-0.040437	0.006669	-0.616300	-0.289221	-0.440158	0.585479
50446	-8.669848	-1.568306	4.307495	0.037533	0.000992	-0.005600	-0.616354	-0.289203	-0.440051	0.585512
50447	-8.656202	-1.581834	4.302892	0.021748	-0.003094	-0.017463	-0.616327	-0.289246	-0.440093	0.585488
50448	-8.692229	-1.598833	4.252612	-0.002867	0.052945	-0.004884	-0.616310	-0.289305	-0.440171	0.585418
50449	-8.670805	-1.656989	4.229037	-0.066408	0.052335	-0.024629	-0.616291	-0.289394	-0.440215	0.585361
50450	-8.697431	-1.622879	4.282438	-0.021139	0.021234	0.016729	-0.616320	-0.289500	-0.440217	0.585276
50451	-8.685574	-1.605587	4.274181	-0.008784	0.023425	-0.000190	-0.616326	-0.289636	-0.440248	0.585179
50452	-8.692970	-1.589086	4.257094	0.002549	0.041319	-0.003811	-0.616312	-0.289781	-0.440292	0.585089
50453	-8.717635	-1.513029	4.274807	0.081324	0.046522	0.013380	-0.616292	-0.289857	-0.440356	0.585025
50454	-8.704011	-1.600243	4.271738	-0.005034	0.027155	0.014192	-0.616243	-0.289889	-0.440439	0.584998
50455	-8.704674	-1.629341	4.271140	-0.032660	0.021648	0.019261	-0.616208	-0.289920	-0.440504	0.584970
50456	-8.697203	-1.629619	4.250738	-0.037707	0.034914	0.003785	-0.616201	-0.289948	-0.440512	0.584958
50457	-8.720752	-1.554615	4.270316	0.040991	0.040096	0.020961	-0.616210	-0.289958	-0.440509	0.584946
50458	-8.726230	-1.554888	4.256617	0.038125	0.055025	0.019864	-0.616218	-0.289923	-0.440479	0.584977
50459	-8.707577	-1.510283	4.263156	0.081942	0.049235	-0.001051	-0.616232	-0.289850	-0.440440	0.585028
50460	-8.687430	-1.538977	4.274453	0.055316	0.027939	-0.009269	-0.616282	-0.289742	-0.440366	0.585084
50461	-8.699397	-1.597580	4.284550	0.001737	0.017857	0.015273	-0.616309	-0.289652	-0.440332	0.585126
50462	-8.674051	-1.625333	4.309177	-0.021611	-0.017700	0.008163	-0.616348	-0.289580	-0.440282	0.585158
50463	-8.675898	-1.641765	4.264767	-0.047393	0.020927	-0.006967	-0.616401	-0.289561	-0.440221	0.585158
50464	-8.704518	-1.538270	4.270565	0.056250	0.046602	0.003997	-0.616439	-0.289511	-0.440189	0.585167
50465	-8.708907	-1.582386	4.260207	0.011131	0.052328	0.010525	-0.616496	-0.289447	-0.440134	0.585181
50466	-8.705348	-1.583670	4.229089	0.002661	0.079884	-0.006062	-0.616557	-0.289354	-0.440058	0.585218
50467	-8.682616	-1.609288	4.287063	-0.011775	0.017477	0.003426	-0.616636	-0.289251	-0.439978	0.585246
50468	-8.695485	-1.593885	4.293858	0.005015	0.022854	0.015262	-0.616722	-0.289168	-0.439867	0.585280
50469	-8.675092	-1.607021	4.305582	-0.007520	0.004614	0.004527	-0.616812	-0.289050	-0.439745	0.585336
50470	-8.679619	-1.592495	4.293566	0.003721	0.022660	0.000875	-0.616885	-0.288978	-0.439655	0.585361
50471	-8.697874	-1.592170	4.287227	0.003150	0.039308	0.014152	-0.616951	-0.288922	-0.439547	0.585400
50472	-8.697002	-1.605692	4.289783	-0.010494	0.036965	0.016699	-0.617021	-0.288863	-0.439464	0.585418
50473	-8.663576	-1.618269	4.295165	-0.025283	0.017026	-0.008410	-0.617117	-0.288822	-0.439354	0.585419
50474	-8.701416	-1.588605	4.278975	0.001150	0.055690	0.013036	-0.617217	-0.288783	-0.439242	0.585418
50475	-8.690183	-1.570461	4.307428	0.022302	0.031094	0.012693	-0.617321	-0.288731	-0.439114	0.585430
50476	-8.665327	-1.552714	4.330351	0.041237	0.004881	-0.002029	-0.617394	-0.288687	-0.439019	0.585446
50477	-8.666861	-1.597951	4.287847	-0.012775	0.037330	-0.012075	-0.617453	-0.288649	-0.438960	0.585446
50478	-8.645260	-1.607682	4.343346	-0.013077	-0.021924	-0.005080	-0.617499	-0.288686	-0.438923	0.585408
50479	-8.695720	-1.535712	4.294992	0.048944	0.054591	0.006454	-0.617527	-0.288738	-0.438914	0.585360
50480	-8.695511	-1.592489	4.297719	-0.006977	0.042900	0.016678	-0.617569	-0.288751	-0.438877	0.585337
50481	-8.682131	-1.605219	4.293020	-0.022898	0.038912	0.004853	-0.617635	-0.288796	-0.438826	0.585282
50482	-8.679985	-1.589728	4.259559	-0.017311	0.069545	-0.014316	-0.617714	-0.288844	-0.438759	0.585226
50483	-8.678288	-1.555125	4.304169	0.023555	0.035557	-0.001716	-0.617790	-0.288884	-0.438695	0.585173
50484	-8.678617	-1.581951	4.305296	-0.004183	0.030074	0.003402	-0.617842	-0.288938	-0.438692	0.585094
50485	-8.666026	-1.579982	4.298607	-0.005993	0.029175	-0.010979	-0.617881	-0.288997	-0.438710	0.585011
50486	-8.667264	-1.577971	4.296848	-0.005537	0.029912	-0.010981	-0.617925	-0.289058	-0.438754	0.584901
50487	-8.677232	-1.545892	4.312085	0.028663	0.024315	-0.000613	-0.617941	-0.289128	-0.438804	0.584812
50488	-8.661733	-1.589727	4.274271	-0.024339	0.040799	-0.023919	-0.617970	-0.289222	-0.438855	0.584697
50489	-8.690865	-1.557984	4.281037	0.008743	0.051060	-0.000295	-0.617999	-0.289305	-0.438898	0.584592
50490	-8.687107	-1.554944	4.292186	0.012548	0.037553	0.000822	-0.618016	-0.289412	-0.438955	0.584479
50491	-8.661315	-1.582447	4.280251	-0.019693	0.028715	-0.022803	-0.618015	-0.289513	-0.439032	0.584372
50492	-8.666454	-1.563949	4.308587	0.003822	0.005780	-0.008748	-0.618014	-0.289648	-0.439135	0.584228
50493	-8.671455	-1.549198	4.257661	0.006029	0.050609	-0.029067	-0.618007	-0.289837	-0.439211	0.584085
50494	-8.696158	-1.530454	4.276859	0.028410	0.043542	-0.001761	-0.617982	-0.290025	-0.439322	0.583934
50495	-8.682974	-1.525488	4.312870	0.038913	0.001616	0.001612	-0.617932	-0.290214	-0.439463	0.583788
50496	-8.701690	-1.554935	4.268409	0.001161	0.038722	0.003373	-0.617876	-0.290410	-0.439617	0.583634
50497	-8.718629	-1.523280	4.266696	0.032031	0.047399	0.012601	-0.617804	-0.290614	-0.439758	0.583502
50498	-8.686043	-1.522525	4.231647	0.022420	0.057298	-0.031662	-0.617728	-0.290815	-0.439921	0.583360
50499	-8.691811	-1.576987	4.261740	-0.024504	0.018796	-0.004735	-0.617636	-0.291055	-0.440076	0.583220
50500	-8.719810	-1.531845	4.231322	0.013732	0.059003	-0.000345	-0.617556	-0.291316	-0.440215	0.583071
50501	-8.733878	-1.486677	4.196087	0.049695	0.097569	-0.010342	-0.617486	-0.291544	-0.440317	0.582953
50502	-8.725659	-1.512035	4.220519	0.028719	0.063634	-0.002933	-0.617419	-0.291700	-0.440416	0.582872
50503	-8.736140	-1.509289	4.235738	0.034778	0.051882	0.012569	-0.617356	-0.291847	-0.440476	0.582819
50504	-8.753404	-1.525001	4.192884	0.011061	0.092115	0.011740	-0.617322	-0.291917	-0.440525	0.582782
50505	-8.724814	-1.522092	4.226984	0.019361	0.048525	0.000763	-0.617303	-0.291924	-0.440545	0.582785
50506	-8.766062	-1.521302	4.242337	0.026633	0.054320	0.043882	-0.617304	-0.291886	-0.440531	0.582812
50507	-8.738251	-1.551218	4.233940	-0.005585	0.045393	0.020291	-0.617319	-0.291800	-0.440516	0.582852
50508	-8.718702	-1.565627	4.244066	-0.018115	0.027116	0.009634	-0.617337	-0.291724	-0.440473	0.582902
50509	-8.696138	-1.581624	4.221474	-0.039603	0.035542	-0.017670	-0.617338	-0.291679	-0.440449	0.582943
50510	-8.701639	-1.524059	4.204824	0.013784	0.062997	-0.029147	-0.617346	-0.291624	-0.440433	0.582974
50511	-8.685504	-1.565428	4.248327	-0.017912	0.011710	-0.017976	-0.617336	-0.291610	-0.440427	0.582996
50512	-8.694962	-1.505692	4.262668	0.044511	0.012436	-0.012806	-0.617290	-0.291647	-0.440491	0.582978
50513	-8.687523	-1.550469	4.243696	-0.002903	0.016299	-0.020563	-0.617213	-0.291714	-0.440597	0.582945
50514	-8.689288	-1.564755	4.240830	-0.016517	0.013853	-0.017977	-0.617135	-0.291830	-0.440737	0.582864
50515	-8.713797	-1.576938	4.261118	-0.022255	0.000625	0.014500	-0.617042	-0.292025	-0.440874	0.582760
50516	-8.697075	-1.520791	4.181936	0.014175	0.065624	-0.043552	-0.616941	-0.292221	-0.441045	0.582640
50517	-8.730188	-1.575182	4.222910	-0.028130	0.030483	0.012211	-0.616883	-0.292410	-0.441184	0.582502
50518	-8.709476	-1.527438	4.236903	0.019026	0.010516	-0.007642	-0.616798	-0.292656	-0.441335	0.582354
50519	-8.728419	-1.541887	4.190715	-0.004699	0.050748	-0.008495	-0.616713	-0.292903	-0.441492	0.582201
50520	-8.707907	-1.537690	4.206405	0.000250	0.021355	-0.020573	-0.616608	-0.293183	-0.441666	0.582039
50521	-8.730727	-1.520857	4.190110	0.013658	0.041129	-0.009946	-0.616512	-0.293460	-0.441863	0.581852
50522	-8.729469	-1.531808	4.197339	0.003395	0.024502	-0.006205	-0.616420	-0.293742	-0.442074	0.581646
50523	-8.720089	-1.528884	4.184320	0.001583	0.023512	-0.020578	-0.616322	-0.294068	-0.442303	0.581411
50524	-8.723149	-1.522811	4.221733	0.014469	-0.016694	-0.002753	-0.616196	-0.294418	-0.442579	0.581157
50525	-8.733347	-1.578530	4.201813	-0.044754	-0.014306	0.006484	-0.616060	-0.294824	-0.442855	0.580887
50526	-8.754709	-1.517845	4.146958	0.001830	0.041633	-0.007367	-0.615922	-0.295308	-0.443109	0.580592
50527	-8.765652	-1.557096	4.125223	-0.043297	0.047174	-0.000728	-0.615795	-0.295789	-0.443368	0.580284
50528	-8.785454	-1.492848	4.116279	0.015713	0.062186	0.003240	-0.615657	-0.296275	-0.443612	0.579996
50529	-8.772334	-1.515875	4.116452	-0.010866	0.040733	-0.004777	-0.615554	-0.296747	-0.443837	0.579692
50530	-8.777970	-1.524558	4.107451	-0.024483	0.038330	-0.002177	-0.615454	-0.297222	-0.444050	0.579391
50531	-8.824947	-1.487850	4.111015	0.010918	0.050476	0.035722	-0.615378	-0.297736	-0.444236	0.579066
50532	-8.826559	-1.424697	4.065921	0.058600	0.090474	0.008616	-0.615319	-0.298162	-0.444397	0.578786
50533	-8.854679	-1.449848	4.037773	0.026433	0.115081	0.025863	-0.615283	-0.298477	-0.444525	0.578563
50534	-8.825394	-1.445052	4.036037	0.025698	0.098191	-0.001722	-0.615282	-0.298726	-0.444578	0.578395
50535	-8.846528	-1.456121	4.024504	0.010987	0.111691	0.014081	-0.615308	-0.298893	-0.444603	0.578262
50536	-8.815552	-1.452566	4.026074	0.010251	0.094771	-0.013500	-0.615367	-0.298991	-0.444591	0.578158
50537	-8.833989	-1.461955	4.063605	0.007978	0.067380	0.020163	-0.615461	-0.299021	-0.444551	0.578074
50538	-8.820522	-1.474417	4.059841	-0.007915	0.063265	0.008400	-0.615558	-0.299017	-0.444476	0.578030
50539	-8.815415	-1.471160	4.074702	-0.004088	0.049810	0.009561	-0.615666	-0.299010	-0.444368	0.578001
50540	-8.824816	-1.441012	4.047447	0.017712	0.085245	0.002003	-0.615815	-0.298955	-0.444226	0.577980
50541	-8.804992	-1.423632	4.058295	0.033345	0.073201	-0.013815	-0.615984	-0.298849	-0.444074	0.577971
50542	-8.812324	-1.449775	4.082806	0.011321	0.055135	0.006938	-0.616179	-0.298698	-0.443884	0.577988
50543	-8.842640	-1.433943	4.083344	0.026984	0.076693	0.031882	-0.616370	-0.298484	-0.443671	0.578059
50544	-8.817180	-1.420112	4.065261	0.033546	0.091321	-0.000641	-0.616610	-0.298202	-0.443406	0.578152
50545	-8.831118	-1.432299	4.111361	0.031299	0.063946	0.033039	-0.616848	-0.297854	-0.443156	0.578269
50546	-8.775843	-1.447024	4.132858	0.017607	0.027925	-0.005103	-0.617091	-0.297481	-0.442883	0.578410
50547	-8.776842	-1.448549	4.127526	0.014686	0.042876	-0.006279	-0.617320	-0.297129	-0.442617	0.578550
50548	-8.776590	-1.432812	4.166846	0.038299	0.020093	0.007812	-0.617520	-0.296788	-0.442400	0.578678
50549	-8.740787	-1.477474	4.179882	-0.004606	-0.006298	-0.011890	-0.617703	-0.296494	-0.442197	0.578789
50550	-8.753179	-1.465846	4.143668	-0.000293	0.040209	-0.018035	-0.617857	-0.296249	-0.442030	0.578877
50551	-8.740493	-1.464758	4.176089	0.006975	0.012534	-0.015685	-0.617993	-0.296012	-0.441879	0.578969
50552	-8.743642	-1.494906	4.168442	-0.024094	0.021173	-0.011621	-0.618127	-0.295847	-0.441742	0.579014
50553	-8.742098	-1.465088	4.169913	0.004476	0.028230	-0.016866	-0.618225	-0.295735	-0.441627	0.579054
50554	-8.741173	-1.464238	4.172149	0.004911	0.028973	-0.016869	-0.618314	-0.295660	-0.441545	0.579060
50555	-8.754475	-1.477484	4.179493	-0.006410	0.028318	0.000116	-0.618379	-0.295614	-0.441489	0.579057
50556	-8.732095	-1.478090	4.156028	-0.013915	0.039767	-0.029793	-0.618424	-0.295584	-0.441479	0.579032
50557	-8.768521	-1.475130	4.184633	-0.003189	0.031524	0.014475	-0.618466	-0.295595	-0.441491	0.578973
50558	-8.755582	-1.474010	4.178399	-0.005043	0.030521	0.000110	-0.618491	-0.295641	-0.441507	0.578909
50559	-8.761635	-1.458422	4.162369	0.006018	0.048595	-0.003703	-0.618526	-0.295698	-0.441526	0.578829
50560	-8.762718	-1.456691	4.160696	0.006450	0.049336	-0.003707	-0.618548	-0.295749	-0.441565	0.578750
50561	-8.755198	-1.456244	4.140170	0.001177	0.062521	-0.019259	-0.618564	-0.295810	-0.441585	0.578686
50562	-8.768332	-1.451484	4.189858	0.016429	0.024165	0.013019	-0.618582	-0.295858	-0.441617	0.578618
50563	-8.774523	-1.465530	4.175414	-0.000563	0.035948	0.014460	-0.618587	-0.295903	-0.441647	0.578567
50564	-8.766581	-1.421474	4.152560	0.036344	0.058602	-0.008988	-0.618605	-0.295944	-0.441656	0.578519
50565	-8.781096	-1.434423	4.157482	0.025007	0.057948	0.008000	-0.618624	-0.295964	-0.441665	0.578482
50566	-8.786665	-1.449079	4.144122	0.007996	0.069724	0.009437	-0.618649	-0.295932	-0.441663	0.578474
50567	-8.776647	-1.461754	4.172272	0.001217	0.038910	0.014449	-0.618672	-0.295892	-0.441666	0.578466
50568	-8.767756	-1.448269	4.153015	0.010008	0.055233	-0.003742	-0.618701	-0.295814	-0.441629	0.578504
50569	-8.775946	-1.447128	4.172699	0.016164	0.043522	0.011806	-0.618753	-0.295732	-0.441610	0.578505
50570	-8.758383	-1.449702	4.135726	0.005168	0.069118	-0.019305	-0.618778	-0.295648	-0.441604	0.578525
50571	-8.756524	-1.461958	4.183354	0.004127	0.025869	0.001272	-0.618801	-0.295566	-0.441596	0.578549
50572	-8.742713	-1.477036	4.179448	-0.011770	0.021699	-0.010451	-0.618811	-0.295534	-0.441580	0.578567
50573	-8.742691	-1.447632	4.177461	0.016805	0.028737	-0.015731	-0.618820	-0.295501	-0.441601	0.578558
50574	-8.770651	-1.475749	4.188818	-0.006278	0.026664	0.018264	-0.618821	-0.295509	-0.441607	0.578549
50575	-8.767702	-1.462272	4.154397	-0.000890	0.057188	-0.001134	-0.618828	-0.295536	-0.441632	0.578507
50576	-8.763165	-1.431416	4.165068	0.031115	0.050065	-0.005224	-0.618826	-0.295547	-0.441663	0.578481
50577	-8.758745	-1.459465	4.179572	0.006842	0.030294	0.001257	-0.618812	-0.295543	-0.441676	0.578488
50578	-8.778124	-1.459667	4.169896	0.006182	0.046995	0.014411	-0.618802	-0.295544	-0.441722	0.578463
50579	-8.759887	-1.458881	4.177382	0.007782	0.031774	0.001252	-0.618802	-0.295543	-0.441742	0.578447
50580	-8.765559	-1.473758	4.163733	-0.009272	0.043534	0.002692	-0.618805	-0.295548	-0.441751	0.578435
50581	-8.784664	-1.444291	4.152641	0.018147	0.066570	0.010549	-0.618815	-0.295548	-0.441755	0.578423
50582	-8.774933	-1.456952	4.180249	0.011391	0.035751	0.015600	-0.618807	-0.295530	-0.441780	0.578421
50583	-8.761490	-1.442794	4.173467	0.023573	0.037888	-0.001408	-0.618799	-0.295503	-0.441813	0.578418
50584	-8.780833	-1.487110	4.166947	-0.019231	0.045055	0.019686	-0.618804	-0.295472	-0.441822	0.578421
50585	-8.738157	-1.470693	4.196723	0.000942	0.002843	-0.008056	-0.618816	-0.295440	-0.441826	0.578422
50586	-8.786072	-1.443527	4.149927	0.020381	0.070245	0.010519	-0.618817	-0.295439	-0.441819	0.578426
50587	-8.767171	-1.413425	4.156721	0.050057	0.061348	-0.007938	-0.618841	-0.295395	-0.441798	0.578439
50588	-8.757035	-1.441195	4.186101	0.029260	0.027353	-0.000218	-0.618843	-0.295329	-0.441810	0.578462
50589	-8.771222	-1.485057	4.193296	-0.010149	0.020348	0.022095	-0.618810	-0.295324	-0.441847	0.578471
50590	-8.735643	-1.501746	4.164272	-0.034133	0.026726	-0.019528	-0.618807	-0.295303	-0.441875	0.578464
50591	-8.755062	-1.486612	4.153666	-0.020769	0.046641	-0.009042	-0.618810	-0.295378	-0.441871	0.578426
50592	-8.750827	-1.469694	4.165031	-0.002844	0.036381	-0.010488	-0.618798	-0.295428	-0.441893	0.578396
50593	-8.741670	-1.452244	4.189664	0.018537	0.011932	-0.010718	-0.618781	-0.295500	-0.441943	0.578339
50594	-8.743178	-1.450800	4.187017	0.018969	0.012676	-0.010720	-0.618744	-0.295615	-0.442009	0.578270
50595	-8.768782	-1.436091	4.160444	0.028879	0.046761	-0.001460	-0.618678	-0.295730	-0.442105	0.578208
50596	-8.770786	-1.464267	4.158778	0.001210	0.041124	0.003855	-0.618631	-0.295831	-0.442200	0.578134
50597	-8.772393	-1.433978	4.153556	0.029717	0.048214	-0.001470	-0.618572	-0.295939	-0.442294	0.578070
50598	-8.779440	-1.463132	4.138157	-0.001367	0.056792	0.002629	-0.618511	-0.296035	-0.442399	0.578005
50599	-8.762701	-1.476413	4.143897	-0.013856	0.038364	-0.007845	-0.618442	-0.296162	-0.442522	0.577920
50600	-8.764915	-1.489594	4.140837	-0.027486	0.035926	-0.005184	-0.618397	-0.296303	-0.442611	0.577827
50601	-8.775455	-1.457360	4.154112	0.006819	0.030635	0.005060	-0.618358	-0.296432	-0.442700	0.577736
50602	-8.796032	-1.426928	4.139936	0.034226	0.053717	0.012856	-0.618305	-0.296560	-0.442796	0.577653
50603	-8.779372	-1.439925	4.145683	0.021749	0.035270	0.002389	-0.618236	-0.296679	-0.442916	0.577573
50604	-8.796365	-1.441462	4.100731	0.011847	0.078587	-0.001289	-0.618163	-0.296789	-0.443008	0.577525
50605	-8.802866	-1.441754	4.084001	0.008858	0.093511	-0.002522	-0.618110	-0.296835	-0.443089	0.577496
50606	-8.802738	-1.453478	4.128870	0.007918	0.050303	0.018171	-0.618067	-0.296852	-0.443160	0.577479
50607	-8.794661	-1.440063	4.107566	0.016646	0.066595	-0.000081	-0.618051	-0.296855	-0.443202	0.577462
50608	-8.803899	-1.439219	4.125124	0.022865	0.054947	0.015492	-0.618011	-0.296815	-0.443256	0.577483
50609	-8.776675	-1.455465	4.115343	0.004611	0.048913	-0.010543	-0.617984	-0.296772	-0.443271	0.577523
50610	-8.776715	-1.441826	4.113776	0.019096	0.052847	-0.013219	-0.617941	-0.296715	-0.443331	0.577552
50611	-8.776973	-1.457826	4.113872	0.005535	0.050395	-0.010551	-0.617907	-0.296639	-0.443388	0.577584
50612	-8.794626	-1.471272	4.151718	0.003490	0.023186	0.023282	-0.617880	-0.296573	-0.443423	0.577620
50613	-8.804348	-1.430339	4.121038	0.039156	0.061876	0.012790	-0.617839	-0.296502	-0.443467	0.577666
50614	-8.780959	-1.503905	4.147685	-0.026059	0.016470	0.014281	-0.617796	-0.296404	-0.443514	0.577726
50615	-8.795762	-1.493259	4.105256	-0.021960	0.062946	0.007900	-0.617764	-0.296346	-0.443540	0.577771
50616	-8.794411	-1.491096	4.151433	-0.008818	0.022959	0.025952	-0.617755	-0.296295	-0.443527	0.577817
50617	-8.790204	-1.449716	4.116445	0.024523	0.059811	0.001094	-0.617756	-0.296231	-0.443527	0.577848
50618	-8.771279	-1.464699	4.126347	0.012074	0.041338	-0.009343	-0.617752	-0.296139	-0.443540	0.577890
50619	-8.798446	-1.465075	4.136692	0.017184	0.045719	0.019349	-0.617746	-0.296039	-0.443550	0.577939
50620	-8.770437	-1.467308	4.127208	0.013002	0.042820	-0.009351	-0.617732	-0.295922	-0.443563	0.578005
50621	-8.793768	-1.499558	4.107231	-0.019254	0.067374	0.007876	-0.617716	-0.295794	-0.443567	0.578084
50622	-8.769488	-1.514331	4.131345	-0.028261	0.034735	-0.001310	-0.617710	-0.295705	-0.443559	0.578142
50623	-8.758947	-1.469649	4.156392	0.021225	0.016679	-0.006878	-0.617687	-0.295654	-0.443562	0.578190
50624	-8.773950	-1.502025	4.117146	-0.016802	0.053536	-0.005240	-0.617687	-0.295583	-0.443560	0.578228
50625	-8.768706	-1.516178	4.132328	-0.026923	0.036896	-0.001314	-0.617684	-0.295535	-0.443519	0.578288
50626	-8.781927	-1.471750	4.135320	0.017955	0.049057	0.004971	-0.617698	-0.295504	-0.443465	0.578330
50627	-8.800188	-1.442721	4.125605	0.045298	0.072218	0.012693	-0.617704	-0.295453	-0.443410	0.578392
50628	-8.772151	-1.458600	4.117595	0.027027	0.066071	-0.013318	-0.617717	-0.295343	-0.443385	0.578453
50629	-8.785152	-1.473822	4.124943	0.015781	0.065427	0.003710	-0.617745	-0.295214	-0.443342	0.578522
50630	-8.765344	-1.518365	4.138651	-0.024789	0.040522	-0.001323	-0.617792	-0.295043	-0.443268	0.578616
50631	-8.792079	-1.433966	4.100098	0.051812	0.104830	-0.006871	-0.617841	-0.294869	-0.443148	0.578744
50632	-8.770244	-1.490861	4.162311	0.009996	0.036067	0.008885	-0.617890	-0.294621	-0.443071	0.578877
50633	-8.778028	-1.494994	4.138787	0.003504	0.065170	0.006379	-0.617946	-0.294364	-0.442966	0.579029
50634	-8.756875	-1.525923	4.153772	-0.022992	0.043488	-0.001331	-0.618025	-0.294109	-0.442836	0.579174
50635	-8.754220	-1.483765	4.155657	0.019554	0.053843	-0.009416	-0.618088	-0.293889	-0.442684	0.579333
50636	-8.751894	-1.499996	4.161001	0.005925	0.051371	-0.006726	-0.618132	-0.293678	-0.442549	0.579497
50637	-8.767101	-1.499422	4.202421	0.017988	0.027431	0.024466	-0.618163	-0.293473	-0.442449	0.579644
50638	-8.739199	-1.519212	4.150452	-0.013033	0.061957	-0.019636	-0.618197	-0.293308	-0.442337	0.579777
50639	-8.744490	-1.472879	4.215853	0.048107	0.019301	0.005979	-0.618196	-0.293125	-0.442250	0.579936
50640	-8.730650	-1.492752	4.168159	0.019408	0.055645	-0.023784	-0.618185	-0.292974	-0.442189	0.580071
50641	-8.775517	-1.494856	4.171818	0.023351	0.076085	0.017980	-0.618137	-0.292810	-0.442143	0.580240
50642	-8.746506	-1.527684	4.165810	-0.008950	0.066690	-0.005311	-0.618089	-0.292623	-0.442095	0.580422
50643	-8.705887	-1.584917	4.235220	-0.049545	-0.018108	-0.002553	-0.618043	-0.292472	-0.442046	0.580584
50644	-8.752404	-1.501995	4.186715	0.025855	0.062276	0.004879	-0.617997	-0.292369	-0.441995	0.580724
50645	-8.737553	-1.489696	4.182305	0.038014	0.064364	-0.012172	-0.617963	-0.292217	-0.441967	0.580859
50646	-8.744840	-1.520133	4.204955	0.016199	0.046345	0.008833	-0.617918	-0.292060	-0.441904	0.581033
50647	-8.710742	-1.507885	4.209818	0.029493	0.032404	-0.021294	-0.617861	-0.291899	-0.441853	0.581213
50648	-8.736735	-1.510137	4.222002	0.034615	0.036822	0.007384	-0.617779	-0.291746	-0.441815	0.581406
50649	-8.735283	-1.542604	4.225668	0.006992	0.031153	0.012792	-0.617700	-0.291573	-0.441795	0.581591
50650	-8.762723	-1.548234	4.191746	-0.000674	0.076266	0.023331	-0.617643	-0.291387	-0.441743	0.581785
50651	-8.733493	-1.522736	4.182322	0.023158	0.079727	-0.010771	-0.617603	-0.291186	-0.441680	0.581976
50652	-8.740069	-1.539598	4.205013	0.015426	0.064905	0.007539	-0.617567	-0.290943	-0.441631	0.582173
50653	-8.705229	-1.586671	4.214510	-0.027418	0.038103	-0.011747	-0.617524	-0.290729	-0.441551	0.582386
50654	-8.722187	-1.546387	4.206149	0.013968	0.064515	-0.006812	-0.617460	-0.290568	-0.441460	0.582603
50655	-8.658754	-1.560992	4.249106	0.007310	-0.000240	-0.042040	-0.617383	-0.290415	-0.441396	0.582810
50656	-8.618454	-1.559196	4.313533	0.022886	-0.072194	-0.050020	-0.617282	-0.290348	-0.441413	0.582936
50657	-8.699517	-1.520775	4.261159	0.057340	0.016485	-0.007165	-0.617129	-0.290372	-0.441531	0.582998
50658	-8.734473	-1.570717	4.211376	0.004039	0.066090	0.010219	-0.616955	-0.290331	-0.441699	0.583074
50659	-8.711448	-1.543323	4.228883	0.037180	0.043066	-0.007006	-0.616813	-0.290274	-0.441859	0.583132
50660	-8.745048	-1.459452	4.217227	0.122991	0.081026	0.004093	-0.616703	-0.290167	-0.442021	0.583179
50661	-8.679169	-1.638748	4.233497	-0.047330	0.007344	-0.018114	-0.616561	-0.289972	-0.442230	0.583268
50662	-8.736756	-1.736555	4.165013	-0.147356	0.077520	0.019206	-0.616451	-0.289820	-0.442419	0.583316
50663	-8.715791	-1.631044	4.257344	-0.021874	0.003481	0.023460	-0.616391	-0.289734	-0.442557	0.583318
50664	-8.768972	-1.637232	4.197686	-0.034219	0.078774	0.045740	-0.616392	-0.289615	-0.442640	0.583313
50665	-8.727104	-1.712054	4.187089	-0.110971	0.057789	0.016327	-0.616442	-0.289519	-0.442634	0.583312
50666	-8.708336	-1.637482	4.192213	-0.039247	0.058551	-0.010334	-0.616564	-0.289463	-0.442542	0.583280
50667	-8.707663	-1.649829	4.195244	-0.052792	0.056058	-0.007614	-0.616717	-0.289413	-0.442405	0.583248
50668	-8.733561	-1.555926	4.248149	0.049377	0.039266	0.022901	-0.616848	-0.289397	-0.442283	0.583209
50669	-8.695299	-1.610172	4.270703	-0.003998	-0.004945	0.007687	-0.616961	-0.289410	-0.442161	0.583176
50670	-8.757136	-1.537080	4.227948	0.059626	0.074209	0.031932	-0.617076	-0.289407	-0.442051	0.583140
50671	-8.689214	-1.641213	4.164438	-0.062758	0.083571	-0.038863	-0.617184	-0.289375	-0.441937	0.583128
50672	-8.714696	-1.561973	4.218680	0.025445	0.063580	-0.005636	-0.617348	-0.289330	-0.441752	0.583117
50673	-8.738385	-1.436302	4.316753	0.168594	0.012702	0.037598	-0.617461	-0.289235	-0.441624	0.583141
50674	-8.712574	-1.573933	4.224843	0.012345	0.061866	-0.002920	-0.617520	-0.289108	-0.441577	0.583177
50675	-8.683764	-1.661950	4.222314	-0.076139	0.039496	-0.015218	-0.617615	-0.289015	-0.441467	0.583206
50676	-8.729315	-1.558494	4.220362	0.026080	0.082635	0.007383	-0.617768	-0.288893	-0.441313	0.583220
50677	-8.712274	-1.568744	4.266222	0.023019	0.037680	0.013979	-0.617912	-0.288780	-0.441117	0.583273
50678	-8.733295	-1.448934	4.286765	0.143880	0.053835	0.022078	-0.618056	-0.288635	-0.440945	0.583322
50679	-8.684715	-1.522375	4.293604	0.070645	0.018618	-0.005976	-0.618121	-0.288399	-0.440861	0.583433
50680	-8.675436	-1.645639	4.239256	-0.059864	0.046425	-0.017950	-0.618136	-0.288195	-0.440805	0.583560
50681	-8.677272	-1.659417	4.275277	-0.064028	0.017511	0.001705	-0.618206	-0.288062	-0.440719	0.583617
50682	-8.690610	-1.541747	4.274949	0.050984	0.045951	-0.005845	-0.618263	-0.288015	-0.440623	0.583651
50683	-8.701148	-1.374405	4.362988	0.233868	0.002960	0.014821	-0.618240	-0.287968	-0.440614	0.583706
50684	-8.657702	-1.630045	4.283432	-0.033438	0.010095	-0.016799	-0.618116	-0.287964	-0.440760	0.583729
50685	-8.612711	-1.567095	4.319029	0.032437	-0.036694	-0.051223	-0.617895	-0.288437	-0.440830	0.583677
50686	-8.671303	-1.482845	4.292871	0.103020	0.014207	-0.024521	-0.617295	-0.290018	-0.440436	0.583825
50687	-8.602241	-1.380166	4.322159	0.181730	-0.047276	-0.089052	-0.616206	-0.292653	-0.439539	0.584337
50688	-8.718319	-1.268437	4.273058	0.266413	0.040897	-0.024720	-0.614941	-0.294851	-0.439183	0.584832
50689	-8.688523	-1.505971	4.256445	0.021429	-0.019075	-0.021117	-0.613801	-0.296156	-0.439494	0.585137
50690	-8.663957	-1.642024	4.170268	-0.127811	0.001551	-0.058963	-0.612813	-0.297127	-0.440142	0.585193
50691	-8.676584	-1.509962	4.216461	0.021156	-0.035589	-0.048473	-0.612122	-0.297375	-0.441127	0.585048
50692	-8.814491	-1.949248	3.857213	-0.452022	0.260033	-0.009581	-0.611725	-0.296920	-0.442463	0.584686
50693	-8.794852	-1.349825	4.218254	0.226853	0.009002	0.031780	-0.611511	-0.296340	-0.443685	0.584278
50694	-8.846640	-1.380563	4.111068	0.205026	0.110745	0.036957	-0.611173	-0.295323	-0.445293	0.583923
50695	-8.852907	-1.949683	3.891661	-0.367429	0.211948	0.043289	-0.611037	-0.294386	-0.446393	0.583698
50696	-8.795321	-2.098068	3.875969	-0.502610	0.175841	0.010711	-0.611281	-0.293606	-0.446887	0.583458
50697	-8.722439	-1.839460	4.067899	-0.210919	0.019215	-0.016387	-0.611799	-0.293136	-0.446820	0.583203
50698	-8.827906	-1.358017	4.231833	0.299462	0.003033	0.066324	-0.612232	-0.292854	-0.446815	0.582894
50699	-8.780273	-1.669664	4.160665	-0.023952	-0.003030	0.045888	-0.612506	-0.292611	-0.446958	0.582618
50700	-8.740715	-1.838352	4.017678	-0.223652	0.077951	-0.021606	-0.612869	-0.292502	-0.447025	0.582240
50701	-8.756190	-1.593926	4.054440	0.016414	0.091918	-0.033055	-0.613426	-0.292544	-0.446817	0.581792
50702	-8.807225	-1.657458	4.050098	-0.053160	0.110505	0.021062	-0.614063	-0.292502	-0.446547	0.581348
50703	-8.783243	-1.643637	4.078546	-0.048018	0.080998	0.009357	-0.614872	-0.292455	-0.446170	0.580805
50704	-8.694896	-1.630339	4.069912	-0.058257	0.056056	-0.075293	-0.615728	-0.292409	-0.445758	0.580238
50705	-8.609600	-1.769600	4.194258	-0.187345	-0.112049	-0.076115	-0.616486	-0.292517	-0.445509	0.579569
50706	-8.682858	-1.523827	4.112516	0.023292	0.031218	-0.085133	-0.617203	-0.292845	-0.445318	0.578786
50707	-8.776631	-1.398032	4.199101	0.154925	0.013424	0.015435	-0.617879	-0.293177	-0.445201	0.577986
50708	-8.851843	-1.216109	4.244598	0.330868	0.033066	0.073670	-0.618656	-0.293441	-0.445076	0.577117
50709	-8.875518	-1.550977	4.039816	-0.053554	0.163813	0.060040	-0.619475	-0.293386	-0.444956	0.576358
50710	-8.764954	-1.650172	4.104673	-0.158261	0.042135	0.004083	-0.620561	-0.293355	-0.444539	0.575528
50711	-8.880514	-1.406399	4.158649	0.077316	0.094733	0.092910	-0.621798	-0.293263	-0.443993	0.574660
50712	-8.800023	-1.597088	4.106391	-0.145709	0.079024	0.027334	-0.623094	-0.293014	-0.443395	0.573845
50713	-8.843133	-1.382816	4.144392	0.049955	0.115482	0.050033	-0.624574	-0.292811	-0.442513	0.573020
50714	-8.904668	-1.300175	4.185830	0.118358	0.138849	0.110587	-0.626075	-0.292278	-0.441631	0.572334
50715	-8.841992	-1.622944	4.144197	-0.231955	0.109965	0.082925	-0.627790	-0.291597	-0.440469	0.571697
50716	-8.816271	-1.660164	4.140661	-0.299412	0.122179	0.062692	-0.629794	-0.290925	-0.438946	0.571006
50717	-8.789087	-1.525344	4.244835	-0.180860	0.076805	0.064282	-0.631948	-0.290289	-0.437148	0.570330
50718	-8.683948	-1.414834	4.430556	-0.072705	-0.079866	0.037727	-0.633945	-0.289971	-0.435370	0.569634
50719	-8.662864	-1.158949	4.495953	0.150925	-0.070949	0.014519	-0.635633	-0.290042	-0.433660	0.569021
50720	-8.697002	-1.021038	4.516238	0.253018	-0.027493	0.036774	-0.636932	-0.290376	-0.432301	0.568433
50721	-8.692421	-1.125363	4.474486	0.108402	-0.003240	0.027729	-0.637976	-0.290861	-0.431178	0.567866
50722	-8.639173	-1.469718	4.604392	-0.231966	-0.203928	0.081770	-0.638922	-0.291836	-0.430081	0.567135
50723	-8.573907	-1.770963	4.812732	-0.520685	-0.481182	0.152638	-0.639709	-0.293695	-0.428984	0.566116
50724	-8.557394	-2.012249	4.990923	-0.769552	-0.716513	0.241238	-0.640338	-0.296690	-0.428082	0.564525
50725	-7.132355	-2.083216	7.531528	-0.309637	-3.676765	0.102844	-0.641017	-0.300514	-0.432152	0.558600
50726	-8.614269	-1.266857	6.008153	0.176144	-1.762431	0.616132	-0.640734	-0.305249	-0.446208	0.545144
50727	-11.661132	0.870756	1.798250	1.219815	3.430301	1.444097	-0.641649	-0.305695	-0.456565	0.535151
50728	-10.550687	-1.169290	1.801793	-0.727699	2.324685	0.675225	-0.645269	-0.300861	-0.463885	0.527182
50729	-9.641302	-3.157118	1.204164	-2.789216	1.851170	-0.160505	-0.650391	-0.295046	-0.469826	0.518849
50730	-10.339110	-1.774400	1.138726	-1.541302	2.498356	0.322603	-0.654995	-0.291917	-0.474213	0.510772
50731	-8.685204	-1.772360	2.896349	-0.933312	0.264829	-0.537917	-0.658035	-0.289506	-0.477971	0.504698
50732	-5.012215	-2.502477	4.827800	-0.809579	-3.089406	-3.142431	-0.659379	-0.288015	-0.480394	0.501486
50733	-2.940733	-3.192684	5.730947	-1.042229	-4.898022	-4.654391	-0.659176	-0.287339	-0.480645	0.501900
50734	-0.659724	-3.507989	6.682080	-0.952971	-6.674898	-6.358922	-0.657732	-0.287872	-0.477765	0.506220
50735	-16.927515	3.138065	2.123278	3.212494	5.756668	6.232152	-0.656733	-0.287423	-0.477321	0.508188
50736	-14.842060	14.864943	-1.699883	12.925974	12.133998	1.581474	-0.659042	-0.286910	-0.475823	0.506891
50737	-9.034358	-5.967966	5.829945	-3.825836	-3.382975	1.373927	-0.659789	-0.280921	-0.474122	0.510853
50738	-9.351951	-2.247415	5.460315	-0.461701	-1.591989	1.122421	-0.660124	-0.279925	-0.470816	0.514013
50739	-9.663925	-1.301835	3.179846	-0.399036	0.888238	0.397516	-0.660767	-0.278982	-0.465669	0.518370
50740	-8.906019	-1.110916	4.011308	0.058724	0.042512	0.017642	-0.661563	-0.276151	-0.461388	0.522681
50741	-8.630642	-2.180468	4.022537	-0.956656	-0.297928	-0.095790	-0.662698	-0.273893	-0.456977	0.526294
50742	-8.815569	-1.299611	4.145163	-0.114006	0.061078	0.014210	-0.663721	-0.271782	-0.452796	0.529703
50743	-8.432371	-1.650711	4.676800	-0.288062	-0.564196	-0.050509	-0.664725	-0.270004	-0.449079	0.532509
50744	-8.592784	-0.986900	4.791243	0.351512	-0.316392	0.063648	-0.665324	-0.269058	-0.446794	0.534159
50745	-8.673109	-1.072724	4.520082	0.170817	-0.031051	0.024712	-0.665710	-0.268049	-0.445414	0.535338
50746	-8.595606	-1.391922	4.487439	-0.143466	-0.098031	-0.018366	-0.666013	-0.267206	-0.444407	0.536218
50747	-8.668544	-1.354555	4.374578	-0.149521	0.068776	-0.010225	-0.666321	-0.266638	-0.443498	0.536871
50748	-8.621272	-1.358865	4.445266	-0.137588	0.010999	-0.019112	-0.666741	-0.266188	-0.442403	0.537475
50749	-8.654817	-1.161688	4.515010	0.060344	0.049720	0.017599	-0.667141	-0.265830	-0.441378	0.537999
50750	-8.656376	-1.055674	4.563456	0.167021	0.062953	0.028071	-0.667524	-0.265368	-0.440466	0.538498
50751	-8.535222	-1.169900	4.638677	0.079520	-0.069925	-0.028784	-0.667815	-0.264898	-0.439752	0.538952
50752	-8.534993	-1.170282	4.672278	0.085704	-0.081435	-0.013103	-0.668042	-0.264551	-0.439224	0.539272
50753	-8.584619	-1.223581	4.638399	0.020354	-0.033064	0.021237	-0.668172	-0.264306	-0.438904	0.539492
50754	-8.618674	-1.233594	4.597021	-0.005034	0.022925	0.032887	-0.668310	-0.264143	-0.438607	0.539643
50755	-8.624164	-1.302046	4.522810	-0.097448	0.074325	0.011381	-0.668435	-0.264133	-0.438202	0.539821
50756	-8.615644	-1.138718	4.586560	0.072267	0.072253	0.013405	-0.668625	-0.264024	-0.437720	0.540030
50757	-8.646142	-1.074934	4.614443	0.135709	0.091727	0.045177	-0.668781	-0.263859	-0.437287	0.540269
50758	-8.644670	-1.059193	4.576531	0.136888	0.136217	0.023956	-0.668890	-0.263567	-0.437032	0.540483
50759	-8.589525	-1.142680	4.714806	0.102518	-0.020684	0.051597	-0.668943	-0.263334	-0.436855	0.540673
50760	-8.425185	-1.381038	4.838738	-0.080215	-0.268261	-0.003202	-0.668881	-0.263445	-0.436825	0.540721
50761	-8.457141	-1.640385	5.001930	-0.281190	-0.471683	0.133760	-0.668585	-0.264445	-0.437041	0.540425
50762	-8.404141	-1.679493	5.409852	-0.203062	-0.876984	0.282175	-0.667918	-0.266706	-0.437439	0.539815
50763	-8.525225	-1.798799	5.570312	-0.293844	-1.047651	0.471231	-0.666521	-0.270670	-0.438408	0.538782
50764	-8.755101	-1.757770	5.890830	-0.182603	-1.305381	0.803543	-0.663705	-0.276066	-0.441413	0.537063
50765	-9.243145	-0.901789	6.381703	0.749916	-1.427843	1.339450	-0.659060	-0.284270	-0.444793	0.535714
50766	-9.347400	2.826277	10.800699	5.633352	-4.372703	2.881886	-0.653552	-0.290062	-0.452794	0.532646
50767	-9.308503	3.367819	10.919939	6.378848	-4.711429	2.609715	-0.645103	-0.295471	-0.471276	0.523869
50768	-13.470910	5.210690	4.433485	6.433983	2.637211	3.599514	-0.633526	-0.300394	-0.491717	0.516355
50769	-14.603648	8.127049	3.135455	9.199522	4.723705	3.684646	-0.624364	-0.293735	-0.508526	0.515064
50770	-11.301818	5.494064	2.448266	6.783724	3.411106	0.493936	-0.616172	-0.275797	-0.525755	0.517542
50771	-5.444990	0.980528	6.332150	3.899217	-3.329376	-3.148806	-0.616036	-0.258600	-0.536386	0.515669
50772	-12.068307	3.156934	3.888944	5.607271	2.032031	1.812847	-0.630825	-0.254431	-0.538420	0.497421
50773	-11.261272	11.625716	7.440197	14.225050	2.536069	0.598875	-0.659260	-0.246941	-0.533345	0.468977
50774	-6.411532	7.613468	7.455977	10.180230	0.045241	-2.677910	-0.694590	-0.229021	-0.529003	0.430407
50775	-3.034491	0.423248	6.934023	4.006857	-3.824958	-4.639640	-0.731941	-0.211659	-0.519674	0.386524
50776	-2.193026	-1.910363	6.864601	2.393090	-5.194947	-5.031300	-0.766709	-0.204546	-0.502873	0.342690
50777	-4.431220	0.964115	6.360446	3.451241	-2.022398	-3.104356	-0.795569	-0.206657	-0.482758	0.302170
50778	-7.844385	3.943321	5.434345	3.112207	1.796268	-0.135126	-0.818495	-0.205374	-0.466010	0.265936
50779	-9.098256	4.200311	4.310497	1.374533	3.081819	0.559803	-0.835081	-0.188623	-0.459805	0.235882
50780	-10.389055	2.813058	1.840026	-2.026520	3.684199	0.264391	-0.842217	-0.163115	-0.465326	0.218027
50781	-12.336807	-3.773484	-2.088346	-9.056480	0.332321	-0.397180	-0.839811	-0.141573	-0.479185	0.212266
50782	-14.352477	-11.720122	-7.784890	-17.843797	-3.764939	-1.364740	-0.836536	-0.133506	-0.486730	0.213252
50783	-12.144818	-5.266257	-4.512146	-11.250904	0.052115	-1.505983	-0.836888	-0.142561	-0.482097	0.216511
50784	-8.635891	1.124434	-0.465009	-3.621893	3.088669	-2.505141	-0.839112	-0.153495	-0.473741	0.218861
50785	-5.404222	1.278688	1.513228	-0.719619	1.561369	-4.319615	-0.841648	-0.160077	-0.469047	0.214473
50786	-1.519167	-0.121054	3.867693	2.071485	-1.586049	-6.576213	-0.842280	-0.163206	-0.472835	0.200885
50787	-0.509796	-2.078882	2.237244	0.460819	-2.756575	-8.480821	-0.836312	-0.168716	-0.488411	0.183226
50788	-4.327720	-0.535179	-0.551678	-2.536033	0.278592	-6.234524	-0.821205	-0.179301	-0.514472	0.169685
50789	-49.407419	43.799795	-14.802233	-10.286604	51.132045	33.276451	-0.800043	-0.141494	-0.553017	0.184618
50790	-2.162942	-50.395524	-23.640344	-41.807203	-36.198246	-16.457406	-0.821506	-0.102220	-0.530530	0.182256
50791	-11.699019	6.034550	1.148143	-1.007428	7.273756	1.172471	-0.828762	-0.124281	-0.510124	0.193603
50792	-5.929425	3.570481	17.273502	13.067089	-1.934408	3.290291	-0.836600	-0.095187	-0.502741	0.195681
50793	-10.991752	-2.546218	6.193258	-0.675432	-1.861418	2.904691	-0.839692	-0.094042	-0.495099	0.202364
50794	-8.578379	-5.865763	7.986119	0.240616	-5.904784	1.885405	-0.843381	-0.086502	-0.489917	0.202996
50795	-9.431937	-0.974268	8.322030	2.144893	-1.245629	2.557212	-0.844046	-0.084631	-0.489015	0.203194
50796	-9.290961	-1.716231	6.079837	0.098437	-1.180625	1.359970	-0.844059	-0.084588	-0.488910	0.203409
50797	-8.372992	-1.236112	5.577387	0.306850	-0.825048	0.285197	-0.843297	-0.085578	-0.490047	0.203422
50798	-8.172818	-0.773931	5.938392	0.911319	-0.614134	0.259569	-0.841729	-0.087302	-0.492612	0.202987
50799	-8.258208	-0.086986	6.231130	1.459590	-0.124710	0.428688	-0.839706	-0.089074	-0.496323	0.201552
50800	-6.970999	-0.392797	7.960693	3.419718	-1.316190	0.121583	-0.836418	-0.082609	-0.506011	0.193735
50801	-7.705821	-2.320373	4.747504	0.062731	-1.842123	-0.653709	-0.829670	-0.068042	-0.525461	0.175809
50802	-9.458749	-1.044988	0.453142	-3.485487	0.890534	-0.991257	-0.826592	-0.049438	-0.538479	0.156015
50803	-9.237219	-0.607047	-0.433634	-3.920348	1.320778	-1.520146	-0.826370	-0.031443	-0.545702	0.135402
50804	-8.572774	1.538446	3.231359	0.173409	2.521249	-0.873245	-0.826005	-0.014938	-0.550758	0.118989
50805	-9.149322	5.192641	5.491721	2.822778	5.923544	0.075392	-0.821931	-0.009926	-0.557260	0.117441
50806	-9.119110	1.363352	5.683843	2.418914	2.268917	0.498412	-0.816889	-0.001846	-0.564550	0.118204
50807	-8.537634	-4.663878	4.907690	0.969445	-3.484995	0.465396	-0.811803	0.004265	-0.571471	0.119915
50808	-8.313992	-4.694643	4.333101	0.710212	-3.437757	0.067145	-0.804597	0.004480	-0.581237	0.121517
50809	-9.263432	0.008620	2.738485	0.036601	1.504212	-0.271212	-0.795764	0.002457	-0.592794	0.123893
50810	-9.687705	-0.424712	1.773153	-0.796321	1.300582	-0.073870	-0.787560	0.003190	-0.602833	0.127796
50811	-9.053121	-3.529318	2.446045	-0.330585	-1.895633	0.020432	-0.779377	0.004922	-0.612849	0.130247
50812	-9.242117	-2.757672	2.308496	-0.084300	-1.086988	0.044008	-0.769862	0.005442	-0.624835	0.129860
50813	-9.961508	-2.109523	1.002570	-1.080246	-0.150869	0.360393	-0.761778	0.005106	-0.634697	0.129726
50814	-10.102873	-2.052278	1.116039	-0.764777	-0.114550	0.527751	-0.755951	0.003235	-0.641477	0.130519
50815	-10.241021	-0.983932	1.477929	-0.084124	0.863303	0.544780	-0.751757	0.001060	-0.646059	0.132166
50816	-10.158292	-0.854924	1.543480	0.121724	0.952040	0.452899	-0.748744	-0.000229	-0.649018	0.134752
50817	-9.999180	-1.185115	1.303470	-0.082974	0.660164	0.318652	-0.746559	-0.000485	-0.650878	0.137866
50818	-9.623051	-1.775660	1.063540	-0.348092	0.093914	0.023825	-0.745197	-0.001028	-0.651556	0.141966
50819	-9.417492	-2.056057	1.257663	-0.179721	-0.209060	-0.095585	-0.744589	-0.001603	-0.651384	0.145886
50820	-9.248364	-2.104337	1.667626	0.226707	-0.328370	-0.190727	-0.744240	-0.001827	-0.651113	0.148851
50821	-9.400756	-1.717477	1.460946	0.095198	0.144694	-0.146858	-0.743724	-0.002117	-0.651112	0.151407
50822	-9.416654	-1.615881	1.664652	0.323634	0.235676	-0.122737	-0.742896	-0.002482	-0.651338	0.154462
50823	-9.344968	-1.824026	1.605550	0.248721	0.062026	-0.160359	-0.741681	-0.002135	-0.652216	0.156588
50824	-9.319001	-1.821676	1.668909	0.349866	0.071198	-0.178381	-0.739952	-0.001861	-0.653711	0.158522
50825	-9.238787	-1.879983	1.699004	0.427734	0.009115	-0.242279	-0.737455	-0.001853	-0.656098	0.160286
50826	-9.274342	-1.959167	1.629103	0.414601	-0.034994	-0.203734	-0.734177	-0.002242	-0.659352	0.161969
50827	-9.343476	-2.201649	1.212752	0.044042	-0.166172	-0.138592	-0.730310	-0.003166	-0.663340	0.163147
50828	-9.525302	-1.704131	1.105361	0.149707	0.352789	-0.080815	-0.726191	-0.005055	-0.667541	0.164347
50829	-9.576325	-1.587792	1.042949	0.219065	0.463876	-0.063291	-0.722355	-0.006803	-0.671388	0.165515
50830	-9.868195	-1.543213	1.176126	0.445787	0.520490	0.221036	-0.718836	-0.008475	-0.674833	0.166744
50831	-9.760487	-1.963879	1.441170	0.701669	0.008977	0.222627	-0.714859	-0.011219	-0.678580	0.168462
50832	-9.036148	-1.851030	3.144583	2.525154	-0.477713	-0.412712	-0.708787	-0.010753	-0.685081	0.167838
50833	-8.913109	-1.522559	1.338883	1.043062	0.225517	-0.734607	-0.701636	-0.004149	-0.693626	0.163012
50834	-9.875409	-1.602985	0.141894	0.106652	0.615739	0.173198	-0.694871	0.006576	-0.702977	0.151438
50835	-10.404094	2.703324	0.351993	1.235987	4.772637	-0.253888	-0.691852	0.023872	-0.710181	0.128120
50836	-10.308948	4.566600	-0.135429	0.664642	6.518031	-0.637372	-0.693210	0.053458	-0.714257	0.080248
50837	-11.622356	3.186359	-4.024707	-3.821982	4.947524	1.242926	-0.696235	0.089614	-0.711996	0.016966
50838	-11.705826	-0.747140	-4.624108	-4.307810	0.034975	2.033229	-0.698649	0.125385	-0.703120	-0.042307
50839	-10.487549	-3.338544	-4.656389	-3.567356	-3.493615	1.042125	-0.700413	0.157871	-0.689574	-0.094799
50840	-10.090257	-7.558906	-5.197422	-2.047740	-8.263158	0.837646	-0.701920	0.184010	-0.674236	-0.137312
50841	-9.322255	-8.105292	-1.704636	1.844379	-7.477803	-0.005702	-0.704253	0.199813	-0.661167	-0.164196
50842	-9.370074	-3.295960	1.907314	2.630146	-1.543543	-0.169119	-0.707718	0.206704	-0.652332	-0.175701
50843	-9.067095	1.882706	2.447747	0.238401	3.078492	-0.745653	-0.711991	0.210277	-0.644733	-0.182132
50844	-8.702877	-1.993288	0.223413	0.360407	-1.456710	-1.008716	-0.715987	0.215426	-0.636046	-0.190786
50845	-9.384704	-0.917512	0.472946	-0.223751	-0.521989	-0.388619	-0.719434	0.219853	-0.627048	-0.202211
50846	-11.078338	-1.367699	0.750046	-0.087346	-0.900520	1.338096	-0.722298	0.226919	-0.615860	-0.217966
50847	-11.293865	-2.116054	1.389488	0.691737	-1.277207	1.669752	-0.725117	0.234030	-0.604141	-0.233344
50848	-10.619637	-1.082613	1.503592	0.083320	-0.517336	0.954446	-0.727779	0.240284	-0.592958	-0.246987
50849	-9.800825	0.384541	2.355159	-0.275087	1.061793	0.214446	-0.730263	0.245792	-0.582340	-0.259195
50850	-8.878644	-0.284380	3.259137	0.812938	1.144557	-0.455385	-0.732960	0.250856	-0.572072	-0.269397
50851	-8.278842	-0.600572	3.379069	1.085937	0.977688	-0.970677	-0.735541	0.252740	-0.564353	-0.276781
50852	-7.443868	-1.073333	5.412796	2.874712	2.125617	-1.264090	-0.734613	0.258298	-0.559251	-0.284367
50853	-9.621363	0.368773	1.728694	-1.099488	0.306674	-0.097151	-0.729876	0.265516	-0.559773	-0.288854
50854	-9.220272	0.095270	2.114508	-0.544604	0.507750	-0.381945	-0.726904	0.271113	-0.559812	-0.291066
50855	-9.287639	-0.307423	1.577800	-0.593816	-0.099106	-0.406236	-0.724897	0.273684	-0.561667	-0.290088
50856	-9.610658	-0.305731	2.277078	-0.156866	0.453523	0.057064	-0.722499	0.274483	-0.566032	-0.286812
50857	-9.875340	-1.573429	0.177373	-0.584130	-1.861194	-0.003371	-0.720573	0.272250	-0.573385	-0.279077
50858	-9.510647	-2.344867	-0.191750	-0.151545	-2.500952	-0.341256	-0.719451	0.264843	-0.585241	-0.264086
50859	-10.059725	-1.789134	0.538343	-0.034312	-1.462234	0.313740	-0.717192	0.253936	-0.601990	-0.242406
50860	-9.186081	-0.167316	0.387753	-0.900949	-0.065780	-0.662044	-0.713545	0.240499	-0.622274	-0.213983
50861	-9.453589	4.312846	2.112708	-1.932431	4.902230	-0.613698	-0.707063	0.229255	-0.643588	-0.182476
50862	-7.725247	3.166161	2.616586	-0.163525	4.530932	-2.331555	-0.698193	0.219640	-0.663521	-0.154999
50863	-8.797046	4.918150	3.204570	-0.111778	6.612694	-1.561899	-0.688852	0.208025	-0.680818	-0.136729
50864	-7.468410	2.141867	2.241499	0.874941	3.708498	-2.681065	-0.679651	0.198689	-0.695336	-0.122904
50865	-7.709125	-2.352343	-1.102343	0.180189	-1.662427	-1.851533	-0.670472	0.186171	-0.710460	-0.105143
50866	-8.888016	-0.860169	-4.111935	-2.967903	-1.221956	-0.520993	-0.663046	0.171839	-0.723222	-0.088274
50867	-7.929159	-6.058900	-6.776152	-3.517026	-6.905613	-0.569509	-0.658634	0.159129	-0.731613	-0.074978
50868	-7.453113	-9.558989	-8.374024	-4.024558	-10.632721	-0.442989	-0.658899	0.151225	-0.733718	-0.068130
50869	-8.537539	-5.016505	-5.245861	-2.651901	-5.228731	-0.262964	-0.663651	0.138186	-0.732389	-0.063858
50870	-14.404265	4.289072	0.221313	0.095153	5.750901	4.073971	-0.672096	0.127679	-0.726678	-0.062653
50871	-15.375518	8.242009	8.620510	6.822831	11.799667	4.074416	-0.680675	0.128534	-0.718346	-0.064338
50872	-12.266616	0.855287	7.861572	7.768875	4.298607	1.770361	-0.684657	0.134533	-0.713948	-0.058520
50873	-10.603975	-6.063732	1.190209	3.145528	-4.185159	1.287635	-0.686514	0.138025	-0.711968	-0.052430
50874	-8.795881	-6.718495	1.546370	3.596103	-4.855871	-0.411342	-0.686217	0.140980	-0.711510	-0.054622
50875	-8.139854	-2.674550	-0.580073	0.478657	-1.674061	-1.403556	-0.681101	0.148793	-0.713991	-0.064643
50876	-9.281963	-0.324982	-4.148651	-3.484316	-0.456260	-0.266938	-0.677100	0.160097	-0.714215	-0.076169
50877	-10.029453	0.619025	-3.473805	-3.135766	0.650094	0.325547	-0.678416	0.167241	-0.710512	-0.083393
50878	-10.114252	0.539515	-1.114300	-0.992509	1.362258	0.236641	-0.681861	0.168410	-0.706641	-0.085799
50879	-10.155093	0.298431	-0.854220	-0.762582	1.197618	0.283249	-0.685988	0.166002	-0.703304	-0.085014
50880	-9.922370	-0.674673	-0.331453	-0.029693	0.409766	0.129571	-0.690850	0.160830	-0.700082	-0.082129
50881	-9.756041	-0.544053	0.029391	0.151621	0.587703	-0.060378	-0.696247	0.154427	-0.696692	-0.077548
50882	-9.404496	-0.572671	-0.133108	-0.107422	0.426669	-0.400182	-0.702003	0.147916	-0.692896	-0.072162
50883	-9.227166	-0.320977	0.628576	0.425004	0.857986	-0.608285	-0.706852	0.143573	-0.689316	-0.067752
50884	-9.407827	-0.927562	0.613504	0.499355	0.280949	-0.356726	-0.709945	0.141054	-0.686927	-0.064901
50885	-9.749241	-1.334375	0.770779	0.694005	-0.038775	0.033072	-0.711944	0.138408	-0.685588	-0.062834
50886	-9.677602	-1.147501	0.520460	0.366980	0.036618	-0.060379	-0.713169	0.135750	-0.684986	-0.061288
50887	-9.665261	-0.945763	0.336162	0.118001	0.152738	-0.097367	-0.713676	0.133617	-0.684945	-0.060524
50888	-9.480591	-0.553553	0.256897	-0.059858	0.464217	-0.324016	-0.713842	0.131651	-0.685178	-0.060236
50889	-9.658987	0.449601	0.591966	-0.013253	1.517100	-0.244679	-0.713395	0.130563	-0.685874	-0.059991
50890	-10.468898	0.031933	1.826489	1.281068	1.539496	0.623957	-0.711977	0.130411	-0.687431	-0.059333
50891	-10.125227	-0.452670	0.694375	0.391960	0.752036	0.310934	-0.709640	0.132320	-0.689462	-0.059535
50892	-10.071243	-0.724235	-0.064654	-0.216264	0.307509	0.277761	-0.708053	0.136789	-0.689993	-0.062120
50893	-9.958808	-2.131607	-0.923709	-0.608903	-1.274820	0.315437	-0.707617	0.141784	-0.689032	-0.066411
50894	-9.923533	-4.261943	-1.241818	-0.291431	-3.422082	0.501702	-0.710003	0.140742	-0.686548	-0.068839
50895	-10.633176	-0.165589	0.426919	-0.054517	0.949639	0.787645	-0.716547	0.127223	-0.683122	-0.060987
50896	-10.270516	1.878417	3.084157	1.943019	3.439132	0.332062	-0.724702	0.099383	-0.680914	-0.035855
50897	-9.756550	4.215758	4.767550	3.487246	5.664378	-0.252425	-0.730905	0.054682	-0.680233	0.008437
50898	-9.101250	2.956772	5.903452	5.288234	3.769327	-0.638257	-0.731850	-0.000113	-0.678400	0.064566
50899	-9.630464	0.240884	5.758545	5.111875	0.242781	0.172582	-0.726247	-0.059218	-0.673412	0.124798
50900	-9.758665	-1.665428	5.796995	4.405810	-2.467348	0.484614	-0.714693	-0.119587	-0.664194	0.183740
50901	-10.200619	-2.626583	6.286936	3.813709	-4.289613	1.024122	-0.697786	-0.178586	-0.651442	0.238380
50902	-10.517477	-2.675966	7.418001	3.815957	-5.723221	1.382781	-0.674696	-0.240231	-0.633819	0.292143
50903	-9.880116	-2.371084	7.229768	2.817112	-6.205675	0.623382	-0.644030	-0.302920	-0.612087	0.344694
50904	-8.557572	-2.628904	6.585727	1.067691	-6.498949	-0.868478	-0.606109	-0.366374	-0.585434	0.394548
50905	-8.456023	-2.100660	6.163634	0.155868	-6.242699	-1.164942	-0.561887	-0.428694	-0.553051	0.441179
50906	-8.747097	-2.323656	5.786301	-1.349933	-6.046127	-1.043683	-0.513848	-0.486856	-0.514305	0.484172
50907	-8.220801	-1.212227	4.086734	-1.347264	-4.198304	-1.672848	-0.465774	-0.536842	-0.471652	0.521919
50908	-9.579093	-0.774919	0.453111	-0.988366	-0.602003	-0.261552	-0.421540	-0.575435	-0.431716	0.552087
50909	-9.656303	-1.726280	-1.791075	-1.263284	1.852334	-0.096727	-0.383462	-0.602567	-0.398750	0.575211
50910	-9.079673	-3.782915	-3.398965	-2.196068	4.240637	-0.567218	-0.352195	-0.620495	-0.372968	0.593161
50911	-9.131488	-5.216035	-4.064912	-2.699446	5.618130	-0.418777	-0.329514	-0.629725	-0.356903	0.606207
50912	-8.244829	-7.866719	-4.533737	-4.283121	7.556005	-1.154521	-0.314320	-0.632744	-0.348996	0.615662
50913	-8.508679	-9.264449	-4.246783	-5.292887	8.148000	-0.765431	-0.307385	-0.630456	-0.348289	0.621880
50914	-7.839523	-12.145693	-2.701910	-8.405292	8.539232	-1.285783	-0.308165	-0.624791	-0.350744	0.625819
50915	-9.188864	-4.044967	-0.359848	-2.903220	2.073649	-0.421383	-0.311566	-0.621786	-0.347570	0.628891
50916	-10.389675	1.596639	1.133551	1.005456	-2.238817	0.471044	-0.315368	-0.619534	-0.344748	0.630769
50917	-10.819997	0.599101	1.433904	0.032907	-1.854980	0.959722	-0.318014	-0.617944	-0.343156	0.631867
50918	-11.012518	-1.428785	1.067894	-1.435427	-0.357215	1.244835	-0.320505	-0.616227	-0.341505	0.633178
50919	-10.747362	-0.505749	0.599624	-0.398822	-0.386071	0.948922	-0.323160	-0.613976	-0.339396	0.635147
50920	-10.365193	-0.067693	0.341767	0.134921	-0.309150	0.552816	-0.325904	-0.610350	-0.337565	0.638208
50921	-10.332801	-0.122392	0.888444	-0.145845	-0.624515	0.539035	-0.328693	-0.605804	-0.335741	0.642059
50922	-10.095117	-0.576732	0.966365	-0.499758	-0.326318	0.327331	-0.331533	-0.601017	-0.333965	0.646012
50923	-10.195884	-0.177722	1.324170	-0.276664	-0.729109	0.440673	-0.334065	-0.596488	-0.332261	0.649773
50924	-10.276322	0.428559	2.324372	-0.232201	-1.797255	0.574999	-0.335879	-0.592587	-0.331214	0.652934
50925	-10.433852	0.076413	2.483481	-0.529241	-1.669505	0.768942	-0.337091	-0.589339	-0.331990	0.654853
50926	-9.715741	-2.261768	2.237533	-2.366746	-0.210838	0.130743	-0.338240	-0.588039	-0.333509	0.654657
50927	-9.929503	-2.506483	2.382743	-2.657479	-0.214641	0.358162	-0.339520	-0.590106	-0.334311	0.651719
50928	-10.403803	-2.522717	3.476839	-3.330875	-1.164915	0.875490	-0.341868	-0.595101	-0.335048	0.645542
50929	-11.439299	-3.281152	5.164817	-5.011300	-2.265791	1.936493	-0.345206	-0.602703	-0.336716	0.635771
50930	-12.747603	-4.501409	6.779501	-7.175332	-3.156736	3.119880	-0.348401	-0.614140	-0.337793	0.622370
50931	-14.073580	-7.778751	8.440847	-11.313081	-3.145556	4.039501	-0.353932	-0.628106	-0.338672	0.604579
50932	-15.169014	-10.337166	10.463399	-15.260686	-4.045310	4.223661	-0.363456	-0.646667	-0.339901	0.578091
50933	-15.914809	-13.529014	8.131618	-17.949989	-1.334893	3.528163	-0.377540	-0.672837	-0.345466	0.534235
50934	-18.206392	-10.739491	6.312263	-16.508924	-2.501221	4.579652	-0.397943	-0.700280	-0.351721	0.477014
50935	-23.040975	-15.089332	1.003256	-21.729138	1.558069	7.020502	-0.425294	-0.722831	-0.363554	0.405547
50936	-23.570486	-22.705946	-8.600068	-28.504932	10.919516	4.725341	-0.462764	-0.734557	-0.355914	0.345833
50937	0.891669	-32.021592	-12.408127	-23.395199	21.635196	-22.570505	-0.500416	-0.744915	-0.301731	0.321939
50938	-41.234797	17.723701	-10.104805	-10.849516	-1.628121	34.861601	-0.475688	-0.775084	-0.257279	0.326761
50939	-4.197799	-20.002187	1.336697	-17.556435	6.295619	-18.272877	-0.494865	-0.747289	-0.253042	0.364194
50940	-0.403224	-14.417302	4.802524	-12.480564	1.555624	-18.339199	-0.460304	-0.754389	-0.240409	0.401524
50941	-0.847057	-10.902922	2.144291	-9.314430	3.484085	-14.830722	-0.423101	-0.759777	-0.228048	0.437856
50942	-3.874522	-5.481255	1.752641	-6.684109	1.723992	-9.150676	-0.384842	-0.761597	-0.220810	0.472345
50943	-6.796132	-5.534868	0.305841	-6.943032	3.374624	-5.657954	-0.349144	-0.757034	-0.217450	0.507656
50944	-9.114017	-5.673421	-1.217204	-6.325418	4.929298	-2.579209	-0.316411	-0.745223	-0.215003	0.546169
50945	-9.568948	-4.948239	-1.242891	-4.996657	4.641042	-1.388154	-0.283981	-0.728268	-0.210742	0.587000
50946	-9.889669	-2.066091	0.133188	-3.163197	1.712617	-0.375734	-0.249011	-0.707472	-0.204158	0.629123
50947	-9.304985	0.602809	0.815876	-1.040347	-0.824651	-0.550614	-0.208470	-0.684424	-0.195581	0.670710
50948	-8.027258	3.045629	3.359307	-1.119004	-4.397449	-1.788138	-0.160564	-0.661920	-0.186036	0.708146
50949	-7.728260	2.129260	3.726413	-1.571051	-3.907504	-2.040803	-0.108829	-0.643986	-0.174890	0.736784
50950	-9.626650	4.496691	4.060416	-0.622242	-6.540758	-0.528382	-0.058071	-0.635692	-0.160297	0.752880
50951	-14.995842	0.151139	-2.407282	5.012438	-1.589298	4.434157	-0.012442	-0.638837	-0.143297	0.755777
50952	-20.630471	-6.040936	-13.166849	15.227523	4.763217	9.698547	0.025201	-0.646720	-0.115723	0.753476
50953	-22.462649	-14.123354	-26.512798	28.497926	12.477051	11.129717	0.050855	-0.649696	-0.066324	0.755586
50954	-19.224005	-13.160004	-37.614941	40.653837	9.880123	4.521420	0.064279	-0.637623	0.009482	0.767604
50955	-9.327110	-2.807468	-34.162845	35.315485	-2.995940	-7.827019	0.071457	-0.609041	0.099068	0.783676
50956	-0.117398	10.196480	-19.927951	15.710738	-15.506660	-13.450190	0.078002	-0.581799	0.168802	0.791790
50957	-1.362141	12.298052	-15.475776	10.201220	-16.981373	-9.883900	0.084636	-0.595092	0.195912	0.774804
50958	-22.934049	18.935404	-44.974880	40.070405	-32.312988	6.231827	0.098052	-0.620450	0.142376	0.764956
50959	-20.874354	-29.137437	-43.625680	54.065005	13.343928	-0.498765	0.112132	-0.609752	0.130549	0.773683
50960	-16.630774	16.169516	-21.765585	19.032983	-23.041651	1.030413	0.124559	-0.559319	0.124025	0.810102
50961	-8.274939	-12.921091	15.174948	-6.639669	15.511368	3.604097	0.127152	-0.535017	0.047896	0.833844
50962	-4.271526	2.395183	35.963636	-30.533426	5.101637	9.130943	0.140110	-0.528060	0.063154	0.835185
50963	-16.181105	-14.748929	2.142775	8.432286	11.747602	6.762074	0.144967	-0.545858	0.046238	0.823945
50964	-7.048199	-2.720485	10.937511	-6.509449	3.867824	1.112847	0.147888	-0.551463	0.055065	0.819137
50965	-9.065362	5.927956	4.394338	-2.717366	-6.178125	-0.269703	0.146558	-0.566432	0.054980	0.809106
50966	-7.840797	0.873101	-0.846394	2.873237	-2.425541	-2.825848	0.149078	-0.574328	0.050333	0.803362
50967	-8.613932	0.244634	-2.111955	4.303190	-2.343283	-2.416087	0.156022	-0.578193	0.051691	0.799173
50968	-10.470414	-2.727040	-1.629645	5.193883	0.117330	-0.183085	0.162537	-0.578105	0.046636	0.798249
50969	-8.915794	-9.770402	4.234235	1.490585	8.411232	1.137458	0.163280	-0.577428	0.037212	0.799082
50970	-9.871229	-1.730606	6.710845	-2.958404	1.104773	1.827697	0.162916	-0.579730	0.036699	0.797512
50971	-9.529136	-1.313142	4.306841	-1.037997	0.220776	0.673063	0.163035	-0.582733	0.037034	0.795280
50972	-9.411144	-0.667546	2.571505	0.266547	-0.755024	-0.066596	0.163891	-0.585543	0.039308	0.792928
50973	-8.907829	-1.131880	1.549749	1.165164	-0.435643	-0.785795	0.165430	-0.587016	0.041345	0.791414
50974	-9.008498	-0.997350	1.008059	1.632337	-0.716604	-0.869205	0.167656	-0.586652	0.043279	0.791112
50975	-9.308979	-1.146960	3.017699	-0.079488	-0.141286	0.038847	0.170090	-0.585309	0.043735	0.791562
50976	-9.342974	-1.782669	4.307285	-1.030663	0.764394	0.549511	0.172306	-0.584223	0.044517	0.791841
50977	-8.891895	-2.165760	4.043863	-0.786901	1.148983	0.095374	0.172174	-0.585568	0.044297	0.790888
50978	-9.215407	-0.977833	2.691983	0.121631	-0.387455	-0.171028	0.171547	-0.587393	0.043899	0.789692
50979	-9.230265	-0.521346	2.207605	0.389302	-0.945221	-0.362924	0.171595	-0.588796	0.043200	0.788675
50980	-9.295253	-0.765122	1.708586	0.913932	-0.873313	-0.415432	0.172068	-0.589353	0.042000	0.788221
50981	-8.434536	-1.998306	3.021197	-0.131250	0.786666	-0.667959	0.171672	-0.589391	0.038971	0.788434
50982	-9.033556	-3.698643	3.715787	-0.118075	2.421844	0.346684	0.169765	-0.589936	0.038976	0.788439
50983	-9.277556	-2.529320	3.359848	-0.096342	1.233783	0.298042	0.167669	-0.590960	0.042806	0.787922
50984	-9.306651	-0.392080	1.911935	0.597765	-1.067734	-0.382691	0.166008	-0.591008	0.047923	0.787943
50985	-9.043057	-0.370506	1.302724	1.125072	-1.121122	-0.807801	0.164750	-0.588743	0.051505	0.789675
50986	-10.270148	-1.368900	2.083950	1.128482	-0.173943	0.693829	0.163771	-0.583166	0.053857	0.793849
50987	-10.114069	-1.617956	4.713896	-1.058653	0.827398	1.382136	0.163761	-0.576245	0.057596	0.798628
50988	-10.261828	-1.984463	3.481795	0.427894	0.851257	1.162470	0.164681	-0.568507	0.062845	0.803574
50989	-10.675839	-1.718635	4.009897	0.212475	0.719673	1.695522	0.166995	-0.560936	0.069599	0.807849
50990	-11.811789	-2.861689	2.032423	2.987933	0.949012	2.103612	0.164101	-0.548098	0.060178	0.817947
50991	-11.325656	-0.184298	0.858713	3.372286	-1.974217	0.852697	0.163292	-0.531002	0.049240	0.830029
50992	-23.998250	1.708410	-3.649311	12.002594	-7.814668	9.858980	0.162814	-0.519024	0.043303	0.837992
50993	-36.871426	9.794359	-8.714390	20.757589	-19.586004	16.943452	0.152927	-0.483678	0.033979	0.861112
50994	-14.524585	2.197100	4.012917	3.945796	-4.705021	4.111374	0.131641	-0.433573	0.017320	0.891283
50995	-11.682887	3.568215	4.488591	3.273422	-5.220239	1.640983	0.094920	-0.389188	0.012519	0.916169
50996	-14.201430	15.549014	2.484351	6.494167	-16.881170	1.219748	0.037589	-0.350232	0.009641	0.935859
50997	-16.686170	55.527341	-2.979603	16.046054	-55.508332	-5.711495	-0.030599	-0.337062	-0.084533	0.937180
50998	-19.673355	-20.363222	-46.028454	38.513746	34.602154	-24.603729	-0.076383	-0.330417	-0.235550	0.910772
50999	-13.791268	-10.584292	-16.295400	15.264610	18.056773	-7.065564	-0.138125	-0.321305	-0.283774	0.892836
51000	-16.715581	-1.941804	-13.004988	17.418065	11.429739	-5.609930	-0.195435	-0.328411	-0.303467	0.872846
51001	-15.783649	2.296092	-7.854324	15.488342	6.329306	-3.826317	-0.237880	-0.345805	-0.323037	0.848221
51002	-15.609635	-5.193576	-7.275756	9.218224	11.594698	0.380877	-0.268441	-0.369267	-0.338195	0.822925
51003	-15.261360	-8.480116	-5.379061	4.551236	12.202401	2.992378	-0.289778	-0.401095	-0.335124	0.801775
51004	-13.909872	-3.498993	-0.463776	4.099394	5.133664	2.941122	-0.304589	-0.437742	-0.319510	0.783276
51005	-12.344027	-0.949469	4.153305	1.993567	-0.320231	3.084806	-0.313845	-0.473005	-0.307702	0.763602
51006	-10.534994	-1.104288	6.339186	-0.943404	-2.403723	2.255548	-0.321485	-0.505724	-0.300810	0.741892
51007	-8.965119	0.270217	8.372416	-2.282890	-5.284049	1.020267	-0.330157	-0.534763	-0.297059	0.718874
51008	-7.200759	0.696618	9.593420	-3.631322	-6.998447	-0.748083	-0.341031	-0.559803	-0.297465	0.694142
51009	-6.402703	2.419738	9.453741	-2.658168	-8.221878	-1.967998	-0.354456	-0.580969	-0.299432	0.668712
51010	-6.209761	2.710823	8.769517	-2.261306	-8.046302	-2.536155	-0.370818	-0.597230	-0.304709	0.642621
51011	-6.468658	-1.063833	7.523962	-4.947471	-5.204559	-2.884362	-0.390320	-0.610924	-0.309458	0.615352
51012	-7.847242	-1.460908	5.921045	-4.826445	-3.682422	-1.944974	-0.413697	-0.621897	-0.305961	0.590328
51013	-8.625930	1.350004	6.665234	-3.122710	-5.558093	-0.868217	-0.441240	-0.626757	-0.299108	0.568346
51014	-9.178408	0.656836	5.498821	-3.567404	-4.028906	-0.541883	-0.472186	-0.624067	-0.294725	0.548378
51015	-9.148920	-0.310721	4.504471	-4.208103	-2.598801	-0.889501	-0.505862	-0.613472	-0.291213	0.531931
51016	-8.603404	-1.007027	4.002999	-4.607322	-1.844265	-1.662470	-0.540887	-0.595518	-0.290912	0.517851
51017	-7.567339	-2.736111	3.064059	-5.627856	-0.702677	-3.334050	-0.574465	-0.573509	-0.294242	0.504480
51018	-6.930337	-4.071850	1.264479	-6.282628	0.970206	-4.734091	-0.603287	-0.551072	-0.301448	0.491421
51019	-5.650519	-6.996800	1.822056	-8.683266	0.038122	-6.848165	-0.622930	-0.533150	-0.312343	0.479741
51020	-6.907560	-10.348680	-0.320034	-12.021243	2.084816	-7.354963	-0.623964	-0.533365	-0.326444	0.468641
51021	-31.535981	10.402760	-17.093602	0.237110	22.588103	19.913545	-0.592351	-0.574718	-0.327483	0.459972
51022	-26.044317	-17.259436	-27.688150	-20.016747	32.899846	6.223851	-0.554893	-0.513831	-0.388670	0.526315
51023	-0.576090	-46.490051	-0.551755	-45.086332	7.623820	-17.933987	-0.536456	-0.530618	-0.306584	0.580229
51024	-11.758853	33.578619	24.955462	22.918309	-28.203746	14.008808	-0.509669	-0.532042	-0.300873	0.605512
51025	-15.006957	-52.822916	-21.550685	-45.205506	37.746136	-7.127710	-0.505483	-0.493104	-0.355161	0.612533
51026	-12.502271	7.925967	2.842429	7.148777	-0.994717	3.419832	-0.500008	-0.482763	-0.332106	0.637681
51027	-6.919934	-17.323094	3.910283	-17.282323	2.865402	-2.319233	-0.509567	-0.439949	-0.357974	0.647025
51028	-9.529265	-7.192613	7.828896	-7.539319	-2.261505	2.097864	-0.514179	-0.425257	-0.355675	0.654424
51029	-10.014001	1.160100	11.184254	0.321213	-6.590922	3.720867	-0.518055	-0.413843	-0.354136	0.659501
51030	-10.629865	0.848276	8.796403	0.730721	-3.954415	3.412816	-0.518639	-0.405960	-0.357270	0.662244
51031	-9.346335	-1.576291	7.188250	-1.329421	-2.501526	1.740676	-0.517578	-0.398900	-0.363897	0.663754
51032	-9.556511	-2.346608	4.226947	-1.436053	0.362841	0.794124	-0.516175	-0.393518	-0.369829	0.664781
51033	-9.022794	-3.460612	3.231392	-2.350391	1.233146	0.025131	-0.515053	-0.389690	-0.373253	0.665991
51034	-8.994187	-1.927906	3.900840	-0.846885	0.334511	0.137140	-0.514844	-0.385923	-0.376135	0.666724
51035	-10.043518	0.844227	3.494797	2.189321	0.593604	0.610932	-0.514113	-0.382563	-0.382815	0.665421
51036	-9.877514	0.966646	4.610463	2.308728	-0.552496	0.869889	-0.512107	-0.376981	-0.390385	0.665756
51037	-9.362597	-2.483735	5.236898	-1.007894	-0.847202	1.119502	-0.510946	-0.369774	-0.401566	0.664038
51038	-9.755631	-1.285208	4.467885	0.509114	-0.259489	0.978810	-0.511051	-0.362901	-0.410468	0.662304
51039	-9.786237	2.763756	4.608793	4.620954	-0.889603	0.311668	-0.516786	-0.354414	-0.419032	0.657066
51040	-10.936940	4.719824	3.085017	6.882220	0.977771	0.340031	-0.533854	-0.341057	-0.430379	0.643004
51041	-12.522201	6.712468	0.079007	8.827278	4.860730	0.199722	-0.563171	-0.321413	-0.444773	0.617826
51042	-10.160343	4.366792	0.047311	5.628460	4.580516	-1.471301	-0.599463	-0.296073	-0.461511	0.583089
51043	-8.454465	3.442201	2.341260	4.579505	2.281451	-1.901081	-0.637172	-0.269429	-0.477461	0.541710
51044	-7.708391	1.380635	1.618639	1.986540	2.407186	-2.451440	-0.673092	-0.241163	-0.492956	0.495763
51045	-5.434282	-1.476435	-0.228563	-1.673988	1.778604	-4.734643	-0.705059	-0.211985	-0.507195	0.448004
51046	-5.461388	-6.726591	2.524354	-4.551823	-3.396638	-2.801899	-0.728549	-0.183376	-0.520157	0.406235
51047	-10.873726	-26.799264	1.707481	-20.668649	-13.798667	5.072740	-0.736530	-0.168912	-0.529017	0.386176
51048	-5.640045	-27.202439	-1.900701	-22.221523	-14.257952	-0.963513	-0.726206	-0.181499	-0.539338	0.385743
51049	-11.669685	13.345901	8.988607	14.524865	6.467383	2.114680	-0.720932	-0.196498	-0.546668	0.377888
51050	-10.491711	-0.081172	0.025210	-1.122814	3.200981	0.115231	-0.711567	-0.204304	-0.559586	0.372554
51051	-10.083802	0.108627	-0.332766	-0.958308	3.161659	-0.279626	-0.701077	-0.213819	-0.571506	0.368989
51052	-9.429606	-2.738712	1.607226	-1.579263	-0.507368	-0.002465	-0.690895	-0.220564	-0.583510	0.365421
51053	-10.395583	-1.070508	1.318213	-0.331285	0.759041	0.687601	-0.680978	-0.225981	-0.594954	0.362258
51054	-9.758426	-0.902550	0.816661	-0.298482	0.882384	-0.023165	-0.672306	-0.229262	-0.604724	0.360212
51055	-10.087259	-2.703504	1.912121	-0.750013	-1.190556	0.710284	-0.663783	-0.233677	-0.612850	0.359447
51056	-9.379498	-1.983217	0.634557	-0.887902	-0.070881	-0.246411	-0.655867	-0.238550	-0.620066	0.358401
51057	-10.343104	-0.733497	0.729404	0.296302	0.672133	0.555866	-0.648905	-0.242384	-0.626137	0.357946
51058	-10.421394	-1.229212	0.837769	0.128254	0.171395	0.712064	-0.643352	-0.244415	-0.631046	0.357967
51059	-10.012142	-1.164084	0.622556	0.136672	0.239176	0.282279	-0.638536	-0.245127	-0.635417	0.358371
51060	-10.166450	-0.332622	0.444338	0.779572	0.884306	0.300374	-0.635482	-0.242243	-0.639925	0.357738
51061	-9.846703	-1.460149	0.235677	-0.129591	0.277645	0.139721	-0.633089	-0.238820	-0.643527	0.357823
51062	-9.563591	-1.477670	0.949897	0.398030	-0.305322	-0.102097	-0.631055	-0.234647	-0.647357	0.357267
51063	-9.462249	-1.408357	0.896261	0.509468	-0.225715	-0.220534	-0.629864	-0.228329	-0.652355	0.354359
51064	-9.527239	-0.877066	1.200662	1.221773	-0.084155	-0.248263	-0.628589	-0.221568	-0.657693	0.351032
51065	-9.571733	-1.243349	0.770146	0.786437	0.007113	-0.161919	-0.626534	-0.215365	-0.663041	0.348497
51066	-9.412707	-1.695799	0.484872	0.370228	-0.110861	-0.244029	-0.623908	-0.209967	-0.668271	0.346505
51067	-9.314647	-1.585452	0.288456	0.419851	0.088666	-0.369478	-0.620958	-0.205337	-0.673107	0.345215
51068	-9.447322	-1.717187	0.278152	0.465183	0.024813	-0.217920	-0.617497	-0.200762	-0.678072	0.344399
51069	-9.432687	-2.738379	-0.218538	-0.463153	-0.337565	-0.004924	-0.614131	-0.196765	-0.682865	0.343252
51070	-9.754962	-1.285628	-0.418085	0.547917	0.844348	-0.016097	-0.612581	-0.191953	-0.687272	0.339935
51071	-10.954357	3.178207	0.231338	4.213497	3.749902	0.103719	-0.617589	-0.180834	-0.692092	0.326943
51072	-10.356799	1.397744	-0.911379	1.916139	3.204671	-0.009633	-0.629315	-0.160193	-0.697788	0.302311
51073	-9.271612	-3.155404	-2.181952	-2.133992	0.209573	-0.010775	-0.641316	-0.136468	-0.703138	0.275114
51074	-8.722296	-5.625722	-1.810880	-3.199463	-2.345994	-0.052572	-0.649715	-0.117649	-0.706923	0.253552
51075	-9.074543	-3.919442	-1.599334	-2.073126	-1.150667	-0.084215	-0.656078	-0.104503	-0.709072	0.236343
51076	-9.264243	-2.875932	-0.984711	-1.043683	-0.638081	-0.139580	-0.662114	-0.094070	-0.710175	0.220016
51077	-9.466315	-4.047435	-0.918273	-1.457953	-1.820288	0.256812	-0.668103	-0.083992	-0.710899	0.202995
51078	-9.136306	-2.946404	0.421998	0.184538	-1.531517	-0.328457	-0.674419	-0.069627	-0.712660	0.180076
51079	-10.134266	0.833097	-0.649722	0.447433	2.386120	0.082883	-0.680367	-0.051602	-0.714554	0.154437
51080	-10.029501	-1.499566	-0.427057	-0.081351	0.002318	0.336927	-0.684890	-0.033511	-0.715910	0.131437
51081	-9.846616	-2.092689	-0.517630	-0.304907	-0.659831	0.240877	-0.688090	-0.018106	-0.716705	0.111973
51082	-9.654608	-3.261983	-0.351274	-0.289818	-1.938878	0.193849	-0.690575	-0.002816	-0.717322	0.092456
51083	-8.966373	-4.142504	-2.115558	-2.085257	-2.787562	-0.330595	-0.692610	0.008047	-0.717220	0.076303
51084	-10.085932	0.072284	0.103357	0.557188	1.210688	0.185579	-0.693699	0.013983	-0.717123	0.065729
51085	-10.142000	-1.542007	-0.102619	0.239748	-0.416912	0.435097	-0.694401	0.017834	-0.716916	0.059335
51086	-9.749416	-2.380140	-0.836020	-0.549063	-1.293012	0.159354	-0.694999	0.018373	-0.716581	0.056135
51087	-9.964575	-1.837565	-0.958969	-0.662975	-0.774416	0.313979	-0.696800	0.019038	-0.715131	0.051904
51088	-9.834736	-1.623051	-1.902503	-1.669320	-0.598199	0.178822	-0.700796	0.021700	-0.711536	0.046170
51089	-9.921794	-0.497807	-1.077571	-0.943292	0.458428	0.124556	-0.706521	0.025474	-0.706074	0.040478
51090	-9.728548	0.108000	-0.138052	-0.162203	1.006750	-0.136267	-0.712528	0.027983	-0.700115	0.036882
51091	-9.440302	0.695253	0.908639	0.731406	1.548433	-0.458870	-0.718011	0.026969	-0.694542	0.036674
51092	-9.767859	1.192354	1.151730	0.831065	2.062297	-0.157939	-0.722938	0.024403	-0.689362	0.039302
51093	-9.886266	-1.292019	0.618570	0.140482	-0.418783	0.166981	-0.726676	0.019084	-0.685428	0.042033
51094	-9.901626	-2.487615	0.887637	0.258882	-1.668373	0.295040	-0.729870	0.011942	-0.682021	0.044662
51095	-9.936476	-1.051505	0.775780	0.088493	-0.305837	0.204216	-0.732806	0.004189	-0.678792	0.047106
51096	-9.226691	-0.928342	2.765907	2.055493	-0.385986	-0.364428	-0.734262	0.002382	-0.677258	0.046645
51097	-9.665554	1.472988	0.194107	-0.445608	2.154530	-0.284328	-0.735333	0.003953	-0.676128	0.046054
51098	-8.942702	1.205265	-0.134900	-0.764003	1.875415	-1.018274	-0.736345	0.005983	-0.674951	0.046922
51099	-9.083240	-0.584016	-0.003253	-0.757778	0.138388	-0.743356	-0.737055	0.007646	-0.674036	0.048651
51100	-9.109898	-1.803174	-0.131073	-0.969193	-1.033468	-0.633832	-0.737628	0.007379	-0.673267	0.050608
51101	-9.234149	-1.416699	0.446979	-0.406071	-0.655492	-0.491651	-0.738198	0.005000	-0.672511	0.052609
51102	-9.608764	0.939395	1.397698	0.639032	1.660867	-0.221154	-0.738260	0.002735	-0.672324	0.054268
51103	-9.747570	-0.085187	1.886053	1.052627	0.625062	0.040273	-0.737890	0.003053	-0.672657	0.055142
51104	-9.899469	-1.128437	1.034351	0.151995	-0.329600	0.197846	-0.736511	0.005445	-0.674213	0.054397
51105	-9.077907	-2.362636	1.320962	0.493837	-1.632195	-0.494600	-0.734010	0.008546	-0.677174	0.050908
51106	-9.967723	-0.930812	0.383638	-0.351097	-0.096755	0.199109	-0.731996	0.010562	-0.679557	0.047676
51107	-10.032968	-0.379137	0.013001	-0.640723	0.450926	0.196818	-0.730220	0.011284	-0.681607	0.045422
51108	-9.959337	-0.829287	0.676728	0.051752	-0.048608	0.203744	-0.729107	0.011372	-0.682892	0.043950
51109	-9.735038	-1.904706	0.749944	0.132543	-1.167369	0.065609	-0.727893	0.010237	-0.684285	0.042663
51110	-9.419164	-2.166241	0.603665	0.031541	-1.499025	-0.245606	-0.726358	0.006949	-0.686059	0.040969
51111	-9.436053	-1.038614	0.127672	-0.355801	-0.437857	-0.335617	-0.724441	0.002182	-0.688237	0.038859
51112	-10.045883	0.290434	0.618329	0.211293	0.805662	0.221834	-0.722901	-0.002835	-0.689967	0.036756
51113	-10.245958	-1.335993	0.881626	0.431268	-0.918769	0.507719	-0.721595	-0.007035	-0.691413	0.034639
51114	-10.608071	-1.130749	0.692003	0.264815	-0.791350	0.845233	-0.720879	-0.011477	-0.692220	0.032141
51115	-11.089751	-1.596383	1.135601	0.674104	-1.377605	1.343797	-0.720718	-0.016522	-0.692392	0.029746
51116	-11.154726	-2.528158	0.893909	0.360217	-2.430200	1.393596	-0.721173	-0.023316	-0.691833	0.027069
51117	-11.719650	-2.858033	1.458063	0.830602	-2.980127	1.937566	-0.722074	-0.033195	-0.690612	0.023733
51118	-12.835488	-3.067359	2.701268	1.922751	-3.567332	3.033400	-0.723336	-0.045673	-0.688713	0.019313
51119	-14.567312	-3.704486	3.623278	2.570277	-4.719256	4.684243	-0.725260	-0.060073	-0.685702	0.014202
51120	-15.148415	-8.870160	4.788521	3.049846	-10.445487	4.769731	-0.726473	-0.073409	-0.683236	0.006162
51121	-13.761244	-13.935504	7.728502	5.472703	-16.164690	2.515071	-0.722400	-0.091538	-0.685350	-0.007343
51122	-16.521981	-15.295484	7.266038	5.035410	-18.624667	3.868223	-0.708204	-0.115118	-0.695597	-0.036604
51123	-19.337948	-13.317632	8.248537	7.021031	-18.410937	5.374006	-0.693913	-0.131018	-0.703316	-0.081642
51124	-18.778085	-24.091200	-3.840937	-4.025892	-29.058536	-0.555039	-0.670272	-0.149871	-0.712652	-0.142832
51125	-13.120044	-41.170920	-28.834972	-28.204533	-43.207403	-15.601520	-0.642535	-0.199071	-0.712496	-0.199672
51126	-23.456785	-5.143172	-37.635563	-35.246337	-16.486287	12.024315	-0.578980	-0.346220	-0.718144	-0.170830
51127	-37.172213	30.476150	-15.202116	0.085383	-0.899795	40.572269	-0.566828	-0.402974	-0.713734	-0.083073
51128	3.169789	0.232922	21.984526	18.390749	-6.570220	-20.328813	-0.547035	-0.425494	-0.720854	0.008799
51129	0.066060	-2.525565	8.824608	4.927431	-6.018410	-14.675409	-0.515461	-0.428505	-0.738425	0.073564
51130	1.195313	2.578127	10.613166	8.851846	-3.822414	-15.070312	-0.492953	-0.431181	-0.745380	0.124455
51131	-4.469596	-0.790009	4.626488	2.956868	-5.602348	-8.443346	-0.482973	-0.425725	-0.748846	0.157244
51132	-6.089485	-3.847925	1.557001	-1.098723	-6.144061	-5.896024	-0.485432	-0.424805	-0.740674	0.187880
51133	-6.045710	0.339750	3.597082	3.214092	-4.946102	-5.966175	-0.496512	-0.428484	-0.722296	0.219468
51134	-6.573111	2.058606	3.625281	4.467567	-4.132351	-4.961684	-0.513234	-0.428052	-0.700757	0.249605
51135	-7.483892	0.479537	2.351768	2.300245	-3.982851	-3.442231	-0.533979	-0.421346	-0.677534	0.279788
51136	-8.301823	-1.463658	0.991481	-0.273088	-3.502081	-2.089079	-0.555398	-0.411081	-0.652009	0.312137
51137	-7.876799	-1.750608	0.924734	-0.843696	-2.798081	-2.238373	-0.575533	-0.398612	-0.624667	0.345922
51138	-6.982712	-2.744278	1.834668	-1.563355	-3.269756	-2.995469	-0.592378	-0.384487	-0.597831	0.379283
51139	-7.628202	-3.318965	2.351917	-2.052139	-3.313599	-2.099220	-0.603381	-0.371956	-0.572776	0.411713
51140	-8.859897	-3.075419	2.064899	-2.055036	-2.191327	-0.693673	-0.605296	-0.362609	-0.553377	0.442611
51141	-10.573321	-3.764181	0.405105	-3.178226	-0.075417	0.957290	-0.594092	-0.359938	-0.543585	0.471185
51142	-13.752428	-5.699389	-6.030198	-6.360096	6.464598	3.439974	-0.571022	-0.364757	-0.538391	0.501021
51143	-15.074525	-7.351813	-11.579914	-8.050514	12.305588	4.289922	-0.540347	-0.377381	-0.529948	0.533632
51144	-16.087348	-9.087787	-17.829808	-8.825876	19.190367	4.768531	-0.508247	-0.394879	-0.514714	0.566414
51145	-14.656578	-5.407855	-20.075474	-3.365248	22.160685	2.194745	-0.481240	-0.414253	-0.490144	0.597128
51146	-10.388819	-2.825931	-20.514510	0.312340	22.088972	-2.847824	-0.461023	-0.426028	-0.472468	0.618653
51147	-4.453770	-9.032409	-26.213938	-5.303998	27.540381	-8.427339	-0.448669	-0.433394	-0.470090	0.624405
51148	1.970378	-16.502993	-31.918858	-12.654223	33.463561	-13.691421	-0.441473	-0.444333	-0.471388	0.620857
51149	-19.815262	-24.144326	-61.528962	-11.086150	66.510815	4.842479	-0.448304	-0.481484	-0.451800	0.602556
51150	-31.353344	58.422241	-34.103839	67.450116	25.576668	9.025404	-0.473528	-0.464019	-0.380055	0.644992
51151	-13.911102	-17.192002	-31.354710	-9.267419	36.821061	-4.359948	-0.492037	-0.401824	-0.414196	0.651827
51152	-6.880941	9.012674	44.310033	5.271596	-39.189920	13.069004	-0.530242	-0.366535	-0.355363	0.676915
51153	-7.577092	-9.498963	16.281969	-9.536535	-9.786415	5.215463	-0.511575	-0.375348	-0.392172	0.666038
51154	-11.417218	-2.826324	9.552097	-1.555123	-3.935863	4.736007	-0.514096	-0.384481	-0.388564	0.660982
51155	-11.605117	-1.613519	1.951634	0.177154	2.664575	1.760881	-0.508833	-0.398763	-0.392451	0.654262
51156	-9.049224	-1.211211	4.853450	-0.280876	-1.233873	0.449223	-0.507817	-0.404367	-0.398047	0.648203
51157	-8.540684	-3.139684	1.499705	-1.940702	1.843830	-0.987640	-0.507344	-0.409393	-0.403330	0.642125
51158	-8.116186	-3.482574	-2.148443	-2.030211	5.064907	-2.543545	-0.509365	-0.413264	-0.404428	0.637337
51159	-7.845635	-0.971406	0.469542	0.043794	2.129182	-2.184960	-0.514191	-0.413523	-0.404368	0.633319
51160	-8.666641	0.998304	3.767607	1.744963	-0.991002	-0.524251	-0.519197	-0.410698	-0.410837	0.626877
51161	-10.235358	0.078019	2.859337	1.146290	0.422968	0.744352	-0.523746	-0.405149	-0.419507	0.620933
51162	-9.713275	-2.144337	1.538119	-0.998179	1.679988	0.061158	-0.528397	-0.398902	-0.425745	0.616778
51163	-8.285316	-1.675785	1.611998	-0.699528	1.132328	-1.310822	-0.533594	-0.394573	-0.428111	0.613441
51164	-7.553098	-0.889955	1.015504	-0.017921	1.454308	-2.278963	-0.540041	-0.389822	-0.429695	0.609719
51165	-5.092079	1.041334	3.266709	1.606841	-1.511721	-4.084005	-0.543705	-0.388760	-0.432083	0.605437
51166	-8.935922	0.345189	2.422990	1.296534	0.453516	-0.650146	-0.540965	-0.394891	-0.434996	0.601827
51167	-12.159758	12.379565	11.478258	13.641147	-7.813785	3.814621	-0.532956	-0.402447	-0.444118	0.597288
51168	-10.615857	-2.922520	4.361715	-1.543174	-1.457291	1.837332	-0.525739	-0.397216	-0.469306	0.587853
51169	-9.623452	-5.322780	0.357217	-3.917319	1.752452	0.318420	-0.517792	-0.399024	-0.485063	0.580848
51170	-9.245543	-3.667792	0.088564	-2.235288	1.645337	-0.261239	-0.511052	-0.402764	-0.495817	0.575128
51171	-9.918898	-2.509107	2.173795	-0.825181	-0.514759	0.601443	-0.503599	-0.409835	-0.502508	0.570883
51172	-9.657628	-3.103109	1.276692	-1.495473	0.075993	0.300799	-0.494002	-0.421303	-0.505146	0.568589
51173	-9.695939	-1.945768	-0.649338	-0.424428	1.809900	-0.078170	-0.484743	-0.433548	-0.503344	0.568951
51174	-9.351914	-2.532043	1.018702	-1.066004	-0.008640	-0.129197	-0.478609	-0.440561	-0.503168	0.568912
51175	-9.552987	-1.749685	1.994719	-0.296228	-1.093418	0.036939	-0.473896	-0.446353	-0.504543	0.567122
51176	-10.152773	-1.141712	1.279490	0.390317	-0.490932	0.464669	-0.470083	-0.450590	-0.508136	0.563728
51177	-9.923946	-0.564344	2.143375	0.925667	-1.535651	0.196319	-0.468012	-0.451396	-0.514852	0.558689
51178	-10.516959	-0.303935	0.686705	1.368874	-0.203737	0.639688	-0.467197	-0.447201	-0.526562	0.551789
51179	-10.666857	-0.640470	-0.040989	1.185305	0.404398	0.799692	-0.463445	-0.443407	-0.534592	0.550292
51180	-9.907824	-2.140708	-0.750123	-0.298245	1.008635	0.296839	-0.459049	-0.440867	-0.538055	0.552636
51181	-9.457382	-2.876753	-0.657777	-0.988031	0.892207	0.004507	-0.454870	-0.439571	-0.538426	0.556748
51182	-9.475547	-2.367018	-0.017996	-0.384670	0.286743	-0.057782	-0.451578	-0.438111	-0.537780	0.561185
51183	-9.681057	-2.652826	0.652188	-0.542668	-0.322214	0.226567	-0.448026	-0.437556	-0.535347	0.566763
51184	-9.877252	-1.915716	0.498886	0.286205	-0.106563	0.256324	-0.444856	-0.436981	-0.532564	0.572299
51185	-9.021362	-2.992556	0.175715	-0.886657	0.281302	-0.351969	-0.442975	-0.435309	-0.530492	0.576939
51186	-8.573924	-3.720104	-0.028169	-1.657930	0.556453	-0.631541	-0.442241	-0.435541	-0.527740	0.579843
51187	-9.040499	-2.714928	0.048584	-0.584867	0.509734	-0.405152	-0.442614	-0.436829	-0.524950	0.581120
51188	-8.855776	-3.993685	0.226819	-1.923000	0.411417	-0.296483	-0.443663	-0.439405	-0.522211	0.580846
51189	-8.950651	-3.863191	-0.401607	-1.839744	1.060694	-0.289624	-0.444832	-0.445087	-0.517128	0.580173
51190	-9.507231	-2.124717	2.134485	-0.269795	-1.527230	0.038764	-0.448067	-0.449320	-0.513761	0.577406
51191	-9.309101	-2.601332	1.848012	-0.876452	-1.235974	-0.089271	-0.454912	-0.449169	-0.514927	0.571098
51192	-9.787863	-3.509099	1.385751	-1.760637	-0.743715	0.501498	-0.465579	-0.445343	-0.518111	0.562554
51193	-9.514653	-2.743928	2.945571	-1.119837	-2.360128	0.182805	-0.480868	-0.436639	-0.524069	0.550876
51194	-9.076236	-2.515031	2.535800	-0.933613	-2.028359	-0.318136	-0.500956	-0.419757	-0.538549	0.531801
51195	-9.444883	-0.827310	0.347603	0.579171	0.295698	-0.347595	-0.521644	-0.399568	-0.554795	0.510328
51196	-9.978247	1.703360	-0.319215	2.923025	1.520376	-0.236158	-0.537678	-0.381740	-0.568333	0.492113
51197	-10.717697	3.069610	-1.248187	4.007665	2.956762	0.239352	-0.545703	-0.371830	-0.575155	0.482853
51198	-10.837574	3.265747	-0.413204	4.401026	2.299660	0.367259	-0.546361	-0.369754	-0.576498	0.482101
51199	-9.118341	-3.933541	-0.067874	-2.544399	-0.142383	-0.214398	-0.545890	-0.368283	-0.577782	0.482224
51200	-8.964803	-3.216231	-0.490516	-1.993428	0.436963	-0.496694	-0.545992	-0.368894	-0.577734	0.481699
51201	-9.459708	-0.498317	-0.561340	0.620666	1.288277	-0.431611	-0.546664	-0.368714	-0.578081	0.480657
51202	-10.177361	-0.439441	0.394836	1.042580	0.462332	0.317808	-0.547431	-0.367319	-0.578496	0.480352
51203	-9.955111	-1.830561	0.787117	-0.190267	-0.305178	0.333513	-0.547646	-0.367135	-0.577887	0.480980
51204	-9.583961	-2.110359	1.104776	-0.424997	-0.709624	0.028157	-0.547150	-0.368781	-0.576327	0.482156
51205	-9.742491	-2.086488	1.574286	-0.279567	-1.139635	0.205838	-0.545949	-0.372221	-0.574400	0.483172
51206	-9.680044	-1.112045	0.902875	0.420442	-0.270387	-0.040022	-0.544456	-0.375649	-0.573632	0.483117
51207	-9.266604	-2.222317	0.722023	-0.764513	-0.473812	-0.298452	-0.543242	-0.378691	-0.573963	0.481713
51208	-9.353245	-2.390875	0.222741	-1.075662	-0.092919	-0.216703	-0.542877	-0.381334	-0.574877	0.478942
51209	-9.194778	-1.110065	2.196867	0.650284	-1.753573	-0.479751	-0.543167	-0.381680	-0.579198	0.473096
51210	-10.279125	0.098848	0.770691	1.579421	-0.074628	0.373724	-0.543206	-0.377803	-0.587106	0.466367
51211	-10.736796	0.283794	0.648764	1.868803	0.080201	0.783553	-0.542752	-0.372011	-0.593015	0.464071
51212	-10.671002	0.089842	-0.783313	1.356184	1.427123	0.704625	-0.542837	-0.363110	-0.597388	0.465410
51213	-9.955927	-0.806708	-1.630536	0.253467	2.018970	0.101285	-0.544024	-0.353659	-0.599050	0.469151
51214	-9.516194	-1.000984	-2.153825	-0.096974	2.560777	-0.345391	-0.546802	-0.344640	-0.599052	0.472618
51215	-9.099047	-2.945450	0.215763	-1.109462	-0.207211	-0.313241	-0.550045	-0.335737	-0.599493	0.474698
51216	-9.972659	-1.806309	1.290416	0.517995	-0.615178	0.372295	-0.551668	-0.330611	-0.598617	0.477510
51217	-9.869458	-1.894433	0.552181	0.194068	0.137189	0.249251	-0.553036	-0.326301	-0.597651	0.480095
51218	-9.746812	-0.804955	0.982046	1.350581	0.176695	-0.078377	-0.555185	-0.321712	-0.597501	0.480899
51219	-8.798840	1.792019	0.684119	3.442167	1.293807	-1.592253	-0.561761	-0.313145	-0.601777	0.473529
51220	-9.773500	5.975919	-0.173053	6.889766	4.020348	-1.590345	-0.578051	-0.294133	-0.615249	0.448120
51221	-9.374329	-2.280571	-0.001042	-0.484091	0.343857	-0.183338	-0.596499	-0.265900	-0.632732	0.416096
51222	-7.426406	-16.776855	0.241600	-12.373373	-8.118116	1.032228	-0.602061	-0.249173	-0.643144	0.402245
51223	-8.440850	-4.638281	2.342210	-1.017714	-3.167613	-0.475778	-0.598249	-0.250442	-0.644776	0.404526
51224	-9.059189	-4.518592	-0.617940	-2.477203	-0.631752	0.002200	-0.595393	-0.251432	-0.648171	0.402695
51225	-9.407828	-2.598183	0.360229	-0.266790	-0.408631	-0.058311	-0.592583	-0.253838	-0.652384	0.398506
51226	-10.356066	-0.037954	-1.291390	1.020950	2.370508	0.299366	-0.589745	-0.257222	-0.656364	0.393984
51227	-10.146281	-1.612929	-0.489244	0.222721	0.667778	0.448464	-0.587289	-0.260667	-0.658992	0.390991
51228	-9.651334	-2.643713	-0.445311	-0.649063	-0.106959	0.182436	-0.585131	-0.264796	-0.660037	0.389689
51229	-9.516686	-2.229416	-0.079487	-0.130454	-0.262895	-0.042459	-0.583084	-0.268511	-0.660928	0.388702
51230	-9.609673	-2.071925	-0.168037	-0.034375	-0.168831	0.017709	-0.580730	-0.272540	-0.661966	0.387653
51231	-9.583609	-1.777552	-0.423261	0.060769	0.124388	-0.057447	-0.578213	-0.276640	-0.662997	0.386750
51232	-9.916260	-1.910113	-0.276352	0.099873	-0.117859	0.288446	-0.576291	-0.280359	-0.663394	0.386258
51233	-9.883093	-1.466794	0.056276	0.636933	-0.212621	0.156214	-0.574632	-0.283455	-0.663867	0.385658
51234	-9.958029	-2.058089	-0.248237	0.000102	-0.337361	0.353218	-0.573405	-0.285855	-0.664519	0.384588
51235	-9.699347	-2.121375	-0.629677	-0.317227	-0.113238	0.130174	-0.573178	-0.287601	-0.664541	0.383586
51236	-9.472561	-2.328367	-0.547291	-0.498412	-0.337100	-0.061374	-0.573576	-0.288376	-0.664628	0.382256
51237	-9.765251	-1.700130	-0.703978	-0.041473	0.130431	0.123475	-0.574349	-0.289141	-0.664472	0.380785
51238	-9.856721	-1.959029	-0.562471	-0.192546	-0.142428	0.249698	-0.575813	-0.289817	-0.663653	0.379487
51239	-9.805544	-2.810679	-0.416131	-0.867863	-0.748827	0.331645	-0.578031	-0.290882	-0.662205	0.377826
51240	-9.332781	-2.697867	-0.141310	-0.776302	-0.961673	-0.175724	-0.580777	-0.293104	-0.660572	0.374743
51241	-8.603374	-2.303626	0.985160	-0.015389	-1.775187	-1.029598	-0.582128	-0.296744	-0.660830	0.369288
51242	-8.964290	-2.873459	-0.300403	-1.179929	-1.174498	-0.542853	-0.581347	-0.300437	-0.665606	0.358807
51243	-9.609493	-2.438967	-1.732484	-1.579320	0.070936	0.126669	-0.584769	-0.298831	-0.668981	0.348152
51244	-9.415453	-0.048880	-1.243678	0.505952	0.977350	-0.379373	-0.590463	-0.295892	-0.670051	0.338871
51245	-10.829641	0.104224	0.470469	1.741741	-0.331312	0.881671	-0.597107	-0.289666	-0.672704	0.327150
51246	-11.483938	-1.326732	0.910447	0.933787	-1.574224	1.638065	-0.606892	-0.276540	-0.676847	0.311588
51247	-10.499324	-4.762416	0.277215	-2.126133	-3.426538	0.991461	-0.620430	-0.256797	-0.681525	0.290939
51248	-8.961718	-6.502946	-1.486600	-4.649598	-3.628202	-0.324815	-0.634531	-0.235570	-0.685164	0.269125
51249	-7.953543	-4.679218	-2.245720	-4.050013	-2.057350	-1.472726	-0.650699	-0.210592	-0.687601	0.243818
51250	-7.657512	-3.600353	-3.620086	-4.574564	-0.670280	-1.855335	-0.668904	-0.180404	-0.687655	0.217147
51251	-8.932013	0.462090	-4.320607	-3.266334	2.960152	-0.912897	-0.688244	-0.148922	-0.684035	0.190366
51252	-10.817693	3.991185	-2.304672	-0.461973	5.245380	0.698634	-0.706984	-0.120838	-0.677105	0.164624
51253	-12.070367	5.595433	1.765846	3.172968	5.410439	2.050599	-0.721968	-0.102026	-0.668844	0.144917
51254	-9.586558	4.678769	3.693421	4.338160	3.935845	-0.163131	-0.730546	-0.092618	-0.663013	0.134680
51255	-10.255299	2.849846	4.666993	4.396476	2.078077	0.742974	-0.736776	-0.088006	-0.657500	0.130804
51256	-11.488611	3.645872	4.231411	3.889718	3.181664	1.931505	-0.743481	-0.082805	-0.650661	0.130460
51257	-11.523653	3.059458	-0.087775	-0.649917	3.999148	1.400583	-0.751733	-0.073800	-0.642548	0.128780
51258	-11.492055	1.909996	-0.793661	-1.972014	3.199954	1.241888	-0.762134	-0.060457	-0.633297	0.120129
51259	-9.649710	-1.207242	0.477954	-1.543015	-0.262427	-0.202896	-0.772880	-0.046151	-0.623978	0.105722
51260	-8.028356	-4.084151	3.062830	0.495921	-3.717679	-1.069218	-0.782024	-0.034085	-0.615723	0.090343
51261	-6.904542	-3.298714	6.532657	4.160299	-3.506062	-1.349409	-0.788833	-0.025276	-0.609040	0.078574
51262	-6.190027	-0.213362	6.959356	5.129011	-0.452183	-2.048563	-0.792374	-0.018965	-0.605270	0.073708
51263	-7.277630	1.436690	2.155587	0.412228	1.900559	-2.336596	-0.793362	-0.013088	-0.604155	0.073497
51264	-8.394094	6.966317	2.334695	0.864028	7.558639	-1.654433	-0.795907	-0.003245	-0.601426	0.069336
51265	-10.581704	4.603352	2.369354	-0.213713	5.569985	0.564761	-0.801859	0.014658	-0.594620	0.056876
51266	-11.672995	-5.012381	1.263160	-2.392710	-3.767773	2.147962	-0.808211	0.033447	-0.586677	0.038558
51267	-7.752701	-7.609553	3.138395	0.636530	-6.703682	-0.729094	-0.812114	0.046232	-0.581256	0.021784
51268	-6.868306	-9.153928	1.135343	-0.766526	-8.428319	-2.026104	-0.813401	0.052467	-0.579188	0.012950
51269	-7.107990	-8.959960	1.892141	-0.036192	-8.178507	-1.597155	-0.811960	0.051229	-0.581349	0.011438
51270	-9.545789	-1.861727	3.829447	0.725286	-0.835280	0.580954	-0.809519	0.046484	-0.585141	0.011287
51271	-11.356825	-0.093378	1.617027	-1.945805	0.822103	1.462876	-0.808195	0.042885	-0.587249	0.010942
51272	-10.441343	1.305363	2.923056	-0.443974	2.188206	0.877697	-0.807868	0.040134	-0.587886	0.011348
51273	-10.177806	0.983705	3.387936	0.087638	1.854269	0.798036	-0.808810	0.039126	-0.586643	0.012011
51274	-9.484473	-1.373025	2.827549	-0.185402	-0.569299	0.161117	-0.810155	0.039118	-0.584756	0.013365
51275	-9.162325	-1.870403	3.047355	0.101903	-1.060610	-0.035284	-0.810809	0.038124	-0.583856	0.015724
51276	-8.221638	-2.464037	3.579553	0.899170	-1.690240	-0.712436	-0.810757	0.036041	-0.583997	0.017942
51277	-7.301397	-3.471109	3.543064	1.174632	-2.785689	-1.519778	-0.809661	0.032430	-0.585657	0.020079
51278	-7.341135	-3.881226	3.287623	0.949458	-3.249243	-1.547996	-0.806677	0.026354	-0.589926	0.023773
51279	-7.851670	-3.510765	3.397945	0.970176	-2.918747	-1.091555	-0.800945	0.016617	-0.597764	0.029836
51280	-8.753468	-1.174910	3.341639	0.867098	-0.643187	-0.431920	-0.792761	0.003882	-0.608381	0.037247
51281	-9.788273	1.346808	3.553841	1.203716	1.781360	0.464464	-0.783516	-0.009064	-0.619738	0.044109
51282	-10.646753	3.227543	2.286218	0.268203	3.621444	0.948194	-0.774217	-0.020120	-0.630755	0.048276
51283	-10.303335	2.390578	1.148842	-0.507387	2.724535	0.458783	-0.765201	-0.028854	-0.641233	0.049561
51284	-9.883918	0.723789	1.005320	-0.454106	0.926203	0.094586	-0.755996	-0.036851	-0.651741	0.048438
51285	-9.253207	-0.038561	1.491307	0.292660	-0.054120	-0.445127	-0.746570	-0.045418	-0.662117	0.046598
51286	-9.941138	1.282735	1.738896	0.866340	1.071213	0.266497	-0.738057	-0.052762	-0.671217	0.044218
51287	-10.344555	0.785389	0.032602	-0.685151	0.647970	0.518487	-0.730615	-0.057250	-0.679125	0.041407
51288	-10.179146	0.466162	-0.762164	-1.291668	0.333833	0.317926	-0.723581	-0.060570	-0.686428	0.039715
51289	-10.215427	2.053528	-1.288046	-1.421457	1.914010	0.412004	-0.717719	-0.062320	-0.692410	0.039557
51290	-10.234174	1.420178	-1.615372	-1.682454	1.321920	0.423777	-0.713671	-0.062058	-0.696506	0.041240
51291	-9.734834	0.841618	-1.348756	-1.392531	0.767922	-0.077958	-0.711570	-0.060237	-0.698649	0.043929
51292	-9.561639	0.645287	-1.562730	-1.590408	0.677564	-0.257878	-0.711363	-0.056980	-0.698939	0.046906
51293	-8.673557	2.104755	0.109060	0.273891	1.981128	-1.113708	-0.712214	-0.054829	-0.698053	0.049666
51294	-9.836296	7.868336	3.525896	4.482380	7.244306	0.113144	-0.711799	-0.058160	-0.697563	0.058009
51295	-11.375158	4.775888	0.397862	1.022121	4.786093	1.518808	-0.709404	-0.052663	-0.699466	0.068696
51296	-10.872592	-3.736350	0.980796	0.347763	-3.424433	1.199858	-0.708092	-0.038865	-0.700807	0.077233
51297	-10.591964	-5.870588	2.503624	1.632753	-5.421311	1.180513	-0.707210	-0.023543	-0.701528	0.084605
51298	-10.100013	-4.231127	-1.714498	-2.221265	-2.922131	0.645393	-0.706717	-0.009367	-0.701517	0.091312
51299	-10.132027	-2.191504	-2.655667	-2.862895	-0.519161	0.484997	-0.707693	0.001045	-0.699594	0.098680
51300	-10.034346	-1.379296	-1.255860	-1.415413	0.341305	0.288891	-0.710003	0.009758	-0.695860	0.107607
51301	-8.960553	-3.249510	0.966185	0.479535	-1.724229	-0.401100	-0.711963	0.014560	-0.692324	0.116554
51302	-8.755898	-3.329515	2.139372	1.558958	-1.876596	-0.518836	-0.712392	0.011218	-0.690367	0.125562
51303	-11.327756	1.433970	0.593976	0.784755	3.476461	1.051143	-0.708977	-0.005897	-0.690484	0.143349
51304	-11.429322	5.228214	0.821562	2.178571	6.999965	0.427241	-0.700726	-0.034365	-0.691007	0.174103
51305	-10.100911	5.280722	1.141556	3.178160	6.464046	-0.909000	-0.687570	-0.069441	-0.690814	0.212606
51306	-9.944297	3.146036	0.544329	2.492820	4.456989	-0.703932	-0.671158	-0.105933	-0.688339	0.253999
51307	-9.632351	-0.437617	1.024692	1.578658	0.939044	-0.291900	-0.652819	-0.139407	-0.683963	0.294259
51308	-7.956697	-4.024848	-0.060581	-1.449227	-1.521143	-1.147116	-0.634366	-0.166609	-0.678266	0.331325
51309	-6.439108	-8.540961	-1.028881	-5.449119	-4.061827	-1.491578	-0.617332	-0.190710	-0.670815	0.364057
51310	-6.481536	-9.599672	-0.330272	-5.966980	-4.712805	-1.070309	-0.605111	-0.206787	-0.663060	0.389142
51311	-6.125230	-13.350004	1.220262	-8.048299	-7.828001	-0.265032	-0.601697	-0.211603	-0.656035	0.403489
51312	-7.031651	-11.294220	2.561253	-5.791623	-7.116534	0.155073	-0.604304	-0.219266	-0.644348	0.414192
51313	-11.188465	2.945482	5.201212	7.310113	-0.123654	0.553158	-0.605191	-0.230058	-0.632917	0.424539
51314	-10.709708	1.344067	3.915164	5.066526	-0.134332	0.489950	-0.604602	-0.235433	-0.628214	0.429389
51315	-10.032694	-1.295627	1.883827	1.597659	-0.054774	0.352267	-0.602963	-0.242772	-0.624099	0.433587
51316	-10.381685	-2.602713	0.527815	-0.216051	0.457200	0.891345	-0.603740	-0.243280	-0.623111	0.433643
51317	-8.793647	-4.917365	-0.625998	-3.031144	-0.085132	-0.184342	-0.605303	-0.243078	-0.620384	0.435482
51318	-9.520778	-2.242763	0.515138	-0.148031	0.560737	-0.034984	-0.606938	-0.244528	-0.615949	0.438678
51319	-9.683066	-1.465719	1.530607	1.008745	0.207620	0.045895	-0.608103	-0.245672	-0.611985	0.441962
51320	-9.240673	-2.049198	1.792380	0.549598	-0.345956	-0.201252	-0.609001	-0.246575	-0.608472	0.445062
51321	-9.623249	-1.952404	1.600007	0.537662	0.007740	0.121562	-0.609979	-0.247193	-0.605433	0.447519
51322	-9.501918	-2.378076	0.954946	-0.207884	0.368527	0.019619	-0.610832	-0.246738	-0.603001	0.449882
51323	-9.286583	-2.383149	1.621294	0.085139	-0.187715	-0.091277	-0.611518	-0.246327	-0.600574	0.452416
51324	-9.060666	-2.773953	2.054083	-0.073368	-0.742802	-0.145611	-0.612257	-0.246194	-0.598392	0.454375
51325	-9.094991	-2.349910	2.248305	0.359407	-0.654787	-0.182647	-0.613448	-0.246326	-0.596258	0.455501
51326	-9.496835	-2.895073	1.237706	-0.607287	0.076044	0.173727	-0.615211	-0.245725	-0.594603	0.455612
51327	-10.124524	-2.335003	0.964779	-0.229155	0.779789	0.590586	-0.617132	-0.244273	-0.592629	0.456365
51328	-9.346517	-2.951348	1.720536	-0.489300	-0.293022	0.122216	-0.618400	-0.243745	-0.589701	0.458717
51329	-9.081309	-1.797244	2.313104	0.727471	-0.255455	-0.301862	-0.620296	-0.242687	-0.586901	0.460308
51330	-8.888415	-2.406679	2.112063	0.048239	-0.362466	-0.372206	-0.622702	-0.240740	-0.584484	0.461156
51331	-8.009164	-3.869078	1.282190	-1.758754	-0.544631	-1.016655	-0.626404	-0.237990	-0.581634	0.461173
51332	-6.822066	-6.040656	1.741464	-3.563837	-2.244575	-1.546943	-0.631575	-0.238269	-0.576075	0.460954
51333	-10.054746	-3.116011	0.703188	-1.463503	1.031370	0.584082	-0.635320	-0.244119	-0.567452	0.463436
51334	-11.778714	0.349232	2.049987	2.146986	2.104788	1.764009	-0.637857	-0.249608	-0.557908	0.468586
51335	-9.852148	1.558377	4.688185	4.243096	-0.088954	0.358815	-0.640918	-0.247922	-0.553758	0.470225
51336	-8.689389	-1.540196	4.062634	1.123047	-1.234737	-0.242086	-0.642926	-0.246061	-0.551252	0.471404
51337	-8.858910	-1.878286	3.071131	0.328599	-0.451036	-0.266561	-0.644219	-0.245411	-0.549595	0.471912
51338	-8.975517	-2.697067	2.547693	-0.664689	-0.317942	-0.128587	-0.645102	-0.246272	-0.548092	0.472005
51339	-8.883281	-2.823137	2.534983	-0.829352	-0.386605	-0.196482	-0.646176	-0.247883	-0.546042	0.472068
51340	-9.629988	-1.451096	2.593727	0.391182	0.421432	0.249074	-0.646458	-0.249424	-0.544591	0.472547
51341	-9.080789	-1.739679	3.120878	0.350708	-0.312787	-0.065576	-0.647827	-0.247272	-0.544364	0.472064
51342	-8.865434	-2.317888	3.217372	-0.116096	-0.695709	-0.126486	-0.648485	-0.246111	-0.544193	0.471965
51343	-8.743143	-2.540168	3.289523	-0.276867	-0.883707	-0.176383	-0.649295	-0.244930	-0.544522	0.471085
51344	-9.246389	-2.026389	2.713157	-0.091495	-0.011295	0.033868	-0.649281	-0.245878	-0.544437	0.470708
51345	-9.269416	-1.376533	3.122993	0.666515	-0.070757	0.042297	-0.649203	-0.246704	-0.544601	0.470193
51346	-9.278402	-1.773594	2.926677	0.218817	-0.101286	0.073750	-0.648804	-0.247797	-0.544814	0.469924
51347	-9.646816	-1.632231	2.832014	0.307658	0.140742	0.367245	-0.648103	-0.249128	-0.545073	0.469887
51348	-9.626024	-1.529490	2.181667	0.088502	0.698555	0.150419	-0.647345	-0.249753	-0.545776	0.469783
51349	-9.159966	-2.074647	2.781269	-0.107328	-0.217091	-0.020553	-0.646413	-0.250567	-0.546487	0.469807
51350	-9.163726	-2.050879	2.286694	-0.315486	0.184496	-0.154772	-0.645145	-0.252224	-0.546866	0.470222
51351	-9.139886	-1.969017	2.406986	-0.181999	0.084587	-0.160342	-0.643174	-0.254839	-0.546989	0.471368
51352	-9.246142	-2.007169	2.206452	-0.303563	0.240751	-0.105056	-0.640375	-0.258850	-0.546361	0.473714
51353	-9.193071	-1.697672	2.691858	0.188491	-0.091800	-0.086609	-0.636618	-0.264256	-0.545266	0.477045
51354	-9.235613	-1.681014	2.826659	0.255639	-0.232545	-0.015101	-0.632407	-0.270337	-0.543864	0.480824
51355	-9.333664	-1.440957	2.403114	0.282390	0.213278	-0.073940	-0.628202	-0.276150	-0.542395	0.484676
51356	-9.348336	-1.476686	2.108138	0.124985	0.423866	-0.126570	-0.623914	-0.281647	-0.540628	0.489007
51357	-9.386837	-1.789402	1.945759	-0.222377	0.439286	-0.073170	-0.619188	-0.287577	-0.538134	0.494284
51358	-9.298513	-1.743090	2.386461	-0.017656	0.025217	-0.055898	-0.613925	-0.293983	-0.535073	0.500366
51359	-9.211886	-1.792762	2.402297	-0.074670	-0.043960	-0.125772	-0.608188	-0.300882	-0.531655	0.506873
51360	-9.038642	-1.752946	2.576497	0.000227	-0.250909	-0.255218	-0.602687	-0.306852	-0.528697	0.512923
51361	-9.226898	-2.276171	2.400832	-0.538737	-0.193819	-0.027352	-0.597883	-0.311866	-0.525932	0.518335
51362	-9.312047	-2.295307	2.615960	-0.482127	-0.360872	0.110176	-0.594161	-0.315092	-0.523683	0.522921
51363	-9.147054	-2.161267	2.890179	-0.285322	-0.607960	-0.002399	-0.591773	-0.316792	-0.522096	0.526179
51364	-9.161693	-2.320988	2.462863	-0.549885	-0.229842	-0.064148	-0.590930	-0.316224	-0.521755	0.527802
51365	-9.112366	-1.943761	2.418033	-0.196464	-0.081731	-0.189021	-0.590242	-0.316154	-0.520618	0.529733
51366	-9.150382	-1.842175	2.609696	-0.029376	-0.194739	-0.122757	-0.589837	-0.315297	-0.520120	0.531182
51367	-9.017530	-1.966024	2.960345	-0.042267	-0.566831	-0.136861	-0.589460	-0.314343	-0.520269	0.532020
51368	-9.307273	-1.753277	2.581507	0.106439	-0.079557	0.002899	-0.588991	-0.313556	-0.521863	0.531442
51369	-9.557713	-1.367867	2.663328	0.553840	0.007515	0.187682	-0.588423	-0.312464	-0.522841	0.531754
51370	-9.359452	-1.825091	2.773919	0.163185	-0.264072	0.113463	-0.587648	-0.311282	-0.523914	0.532248
51371	-9.422574	-2.310679	2.708662	-0.274118	-0.310657	0.251568	-0.586699	-0.310605	-0.525249	0.532374
51372	-9.448356	-2.307374	2.325806	-0.363597	0.039602	0.180860	-0.585608	-0.311828	-0.525103	0.533003
51373	-9.364990	-2.118515	2.834517	-0.055238	-0.422591	0.189509	-0.584146	-0.314405	-0.524121	0.534060
51374	-9.585287	-1.726459	1.954010	0.078297	0.540890	0.105873	-0.582794	-0.316364	-0.522948	0.535528
51375	-9.217762	-2.069833	2.343694	-0.188013	0.000789	-0.080840	-0.581811	-0.317021	-0.521632	0.537489
51376	-9.084273	-2.158927	2.525562	-0.239250	-0.204077	-0.144983	-0.580601	-0.317805	-0.520054	0.539857
51377	-9.098677	-2.044575	2.506612	-0.136995	-0.129911	-0.157968	-0.579261	-0.319022	-0.517989	0.542558
51378	-9.156432	-2.133649	2.488577	-0.226506	-0.085736	-0.090189	-0.578035	-0.320101	-0.515831	0.545278
51379	-9.286902	-2.039378	2.287498	-0.180011	0.194528	-0.036804	-0.576533	-0.321662	-0.513060	0.548554
51380	-9.309036	-2.491626	2.495569	-0.579348	-0.037823	0.124959	-0.575155	-0.323727	-0.509149	0.552417
51381	-9.261596	-2.099082	3.005310	-0.126858	-0.397194	0.139239	-0.574249	-0.326203	-0.504437	0.556213
51382	-9.321020	-1.485246	3.192750	0.473859	-0.395152	0.132166	-0.573873	-0.327418	-0.501235	0.558777
51383	-9.136421	-2.105910	2.735130	-0.274222	-0.091517	-0.050193	-0.573859	-0.327706	-0.499237	0.560408
51384	-9.022402	-1.951556	2.774423	-0.142701	-0.098286	-0.175284	-0.574105	-0.327272	-0.497323	0.562108
51385	-8.989181	-2.043828	3.290512	-0.130533	-0.569264	-0.041868	-0.574097	-0.326783	-0.496197	0.563395
51386	-9.177047	-1.607244	2.961054	0.244409	-0.109519	-0.040404	-0.573730	-0.327159	-0.495258	0.564376
51387	-9.200202	-1.832477	2.727932	-0.023589	0.090333	-0.043625	-0.573125	-0.327720	-0.494460	0.565365
51388	-9.235789	-1.835866	2.861810	0.004308	-0.015373	0.029055	-0.572531	-0.328072	-0.493799	0.566339
51389	-9.199741	-1.820435	2.891089	0.022231	-0.043423	0.000836	-0.571879	-0.328381	-0.493238	0.567307
51390	-9.046698	-2.217277	2.895929	-0.379672	-0.149420	-0.066971	-0.571196	-0.328761	-0.492726	0.568219
51391	-9.050169	-1.548540	3.246012	0.339722	-0.375398	-0.087268	-0.570404	-0.329565	-0.492336	0.568886
51392	-9.290928	-1.844244	2.439421	-0.069070	0.402959	-0.039961	-0.570002	-0.329517	-0.493321	0.568464
51393	-9.006721	-3.533236	2.735616	-1.682117	-0.223529	0.097353	-0.570156	-0.329392	-0.493556	0.568178
51394	-9.091095	-2.219905	2.833307	-0.384196	-0.099386	-0.043035	-0.570789	-0.329777	-0.493396	0.567457
51395	-9.016240	-2.517686	2.679649	-0.743492	-0.008760	-0.103994	-0.572575	-0.329893	-0.491158	0.567532
51396	-9.610512	-1.056306	2.946235	0.777509	0.190831	0.262872	-0.574191	-0.328459	-0.489803	0.567902
51397	-9.255557	-1.206382	3.405808	0.665353	-0.334490	0.095164	-0.575100	-0.327820	-0.488400	0.568558
51398	-9.246540	-1.436683	3.267496	0.401059	-0.210612	0.088515	-0.576094	-0.327063	-0.487431	0.568820
51399	-9.145655	-1.566990	3.076388	0.213773	-0.063360	-0.039618	-0.576655	-0.326850	-0.486736	0.568970
51400	-9.104403	-2.103159	3.065097	-0.326844	-0.133751	0.015004	-0.577265	-0.326884	-0.486063	0.568907
51401	-9.194462	-1.917805	2.922820	-0.189870	0.059937	0.021906	-0.577220	-0.328863	-0.484544	0.569108
51402	-9.071837	-1.837619	3.052285	-0.137813	-0.088025	-0.067706	-0.577639	-0.330210	-0.482961	0.569248
51403	-9.164955	-1.545975	3.038390	0.123113	0.006069	-0.035010	-0.578101	-0.331015	-0.481677	0.569400
51404	-9.075991	-1.443583	3.269114	0.236246	-0.209468	-0.063589	-0.578787	-0.330839	-0.480689	0.569640
51405	-9.101329	-1.603224	3.221064	0.062426	-0.162206	-0.027518	-0.579087	-0.330846	-0.479908	0.569990
51406	-9.095504	-1.917381	3.119626	-0.273364	-0.102190	-0.012105	-0.579223	-0.331038	-0.479192	0.570342
51407	-9.142632	-1.784711	3.259832	-0.127773	-0.190407	0.053761	-0.579053	-0.332141	-0.477996	0.570877
51408	-9.288780	-1.673044	3.133125	-0.051009	-0.005616	0.131873	-0.578877	-0.333693	-0.476718	0.571218
51409	-9.203500	-1.601417	3.129303	-0.018622	-0.021609	0.039247	-0.578962	-0.334946	-0.475585	0.571343
51410	-9.272445	-1.397795	3.304968	0.199225	-0.132594	0.127010	-0.579527	-0.335039	-0.475190	0.571044
51411	-9.438782	-1.272853	2.969996	0.273408	0.260478	0.156717	-0.580097	-0.334313	-0.475160	0.570917
51412	-9.204530	-1.683421	3.054469	-0.134222	0.068959	0.029274	-0.580713	-0.333041	-0.474495	0.571586
51413	-9.094461	-1.586622	3.339358	0.004818	-0.184972	0.002787	-0.581281	-0.331788	-0.473463	0.572593
51414	-9.289370	-1.466646	2.994497	0.085526	0.258372	0.053226	-0.581890	-0.330320	-0.472563	0.573565
51415	-8.939425	-1.774041	3.377274	-0.175797	-0.215999	-0.097299	-0.582639	-0.328595	-0.471391	0.574758
51416	-8.987214	-1.775803	3.251095	-0.190563	-0.035241	-0.093872	-0.583291	-0.327176	-0.470070	0.575987
51417	-8.730137	-1.956884	3.518567	-0.346997	-0.353365	-0.211668	-0.584005	-0.326058	-0.468554	0.577131
51418	-8.867190	-1.693735	3.527009	-0.080701	-0.235918	-0.123864	-0.584698	-0.325369	-0.467037	0.578048
51419	-8.900636	-1.745533	3.563631	-0.132598	-0.228574	-0.071140	-0.585454	-0.324817	-0.465610	0.578745
51420	-9.068412	-1.609534	3.330588	-0.036200	0.096878	-0.019386	-0.586074	-0.324428	-0.464292	0.579394
51421	-8.845848	-1.706224	3.642674	-0.114016	-0.255728	-0.099253	-0.586948	-0.324182	-0.462765	0.579868
51422	-9.318278	-1.296140	3.444206	0.281789	0.183927	0.200281	-0.587594	-0.324058	-0.461403	0.580367
51423	-9.393839	-0.978935	3.337594	0.565600	0.386021	0.180958	-0.588394	-0.323342	-0.459490	0.581474
51424	-8.899702	-1.651671	3.679646	-0.096497	-0.150256	-0.043328	-0.589623	-0.322111	-0.457491	0.582487
51425	-8.771098	-2.072093	3.487184	-0.571125	-0.023448	-0.165968	-0.590699	-0.321315	-0.455207	0.583625
51426	-8.646052	-1.842224	3.817463	-0.320426	-0.291621	-0.193278	-0.592454	-0.319936	-0.453066	0.584269
51427	-8.401320	-2.229445	4.187086	-0.676155	-0.717076	-0.215154	-0.594659	-0.317998	-0.451300	0.584454
51428	-8.515492	-1.669080	4.466546	-0.084238	-0.808344	-0.087010	-0.596253	-0.317082	-0.449801	0.584483
51429	-9.078734	-1.362284	3.855583	0.145383	0.035904	0.143332	-0.597179	-0.316563	-0.449601	0.583973
51430	-9.086225	-1.488979	3.668436	-0.018211	0.214408	0.096276	-0.598654	-0.315049	-0.448859	0.583852
51431	-8.853077	-1.216055	4.077469	0.298418	-0.180488	0.003615	-0.600143	-0.313460	-0.448205	0.583680
51432	-8.805083	-1.809188	3.757622	-0.346559	0.040570	-0.076130	-0.601226	-0.312093	-0.447696	0.583689
51433	-8.873856	-1.248522	4.133091	0.275004	-0.164888	0.050562	-0.602338	-0.310963	-0.446976	0.583698
51434	-8.993825	-1.175799	3.907556	0.310349	0.122795	0.057924	-0.603079	-0.310132	-0.446484	0.583752
51435	-8.754611	-1.816824	4.003714	-0.319648	-0.127277	-0.022113	-0.604113	-0.308789	-0.445975	0.583783
51436	-8.442937	-2.208824	4.312723	-0.673341	-0.560768	-0.117651	-0.605353	-0.307619	-0.445033	0.583836
51437	-8.572073	-1.850963	4.190471	-0.344857	-0.326652	-0.104911	-0.605891	-0.307532	-0.444512	0.583720
51438	-8.962534	-1.361745	3.903750	0.099570	0.172614	0.055489	-0.606193	-0.307651	-0.443988	0.583743
51439	-8.997835	-1.277084	3.930248	0.180816	0.184712	0.085393	-0.606620	-0.307519	-0.443432	0.583791
51440	-8.829928	-1.346552	4.038414	0.112841	0.016764	-0.010821	-0.606865	-0.307461	-0.442902	0.583969
51441	-8.784133	-1.460727	4.049568	-0.004710	-0.018411	-0.030390	-0.607224	-0.307082	-0.442579	0.584041
51442	-8.867780	-1.200738	3.991193	0.241770	0.115660	-0.017939	-0.607323	-0.307050	-0.442111	0.584309
51443	-8.902054	-1.225253	4.029517	0.225673	0.102380	0.032281	-0.607495	-0.306691	-0.441843	0.584520
51444	-8.738349	-1.818675	4.031224	-0.365704	-0.042192	-0.025882	-0.607653	-0.306266	-0.441654	0.584723
51445	-8.551812	-1.603747	4.357803	-0.106090	-0.373328	-0.089247	-0.608018	-0.305750	-0.441394	0.584810
51446	-8.729364	-1.676881	4.134425	-0.206669	-0.100895	-0.011958	-0.608022	-0.305732	-0.441348	0.584849
51447	-8.835917	-1.320896	4.142512	0.150172	-0.007856	0.033935	-0.608189	-0.305561	-0.441058	0.584984
51448	-8.841538	-1.294918	4.117825	0.170622	0.028258	0.024800	-0.608280	-0.305299	-0.440794	0.585225
51449	-8.814381	-1.443028	4.120734	0.023706	0.002089	0.023751	-0.608256	-0.305214	-0.440388	0.585601
51450	-8.529003	-1.589322	4.364377	-0.095390	-0.353481	-0.107865	-0.608081	-0.305245	-0.440206	0.585902
51451	-8.314676	-2.182044	4.436437	-0.681360	-0.590662	-0.181281	-0.607900	-0.305659	-0.439857	0.586137
51452	-8.884082	-1.414389	4.046259	0.036522	0.103142	0.050762	-0.607394	-0.306379	-0.440082	0.586116
51453	-9.027295	-1.313722	3.974734	0.129364	0.232441	0.134456	-0.607125	-0.306960	-0.439947	0.586192
