// General information: 
//  MT Manager version: 2021.0.0 
//  XDA version: 2021.0.0 build 5908 rev 109668 built on 2021-04-19
// Device information: 
//  DeviceId: 00B43DF7
//  ProductCode: MTW2-3A7G6
//  Firmware Version: 4.3.5
//  Hardware Version: 1.1.0
// Device settings: 
//  Filter Profile: human(46.1)
//  Option Flags: Orientation Smoother Disabled, Position/Velocity Smoother Disabled, Continuous Zero Rotation Update Disabled, AHS Disabled, ICC Disabled
// Coordinate system: ENU
PacketCounter	Acc_X	Acc_Y	Acc_Z	FreeAcc_E	FreeAcc_N	FreeAcc_U	Quat_q0	Quat_q1	Quat_q2	Quat_q3
50291	-0.693112	2.783402	9.759048	-0.089596	0.060671	0.358598	0.990782	0.132393	0.028642	0.001496
50292	-0.635199	2.906655	9.708281	-0.030974	0.196877	0.339313	0.990820	0.132090	0.028753	0.001181
50293	-0.633540	2.790235	9.733177	-0.025832	0.085810	0.331941	0.990876	0.131653	0.028825	0.000957
50294	-0.612026	2.577518	9.628180	-0.009722	-0.082647	0.172957	0.990923	0.131275	0.028942	0.000831
50295	-0.501704	2.587886	9.693968	0.108611	-0.086623	0.232340	0.990896	0.131421	0.029210	0.000681
50296	-0.632713	2.699907	9.816168	-0.007454	-0.018754	0.387634	0.990823	0.131900	0.029536	0.000500
50297	-0.731649	2.828038	9.744876	-0.104201	0.115161	0.359412	0.990781	0.132170	0.029718	0.000443
50298	-0.606723	2.795705	9.653470	0.018158	0.106863	0.255173	0.990776	0.132170	0.029894	0.000470
50299	-0.649793	2.646542	9.687164	-0.020388	-0.045816	0.250366	0.990778	0.132122	0.030055	0.000429
50300	-0.667232	2.742832	9.713835	-0.032778	0.040621	0.302855	0.990781	0.132081	0.030134	0.000292
50301	-0.642758	2.819261	9.683018	-0.008316	0.125639	0.292082	0.990811	0.131843	0.030166	0.000224
50302	-0.575924	2.736251	9.645726	0.055839	0.062521	0.229810	0.990862	0.131461	0.030174	0.000212
50303	-0.606878	2.641135	9.625004	0.023946	-0.017053	0.186499	0.990899	0.131161	0.030272	0.000224
50304	-0.675976	2.591422	9.701128	-0.037981	-0.084200	0.250898	0.990876	0.131296	0.030446	0.000277
50305	-0.597549	2.741626	9.716569	0.045689	0.050701	0.300701	0.990804	0.131801	0.030597	0.000261
50306	-0.630751	2.756339	9.702358	0.014494	0.060330	0.293111	0.990763	0.132084	0.030713	0.000262
50307	-0.574221	2.708815	9.718267	0.073594	0.006400	0.292097	0.990740	0.132232	0.030802	0.000286
50308	-0.645232	2.744255	9.817799	0.010679	0.010084	0.401823	0.990718	0.132390	0.030841	0.000298
50309	-0.688428	2.815808	9.824850	-0.031809	0.074984	0.430542	0.990719	0.132399	0.030767	0.000315
50310	-0.666266	2.759976	9.757281	-0.016577	0.041606	0.349197	0.990751	0.132185	0.030640	0.000347
50311	-0.697714	2.747285	9.638361	-0.058115	0.065852	0.233440	0.990791	0.131909	0.030538	0.000397
50312	-0.711746	2.753410	9.666658	-0.072111	0.069960	0.263127	0.990835	0.131597	0.030478	0.000497
50313	-0.622431	2.654696	9.689896	0.017070	-0.026467	0.253490	0.990846	0.131506	0.030511	0.000688
50314	-0.674290	2.637333	9.677940	-0.035553	-0.041094	0.240659	0.990827	0.131639	0.030518	0.000812
50315	-0.687575	2.643725	9.692744	-0.048698	-0.043803	0.257418	0.990785	0.131973	0.030447	0.000894
50316	-0.624675	2.698947	9.694378	0.013643	0.002799	0.269739	0.990741	0.132307	0.030442	0.000942
50317	-0.636680	2.755088	9.702326	0.002122	0.050324	0.293176	0.990730	0.132396	0.030409	0.000938
50318	-0.628107	2.815788	9.725781	0.010279	0.103740	0.331431	0.990762	0.132197	0.030212	0.000912
50319	-0.595861	2.722131	9.671867	0.034212	0.035686	0.252480	0.990840	0.131669	0.029989	0.000922
50320	-0.592183	2.615158	9.664433	0.032414	-0.054356	0.216619	0.990920	0.131109	0.029776	0.000856
50321	-0.637853	2.567984	9.634187	-0.018425	-0.082639	0.177897	0.990975	0.130723	0.029659	0.000711
50322	-0.679593	2.656892	9.640352	-0.060066	0.007382	0.209969	0.991006	0.130491	0.029638	0.000523
50323	-0.662658	2.704610	9.594532	-0.044967	0.070057	0.177415	0.991030	0.130301	0.029691	0.000381
50324	-0.551549	2.568601	9.656807	0.070921	-0.073545	0.194580	0.991039	0.130201	0.029812	0.000231
50325	-0.591986	2.520328	9.675890	0.035505	-0.125640	0.202716	0.991016	0.130324	0.030063	0.000016
50326	-0.661808	2.568683	9.682499	-0.028407	-0.084985	0.226181	0.990977	0.130573	0.030243	-0.000298
50327	-0.678094	2.658946	9.697947	-0.040055	-0.005475	0.265921	0.990963	0.130672	0.030274	-0.000553
50328	-0.641256	2.737472	9.772794	0.004876	0.048342	0.356388	0.990938	0.130822	0.030450	-0.000769
50329	-0.803014	2.734187	9.832542	-0.149197	0.026316	0.423354	0.990929	0.130860	0.030581	-0.000878
50330	-0.591631	2.696343	9.677517	0.053540	0.033407	0.250645	0.990944	0.130729	0.030632	-0.000927
50331	-0.590063	2.638699	9.772020	0.062624	-0.046287	0.326209	0.990934	0.130772	0.030771	-0.001036
50332	-0.760204	2.644523	9.700271	-0.109344	-0.025590	0.269676	0.990901	0.131007	0.030831	-0.001195
50333	-0.712287	2.767232	9.532056	-0.070073	0.135102	0.137280	0.990898	0.131034	0.030829	-0.001271
50334	-0.690042	2.729671	9.571712	-0.044613	0.087079	0.164053	0.990879	0.131155	0.030926	-0.001329
50335	-0.803832	2.764441	9.664249	-0.149084	0.092392	0.269734	0.990851	0.131323	0.031090	-0.001361
50336	-0.785764	2.797777	9.717928	-0.123762	0.108272	0.329110	0.990841	0.131359	0.031272	-0.001305
50337	-0.688577	2.710404	9.734724	-0.023450	0.020473	0.315703	0.990845	0.131290	0.031422	-0.001304
50338	-0.672288	2.604553	9.673409	-0.009598	-0.062983	0.227554	0.990860	0.131144	0.031542	-0.001353
50339	-0.598805	2.598100	9.589314	0.060780	-0.045881	0.140093	0.990843	0.131243	0.031670	-0.001456
50340	-0.688227	2.705519	9.718681	-0.014860	0.019580	0.298971	0.990807	0.131459	0.031906	-0.001525
50341	-0.649423	2.868173	9.715036	0.029140	0.174366	0.336147	0.990790	0.131555	0.032022	-0.001499
50342	-0.663798	2.780049	9.774584	0.020261	0.075067	0.370915	0.990819	0.131300	0.032182	-0.001365
50343	-0.615448	2.618364	9.708536	0.065203	-0.057669	0.261175	0.990849	0.131031	0.032356	-0.001220
50344	-0.685730	2.609091	9.723408	-0.000403	-0.067272	0.277789	0.990857	0.130923	0.032566	-0.001197
50345	-0.740991	2.794479	9.719965	-0.050119	0.114532	0.327345	0.990871	0.130776	0.032733	-0.001082
50346	-0.622660	2.722087	9.683783	0.066709	0.058423	0.265271	0.990893	0.130592	0.032813	-0.000874
50347	-0.645811	2.631829	9.680848	0.043469	-0.023779	0.240171	0.990923	0.130346	0.032889	-0.000692
50348	-0.693062	2.580438	9.637646	-0.006315	-0.058786	0.188299	0.990936	0.130231	0.032940	-0.000533
50349	-0.750290	2.761868	9.658741	-0.058672	0.111477	0.260359	0.990935	0.130210	0.033064	-0.000508
50350	-0.860780	2.951717	9.621037	-0.167464	0.307540	0.281633	0.990980	0.129843	0.033152	-0.000531
50351	-0.637698	2.802268	9.589857	0.052663	0.182917	0.196732	0.991053	0.129271	0.033199	-0.000456
50352	-0.607905	2.516546	9.512600	0.075755	-0.062933	0.045426	0.991097	0.128896	0.033344	-0.000277
50353	-0.617514	2.302851	9.528035	0.069095	-0.271689	0.005118	0.991061	0.129098	0.033631	-0.000173
50354	-0.677016	2.372392	9.581641	0.021217	-0.229878	0.078779	0.990932	0.129972	0.034068	-0.000216
50355	-0.705218	2.773128	9.515446	0.002246	0.156649	0.122438	0.990801	0.130819	0.034627	-0.000258
50356	-0.724267	2.889574	9.490100	-0.004990	0.265857	0.130424	0.990763	0.130924	0.035335	-0.000140
50357	-0.649389	2.587058	9.381553	0.073362	0.006508	-0.059603	0.990787	0.130512	0.036177	0.000063
50358	-0.657179	2.242724	9.417793	0.083269	-0.328800	-0.115191	0.990780	0.130252	0.037262	0.000084
50359	-0.656096	2.171197	9.326224	0.100844	-0.375434	-0.222494	0.990667	0.130695	0.038693	-0.000061
50360	-0.675011	2.396275	9.080022	0.097884	-0.104483	-0.398659	0.990492	0.131401	0.040728	-0.000291
50361	-0.782070	2.425341	8.739548	0.006582	-0.000093	-0.709207	0.990290	0.132075	0.043388	-0.000478
50362	-0.658887	2.286178	8.357335	0.147909	-0.042554	-1.124662	0.990047	0.132705	0.046860	-0.000711
50363	-0.744249	2.018613	8.057974	0.099389	-0.232738	-1.476317	0.989720	0.133424	0.051482	-0.001067
50364	-1.175903	2.185914	7.862581	-0.258366	-0.038046	-1.571810	0.989266	0.134291	0.057585	-0.001501
50365	-1.949898	2.377329	8.088941	-0.884204	0.059094	-1.204662	0.988716	0.135021	0.064864	-0.001509
50366	-2.418584	1.786921	8.491743	-1.175759	-0.648291	-0.904945	0.987980	0.136372	0.072777	-0.001206
50367	-2.432383	1.606630	8.641167	-1.021745	-0.899830	-0.795395	0.986974	0.138709	0.081485	-0.001718
50368	-2.411765	1.620296	7.963806	-0.954361	-0.739801	-1.421987	0.985821	0.141170	0.090655	-0.003171
50369	-2.579498	1.555782	7.546600	-1.033560	-0.722162	-1.785662	0.984501	0.143229	0.101063	-0.005526
50370	-3.413314	1.352970	7.703692	-1.637944	-1.007826	-1.498497	0.982852	0.145257	0.113288	-0.008206
50371	-4.608550	1.553247	7.938361	-2.527220	-0.942496	-0.902615	0.981011	0.147753	0.125217	-0.010380
50372	-3.913311	2.743475	8.188160	-1.503970	0.080288	-0.452466	0.978935	0.151144	0.136645	-0.013060
50373	-3.802540	3.113917	8.144558	-1.153601	0.399737	-0.379021	0.976780	0.153351	0.148716	-0.016362
50374	-4.130672	3.010764	7.856973	-1.317393	0.366778	-0.539926	0.974692	0.153664	0.161133	-0.019959
50375	-4.285454	1.714714	7.788665	-1.359501	-0.846698	-0.902107	0.972301	0.153927	0.174322	-0.023444
50376	-4.638412	1.514765	7.644632	-1.511260	-1.009705	-0.927821	0.969282	0.156079	0.188002	-0.028065
50377	-5.178804	2.487756	8.040136	-1.480460	-0.253576	-0.045980	0.965601	0.159416	0.202557	-0.034236
50378	-5.659493	3.105778	8.094480	-1.493822	0.261329	0.428709	0.961352	0.163258	0.217850	-0.041123
50379	-5.395874	3.648601	7.591882	-1.026342	0.897996	0.096575	0.956806	0.165308	0.234266	-0.048117
50380	-5.190434	3.316909	7.110218	-0.749819	0.744190	-0.465459	0.952129	0.164443	0.251921	-0.054273
50381	-5.569523	2.555289	6.914997	-0.961300	0.131964	-0.624938	0.947528	0.161909	0.269221	-0.059128
50382	-6.541923	1.666806	7.610934	-1.272548	-0.901085	0.240135	0.942347	0.161905	0.285770	-0.064066
50383	-7.300682	2.065639	8.216560	-1.130723	-0.761236	1.287214	0.936110	0.166435	0.301649	-0.070746
50384	-6.705584	3.173538	7.610114	-0.333009	0.372817	0.802695	0.929009	0.172553	0.317687	-0.079008
50385	-6.074246	3.644592	6.872986	0.262319	0.967526	0.005599	0.921416	0.176408	0.335219	-0.086603
50386	-6.723703	2.951830	6.802676	-0.068902	0.311390	0.191445	0.913658	0.179187	0.352762	-0.093167
50387	-6.959775	2.829728	6.508228	-0.065824	0.251996	0.123196	0.905321	0.183261	0.369837	-0.100148
50388	-7.712089	2.889182	6.425276	-0.229808	0.281084	0.625758	0.896361	0.188155	0.386665	-0.107816
50389	-8.453807	3.232072	6.300535	-0.273323	0.578763	1.195658	0.887002	0.193206	0.402926	-0.116403
50390	-8.671706	3.554079	6.234214	0.090579	0.818105	1.412371	0.877882	0.196688	0.418518	-0.124419
50391	-8.153378	4.582482	6.347428	1.314512	1.587139	1.300542	0.868990	0.197925	0.434120	-0.131231
50392	-8.221474	4.978457	6.651201	2.077435	1.747984	1.555197	0.860102	0.198037	0.449928	-0.136276
50393	-8.352640	3.312941	6.482203	1.601093	0.308320	1.145824	0.851169	0.198538	0.465379	-0.139701
50394	-8.736290	1.116486	5.498731	0.123640	-1.201326	0.499178	0.841511	0.199374	0.481101	-0.143704
50395	-10.604356	0.801393	5.514406	-0.514363	-1.441297	2.067755	0.831378	0.199617	0.496517	-0.149784
50396	-10.694342	1.072406	5.471068	-0.037355	-1.217514	2.185360	0.820697	0.202221	0.510245	-0.158784
50397	-10.448050	2.293140	5.582107	1.150583	-0.301892	2.193517	0.808975	0.207344	0.523258	-0.169613
50398	-9.579626	3.127039	5.652147	2.368935	0.198646	1.493401	0.796966	0.213907	0.535415	-0.180055
50399	-9.185319	3.108767	5.138415	2.475967	0.289714	0.874259	0.785374	0.219793	0.546885	-0.189196
50400	-9.212337	2.011904	4.190427	1.477637	-0.208013	0.397021	0.773898	0.224510	0.557915	-0.198515
50401	-9.063274	1.311984	3.544847	0.944717	-0.503226	-0.051743	0.761563	0.230297	0.568152	-0.210209
50402	-9.666870	1.887568	3.949563	1.735753	-0.337366	0.650345	0.749407	0.237205	0.576484	-0.223134
50403	-9.784108	3.405977	4.434468	3.294864	0.447146	0.954363	0.738671	0.243400	0.582981	-0.235062
50404	-9.776860	3.420908	4.719307	3.772894	0.161574	0.924854	0.729743	0.247784	0.588454	-0.244541
50405	-9.937448	1.434034	3.915845	2.063262	-0.879962	0.728113	0.721751	0.251174	0.593453	-0.252588
50406	-10.500954	0.142475	2.675114	0.405507	-1.009982	0.969626	0.713253	0.253607	0.599056	-0.260931
50407	-11.025075	0.172871	1.796511	-0.071622	-0.354347	1.353121	0.704961	0.256665	0.603034	-0.271114
50408	-10.864813	1.308238	2.181311	1.201659	0.193439	1.279190	0.697724	0.259973	0.605359	-0.281310
50409	-10.759950	1.252836	1.996836	1.198819	0.282665	1.133312	0.691863	0.263141	0.606490	-0.290261
50410	-10.070524	1.485388	0.915841	0.814014	1.171607	0.307802	0.686689	0.267127	0.606560	-0.298641
50411	-9.395711	2.147623	0.410133	1.133355	1.929751	-0.429177	0.681971	0.268819	0.608528	-0.303885
50412	-9.458815	1.790748	0.931717	1.309529	1.302175	-0.318852	0.678585	0.269355	0.610538	-0.306943
50413	-9.626990	2.097227	1.799919	2.168954	0.862560	-0.072647	0.676482	0.269792	0.611875	-0.308533
50414	-10.262346	1.654641	1.880321	1.889850	0.553557	0.565711	0.675412	0.270235	0.612426	-0.309397
50415	-10.331735	0.623838	1.830397	1.088674	-0.086218	0.641576	0.675042	0.271053	0.611942	-0.310444
50416	-10.337251	-0.197115	1.783998	0.425823	-0.585272	0.654230	0.675078	0.272423	0.610482	-0.312036
50417	-10.041714	-0.376205	1.925873	0.367908	-0.826415	0.378882	0.675359	0.274364	0.608420	-0.313751
50418	-10.067068	-0.080968	1.824027	0.483294	-0.549820	0.392382	0.675778	0.276538	0.606117	-0.315392
50419	-10.003917	0.059281	1.666933	0.448449	-0.340602	0.313676	0.676198	0.278881	0.603625	-0.317204
50420	-9.788616	-0.129606	1.611728	0.235791	-0.430565	0.096414	0.676696	0.281144	0.601008	-0.319108
50421	-9.580315	-0.380900	1.335559	-0.165990	-0.382849	-0.141240	0.677273	0.283420	0.598119	-0.321291
50422	-9.368376	-0.494378	0.761489	-0.640953	-0.010421	-0.422286	0.677389	0.286091	0.595140	-0.324199
50423	-9.264567	-0.452728	0.549498	-0.764258	0.192247	-0.554287	0.677023	0.288830	0.592514	-0.327328
50424	-9.260762	-0.081226	0.658330	-0.424728	0.350298	-0.544538	0.676513	0.290877	0.590830	-0.329607
50425	-9.449639	0.070169	0.890923	-0.190570	0.286934	-0.327136	0.676390	0.291691	0.589944	-0.330727
50426	-9.489895	0.093586	1.255333	0.036746	0.028180	-0.239779	0.676860	0.291162	0.589592	-0.330857
50427	-9.533019	-0.133697	1.542024	0.020778	-0.314789	-0.159987	0.677840	0.289500	0.589635	-0.330231
50428	-9.742016	-0.533286	1.524970	-0.323453	-0.500796	0.044357	0.679001	0.287145	0.589908	-0.329416
50429	-9.787069	-0.639640	1.322920	-0.528661	-0.375685	0.062802	0.679869	0.284890	0.590109	-0.329223
50430	-9.563516	-0.466096	1.348977	-0.346294	-0.283452	-0.153626	0.680239	0.282973	0.590353	-0.329673
50431	-9.397409	-0.475548	1.465216	-0.253001	-0.368490	-0.300358	0.680269	0.281416	0.590536	-0.330615
50432	-9.379626	-0.505255	1.694440	-0.118293	-0.537318	-0.283732	0.680061	0.280379	0.590429	-0.332111
50433	-9.473134	-0.435028	1.748236	-0.023390	-0.494243	-0.182478	0.679666	0.279735	0.590078	-0.334080
50434	-9.864807	-0.475167	1.718070	-0.091773	-0.415911	0.202823	0.679301	0.279223	0.589567	-0.336148
50435	-10.173633	-0.346436	1.546171	-0.107333	-0.128425	0.482230	0.679111	0.278433	0.588998	-0.338178
50436	-10.184124	0.101581	1.459655	0.204217	0.255423	0.470804	0.679164	0.277292	0.588390	-0.340064
50437	-9.918791	0.404206	1.643295	0.585329	0.301131	0.227871	0.679433	0.275717	0.588236	-0.341072
50438	-9.800789	0.366312	1.738550	0.632586	0.220142	0.125295	0.680009	0.273670	0.588600	-0.340943
50439	-9.623377	0.002133	1.691951	0.337672	0.033185	-0.047600	0.680847	0.271620	0.589053	-0.340128
50440	-9.484725	-0.373419	1.705657	0.065874	-0.212616	-0.171154	0.681396	0.270256	0.589428	-0.339464
50441	-9.530889	-0.519894	1.767873	-0.010381	-0.336970	-0.111148	0.681504	0.269845	0.589525	-0.339407
50442	-9.706011	-0.558110	1.755585	-0.060108	-0.323888	0.061101	0.681343	0.270213	0.589320	-0.339794
50443	-9.858261	-0.370853	1.776131	0.085918	-0.203590	0.208722	0.681145	0.270801	0.589049	-0.340190
50444	-9.874493	-0.034511	1.757772	0.335772	0.018092	0.211459	0.681057	0.271016	0.589004	-0.340272
50445	-9.758216	-0.029668	1.784923	0.365308	-0.018467	0.100729	0.681200	0.270667	0.589290	-0.339769
50446	-9.677885	-0.290386	1.731432	0.136305	-0.152185	0.021025	0.681528	0.269903	0.589852	-0.338743
50447	-9.651216	-0.631037	1.636537	-0.181922	-0.297808	-0.009594	0.681810	0.269033	0.590531	-0.337683
50448	-9.614397	-0.765156	1.556578	-0.325911	-0.328413	-0.054053	0.681776	0.268550	0.591044	-0.337238
50449	-9.521850	-0.640449	1.592918	-0.190660	-0.294931	-0.143673	0.681371	0.268670	0.591376	-0.337378
50450	-9.535606	-0.445488	1.670051	0.017876	-0.236322	-0.124595	0.680776	0.269066	0.591705	-0.337688
50451	-9.592162	-0.391080	1.729176	0.103458	-0.247423	-0.061758	0.680180	0.269415	0.592094	-0.337927
50452	-9.732910	-0.452908	1.774003	0.083587	-0.308805	0.085766	0.679686	0.269660	0.592511	-0.337996
50453	-10.022157	-0.508497	1.690150	-0.026878	-0.247431	0.360653	0.679560	0.270048	0.592590	-0.337800
50454	-9.805994	-0.297385	1.666824	0.126258	-0.145131	0.136541	0.679829	0.271449	0.592176	-0.336861
50455	-9.944266	0.020137	1.587383	0.281960	0.098618	0.253051	0.680562	0.273655	0.591299	-0.335132
50456	-10.059434	1.329922	1.532654	1.212754	0.932792	0.334660	0.681857	0.275813	0.589750	-0.333456
50457	-10.314435	1.510287	2.078635	1.597219	0.624592	0.677659	0.684193	0.277440	0.587888	-0.330598
50458	-10.652365	1.833371	2.873081	2.203212	0.230648	1.149974	0.688130	0.278687	0.585137	-0.326228
50459	-10.972974	2.058130	3.065249	2.308776	0.252613	1.529299	0.693904	0.279451	0.581059	-0.320584
50460	-10.995170	1.895192	3.766017	2.411775	-0.381227	1.706948	0.700988	0.280383	0.575664	-0.314026
50461	-10.928606	1.885828	3.962917	2.285526	-0.532433	1.727753	0.709393	0.281597	0.568422	-0.307181
50462	-10.628637	2.264500	4.178533	2.462475	-0.464275	1.556927	0.718481	0.283582	0.559572	-0.300407
50463	-10.537128	2.850887	4.385116	2.716501	-0.218742	1.630627	0.728440	0.285720	0.549186	-0.293486
50464	-10.444778	3.250852	4.384763	2.653641	0.077820	1.668824	0.739737	0.287403	0.537248	-0.285576
50465	-10.554140	3.605693	4.327682	2.417193	0.432423	1.895053	0.752430	0.287974	0.524150	-0.276018
50466	-10.499132	3.649924	4.318813	1.979557	0.546896	1.933212	0.766253	0.287323	0.510035	-0.264889
50467	-10.643086	3.481175	4.400831	1.348275	0.484782	2.132348	0.780732	0.285463	0.495291	-0.252299
50468	-10.674817	3.354629	4.506400	0.771229	0.427575	2.216793	0.795623	0.282807	0.479560	-0.238803
50469	-10.404199	3.441355	4.798207	0.556853	0.370917	2.130369	0.810694	0.279549	0.462645	-0.224916
50470	-10.372254	3.605402	5.226504	0.353024	0.325299	2.337925	0.825675	0.275428	0.444929	-0.210805
50471	-10.069025	3.676420	5.489182	0.112760	0.315920	2.224261	0.840467	0.270359	0.426376	-0.196785
50472	-9.937568	3.380207	5.668085	-0.471490	0.107037	2.105503	0.854843	0.264601	0.407202	-0.182802
50473	-9.837916	2.883280	5.782692	-1.198459	-0.228781	1.892811	0.868476	0.259150	0.387128	-0.169477
50474	-9.407678	2.951655	5.915767	-1.394694	-0.172809	1.598207	0.881113	0.254751	0.366065	-0.157284
50475	-8.820419	3.291959	6.188772	-1.258948	0.004715	1.382146	0.892767	0.251000	0.344510	-0.145871
50476	-8.507878	3.506730	6.323505	-1.435637	0.182052	1.257368	0.903615	0.247175	0.322891	-0.134631
50477	-8.297614	3.410941	6.349718	-1.860728	0.162631	1.017286	0.913741	0.243517	0.300853	-0.123548
50478	-7.726869	3.708623	6.515280	-1.764847	0.367318	0.800151	0.923043	0.239936	0.278842	-0.112560
50479	-7.294339	3.695728	6.626868	-1.894692	0.348372	0.533616	0.931705	0.235991	0.256752	-0.101555
50480	-6.371762	3.996587	6.750466	-1.478831	0.569032	0.167695	0.939729	0.231592	0.234729	-0.090424
50481	-5.951548	3.691659	6.988048	-1.588544	0.243879	-0.051544	0.946846	0.227223	0.213458	-0.079293
50482	-5.728891	3.410540	6.997400	-1.913233	0.047583	-0.339808	0.953123	0.223321	0.192348	-0.068454
50483	-5.244107	3.065107	7.057783	-1.952861	-0.259560	-0.712576	0.958447	0.220278	0.171788	-0.057844
50484	-4.214904	3.178683	6.963157	-1.393450	-0.123826	-1.187960	0.962706	0.218699	0.151953	-0.047726
50485	-3.529509	3.429438	7.225841	-0.998894	-0.020043	-1.128090	0.966118	0.217809	0.133182	-0.037931
50486	-3.767057	3.257105	7.635202	-1.509908	-0.348308	-0.830282	0.968973	0.217059	0.114750	-0.028434
50487	-3.121256	3.478992	7.894052	-1.163750	-0.258514	-0.717105	0.971454	0.215860	0.096441	-0.019533
50488	-2.743410	3.774264	8.013896	-1.101495	-0.020601	-0.605627	0.973668	0.213531	0.079102	-0.010893
50489	-2.392416	3.611199	8.195691	-1.080822	-0.201140	-0.608602	0.975683	0.210241	0.061927	-0.002515
50490	-1.644659	3.046717	8.310658	-0.673919	-0.696078	-0.862440	0.977317	0.206871	0.045011	0.005527
50491	-1.159713	2.529326	8.292644	-0.498328	-1.100352	-1.149860	0.978424	0.204094	0.029476	0.012735
50492	-1.098804	2.578883	8.155689	-0.718227	-0.964494	-1.273280	0.979084	0.202019	0.014871	0.019030
50493	-0.755343	2.786017	8.200644	-0.635267	-0.759779	-1.175734	0.979294	0.200934	0.001011	0.024655
50494	-0.295620	2.894813	8.036560	-0.424360	-0.564762	-1.295048	0.979230	0.200205	-0.011918	0.029734
50495	0.073377	2.967070	7.896079	-0.281273	-0.421241	-1.392672	0.978930	0.199878	-0.023990	0.034199
50496	0.598535	3.108390	7.577447	0.038841	-0.132828	-1.601970	0.978586	0.199229	-0.035085	0.038020
50497	1.044411	2.865423	7.102418	0.353718	-0.130331	-2.092478	0.978302	0.198111	-0.044843	0.040830
50498	1.516907	2.384706	6.711151	0.759330	-0.370980	-2.579984	0.978151	0.196593	-0.052780	0.042252
50499	1.408927	1.695155	6.529879	0.640752	-0.922707	-3.013021	0.978088	0.195184	-0.058437	0.042801
50500	1.542766	1.717802	6.532781	0.700517	-0.887976	-2.976850	0.977855	0.194964	-0.062875	0.042848
50501	1.816394	2.544757	6.754189	0.810810	-0.200918	-2.416995	0.977727	0.194902	-0.065251	0.042500
50502	1.607911	2.775857	7.160879	0.513587	-0.155113	-1.984463	0.977882	0.193967	-0.066023	0.041997
50503	1.627601	2.956567	7.616886	0.469027	-0.144233	-1.496053	0.978301	0.192289	-0.064644	0.042112
50504	1.351316	3.614329	8.331465	0.077513	0.204927	-0.633664	0.978839	0.190138	-0.062485	0.042622
50505	1.531008	3.233555	8.802910	0.286448	-0.266209	-0.318597	0.979500	0.187404	-0.060153	0.042920
50506	1.311317	2.502027	9.296622	0.148521	-1.095118	-0.159443	0.980039	0.185592	-0.057138	0.042604
50507	1.162482	2.603695	9.543849	0.026216	-1.082603	0.088960	0.980254	0.185581	-0.054228	0.041488
50508	1.241208	3.332647	9.370142	0.105474	-0.341994	0.203214	0.980360	0.186140	-0.051372	0.040089
50509	1.200413	3.953611	9.474630	0.055548	0.179066	0.521972	0.980429	0.186843	-0.048883	0.038203
50510	0.674396	4.019394	9.989768	-0.454160	0.008955	0.966885	0.980594	0.186953	-0.046483	0.036374
50511	0.658583	4.057695	10.038950	-0.429951	0.024414	1.026758	0.980693	0.187045	-0.045096	0.034942
50512	0.873565	4.288688	9.909159	-0.194813	0.306366	1.013922	0.980934	0.186281	-0.044024	0.033605
50513	0.698207	3.990196	9.961510	-0.328229	0.022481	0.935918	0.981204	0.185144	-0.043693	0.032416
50514	0.972197	3.978784	9.742839	-0.031601	0.128692	0.755246	0.981415	0.184201	-0.043634	0.031465
50515	0.907468	3.774253	9.770682	-0.078762	-0.059275	0.700399	0.981534	0.183676	-0.043674	0.030761
50516	0.813608	3.636347	9.729180	-0.158653	-0.171682	0.603035	0.981534	0.183727	-0.043855	0.030202
50517	0.853413	3.793762	9.523347	-0.122323	0.049050	0.473114	0.981485	0.183915	-0.044449	0.029775
50518	1.033341	3.810407	9.449882	0.051469	0.098734	0.428155	0.981513	0.183719	-0.044941	0.029329
50519	0.932488	3.645762	9.482083	-0.048161	-0.063571	0.388520	0.981601	0.183188	-0.045542	0.028767
50520	0.835908	3.363008	9.309761	-0.122962	-0.254491	0.117081	0.981718	0.182420	-0.046339	0.028387
50521	1.048132	3.586252	9.254252	0.061637	-0.004764	0.167148	0.981814	0.181776	-0.047130	0.027891
50522	0.844580	3.658612	9.324248	-0.164041	0.044842	0.237755	0.981979	0.180789	-0.047769	0.027391
50523	0.981953	3.583264	9.390571	-0.038982	-0.027542	0.286052	0.982089	0.180075	-0.048436	0.026989
50524	0.884860	3.530345	9.377264	-0.141703	-0.061307	0.244923	0.982212	0.179321	-0.049012	0.026504
50525	0.955414	3.588146	9.273875	-0.076714	0.047319	0.176517	0.982345	0.178525	-0.049601	0.025835
50526	0.983636	3.363684	9.341227	-0.046890	-0.174976	0.162663	0.982392	0.178225	-0.050027	0.025267
50527	0.973221	3.573953	9.345804	-0.077338	0.019695	0.240072	0.982361	0.178404	-0.050375	0.024534
50528	0.870151	3.868491	9.193285	-0.190356	0.346337	0.191446	0.982412	0.178115	-0.050742	0.023793
50529	0.988399	3.577200	9.136596	-0.052817	0.103629	0.048202	0.982464	0.177811	-0.051033	0.023301
50530	1.007223	3.395481	9.161795	-0.027980	-0.072263	0.009546	0.982459	0.177835	-0.051264	0.022815
50531	1.178602	3.385330	9.056404	0.149269	-0.042857	-0.073904	0.982410	0.178095	-0.051539	0.022286
50532	1.099034	3.441104	9.065725	0.064721	-0.000363	-0.053986	0.982405	0.178180	-0.051579	0.021739
50533	0.956992	3.664838	9.305514	-0.108986	0.119419	0.232875	0.982454	0.178018	-0.051477	0.021079
50534	0.788062	3.740942	9.396902	-0.285571	0.163736	0.326794	0.982621	0.177179	-0.051379	0.020565
50535	0.940000	3.637966	9.249624	-0.112948	0.143884	0.169318	0.982840	0.175994	-0.051399	0.020235
50536	0.913988	3.453061	9.265226	-0.127087	-0.011363	0.116416	0.983069	0.174801	-0.051257	0.019793
50537	0.931958	3.320270	9.244371	-0.094884	-0.107140	0.052941	0.983253	0.173893	-0.051064	0.019156
50538	0.959312	3.342084	9.187671	-0.056664	-0.052270	0.010609	0.983378	0.173357	-0.050728	0.018491
50539	0.958448	3.487399	9.218514	-0.059417	0.081243	0.089405	0.983464	0.173042	-0.050413	0.017697
50540	0.895035	3.519943	9.267521	-0.117487	0.101269	0.139898	0.983591	0.172553	-0.049875	0.016936
50541	0.785476	3.316965	9.490793	-0.221370	-0.161309	0.267954	0.983675	0.172333	-0.049176	0.016330
50542	0.818409	3.418657	9.483676	-0.178578	-0.057223	0.299777	0.983773	0.171989	-0.048639	0.015626
50543	0.875150	3.497480	9.433717	-0.109731	0.043729	0.285793	0.983900	0.171441	-0.048238	0.014870
50544	0.845596	3.402201	9.487694	-0.128496	-0.052532	0.301019	0.984048	0.170773	-0.047779	0.014247
50545	0.899907	3.429239	9.449683	-0.061643	-0.001785	0.279993	0.984162	0.170281	-0.047364	0.013631
50546	0.969223	3.450828	9.548129	0.008305	-0.003276	0.386051	0.984299	0.169656	-0.046992	0.012839
50547	0.774564	3.359593	9.619949	-0.178096	-0.101857	0.404362	0.984451	0.168917	-0.046655	0.012102
50548	0.880683	3.448086	9.472379	-0.055082	0.043075	0.305908	0.984528	0.168592	-0.046366	0.011512
50549	0.837421	3.619840	9.497887	-0.098026	0.203937	0.383545	0.984639	0.168087	-0.045982	0.010895
50550	0.797533	3.459403	9.557725	-0.129018	0.042111	0.382174	0.984732	0.167626	-0.045814	0.010315
50551	0.881341	3.447448	9.608062	-0.043244	0.022115	0.433002	0.984801	0.167313	-0.045565	0.009817
50552	0.756455	3.470956	9.514774	-0.155699	0.081359	0.342105	0.984867	0.166974	-0.045504	0.009240
50553	0.890822	3.514008	9.506020	-0.020283	0.132404	0.360232	0.984935	0.166594	-0.045537	0.008683
50554	0.883009	3.452476	9.544871	-0.026743	0.069826	0.375456	0.985025	0.166114	-0.045441	0.008181
50555	0.877340	3.323108	9.463293	-0.018614	-0.016888	0.255384	0.985088	0.165770	-0.045419	0.007689
50556	0.807210	3.508107	9.539884	-0.099071	0.138436	0.382351	0.985144	0.165446	-0.045488	0.007075
50557	0.764392	3.512467	9.551123	-0.142479	0.146724	0.390442	0.985223	0.164967	-0.045592	0.006578
50558	0.928098	3.409563	9.482358	0.029859	0.082595	0.306299	0.985320	0.164401	-0.045601	0.006143
50559	0.817031	3.134336	9.554427	-0.076946	-0.191479	0.273744	0.985390	0.164021	-0.045501	0.005712
50560	0.759973	3.129052	9.560091	-0.130541	-0.198526	0.272322	0.985334	0.164408	-0.045370	0.005279
50561	0.717057	3.416435	9.517621	-0.174311	0.077275	0.323138	0.985248	0.164938	-0.045360	0.004826
50562	0.839468	3.390877	9.465544	-0.045473	0.060855	0.276589	0.985199	0.165254	-0.045344	0.004337
50563	0.791729	3.280883	9.436937	-0.086082	-0.039890	0.209179	0.985150	0.165563	-0.045322	0.003914
50564	0.812427	3.314065	9.405955	-0.062389	-0.005128	0.192868	0.985096	0.165884	-0.045350	0.003535
50565	0.855093	3.448595	9.416233	-0.021956	0.112408	0.250926	0.985067	0.166084	-0.045273	0.003119
50566	0.767559	3.480718	9.467669	-0.112069	0.124931	0.302308	0.985084	0.165985	-0.045281	0.002723
50567	0.835584	3.474576	9.515233	-0.046916	0.106035	0.350830	0.985127	0.165736	-0.045278	0.002383
50568	0.799259	3.412672	9.533917	-0.081967	0.047629	0.344661	0.985187	0.165392	-0.045253	0.002065
50569	0.755276	3.360167	9.519873	-0.122878	0.010593	0.310253	0.985251	0.164990	-0.045335	0.001670
50570	0.766352	3.307184	9.464894	-0.106860	-0.015309	0.242029	0.985282	0.164772	-0.045471	0.001201
50571	0.813120	3.397185	9.388259	-0.055125	0.098449	0.203735	0.985318	0.164556	-0.045480	0.000734
50572	0.772834	3.479104	9.383328	-0.095528	0.182042	0.222551	0.985352	0.164330	-0.045567	0.000304
50573	0.868937	3.323695	9.419067	0.000020	0.024849	0.213289	0.985362	0.164272	-0.045578	-0.000029
50574	0.856334	3.333327	9.386851	-0.006977	0.045454	0.185074	0.985377	0.164236	-0.045363	-0.000235
50575	0.781436	3.327533	9.306575	-0.069881	0.067714	0.101241	0.985387	0.164234	-0.045168	-0.000432
50576	0.832661	3.380748	9.444923	-0.026503	0.068997	0.253289	0.985356	0.164485	-0.044927	-0.000642
50577	0.755540	3.226927	9.546077	-0.105285	-0.113707	0.291147	0.985320	0.164745	-0.044756	-0.000711
50578	1.032517	3.187391	9.449334	0.184444	-0.131540	0.210493	0.985242	0.165304	-0.044417	-0.000645
50579	0.789927	3.220041	9.590808	-0.062892	-0.157359	0.333618	0.985130	0.166063	-0.044061	-0.000655
50580	0.722326	3.482981	9.490404	-0.120346	0.110972	0.321111	0.985035	0.166665	-0.043922	-0.000804
50581	0.686349	3.447355	9.489497	-0.153210	0.070944	0.305483	0.985020	0.166764	-0.043870	-0.000986
50582	0.787127	3.378103	9.459373	-0.047964	0.012284	0.262452	0.985009	0.166838	-0.043839	-0.001144
50583	0.802870	3.560420	9.392707	-0.027430	0.207383	0.262052	0.985047	0.166626	-0.043780	-0.001385
50584	0.715361	3.445146	9.401678	-0.113504	0.104197	0.224671	0.985126	0.166129	-0.043888	-0.001622
50585	0.743085	3.265404	9.373720	-0.081799	-0.048262	0.140837	0.985180	0.165806	-0.043889	-0.001744
50586	0.837054	3.320701	9.336824	0.015910	0.016685	0.132334	0.985168	0.165907	-0.043770	-0.001893
50587	0.782975	3.406311	9.311215	-0.032476	0.103309	0.132311	0.985139	0.166149	-0.043489	-0.002003
50588	0.710651	3.415281	9.367519	-0.103153	0.089506	0.182358	0.985115	0.166377	-0.043168	-0.002063
50589	0.707178	3.548263	9.377391	-0.103894	0.209266	0.235752	0.985121	0.166380	-0.043016	-0.002175
50590	0.755280	3.518878	9.344014	-0.049031	0.194556	0.198471	0.985176	0.166103	-0.042818	-0.002276
50591	0.744647	3.430353	9.412202	-0.059925	0.095207	0.232147	0.985249	0.165726	-0.042602	-0.002295
50592	0.887062	3.471457	9.388370	0.088024	0.148005	0.234687	0.985337	0.165259	-0.042370	-0.002257
50593	0.744099	3.274381	9.545382	-0.060219	-0.079600	0.305594	0.985398	0.164968	-0.042091	-0.002184
50594	0.729142	3.246698	9.508670	-0.066934	-0.090779	0.260781	0.985400	0.165016	-0.041855	-0.002129
50595	0.688847	3.379488	9.431913	-0.097378	0.059539	0.229394	0.985402	0.165074	-0.041580	-0.002101
50596	0.709442	3.431957	9.527032	-0.079441	0.076442	0.337870	0.985410	0.165101	-0.041285	-0.002016
50597	0.712468	3.480559	9.561152	-0.074040	0.111104	0.386317	0.985428	0.165075	-0.040967	-0.001771
50598	0.691232	3.403540	9.619391	-0.094149	0.021493	0.414005	0.985463	0.164928	-0.040721	-0.001505
50599	0.677497	3.271566	9.542528	-0.096807	-0.073431	0.297072	0.985510	0.164703	-0.040518	-0.001228
50600	0.708092	3.315765	9.493863	-0.059445	-0.011690	0.268257	0.985551	0.164515	-0.040282	-0.001014
50601	0.638035	3.315864	9.552485	-0.130196	-0.025558	0.318176	0.985596	0.164292	-0.040090	-0.000785
50602	0.669493	3.441166	9.524596	-0.094482	0.106494	0.335588	0.985649	0.164049	-0.039806	-0.000401
50603	0.678115	3.434722	9.485172	-0.079618	0.119245	0.296965	0.985708	0.163736	-0.039628	0.000025
50604	0.659225	3.217941	9.473636	-0.092008	-0.074225	0.213554	0.985779	0.163361	-0.039413	0.000356
50605	0.645549	3.142541	9.421843	-0.097209	-0.123871	0.139128	0.985795	0.163316	-0.039177	0.000638
50606	0.660571	3.266114	9.484479	-0.084327	-0.028726	0.239738	0.985781	0.163471	-0.038896	0.000880
50607	0.715795	3.354403	9.543983	-0.030188	0.032244	0.328813	0.985775	0.163567	-0.038627	0.001089
50608	0.653039	3.244799	9.593219	-0.091139	-0.086812	0.334686	0.985795	0.163483	-0.038478	0.001279
50609	0.638370	3.248987	9.458215	-0.094404	-0.034756	0.207849	0.985842	0.163215	-0.038402	0.001440
50610	0.709687	3.260971	9.443155	-0.020358	-0.012131	0.202810	0.985916	0.162804	-0.038235	0.001536
50611	0.678658	3.298049	9.546012	-0.054989	-0.001598	0.309615	0.986000	0.162357	-0.037965	0.001527
50612	0.578218	3.239182	9.535281	-0.148117	-0.044747	0.273157	0.986068	0.162009	-0.037697	0.001566
50613	0.575789	3.148586	9.584694	-0.146507	-0.142274	0.290271	0.986090	0.161951	-0.037347	0.001588
50614	0.704898	3.170098	9.546739	-0.007447	-0.111528	0.270672	0.986082	0.162106	-0.036887	0.001644
50615	0.766676	3.247232	9.579112	0.060458	-0.055417	0.330535	0.986032	0.162531	-0.036358	0.001688
50616	0.558441	3.214850	9.567032	-0.136508	-0.085908	0.294201	0.986030	0.162637	-0.035940	0.001650
50617	0.495041	3.196035	9.457779	-0.185128	-0.068157	0.180829	0.986048	0.162589	-0.035669	0.001573
50618	0.502131	3.307014	9.468240	-0.175573	0.034980	0.227432	0.986074	0.162467	-0.035491	0.001401
50619	0.590677	3.465714	9.536211	-0.090112	0.166819	0.349174	0.986136	0.162128	-0.035344	0.001185
50620	0.516055	3.235532	9.577417	-0.161717	-0.056154	0.308211	0.986202	0.161731	-0.035331	0.001015
50621	0.556868	3.038735	9.484574	-0.111156	-0.208190	0.159547	0.986208	0.161700	-0.035296	0.000843
50622	0.669448	3.050890	9.459017	0.005190	-0.194632	0.146789	0.986125	0.162245	-0.035116	0.000733
50623	0.673973	3.126828	9.602539	0.005535	-0.184887	0.306887	0.985983	0.163203	-0.034675	0.000767
50624	0.663671	3.284236	9.515004	0.007182	-0.027092	0.274986	0.985836	0.164179	-0.034246	0.000894
50625	0.603613	3.374568	9.534822	-0.048078	0.036122	0.319502	0.985746	0.164782	-0.033928	0.000912
50626	0.522712	3.408157	9.565120	-0.125854	0.050368	0.354018	0.985721	0.164969	-0.033732	0.000769
50627	0.548525	3.563046	9.488145	-0.093541	0.222270	0.334377	0.985766	0.164724	-0.033630	0.000502
50628	0.584069	3.356212	9.447668	-0.049837	0.046892	0.230173	0.985842	0.164292	-0.033514	0.000261
50629	0.634962	3.327083	9.391506	0.008724	0.043966	0.170850	0.985887	0.164060	-0.033347	-0.000131
50630	0.504782	3.245797	9.362815	-0.113715	-0.019861	0.108955	0.985893	0.164056	-0.033159	-0.000528
50631	0.553857	3.527164	9.391153	-0.063208	0.232964	0.231372	0.985856	0.164336	-0.032881	-0.001035
50632	0.464484	3.637154	9.400537	-0.147135	0.332230	0.271097	0.985871	0.164287	-0.032641	-0.001431
50633	0.607430	3.467295	9.287067	0.010685	0.211146	0.116865	0.985937	0.163956	-0.032309	-0.001628
50634	0.539767	3.306403	9.321887	-0.048749	0.053682	0.092663	0.985984	0.163774	-0.031793	-0.001802
50635	0.442497	3.323732	9.361909	-0.137903	0.059291	0.130441	0.985989	0.163838	-0.031289	-0.001906
50636	0.583333	3.359273	9.421436	0.008743	0.067018	0.206487	0.985941	0.164214	-0.030821	-0.001968
50637	0.524317	3.436009	9.512559	-0.045713	0.103614	0.314355	0.985913	0.164488	-0.030268	-0.002007
50638	0.471560	3.357764	9.488201	-0.086053	0.035030	0.262742	0.985917	0.164550	-0.029772	-0.001977
50639	0.467962	3.289923	9.496650	-0.078732	-0.032398	0.248211	0.985935	0.164556	-0.029141	-0.001865
50640	0.412978	3.149203	9.472449	-0.119778	-0.157804	0.176109	0.985933	0.164677	-0.028556	-0.001729
50641	0.441937	3.282143	9.486858	-0.079651	-0.040690	0.235209	0.985919	0.164884	-0.027815	-0.001665
50642	0.371035	3.457384	9.448551	-0.135342	0.137627	0.253543	0.985964	0.164733	-0.027101	-0.001599
50643	0.435879	3.395569	9.365365	-0.052377	0.113532	0.157984	0.986081	0.164148	-0.026412	-0.001515
50644	0.449325	3.263114	9.262337	-0.018996	0.038175	0.017817	0.986267	0.163146	-0.025651	-0.001515
50645	0.449132	3.107012	9.181211	0.000763	-0.064178	-0.109816	0.986432	0.162270	-0.024861	-0.001610
50646	0.487891	3.060154	9.014717	0.064758	-0.041993	-0.280547	0.986526	0.161848	-0.023868	-0.001745
50647	0.435657	3.214979	8.807464	0.043250	0.177015	-0.428442	0.986569	0.161773	-0.022542	-0.001973
50648	0.449799	3.297844	8.577868	0.096562	0.330889	-0.618178	0.986617	0.161721	-0.020690	-0.002268
50649	0.369024	3.161600	8.125155	0.074090	0.350894	-1.093672	0.986682	0.161641	-0.018001	-0.002486
50650	0.291567	3.016350	7.620652	0.069208	0.378003	-1.620638	0.986735	0.161711	-0.014015	-0.002712
50651	0.283160	3.082275	7.330366	0.141469	0.532378	-1.874750	0.986760	0.161918	-0.008802	-0.003025
50652	0.517144	3.144999	7.583774	0.461390	0.505731	-1.614966	0.986789	0.161951	-0.002821	-0.003426
50653	0.967046	2.908395	7.824276	1.010464	0.205240	-1.473077	0.986869	0.161432	0.003487	-0.004084
50654	0.388149	2.203979	8.027192	0.543464	-0.515643	-1.513208	0.986877	0.161005	0.011075	-0.005317
50655	-0.447676	2.104962	8.207711	-0.145772	-0.666983	-1.355174	0.986584	0.161827	0.020358	-0.007029
50656	-0.967732	2.831907	8.078597	-0.478617	0.051284	-1.211233	0.986162	0.162522	0.031533	-0.008757
50657	-1.077631	3.441108	7.319788	-0.418630	0.876627	-1.711175	0.985853	0.161352	0.044248	-0.010087
50658	-0.796336	3.246044	6.329590	-0.026929	1.039769	-2.731077	0.985561	0.158345	0.059070	-0.010382
50659	-1.338547	1.826424	5.794191	-0.472989	-0.103073	-3.610931	0.984744	0.155800	0.076817	-0.010220
50660	-2.077077	1.569602	6.019348	-0.935369	-0.409487	-3.334911	0.982985	0.155208	0.097555	-0.011614
50661	-3.401686	1.713797	6.527723	-1.831828	-0.450029	-2.494742	0.980515	0.155428	0.119346	-0.013791
50662	-3.260530	2.518342	7.105316	-1.170881	0.128476	-1.684917	0.977775	0.154632	0.140684	-0.015889
50663	-3.656421	0.746179	7.606329	-1.186997	-1.715889	-1.601883	0.974508	0.153533	0.162719	-0.016859
50664	-4.178859	-0.592979	7.469739	-1.464516	-2.986528	-1.904765	0.969829	0.156800	0.185638	-0.019614
50665	-5.170923	0.571334	7.693863	-1.787662	-2.067721	-0.937346	0.963483	0.164443	0.209781	-0.025520
50666	-6.158956	2.069148	7.623177	-2.058235	-0.772062	-0.041792	0.956192	0.171533	0.234809	-0.033724
50667	-7.280190	3.310319	7.961630	-2.161322	0.181461	1.260307	0.948985	0.173443	0.260050	-0.041472
50668	-7.733549	2.092447	7.920101	-2.210405	-0.953784	1.191552	0.942470	0.171676	0.283113	-0.046086
50669	-7.056154	1.117136	7.547003	-1.516485	-1.731618	0.320289	0.935078	0.172901	0.305073	-0.051626
50670	-7.523466	2.360305	7.880005	-0.944577	-0.759853	1.267596	0.925995	0.177839	0.327593	-0.059908
50671	-8.610967	3.885495	7.444381	-1.106187	0.731877	2.140214	0.916201	0.181626	0.350230	-0.070190
50672	-9.721541	3.926559	7.453145	-1.267039	0.732587	2.966034	0.906354	0.182015	0.373054	-0.078892
50673	-9.462976	2.012395	6.089546	-1.886527	-0.493971	1.450025	0.896088	0.181675	0.395677	-0.086369
50674	-9.116204	0.905617	4.747864	-2.348215	-0.985712	0.185182	0.884210	0.183611	0.418752	-0.095427
50675	-10.032452	1.198712	4.302238	-2.586627	-0.545423	0.844592	0.870497	0.188056	0.441924	-0.107576
50676	-11.520398	2.069175	5.007545	-1.982772	-0.072868	2.760969	0.855545	0.193938	0.464411	-0.121464
50677	-11.753896	3.109806	5.354577	-0.721474	0.629921	3.436223	0.840346	0.199749	0.485493	-0.134963
50678	-10.170740	4.080819	4.390751	0.425086	1.800902	1.845594	0.825179	0.203446	0.506159	-0.146602
50679	-10.429127	4.191668	4.463577	1.070822	1.787722	2.098708	0.809937	0.205331	0.526706	-0.156275
50680	-10.617336	2.812983	4.209387	0.776043	0.656324	1.904596	0.794509	0.206777	0.546389	-0.165701
50681	-11.807123	1.055720	3.886167	-0.135955	-0.702216	2.640396	0.777977	0.209198	0.565412	-0.176909
50682	-12.787068	0.659395	3.834599	-0.019691	-1.027265	3.512289	0.760396	0.212953	0.583145	-0.190764
50683	-12.605076	1.081640	3.783959	0.878931	-0.712512	3.342489	0.741514	0.218201	0.599612	-0.207392
50684	-11.710115	2.034258	3.715184	2.177873	-0.030160	2.446621	0.722142	0.225259	0.614059	-0.225171
50685	-10.911759	3.593145	3.944325	3.993378	0.867946	1.624239	0.703373	0.232754	0.626847	-0.241153
50686	-10.894438	5.434500	4.954640	6.433504	1.445923	1.556863	0.688754	0.236790	0.637857	-0.250372
50687	-11.168939	3.903775	3.517160	4.716343	1.073757	1.542788	0.677781	0.238629	0.646739	-0.255729
50688	-10.763316	2.840837	3.068041	3.960999	0.456142	1.023810	0.669772	0.240606	0.652852	-0.259418
50689	-10.934374	0.908712	2.453790	2.388658	-0.653944	1.154166	0.663588	0.243979	0.656533	-0.262848
50690	-10.633641	-1.066621	1.030138	0.100028	-1.223740	0.853390	0.657827	0.251134	0.656940	-0.269491
50691	-10.175047	-2.008252	-0.567233	-1.660054	-0.825800	0.407315	0.650612	0.261697	0.655597	-0.280020
50692	-11.503257	1.501190	1.054914	2.045378	0.486438	1.644652	0.644854	0.273163	0.651243	-0.292282
50693	-12.072507	4.533069	3.716755	6.049417	0.500182	2.156457	0.645059	0.282251	0.642497	-0.302375
50694	-10.792415	4.810380	3.292543	5.792258	0.914501	0.960638	0.650874	0.288587	0.631430	-0.307208
50695	-9.871683	2.480735	1.950604	2.909811	0.433700	0.124508	0.659532	0.291431	0.622365	-0.304544
50696	-9.528482	-1.909083	0.850666	-1.387937	-1.525421	-0.278374	0.669503	0.290074	0.615850	-0.297241
50697	-9.530777	-5.596516	-0.674705	-5.368520	-2.774679	-0.534291	0.676928	0.290702	0.609588	-0.292681
50698	-9.974782	-5.103710	-0.943752	-5.389715	-2.190991	-0.190782	0.679613	0.297377	0.601644	-0.296172
50699	-9.651950	-2.211708	0.210317	-2.576347	-1.133383	-0.316813	0.679665	0.305927	0.593509	-0.303662
50700	-9.496011	-0.012300	0.740930	-0.631042	-0.119669	-0.309526	0.679146	0.313204	0.586549	-0.310845
50701	-9.226374	1.567528	0.760544	0.591405	0.839610	-0.479601	0.679663	0.317544	0.581015	-0.315667
50702	-8.983793	1.774504	0.420533	0.526159	1.251307	-0.746751	0.681880	0.318524	0.577112	-0.317056
50703	-9.071036	0.893998	0.339850	-0.307785	0.840445	-0.735422	0.685479	0.316929	0.574332	-0.315939
50704	-9.063104	0.282408	0.382271	-0.846802	0.487003	-0.789893	0.689944	0.314053	0.571783	-0.313706
50705	-9.145080	0.227053	0.190457	-1.093393	0.655167	-0.752062	0.694157	0.311498	0.569272	-0.311519
50706	-9.243619	0.419104	0.278103	-0.978184	0.745089	-0.637449	0.697528	0.309881	0.566959	-0.309817
50707	-9.141221	0.385225	0.585829	-0.870633	0.502369	-0.699907	0.700514	0.308656	0.564752	-0.308329
50708	-8.885724	-0.090681	0.713270	-1.183305	0.112928	-0.977541	0.703224	0.307693	0.562615	-0.307027
50709	-8.871112	-0.831821	0.874680	-1.714244	-0.453891	-1.037223	0.705203	0.307481	0.560620	-0.306348
50710	-9.444855	-1.260818	1.100469	-2.064135	-0.829406	-0.482242	0.706739	0.307758	0.558482	-0.306437
50711	-10.234106	-1.061809	1.126357	-2.084558	-0.629034	0.306192	0.707665	0.308445	0.556023	-0.308075
50712	-10.240805	-0.105102	1.415812	-1.200205	-0.226045	0.453659	0.708084	0.309064	0.553771	-0.310537
50713	-9.773402	0.691858	1.754158	-0.307216	-0.010801	0.136208	0.708854	0.308502	0.552469	-0.311657
50714	-9.584912	0.386098	1.934245	-0.419458	-0.329593	-0.041490	0.710436	0.306370	0.552394	-0.310289
50715	-9.748713	-0.503405	2.017754	-1.107848	-0.903687	0.052308	0.712526	0.303330	0.552593	-0.308120
50716	-10.563753	-1.084275	1.931972	-1.773029	-1.093688	0.777932	0.713901	0.300693	0.552932	-0.306912
50717	-11.279293	-1.144707	2.151256	-1.827227	-1.192406	1.518682	0.714862	0.298671	0.552445	-0.307528
50718	-10.694365	-0.536862	2.603607	-0.964695	-1.175264	1.101724	0.715142	0.297279	0.551972	-0.309070
50719	-10.389407	0.133338	2.827871	-0.232944	-0.921386	0.913497	0.714807	0.295863	0.552380	-0.310473
50720	-10.061504	1.084357	2.618272	0.470654	-0.164136	0.628403	0.714515	0.294095	0.552839	-0.312002
50721	-9.352777	1.653771	2.384976	0.940566	0.322460	-0.070578	0.713668	0.292968	0.553392	-0.314015
50722	-9.254073	1.593946	2.164286	0.812103	0.462508	-0.221590	0.712453	0.293148	0.553503	-0.316401
50723	-8.863715	1.588823	2.218618	0.939851	0.376029	-0.593832	0.710837	0.294297	0.553243	-0.319410
50724	-8.930730	1.715877	1.905714	0.865225	0.704345	-0.588309	0.709134	0.295982	0.552808	-0.322377
50725	-9.373684	3.290626	1.593812	1.865866	1.952168	-0.120326	0.707104	0.299538	0.551063	-0.326513
50726	-9.072169	4.940797	2.149948	3.579617	2.417505	-0.185671	0.704615	0.304152	0.549746	-0.329831
50727	-9.311104	3.962761	2.499644	2.964670	1.526661	0.062948	0.703493	0.307049	0.549045	-0.330709
50728	-9.322205	2.480470	2.727440	1.893848	0.433775	0.021958	0.702588	0.309144	0.548580	-0.331452
50729	-9.259522	1.385420	2.843332	1.084240	-0.334215	-0.093873	0.701443	0.310964	0.548331	-0.332583
50730	-9.022026	0.362914	3.284614	0.546059	-1.329927	-0.312663	0.700062	0.312635	0.548019	-0.334435
50731	-9.095001	0.130686	3.795836	0.635752	-1.869886	-0.156404	0.698524	0.313460	0.547739	-0.337328
50732	-9.262919	0.594510	3.729298	0.967789	-1.517500	0.027195	0.696681	0.314078	0.547356	-0.341163
50733	-9.057795	1.543561	3.606935	1.742165	-0.885167	-0.137078	0.694941	0.314082	0.546688	-0.345748
50734	-8.496991	2.029766	3.318075	2.112055	-0.421235	-0.719283	0.693221	0.313628	0.545897	-0.350826
50735	-7.914730	1.063439	3.338440	1.444384	-1.017900	-1.339409	0.691150	0.313150	0.545120	-0.356500
50736	-7.762669	-0.446919	4.019214	0.589346	-2.388659	-1.412707	0.687816	0.313773	0.544412	-0.363415
50737	-8.433675	-1.314130	4.223520	-0.111626	-2.875867	-0.734767	0.683839	0.315034	0.543389	-0.371275
50738	-8.944388	-0.758585	3.894724	0.152867	-2.176103	-0.273962	0.679614	0.316317	0.541935	-0.379966
50739	-9.223310	0.522197	4.794310	1.683987	-2.189987	0.222027	0.676552	0.317289	0.539514	-0.387983
50740	-9.873959	1.933172	5.262937	3.065774	-1.700484	0.987271	0.678122	0.313949	0.537524	-0.390711
50741	-10.601902	2.606889	2.157818	2.065179	1.534385	1.014647	0.681891	0.308431	0.535401	-0.391461
50742	-10.966151	1.444630	-0.504980	-0.300490	3.397207	0.721364	0.684079	0.304847	0.533550	-0.392974
50743	-10.979527	-0.730978	0.311316	-1.813833	1.728459	0.906581	0.685687	0.303131	0.530103	-0.396152
50744	-9.688612	-0.440856	0.640686	-1.277277	1.405768	-0.280333	0.686612	0.303401	0.525942	-0.399870
50745	-9.392240	1.953515	-0.236353	0.418699	3.289841	-0.807806	0.684808	0.307961	0.522310	-0.404215
50746	-9.992420	2.566236	0.670697	1.306180	2.927244	0.016291	0.682671	0.312790	0.519896	-0.407223
50747	-9.667409	1.357003	1.780970	0.772758	1.307110	-0.006243	0.682437	0.314450	0.519229	-0.407189
50748	-9.903840	0.053122	1.816527	-0.413360	0.703581	0.223382	0.683219	0.314658	0.519453	-0.405427
50749	-10.072363	-0.478915	2.339055	-0.692441	0.027378	0.515562	0.684285	0.314727	0.519501	-0.403509
50750	-9.962277	-0.652663	2.503418	-0.777463	-0.238395	0.447853	0.685236	0.314704	0.519832	-0.401481
50751	-9.983746	-0.692374	2.439367	-0.861698	-0.223150	0.449508	0.685510	0.315638	0.520027	-0.400026
50752	-9.675028	-0.330773	2.341198	-0.565618	-0.062895	0.130793	0.685395	0.317374	0.519603	-0.399399
50753	-9.478479	-0.654055	2.517524	-0.763385	-0.437983	-0.023276	0.684339	0.320150	0.518981	-0.399803
50754	-9.619424	-0.704404	2.552059	-0.830616	-0.495177	0.117430	0.682660	0.323696	0.518203	-0.400827
50755	-9.692229	-0.115168	2.486399	-0.365969	-0.188196	0.185574	0.681353	0.326803	0.517627	-0.401273
50756	-9.661562	0.620375	2.492181	0.275876	0.100760	0.180070	0.680876	0.328878	0.517345	-0.400752
50757	-9.852588	0.219360	2.617245	-0.070112	-0.188581	0.381966	0.680754	0.330309	0.517658	-0.399375
50758	-10.107746	-0.762795	2.814928	-0.912021	-0.796498	0.637472	0.680949	0.331703	0.517782	-0.397723
50759	-9.646889	-1.615034	3.739190	-1.227739	-2.114026	0.369439	0.681720	0.333158	0.517290	-0.395823
50760	-10.339725	-2.495702	4.420402	-1.844730	-3.015302	1.150117	0.681980	0.334590	0.517487	-0.393904
50761	-10.648632	-3.777171	4.203199	-3.162109	-3.378796	1.318882	0.682027	0.336670	0.515607	-0.394514
50762	-9.825553	-4.395422	3.858071	-3.802755	-3.489336	0.390687	0.680234	0.340941	0.512177	-0.398391
50763	-10.227657	-5.109196	2.780243	-5.049530	-2.684180	0.469983	0.676168	0.347384	0.506129	-0.407375
50764	-9.583026	-4.879440	2.046067	-5.113190	-1.858303	-0.313932	0.668855	0.354744	0.498640	-0.422076
50765	-8.827303	-3.209614	1.204842	-3.786629	-0.360003	-1.140831	0.658598	0.362923	0.489856	-0.441109
50766	-8.330805	-0.877708	1.403675	-1.413532	0.353928	-1.445076	0.647136	0.369919	0.480716	-0.461830
50767	-8.297896	1.080043	1.612741	0.625592	0.859143	-1.357465	0.636584	0.373441	0.472086	-0.482118
50768	-8.601178	2.679640	1.123507	2.189964	1.882348	-1.205704	0.627519	0.373324	0.464488	-0.501099
50769	-9.613961	2.685870	1.799604	2.458540	1.646025	-0.111072	0.620792	0.368985	0.458089	-0.518287
50770	-10.555422	2.176483	2.703857	2.283489	1.183531	0.996624	0.616538	0.360914	0.453016	-0.533290
50771	-12.170328	0.808508	3.747091	1.307171	0.802927	2.853921	0.613249	0.350496	0.448536	-0.547626
50772	-12.649454	0.468959	4.248593	1.320074	0.812722	3.448459	0.609702	0.339189	0.444068	-0.562155
50773	-12.078733	-1.636644	3.494655	-0.632399	1.383626	2.775234	0.603740	0.331392	0.436266	-0.579094
50774	-11.390396	-0.699192	2.758521	0.361620	2.214906	1.710866	0.594330	0.330273	0.422902	-0.599037
50775	-11.127042	3.176481	3.274055	4.369099	2.058510	1.200607	0.582696	0.333898	0.403835	-0.621204
50776	-10.394022	5.702002	4.080916	6.883879	1.041459	0.614676	0.573107	0.336703	0.383000	-0.641475
50777	-9.878179	6.537139	4.515609	7.618599	0.386361	0.312054	0.567735	0.336462	0.363695	-0.657416
50778	-9.353336	6.653723	4.340541	7.614061	0.373941	-0.195999	0.567812	0.332892	0.346963	-0.668124
50779	-8.742425	6.774912	4.242859	7.603082	0.357835	-0.735882	0.574182	0.325097	0.333954	-0.673129
50780	-9.436054	6.009753	4.377486	6.882071	1.102348	-0.028849	0.586127	0.313195	0.325282	-0.672722
50781	-9.231061	4.186364	4.231405	5.004379	1.768608	-0.197598	0.602794	0.297652	0.319030	-0.668029
50782	-8.764270	2.410466	4.053181	3.098704	2.215738	-0.619049	0.621426	0.282962	0.312412	-0.660424
50783	-9.640985	1.775002	3.963140	2.332746	3.271007	-0.032767	0.639418	0.272521	0.303088	-0.651932
50784	-10.341320	3.049970	3.807235	3.322358	4.237401	0.273066	0.657322	0.265158	0.291687	-0.642292
50785	-10.093692	4.214053	3.417945	4.082276	4.786411	-0.235673	0.676601	0.258930	0.280134	-0.629834
50786	-9.795352	4.965680	3.147970	4.374585	5.210653	-0.636861	0.697104	0.254717	0.270217	-0.613309
50787	-9.763575	6.362162	2.498647	5.174440	6.173859	-1.031364	0.718858	0.253191	0.261705	-0.592156
50788	-9.002493	7.947585	2.240242	6.183835	6.477638	-1.508060	0.742580	0.252962	0.255893	-0.564893
50789	-8.379834	8.588115	2.960169	6.277136	6.171263	-1.142164	0.768576	0.251722	0.254957	-0.530022
50790	-8.161790	6.802837	4.202999	4.064448	5.051240	-0.406795	0.795047	0.249218	0.259973	-0.488062
50791	-9.991860	2.964298	6.909667	-0.308794	2.955551	2.332522	0.818707	0.248512	0.269294	-0.442087
50792	-10.398869	1.235001	6.375705	-2.552857	2.320646	1.950659	0.839350	0.244767	0.281923	-0.395096
50793	-7.636626	-1.379365	6.487088	-3.309104	-1.144948	-0.324556	0.858057	0.235080	0.294341	-0.349055
50794	-2.772465	-3.644187	10.100002	-0.474930	-7.327690	-1.506186	0.874813	0.220380	0.308924	-0.301166
50795	-1.218996	-4.141076	16.619808	4.134531	-11.647105	2.092998	0.896847	0.184126	0.322824	-0.239891
50796	-11.722165	-0.814452	10.481926	-3.005928	-2.067786	5.504302	0.914878	0.138412	0.334069	-0.179550
50797	-13.001980	3.813502	-4.365080	-10.471173	7.735800	-4.064199	0.926480	0.111755	0.330277	-0.141645
50798	-10.651189	-9.709995	0.198815	-10.811682	-7.471237	-3.896795	0.934877	0.087121	0.326428	-0.108898
50799	-3.878444	-5.955982	-2.237166	-5.773702	-4.708683	-9.729739	0.936462	0.093233	0.326083	-0.089538
50800	-3.420454	-3.359874	3.026388	-1.587843	-3.681312	-5.803884	0.934205	0.108808	0.330027	-0.080647
50801	-3.550861	-1.606334	5.207946	0.068205	-2.747576	-3.917576	0.930081	0.126615	0.336392	-0.075890
50802	-3.880420	-0.990979	8.452422	2.003998	-3.324015	-1.303198	0.926320	0.139464	0.342413	-0.072353
50803	-6.327707	4.107062	11.952205	3.582317	0.329482	3.855521	0.924940	0.142791	0.345785	-0.067309
50804	-6.104664	6.446649	12.526591	4.638201	2.437002	4.619339	0.926627	0.133757	0.346325	-0.059421
50805	-6.394227	3.344454	10.771570	2.618406	0.289021	2.881789	0.929255	0.119948	0.345865	-0.049747
50806	-6.001953	2.009600	10.477689	2.444630	-0.641296	2.164426	0.931407	0.108670	0.344925	-0.041224
50807	-5.925904	2.129790	10.363231	2.410357	-0.308288	2.067650	0.932796	0.102209	0.343889	-0.034438
50808	-6.515683	2.793474	9.959860	1.755945	0.512277	2.274924	0.933606	0.099270	0.343070	-0.028796
50809	-8.089703	3.091089	9.099863	-0.005399	0.976278	2.711376	0.934426	0.097994	0.341604	-0.023481
50810	-10.152383	4.146088	8.975937	-1.638083	1.967637	4.125460	0.935915	0.096199	0.338378	-0.017599
50811	-10.624859	4.645634	9.601142	-1.722491	2.319040	4.962401	0.938030	0.091991	0.333964	-0.010241
50812	-9.417735	2.873380	9.838954	-0.976292	0.633232	4.058070	0.940363	0.085966	0.329125	-0.001966
50813	-7.904090	0.840599	8.461712	-0.939956	-0.995905	1.715738	0.942893	0.080009	0.323270	0.006931
50814	-6.912823	0.165342	8.060932	-0.575746	-1.503309	0.684930	0.945498	0.075665	0.316314	0.015934
50815	-7.050957	0.712739	8.715716	-0.436753	-1.064722	1.361430	0.947946	0.073058	0.308895	0.025408
50816	-7.666569	1.334665	8.447202	-1.271839	-0.504591	1.590714	0.950251	0.070648	0.301297	0.035369
50817	-8.078166	0.953814	7.978887	-2.056189	-0.913035	1.357123	0.952516	0.067523	0.293444	0.045216
50818	-7.677597	0.462307	7.353718	-2.232844	-1.317212	0.507847	0.954693	0.063913	0.285477	0.054573
50819	-7.384421	0.253071	6.884924	-2.392303	-1.463955	-0.110748	0.956791	0.060155	0.277455	0.062849
50820	-6.800921	0.181351	6.353097	-2.333108	-1.416295	-0.913465	0.958897	0.056258	0.269117	0.070190
50821	-6.317947	0.262724	5.953847	-2.275970	-1.232898	-1.522184	0.960676	0.052035	0.261716	0.076806
50822	-6.349888	0.445524	5.397676	-2.721144	-1.021784	-1.989333	0.962172	0.047355	0.255178	0.082863
50823	-6.307709	0.262172	5.369467	-2.768287	-1.183812	-2.091184	0.963420	0.042314	0.249513	0.088173
50824	-6.332338	-0.208852	4.970198	-2.989381	-1.618181	-2.512705	0.964384	0.037777	0.245048	0.092131
50825	-6.224554	-0.592194	4.644046	-3.042889	-1.942958	-2.911346	0.965078	0.033639	0.241890	0.094777
50826	-6.073658	-0.494059	4.285147	-3.126698	-1.778581	-3.289178	0.965410	0.028451	0.240405	0.096852
50827	-6.870061	-0.561007	3.663047	-4.102059	-1.952860	-3.465280	0.965347	0.022791	0.240888	0.097771
50828	-6.664942	-0.953064	4.126400	-3.622123	-2.231800	-3.160207	0.965054	0.015616	0.242642	0.097733
50829	-6.182939	-1.404864	3.848771	-3.227123	-2.496052	-3.618363	0.964356	0.007982	0.246232	0.096560
50830	-6.011531	-1.376047	2.942807	-3.472117	-2.366033	-4.424097	0.963096	-0.000298	0.251953	0.094690
50831	-6.306405	-1.489174	2.674999	-3.765639	-2.441044	-4.427266	0.961117	-0.009704	0.260024	0.092456
50832	-5.962458	-1.882967	1.725644	-3.793802	-2.723488	-5.311479	0.958265	-0.019610	0.270684	0.089851
50833	-5.924603	-1.981562	0.539919	-4.265680	-2.819304	-6.183574	0.954200	-0.028398	0.284963	0.086553
50834	-7.306740	-2.304274	0.369519	-5.308386	-3.277723	-5.351226	0.948816	-0.036296	0.302040	0.084874
50835	-8.726668	-2.254708	0.303682	-6.279695	-3.372677	-4.289498	0.941328	-0.045400	0.322744	0.087612
50836	-8.222594	1.065146	-0.019015	-6.431261	-0.080579	-4.582109	0.929683	-0.060172	0.350343	0.096584
50837	-4.000896	13.534647	0.359504	-6.010128	12.576857	-7.583952	0.907966	-0.098320	0.389057	0.120689
50838	-8.442089	20.973312	-9.379913	-19.450735	14.709041	-11.566325	0.867928	-0.173462	0.432154	0.172785
50839	-9.625375	19.538959	-19.893168	-28.805281	3.006124	-14.853502	0.804233	-0.264794	0.460552	0.266430
50840	-26.222273	-8.798453	-27.018369	-16.558781	-30.890504	6.114263	0.710705	-0.346729	0.489924	0.366948
50841	-32.469906	-29.171515	-17.163691	13.951145	-33.397258	19.885479	0.638371	-0.367043	0.519530	0.433417
50842	-23.861206	-24.994295	1.493990	23.730009	-10.891389	12.824469	0.586148	-0.353938	0.560887	0.465364
50843	-29.450783	-6.490884	6.464581	12.001577	0.977461	18.548403	0.525251	-0.355182	0.608358	0.477344
50844	-34.548486	1.660404	4.502288	8.249283	3.630516	23.862553	0.469074	-0.362910	0.635243	0.494704
50845	-24.954636	-7.222350	3.901861	15.735112	2.782627	11.026322	0.422810	-0.372186	0.646849	0.514096
50846	-15.927832	-3.205789	5.799473	9.882627	6.275210	2.854375	0.387910	-0.382980	0.653754	0.524841
50847	-12.730893	2.510904	6.452049	3.529570	8.180305	1.615925	0.354133	-0.398376	0.650814	0.540673
50848	-12.352078	-11.312396	7.841236	15.600598	8.796281	-5.215629	0.323371	-0.413303	0.648235	0.551727
50849	-11.632687	-13.920415	7.659396	17.249827	9.192851	-7.436124	0.307758	-0.430861	0.651281	0.543578
50850	-14.341365	15.909422	14.230671	-9.132407	17.844766	6.294014	0.299706	-0.442835	0.649384	0.540716
50851	-5.963218	1.172367	7.914171	0.735300	9.179120	-5.969831	0.296017	-0.445690	0.641533	0.549700
50852	-7.224897	2.094866	5.481857	0.632556	7.104657	-3.832565	0.302209	-0.444165	0.641336	0.547791
50853	-7.190653	7.328421	1.393494	-3.699528	3.190369	-0.675512	0.309307	-0.439856	0.643456	0.544813
50854	-7.015571	7.740642	0.227357	-4.039470	2.043818	-0.394999	0.313016	-0.435376	0.644640	0.544893
50855	-7.194330	6.982823	-0.251732	-3.204123	1.571699	-0.440149	0.314739	-0.430862	0.645085	0.546957
50856	-6.106730	5.815001	-0.170657	-2.573096	1.339461	-1.893078	0.316014	-0.426519	0.645575	0.549045
50857	-5.066066	5.439956	-0.259270	-2.639950	0.998663	-2.930935	0.316764	-0.422641	0.646306	0.550748
50858	-4.192406	3.885020	-0.680729	-1.581110	0.338231	-4.288314	0.318044	-0.419243	0.647810	0.550840
50859	-4.849591	4.173195	-0.431209	-1.543731	0.738555	-3.632767	0.319000	-0.417609	0.649834	0.549142
50860	-5.108572	5.263198	0.074627	-2.419480	1.369969	-3.024937	0.319451	-0.417400	0.651159	0.547468
50861	-5.065830	5.227037	0.718703	-2.436215	2.010002	-3.215278	0.319213	-0.418327	0.651378	0.546637
50862	-5.715104	4.994238	1.713562	-1.986214	3.103531	-2.959647	0.319032	-0.419091	0.650915	0.546710
50863	-6.573442	4.601178	3.036829	-1.310461	4.534269	-2.648446	0.319482	-0.418740	0.649970	0.547838
50864	-7.988001	4.502553	5.145218	-0.665893	6.843784	-1.858228	0.321523	-0.416930	0.649451	0.548640
50865	-10.252766	3.474688	6.985554	1.258352	8.973450	-0.653921	0.327598	-0.412185	0.650457	0.547438
50866	-12.169539	2.311073	8.471281	3.284951	10.594269	0.295024	0.339392	-0.404205	0.653686	0.542334
50867	-16.116784	1.354855	8.690429	6.124539	11.127185	3.445124	0.358429	-0.393972	0.657773	0.532588
50868	-20.138820	0.628772	7.715819	8.613233	10.159133	7.159769	0.385991	-0.381679	0.661604	0.517312
50869	-22.433198	-0.893665	6.507310	10.687489	8.188305	9.292931	0.420067	-0.367747	0.664057	0.497327
50870	-23.029823	-3.212986	4.270394	12.125904	4.498136	9.973490	0.457206	-0.352103	0.665266	0.473717
50871	-19.982135	-5.143891	1.846471	11.438903	0.361691	7.449700	0.494934	-0.332591	0.666763	0.447046
50872	-16.618506	-7.090056	-0.621167	10.344727	-3.820705	4.505184	0.533449	-0.306958	0.669225	0.416348
50873	-14.936253	-8.501276	-2.909464	8.817481	-7.606513	3.145928	0.573449	-0.275088	0.670668	0.381689
50874	-14.175786	-9.253113	-4.168494	6.931885	-10.080048	2.594681	0.613018	-0.240994	0.668639	0.345041
50875	-14.361197	-10.273152	-4.899622	5.325424	-12.182547	2.781994	0.651054	-0.209656	0.660433	0.309839
50876	-15.094865	-11.047981	-6.167913	2.846219	-14.293715	3.420656	0.687637	-0.184471	0.645732	0.275965
50877	-15.537322	-9.741053	-7.292233	-1.064932	-14.225412	3.809729	0.722627	-0.165021	0.626209	0.241746
50878	-14.857950	-6.864515	-7.861734	-5.158632	-11.834454	2.941334	0.756339	-0.148133	0.603141	0.205497
50879	-14.017728	-5.725238	-7.322733	-6.956982	-9.981278	1.787729	0.787670	-0.133470	0.577369	0.168546
50880	-12.617009	-6.157701	-6.266757	-7.088570	-9.199536	0.250342	0.815220	-0.122042	0.550732	0.131213
50881	-11.573051	-5.508982	-5.804969	-7.891609	-7.691897	-1.074533	0.838599	-0.112151	0.524979	0.092581
50882	-10.689623	-4.618254	-4.789041	-7.955081	-5.806027	-1.976477	0.857284	-0.103555	0.501480	0.053467
50883	-10.643619	-4.235548	-3.634440	-7.876944	-4.448910	-1.907423	0.871545	-0.096512	0.480494	0.014841
50884	-9.843818	-4.153507	-3.029795	-7.636509	-3.600063	-2.603165	0.881740	-0.090341	0.462401	-0.023624
50885	-9.389911	-4.257266	-2.828740	-7.757587	-3.029382	-3.114001	0.888519	-0.081041	0.447284	-0.062472
50886	-8.674900	-3.820232	-2.307614	-7.329863	-2.011352	-3.701287	0.892397	-0.066822	0.434497	-0.101857
50887	-8.136403	-2.572092	-1.107280	-6.178101	-0.300151	-3.833235	0.893185	-0.050289	0.424182	-0.140576
50888	-7.289924	-1.253105	-0.899599	-5.338297	1.193013	-4.754552	0.891918	-0.032994	0.414903	-0.176777
50889	-6.782737	-0.379033	-0.733724	-4.631112	2.207486	-5.300849	0.888556	-0.015794	0.407734	-0.209697
50890	-6.562253	-0.131640	0.592078	-3.352567	2.426443	-4.684440	0.883442	0.000367	0.402861	-0.239235
50891	-5.847948	0.432158	1.052585	-2.261851	2.702082	-5.009260	0.876543	0.015488	0.400563	-0.266423
50892	-4.894519	0.771364	1.491797	-1.130432	2.533393	-5.444793	0.867748	0.029353	0.402222	-0.290464
50893	-4.299037	-0.483034	1.738507	-1.189128	1.165823	-5.458032	0.857111	0.042130	0.408451	-0.311052
50894	-4.052150	-2.121408	1.582327	-2.016766	-0.198939	-5.417635	0.844172	0.058010	0.418770	-0.329605
50895	-5.300602	-2.738469	0.635083	-3.456786	0.340662	-4.920722	0.828756	0.079949	0.432031	-0.346584
50896	-6.078959	-1.620828	0.387424	-3.019402	1.653486	-4.533124	0.810933	0.108243	0.447148	-0.361566
50897	-7.734732	-0.666766	0.352641	-2.661847	3.012222	-3.163071	0.791133	0.139196	0.464228	-0.373129
50898	-8.288673	-0.429936	0.133287	-2.437744	3.281659	-2.589968	0.770369	0.170851	0.481918	-0.380916
50899	-9.080597	-0.477251	-0.242440	-2.544679	3.462321	-1.797021	0.749721	0.203172	0.498272	-0.385180
50900	-10.135854	-0.422216	-0.239476	-2.399450	3.421367	-0.567620	0.729538	0.237829	0.511816	-0.386337
50901	-10.989137	1.891628	0.792781	0.165976	3.631364	0.755961	0.709957	0.273958	0.521707	-0.385655
50902	-12.257367	5.182899	2.662714	3.913006	3.387056	2.729931	0.691812	0.306325	0.532973	-0.378816
50903	-13.970646	6.626064	2.914180	5.186061	3.204812	4.689249	0.676180	0.333118	0.545687	-0.366113
50904	-15.618084	7.641897	3.745206	6.325669	2.148916	6.668335	0.665115	0.353570	0.558692	-0.347091
50905	-15.948426	6.402868	4.276150	5.436597	0.089771	7.039446	0.658654	0.370061	0.570164	-0.322711
50906	-14.738206	3.174480	4.820944	3.017381	-2.984357	5.433393	0.651497	0.389539	0.578913	-0.297775
50907	-14.882510	2.310965	3.715993	1.523775	-3.453279	5.230795	0.640900	0.414430	0.582289	-0.280062
50908	-15.182926	5.130135	2.326881	2.934235	-1.869131	6.000843	0.627582	0.442562	0.579998	-0.271813
50909	-13.053402	6.800160	1.342273	4.043657	-0.745207	4.381490	0.616553	0.469314	0.572246	-0.268592
50910	-10.537289	6.995832	0.921679	4.295118	-0.434225	2.110297	0.608527	0.492362	0.562996	-0.265162
50911	-8.937614	6.659862	-0.209134	3.653870	0.351212	0.712804	0.604156	0.511585	0.552943	-0.259868
50912	-7.680225	4.150796	-1.125275	1.157829	0.343895	-1.094143	0.602984	0.528342	0.541662	-0.252718
50913	-6.265617	2.013257	-2.240761	-0.951713	0.897883	-2.985090	0.600508	0.546970	0.528439	-0.246912
50914	-6.001933	1.168220	-2.782474	-1.945307	1.120038	-3.481055	0.594524	0.568277	0.513538	-0.244707
50915	-7.090063	1.614120	-3.217834	-2.175297	1.193294	-2.258146	0.585263	0.589758	0.499643	-0.244970
50916	-8.927349	-0.133078	-5.324672	-5.050486	2.213905	-1.000282	0.573674	0.609483	0.487666	-0.248213
50917	-10.016185	-0.327696	-6.454191	-5.892815	2.887377	0.138439	0.562554	0.625079	0.478895	-0.251930
50918	-10.450106	4.611011	-5.246618	-1.427337	1.945470	2.522983	0.557423	0.633947	0.473626	-0.251137
50919	-10.527582	5.896247	-3.986166	-0.228510	0.749557	2.870561	0.564521	0.633154	0.471144	-0.241775
50920	-10.302264	0.468743	-3.530885	-5.025984	-0.025675	-0.140321	0.576599	0.628129	0.470111	-0.228001
50921	-10.097194	-3.911667	-2.729697	-8.666744	-1.232368	-2.879428	0.580601	0.629211	0.468258	-0.218475
50922	-10.232706	-1.903009	-2.155802	-6.964701	-1.675080	-1.960069	0.574569	0.637756	0.464711	-0.217213
50923	-9.839272	2.550859	-1.404555	-2.865880	-1.934061	-0.151646	0.565165	0.648421	0.460050	-0.220211
50924	-9.218068	4.590859	-1.953524	-0.987373	-1.197402	0.553385	0.558892	0.656448	0.454628	-0.223672
50925	-8.592921	4.675232	-2.012516	-0.663375	-0.963425	0.105868	0.558870	0.659426	0.449409	-0.225509
50926	-8.226256	3.601264	-2.273900	-1.510474	-0.558652	-0.690405	0.563048	0.659193	0.443607	-0.227277
50927	-8.342714	2.404999	-2.500748	-2.695624	-0.285423	-1.193609	0.568687	0.657885	0.436873	-0.230054
50928	-8.373384	2.153429	-2.740565	-3.033842	0.084078	-1.265900	0.573794	0.656958	0.429090	-0.234625
50929	-8.590572	2.694619	-2.837864	-2.758500	0.293374	-0.789691	0.577362	0.656848	0.420936	-0.240866
50930	-8.350450	3.457171	-3.234920	-2.080972	0.919015	-0.486939	0.579824	0.657209	0.412609	-0.248265
50931	-8.291556	4.235657	-3.223077	-1.393892	1.077914	-0.118748	0.581486	0.657500	0.405174	-0.255738
50932	-8.292225	4.668952	-3.336233	-1.016415	1.315849	0.133399	0.582228	0.657362	0.399381	-0.263401
50933	-7.677203	5.382381	-2.805221	0.034366	1.024905	-0.079948	0.581701	0.656969	0.395739	-0.270934
50934	-7.211384	5.564256	-1.646037	0.629521	0.045864	-0.578218	0.580713	0.656107	0.394129	-0.277414
50935	-6.631669	5.289796	-0.360302	0.890907	-1.057048	-1.435372	0.579711	0.655034	0.394040	-0.282130
50936	-7.559783	4.994290	0.484600	0.281292	-2.038882	-0.975744	0.578032	0.654186	0.395102	-0.286030
50937	-8.757445	4.309689	0.426151	-0.852326	-2.193444	-0.330625	0.574752	0.653978	0.397077	-0.290351
50938	-9.529179	3.853062	0.940845	-1.503146	-2.855505	-0.008502	0.569445	0.654931	0.399216	-0.295676
50939	-10.134561	3.728024	1.825332	-1.757561	-3.885790	0.274418	0.562273	0.657410	0.400891	-0.301575
50940	-10.294985	3.555421	2.290326	-1.883735	-4.443257	0.216328	0.553337	0.661932	0.401267	-0.307650
50941	-11.461010	2.732940	2.483124	-3.118233	-4.878719	0.744954	0.543731	0.667378	0.399859	-0.314761
50942	-11.626802	1.749241	1.895215	-4.039174	-4.273666	0.543711	0.531609	0.674415	0.395219	-0.326126
50943	-11.541607	1.419641	1.902079	-4.263472	-4.192363	0.340566	0.518379	0.681400	0.389132	-0.339933
50944	-11.396752	0.722319	1.304490	-4.734638	-3.384806	0.098624	0.504091	0.688478	0.380863	-0.356137
50945	-10.890142	-0.540449	1.331912	-5.577743	-2.907781	-0.807613	0.489967	0.695238	0.371101	-0.372641
50946	-10.821195	-2.551688	0.807741	-7.180310	-1.653720	-1.448332	0.475671	0.701898	0.360199	-0.389015
50947	-11.708166	-3.609501	0.074133	-8.233107	-0.431354	-0.750165	0.459028	0.709381	0.346504	-0.407439
50948	-13.060886	-3.488288	0.729718	-8.719655	-0.803993	0.511302	0.440246	0.716630	0.330300	-0.428400
50949	-13.968166	-4.388981	1.289012	-9.825281	-0.469754	1.106694	0.421222	0.721381	0.312173	-0.452471
50950	-14.388338	-5.435073	2.517498	-11.038315	-0.376048	1.180181	0.401219	0.723167	0.293043	-0.479770
50951	-15.661822	-7.561171	3.527106	-13.234373	0.749267	1.979341	0.378715	0.721899	0.272359	-0.511133
50952	-17.300539	-9.515736	4.933771	-15.335113	1.958420	3.413215	0.353463	0.716740	0.248864	-0.547187
50953	-20.508993	-9.949686	5.932114	-16.016091	3.172648	7.149394	0.325455	0.705561	0.221825	-0.589115
50954	-23.271123	-8.480892	5.960998	-13.773202	4.248858	11.173395	0.297451	0.684372	0.190736	-0.637791
50955	-24.086554	-7.502909	6.631113	-11.145501	5.341749	13.131326	0.271122	0.650278	0.155378	-0.692451
50956	-24.896414	-7.940980	6.592643	-7.874696	8.139104	14.607736	0.246049	0.602383	0.119262	-0.749914
50957	-27.821268	-7.132441	4.101545	-0.370096	11.248876	16.882640	0.215861	0.543190	0.083428	-0.807086
50958	-32.139249	-3.086295	0.726465	11.229925	11.030177	18.321123	0.181972	0.466622	0.052412	-0.863946
50959	-34.169811	-0.275930	-1.792362	21.530025	9.404426	14.951212	0.143817	0.367242	0.025513	-0.918585
50960	-33.896667	-2.636446	-2.706426	27.061726	10.382584	7.989665	0.104056	0.256175	0.005931	-0.960995
50961	-27.374251	-5.971658	0.034722	23.596169	10.284987	1.109616	0.061704	0.157319	-0.003332	-0.985613
50962	-25.272777	-13.111809	2.782407	22.723699	15.092518	-1.303359	0.020151	0.078516	0.005163	-0.996696
50963	-25.323955	-5.622409	-30.309953	28.103128	5.371513	-37.567101	-0.007667	0.016920	-0.019405	-0.999639
50964	-18.789260	29.189506	-42.493465	17.994212	-33.449700	-49.375010	-0.023508	-0.015690	-0.064937	-0.997489
50965	-9.742795	20.331033	-14.619354	8.179643	-22.834945	-21.369821	-0.028236	-0.021682	-0.084849	-0.995758
50966	-5.115729	10.131209	2.457139	4.710113	-9.641378	-5.381143	-0.022856	-0.010192	-0.122204	-0.992189
50967	-13.331556	-2.181722	22.068431	13.836367	6.939580	10.921346	-0.022546	-0.006806	-0.121097	-0.992361
50968	1.808054	-0.779664	14.775878	-1.517171	4.358830	4.361152	-0.028754	-0.007298	-0.112700	-0.993186
50969	3.777327	0.884798	4.806933	-3.747499	0.450010	-4.922772	-0.030405	-0.004609	-0.109306	-0.993532
50970	-0.443458	-1.512660	3.760094	0.557646	2.316590	-6.504388	-0.030545	0.002217	-0.119308	-0.992385
50971	-6.449129	5.482852	8.611361	6.035033	-3.480631	0.049529	-0.030538	0.009597	-0.130825	-0.990889
50972	-6.526945	5.657928	10.701062	5.960343	-3.010984	2.209500	-0.031288	0.013196	-0.127996	-0.991193
50973	-4.123000	-0.515092	10.065067	3.926349	2.758686	-0.038321	-0.033869	0.014000	-0.116787	-0.992481
50974	-2.662153	-3.099033	9.222435	2.669024	4.972113	-1.452243	-0.037077	0.014517	-0.110306	-0.993100
50975	-2.931550	-1.189656	8.933058	2.795473	2.960639	-1.255312	-0.040004	0.016027	-0.110093	-0.992987
50976	-4.098679	1.250671	8.769401	3.733273	0.432991	-0.804879	-0.042922	0.017853	-0.108572	-0.993001
50977	-4.267810	1.354387	8.403087	3.867838	0.152858	-1.113517	-0.045734	0.019259	-0.102712	-0.993473
50978	-4.455260	-0.635939	7.059745	4.260022	1.668111	-2.801128	-0.048587	0.020615	-0.095528	-0.994026
50979	-4.056707	-1.120786	5.850336	3.935356	1.843037	-4.063328	-0.051339	0.022575	-0.091162	-0.994256
50980	-4.102298	0.874731	6.264215	3.724214	-0.089021	-3.258576	-0.053053	0.025129	-0.088535	-0.994342
50981	-4.757141	0.707473	7.651133	4.290309	0.216400	-1.861795	-0.053737	0.027912	-0.085243	-0.994518
50982	-5.567854	-0.128733	9.189000	5.062913	1.173522	-0.408195	-0.053809	0.030524	-0.082121	-0.994700
50983	-5.792907	-0.503524	10.811492	5.190916	1.742559	1.174443	-0.053631	0.032365	-0.079221	-0.994887
50984	-5.760562	-1.089528	11.562453	5.150652	2.382109	1.843098	-0.053236	0.032756	-0.075920	-0.995153
50985	-5.603528	-1.429564	12.270076	4.999730	2.782585	2.485993	-0.053247	0.031276	-0.073796	-0.995360
50986	-5.453742	-0.716814	11.970862	4.823898	2.007313	2.281077	-0.052844	0.029688	-0.072427	-0.995530
50987	-6.532969	0.326870	12.557047	5.769238	0.920940	3.084347	-0.051516	0.029329	-0.069790	-0.995799
50988	-7.801138	0.666756	13.513440	6.926543	0.522947	4.175301	-0.048639	0.030310	-0.064204	-0.996290
50989	-7.958813	-0.564274	13.506012	7.151427	1.590846	4.058041	-0.044367	0.032578	-0.056088	-0.996907
50990	-7.570181	-1.760600	13.586973	6.761184	2.683731	4.047107	-0.039427	0.036525	-0.049000	-0.997352
50991	-6.611154	-2.286995	13.292456	5.711642	3.176485	3.711767	-0.034007	0.042068	-0.045211	-0.997512
50992	-4.762955	-1.533405	12.678544	3.673509	2.511844	3.070408	-0.028543	0.049520	-0.046105	-0.997300
50993	-2.209699	0.121965	11.630518	0.948864	1.014569	1.944543	-0.022823	0.056542	-0.052033	-0.996782
50994	1.449202	2.026990	11.316366	-2.871004	-0.579224	1.398305	-0.016298	0.061225	-0.062767	-0.996015
50995	3.681981	3.242520	12.034833	-5.280955	-1.413569	1.977868	-0.007801	0.064150	-0.075216	-0.995071
50996	2.860621	4.096335	10.906404	-4.359577	-2.239389	1.136714	0.002239	0.067055	-0.086185	-0.994017
50997	0.255985	4.184622	10.159526	-1.690703	-2.273327	0.806398	0.014264	0.071619	-0.092454	-0.993036
50998	-1.298824	3.644449	9.233809	-0.055219	-1.758022	0.043168	0.027699	0.077337	-0.095360	-0.992048
50999	-1.392918	2.839294	8.696775	0.032577	-1.026190	-0.615890	0.042137	0.084720	-0.094452	-0.991023
51000	-1.718867	2.231671	8.740545	0.201676	-0.410089	-0.640897	0.056428	0.093732	-0.090924	-0.989830
51001	-1.857019	2.852620	8.181286	0.386704	-1.143861	-1.034295	0.070225	0.103631	-0.086202	-0.988382
51002	-1.376991	3.457801	8.608990	-0.203586	-1.821076	-0.614440	0.084446	0.113437	-0.079751	-0.986732
51003	-0.756873	2.758222	9.007492	-1.092501	-1.338906	-0.521511	0.099512	0.122854	-0.071181	-0.984854
51004	-0.565488	1.516130	9.215534	-1.655212	-0.336849	-0.610144	0.115456	0.131793	-0.062194	-0.982564
51005	-1.401787	0.432834	8.703234	-1.088899	0.678123	-1.080631	0.131688	0.140830	-0.053217	-0.979792
51006	-3.136008	0.014763	8.087509	0.442289	1.370701	-1.259023	0.147449	0.148855	-0.044668	-0.976783
51007	-3.203963	0.101753	7.921361	0.446913	1.194146	-1.363070	0.161810	0.154670	-0.035879	-0.973965
51008	-1.973141	0.539923	7.640949	-0.513295	0.258006	-1.923611	0.174612	0.158413	-0.027519	-0.971421
51009	-0.244552	0.979149	7.405895	-1.839399	-0.888922	-2.623083	0.187164	0.160311	-0.018974	-0.968974
51010	0.626676	1.127780	6.882100	-2.340615	-1.478137	-3.381304	0.200485	0.159989	-0.011417	-0.966477
51011	1.426502	1.616806	6.016468	-2.496808	-2.332022	-4.411509	0.213182	0.159120	-0.004678	-0.963957
51012	0.696911	1.199076	5.365637	-1.768441	-1.725052	-4.851924	0.224468	0.159662	0.003238	-0.961307
51013	-1.888753	0.546684	5.378080	0.166775	-0.108852	-4.089924	0.234971	0.160497	0.010670	-0.958601
51014	-3.194455	0.642925	5.386287	1.296481	0.353535	-3.662557	0.245128	0.161686	0.015184	-0.955792
51015	-3.607924	1.196595	5.723213	1.760930	0.018173	-3.171703	0.254917	0.166090	0.018677	-0.952409
51016	-3.767686	1.924687	6.499221	1.924745	-0.656712	-2.329196	0.264309	0.175180	0.024513	-0.948078
51017	-4.027061	2.511532	7.164820	2.087216	-1.217054	-1.565339	0.274020	0.187832	0.034312	-0.942579
51018	-4.203471	3.036915	7.278163	2.314158	-1.753669	-1.361171	0.284922	0.202667	0.047974	-0.935652
51019	-4.768681	3.880918	6.649223	3.286798	-2.219874	-1.671479	0.298791	0.219127	0.064394	-0.926585
51020	-6.334775	4.174141	6.097629	4.642810	-1.630235	-1.415253	0.316366	0.236484	0.081338	-0.915080
51021	-7.101639	4.317739	5.997873	5.107125	-1.363960	-1.031861	0.336459	0.253844	0.097576	-0.901575
51022	-8.332432	4.502453	6.042381	5.791786	-0.869214	-0.225904	0.358114	0.269611	0.116792	-0.886241
51023	-9.162746	3.213421	6.657472	4.915658	0.197718	0.882807	0.382554	0.282851	0.141261	-0.868155
51024	-9.886149	0.433725	7.633788	2.562697	1.762012	2.291042	0.410887	0.294629	0.170557	-0.845740
51025	-11.025674	-2.543996	8.312576	0.043003	3.323991	3.825926	0.440636	0.306365	0.201603	-0.819351
51026	-11.716031	-4.570074	8.586784	-2.054616	3.818615	4.780836	0.469411	0.316833	0.231771	-0.790919
51027	-12.681446	-6.564165	8.590429	-4.115863	4.293752	5.749848	0.496182	0.325558	0.258454	-0.762244
51028	-11.491021	-9.122478	11.303945	-7.955086	1.391279	6.850264	0.520520	0.328970	0.286201	-0.734116
51029	-8.656829	-9.281863	12.758659	-9.078698	-2.691937	5.485548	0.548746	0.324577	0.314078	-0.703479
51030	-7.307108	-6.720233	12.801609	-6.495921	-5.209558	4.079713	0.580655	0.317052	0.336627	-0.670075
51031	-7.463261	-1.582664	5.322464	-0.938084	-0.164088	-0.559785	0.606203	0.317113	0.352094	-0.638739
51032	-11.905466	1.190485	4.174213	1.766893	2.924947	2.388944	0.629888	0.318388	0.365423	-0.606907
51033	-14.121816	-11.351536	1.442054	-11.461037	5.176625	3.306446	0.649770	0.316937	0.373350	-0.581343
51034	-10.889500	-14.839027	7.045818	-14.548771	-2.347545	3.272161	0.658040	0.322459	0.373420	-0.568824
51035	-6.926250	-9.443162	4.084521	-9.433240	-1.327391	-1.870495	0.657775	0.330839	0.371085	-0.565839
51036	-4.253882	-7.577940	6.188398	-7.277754	-4.188584	-3.232213	0.653570	0.341092	0.365909	-0.567991
51037	-5.550458	0.619396	6.306042	0.618944	-2.682993	-1.851865	0.650618	0.347879	0.362413	-0.569503
51038	-7.611931	1.642971	7.358705	1.492977	-2.514947	0.494461	0.651555	0.346509	0.364336	-0.568038
51039	-7.694120	-0.129718	6.453312	-0.283167	-1.874637	0.049690	0.653766	0.342048	0.367626	-0.566078
51040	-7.366676	1.236249	6.554007	1.157700	-1.944059	-0.136346	0.654789	0.341116	0.368389	-0.564961
51041	-7.789025	4.109626	6.664569	3.961276	-1.473601	0.390792	0.655909	0.342363	0.366914	-0.563866
51042	-7.933059	6.659625	6.664080	6.425898	-1.050059	0.641905	0.659527	0.342009	0.366112	-0.560372
51043	-8.293063	7.356661	6.983304	7.065575	-0.931506	1.181345	0.666680	0.338375	0.366702	-0.553687
51044	-8.441869	7.227044	7.292098	6.923367	-0.907175	1.496909	0.677112	0.331780	0.368467	-0.543759
51045	-8.651730	5.617773	7.495114	5.302881	-0.988122	1.740868	0.689486	0.324510	0.369655	-0.531655
51046	-9.652903	4.826952	7.628360	4.296837	-0.499870	2.675255	0.703035	0.317540	0.368459	-0.518794
51047	-10.305917	5.349158	7.928725	4.550535	0.024883	3.490213	0.717925	0.310027	0.364901	-0.505287
51048	-11.105896	6.077359	8.025858	4.832391	0.972111	4.342409	0.734667	0.299587	0.360482	-0.490475
51049	-11.053835	5.674089	7.876893	4.145510	1.453247	4.226437	0.753350	0.284754	0.355904	-0.474037
51050	-11.297077	3.657655	7.071786	1.721358	1.978143	3.755854	0.773382	0.265214	0.351255	-0.456247
51051	-11.768894	0.885881	6.264163	-1.443033	2.084852	3.305223	0.793511	0.242699	0.344827	-0.438785
51052	-12.489371	-0.759383	5.593979	-3.670509	2.501141	3.152837	0.812260	0.220565	0.335918	-0.422780
51053	-12.647342	-1.346925	5.963974	-4.430092	2.352916	3.308175	0.828748	0.200546	0.325468	-0.408691
51054	-12.491305	-1.666722	6.283503	-4.813772	2.199703	3.235871	0.843251	0.180771	0.315047	-0.396226
51055	-11.678655	-2.392297	5.564413	-5.523403	2.018334	1.955095	0.856256	0.158652	0.304162	-0.386187
51056	-9.674162	-2.972951	3.761246	-5.836669	1.713596	-0.892872	0.867540	0.135741	0.292368	-0.378774
51057	-8.643842	-2.648500	2.959804	-5.503918	1.923972	-2.296685	0.876374	0.115224	0.281221	-0.373641
51058	-8.013712	-3.447978	1.689641	-6.342293	1.684369	-3.821144	0.883325	0.095639	0.271564	-0.369925
51059	-6.762079	-6.057612	0.806999	-7.871301	-0.487153	-5.243603	0.887860	0.078716	0.263450	-0.368920
51060	-6.538220	-6.968932	1.468072	-8.127828	-1.407685	-4.770350	0.889213	0.069876	0.257010	-0.371973
51061	-7.428801	-4.657735	2.294163	-6.734086	0.652966	-3.782041	0.888141	0.069052	0.251825	-0.378182
51062	-7.044054	-3.216524	2.536160	-5.395568	1.468433	-3.885869	0.885431	0.067786	0.250585	-0.385518
51063	-6.619848	-4.810239	2.679872	-6.186680	0.180230	-3.826706	0.881087	0.063004	0.253989	-0.393962
51064	-5.743066	-6.078227	2.920834	-6.443928	-1.175197	-3.850362	0.874826	0.059337	0.259854	-0.404517
51065	-5.075662	-5.487381	3.680014	-5.270506	-1.327481	-3.498130	0.867008	0.061244	0.266369	-0.416646
51066	-4.884446	-3.520492	4.675428	-3.220207	-0.460416	-2.918537	0.858776	0.069173	0.272377	-0.428402
51067	-4.874323	-1.823970	4.996355	-1.717792	0.430665	-2.818954	0.850653	0.080878	0.277792	-0.438953
51068	-4.284820	-1.061506	5.559676	-0.581143	0.130605	-2.738833	0.842371	0.095440	0.283242	-0.448414
51069	-2.706364	-1.389300	6.172766	0.076890	-1.602572	-3.120907	0.834593	0.111006	0.289452	-0.455356
51070	-3.072942	-1.752234	5.504980	-0.629387	-1.450161	-3.463263	0.826003	0.126740	0.299942	-0.460098
51071	-7.823920	-0.687041	4.445540	-1.911708	2.630410	-1.394690	0.816397	0.143354	0.314233	-0.462821
51072	-5.908018	4.083259	5.068916	3.279332	3.212175	-2.317024	0.806861	0.156552	0.333355	-0.461888
51073	-3.808307	10.827939	4.976298	9.931586	5.245057	-4.303429	0.797961	0.159502	0.372381	-0.446262
51074	-10.459189	15.600798	2.375672	10.528504	13.507721	-1.744776	0.793081	0.146999	0.424074	-0.411795
51075	-12.512129	14.614865	-1.769369	6.036217	16.783222	-2.396505	0.794967	0.126157	0.470229	-0.361934
51076	-13.652281	8.333383	-4.026862	-1.558097	13.928788	-1.133938	0.800284	0.105518	0.511223	-0.295064
51077	-15.826426	-1.562142	-9.019716	-12.753876	7.535099	0.871927	0.801319	0.092400	0.547271	-0.223259
51078	-15.154055	-8.828186	-10.138455	-16.841297	-1.216327	1.350479	0.797505	0.093924	0.574164	-0.159684
51079	-13.924898	-8.912253	-4.912197	-11.248292	-5.569506	2.000497	0.789476	0.107007	0.595361	-0.104028
51080	-14.964759	-4.868463	-2.007665	-6.934889	-4.382766	3.754977	0.777782	0.122442	0.614366	-0.051168
51081	-13.560512	-2.164697	-1.890332	-5.099871	-3.348281	2.624050	0.759750	0.128981	0.637254	0.007126
51082	-17.063600	-2.501051	-0.385277	-3.207293	-6.135337	5.975238	0.737440	0.121028	0.660646	0.071279
51083	-22.076762	-6.330418	0.480549	-1.474912	-12.702840	9.256580	0.719984	0.107941	0.672538	0.132909
51084	-22.135397	-12.100687	3.099446	3.385812	-19.095194	6.601145	0.706358	0.093199	0.675664	0.189343
51085	-19.794048	-11.243174	5.502919	7.493505	-17.389672	3.960377	0.693144	0.082841	0.677479	0.231757
51086	-17.243262	-8.195762	8.279904	10.742469	-12.913637	2.466982	0.679625	0.074082	0.681664	0.260684
51087	-14.231946	-4.351767	10.114141	12.084343	-7.473291	1.226351	0.667277	0.067141	0.687845	0.277674
51088	-12.902056	-0.725633	9.095458	10.395964	-3.818120	1.458773	0.656919	0.061949	0.695223	0.285106
51089	-12.588401	0.567610	7.096173	8.372645	-3.008022	1.588486	0.649011	0.058224	0.703032	0.284852
51090	-11.401095	3.786355	5.719246	6.200807	-0.051856	1.958957	0.643113	0.055224	0.710557	0.280116
51091	-10.012792	6.870363	5.362251	4.913779	3.214415	2.092341	0.640353	0.050315	0.715138	0.275671
51092	-7.384910	6.655487	3.893733	3.165059	3.822619	-0.359531	0.638898	0.045761	0.717785	0.272946
51093	-6.324302	6.022130	2.298102	1.678944	3.292293	-1.573441	0.638080	0.045175	0.720591	0.267512
51094	-6.263360	6.416969	1.395970	0.788783	3.431694	-1.448726	0.638044	0.048377	0.723427	0.259257
51095	-6.846527	6.976219	0.166435	-0.300375	3.372536	-0.641855	0.638600	0.053952	0.725867	0.249792
51096	-7.124110	6.951655	-0.512697	-0.776181	3.112504	-0.376064	0.639268	0.060166	0.727505	0.241769
51097	-6.706694	6.165647	-1.039413	-1.095453	2.488547	-1.055866	0.639907	0.066187	0.728324	0.235972
51098	-6.408409	5.394382	-1.575063	-1.443274	1.817751	-1.611452	0.640494	0.072477	0.728957	0.230511
51099	-5.720661	5.306223	-2.371528	-2.249572	1.859080	-2.197655	0.640279	0.078710	0.730295	0.224757
51100	-5.667321	6.262442	-2.600715	-2.553975	2.729868	-1.804922	0.639622	0.084761	0.732110	0.218437
51101	-6.448298	6.519927	-2.340514	-2.111210	2.754551	-1.008009	0.639099	0.089543	0.733645	0.212839
51102	-7.289102	6.311658	-2.408293	-1.927318	2.267485	-0.330533	0.638833	0.093406	0.734831	0.207824
51103	-7.844756	6.384458	-1.947500	-1.327219	2.239063	0.153199	0.638580	0.096449	0.735873	0.203477
51104	-7.653037	5.399915	-1.472459	-0.737666	1.544215	-0.487061	0.638434	0.098508	0.736525	0.200569
51105	-7.281542	3.461150	-1.245176	-0.340374	0.002908	-1.661927	0.637561	0.100298	0.737722	0.198046
51106	-7.746620	2.246400	-0.762166	0.374738	-1.187806	-1.807328	0.635548	0.102813	0.739926	0.194982
51107	-7.726616	2.099684	-0.249354	0.944623	-1.229308	-1.953451	0.632863	0.106138	0.742484	0.192188
51108	-7.802149	1.492818	0.415062	1.717256	-1.726907	-2.240186	0.630113	0.110286	0.744693	0.190332
51109	-8.149984	0.405900	1.379340	2.850985	-2.758103	-2.549508	0.627393	0.115167	0.746336	0.189993
51110	-8.791028	-0.547361	2.026511	3.681084	-3.863269	-2.517988	0.626553	0.120769	0.746209	0.189783
51111	-9.403870	-1.871189	2.553064	4.354248	-5.316973	-2.655733	0.627361	0.124958	0.744938	0.189398
51112	-10.348529	-3.221724	3.517698	5.458356	-6.884448	-2.556313	0.630507	0.128893	0.741849	0.188436
51113	-12.125950	-3.435868	3.811873	5.916172	-7.883168	-1.081992	0.635109	0.133264	0.738245	0.184044
51114	-14.012868	-3.896943	3.186973	5.360269	-9.236201	0.562932	0.641132	0.139236	0.734473	0.173531
51115	-15.241290	-6.957951	1.656136	3.630259	-12.626022	0.714832	0.649057	0.144806	0.730073	0.157318
51116	-16.445669	-10.118620	0.815559	2.196239	-15.887814	0.965838	0.659709	0.150350	0.724316	0.132459
51117	-17.221270	-10.984006	0.558039	0.932679	-16.651388	1.986291	0.670372	0.158639	0.718441	0.096316
51118	-17.926787	-10.827898	0.541577	-0.269042	-16.166856	3.499834	0.680142	0.166427	0.711976	0.052897
51119	-17.892379	-10.975902	0.128757	-1.995169	-15.331486	4.374583	0.689365	0.171802	0.703734	0.004246
51120	-17.735002	-11.178253	-0.694131	-4.168561	-14.015763	5.211615	0.697587	0.176690	0.692459	-0.051505
51121	-19.528449	-9.466211	-1.722376	-5.944095	-10.587546	8.241195	0.702784	0.183617	0.677316	-0.116713
51122	-21.317850	-7.302944	-2.093872	-6.549625	-6.240662	10.915643	0.704884	0.192678	0.656362	-0.187626
51123	-20.080560	-8.006086	-2.538770	-8.019551	-3.931004	10.020088	0.704903	0.198795	0.630674	-0.256598
51124	-17.232722	-8.317743	-4.806651	-10.250251	-0.297459	7.022280	0.699608	0.205658	0.600425	-0.328243
51125	-14.261945	-6.412384	-6.929299	-10.084443	4.604816	3.188500	0.687839	0.216826	0.564146	-0.401999
51126	-13.172871	-3.807761	-6.659098	-7.103891	7.860294	1.126994	0.671765	0.229970	0.522837	-0.471685
51127	-13.947217	-3.355354	-6.115955	-5.468605	9.737029	1.053602	0.653905	0.240956	0.477901	-0.534752
51128	-15.369152	-2.631992	-5.493282	-3.409574	11.632814	1.412067	0.635073	0.247201	0.431302	-0.591230
51129	-15.663892	-1.934553	-3.946409	-1.205875	11.861026	1.244404	0.616626	0.247604	0.386353	-0.639684
51130	-15.100730	-0.832882	-1.963245	1.060679	10.915595	0.776650	0.600500	0.241182	0.346183	-0.679256
51131	-12.934375	0.454762	-1.238419	2.746705	9.528061	-1.409211	0.587794	0.228595	0.312351	-0.710408
51132	-10.992189	-0.019407	0.108017	2.421226	7.712038	-2.365898	0.578584	0.213837	0.284535	-0.733863
51133	-10.716679	-1.142921	1.778588	1.591959	7.000803	-1.582414	0.571557	0.201675	0.259235	-0.751962
51134	-10.223529	0.679371	2.311264	3.417245	6.263628	-2.105793	0.564807	0.193027	0.234139	-0.767406
51135	-7.109654	3.022488	2.116770	4.868669	3.569205	-4.547893	0.560423	0.187677	0.209944	-0.778863
51136	-6.342662	3.735713	2.424605	5.283861	2.698452	-4.826529	0.558833	0.186674	0.186738	-0.786122
51137	-6.276289	4.924097	3.150952	6.229278	2.022178	-4.274617	0.559965	0.189173	0.163609	-0.789864
51138	-5.685821	6.631442	3.563791	7.446727	0.933359	-4.096925	0.565019	0.195104	0.141610	-0.789072
51139	-5.241371	8.282819	3.796902	8.636531	0.122294	-3.823316	0.574737	0.202604	0.124906	-0.782961
51140	-4.223141	10.186615	3.220068	10.109746	-0.790682	-4.416484	0.589169	0.210106	0.116097	-0.771529
51141	-3.047672	10.744745	2.126995	10.510171	-1.068197	-5.613585	0.608563	0.217364	0.116263	-0.754246
51142	-4.079628	8.404391	2.067334	8.348391	0.895861	-5.226800	0.632767	0.222334	0.125810	-0.730989
51143	-5.409464	5.227497	1.867220	5.209121	3.101967	-4.985426	0.660475	0.224073	0.141132	-0.702599
51144	-6.388964	3.273298	1.786951	2.971514	4.423794	-4.683368	0.689847	0.223404	0.157537	-0.670361
51145	-7.644639	0.183205	2.535692	-0.676418	5.108362	-3.621673	0.719222	0.220722	0.175593	-0.634956
51146	-12.160621	-8.274124	5.241979	-10.168657	5.936544	0.436242	0.744797	0.212759	0.199427	-0.600200
51147	-12.503883	-17.965052	2.844003	-20.005169	4.379869	-1.595140	0.762554	0.195300	0.223436	-0.574844
51148	-4.116141	-15.367740	0.954218	-15.654706	-1.627265	-7.310746	0.772760	0.189998	0.233938	-0.558583
51149	-3.296844	-6.391677	11.827343	-5.223799	-6.140589	1.439170	0.777937	0.195520	0.238330	-0.547527
51150	-1.718909	-0.573772	12.542611	0.969034	-6.065149	1.272081	0.782869	0.195011	0.244682	-0.537790
51151	-8.903255	-1.137530	12.027915	-1.562310	-0.666329	5.098370	0.785245	0.187482	0.254284	-0.532523
51152	-13.088527	-1.347311	12.863954	-2.590772	1.898382	8.305951	0.785791	0.180948	0.258859	-0.531773
51153	-15.017219	-0.447369	12.821163	-2.188262	3.764044	9.452349	0.783688	0.179934	0.257898	-0.535673
51154	-15.955044	1.163438	10.609042	-1.377230	6.336721	8.254354	0.778620	0.185070	0.253352	-0.543426
51155	-12.890892	3.381423	7.133367	0.887701	6.715552	3.700492	0.772579	0.195833	0.244964	-0.552055
51156	-8.688523	5.041136	5.881001	3.303523	4.639206	0.338591	0.767676	0.209510	0.235633	-0.557903
51157	-8.603125	5.522793	5.144899	3.555889	4.985399	-0.144085	0.765607	0.220606	0.228937	-0.559255
51158	-7.857280	6.827513	5.639520	4.918717	4.418721	0.007462	0.768238	0.223775	0.226203	-0.555489
51159	-6.598686	5.183875	6.708216	3.740807	2.435820	-0.040927	0.774024	0.218204	0.230229	-0.547968
51160	-6.850011	1.924639	6.820603	0.603526	1.656803	-0.115368	0.780498	0.211989	0.234976	-0.539139
51161	-6.464559	2.345190	8.755300	1.387109	0.442623	1.224744	0.788052	0.206587	0.236266	-0.529598
51162	-5.621317	5.355490	9.458261	4.543366	0.635134	1.531424	0.796905	0.200612	0.235441	-0.518907
51163	-6.228177	6.930497	10.085583	5.825779	1.636255	2.512476	0.808225	0.190110	0.235409	-0.505185
51164	-7.072642	6.270135	11.067951	5.030814	1.904237	3.710519	0.821361	0.175054	0.235085	-0.489344
51165	-7.312968	4.734987	10.943740	3.481442	1.979075	3.588891	0.835230	0.157276	0.233226	-0.472506
51166	-7.052563	3.648061	11.771823	2.767086	1.392538	4.043734	0.848948	0.139597	0.228677	-0.455529
51167	-6.836993	2.505176	11.980710	1.851589	1.086756	4.040821	0.862529	0.120441	0.221763	-0.438588
51168	-7.316420	1.382580	11.636444	0.448423	1.483083	3.913823	0.875581	0.099476	0.212194	-0.422416
51169	-7.913998	0.628609	11.755788	-0.633502	1.987588	4.217151	0.887831	0.076281	0.200611	-0.407054
51170	-7.531549	-0.557527	11.590663	-1.547530	1.633602	3.835611	0.899101	0.049846	0.188084	-0.392118
51171	-6.748905	-2.292372	10.784666	-2.711317	0.729075	2.804648	0.909055	0.021769	0.174487	-0.377755
51172	-5.528015	-3.709002	9.656025	-3.346573	-0.357922	1.421416	0.916971	-0.005107	0.160130	-0.365373
51173	-5.170846	-4.842245	8.801368	-4.207921	-0.859646	0.636551	0.922802	-0.030233	0.144788	-0.355751
51174	-4.967536	-5.324074	7.269724	-4.924264	-0.868561	-0.820698	0.926663	-0.053544	0.127959	-0.349364
51175	-4.794518	-5.532721	5.564798	-5.524632	-0.815618	-2.507242	0.928630	-0.074242	0.109436	-0.346637
51176	-4.230172	-5.892295	3.860035	-5.895691	-1.287762	-4.236880	0.928647	-0.092787	0.090483	-0.347590
51177	-2.797268	-6.203546	2.572782	-5.440320	-2.383755	-5.612180	0.926766	-0.108005	0.072690	-0.352358
51178	-1.797321	-5.200523	1.496094	-4.386459	-2.300627	-6.988245	0.923137	-0.117755	0.057865	-0.361391
51179	-2.017675	-4.181753	1.583256	-3.950916	-1.259408	-7.192313	0.917822	-0.123151	0.047504	-0.374405
51180	-2.167505	-4.343459	2.684086	-4.044523	-0.895748	-6.124301	0.910985	-0.127140	0.041802	-0.390121
51181	-1.909933	-4.825264	3.531409	-4.126229	-1.051689	-5.201113	0.902924	-0.127822	0.040259	-0.408375
51182	-1.422677	-4.640110	2.808206	-3.866400	-1.267875	-5.955003	0.893897	-0.123078	0.042772	-0.428917
51183	-1.642941	-3.601436	0.670020	-3.661761	-0.707085	-8.326694	0.885253	-0.109084	0.047174	-0.449669
51184	-1.745152	-1.738235	1.322090	-2.158633	0.616680	-8.146886	0.877264	-0.085472	0.053623	-0.469283
51185	-3.731399	-0.174178	2.699484	-1.692139	3.225853	-6.989914	0.869153	-0.056630	0.062120	-0.487346
51186	-4.202684	0.357928	3.773538	-1.196515	3.812940	-5.806114	0.859773	-0.029306	0.073771	-0.504469
51187	-4.244480	0.074433	4.585518	-1.183329	3.478369	-4.759197	0.849569	-0.004155	0.091350	-0.519490
51188	-3.158896	-0.503904	3.955326	-1.152985	2.065277	-5.310071	0.838505	0.021219	0.114684	-0.532266
51189	-2.030882	-1.360959	3.471692	-1.406768	0.524557	-5.841775	0.825864	0.047343	0.145855	-0.542617
51190	-4.804083	-2.295196	2.988470	-3.191142	2.446789	-5.220348	0.811993	0.074953	0.180592	-0.549942
51191	-6.893288	-1.865240	4.130723	-2.963336	3.650934	-3.037603	0.796643	0.103904	0.217787	-0.554195
51192	-8.585420	0.648565	3.845589	-0.787509	5.503939	-2.201607	0.778942	0.131968	0.256458	-0.556833
51193	-7.672052	5.222037	5.273056	4.550582	4.870139	-1.480615	0.759907	0.156761	0.298489	-0.555762
51194	-7.900162	8.546714	7.017373	8.646571	4.292266	-0.250810	0.742932	0.172375	0.344406	-0.547470
51195	-9.580654	7.937949	6.191109	8.105992	5.066294	0.271900	0.730569	0.178778	0.393980	-0.528286
51196	-12.474734	5.220599	5.660176	5.602663	5.575228	2.531033	0.721551	0.179855	0.444260	-0.499648
51197	-15.928029	2.443283	4.982575	3.067845	5.886773	5.688846	0.713177	0.182181	0.489461	-0.467564
51198	-19.133592	0.690773	6.493359	2.734160	4.257520	9.756060	0.707374	0.185057	0.528788	-0.430997
51199	-20.999490	-2.928293	5.409623	-0.393821	2.266433	11.942108	0.702701	0.193722	0.558326	-0.396177
51200	-21.079267	-4.142175	4.979873	-1.248435	0.201679	12.197812	0.698268	0.207720	0.579672	-0.365041
51201	-18.595464	-2.676836	4.516580	-0.176543	-0.646012	9.494658	0.694146	0.226429	0.592472	-0.340395
51202	-15.853303	-1.307255	5.285877	1.485788	-1.952014	6.766978	0.691765	0.242890	0.601575	-0.317133
51203	-14.174126	-1.957133	4.506998	0.524052	-2.899712	4.895164	0.690700	0.256730	0.608009	-0.295547
51204	-13.196315	-3.455060	3.065634	-1.556123	-3.645230	3.593920	0.690283	0.268811	0.612191	-0.276535
51205	-12.913013	-4.195359	2.170262	-2.752316	-4.089178	3.022258	0.689647	0.278592	0.616066	-0.259298
51206	-12.642427	-4.004779	1.684373	-2.972458	-4.080944	2.564720	0.689192	0.285794	0.619487	-0.244072
51207	-11.309823	-2.581466	2.055199	-1.589400	-3.654926	1.273674	0.690086	0.288878	0.622712	-0.229261
51208	-9.816573	-2.373251	2.592734	-0.869703	-4.046779	-0.242768	0.693163	0.287182	0.625786	-0.213176
51209	-9.307751	-3.262703	3.442152	-0.696022	-5.393337	-0.893437	0.697744	0.281424	0.628547	-0.197188
51210	-9.152720	-4.667959	4.338726	-0.761283	-7.109230	-1.253245	0.702216	0.274293	0.630301	-0.185408
51211	-9.395144	-4.627322	4.812227	-0.297727	-7.397556	-0.979493	0.705637	0.268567	0.630115	-0.181393
51212	-9.571971	-3.371100	5.639631	1.104869	-6.850819	-0.504842	0.709056	0.263482	0.627805	-0.183516
51213	-9.715708	-2.629291	5.945013	1.719991	-6.313381	-0.126108	0.713304	0.258202	0.623503	-0.189137
51214	-9.558825	-2.649824	5.545236	1.318414	-5.891436	-0.185169	0.717983	0.253335	0.617637	-0.197093
51215	-10.338909	-2.462197	4.855683	0.622966	-5.123938	0.669746	0.722749	0.249656	0.609933	-0.208057
51216	-11.279978	-1.928170	4.587968	0.389159	-4.256605	1.751083	0.728121	0.245849	0.600152	-0.221847
51217	-12.148067	-1.406094	4.593727	0.333344	-3.455538	2.780252	0.734016	0.240948	0.588760	-0.237753
51218	-12.215339	-1.269938	5.060442	0.506716	-3.176269	3.073782	0.741395	0.232748	0.576010	-0.253720
51219	-11.233532	-1.604181	5.134292	0.294755	-3.057635	2.256292	0.749801	0.221842	0.562356	-0.268962
51220	-9.884419	-1.359351	4.685831	0.193031	-2.290560	0.966902	0.757542	0.211921	0.547996	-0.284465
51221	-9.266159	-1.143655	4.969845	0.458836	-1.987734	0.564585	0.764432	0.203129	0.533314	-0.299930
51222	-8.460006	-1.607454	5.833240	0.709263	-2.658289	0.216940	0.771075	0.194809	0.517787	-0.315262
51223	-9.361888	-2.312275	6.268477	0.011794	-2.755083	1.352835	0.777601	0.186762	0.501029	-0.330797
51224	-10.753899	-2.860869	6.187112	-1.125031	-2.119253	2.690007	0.784085	0.178185	0.482643	-0.347155
51225	-11.188083	-3.029030	5.862780	-1.919514	-1.265324	2.969746	0.790509	0.169116	0.462440	-0.364203
51226	-10.924493	-2.144425	5.536257	-1.734003	0.055481	2.497493	0.796105	0.161067	0.440366	-0.382561
51227	-9.515852	-0.341089	5.726855	-0.131219	1.036004	1.248278	0.800742	0.153583	0.417937	-0.400691
51228	-8.322737	1.257600	6.272778	1.532992	1.574980	0.451234	0.804832	0.146014	0.396944	-0.416365
51229	-8.012766	1.731753	7.235210	2.286785	1.554431	0.765044	0.809634	0.135761	0.379071	-0.427044
51230	-8.261508	0.562347	7.287072	1.091318	1.409098	1.071854	0.815653	0.122891	0.362565	-0.433768
51231	-8.268911	-1.996248	7.097585	-1.243802	0.454032	1.185603	0.821768	0.109157	0.346633	-0.438893
51232	-7.720448	-4.195238	6.109281	-3.460832	-0.281136	0.309321	0.826593	0.097991	0.329593	-0.445544
51233	-6.431480	-4.408190	5.091540	-3.806549	-0.433967	-1.325717	0.829348	0.091568	0.311538	-0.454688
51234	-5.534311	-2.847095	4.383748	-2.696009	0.420082	-2.706473	0.830381	0.090864	0.292528	-0.465443
51235	-5.568613	-0.608417	4.758200	-0.894103	1.706588	-2.720204	0.830732	0.092445	0.274681	-0.475278
51236	-6.059548	0.471358	4.594555	-0.375746	2.861033	-2.761404	0.831114	0.090521	0.261180	-0.482535
51237	-7.222546	1.302064	3.322178	-0.615217	4.825480	-3.391524	0.830870	0.084320	0.253776	-0.487998
51238	-8.965132	1.535721	-0.054349	-2.184016	7.730517	-5.546480	0.828481	0.077271	0.249203	-0.495526
51239	-7.553684	0.108188	-0.013304	-2.759869	6.015008	-6.169869	0.825176	0.071002	0.244823	-0.504089
51240	-7.412309	-0.391255	-0.050861	-3.052043	5.777997	-6.291922	0.820884	0.068929	0.241374	-0.512968
51241	-7.618600	0.685368	-0.569209	-2.235362	6.701205	-6.823968	0.816349	0.071340	0.239549	-0.520674
51242	-8.483406	1.511234	-1.538267	-1.981646	8.159413	-7.340115	0.812037	0.076438	0.241792	-0.525633
51243	-9.277485	1.022449	-3.138943	-3.067605	9.212028	-8.170935	0.808441	0.082895	0.248063	-0.527272
51244	-9.342903	-0.078059	-4.835836	-4.543795	9.470875	-9.237504	0.805538	0.090583	0.258841	-0.525267
51245	-6.177130	3.334764	-5.502928	-0.757583	8.719843	-11.526829	0.802454	0.098273	0.279594	-0.517916
51246	-1.426819	22.816614	-2.590646	18.347092	13.038525	-14.542855	0.801159	0.088470	0.332656	-0.489547
51247	-11.504480	27.140154	-11.814145	11.410327	28.713215	-16.924309	0.805772	0.038092	0.414798	-0.420978
51248	-16.267097	13.505989	-17.302598	-9.485529	25.432958	-12.043466	0.811079	-0.023252	0.494245	-0.311981
51249	-26.378771	-11.748625	-22.465805	-32.044185	6.524521	6.335106	0.801600	-0.058550	0.561618	-0.196455
51250	-26.577611	-21.772843	-21.320903	-31.721249	-10.106638	13.053479	0.793672	-0.036123	0.596027	-0.116323
51251	-27.761978	-7.917911	-7.830917	-14.913182	-2.914428	15.914221	0.775071	0.010450	0.629371	-0.055214
51252	-32.383719	5.406993	-3.264759	-7.970105	5.488380	21.687766	0.747392	0.042227	0.662860	0.015465
51253	-41.695754	-10.175374	0.415332	-2.385177	-16.185996	29.808462	0.715556	0.046294	0.689194	0.104154
51254	-30.466914	-22.326624	1.105471	4.159501	-29.176490	13.785686	0.678851	0.059927	0.714135	0.159937
51255	-24.894149	-3.124084	4.922994	8.249732	-10.296071	12.073310	0.644185	0.067794	0.734474	0.202431
51256	-19.010194	1.699345	8.207014	11.376883	-3.635968	7.182761	0.615491	0.056751	0.741805	0.260145
51257	-14.125823	-12.597582	7.465611	14.046039	-13.733334	-4.549823	0.588947	0.045375	0.745483	0.308766
51258	-12.148037	-17.079387	9.026096	17.061200	-15.150112	-9.907042	0.565765	0.048377	0.757692	0.321671
51259	-10.363067	4.010383	9.314567	11.021164	2.694434	-0.785800	0.550266	0.052227	0.769414	0.320129
51260	-6.191949	4.299657	6.574102	7.040205	3.599265	-3.686813	0.545360	0.049210	0.768184	0.331743
51261	-3.000305	-4.437349	1.942929	4.171152	-3.855317	-10.264963	0.545102	0.045666	0.766529	0.336469
51262	-6.600977	5.191691	2.024263	2.880155	2.112508	-1.947234	0.546466	0.040168	0.766412	0.335221
51263	-8.175358	8.478768	2.563368	2.839619	4.277778	1.092741	0.551122	0.033259	0.761080	0.340464
51264	-6.585567	2.867611	1.499704	2.896862	0.118441	-3.072194	0.556813	0.027730	0.754356	0.346608
51265	-5.424119	3.111850	1.415810	2.185229	0.739645	-3.830539	0.561965	0.025480	0.749603	0.348771
51266	-6.805302	4.543800	0.419219	1.235705	0.712859	-1.744382	0.567220	0.024416	0.744602	0.351046
51267	-8.850460	4.037835	-0.080865	1.595423	-0.847804	-0.253631	0.572056	0.023383	0.739839	0.353333
51268	-9.175666	3.113299	0.128615	2.127701	-1.619200	-0.498578	0.574516	0.022044	0.737058	0.355233
51269	-9.043170	1.951121	0.363386	2.673752	-2.332746	-1.261245	0.575211	0.022321	0.736449	0.355354
51270	-9.428815	3.374595	0.382188	2.289459	-1.426924	-0.160809	0.575806	0.024495	0.737359	0.352349
51271	-8.938591	5.103896	-0.005716	1.161558	-0.078829	0.414369	0.577793	0.027700	0.738041	0.347394
51272	-7.881385	6.337739	-0.292984	0.112533	1.227445	0.229697	0.581110	0.030151	0.737867	0.341985
51273	-7.366810	6.222672	-0.763791	-0.458471	1.196360	-0.224514	0.584503	0.030670	0.736980	0.338046
51274	-8.328600	5.307443	-1.141672	-0.207707	-0.047270	0.126734	0.586650	0.030197	0.737133	0.334014
51275	-9.221828	6.752115	-0.150643	0.431735	1.217253	1.544558	0.587337	0.027666	0.738036	0.331016
51276	-8.205710	6.523911	1.552975	1.682544	2.320899	0.389711	0.587445	0.024572	0.738457	0.330130
51277	-7.114524	5.731089	2.338495	2.295978	2.567614	-1.033958	0.587177	0.022582	0.739051	0.329419
51278	-6.774566	5.775579	2.747605	2.547371	2.963669	-1.355218	0.586851	0.023049	0.740390	0.326951
51279	-6.637288	6.255130	2.384362	2.065898	3.252222	-1.209192	0.587235	0.026383	0.741976	0.322383
51280	-5.577325	6.503286	1.544913	0.977952	3.528153	-1.914508	0.588774	0.031818	0.743085	0.316476
51281	-4.376246	6.345202	0.829349	0.089378	3.606228	-2.950639	0.590692	0.037240	0.743464	0.311380
51282	-3.882404	5.480927	0.259106	-0.258731	2.890694	-3.749884	0.592492	0.041394	0.743467	0.307403
51283	-4.216625	4.622113	-0.169947	-0.268706	1.891680	-3.852650	0.594085	0.043911	0.743406	0.304110
51284	-5.098746	4.938572	0.400402	0.425825	2.017602	-3.008649	0.595796	0.045301	0.743328	0.300730
51285	-6.156017	6.414805	1.174828	1.020429	3.104783	-1.461316	0.597178	0.045456	0.743483	0.297566
51286	-8.027413	7.386038	2.480918	2.471908	3.658906	0.465915	0.598876	0.044768	0.743512	0.294166
51287	-9.512531	7.534179	3.699051	3.952563	3.681684	1.665864	0.601230	0.044322	0.743465	0.289512
51288	-11.668925	7.282317	5.035169	5.831791	3.138071	3.252202	0.604439	0.045241	0.743318	0.282994
51289	-14.407842	8.321855	6.820318	7.912279	3.577302	5.933884	0.609648	0.047858	0.742491	0.273397
51290	-17.179714	9.333398	8.118865	9.484384	3.776128	8.733373	0.618109	0.051743	0.739718	0.260925
51291	-19.019486	8.300010	8.073865	9.906817	2.131498	10.014603	0.629202	0.056421	0.735151	0.245915
51292	-19.881359	6.468766	7.834597	9.915747	0.104345	10.190945	0.641845	0.062784	0.729765	0.227015
51293	-19.520652	4.461500	7.692077	9.670070	-1.621761	9.265194	0.655519	0.071594	0.723837	0.203048
51294	-16.602263	1.193557	6.047487	7.658927	-3.920353	5.665360	0.670094	0.084641	0.716694	0.173664
51295	-13.317149	-3.649678	3.525649	4.657802	-7.694054	1.238775	0.685133	0.103957	0.707444	0.138958
51296	-11.222508	-7.154789	1.249826	1.394734	-10.443319	-1.592939	0.699375	0.130362	0.695849	0.098360
51297	-11.828842	-7.535183	-0.428163	-1.603828	-10.711071	-0.901445	0.711982	0.160832	0.681523	0.052358
51298	-14.705479	-5.819777	-1.766531	-4.184056	-9.175052	2.490693	0.723669	0.188773	0.663775	0.008451
51299	-16.558703	-3.880013	-3.885353	-7.158053	-6.436612	4.730004	0.737381	0.209154	0.641635	-0.028771
51300	-15.844402	-2.755420	-5.490656	-9.165173	-3.639669	4.020855	0.753340	0.220541	0.616587	-0.060502
51301	-14.123200	-4.108892	-6.759010	-11.206018	-2.905620	1.494600	0.770237	0.224201	0.590275	-0.089693
51302	-12.235060	-5.261829	-7.886570	-12.719709	-2.036130	-1.239504	0.785084	0.224853	0.564332	-0.120888
51303	-12.492086	-4.239720	-7.761318	-12.650502	-0.014553	-1.206560	0.796069	0.227137	0.538473	-0.157259
51304	-11.590370	-1.444091	-6.855691	-10.369215	3.105714	-1.681360	0.802371	0.230632	0.513631	-0.197973
51305	-8.905150	1.319827	-4.571205	-5.973588	4.804179	-3.246699	0.804214	0.231983	0.492583	-0.238299
51306	-6.142253	2.607121	-2.576092	-2.474732	4.727152	-5.051519	0.803823	0.226976	0.477573	-0.272532
51307	-4.452176	1.237012	-3.417449	-3.037118	4.179758	-7.297726	0.802850	0.218295	0.465695	-0.301508
51308	-3.668155	-0.817179	-2.512257	-3.460048	2.147665	-7.851923	0.799595	0.212834	0.455687	-0.328176
51309	-4.772268	-1.740463	-1.306646	-3.742307	1.343231	-6.392815	0.794166	0.212109	0.446839	-0.353050
51310	-6.483535	-1.539866	-0.992142	-3.922021	2.173336	-4.784923	0.786833	0.215269	0.439244	-0.376321
51311	-6.974831	-0.789152	-0.525340	-3.110207	2.770005	-4.138666	0.777616	0.220386	0.433568	-0.398450
51312	-7.243143	0.188934	0.290655	-1.812471	3.063061	-3.495157	0.767009	0.226092	0.429859	-0.419285
51313	-7.658241	0.796157	1.233336	-0.771419	3.001627	-2.657647	0.755642	0.231234	0.429001	-0.437601
51314	-7.930493	0.498543	2.080343	-0.503107	2.388180	-1.969949	0.744080	0.235327	0.432080	-0.451966
51315	-9.187999	0.296881	2.467917	-0.549350	2.559042	-0.661640	0.732625	0.239355	0.438666	-0.462105
51316	-9.923436	0.983808	2.717906	0.292910	2.925438	0.095788	0.721427	0.243781	0.446575	-0.469771
51317	-9.902305	1.903779	3.615193	1.764543	2.461726	0.461878	0.710865	0.247082	0.457003	-0.474100
51318	-9.746249	1.821665	3.861950	2.088568	1.973098	0.432204	0.701736	0.247941	0.470185	-0.474361
51319	-9.387385	1.001095	3.955828	1.703139	1.205421	0.207820	0.694284	0.246413	0.486013	-0.470151
51320	-9.875069	-0.259841	3.676722	0.675394	0.881543	0.668743	0.688202	0.245089	0.501039	-0.463970
51321	-10.000391	-0.914711	3.997944	0.459839	0.154602	0.984753	0.682005	0.246946	0.513229	-0.458783
51322	-10.294473	-1.214466	4.740009	0.698322	-0.714002	1.541378	0.676825	0.250816	0.522570	-0.453784
51323	-10.349098	-2.529957	4.733433	-0.342305	-1.536179	1.738367	0.672269	0.255517	0.530561	-0.448632
51324	-9.494802	-3.545635	4.941820	-1.022858	-2.693626	1.088590	0.668619	0.260753	0.537056	-0.443313
51325	-8.991850	-4.082466	4.456706	-1.658357	-2.903464	0.492582	0.667024	0.264140	0.542611	-0.436901
51326	-9.099758	-1.918523	3.168540	-0.390585	-0.948217	-0.041698	0.663403	0.272243	0.544467	-0.435127
51327	-10.158632	0.140436	3.271523	1.397424	0.046269	0.768518	0.659327	0.282807	0.544556	-0.434473
51328	-11.448375	0.246582	4.560534	1.999860	-0.855141	2.319529	0.657817	0.289689	0.545598	-0.430905
51329	-11.303651	-1.590730	4.803789	0.436378	-2.084730	2.387379	0.658930	0.292146	0.546934	-0.425824
51330	-9.887896	-3.360496	4.450906	-1.260922	-3.030700	1.054623	0.660452	0.292338	0.548587	-0.421183
51331	-7.539571	-4.179060	4.053777	-2.047650	-3.695482	-1.274967	0.661854	0.290879	0.551642	-0.415968
51332	-6.864258	-3.112257	3.309143	-1.416098	-2.768379	-2.191332	0.664432	0.289837	0.553415	-0.410191
51333	-7.450270	0.189011	1.832927	0.674865	0.165932	-2.169499	0.664309	0.295036	0.552173	-0.408354
51334	-10.069230	2.573652	2.268991	2.769346	1.416365	0.360023	0.663026	0.301742	0.552143	-0.405569
51335	-12.328680	1.137545	2.992114	1.662551	0.444860	2.807927	0.664632	0.304101	0.552498	-0.400665
51336	-12.492241	-0.567498	2.913136	0.053500	-0.353525	3.022272	0.668113	0.302872	0.553023	-0.395044
51337	-11.069016	-0.178762	1.614120	-0.206372	0.650115	1.354004	0.671063	0.301092	0.552989	-0.391435
51338	-9.654344	1.831035	0.871163	1.225387	2.013237	-0.233379	0.671882	0.301607	0.553430	-0.389003
51339	-9.582538	3.272197	1.748770	2.884311	1.960982	-0.147001	0.672337	0.302930	0.554677	-0.385396
51340	-9.382522	2.420068	2.321845	2.428068	0.956788	-0.196653	0.674064	0.303116	0.556822	-0.379088
51341	-9.379745	-0.636585	1.758160	-0.503317	-0.247429	-0.264882	0.675590	0.304317	0.558748	-0.372518
51342	-9.649469	-2.166122	2.216935	-1.618241	-1.500343	0.079146	0.674833	0.308635	0.559557	-0.369109
51343	-9.355020	-1.484663	3.177049	-0.543687	-2.075362	-0.055082	0.673162	0.313475	0.559540	-0.368105
51344	-9.464458	-0.595298	3.486869	0.340233	-1.919454	0.101356	0.671769	0.316272	0.560033	-0.367506
51345	-9.375665	-0.175840	3.379154	0.648919	-1.656647	-0.005185	0.671972	0.316095	0.560751	-0.366191
51346	-8.891317	0.066884	2.940646	0.683869	-1.229356	-0.553725	0.673702	0.313562	0.562050	-0.363186
51347	-9.104158	-0.357928	2.387053	0.021210	-0.959820	-0.443050	0.675569	0.310654	0.563465	-0.360012
51348	-9.219637	-0.021051	2.483782	0.355636	-0.831417	-0.307239	0.676711	0.308094	0.564606	-0.358274
51349	-9.155807	0.236741	2.821096	0.779551	-0.960104	-0.309328	0.677232	0.305816	0.565814	-0.357333
51350	-9.398112	-0.114285	3.057789	0.616418	-1.299160	-0.034151	0.676919	0.304549	0.566559	-0.357829
51351	-9.655134	0.218259	2.948930	0.833917	-0.972976	0.203462	0.675894	0.304208	0.566630	-0.359938
51352	-9.428194	0.671027	2.831793	1.192417	-0.639111	-0.038753	0.674655	0.304403	0.566122	-0.362886
51353	-9.185082	1.106433	2.477114	1.405999	-0.123003	-0.339884	0.673607	0.304725	0.565252	-0.365905
51354	-9.148110	1.084842	2.359923	1.339234	-0.024321	-0.397813	0.672805	0.305248	0.564183	-0.368584
51355	-9.045679	0.823574	2.482866	1.195062	-0.264485	-0.476250	0.672218	0.305962	0.562807	-0.371158
51356	-9.507534	0.930938	2.362371	1.178108	-0.018791	-0.042717	0.671860	0.306486	0.561531	-0.373302
51357	-9.585386	1.371715	2.451818	1.587074	0.171872	0.047549	0.671887	0.306545	0.560338	-0.374992
51358	-9.456879	1.729638	2.464994	1.903154	0.349270	-0.078398	0.672241	0.306266	0.559518	-0.375808
51359	-9.433585	1.934594	2.407784	2.040235	0.520170	-0.112202	0.672952	0.305748	0.558785	-0.376050
51360	-9.427276	2.052616	2.520705	2.184218	0.509116	-0.096174	0.674315	0.304570	0.558328	-0.375240
51361	-9.359170	1.699024	2.684371	1.952055	0.199896	-0.125789	0.676500	0.302833	0.558150	-0.372972
51362	-9.342230	1.186956	2.787330	1.544143	-0.143745	-0.114739	0.678821	0.301475	0.558079	-0.369950
51363	-9.689066	0.977140	2.670100	1.236012	-0.098381	0.208527	0.680858	0.300647	0.557949	-0.367063
51364	-9.663388	1.085125	2.856768	1.393345	-0.198680	0.224180	0.682737	0.300157	0.557697	-0.364350
51365	-9.694623	1.076151	2.920008	1.382054	-0.255330	0.271702	0.684619	0.299506	0.557790	-0.361196
51366	-9.713639	0.980396	2.620758	1.103411	-0.068942	0.235295	0.686757	0.298607	0.558006	-0.357530
51367	-9.711330	0.736750	2.327071	0.701464	0.021724	0.176072	0.688911	0.298063	0.557875	-0.354029
51368	-9.858205	0.583835	2.434734	0.570998	-0.142612	0.341446	0.691102	0.297774	0.557388	-0.350753
51369	-10.104873	0.594586	2.735440	0.664119	-0.350149	0.645837	0.693717	0.297003	0.556733	-0.347266
51370	-10.389923	0.889350	2.780508	0.838320	-0.172569	0.945561	0.696774	0.295171	0.556523	-0.343020
51371	-10.628351	0.419649	2.550200	0.245027	-0.227400	1.120271	0.700136	0.292410	0.557048	-0.337644
51372	-10.777257	-0.267736	2.335400	-0.496378	-0.458231	1.197240	0.703276	0.290154	0.557539	-0.332212
51373	-10.284280	-0.821500	2.078803	-1.057835	-0.692440	0.635464	0.706037	0.289335	0.557390	-0.327282
51374	-10.045317	-1.003742	1.914436	-1.310873	-0.753161	0.350723	0.707581	0.290472	0.556907	-0.323742
51375	-9.940441	-0.622879	1.979915	-1.004650	-0.633054	0.272446	0.708126	0.293184	0.555928	-0.321783
51376	-9.710355	0.171460	2.108997	-0.310568	-0.321245	0.115469	0.708296	0.296074	0.554896	-0.320542
51377	-9.381368	0.248615	1.557232	-0.549282	0.070216	-0.315845	0.708098	0.298131	0.554918	-0.319031
51378	-9.166218	-0.541050	1.071554	-1.434858	-0.106038	-0.680860	0.708119	0.299460	0.555419	-0.316861
51379	-9.073318	-1.264307	0.948843	-2.070420	-0.511591	-0.853038	0.707897	0.301117	0.555912	-0.314917
51380	-9.368415	-1.363034	1.230536	-2.043703	-0.805889	-0.522213	0.707177	0.303341	0.556261	-0.313781
51381	-9.752433	-1.141607	1.602223	-1.722056	-0.964310	-0.061544	0.706117	0.305285	0.556945	-0.313068
51382	-10.103369	-0.924653	1.916143	-1.415981	-1.079245	0.357599	0.705065	0.305893	0.558283	-0.312464
51383	-10.088417	-1.063561	1.985222	-1.449982	-1.244433	0.345915	0.704044	0.305434	0.560046	-0.312059
51384	-9.734662	-0.972058	1.839640	-1.359413	-1.122710	-0.015539	0.702774	0.304742	0.562036	-0.312019
51385	-9.162011	-0.887823	1.545841	-1.322591	-0.905096	-0.617491	0.701214	0.304160	0.564070	-0.312427
51386	-8.819288	-0.978853	1.240324	-1.469287	-0.761756	-1.007173	0.699039	0.304139	0.566081	-0.313683
51387	-8.633754	-1.067761	0.778935	-1.728867	-0.477335	-1.264505	0.695824	0.305163	0.568037	-0.316289
51388	-8.316583	-0.870351	0.486890	-1.633862	-0.160551	-1.599013	0.691874	0.306762	0.570119	-0.319642
51389	-8.271002	-0.602198	0.319371	-1.438542	0.122478	-1.640225	0.687451	0.308325	0.572672	-0.323100
51390	-8.589095	-0.391040	0.271385	-1.258094	0.303677	-1.308366	0.682820	0.310359	0.574974	-0.326862
51391	-8.890324	0.091177	0.595811	-0.633407	0.335731	-0.930877	0.678105	0.312501	0.577300	-0.330518
51392	-9.125008	0.494777	0.749185	-0.156585	0.444162	-0.655758	0.673773	0.313995	0.579667	-0.333801
51393	-9.476345	0.416239	0.638934	-0.229230	0.498172	-0.321579	0.669712	0.314843	0.582215	-0.336728
51394	-9.969114	-0.408731	0.998907	-0.652647	-0.241369	0.190463	0.665738	0.314894	0.585215	-0.339350
51395	-10.886745	-1.296948	1.584800	-1.015223	-1.159949	1.157147	0.661288	0.314252	0.588819	-0.342397
51396	-11.828700	-1.559828	1.916766	-0.969202	-1.504666	2.138034	0.656271	0.313483	0.592470	-0.346432
51397	-11.855148	-1.294036	1.745916	-0.684815	-1.203269	2.160123	0.650324	0.313591	0.595682	-0.351998
51398	-11.377313	-1.006430	1.672703	-0.299422	-1.015480	1.682132	0.642942	0.315193	0.598557	-0.359179
51399	-10.623875	-0.404747	1.707163	0.405965	-0.786309	0.918566	0.634753	0.317948	0.600779	-0.367509
51400	-9.483848	0.595370	1.454471	1.276804	-0.161690	-0.286125	0.626777	0.321294	0.602197	-0.375872
51401	-8.569638	0.826027	0.920397	1.318992	0.306193	-1.260881	0.619244	0.324772	0.603629	-0.383004
51402	-8.645587	0.583146	0.732800	1.125456	0.316440	-1.195529	0.612950	0.327239	0.605735	-0.387675
51403	-9.030204	-0.142603	0.435943	0.457686	0.218972	-0.785133	0.607843	0.328720	0.608152	-0.390667
51404	-8.969034	-0.800156	0.388738	-0.057592	-0.090396	-0.800321	0.602971	0.330295	0.610552	-0.393137
51405	-9.545686	-0.977640	0.745735	0.068266	-0.491372	-0.200967	0.597909	0.332504	0.612874	-0.395386
51406	-10.191147	-0.737470	1.138534	0.576066	-0.741135	0.425372	0.592503	0.336386	0.613817	-0.398765
51407	-10.309662	0.076429	1.343399	1.445240	-0.611750	0.465264	0.587144	0.342218	0.612721	-0.403388
51408	-9.890232	0.861261	1.171054	2.051896	-0.211571	-0.031368	0.582383	0.349512	0.610208	-0.407820
51409	-9.369790	0.720744	0.790261	1.709666	-0.033144	-0.538411	0.578370	0.357331	0.607440	-0.410876
51410	-8.577651	0.126785	0.637906	1.015597	-0.243867	-1.274093	0.575513	0.364188	0.605519	-0.411702
51411	-8.280194	-1.141194	0.298129	-0.339487	-0.510469	-1.471441	0.573668	0.369798	0.604921	-0.410152
51412	-8.309302	-2.232678	-0.079285	-1.521058	-0.659611	-1.369567	0.571262	0.375398	0.605121	-0.408124
51413	-8.384891	-2.071994	-0.210300	-1.437997	-0.568895	-1.312605	0.567897	0.381121	0.606367	-0.405659
51414	-8.641080	-1.821472	-0.233695	-1.201888	-0.565744	-1.079143	0.563996	0.386373	0.608648	-0.402706
51415	-8.368384	-1.051907	-0.366471	-0.545060	-0.278913	-1.392818	0.559121	0.392070	0.611577	-0.399547
51416	-7.837930	-0.573650	-0.013107	0.010530	-0.552989	-1.973387	0.553599	0.398101	0.615183	-0.395720
51417	-7.615312	-0.372615	-0.372160	0.074455	-0.282929	-2.184928	0.547651	0.404396	0.619060	-0.391545
51418	-7.393102	-0.535840	-0.793298	-0.218137	-0.090124	-2.361751	0.541008	0.411224	0.623228	-0.387029
51419	-7.675683	-0.539220	-1.252705	-0.330277	0.137364	-2.025176	0.533658	0.418729	0.627531	-0.382206
51420	-8.060612	-0.798002	-1.253776	-0.506788	-0.194737	-1.634446	0.525437	0.426779	0.632362	-0.376688
51421	-8.023465	-0.936250	-1.680213	-0.742365	-0.050684	-1.595741	0.516402	0.435371	0.636727	-0.371967
51422	-7.916293	-0.500632	-2.456315	-0.544474	0.619225	-1.550274	0.506663	0.443968	0.641519	-0.366931
51423	-8.224842	0.162371	-2.906147	0.030319	0.951781	-1.140479	0.496479	0.452312	0.647211	-0.360610
51424	-8.033843	0.846308	-2.734421	0.770567	0.800827	-1.357226	0.487012	0.460022	0.653221	-0.352847
51425	-7.735873	1.637115	-2.616728	1.563863	0.765466	-1.668134	0.478400	0.467246	0.659509	-0.343312
51426	-7.482207	1.507039	-2.821379	1.367796	0.720214	-1.823985	0.470911	0.473655	0.666400	-0.331369
51427	-7.092460	1.050696	-3.426398	0.702243	0.968059	-1.957076	0.464050	0.479697	0.673466	-0.317792
51428	-7.421394	0.071272	-3.857593	-0.335928	0.612058	-1.477968	0.456580	0.486261	0.680452	-0.303431
51429	-7.859025	-0.859550	-3.625866	-1.097357	-0.385374	-1.193592	0.448536	0.492955	0.686863	-0.289879
51430	-7.494303	-0.918067	-3.820481	-1.254247	-0.388852	-1.453716	0.440447	0.499261	0.692489	-0.277855
51431	-7.479997	-0.484329	-4.878155	-1.178985	0.355219	-0.955020	0.431371	0.505995	0.697393	-0.267454
51432	-8.090691	0.327503	-5.742331	-0.591320	0.732350	0.068886	0.420986	0.513185	0.702301	-0.257264
51433	-8.846875	1.112745	-5.988613	0.214048	0.459031	0.915806	0.409638	0.520532	0.707163	-0.247312
51434	-8.768588	1.759528	-5.565153	1.008483	0.031690	0.671917	0.398957	0.527196	0.711597	-0.237756
51435	-8.520972	1.650834	-6.073574	0.758058	0.190782	0.751439	0.390072	0.532788	0.715699	-0.227499
51436	-8.387100	1.352817	-7.062690	0.171197	0.577863	1.218288	0.381769	0.537887	0.719765	-0.216491
51437	-8.662020	0.782910	-7.721663	-0.524625	0.353775	1.800079	0.373515	0.542278	0.724175	-0.204919
51438	-8.380435	0.969230	-8.775515	-0.702193	0.972263	2.300585	0.365011	0.546715	0.728108	-0.194238
51439	-8.543504	1.288740	-8.739337	-0.329418	0.587310	2.457771	0.355342	0.551797	0.731405	-0.185197
51440	-8.080083	1.457320	-7.949342	0.058771	0.099720	1.614555	0.346421	0.556311	0.734468	-0.176260
51441	-8.077344	1.606857	-8.063717	0.194952	-0.085096	1.711027	0.338611	0.559929	0.737590	-0.166683
51442	-8.230222	1.785580	-8.982115	0.112476	0.121174	2.498569	0.331599	0.562613	0.741038	-0.156113
51443	-8.716178	2.380560	-9.103799	0.695197	-0.296436	2.991146	0.325433	0.565137	0.744005	-0.145498
51444	-8.671634	2.395701	-8.163984	0.965349	-1.096856	2.247428	0.321102	0.567301	0.746136	-0.135440
51445	-8.484180	2.639646	-7.547450	1.296578	-1.455340	1.681220	0.319336	0.568954	0.747336	-0.125719
51446	-8.006317	2.652728	-8.695672	0.760583	-0.631666	2.260919	0.319228	0.570263	0.747767	-0.117210
51447	-7.831073	1.898423	-9.482742	-0.338354	-0.470183	2.617668	0.318877	0.571733	0.747901	-0.109920
51448	-8.077386	1.134822	-8.445462	-0.734066	-1.577741	1.798886	0.318757	0.573114	0.747555	-0.105336
51449	-7.750345	1.155954	-7.935509	-0.634341	-1.636623	1.200725	0.319413	0.573812	0.746999	-0.103481
51450	-7.412747	1.298865	-8.477916	-0.769536	-1.043546	1.449181	0.320385	0.574235	0.746187	-0.103989
51451	-7.380129	1.410476	-8.289685	-0.614232	-1.043972	1.309689	0.321413	0.574861	0.744934	-0.106309
51452	-7.462233	1.835150	-8.023212	-0.118941	-1.049556	1.246625	0.323314	0.575035	0.743500	-0.109594
51453	-7.271286	2.085843	-8.263105	-0.003546	-0.600511	1.373899	0.326290	0.574297	0.742248	-0.113074
51454	-7.177786	1.896750	-8.621077	-0.334049	-0.273861	1.556269	0.330297	0.572960	0.740897	-0.117018
51455	-7.386544	1.456818	-8.602571	-0.730106	-0.435458	1.587431	0.334828	0.571244	0.739369	-0.122080
51456	-7.744865	1.548844	-8.320913	-0.517268	-0.661813	1.628941	0.339912	0.568965	0.737780	-0.128139
51457	-8.190450	1.518396	-8.463526	-0.550012	-0.715220	2.028001	0.345456	0.566051	0.736162	-0.135322
51458	-8.473186	1.320411	-8.395148	-0.672583	-0.783362	2.143282	0.351064	0.562918	0.734272	-0.143951
51459	-8.359029	1.206900	-7.952904	-0.619323	-0.730691	1.748209	0.356829	0.559537	0.731981	-0.154258
51460	-8.261277	1.418087	-7.784516	-0.350195	-0.397661	1.614010	0.363278	0.555793	0.729177	-0.165602
51461	-8.170480	1.760911	-7.897183	-0.057631	0.173006	1.684293	0.370445	0.551768	0.725868	-0.177308
51462	-7.872242	1.947585	-7.880691	0.097263	0.755259	1.469231	0.378183	0.547584	0.722197	-0.188576
51463	-7.991168	2.118513	-7.613556	0.354154	0.875269	1.386110	0.386169	0.543848	0.717895	-0.199323
51464	-8.730681	1.790465	-7.083610	0.282928	0.250719	1.565208	0.394285	0.540730	0.712786	-0.209966
51465	-9.212318	1.447522	-6.565096	0.150280	-0.194121	1.588730	0.402907	0.537051	0.707341	-0.221158
51466	-8.768861	1.397426	-6.111432	0.169382	0.050518	0.964824	0.412070	0.532666	0.701912	-0.231917
51467	-8.760728	1.257378	-5.949249	0.042867	0.212947	0.848881	0.421543	0.527665	0.696812	-0.241502
51468	-8.547890	1.177632	-5.755512	-0.039454	0.469147	0.548243	0.431112	0.522409	0.691436	-0.251295
51469	-8.137318	0.884733	-5.289943	-0.243036	0.522585	-0.084261	0.440238	0.517554	0.685466	-0.261659
51470	-8.297984	0.698811	-4.875057	-0.306850	0.348347	-0.174843	0.448652	0.513058	0.679128	-0.272523
51471	-8.137170	1.212770	-4.602388	0.223277	0.652410	-0.411414	0.457140	0.507875	0.673147	-0.282770
51472	-8.412505	1.184328	-4.053009	0.350539	0.343092	-0.413083	0.466639	0.501392	0.667982	-0.290956
51473	-8.619826	1.096376	-3.384983	0.440684	-0.061164	-0.498360	0.476964	0.494001	0.662912	-0.298356
51474	-8.464108	1.229385	-3.160183	0.564470	0.126536	-0.713361	0.487703	0.486229	0.657643	-0.305341
51475	-8.110667	1.248035	-2.988309	0.550908	0.372027	-1.105062	0.498084	0.478640	0.652395	-0.311764
51476	-8.109339	0.692157	-2.775714	0.037351	0.243050	-1.217372	0.507576	0.471608	0.646994	-0.318359
51477	-8.121533	0.001111	-2.521012	-0.574086	0.011224	-1.328567	0.515970	0.465317	0.641099	-0.325956
51478	-7.927890	-0.245843	-2.169151	-0.728564	-0.110907	-1.623072	0.523023	0.459881	0.634955	-0.334349
51479	-7.926614	0.042235	-1.937640	-0.406833	-0.001506	-1.662959	0.529016	0.455285	0.628469	-0.343344
51480	-8.079518	0.547293	-1.638637	0.149500	0.078087	-1.552470	0.534767	0.450800	0.622009	-0.352007
