// General information: 
//  MT Manager version: 2021.0.0 
//  XDA version: 2021.0.0 build 5908 rev 109668 built on 2021-04-19
// Device information: 
//  DeviceId: 00B43DFB
//  ProductCode: MTW2-3A7G6
//  Firmware Version: 4.3.5
//  Hardware Version: 1.1.0
// Device settings: 
//  Filter Profile: human(46.1)
//  Option Flags: Orientation Smoother Disabled, Position/Velocity Smoother Disabled, Continuous Zero Rotation Update Disabled, AHS Disabled, ICC Disabled
// Coordinate system: ENU
PacketCounter	Acc_X	Acc_Y	Acc_Z	FreeAcc_E	FreeAcc_N	FreeAcc_U	Quat_q0	Quat_q1	Quat_q2	Quat_q3
50291	1.023756	3.073193	9.396570	0.024664	0.193018	0.124629	0.074959	-0.042589	-0.167441	-0.982105
50292	1.182981	3.165839	9.412550	-0.117945	0.098735	0.187033	0.074807	-0.042557	-0.167849	-0.982049
50293	1.160572	3.413438	9.563351	-0.050198	-0.068149	0.407342	0.074585	-0.042425	-0.168342	-0.981987
50294	1.186928	3.523406	9.617414	-0.058598	-0.151480	0.497087	0.074450	-0.042331	-0.168245	-0.982018
50295	1.005878	3.319132	9.548798	0.081534	0.035294	0.346056	0.074290	-0.042299	-0.167972	-0.982078
50296	1.129535	3.256404	9.536843	-0.051685	0.067103	0.327540	0.074029	-0.042297	-0.167632	-0.982156
50297	1.095776	3.312254	9.565559	-0.008679	0.022281	0.369213	0.073779	-0.042256	-0.167274	-0.982237
50298	1.177125	3.113158	9.503492	-0.125213	0.168180	0.254574	0.073556	-0.042212	-0.166858	-0.982327
50299	1.138509	3.123070	9.405487	-0.093376	0.126351	0.161694	0.073363	-0.042065	-0.166836	-0.982351
50300	1.016063	3.158704	9.501459	0.034042	0.144515	0.250387	0.073216	-0.041846	-0.167162	-0.982316
50301	0.977204	3.236294	9.614646	0.086543	0.121678	0.377879	0.073000	-0.041719	-0.167442	-0.982290
50302	1.068022	3.222493	9.616094	-0.008059	0.127465	0.384277	0.072711	-0.041660	-0.167573	-0.982292
50303	1.106832	3.260416	9.506823	-0.048371	0.051166	0.298204	0.072430	-0.041631	-0.167545	-0.982318
50304	1.112316	3.270555	9.460369	-0.057389	0.024380	0.258482	0.072215	-0.041476	-0.167487	-0.982351
50305	0.997500	3.405195	9.549733	0.079025	-0.058095	0.374468	0.071880	-0.041431	-0.167341	-0.982402
50306	1.111721	3.355838	9.594650	-0.040770	-0.018255	0.412423	0.071549	-0.041353	-0.166818	-0.982518
50307	0.985525	3.088930	9.624158	0.041812	0.248613	0.339830	0.071149	-0.041273	-0.166555	-0.982596
50308	1.055411	3.165674	9.662700	-0.014745	0.180823	0.408381	0.070701	-0.041320	-0.166757	-0.982592
50309	1.117202	3.282203	9.705031	-0.056200	0.084486	0.492569	0.070261	-0.041379	-0.167075	-0.982567
50310	1.140780	3.299909	9.566584	-0.084228	0.025227	0.370758	0.069924	-0.041525	-0.167398	-0.982529
50311	1.105627	3.346866	9.549358	-0.041801	-0.015124	0.366320	0.069585	-0.041682	-0.167507	-0.982528
50312	1.068336	3.279617	9.513152	-0.015043	0.041134	0.306373	0.069288	-0.041857	-0.167474	-0.982547
50313	1.125061	3.105609	9.515601	-0.094556	0.197582	0.257529	0.068948	-0.042035	-0.167485	-0.982562
50314	1.082842	3.140111	9.545896	-0.043191	0.183727	0.292824	0.068568	-0.042260	-0.167701	-0.982542
50315	1.122943	3.351383	9.577048	-0.046076	-0.002228	0.395667	0.068197	-0.042521	-0.167942	-0.982515
50316	1.057052	3.303318	9.607516	0.017590	0.064460	0.401478	0.067913	-0.042784	-0.167988	-0.982516
50317	1.146288	3.259300	9.386397	-0.085911	0.020873	0.188995	0.067652	-0.043051	-0.168013	-0.982518
50318	1.202783	3.335049	9.406180	-0.125717	-0.048421	0.238547	0.067471	-0.043229	-0.168066	-0.982513
50319	1.117242	3.189555	9.381555	-0.063131	0.090863	0.158412	0.067415	-0.043212	-0.168175	-0.982499
50320	0.993317	3.207149	9.434998	0.063737	0.113406	0.201040	0.067312	-0.043160	-0.168667	-0.982424
50321	1.195493	3.342796	9.446602	-0.117031	-0.022758	0.278276	0.067212	-0.043122	-0.169177	-0.982345
50322	1.121102	3.505734	9.487894	-0.019288	-0.142821	0.363088	0.067127	-0.043031	-0.169536	-0.982293
50323	1.180779	3.504261	9.497139	-0.079787	-0.144520	0.377625	0.067082	-0.042960	-0.169260	-0.982347
50324	1.184237	3.169258	9.365187	-0.142382	0.114657	0.143211	0.067064	-0.042785	-0.168826	-0.982430
50325	1.071433	3.090336	9.368738	-0.046234	0.198828	0.108489	0.067059	-0.042547	-0.168903	-0.982428
50326	1.027282	3.264128	9.534864	0.027433	0.103709	0.317069	0.066941	-0.042305	-0.169332	-0.982373
50327	1.063043	3.409083	9.582014	0.010502	-0.010701	0.413097	0.066736	-0.042098	-0.169772	-0.982319
50328	1.265031	3.384359	9.663574	-0.192617	0.020826	0.502414	0.066572	-0.041919	-0.169744	-0.982343
50329	1.070433	3.376186	9.607505	-0.008666	0.031295	0.426823	0.066414	-0.041776	-0.169725	-0.982363
50330	1.169391	3.433681	9.579070	-0.102188	-0.046878	0.429557	0.066280	-0.041707	-0.169432	-0.982426
50331	1.108158	3.334850	9.533932	-0.059698	0.028394	0.348057	0.066157	-0.041665	-0.168900	-0.982527
50332	1.029496	3.326684	9.556099	0.016849	0.043978	0.358031	0.065926	-0.041590	-0.168578	-0.982601
50333	1.162843	3.191459	9.593394	-0.134165	0.161579	0.362120	0.065716	-0.041505	-0.168331	-0.982662
50334	1.143818	3.075834	9.541863	-0.136383	0.254463	0.273584	0.065609	-0.041497	-0.168611	-0.982621
50335	1.088192	3.372643	9.569572	-0.038233	0.002687	0.391925	0.065513	-0.041497	-0.169220	-0.982523
50336	1.078181	3.460850	9.591812	-0.014333	-0.063238	0.441024	0.065474	-0.041573	-0.169332	-0.982503
50337	1.139867	3.323075	9.572309	-0.094843	0.050294	0.383375	0.065421	-0.041633	-0.169094	-0.982545
50338	1.177151	3.245745	9.459537	-0.147431	0.072783	0.255895	0.065417	-0.041730	-0.168659	-0.982615
50339	1.005844	3.151082	9.532893	0.014222	0.198743	0.275790	0.065380	-0.041763	-0.168391	-0.982663
50340	0.930148	3.123646	9.543615	0.086332	0.232844	0.269042	0.065282	-0.041789	-0.168276	-0.982688
50341	1.022126	3.173620	9.514799	0.002310	0.165198	0.268022	0.065102	-0.041943	-0.168306	-0.982688
50342	1.126899	3.328330	9.569373	-0.074001	0.028859	0.381148	0.064907	-0.042053	-0.168378	-0.982684
50343	1.144926	3.399334	9.554696	-0.080310	-0.043470	0.392713	0.064698	-0.042245	-0.168364	-0.982692
50344	1.095900	3.539876	9.514716	-0.012307	-0.186017	0.396465	0.064484	-0.042314	-0.168024	-0.982761
50345	1.016472	3.315010	9.571497	0.039315	0.042795	0.367326	0.064268	-0.042418	-0.167428	-0.982872
50346	0.978833	2.932549	9.594019	0.026261	0.404466	0.258999	0.064006	-0.042567	-0.167273	-0.982909
50347	1.095528	3.135500	9.517454	-0.062990	0.180730	0.265845	0.063718	-0.042746	-0.167863	-0.982820
50348	1.241060	3.560750	9.513818	-0.145265	-0.222847	0.417715	0.063531	-0.042934	-0.168294	-0.982750
50349	1.175644	3.435450	9.441426	-0.100992	-0.120497	0.301672	0.063508	-0.042958	-0.168108	-0.982782
50350	0.921085	2.963813	9.408333	0.082479	0.332403	0.088425	0.063546	-0.042885	-0.167866	-0.982825
50351	0.940122	2.992996	9.495416	0.072862	0.333028	0.181739	0.063361	-0.042956	-0.168139	-0.982787
50352	1.239287	3.347883	9.485686	-0.173275	-0.028576	0.320996	0.063067	-0.043064	-0.168432	-0.982751
50353	1.210423	3.556328	9.448055	-0.118837	-0.231193	0.351503	0.062907	-0.042978	-0.168278	-0.982791
50354	1.129882	3.431359	9.376335	-0.063923	-0.138871	0.234358	0.062774	-0.042774	-0.167583	-0.982927
50355	1.105714	3.076970	9.275844	-0.100398	0.145505	0.020947	0.062642	-0.042403	-0.166791	-0.983086
50356	1.020428	3.158536	9.323569	-0.009429	0.084847	0.083739	0.062412	-0.042010	-0.166633	-0.983145
50357	1.198692	3.336658	9.297327	-0.173702	-0.116191	0.135516	0.062144	-0.041348	-0.166227	-0.983258
50358	1.197831	3.303996	9.189014	-0.200593	-0.132206	0.022525	0.061922	-0.040311	-0.165710	-0.983403
50359	1.091234	3.249426	9.102285	-0.131784	-0.111467	-0.087910	0.061809	-0.038820	-0.165093	-0.983574
50360	1.050917	3.156072	9.066933	-0.138986	-0.047540	-0.155940	0.061702	-0.036852	-0.164303	-0.983788
50361	1.156019	3.188858	8.831195	-0.291300	-0.186106	-0.358824	0.061605	-0.034431	-0.163534	-0.984010
50362	1.351458	3.041876	8.487456	-0.568606	-0.204419	-0.715931	0.061584	-0.031444	-0.162466	-0.984288
50363	1.404076	2.759771	8.170279	-0.729302	-0.074377	-1.106172	0.061625	-0.027587	-0.161332	-0.984588
50364	1.465853	2.482786	7.873332	-0.906761	0.057218	-1.477444	0.061553	-0.022928	-0.160274	-0.984885
50365	1.049267	2.315661	7.938205	-0.597699	0.258263	-1.502835	0.061360	-0.017289	-0.159198	-0.985186
50366	0.484839	2.466429	8.464926	-0.113577	0.327654	-0.989310	0.061060	-0.010922	-0.158427	-0.985420
50367	1.188260	2.730093	8.686984	-0.894539	0.044103	-0.673451	0.060469	-0.004282	-0.157442	-0.985666
50368	1.928352	2.293578	8.097340	-1.799442	0.148645	-1.369685	0.060101	0.003502	-0.155783	-0.985955
50369	1.807322	2.066742	7.489972	-1.824211	0.155331	-2.048419	0.060236	0.012700	-0.155045	-0.985987
50370	0.975779	2.012181	7.474016	-1.158363	0.287683	-2.103279	0.060747	0.023674	-0.155520	-0.985679
50371	-0.683115	2.539587	8.165387	0.318057	0.212341	-1.242958	0.060304	0.035058	-0.156228	-0.985255
50372	0.479943	4.159553	8.566207	-0.887563	-1.367247	-0.418448	0.059247	0.045343	-0.154115	-0.985232
50373	1.556378	2.787189	8.003351	-2.222332	-0.476604	-1.501637	0.058910	0.057629	-0.147260	-0.985659
50374	0.605475	1.831712	7.696254	-1.537920	0.348597	-2.036905	0.058612	0.071311	-0.141689	-0.985598
50375	-0.364180	1.348798	7.421840	-0.811906	0.786360	-2.345903	0.059294	0.087637	-0.139303	-0.984580
50376	-3.973532	0.705794	8.155875	2.246908	2.098597	-1.248534	0.058984	0.104523	-0.141674	-0.982611
50377	-3.030183	3.014378	8.418384	1.177322	-0.103939	-0.446079	0.055493	0.118825	-0.147468	-0.980334
50378	-1.138517	4.269508	9.098225	-1.037185	-1.335197	0.159009	0.053194	0.135282	-0.148232	-0.978211
50379	-2.282909	3.657328	9.020339	-0.295650	-0.638179	0.159754	0.051058	0.152337	-0.146497	-0.976076
50380	-2.035868	3.122147	7.995540	-0.572605	-0.499249	-1.024352	0.049214	0.170973	-0.144402	-0.973393
50381	-4.360867	2.138779	7.811984	1.263376	0.678916	-0.727084	0.048835	0.192431	-0.142185	-0.969726
50382	-7.388434	2.720064	8.492077	3.375482	0.743635	1.238814	0.047225	0.213290	-0.143284	-0.965270
50383	-7.231613	4.380900	9.168012	2.519680	-0.673062	2.382393	0.045181	0.231963	-0.144267	-0.960905
50384	-4.608774	4.449772	8.950242	-0.147169	-1.253523	1.120752	0.044616	0.250989	-0.139113	-0.956902
50385	-3.816694	3.752474	8.110816	-0.817720	-1.067066	-0.189161	0.044658	0.270774	-0.130194	-0.952752
50386	-4.876275	2.958777	6.932026	0.331470	-0.590757	-0.862114	0.046370	0.291913	-0.118845	-0.947899
50387	-7.556839	1.940913	6.432064	2.408807	0.544109	-0.008260	0.049745	0.314154	-0.107422	-0.941962
50388	-9.497619	1.515926	6.595361	3.397959	1.164951	1.281351	0.052840	0.334054	-0.098684	-0.935883
50389	-8.743989	1.611722	7.012063	2.092486	0.897717	1.278743	0.056358	0.354083	-0.090674	-0.929100
50390	-8.791114	1.247739	7.221571	1.504164	1.173131	1.471481	0.058508	0.373863	-0.083791	-0.921836
50391	-7.949256	1.247491	6.464058	0.983698	0.826183	0.427643	0.059516	0.393320	-0.077313	-0.914210
50392	-7.642918	0.686603	6.027816	0.645983	1.174856	-0.147952	0.060689	0.413138	-0.071473	-0.905828
50393	-9.467167	0.926454	6.591480	0.961097	1.218521	1.654827	0.061518	0.432617	-0.068655	-0.896853
50394	-10.425615	1.884778	6.822994	0.921460	0.412272	2.747542	0.062521	0.450449	-0.066959	-0.888090
50395	-10.369331	3.320408	6.610036	0.650724	-1.061822	2.862962	0.063542	0.467046	-0.064786	-0.879564
50396	-9.566944	3.604429	6.202646	0.133565	-1.579384	2.039120	0.066624	0.482977	-0.058435	-0.871137
50397	-9.403963	2.159309	6.016722	-0.256095	-0.334003	1.549822	0.071602	0.498700	-0.047767	-0.862491
50398	-9.334657	0.680115	5.999333	-0.762709	0.917341	1.239500	0.077159	0.514028	-0.035151	-0.853573
50399	-9.549176	0.306427	5.645022	-0.776690	1.120105	1.199700	0.081989	0.529287	-0.023526	-0.844144
50400	-10.139701	1.339449	4.745019	0.012349	0.064264	1.461415	0.087022	0.543796	-0.013953	-0.834577
50401	-10.025831	1.656545	3.410615	0.868039	-0.290521	0.866527	0.093283	0.557750	-0.005494	-0.824732
50402	-10.734310	1.465279	3.512277	0.645677	-0.069823	1.557222	0.099985	0.571586	0.001505	-0.814426
50403	-11.132335	1.202916	4.237837	-0.312186	0.111472	2.154511	0.105653	0.584086	0.006569	-0.804759
50404	-10.290137	0.900842	4.178270	-0.894731	0.213165	1.291451	0.109666	0.595396	0.011300	-0.795832
50405	-9.889050	0.624049	4.117104	-1.284461	0.344299	0.834286	0.112698	0.605583	0.016624	-0.787586
50406	-9.581709	0.528410	3.994866	-1.510771	0.317399	0.466369	0.114978	0.614548	0.021377	-0.780163
50407	-9.995144	1.368058	3.871827	-1.368727	-0.500357	0.894153	0.116371	0.623581	0.025110	-0.772641
50408	-10.970723	2.589792	4.049028	-1.339717	-1.660837	1.972866	0.118539	0.632465	0.029457	-0.764898
50409	-11.163421	2.311433	3.927903	-1.481653	-1.437550	2.066973	0.121742	0.640215	0.035342	-0.757664
50410	-11.130155	1.769539	4.146312	-2.022975	-1.059412	1.976496	0.124611	0.646904	0.040084	-0.751253
50411	-10.344854	1.120916	4.228662	-2.527460	-0.639958	1.112238	0.127216	0.652270	0.044318	-0.745919
50412	-9.798872	1.481841	4.414600	-2.809154	-1.178866	0.599798	0.130359	0.656540	0.048831	-0.741335
50413	-9.418567	1.286131	3.478561	-2.083686	-0.885792	0.053254	0.133448	0.659402	0.053615	-0.737907
50414	-9.549821	1.680403	3.507318	-2.036524	-1.324367	0.208403	0.138985	0.660589	0.060690	-0.735270
50415	-9.526552	1.174111	2.795561	-1.502822	-0.721721	0.044756	0.146574	0.660323	0.069374	-0.733265
50416	-9.619647	1.041106	2.351026	-1.096001	-0.509621	0.071020	0.154819	0.659117	0.078215	-0.731764
50417	-9.690515	0.905182	1.804432	-0.591683	-0.233696	0.065400	0.163558	0.657219	0.086662	-0.730617
50418	-9.731144	0.681839	1.448062	-0.305352	0.091668	0.044049	0.172131	0.655088	0.094083	-0.729643
50419	-9.697674	-0.121185	1.079295	-0.243032	0.964333	-0.105194	0.179674	0.652677	0.100866	-0.729079
50420	-9.766419	-0.264445	0.912744	-0.121993	1.173013	-0.071276	0.184385	0.650625	0.104844	-0.729176
50421	-9.833222	0.205526	1.108947	-0.079275	0.689529	0.060631	0.187138	0.648654	0.106781	-0.729948
50422	-9.661348	0.186816	1.226772	-0.169065	0.654590	-0.095473	0.188565	0.646551	0.107391	-0.731356
50423	-9.485813	0.445286	1.469221	-0.253433	0.321736	-0.212190	0.189140	0.644531	0.106935	-0.733056
50424	-9.572110	0.638449	1.671839	-0.301754	0.105273	-0.079983	0.189151	0.642512	0.105699	-0.735002
50425	-9.485160	0.579201	1.667310	-0.282236	0.178240	-0.170491	0.188997	0.640526	0.104317	-0.736970
50426	-9.457569	0.479217	1.770470	-0.373458	0.254309	-0.189515	0.188475	0.638772	0.102588	-0.738866
50427	-9.337105	0.698361	2.026409	-0.486788	-0.030663	-0.245168	0.187549	0.637016	0.100325	-0.740926
50428	-9.327571	0.973473	2.119354	-0.419391	-0.284672	-0.211347	0.186606	0.635277	0.097966	-0.742970
50429	-9.554273	1.223975	2.205914	-0.330018	-0.477751	0.051942	0.185958	0.633586	0.095897	-0.744844
50430	-9.560281	1.180860	2.263811	-0.359196	-0.425592	0.066982	0.185666	0.631887	0.094092	-0.746588
50431	-9.707567	1.079650	2.370100	-0.440795	-0.316849	0.223498	0.185539	0.630530	0.092505	-0.747964
50432	-9.687970	1.036876	2.456546	-0.506354	-0.279484	0.218852	0.185693	0.629028	0.090896	-0.749386
50433	-9.431284	0.886025	2.425997	-0.542075	-0.137404	-0.050170	0.185595	0.627765	0.089060	-0.750689
50434	-9.505939	1.041757	2.556038	-0.563848	-0.281396	0.065784	0.185158	0.626659	0.087029	-0.751958
50435	-9.529728	1.163964	2.555716	-0.488713	-0.356821	0.103759	0.184851	0.625526	0.085130	-0.753193
50436	-9.477187	1.114904	2.557520	-0.492131	-0.290911	0.050073	0.184750	0.624397	0.083598	-0.754326
50437	-9.574268	1.039195	2.547660	-0.473578	-0.175214	0.136284	0.184724	0.623403	0.082462	-0.755279
50438	-9.503985	1.053544	2.526004	-0.436876	-0.171912	0.066376	0.184730	0.622416	0.081519	-0.756193
50439	-9.487806	0.983506	2.556433	-0.473829	-0.103054	0.050675	0.184610	0.621667	0.080657	-0.756930
50440	-9.540774	1.059629	2.670511	-0.525630	-0.189764	0.135603	0.184195	0.621108	0.079853	-0.757575
50441	-9.465346	1.228044	2.668437	-0.460205	-0.350258	0.081096	0.183738	0.620671	0.079417	-0.758090
50442	-9.489319	1.405283	2.572770	-0.291751	-0.474972	0.103482	0.183455	0.620284	0.079403	-0.758477
50443	-9.466786	1.470440	2.564852	-0.251249	-0.537981	0.087218	0.183615	0.619727	0.079837	-0.758848
50444	-9.294560	1.274662	2.426779	-0.211965	-0.343742	-0.130758	0.184342	0.619138	0.080798	-0.759050
50445	-9.352081	1.014958	2.380111	-0.245103	-0.082394	-0.112707	0.185145	0.618677	0.081872	-0.759116
50446	-9.358853	0.890024	2.379284	-0.280828	0.029473	-0.119312	0.185821	0.618273	0.082763	-0.759183
50447	-9.407157	0.713796	2.222744	-0.191023	0.252481	-0.125353	0.186013	0.618103	0.083031	-0.759245
50448	-9.363408	0.729784	2.265461	-0.229336	0.214870	-0.156625	0.185741	0.618146	0.082754	-0.759307
50449	-9.307993	0.937812	2.327284	-0.217712	-0.006629	-0.174896	0.185192	0.618338	0.082171	-0.759348
50450	-9.272672	1.127860	2.478249	-0.292766	-0.238530	-0.155896	0.184723	0.618509	0.081630	-0.759382
50451	-9.274837	1.195745	2.604799	-0.387652	-0.343860	-0.118934	0.184327	0.618836	0.081284	-0.759249
50452	-9.657866	1.280456	2.698257	-0.385308	-0.388967	0.281606	0.183875	0.619210	0.081209	-0.759061
50453	-9.791609	1.133540	2.830042	-0.533854	-0.285542	0.424651	0.183552	0.618678	0.082021	-0.759486
50454	-9.415869	0.847221	2.653377	-0.515434	-0.045428	-0.007134	0.182676	0.617436	0.083237	-0.760574
50455	-9.749102	0.732894	2.928474	-0.713074	0.000332	0.368149	0.181967	0.616085	0.084506	-0.761700
50456	-9.863415	0.404250	3.434715	-1.232825	0.132751	0.565654	0.180966	0.614440	0.084736	-0.763240
50457	-10.225284	0.510928	4.159885	-1.725112	-0.151683	1.101643	0.179455	0.611853	0.084034	-0.765748
50458	-10.610206	0.406423	4.543406	-1.942619	-0.095477	1.571509	0.177914	0.607746	0.082528	-0.769533
50459	-10.737995	0.309705	5.378128	-2.568885	-0.221836	1.920760	0.176450	0.602228	0.081022	-0.774353
50460	-10.805177	0.023808	5.890413	-2.935119	-0.058142	2.138326	0.174422	0.595202	0.079202	-0.780409
50461	-10.544212	-0.256216	6.168651	-3.110431	0.134943	2.002505	0.171870	0.586465	0.077111	-0.787765
50462	-10.361740	-0.278699	6.372582	-3.066759	0.142079	1.960979	0.168528	0.576328	0.074346	-0.796189
50463	-10.216130	0.135896	6.385973	-2.659647	-0.174405	1.936942	0.164800	0.564907	0.070653	-0.805437
50464	-10.282087	0.493972	6.196306	-2.004223	-0.327812	2.028887	0.160743	0.552240	0.066479	-0.815336
50465	-10.264135	0.773200	6.271969	-1.603830	-0.494360	2.122818	0.156874	0.537951	0.062164	-0.825915
50466	-9.903885	0.346892	6.305718	-1.490706	-0.043151	1.837574	0.153276	0.522365	0.057847	-0.836837
50467	-10.136478	-0.070706	6.542189	-1.281879	0.478553	2.173170	0.148737	0.505684	0.052281	-0.848191
50468	-9.970903	-0.118157	6.741266	-1.052640	0.613958	2.160978	0.143170	0.487681	0.044556	-0.860049
50469	-9.923080	0.209669	6.773900	-0.500088	0.488297	2.182409	0.136886	0.468599	0.034668	-0.872052
50470	-9.646857	0.645862	6.738976	0.019324	0.248588	1.968794	0.130269	0.448425	0.023063	-0.883976
50471	-9.303550	1.006330	6.967955	0.252026	0.036831	1.850465	0.123857	0.427647	0.010904	-0.895354
50472	-8.924692	1.558110	7.297359	0.411133	-0.368274	1.806148	0.117795	0.406099	-0.001533	-0.906204
50473	-8.688842	1.868291	7.595681	0.617432	-0.498885	1.850243	0.112602	0.384306	-0.013143	-0.916219
50474	-8.475666	1.876239	7.874931	0.801429	-0.330059	1.874563	0.108314	0.361543	-0.023962	-0.925733
50475	-7.981193	1.692740	7.891754	0.938416	-0.034914	1.498158	0.104711	0.338312	-0.033842	-0.934578
50476	-7.730737	1.742565	7.793817	1.348603	0.066982	1.218862	0.101547	0.314894	-0.043191	-0.942690
50477	-7.238590	1.663556	7.884538	1.412098	0.232322	0.923115	0.098826	0.291239	-0.052361	-0.950090
50478	-6.846256	1.468452	7.931284	1.539649	0.527967	0.640053	0.096080	0.267661	-0.061612	-0.956729
50479	-6.493211	1.880683	8.137555	1.682069	0.251356	0.627794	0.093255	0.244480	-0.071018	-0.962543
50480	-5.942863	2.229645	8.066103	1.758212	-0.035938	0.298602	0.090679	0.221306	-0.079581	-0.967713
50481	-5.027574	2.189103	7.972711	1.424496	-0.046521	-0.242714	0.088436	0.198491	-0.086909	-0.972228
50482	-4.578142	2.030709	8.096614	1.362384	0.161498	-0.392450	0.086113	0.176396	-0.093062	-0.976119
50483	-4.643466	2.284668	8.479551	1.729265	0.098757	-0.031660	0.083858	0.154652	-0.098148	-0.979499
50484	-3.738174	2.218762	8.182985	1.367644	0.025370	-0.648968	0.081590	0.133021	-0.102150	-0.982453
50485	-2.692024	1.694021	8.037017	0.711948	0.382673	-1.207664	0.079404	0.112443	-0.105496	-0.984846
50486	-2.792863	1.914846	8.292359	1.122161	0.311829	-0.932202	0.076904	0.092684	-0.109558	-0.986657
50487	-2.530245	2.620730	8.274835	1.300904	-0.340617	-0.872610	0.074526	0.073128	-0.113313	-0.988058
50488	-2.004204	2.696930	8.190263	1.133687	-0.454148	-1.045097	0.072162	0.054411	-0.116019	-0.989127
50489	-1.291691	2.817326	8.281966	0.748175	-0.607604	-1.022944	0.069690	0.035882	-0.118140	-0.989898
50490	-0.428098	2.422679	8.347810	0.142728	-0.295437	-1.116519	0.067702	0.018058	-0.119346	-0.990377
50491	-0.240834	2.120447	8.341556	0.210139	0.020943	-1.205472	0.065980	0.000994	-0.122271	-0.990301
50492	0.143143	2.280625	8.307028	0.129440	-0.108050	-1.199151	0.064525	-0.015527	-0.126986	-0.989682
50493	0.170478	2.342200	8.247349	0.373423	-0.080422	-1.246394	0.063494	-0.031053	-0.132513	-0.988658
50494	0.666772	2.204156	8.198719	0.111685	0.098039	-1.298377	0.062652	-0.046090	-0.138787	-0.987263
50495	1.150571	2.424563	8.081246	-0.108450	-0.070283	-1.298792	0.062109	-0.060010	-0.145507	-0.985581
50496	1.809069	2.991865	7.577646	-0.509063	-0.702160	-1.512830	0.062034	-0.073250	-0.151610	-0.983769
50497	2.354014	2.956674	7.023965	-0.928778	-0.795542	-1.931006	0.062299	-0.084293	-0.155860	-0.982202
50498	2.522559	2.942738	6.654396	-0.999053	-0.855776	-2.225073	0.063152	-0.093092	-0.157922	-0.981023
50499	2.382374	2.224127	6.228415	-0.929562	-0.280289	-2.850488	0.064354	-0.099588	-0.158215	-0.980259
50500	2.149684	1.871904	6.145120	-0.692955	0.059941	-3.074479	0.065697	-0.104612	-0.159425	-0.979451
50501	2.447102	2.362660	6.546641	-0.764297	-0.279209	-2.480119	0.066802	-0.108467	-0.160300	-0.978814
50502	2.643898	2.490757	7.132224	-0.771528	-0.213595	-1.848917	0.067625	-0.111085	-0.160466	-0.978436
50503	2.222269	2.377417	7.606230	-0.255928	0.100541	-1.544093	0.067847	-0.112734	-0.161149	-0.978120
50504	2.471143	2.534499	8.224381	-0.326159	0.158084	-0.866224	0.067776	-0.113724	-0.162715	-0.977751
50505	2.874934	2.760782	8.289262	-0.660898	-0.030123	-0.638751	0.068036	-0.113320	-0.165584	-0.977298
50506	2.782837	3.815287	8.853080	-0.293738	-0.746877	0.188959	0.068721	-0.112357	-0.169778	-0.976642
50507	2.761258	4.596530	9.338405	-0.070495	-1.236346	0.884256	0.069675	-0.110423	-0.172367	-0.976341
50508	2.362958	4.305560	9.606313	0.275952	-0.814696	0.941969	0.070599	-0.108238	-0.171853	-0.976610
50509	2.356198	3.142426	9.478374	0.015979	0.187850	0.445491	0.071537	-0.106217	-0.169691	-0.977141
50510	2.068383	2.578899	9.814981	0.220708	0.822314	0.509023	0.072519	-0.104373	-0.168671	-0.977444
50511	2.077108	2.497235	9.932593	0.186432	0.924879	0.594845	0.073587	-0.102867	-0.168821	-0.977498
50512	2.099794	2.828716	9.860379	0.183389	0.595719	0.639549	0.074599	-0.101540	-0.169733	-0.977402
50513	2.119913	3.444750	9.837529	0.250866	0.025519	0.820925	0.075261	-0.100734	-0.170317	-0.977333
50514	2.333490	3.561268	9.864836	0.056902	-0.106971	0.931056	0.075786	-0.100053	-0.169056	-0.977582
50515	2.117004	3.213908	9.873058	0.194912	0.205530	0.780129	0.076139	-0.099472	-0.166951	-0.977975
50516	1.901429	3.111837	9.731152	0.356766	0.230079	0.570659	0.076335	-0.099269	-0.164784	-0.978348
50517	2.063002	3.094119	9.579397	0.172262	0.134157	0.460900	0.076323	-0.099265	-0.162988	-0.978650
50518	2.216359	3.148229	9.560250	0.033483	0.026475	0.493626	0.076232	-0.099398	-0.161608	-0.978873
50519	2.237822	3.205384	9.490110	0.014715	-0.073801	0.450784	0.076256	-0.099488	-0.160957	-0.978969
50520	2.148094	3.236248	9.481338	0.107056	-0.102800	0.432377	0.076195	-0.099485	-0.160846	-0.978992
50521	2.099155	3.188385	9.535642	0.154648	-0.034793	0.457444	0.075923	-0.099516	-0.160865	-0.979007
50522	2.192896	2.981471	9.388642	0.001603	0.102853	0.278594	0.075676	-0.099610	-0.161222	-0.978958
50523	2.188316	2.941612	9.440708	0.008967	0.170014	0.313504	0.075583	-0.099773	-0.161982	-0.978823
50524	2.314660	3.099034	9.496999	-0.074208	0.045358	0.441436	0.075558	-0.099851	-0.162957	-0.978655
50525	2.141623	3.015032	9.449171	0.068138	0.143809	0.333172	0.075491	-0.099688	-0.163560	-0.978576
50526	2.093509	2.857747	9.482690	0.089747	0.318925	0.304680	0.075209	-0.099755	-0.164053	-0.978509
50527	2.239224	2.844178	9.444453	-0.061081	0.310237	0.296773	0.074871	-0.099751	-0.164327	-0.978489
50528	2.148598	2.959132	9.325242	0.025474	0.177702	0.202344	0.074528	-0.099700	-0.164498	-0.978492
50529	2.158989	2.871754	9.316285	-0.005375	0.255574	0.169097	0.074126	-0.099504	-0.164342	-0.978568
50530	2.084346	2.821332	9.357306	0.058953	0.322087	0.175123	0.073539	-0.099223	-0.164165	-0.978671
50531	2.148523	2.907449	9.296729	-0.006247	0.212375	0.159947	0.072856	-0.098866	-0.164142	-0.978762
50532	2.011621	3.169095	9.354950	0.173502	0.004230	0.265742	0.072155	-0.098560	-0.164237	-0.978829
50533	2.157503	3.289021	9.379520	0.049341	-0.116420	0.357459	0.071430	-0.098346	-0.163974	-0.978948
50534	2.302576	3.098977	9.385161	-0.129873	0.038838	0.334646	0.070831	-0.098099	-0.163321	-0.979125
50535	2.134343	2.898073	9.397059	-0.005946	0.243267	0.247122	0.070313	-0.097801	-0.163388	-0.979181
50536	2.190956	3.006872	9.345126	-0.057184	0.125378	0.244844	0.069925	-0.097660	-0.164012	-0.979118
50537	2.144443	2.964616	9.247638	-0.042706	0.154023	0.131195	0.069580	-0.097277	-0.165094	-0.978999
50538	2.057204	2.962555	9.335099	0.045886	0.217938	0.192473	0.069053	-0.096879	-0.166297	-0.978873
50539	2.207162	3.136318	9.300289	-0.086497	0.050601	0.246803	0.068509	-0.096549	-0.167272	-0.978777
50540	2.217801	3.272038	9.299093	-0.083851	-0.058966	0.291146	0.068000	-0.096203	-0.168086	-0.978707
50541	2.124236	3.402207	9.491186	0.051224	-0.090971	0.490666	0.067521	-0.095899	-0.168540	-0.978692
50542	2.189102	3.417522	9.506359	-0.015029	-0.100934	0.523272	0.067061	-0.095601	-0.168592	-0.978744
50543	2.207708	3.340789	9.512243	-0.051981	-0.031660	0.507870	0.066665	-0.095337	-0.168275	-0.978851
50544	2.054853	3.236192	9.397468	0.054180	0.036350	0.336377	0.066366	-0.095026	-0.168114	-0.978930
50545	1.924236	3.027060	9.322429	0.127970	0.218600	0.172767	0.066076	-0.094720	-0.168315	-0.978944
50546	2.045720	3.074327	9.331579	0.012959	0.176822	0.221423	0.065731	-0.094588	-0.169191	-0.978829
50547	2.023532	3.417463	9.473975	0.108464	-0.071942	0.459263	0.065482	-0.094467	-0.170182	-0.978686
50548	2.003198	3.536784	9.548777	0.156834	-0.140749	0.563071	0.065200	-0.094487	-0.170529	-0.978643
50549	2.044906	3.317593	9.482275	0.069698	0.038272	0.438912	0.064999	-0.094507	-0.170348	-0.978685
50550	2.075118	3.032983	9.386113	-0.020187	0.263246	0.263746	0.064778	-0.094602	-0.170131	-0.978729
50551	1.980783	2.919579	9.288654	0.038589	0.342376	0.117460	0.064613	-0.094634	-0.170169	-0.978730
50552	1.960080	3.298547	9.332251	0.127123	0.010645	0.276760	0.064441	-0.094762	-0.170510	-0.978669
50553	2.080415	3.425181	9.396536	0.042822	-0.093461	0.402219	0.064297	-0.094932	-0.170385	-0.978684
50554	1.999696	3.182316	9.300529	0.068534	0.104778	0.217770	0.064170	-0.094930	-0.170278	-0.978711
50555	1.980077	3.078021	9.339699	0.076656	0.219682	0.215810	0.064028	-0.094906	-0.170579	-0.978670
50556	2.068143	3.154594	9.294495	-0.006404	0.132034	0.217210	0.063946	-0.094793	-0.171040	-0.978606
50557	1.921026	3.392335	9.350959	0.181689	-0.045354	0.316658	0.063953	-0.094766	-0.171619	-0.978507
50558	2.191451	3.554432	9.322235	-0.060975	-0.225064	0.399371	0.063979	-0.094784	-0.171676	-0.978494
50559	2.232817	3.669428	9.251645	-0.094679	-0.364938	0.380495	0.064058	-0.094705	-0.171239	-0.978573
50560	2.003213	3.385466	9.297846	0.089114	-0.075410	0.282387	0.064155	-0.094467	-0.170481	-0.978722
50561	1.998872	3.157656	9.249435	0.045680	0.106334	0.162528	0.064171	-0.094246	-0.169904	-0.978842
50562	2.021408	3.068334	9.213296	-0.001533	0.170034	0.104805	0.064111	-0.093916	-0.170043	-0.978854
50563	2.001768	3.315292	9.320231	0.066561	-0.014614	0.279899	0.063980	-0.093574	-0.170566	-0.978804
50564	2.099655	3.493440	9.297551	-0.011791	-0.189272	0.337247	0.063904	-0.093245	-0.170909	-0.978781
50565	2.191750	3.479481	9.336838	-0.106325	-0.167086	0.387698	0.063905	-0.092729	-0.171018	-0.978811
50566	1.906467	3.291579	9.401754	0.141624	0.057072	0.328257	0.064010	-0.092155	-0.170961	-0.978868
50567	1.966438	3.261888	9.429083	0.073342	0.088246	0.355952	0.064094	-0.091761	-0.171063	-0.978882
50568	2.006863	3.176447	9.393425	0.006020	0.151571	0.303178	0.064334	-0.091223	-0.171068	-0.978915
50569	1.911234	3.323462	9.264791	0.094213	-0.022185	0.213538	0.064567	-0.090843	-0.171100	-0.978930
50570	1.992051	3.240308	9.260975	-0.006483	0.044104	0.198882	0.064836	-0.090308	-0.170971	-0.978984
50571	1.891654	3.045229	9.365994	0.067337	0.268472	0.212132	0.065067	-0.089816	-0.170837	-0.979037
50572	1.953268	3.089006	9.436367	0.015789	0.245478	0.303721	0.065391	-0.089313	-0.170998	-0.979034
50573	1.824429	3.352710	9.457817	0.178798	0.022735	0.384715	0.065740	-0.088932	-0.171214	-0.979007
50574	1.934080	3.404232	9.482830	0.077710	-0.027169	0.446297	0.065996	-0.088606	-0.171100	-0.979040
50575	1.959501	3.410141	9.499979	0.051650	-0.036314	0.469059	0.066234	-0.088340	-0.170606	-0.979134
50576	1.947654	3.342732	9.533554	0.052276	0.027020	0.475771	0.066434	-0.087967	-0.169989	-0.979261
50577	1.809616	3.344808	9.497805	0.176830	0.015332	0.416645	0.066579	-0.087716	-0.169604	-0.979340
50578	1.971447	3.397656	9.405893	0.010018	-0.091302	0.380106	0.066766	-0.087486	-0.169175	-0.979423
50579	1.893398	3.465523	9.477935	0.103677	-0.130328	0.453681	0.066856	-0.087222	-0.168816	-0.979502
50580	1.981052	3.328716	9.518251	-0.002678	-0.009112	0.463592	0.067033	-0.086922	-0.168139	-0.979633
50581	1.758256	3.083327	9.445237	0.160249	0.205609	0.274081	0.067227	-0.086681	-0.167746	-0.979708
50582	1.774315	3.163298	9.533926	0.167330	0.156456	0.385250	0.067428	-0.086536	-0.167849	-0.979690
50583	1.948231	3.138091	9.384597	-0.030209	0.112277	0.271972	0.067673	-0.086421	-0.167977	-0.979661
50584	1.856242	3.149701	9.482177	0.073477	0.147178	0.348556	0.067982	-0.086250	-0.168153	-0.979624
50585	1.751167	3.186869	9.497382	0.182076	0.132053	0.354534	0.068292	-0.086123	-0.168360	-0.979578
50586	1.883782	3.196077	9.397566	0.039478	0.075535	0.290309	0.068600	-0.086125	-0.168256	-0.979575
50587	1.875848	3.040427	9.373822	0.018986	0.211748	0.216587	0.069016	-0.086075	-0.168268	-0.979548
50588	1.807086	3.290794	9.551153	0.153905	0.047428	0.448573	0.069394	-0.086101	-0.168342	-0.979506
50589	1.841709	3.287904	9.523895	0.117510	0.032702	0.428987	0.069694	-0.086113	-0.167893	-0.979561
50590	1.826769	3.127537	9.471244	0.100698	0.155109	0.325795	0.069909	-0.086240	-0.167342	-0.979629
50591	1.888302	3.071306	9.473306	0.035109	0.193055	0.321592	0.070173	-0.086340	-0.167073	-0.979647
50592	1.891598	3.009676	9.397262	0.012671	0.222827	0.231964	0.070390	-0.086364	-0.167253	-0.979598
50593	1.761444	3.165435	9.336561	0.157054	0.079548	0.200455	0.070632	-0.086326	-0.167958	-0.979464
50594	1.884385	3.313099	9.367419	0.066708	-0.048784	0.300138	0.070816	-0.086388	-0.168467	-0.979358
50595	1.884182	3.300866	9.504821	0.085291	0.018911	0.423515	0.070987	-0.086381	-0.168817	-0.979285
50596	1.926416	3.303342	9.505879	0.045206	0.017992	0.433410	0.071177	-0.086409	-0.169038	-0.979231
50597	1.897707	3.152936	9.479490	0.044851	0.154576	0.354766	0.071339	-0.086427	-0.169087	-0.979209
50598	1.853671	3.010194	9.390038	0.051834	0.263561	0.217169	0.071524	-0.086481	-0.169290	-0.979156
50599	1.822536	3.125712	9.389354	0.103968	0.165077	0.247810	0.071635	-0.086639	-0.169662	-0.979069
50600	1.916960	3.281176	9.431464	0.047689	0.028874	0.355413	0.071679	-0.086801	-0.169689	-0.979047
50601	1.845148	3.223973	9.395440	0.105455	0.075756	0.289590	0.071680	-0.086891	-0.169473	-0.979077
50602	1.860821	3.074663	9.342260	0.058979	0.187362	0.195082	0.071688	-0.086953	-0.168983	-0.979155
50603	1.869892	3.007981	9.449692	0.055749	0.280106	0.274906	0.071663	-0.087007	-0.168897	-0.979167
50604	1.941562	3.134151	9.468366	0.011708	0.161100	0.346861	0.071649	-0.087118	-0.168958	-0.979148
50605	1.868422	3.140985	9.371175	0.072611	0.130682	0.244815	0.071572	-0.087282	-0.169028	-0.979126
50606	1.974916	3.268511	9.360881	-0.008015	-0.002841	0.297183	0.071511	-0.087436	-0.168979	-0.979126
50607	2.079161	3.230899	9.345668	-0.116313	0.012013	0.291245	0.071441	-0.087477	-0.168675	-0.979180
50608	1.921049	3.067905	9.331297	0.006510	0.173144	0.194588	0.071433	-0.087287	-0.168676	-0.979197
50609	1.799693	3.114358	9.419230	0.141837	0.177578	0.267410	0.071436	-0.087136	-0.169066	-0.979143
50610	1.897693	3.183376	9.392787	0.051400	0.101999	0.284169	0.071354	-0.087068	-0.169546	-0.979072
50611	2.098302	3.246878	9.388676	-0.136163	0.026498	0.339803	0.071211	-0.086994	-0.169766	-0.979051
50612	1.986138	3.255515	9.320069	-0.038718	0.010577	0.257328	0.071146	-0.086780	-0.169919	-0.979048
50613	1.767142	3.249088	9.249541	0.158320	0.016969	0.147635	0.071047	-0.086503	-0.169891	-0.979085
50614	1.824013	3.107159	9.258462	0.074877	0.145384	0.120783	0.070861	-0.086293	-0.169892	-0.979116
50615	1.972937	3.196350	9.488307	-0.028876	0.130812	0.391191	0.070617	-0.085947	-0.170336	-0.979087
50616	1.955550	3.298708	9.554058	0.005333	0.069937	0.482008	0.070372	-0.085506	-0.170833	-0.979057
50617	1.905080	3.313752	9.427737	0.029614	0.025004	0.360365	0.070098	-0.085136	-0.171134	-0.979056
50618	1.911149	3.348690	9.420750	0.021108	-0.006210	0.366520	0.069960	-0.084864	-0.171285	-0.979063
50619	1.821105	3.203237	9.436902	0.080952	0.147062	0.316680	0.069924	-0.084581	-0.171422	-0.979066
50620	1.887693	3.325002	9.427273	0.029931	0.024351	0.360366	0.069891	-0.084388	-0.171426	-0.979085
50621	1.938025	3.453920	9.385309	-0.006920	-0.122247	0.373309	0.069740	-0.084250	-0.170802	-0.979216
50622	1.866285	3.167632	9.363101	0.010799	0.124195	0.245591	0.069550	-0.084173	-0.169476	-0.979467
50623	1.921707	3.147541	9.405093	-0.042542	0.126625	0.288691	0.069219	-0.084017	-0.168332	-0.979701
50624	1.854211	3.344111	9.447885	0.057723	-0.056531	0.379326	0.068787	-0.083787	-0.167301	-0.979928
50625	1.921145	3.213417	9.472580	-0.030855	0.042766	0.372782	0.068387	-0.083510	-0.165985	-0.980203
50626	1.742740	3.006948	9.483339	0.104115	0.236662	0.284130	0.068127	-0.083055	-0.165205	-0.980392
50627	1.636615	3.006413	9.524478	0.204587	0.253786	0.302966	0.068015	-0.082638	-0.165183	-0.980438
50628	1.710222	3.063738	9.457436	0.123851	0.173063	0.272407	0.067968	-0.082221	-0.165602	-0.980406
50629	1.781941	3.321044	9.463521	0.088838	-0.067421	0.373108	0.068057	-0.081939	-0.165774	-0.980394
50630	1.816161	3.269408	9.449499	0.039901	-0.030920	0.349889	0.068102	-0.081660	-0.165333	-0.980489
50631	1.692344	2.864007	9.417832	0.085307	0.335825	0.169398	0.068224	-0.081240	-0.164410	-0.980671
50632	1.579635	2.701005	9.555702	0.181426	0.534776	0.226397	0.068277	-0.080923	-0.164194	-0.980729
50633	1.674246	2.839335	9.591973	0.110991	0.406786	0.321072	0.068284	-0.080720	-0.164383	-0.980714
50634	1.704988	2.922029	9.620716	0.094584	0.339617	0.379423	0.068123	-0.080616	-0.164574	-0.980702
50635	1.780252	3.146575	9.605034	0.051667	0.115975	0.449417	0.067819	-0.080461	-0.164343	-0.980774
50636	1.795090	3.201629	9.564952	0.038112	0.039948	0.432214	0.067416	-0.080434	-0.163632	-0.980923
50637	1.826094	3.032370	9.547732	-0.022458	0.175514	0.368557	0.066993	-0.080420	-0.162959	-0.981065
50638	1.702938	2.920509	9.430139	0.063470	0.242947	0.201994	0.066461	-0.080411	-0.162505	-0.981177
50639	1.791349	3.038101	9.440860	-0.004327	0.121716	0.264712	0.065725	-0.080454	-0.162335	-0.981252
50640	1.886817	3.213480	9.408598	-0.076198	-0.064836	0.306514	0.064966	-0.080503	-0.162230	-0.981315
50641	1.907380	3.221299	9.499532	-0.086075	-0.044308	0.397435	0.064319	-0.080368	-0.162196	-0.981375
50642	1.593267	3.113908	9.516515	0.202931	0.095691	0.323813	0.063694	-0.080291	-0.162372	-0.981393
50643	1.929813	3.143685	9.459671	-0.133202	0.019266	0.339859	0.063101	-0.080240	-0.162502	-0.981414
50644	1.717753	3.142584	9.459740	0.070489	0.044724	0.301966	0.062640	-0.080100	-0.162662	-0.981428
50645	1.614301	3.237491	9.461515	0.181774	-0.032412	0.315170	0.062202	-0.079948	-0.162589	-0.981481
50646	1.645613	3.124719	9.325807	0.110428	0.018593	0.158774	0.061776	-0.079656	-0.162010	-0.981627
50647	1.651287	2.916317	9.165730	0.045088	0.146649	-0.054680	0.061357	-0.079257	-0.161212	-0.981817
50648	1.704139	2.724318	9.050974	-0.059705	0.269113	-0.212160	0.060941	-0.078721	-0.160508	-0.982001
50649	1.668437	2.610086	8.762258	-0.093750	0.272171	-0.523420	0.060545	-0.077821	-0.159947	-0.982189
50650	1.671618	2.403992	8.498518	-0.182290	0.366901	-0.833246	0.059992	-0.076480	-0.159284	-0.982436
50651	1.720716	2.205627	8.315367	-0.313905	0.469815	-1.057600	0.059151	-0.074319	-0.157925	-0.982872
50652	1.914284	2.136087	8.048591	-0.596063	0.396893	-1.298352	0.057732	-0.070863	-0.155524	-0.983594
50653	2.179274	2.061461	7.531120	-0.997870	0.228442	-1.771051	0.056083	-0.065990	-0.152127	-0.984560
50654	1.992334	2.266349	7.312241	-0.899327	-0.070849	-1.953949	0.055087	-0.059737	-0.149168	-0.985467
50655	1.059276	2.559981	7.436050	-0.035451	-0.263446	-1.881824	0.055056	-0.052294	-0.148258	-0.986029
50656	0.151275	2.761532	7.510805	0.762653	-0.349376	-1.853064	0.054897	-0.043035	-0.149807	-0.986252
50657	-0.059259	2.822249	7.605352	0.830556	-0.334377	-1.750055	0.053932	-0.033084	-0.152113	-0.986336
50658	0.453165	2.051418	7.382311	0.051092	0.303919	-2.143627	0.051931	-0.021692	-0.154325	-0.986416
50659	-0.016446	1.822731	7.286266	0.299919	0.564427	-2.329355	0.048602	-0.008592	-0.157244	-0.986326
50660	-0.738005	2.261708	7.367707	0.846459	0.279263	-2.122168	0.044450	0.005659	-0.160629	-0.985997
50661	-0.520779	2.525277	7.336829	0.420581	0.038834	-2.047763	0.040101	0.020369	-0.163689	-0.985486
50662	0.007299	3.294119	7.151161	-0.297287	-0.758680	-1.981982	0.035869	0.037344	-0.166137	-0.984742
50663	-1.225427	3.583446	7.423706	0.612307	-0.822641	-1.542702	0.032359	0.057709	-0.167018	-0.983732
50664	-3.715291	3.726257	8.094665	2.626558	-0.530036	-0.538144	0.027841	0.079223	-0.167679	-0.982259
50665	-3.123789	4.071629	8.802200	1.529106	-0.686755	0.236754	0.023541	0.098730	-0.167010	-0.980717
50666	-1.643818	2.713649	8.367507	-0.232453	0.292893	-0.872322	0.020660	0.118850	-0.164680	-0.978942
50667	-2.076567	2.956317	7.736998	-0.037107	-0.132513	-1.275617	0.017429	0.141201	-0.164684	-0.976032
50668	-4.115701	3.339462	7.543173	1.541172	-0.384151	-0.732547	0.014701	0.166509	-0.165764	-0.971896
50669	-7.727015	3.880607	8.292436	4.161191	-0.326823	1.415635	0.010846	0.191940	-0.166993	-0.967034
50670	-5.720701	5.195081	9.259716	1.314323	-1.440772	2.088115	0.006142	0.213932	-0.164936	-0.962804
50671	-3.178944	3.816886	8.696219	-1.192366	-0.659466	0.107923	0.004249	0.238483	-0.154878	-0.958708
50672	-4.748612	3.023750	7.408222	0.354244	-0.351559	-0.522792	0.001982	0.264702	-0.144537	-0.953435
50673	-6.202734	3.142664	5.698632	1.972194	-0.973402	-1.096822	0.001300	0.292432	-0.135313	-0.946664
50674	-9.432814	2.416864	7.273976	3.284539	0.291965	1.884391	0.002297	0.317959	-0.127637	-0.939471
50675	-7.832386	2.217396	8.714610	0.575790	0.590221	2.082714	0.003102	0.340340	-0.120923	-0.932489
50676	-7.326802	1.921588	8.894790	-0.479739	0.732702	1.836049	0.004888	0.364528	-0.112064	-0.924412
50677	-7.812164	2.102880	6.929132	0.624850	0.035738	0.819692	0.005403	0.388405	-0.103172	-0.915679
50678	-7.088501	2.928894	5.130454	0.842962	-1.304935	-0.717924	0.007151	0.413255	-0.094134	-0.905709
50679	-9.930037	2.587156	6.689171	1.018287	-0.557698	2.379980	0.012139	0.438198	-0.084779	-0.894789
50680	-10.859808	1.780254	8.063087	-0.103525	0.406578	3.821905	0.019168	0.461152	-0.075506	-0.883895
50681	-10.723753	1.118923	8.325182	-1.029413	0.939190	3.736553	0.026263	0.482067	-0.066223	-0.873233
50682	-9.209207	1.685482	7.216388	-1.495503	-0.058486	1.911656	0.033504	0.502684	-0.055071	-0.862063
50683	-9.029684	1.188615	5.897690	-0.945533	0.118965	0.994609	0.042018	0.523202	-0.039322	-0.850264
50684	-9.605454	-0.065316	6.819628	-2.063740	1.197729	1.722081	0.050732	0.542693	-0.023585	-0.838066
50685	-10.704775	-0.107865	6.663953	-2.042416	1.090077	2.581586	0.058880	0.561736	-0.009411	-0.825165
50686	-10.298381	1.451153	5.417700	-1.426643	-0.675449	1.806299	0.066150	0.579244	0.002554	-0.812462
50687	-10.667096	2.827694	5.443367	-1.629236	-2.185611	2.185819	0.074323	0.595556	0.013371	-0.799756
50688	-10.755849	0.363770	6.015132	-2.872066	0.022448	2.176346	0.083151	0.608493	0.024127	-0.788822
50689	-10.849564	-1.622896	6.220573	-3.730842	1.811403	2.096515	0.087778	0.619610	0.029374	-0.779433
50690	-10.717386	-0.449139	6.116823	-3.773313	0.578543	1.930425	0.088253	0.628210	0.030478	-0.772421
50691	-10.102265	2.357169	6.030391	-3.554556	-2.269507	1.420691	0.088493	0.634752	0.031378	-0.766990
50692	-9.448164	2.352203	5.481765	-3.282659	-2.310302	0.614926	0.092302	0.639643	0.037227	-0.762202
50693	-9.600810	1.611557	5.579448	-3.573215	-1.710096	0.685324	0.098801	0.643340	0.046304	-0.757765
50694	-9.358842	0.791971	5.041292	-3.313062	-0.985261	0.270965	0.107544	0.645647	0.057944	-0.753802
50695	-9.587363	0.898115	4.454478	-2.717427	-1.102421	0.383617	0.118359	0.646638	0.071147	-0.750193
50696	-9.869122	0.969275	3.550208	-1.789281	-1.045967	0.514297	0.130722	0.645936	0.083941	-0.747417
50697	-10.196929	0.497713	3.046020	-1.379043	-0.500594	0.739591	0.143992	0.643611	0.096061	-0.745522
50698	-10.339755	-0.416984	2.498328	-1.122376	0.504775	0.761403	0.156996	0.640302	0.107501	-0.744184
50699	-10.354102	-1.412164	1.898065	-0.912850	1.627379	0.643058	0.167634	0.636487	0.115802	-0.743891
50700	-10.040696	-1.684148	1.456183	-0.631766	2.032119	0.249297	0.174419	0.632546	0.119591	-0.745092
50701	-9.429793	-0.862404	1.441546	-0.312285	1.269410	-0.324108	0.177540	0.628633	0.119332	-0.747703
50702	-8.826654	0.287557	1.381523	0.197437	0.235571	-0.879269	0.179330	0.625113	0.117706	-0.750480
50703	-8.565408	0.871803	1.349638	0.489143	-0.259367	-1.115518	0.180922	0.622134	0.116077	-0.752823
50704	-8.612000	1.227912	1.624803	0.450325	-0.633916	-0.997405	0.182658	0.619386	0.114623	-0.754890
50705	-8.595670	1.107620	2.086206	0.032281	-0.654767	-0.922556	0.184900	0.616901	0.113108	-0.756605
50706	-8.782752	0.728212	2.324260	-0.271621	-0.320229	-0.708153	0.187419	0.615166	0.111427	-0.757647
50707	-8.756244	0.280635	2.510964	-0.611057	0.069875	-0.720005	0.189829	0.613984	0.109057	-0.758350
50708	-8.829987	0.311780	2.722021	-0.772186	0.034502	-0.599791	0.191199	0.613789	0.105738	-0.758634
50709	-9.068297	0.418416	2.999538	-0.951769	-0.064318	-0.299758	0.192104	0.614327	0.101612	-0.758534
50710	-9.393010	0.378386	3.646290	-1.520465	-0.141945	0.153981	0.192698	0.614966	0.096445	-0.758540
50711	-9.100599	0.354019	3.983333	-1.913309	-0.205800	-0.060290	0.193248	0.615564	0.091181	-0.758566
50712	-8.912234	0.486028	3.888980	-1.843132	-0.236169	-0.255772	0.194052	0.616639	0.086297	-0.758059
50713	-9.024371	0.929397	3.844285	-1.653003	-0.524611	-0.113548	0.195617	0.617803	0.082480	-0.757133
50714	-9.969030	1.963963	3.721049	-1.028652	-1.173100	0.894793	0.198850	0.618755	0.080747	-0.755699
50715	-10.901039	2.611553	3.807745	-0.729062	-1.544121	1.902072	0.204667	0.618260	0.081432	-0.754476
50716	-10.864201	1.597533	3.380512	-0.757033	-0.417044	1.644344	0.212678	0.616984	0.084435	-0.752974
50717	-10.985497	0.053998	2.829498	-0.912397	1.251552	1.425238	0.220809	0.616448	0.087796	-0.750684
50718	-10.786217	-0.630902	2.603070	-1.084222	1.944002	1.075906	0.227263	0.616175	0.089832	-0.748739
50719	-10.345424	-0.634400	2.679312	-1.249498	1.845968	0.658226	0.231128	0.615760	0.090780	-0.747782
50720	-9.784981	-1.409870	2.802778	-1.787751	2.363837	0.026284	0.231492	0.614968	0.090588	-0.748344
50721	-9.518697	-1.396509	2.283822	-1.347396	2.507470	-0.343327	0.229091	0.615494	0.089527	-0.748779
50722	-9.623150	0.050837	1.764611	-0.211144	1.454611	-0.139998	0.226054	0.615698	0.088798	-0.749621
50723	-9.403293	1.300056	1.479504	0.585409	0.383663	-0.230886	0.222888	0.615530	0.088993	-0.750682
50724	-9.896662	1.399529	2.227925	0.061866	0.049445	0.427406	0.219653	0.615322	0.090988	-0.751567
50725	-10.531812	0.885369	2.143221	0.046362	0.599725	0.954560	0.217297	0.614255	0.095035	-0.752623
50726	-10.578688	0.979903	1.571282	0.658924	0.671103	0.885554	0.214218	0.613040	0.098176	-0.754091
50727	-10.419740	2.009541	1.514712	1.197553	-0.333862	0.834248	0.210176	0.611689	0.099762	-0.756116
50728	-10.244575	2.994605	1.647424	1.545735	-1.367716	0.787896	0.206962	0.609762	0.101241	-0.758359
50729	-9.925877	3.094533	1.469287	1.768966	-1.493420	0.429270	0.205363	0.606988	0.103352	-0.760730
50730	-9.522661	2.577118	1.213849	1.782439	-1.031150	-0.088745	0.204928	0.603966	0.105808	-0.762912
50731	-9.441206	2.254352	1.094108	1.814681	-0.724220	-0.242034	0.204716	0.600785	0.107696	-0.765212
50732	-9.519750	2.135117	1.110268	1.848365	-0.612545	-0.188513	0.204656	0.597238	0.108814	-0.767842
50733	-9.202826	1.746801	1.016183	1.781563	-0.273120	-0.564619	0.205008	0.593520	0.109133	-0.770582
50734	-8.778610	1.415777	0.882076	1.741822	0.023845	-1.048475	0.205484	0.589929	0.108538	-0.773291
50735	-8.007222	1.376743	1.099137	1.433145	-0.143360	-1.741487	0.205746	0.586722	0.107057	-0.775864
50736	-7.608347	2.248291	1.318227	1.587269	-1.053488	-1.999240	0.206244	0.584088	0.105223	-0.777967
50737	-7.608901	3.597358	1.511391	2.044955	-2.297724	-1.834024	0.208055	0.582525	0.103726	-0.778857
50738	-7.937397	4.522001	1.680466	2.395807	-3.075442	-1.382017	0.211139	0.582087	0.102567	-0.778508
50739	-9.301970	4.085358	1.567285	2.599587	-2.286192	-0.133439	0.214682	0.582947	0.099757	-0.777260
50740	-10.953794	3.423133	2.841798	1.532402	-1.739169	1.780606	0.217643	0.583262	0.094069	-0.776909
50741	-11.314980	2.364582	3.599407	0.441147	-0.836707	2.256980	0.218275	0.582779	0.082872	-0.778368
50742	-10.100845	1.224640	4.241041	-0.931598	-0.126689	1.170219	0.216172	0.583142	0.068399	-0.780087
50743	-9.363380	0.479377	4.698638	-1.899761	0.398320	0.493048	0.213346	0.587420	0.056409	-0.778614
50744	-9.833912	0.645057	4.004982	-1.237566	0.736864	0.727013	0.213679	0.591397	0.050313	-0.775925
50745	-8.850383	0.325942	5.188226	-2.731200	0.436836	0.071753	0.215719	0.594108	0.048175	-0.773421
50746	-9.003594	0.657372	5.324799	-2.753940	0.127662	0.299162	0.221529	0.595063	0.052869	-0.770733
50747	-9.190776	-0.002363	3.544762	-1.413332	1.326102	-0.154561	0.227859	0.594620	0.059474	-0.768746
50748	-9.591344	-0.251807	3.535008	-1.440170	1.613594	0.181090	0.232291	0.593459	0.065012	-0.767868
50749	-9.717455	0.649820	3.499726	-0.983285	0.820325	0.456652	0.234216	0.592387	0.068756	-0.767785
50750	-9.673275	1.928631	2.951339	0.075869	-0.141232	0.481801	0.234478	0.591478	0.070438	-0.768253
50751	-9.290674	2.660399	3.208477	0.125150	-1.003253	0.319758	0.234263	0.590632	0.071051	-0.768912
50752	-8.710773	2.205666	3.114942	-0.084819	-0.732887	-0.331071	0.233820	0.590142	0.071295	-0.769401
50753	-8.636913	1.852990	3.589276	-0.660296	-0.633097	-0.321854	0.233292	0.590088	0.071934	-0.769543
50754	-8.691237	1.648225	3.989376	-1.085905	-0.606195	-0.188619	0.233110	0.590131	0.072878	-0.769476
50755	-8.897949	1.725622	4.218690	-1.206691	-0.726735	0.085004	0.233842	0.590008	0.074755	-0.769168
50756	-9.144165	1.581648	4.706292	-1.629911	-0.747768	0.436734	0.235354	0.589014	0.077429	-0.769205
50757	-9.076703	0.945023	4.501593	-1.716044	-0.151042	0.216079	0.237119	0.587514	0.080038	-0.769542
50758	-9.107293	1.171489	4.319413	-1.409840	-0.281554	0.232483	0.238463	0.585836	0.081536	-0.770249
50759	-8.949256	2.063669	3.884394	-0.609602	-0.918151	0.097990	0.239454	0.583477	0.081262	-0.771760
50760	-9.002247	2.639911	3.526868	0.003902	-1.220063	0.135152	0.238058	0.582474	0.076827	-0.773402
50761	-9.167760	4.739820	3.730670	0.789017	-3.007398	0.711719	0.236142	0.581991	0.067871	-0.775188
50762	-7.768414	7.202555	3.504251	1.695568	-5.363710	-0.176457	0.237625	0.582748	0.058065	-0.774963
50763	-7.217261	8.182499	4.838688	0.756111	-6.708479	0.029812	0.245232	0.583206	0.050960	-0.772745
50764	-6.713431	6.912483	4.068420	0.784633	-5.291586	-0.824677	0.258929	0.583108	0.049321	-0.768446
50765	-7.567697	5.948228	3.650675	0.904745	-3.816393	-0.294752	0.275478	0.583457	0.048524	-0.762453
50766	-7.922081	6.252197	3.103160	1.589588	-3.487313	0.025189	0.293739	0.583412	0.047039	-0.755735
50767	-8.025109	6.899555	2.543432	2.409542	-3.447386	0.225960	0.314893	0.583202	0.046557	-0.747362
50768	-9.127258	7.855751	2.178197	3.360437	-3.204349	1.509241	0.339148	0.582038	0.047764	-0.737515
50769	-10.406173	7.846576	1.804691	3.794269	-1.970205	2.629671	0.366193	0.578861	0.052010	-0.726717
50770	-11.548915	7.452615	1.002956	4.253180	-0.181744	3.293488	0.394446	0.574009	0.057036	-0.715313
50771	-11.878629	6.808070	1.479424	3.404968	0.775272	3.506995	0.422786	0.567626	0.060172	-0.703869
50772	-11.125803	5.892084	1.815131	2.429430	1.347342	2.599070	0.450835	0.560601	0.062620	-0.691775
50773	-10.477407	4.763151	1.824261	1.519101	2.134673	1.541119	0.477065	0.553188	0.064773	-0.679850
50774	-10.129331	4.438002	1.857209	1.125570	2.490185	1.062364	0.500076	0.546293	0.065838	-0.668695
50775	-9.254968	4.546102	2.480328	0.731367	1.866510	0.600984	0.521336	0.539191	0.066295	-0.658093
50776	-7.826665	4.025477	2.966357	0.107666	1.188738	-0.602332	0.541683	0.531942	0.068607	-0.647233
50777	-6.998306	3.546745	2.776658	-0.074293	1.194033	-1.576696	0.560706	0.524216	0.072958	-0.636776
50778	-6.754815	3.564123	3.101828	-0.233395	0.972193	-1.630366	0.577743	0.516158	0.078036	-0.627458
50779	-6.696128	3.755848	3.784661	-0.436868	0.544126	-1.281601	0.594282	0.507017	0.083981	-0.618635
50780	-6.344289	3.690554	3.821675	-0.376867	0.452694	-1.558828	0.611174	0.495867	0.091557	-0.610082
50781	-6.182542	3.255112	3.553690	-0.490008	0.779996	-2.028222	0.626328	0.484022	0.099399	-0.602955
50782	-5.976735	2.262991	3.935595	-1.367323	0.669208	-2.463359	0.638499	0.472350	0.106688	-0.598182
50783	-6.269965	1.257676	4.082727	-2.272029	0.983421	-2.641044	0.647655	0.461368	0.114160	-0.595525
50784	-6.510462	0.359164	3.560137	-2.805829	1.684213	-3.143396	0.653590	0.451414	0.120844	-0.595351
50785	-6.000259	0.280666	2.839669	-2.370985	1.898530	-3.903467	0.655247	0.444722	0.126502	-0.597386
50786	-6.223057	0.228722	3.174947	-2.500888	1.799225	-3.538440	0.651929	0.441971	0.132626	-0.601714
50787	-7.076457	-0.351034	2.909963	-2.996982	2.581935	-3.254068	0.644534	0.440940	0.142346	-0.608182
50788	-8.298808	-1.713218	2.463954	-4.151447	3.789122	-3.010119	0.633337	0.442322	0.156889	-0.615321
50789	-9.573660	-3.308542	0.775164	-5.017790	5.960764	-3.295632	0.618744	0.444771	0.175646	-0.623284
50790	-11.009002	-5.262606	-0.620167	-6.242897	8.077136	-3.103157	0.598946	0.449493	0.196899	-0.632811
50791	-12.186141	-6.910912	-2.637248	-6.759366	10.512108	-2.961622	0.572650	0.457487	0.218277	-0.644308
50792	-13.481625	-6.957650	-3.924216	-5.776325	12.028409	-1.604350	0.538587	0.472761	0.237116	-0.655894
50793	-15.951408	-5.214989	-3.656693	-3.409211	11.959595	2.025482	0.495735	0.493009	0.253849	-0.668393
50794	-18.512074	-1.669555	-2.510485	0.479322	9.678175	6.236895	0.444973	0.516484	0.264937	-0.681947
50795	-22.264062	4.480054	-0.922299	6.326169	4.989103	11.430074	0.391223	0.539886	0.268236	-0.695353
50796	-20.455553	14.159937	-0.780463	14.551230	-3.242922	10.106637	0.340973	0.553980	0.266061	-0.711375
50797	-12.328032	21.293544	6.051872	14.271712	-16.534180	3.012681	0.294796	0.563251	0.267282	-0.724158
50798	-6.876454	19.689641	10.049611	8.579289	-20.261403	-2.630545	0.260093	0.570367	0.279710	-0.727183
50799	-6.533540	16.358106	8.355229	6.895032	-17.329194	-4.144389	0.236413	0.575443	0.297085	-0.724372
50800	-6.293091	14.633448	10.057795	4.365933	-17.606722	-4.734084	0.222186	0.577094	0.311506	-0.721498
50801	-8.415818	9.853816	8.706973	2.654030	-13.536054	-2.501769	0.218627	0.577775	0.325230	-0.715963
50802	-11.238182	5.701663	4.728129	3.445033	-8.097268	0.371521	0.225335	0.573953	0.341517	-0.709344
50803	-11.685656	1.410440	1.629297	2.794187	-3.005624	1.338758	0.235847	0.566688	0.357478	-0.703882
50804	-12.653995	-2.023742	-0.112656	1.728643	0.431806	2.878127	0.247728	0.557512	0.373103	-0.699003
50805	-12.208328	-5.394770	-2.266969	0.362464	4.209765	3.049364	0.260870	0.544833	0.386414	-0.696985
50806	-10.639819	-6.372491	-3.213589	-0.309217	5.650614	1.681506	0.269081	0.533623	0.396042	-0.697131
50807	-10.915206	-5.963759	-3.534301	0.277566	5.671523	1.804370	0.274060	0.523817	0.405819	-0.697006
50808	-10.109867	-6.489508	-3.953999	-0.132128	6.288734	1.159587	0.275710	0.515589	0.414907	-0.697140
50809	-9.582355	-6.246894	-2.737893	-0.624353	5.064724	0.784402	0.274014	0.509598	0.421849	-0.698047
50810	-8.638609	-5.521854	-1.457699	-0.861373	3.540856	-0.119423	0.269820	0.505882	0.428642	-0.698246
50811	-8.716022	-4.636957	-0.220205	-0.614719	1.890430	-0.139813	0.264834	0.503859	0.436340	-0.696847
50812	-8.849471	-4.332773	0.153870	-0.419252	1.232038	-0.044762	0.258821	0.503319	0.444777	-0.694158
50813	-9.403936	-4.176048	1.101339	-0.469046	0.084695	0.524412	0.251871	0.503700	0.451694	-0.691967
50814	-9.296703	-3.503706	2.668456	-0.644761	-1.765173	0.301237	0.244646	0.504335	0.456571	-0.690896
50815	-9.616595	-2.310366	3.735401	-0.038281	-3.452510	0.179617	0.237000	0.505869	0.461091	-0.689436
50816	-9.842920	-1.390839	4.177286	0.591230	-4.469004	-0.017671	0.231331	0.507043	0.467546	-0.686144
50817	-9.091291	-1.071706	3.860319	0.731593	-4.390166	-0.930643	0.228921	0.508401	0.475091	-0.680744
50818	-8.506316	-1.290296	3.930494	0.291307	-4.396146	-1.442604	0.229962	0.511063	0.481482	-0.673875
50819	-9.136824	-2.624299	4.868390	-1.039803	-4.864644	-0.361635	0.232494	0.514385	0.484601	-0.668219
50820	-9.661786	-2.518888	5.082360	-0.928246	-5.228699	0.052610	0.236309	0.515500	0.483774	-0.666619
50821	-9.069694	0.430764	4.306631	1.586636	-5.631614	-1.642088	0.242731	0.514535	0.482427	-0.666032
50822	-8.546831	3.450334	3.486779	4.262585	-5.985469	-3.246594	0.251953	0.512686	0.483188	-0.663477
50823	-8.352670	4.765991	2.908831	5.610084	-5.837638	-3.863854	0.264765	0.509661	0.489835	-0.655901
50824	-8.284742	3.664938	1.805471	5.204272	-4.233135	-3.462768	0.280796	0.505514	0.501576	-0.643452
50825	-9.061645	3.061025	1.339264	5.159748	-3.543865	-2.457921	0.297986	0.501770	0.514288	-0.628442
50826	-9.931147	3.319136	0.651803	5.884251	-2.901517	-1.626083	0.317624	0.496645	0.526373	-0.612691
50827	-9.854277	3.898977	0.361032	6.422054	-2.493650	-1.752353	0.338320	0.490906	0.536477	-0.597280
50828	-10.508406	5.169339	0.358344	7.710644	-2.479965	-1.347753	0.360952	0.484964	0.544385	-0.581523
50829	-10.433723	6.011918	-0.870301	8.551188	-0.946771	-1.344236	0.385696	0.478137	0.551342	-0.564487
50830	-11.284503	6.913248	-0.860470	9.370493	-0.615538	-0.450628	0.411153	0.472852	0.555923	-0.546181
50831	-13.276976	7.950775	-0.494769	10.410635	-0.594478	1.629997	0.439042	0.467506	0.556735	-0.527945
50832	-14.804964	8.733632	-0.200504	10.902642	-0.239761	3.471257	0.471078	0.461253	0.554650	-0.507636
50833	-16.338001	9.574199	-0.479369	11.115848	0.927534	5.491338	0.506343	0.455669	0.545080	-0.488743
50834	-18.464603	12.439693	0.323254	13.042670	1.478615	8.164272	0.543259	0.452424	0.528715	-0.469727
50835	-21.516812	14.786155	0.917238	13.763085	2.761788	12.203420	0.587992	0.445421	0.507344	-0.445497
50836	-23.175605	14.755479	1.160678	11.190902	4.475645	14.882465	0.638035	0.437299	0.477088	-0.417214
50837	-23.265425	16.009158	4.677491	9.977377	3.465408	16.764553	0.690347	0.432492	0.432422	-0.386500
50838	-21.302631	16.385970	3.887412	6.853290	5.920755	15.753786	0.741187	0.432471	0.374939	-0.350759
50839	-23.497844	22.970445	7.080006	7.179059	7.565203	22.094328	0.786355	0.438357	0.313282	-0.302232
50840	-36.473217	18.243620	6.517983	-11.088266	9.925873	28.649604	0.832076	0.428406	0.258140	-0.239752
50841	-45.902985	8.279067	4.441862	-31.412066	8.881868	23.716238	0.871727	0.408284	0.196179	-0.186840
50842	-42.679255	4.295151	0.623180	-36.433260	8.918478	10.864151	0.901217	0.394690	0.118271	-0.134311
50843	-38.108278	9.356636	0.077890	-34.451327	10.612948	5.518439	0.916387	0.392203	0.045766	-0.065707
50844	-46.151406	11.602401	13.976841	-45.314050	0.672733	10.153009	0.932773	0.359444	-0.026724	0.004543
50845	-29.907569	-0.257863	-23.322157	-27.791508	13.337979	-31.782221	0.960561	0.264604	-0.074540	0.041846
50846	-11.442346	-9.844619	-42.568779	-3.424930	10.967227	-53.461771	0.969389	0.213328	-0.106993	0.057692
50847	-5.824276	6.972890	-39.920702	1.144458	19.255504	-45.833245	0.985096	0.106175	-0.116901	0.068162
50848	-23.289534	-31.600811	2.724539	-19.407704	-33.622477	-15.897637	0.987354	-0.021358	-0.153098	0.035174
50849	16.595799	-65.772975	-14.694830	24.666606	-64.688408	-14.721499	0.983224	-0.027514	-0.176562	0.036584
50850	20.304617	-13.168914	-1.583573	20.851470	-11.398770	-5.060817	0.980102	0.092355	-0.168221	0.050712
50851	-2.712444	43.205785	5.017452	-11.613733	38.150593	7.297013	0.958932	0.242703	-0.120596	0.083673
50852	-12.363799	55.289441	18.779317	-27.720181	38.524237	26.366333	0.965042	0.213434	-0.124504	0.087404
50853	3.788202	7.816075	-0.586082	2.136851	7.909002	-6.902165	0.979473	0.111020	-0.150169	0.075867
50854	-4.061375	-27.555064	-4.876386	2.558488	-26.511404	-19.237447	0.984152	0.041097	-0.150394	0.084481
50855	0.819523	-16.826703	5.584941	2.305888	-17.100750	-5.666778	0.982923	0.064831	-0.148992	0.086381
50856	2.260391	1.822094	5.135172	0.407546	1.051264	-4.024412	0.979748	0.112328	-0.138168	0.091573
50857	-1.132412	18.032425	10.771485	-7.333285	13.872275	4.187680	0.977058	0.150398	-0.124696	0.084792
50858	-3.057803	13.288172	10.837800	-7.977152	8.854681	2.888320	0.979346	0.133933	-0.126613	0.083136
50859	0.204359	0.557016	7.931150	-1.751604	-1.513100	-2.204776	0.982333	0.106054	-0.131613	0.080323
50860	0.134617	-3.031186	5.266039	-0.567347	-4.112676	-5.374103	0.983144	0.100825	-0.130078	0.079636
50861	-1.386550	2.906764	8.531241	-3.828886	0.548314	-1.555468	0.981704	0.120260	-0.123880	0.080299
50862	-1.377780	5.598303	9.710159	-4.520679	2.676976	0.183483	0.982150	0.118393	-0.123906	0.077531
50863	-0.198875	3.800747	9.329790	-2.964276	1.232985	-0.261614	0.982367	0.118175	-0.124268	0.074474
50864	-0.215577	3.743678	10.591767	-3.249304	0.889567	0.906340	0.982804	0.116363	-0.125031	0.070162
50865	-0.614837	3.079600	10.870968	-3.586505	0.176311	0.917912	0.983034	0.116466	-0.126108	0.064629
50866	-0.736956	3.164647	11.885526	-3.952485	-0.009953	1.857854	0.983068	0.119021	-0.126929	0.057440
50867	-1.698073	2.922394	13.400992	-5.171466	-0.766359	2.980990	0.982951	0.125039	-0.126111	0.047630
50868	-3.068879	4.622774	15.713896	-7.150026	-0.001557	5.240000	0.982231	0.137183	-0.122864	0.036165
50869	-2.964926	8.581116	18.405705	-7.858281	2.737181	8.947182	0.981500	0.148783	-0.118106	0.023915
50870	-1.335812	10.310017	17.112414	-5.768533	4.579653	8.805825	0.981674	0.153993	-0.111785	0.010289
50871	0.425006	9.048703	15.822453	-3.298141	3.849339	7.700014	0.983441	0.146825	-0.106136	-0.004721
50872	2.166201	4.386271	12.520578	-0.507936	0.667485	3.602709	0.986121	0.128821	-0.102630	-0.020939
50873	3.196780	-0.223615	10.274959	1.005187	-2.826598	0.522994	0.988898	0.103598	-0.099510	-0.038013
50874	1.632398	-4.435091	8.653977	-0.484695	-6.084838	-2.069773	0.990178	0.083949	-0.096933	-0.055713
50875	0.475832	-3.313039	9.299942	-1.773991	-4.805375	-1.359791	0.988928	0.086693	-0.095822	-0.072967
50876	-0.241451	1.424903	10.917134	-2.268527	-0.437653	0.954485	0.986514	0.096672	-0.096672	-0.090001
50877	0.484256	3.979285	9.844028	-0.945441	1.888162	0.604211	0.983573	0.105999	-0.099558	-0.106938
50878	0.586006	4.162838	9.704338	-0.781819	1.890804	0.563165	0.980379	0.113327	-0.103768	-0.123472
50879	-0.121928	3.898894	10.202405	-1.638449	1.616716	0.864699	0.977204	0.117662	-0.108000	-0.139874
50880	-0.338956	3.682449	10.876912	-2.101451	1.315698	1.404929	0.973871	0.118831	-0.114532	-0.156002
50881	1.733745	3.122438	10.236813	-0.256405	0.288195	1.022331	0.970567	0.114576	-0.122275	-0.172975
50882	2.511448	2.124358	8.504568	0.547869	-0.510402	-0.724975	0.967295	0.107311	-0.127313	-0.191352
50883	2.472244	1.336898	7.710904	0.418066	-1.005825	-1.678178	0.963602	0.099925	-0.131215	-0.210403
50884	2.017794	1.585810	7.409234	0.172244	-0.479573	-1.988174	0.959732	0.092662	-0.133403	-0.229197
50885	0.850698	2.292886	7.500106	-0.547160	0.762865	-1.980065	0.955325	0.083923	-0.135941	-0.248658
50886	-0.055345	2.174395	7.186668	-1.215665	1.284948	-2.515587	0.949978	0.073435	-0.139842	-0.269430
50887	0.326502	0.634752	5.822619	-1.215907	0.034052	-4.074133	0.943530	0.063025	-0.144639	-0.291303
50888	0.823356	-0.750317	4.586506	-1.214997	-1.222622	-5.418961	0.936116	0.057227	-0.148617	-0.313569
50889	0.501341	-1.064239	4.577150	-1.716129	-1.212151	-5.579609	0.927663	0.058601	-0.152046	-0.335989
50890	-0.708181	-0.019945	5.735796	-2.405720	0.390876	-4.572388	0.917921	0.064388	-0.155923	-0.359114
50891	-1.591943	1.293737	6.578070	-2.474550	1.975308	-3.692743	0.906429	0.070540	-0.160950	-0.384065
50892	-1.945234	2.547151	7.084834	-1.966238	3.118424	-2.966177	0.893426	0.073953	-0.163857	-0.411670
50893	-2.748225	2.384844	7.135398	-2.403824	3.656371	-3.104366	0.878347	0.076120	-0.163276	-0.442778
50894	-3.258348	2.485029	7.418430	-2.425729	4.166511	-2.843383	0.860308	0.079105	-0.159772	-0.477583
50895	-2.960420	1.203898	7.152631	-2.871810	3.257182	-3.292961	0.839808	0.083715	-0.151088	-0.514672
50896	-3.576818	-0.388362	6.437297	-3.892708	3.112882	-4.378783	0.815384	0.095631	-0.136398	-0.554435
50897	-8.334911	-0.253864	7.255679	-5.192925	7.648693	-3.758775	0.786657	0.115260	-0.121535	-0.594234
50898	-12.952075	0.451304	7.762205	-5.056908	12.339744	-2.724719	0.753088	0.135554	-0.115101	-0.633431
50899	-11.239728	1.854236	5.467617	-1.627240	10.996143	-3.812808	0.713190	0.156307	-0.117600	-0.673125
50900	-9.432315	4.175683	3.891733	2.138169	9.054830	-3.906856	0.667094	0.182299	-0.120423	-0.712216
50901	-11.132727	7.093547	3.725166	5.696333	9.675351	-1.947200	0.616543	0.211212	-0.125475	-0.748011
50902	-11.404920	9.953713	2.360217	9.498378	8.075675	-0.925998	0.561963	0.238971	-0.131919	-0.780825
50903	-12.132628	12.023415	1.087455	12.442537	6.309752	0.080962	0.504356	0.264784	-0.135699	-0.810617
50904	-12.520512	13.863250	0.948657	14.093234	3.775660	1.869084	0.449506	0.288938	-0.136101	-0.834227
50905	-12.074356	15.543509	1.563845	14.382937	0.072778	3.694455	0.389934	0.308137	-0.139016	-0.856550
50906	-11.595732	15.673805	2.533344	12.962573	-2.663626	4.712150	0.330081	0.321862	-0.142333	-0.875895
50907	-12.964482	15.857542	1.907861	13.416609	-4.130280	5.207993	0.269085	0.333121	-0.145330	-0.891910
50908	-13.720025	17.568821	2.133080	13.273676	-7.274642	6.673905	0.209111	0.342828	-0.150558	-0.903368
50909	-10.203475	17.971399	3.956583	8.245070	-10.747203	6.277744	0.153839	0.349642	-0.164612	-0.909388
50910	-7.821928	20.106623	4.141262	5.003172	-14.382729	6.011583	0.107416	0.354009	-0.184834	-0.910481
50911	-6.776488	24.841090	4.555361	2.397657	-19.118167	7.856762	0.070750	0.352434	-0.205737	-0.910196
50912	-2.827919	26.944270	8.014955	-4.439885	-20.594443	9.007446	0.046513	0.344164	-0.226749	-0.909930
50913	0.895022	25.158319	10.817184	-9.906226	-17.944692	8.365362	0.033200	0.335709	-0.249453	-0.907728
50914	4.211921	21.753925	9.064921	-11.359425	-15.746658	4.191553	0.029149	0.324880	-0.259640	-0.908950
50915	7.549069	13.412399	11.883971	-14.559734	-7.977191	0.309743	0.033985	0.315056	-0.247921	-0.915489
50916	7.262447	2.723931	4.377098	-8.591781	-2.331272	-9.610347	0.051728	0.312197	-0.196976	-0.927932
50917	-7.133693	-7.643964	0.256066	5.442281	8.804429	-8.343294	0.074297	0.320985	-0.145976	-0.932813
50918	-24.961472	-3.785466	8.611552	13.932718	11.083293	10.050833	0.072117	0.324987	-0.129549	-0.934023
50919	-3.605751	1.145556	10.422667	-3.598065	1.294937	0.591150	0.082838	0.320760	-0.085111	-0.939684
50920	-3.512460	-3.914144	2.568557	0.671301	4.754891	-6.468210	0.092026	0.326494	-0.054823	-0.939110
50921	-7.791347	-1.248516	8.424197	0.564683	3.220153	1.257201	0.088536	0.327456	-0.053631	-0.939179
50922	-6.478910	-2.255620	11.332759	-2.344800	3.989152	2.600276	0.087335	0.323977	-0.048485	-0.940777
50923	-5.839364	-2.275947	10.340476	-2.140893	3.908450	1.427328	0.080667	0.322928	-0.060567	-0.941033
50924	-3.654943	-1.179835	9.636636	-3.197325	2.686968	-0.317458	0.073179	0.319287	-0.079309	-0.941494
50925	-2.044736	4.308271	9.751973	-4.094816	-2.463902	-0.067417	0.063605	0.318817	-0.107984	-0.939494
50926	-2.859278	10.249327	12.435196	-4.919306	-7.179130	4.047781	0.060845	0.317222	-0.116149	-0.939243
50927	-4.068198	3.435218	9.875246	-2.560881	-0.929815	1.069868	0.069044	0.309786	-0.096856	-0.943337
50928	-4.168924	-3.530522	8.299877	-1.843938	5.319692	-1.625667	0.074434	0.302050	-0.083374	-0.946718
50929	-3.680736	-3.346764	8.494517	-2.243330	5.051564	-1.667092	0.072282	0.297676	-0.093281	-0.947345
50930	-4.470372	0.982379	9.080565	-1.523115	1.353127	0.149389	0.066893	0.294533	-0.112817	-0.946598
50931	-6.000328	4.764467	9.628698	-0.344071	-1.518284	2.393025	0.062130	0.290874	-0.130548	-0.945774
50932	-7.709177	6.172372	9.606517	1.166782	-2.228630	3.732853	0.059997	0.286315	-0.140434	-0.945887
50933	-8.865359	6.162852	9.417754	2.317342	-1.858108	4.203177	0.059242	0.281639	-0.145956	-0.946502
50934	-8.883069	5.062040	8.882107	2.726641	-0.837239	3.426912	0.059340	0.275601	-0.149263	-0.947757
50935	-7.738275	4.243589	8.878082	1.897588	-0.211630	2.559105	0.059303	0.269161	-0.152421	-0.949107
50936	-7.141696	3.943121	8.623216	1.662786	-0.024395	1.940783	0.057903	0.262867	-0.157698	-0.950094
50937	-6.546408	4.331811	8.341072	1.439600	-0.479939	1.540222	0.055444	0.256310	-0.163631	-0.951029
50938	-6.759174	5.113642	8.636275	1.607115	-0.976148	2.140685	0.052493	0.250189	-0.170281	-0.951659
50939	-6.253796	5.652744	8.817124	1.197994	-1.405622	2.245181	0.049542	0.243915	-0.176025	-0.952400
50940	-5.474991	5.640029	9.204748	0.436702	-1.328273	2.210485	0.046914	0.238526	-0.179417	-0.953265
50941	-4.940467	5.299401	8.512091	0.389469	-1.279892	1.284922	0.044228	0.233238	-0.181998	-0.954212
50942	-4.653739	4.147141	8.182365	0.388548	-0.340077	0.460562	0.041364	0.227505	-0.183717	-0.955394
50943	-4.590222	3.043098	7.031710	0.958451	0.306161	-0.937873	0.038272	0.221413	-0.186292	-0.956455
50944	-4.755610	2.428194	6.526145	1.438051	0.776916	-1.540476	0.033292	0.214291	-0.193420	-0.956849
50945	-4.520808	2.105988	5.987379	1.556562	0.944618	-2.236115	0.027797	0.207832	-0.204701	-0.956102
50946	-3.923735	2.660893	5.337846	1.335645	0.240533	-2.803788	0.022181	0.201272	-0.218224	-0.954660
50947	-3.684859	2.878104	5.270744	1.182889	0.109563	-2.867888	0.016951	0.197169	-0.227971	-0.953345
50948	-5.127123	1.949528	3.519977	3.264431	0.413512	-4.186787	0.012871	0.194880	-0.232651	-0.952748
50949	-6.091052	1.610582	2.300760	4.650145	0.287316	-4.987548	0.008378	0.193003	-0.238485	-0.951738
50950	-6.510481	1.690805	1.903860	5.179205	0.073246	-5.117975	0.003449	0.192418	-0.245129	-0.950197
50951	-7.212982	0.688587	-0.122860	6.650013	0.044843	-6.933233	-0.001809	0.194507	-0.250353	-0.948413
50952	-8.604957	-0.935233	-2.234659	8.867846	0.492454	-8.797718	-0.009637	0.198645	-0.256843	-0.945769
50953	-9.689436	-2.980294	-2.184995	10.119873	2.178806	-9.201345	-0.023734	0.204832	-0.268312	-0.941004
50954	-8.854315	-5.900570	-4.522587	10.814094	2.989748	-12.597227	-0.045576	0.211962	-0.284203	-0.933929
50955	-10.863595	-8.817057	-8.014896	14.870550	2.658966	-15.435480	-0.079932	0.226114	-0.308851	-0.920377
50956	-13.838917	-8.454435	-9.146239	18.181752	-0.039598	-13.757590	-0.131566	0.241119	-0.344875	-0.897559
50957	-14.948990	-5.508064	-8.309895	17.499845	-3.978890	-9.587956	-0.198548	0.255558	-0.386305	-0.863735
50958	-16.551451	-1.516630	-7.005047	15.027209	-7.947964	-3.862837	-0.277594	0.267770	-0.423973	-0.819443
50959	-18.765573	5.836222	-9.288520	9.126845	-15.409770	2.438799	-0.360124	0.274383	-0.461771	-0.762753
50960	-20.985686	13.329942	-9.979335	0.062587	-18.763142	9.249794	-0.435006	0.272255	-0.497155	-0.699631
50961	-27.545616	18.187940	-11.530471	-6.493307	-21.170500	17.186223	-0.505222	0.267619	-0.516920	-0.637122
50962	-32.083798	30.809507	-13.529953	-22.775172	-20.844973	24.885255	-0.565004	0.270996	-0.518493	-0.581805
50963	-23.265295	35.749677	-3.785429	-31.025882	-4.547005	19.318018	-0.600377	0.289528	-0.506058	-0.547382
50964	-16.292765	20.486063	-1.845966	-18.740229	-2.010261	8.434210	-0.620498	0.305369	-0.503931	-0.517479
50965	-5.796454	14.058133	3.692627	-11.783110	6.076046	-1.512192	-0.644448	0.303163	-0.518527	-0.473189
50966	-1.111602	18.550221	14.765431	-10.467432	20.320038	-3.468337	-0.659697	0.299810	-0.544229	-0.422764
50967	-13.352932	26.068379	22.354751	-12.718909	28.996076	9.014998	-0.660531	0.311420	-0.559197	-0.392447
50968	-11.145940	18.794350	22.070344	-6.740369	26.387926	5.103905	-0.652838	0.340093	-0.550864	-0.393304
50969	-8.709863	3.100378	10.845328	1.162193	9.832635	0.435510	-0.642739	0.361328	-0.540927	-0.404631
50970	-11.780877	-1.983748	5.368057	2.914319	2.450085	2.718971	-0.638577	0.366289	-0.530886	-0.419776
50971	-12.713784	-3.576498	0.761733	2.558474	-2.604512	2.902689	-0.635601	0.368809	-0.522258	-0.432710
50972	-10.338105	-5.708088	-0.604824	4.290205	-4.310721	0.328133	-0.635742	0.371933	-0.514178	-0.439453
50973	-6.438653	-5.239674	0.611955	4.558763	-2.354474	-3.258390	-0.637369	0.374284	-0.509347	-0.440724
50974	-5.254709	-4.329219	1.797007	4.151828	-0.740373	-4.173780	-0.639495	0.375646	-0.507294	-0.438850
50975	-4.780668	-3.297488	2.949166	3.565382	0.754492	-4.414125	-0.641306	0.376735	-0.506179	-0.436555
50976	-5.921702	-2.524275	4.350255	3.153117	2.105066	-3.031112	-0.642764	0.376677	-0.506409	-0.434187
50977	-6.971010	-0.690836	4.651681	1.401489	2.823534	-2.016931	-0.643691	0.376974	-0.505395	-0.433739
50978	-6.160040	0.145546	5.002690	0.794360	3.557871	-2.762547	-0.644601	0.376994	-0.502398	-0.435847
50979	-4.826470	0.752028	5.467031	0.488910	4.401441	-3.970021	-0.643690	0.377242	-0.499158	-0.440673
50980	-4.908791	0.954659	5.141865	0.152248	4.104350	-3.932469	-0.641657	0.375950	-0.495784	-0.448483
50981	-5.095813	1.483400	5.453010	-0.294316	4.446489	-3.644694	-0.638285	0.373346	-0.492490	-0.458976
50982	-6.249387	2.121782	6.463817	-0.720356	5.195874	-2.208864	-0.633873	0.368319	-0.488608	-0.473084
50983	-7.962933	2.522291	7.523473	-0.894839	5.667209	-0.145917	-0.627736	0.360615	-0.485374	-0.490221
50984	-10.201230	2.342777	8.043106	-0.539970	5.180845	2.315497	-0.621681	0.348890	-0.482354	-0.509042
50985	-10.927846	3.293341	8.419358	-1.133518	5.101339	3.371061	-0.614390	0.336098	-0.478198	-0.529990
50986	-11.635943	4.635263	7.722307	-2.287261	3.996973	4.161189	-0.604590	0.323664	-0.473897	-0.552390
50987	-14.373932	5.984148	7.207319	-3.119155	2.209580	6.911486	-0.590467	0.313181	-0.470698	-0.575943
50988	-17.582719	6.840415	6.808577	-3.031512	0.076021	10.011765	-0.572032	0.303708	-0.466774	-0.602215
50989	-18.046260	5.811009	6.399672	-1.174793	-1.260138	10.120186	-0.549797	0.295103	-0.461561	-0.630554
50990	-17.198288	4.208730	6.034612	1.020483	-1.784125	8.778035	-0.525365	0.289182	-0.457342	-0.656661
50991	-15.321614	3.519220	5.481440	1.879589	-1.693069	6.641485	-0.499736	0.286303	-0.454481	-0.679515
50992	-12.677448	5.583680	3.958657	-0.404125	-2.273787	4.407056	-0.473714	0.285880	-0.450330	-0.700764
50993	-8.489434	8.754614	2.163321	-4.472635	-2.925033	1.358765	-0.446166	0.289355	-0.443561	-0.721431
50994	-6.334763	11.387818	0.650980	-7.256029	-4.534752	0.034031	-0.413508	0.300355	-0.431152	-0.743577
50995	-8.341046	10.996710	-0.823396	-5.173462	-7.110126	0.853952	-0.376510	0.315631	-0.413865	-0.766377
50996	-9.678677	7.906791	-1.021619	-1.057055	-7.016760	0.522856	-0.338712	0.328175	-0.392899	-0.789434
50997	-9.584161	2.776221	-1.650648	3.827756	-5.213899	-2.039914	-0.301689	0.337158	-0.371913	-0.810549
50998	-10.254358	0.125451	-2.085114	6.832005	-3.977096	-2.957738	-0.270601	0.341716	-0.359369	-0.825142
50999	-10.972713	1.715307	-1.147690	6.209246	-3.928873	-1.407512	-0.246576	0.342156	-0.358842	-0.832684
51000	-11.737842	4.956822	0.575556	4.270860	-4.367275	1.382900	-0.226203	0.340214	-0.365022	-0.836568
51001	-10.875937	7.065554	1.235670	2.517255	-4.778750	2.042369	-0.204274	0.339953	-0.365174	-0.842230
51002	-10.341803	5.690558	0.779344	3.551228	-3.980317	0.745494	-0.179742	0.343556	-0.357440	-0.849646
51003	-11.015593	2.159355	1.162398	6.063201	-1.111351	-0.360190	-0.154892	0.348177	-0.347035	-0.856941
51004	-9.849354	-0.091860	2.063348	6.043182	1.416506	-1.891602	-0.132977	0.350606	-0.337008	-0.863608
51005	-7.925266	0.056708	2.439230	4.410729	1.747347	-3.011721	-0.113795	0.352915	-0.327798	-0.868936
51006	-6.772895	0.399850	2.939490	3.153347	1.891794	-3.397898	-0.096159	0.354244	-0.318571	-0.873943
51007	-5.574734	0.505913	3.032910	2.183591	1.856463	-4.127838	-0.080128	0.354093	-0.309587	-0.878836
51008	-5.455443	1.032452	2.660602	2.134043	1.232579	-4.170605	-0.066358	0.353236	-0.301341	-0.883184
51009	-6.057500	1.818082	2.092175	2.693982	0.344322	-3.729971	-0.055523	0.351664	-0.293980	-0.887032
51010	-5.965219	2.974737	1.795836	2.513586	-0.769732	-3.429375	-0.046678	0.349662	-0.287661	-0.890398
51011	-4.631236	3.529600	2.710107	0.883246	-0.893947	-3.514164	-0.038717	0.348354	-0.282211	-0.893033
51012	-4.056291	3.627933	2.754744	0.459871	-1.058230	-3.823347	-0.030817	0.347964	-0.275049	-0.895723
51013	-4.084561	3.597306	2.349817	0.792700	-1.287994	-4.080497	-0.022931	0.348149	-0.265917	-0.898641
51014	-4.688418	3.473970	2.623858	1.159651	-1.013267	-3.602821	-0.015285	0.349241	-0.256641	-0.901073
51015	-4.542383	3.576014	2.862417	0.904643	-1.059204	-3.513952	-0.009434	0.352116	-0.249291	-0.902097
51016	-4.380769	3.655032	3.650125	0.248161	-0.828879	-3.095182	-0.005715	0.358026	-0.244657	-0.901070
51017	-5.332336	4.661624	3.456288	0.810965	-1.680031	-2.155712	-0.002665	0.367197	-0.238780	-0.898968
51018	-6.219455	5.296253	3.074508	1.466703	-2.321555	-1.527689	-0.000349	0.379365	-0.229534	-0.896324
51019	-6.424972	5.362299	2.938783	1.524899	-2.506356	-1.442520	0.001499	0.394029	-0.217789	-0.892920
51020	-6.726150	4.053834	3.475724	1.366499	-1.196215	-1.419209	0.002860	0.410162	-0.204547	-0.888774
51021	-7.118079	2.563664	3.898181	1.309674	0.222988	-1.406671	0.003460	0.426329	-0.189223	-0.884549
51022	-7.202768	1.417321	3.846272	1.303767	1.076984	-1.700285	0.003085	0.442831	-0.170869	-0.880167
51023	-8.070995	0.814897	3.950557	1.525181	1.561397	-1.058772	0.000914	0.459909	-0.151308	-0.874979
51024	-9.594523	0.350912	3.884870	2.134766	1.902847	0.140498	-0.003702	0.478752	-0.132193	-0.867933
51025	-11.633081	0.153035	4.531856	2.218026	2.105349	2.290591	-0.011539	0.499286	-0.112366	-0.859042
51026	-12.186828	-1.145054	5.088079	1.584746	3.028540	2.992427	-0.022271	0.519881	-0.090905	-0.849096
51027	-12.766305	-2.406757	5.750490	0.790710	3.824134	3.844437	-0.035893	0.539507	-0.070386	-0.838266
51028	-12.573896	-3.672641	5.842945	0.182829	4.475082	3.811215	-0.052455	0.557323	-0.053609	-0.826901
51029	-12.974507	-3.193399	6.289878	-0.725147	3.522525	4.509253	-0.072960	0.574189	-0.044523	-0.814249
51030	-13.755819	-0.791491	7.835664	-2.907204	0.929941	5.740066	-0.094776	0.588760	-0.039950	-0.801737
51031	-13.493555	1.546218	8.830041	-4.901026	-1.492530	5.554926	-0.114148	0.596611	-0.034648	-0.793615
51032	-10.228454	4.639340	10.905397	-8.724307	-3.881201	2.592344	-0.130268	0.599322	-0.028617	-0.789319
51033	-10.394902	6.432876	11.057556	-9.445395	-5.772128	2.400676	-0.141851	0.599853	-0.023199	-0.787093
51034	-9.626978	9.081653	9.805114	-9.158096	-8.623076	0.820296	-0.146741	0.595994	-0.014682	-0.789331
51035	-7.728966	7.864933	10.674702	-9.966094	-7.207917	-0.634081	-0.141377	0.592812	-0.000635	-0.792834
51036	-8.834957	5.075429	8.590735	-6.829365	-5.532432	0.204874	-0.129537	0.589354	0.014427	-0.797292
51037	-12.036082	3.513135	5.831598	-2.706396	-5.380751	2.634095	-0.112473	0.582895	0.028473	-0.804222
51038	-12.993694	1.343607	4.610201	-0.464276	-3.674457	3.534783	-0.091921	0.571748	0.041318	-0.814216
51039	-12.241973	-1.387451	3.623278	1.004785	-0.835786	2.961964	-0.071833	0.557232	0.050833	-0.825680
51040	-11.345295	-2.859180	2.708905	2.061852	0.918838	1.982046	-0.054154	0.540476	0.057103	-0.837671
51041	-10.425419	-3.069825	1.566616	3.139947	1.489152	0.602340	-0.040505	0.522061	0.059772	-0.849846
51042	-9.286166	-2.765589	0.455106	3.981191	1.578359	-1.110230	-0.029584	0.503125	0.061293	-0.861530
51043	-8.193040	-2.694778	-0.213922	4.325473	1.834631	-2.577526	-0.020462	0.484966	0.061921	-0.872098
51044	-7.384926	-1.606963	0.008122	3.967310	0.939980	-3.449519	-0.013558	0.469155	0.061217	-0.880887
51045	-6.996216	-0.767396	-1.079856	4.845138	0.322249	-4.605009	-0.010272	0.458185	0.058860	-0.886847
51046	-8.481604	-0.664655	-2.027553	6.595648	0.233866	-4.074137	-0.012455	0.450707	0.050366	-0.891163
51047	-8.225160	0.844398	-1.131051	5.831799	-1.313680	-3.989517	-0.016439	0.445032	0.039457	-0.894494
51048	-5.963292	3.537870	-0.062105	3.606371	-3.898183	-5.354185	-0.021981	0.444805	0.023402	-0.895052
51049	-5.104685	7.495967	1.436719	1.641655	-7.773848	-5.211111	-0.026532	0.450950	0.006919	-0.892128
51050	-5.514497	6.260453	5.371994	-1.449350	-6.355140	-2.331729	-0.025585	0.459253	-0.006314	-0.887915
51051	-7.982353	2.665809	7.777372	-2.001305	-2.532626	1.181978	-0.021675	0.468095	-0.017379	-0.883241
51052	-8.528048	1.784275	4.438290	0.957845	-1.662084	-0.224784	-0.012344	0.473867	-0.017930	-0.880327
51053	-6.698516	2.740669	1.258390	2.491202	-2.664668	-3.436375	-0.001966	0.481404	-0.015005	-0.876368
51054	-8.055979	4.609713	3.806007	0.907431	-4.364938	-0.826332	0.006931	0.494659	-0.012028	-0.868976
51055	-9.357117	6.949636	2.043245	2.997425	-6.672576	-0.511074	0.026213	0.510133	0.007761	-0.859661
51056	-9.229668	6.682534	0.472420	4.352147	-6.274891	-1.342250	0.050316	0.527087	0.031266	-0.847744
51057	-9.196811	8.081982	3.643636	1.750089	-7.912881	0.061450	0.077500	0.545590	0.053502	-0.832744
51058	-8.946298	8.320956	1.551142	3.785210	-7.688469	-0.968099	0.115633	0.563591	0.084014	-0.813594
51059	-9.555248	8.200635	1.771927	4.021711	-7.263896	-0.182712	0.158596	0.581262	0.111720	-0.790254
51060	-11.011972	9.426811	1.488943	5.354179	-7.610029	1.399656	0.206924	0.595491	0.137421	-0.763995
51061	-12.752761	11.538282	0.130305	8.093044	-7.683489	3.268240	0.259770	0.605350	0.161039	-0.734941
51062	-15.502515	12.956076	-1.162935	10.377325	-6.182314	6.415214	0.318052	0.610434	0.184356	-0.701588
51063	-18.549901	13.028420	-1.867392	10.757057	-3.146567	9.967130	0.382236	0.609266	0.206933	-0.663226
51064	-19.844372	11.315895	-3.293422	9.372656	1.599654	11.203122	0.450596	0.599852	0.228357	-0.620479
51065	-20.440021	8.775810	-4.596692	6.237234	6.351337	11.067955	0.520805	0.580612	0.251213	-0.573188
51066	-19.802727	2.113474	-7.188913	-0.800490	12.216561	7.441982	0.588193	0.551318	0.273487	-0.524674
51067	-17.741861	-1.813965	-5.890618	-6.438888	11.373966	3.661530	0.642123	0.522859	0.285343	-0.482572
51068	-15.853105	-3.752945	-4.238588	-9.360427	8.979291	0.908151	0.683705	0.497992	0.289104	-0.448298
51069	-14.339445	-4.070376	-2.331899	-10.086983	6.333721	-0.556320	0.713745	0.480584	0.283359	-0.423456
51070	-13.414742	-3.240778	-0.289043	-9.540613	4.158659	-0.747343	0.736367	0.468453	0.270121	-0.406632
51071	-13.406529	-2.124562	1.104619	-9.035447	3.250180	-0.157277	0.753551	0.460477	0.251454	-0.396097
51072	-12.831302	-0.522332	3.033411	-7.807496	2.009982	0.631452	0.768840	0.452758	0.229777	-0.388713
51073	-13.416772	0.437259	4.488769	-7.796519	1.649081	1.883698	0.784761	0.439319	0.210672	-0.383101
51074	-14.030454	0.012157	5.811277	-8.842003	1.177095	2.476277	0.801263	0.419333	0.194496	-0.379880
51075	-12.462513	-1.601698	6.684979	-9.271774	-0.215487	0.982008	0.817131	0.393787	0.180962	-0.380107
51076	-9.693949	-3.965212	7.365133	-9.289002	-2.455936	-1.351256	0.831195	0.362522	0.172963	-0.384418
51077	-6.648903	-6.788714	7.949151	-9.339725	-5.218210	-3.570014	0.842927	0.325208	0.169984	-0.393470
51078	-4.456713	-9.851564	6.615408	-10.240919	-6.588821	-6.301270	0.848715	0.290734	0.168718	-0.408277
51079	-4.210264	-10.211203	5.253574	-10.457067	-5.644825	-6.925954	0.845567	0.267610	0.168175	-0.430253
51080	-6.841049	-8.690504	3.555025	-10.860312	-1.607629	-6.020509	0.833063	0.258714	0.164729	-0.460367
51081	-9.572456	-5.380535	2.464209	-9.373308	3.165242	-4.455061	0.812153	0.264327	0.149691	-0.498128
51082	-9.760599	-0.798520	2.231444	-5.024225	5.822428	-3.355296	0.786306	0.278140	0.122788	-0.537852
51083	-11.385785	4.620052	1.268734	-0.083120	9.335293	-1.725170	0.756252	0.303604	0.082294	-0.573703
51084	-14.000383	12.191338	-1.984339	7.398164	13.961534	0.124482	0.720363	0.340159	0.016185	-0.604241
51085	-2.793376	22.318041	-4.992922	20.471542	4.375034	-0.267684	0.677852	0.383913	-0.063311	-0.623794
51086	-6.151418	22.163010	10.672903	9.310124	-1.089161	13.740487	0.658171	0.403126	-0.101194	-0.627743
51087	-7.520777	11.846382	1.511899	6.434970	4.856316	1.771359	0.652773	0.396482	-0.111580	-0.635798
51088	-8.266506	2.892720	2.398830	-0.669812	6.354403	-3.361086	0.655555	0.380472	-0.100976	-0.644432
51089	-8.081634	4.739695	4.505478	-0.397337	5.271725	-0.861373	0.653434	0.377239	-0.109984	-0.647007
51090	-5.658678	11.099397	7.228937	3.170768	1.396896	4.168134	0.656981	0.369452	-0.105349	-0.648678
51091	-6.335933	7.128758	6.065422	1.041255	2.994121	1.035906	0.663622	0.355753	-0.094146	-0.651293
51092	-4.099001	5.357865	6.570537	-0.073107	0.981280	-0.447436	0.667930	0.346830	-0.085583	-0.652881
51093	-5.332455	4.226245	5.547229	-0.390467	2.612716	-1.440843	0.669740	0.341446	-0.079363	-0.654648
51094	-5.136111	4.418755	4.902750	0.233038	2.642616	-1.881471	0.669668	0.340053	-0.078685	-0.655528
51095	-4.520525	5.883185	5.058882	1.427999	1.883757	-1.149461	0.669606	0.341061	-0.080011	-0.654908
51096	-4.462256	6.087367	5.378553	1.403395	1.705966	-0.811758	0.670729	0.341131	-0.080008	-0.653722
51097	-5.062494	4.871111	6.189362	-0.114669	2.096378	-0.688175	0.672683	0.339513	-0.077836	-0.652816
51098	-4.942134	4.221237	6.960635	-1.024859	1.774433	-0.512423	0.674056	0.337683	-0.076408	-0.652519
51099	-4.627643	4.577473	7.513247	-0.953302	1.268730	0.000499	0.674939	0.335853	-0.075268	-0.652683
51100	-4.248537	4.334520	7.185251	-0.878699	1.070106	-0.509545	0.675948	0.333170	-0.074029	-0.653156
51101	-4.171418	4.627644	6.912631	-0.436927	1.095161	-0.581768	0.676248	0.331292	-0.073865	-0.653818
51102	-4.003867	5.115959	6.200247	0.405599	1.171296	-0.918279	0.676722	0.329552	-0.073198	-0.654282
51103	-4.323754	5.033119	6.002955	0.437233	1.557478	-1.012373	0.677574	0.327538	-0.071440	-0.654606
51104	-3.632920	4.948747	6.237166	0.384736	0.850473	-1.111031	0.678634	0.324728	-0.069667	-0.655098
51105	-2.814145	4.058642	6.453594	-0.307805	0.087253	-1.692457	0.679936	0.321683	-0.066868	-0.655542
51106	-2.463350	3.253296	6.670541	-0.996635	-0.250698	-2.060797	0.680824	0.319054	-0.065079	-0.656086
51107	-1.582287	3.314767	6.975041	-0.958295	-1.171809	-2.076343	0.680687	0.318273	-0.065587	-0.656557
51108	-0.942198	3.933108	7.742377	-0.759637	-2.062888	-1.358766	0.680006	0.318823	-0.067899	-0.656760
51109	-0.593560	4.697334	7.908576	-0.210205	-2.480846	-0.937806	0.679141	0.320671	-0.071647	-0.656357
51110	-0.555603	5.682086	8.629073	0.147578	-2.803561	0.145853	0.678302	0.323111	-0.077318	-0.655383
51111	-0.147985	6.436853	8.935026	0.536148	-3.299516	0.680811	0.678036	0.325695	-0.083467	-0.653623
51112	0.413767	7.442667	8.568111	1.491876	-3.721124	0.812842	0.678364	0.328913	-0.090427	-0.650739
51113	0.398611	9.185151	8.585496	2.676823	-3.768563	1.886055	0.678450	0.336149	-0.100517	-0.645450
51114	-0.278507	11.311651	9.334738	3.438150	-3.441546	4.024819	0.679182	0.348584	-0.114102	-0.635753
51115	-1.517180	12.715409	10.973188	2.720011	-2.786299	6.594258	0.682103	0.361919	-0.128670	-0.622250
51116	-2.000112	13.217438	10.321895	2.749618	-1.982280	6.731693	0.687736	0.373798	-0.140206	-0.606331
51117	-2.248158	13.180901	8.939242	2.924107	-1.097779	5.964027	0.695086	0.387345	-0.150919	-0.586552
51118	-3.532486	13.089680	9.014052	1.737600	0.248402	6.371673	0.704090	0.402327	-0.161947	-0.562284
51119	-4.279737	13.717956	7.160356	2.413649	1.894973	5.944895	0.716331	0.414511	-0.168498	-0.535406
51120	-5.240388	13.496488	5.855568	2.158353	3.558099	5.238928	0.731986	0.422343	-0.167466	-0.507719
51121	-7.607531	11.735121	7.695380	-1.660239	4.778732	5.326602	0.750975	0.424939	-0.158334	-0.479994
51122	-9.658214	7.387729	6.974094	-5.108059	6.061863	1.747896	0.771638	0.422348	-0.143242	-0.453517
51123	-9.571070	2.190703	7.048199	-8.347768	4.462233	-2.298126	0.790633	0.416366	-0.127548	-0.430430
51124	-7.905452	-1.827209	7.470580	-9.980261	1.388303	-5.329717	0.803649	0.412013	-0.116476	-0.413312
51125	-5.087504	-2.754471	5.569053	-7.715665	-0.283484	-7.606374	0.809642	0.413257	-0.108423	-0.402420
51126	-5.092162	-0.346562	3.340662	-5.232908	1.630317	-7.135605	0.812175	0.417607	-0.098173	-0.395397
51127	-5.944768	3.425818	2.940684	-3.487178	3.627913	-4.299051	0.815979	0.416553	-0.084081	-0.391908
51128	-4.976658	5.072814	2.405341	-1.502843	3.844483	-3.548371	0.826868	0.397386	-0.063594	-0.392848
51129	-3.002744	3.115944	2.379723	-1.052615	1.889036	-5.373797	0.840067	0.367239	-0.038520	-0.397416
51130	-3.105448	-0.827371	5.296459	-4.380165	-1.245763	-5.615047	0.850262	0.335414	-0.011787	-0.405478
51131	-3.543769	-7.962912	6.880362	-9.789796	-4.886422	-7.928252	0.850949	0.316993	0.009599	-0.418700
51132	-3.265210	-10.215073	7.780209	-11.532945	-6.293395	-8.109512	0.836955	0.323063	0.018466	-0.441356
51133	-5.814122	-7.868343	7.326604	-11.423271	-2.669385	-6.387192	0.810455	0.343923	0.021032	-0.473749
51134	-9.801778	-4.356388	6.372120	-10.594542	2.683922	-3.798953	0.770223	0.378962	0.012403	-0.512827
51135	-12.882277	1.767576	4.282588	-5.953018	7.823598	-0.288084	0.720317	0.417932	-0.004342	-0.553586
51136	-15.489303	7.453441	3.374568	-1.137469	10.277911	4.320606	0.669929	0.443708	-0.018607	-0.594956
51137	-17.721469	8.061220	1.352648	1.160476	12.351168	5.242159	0.620368	0.457261	-0.028671	-0.636580
51138	-18.014934	9.162501	0.879581	3.921085	11.531502	6.328088	0.571054	0.460952	-0.034711	-0.678392
51139	-15.046753	6.867588	-0.272024	4.856402	9.340946	2.935349	0.523553	0.457772	-0.033519	-0.717784
51140	-14.773699	4.862495	-1.463387	5.631388	9.414037	1.298301	0.476373	0.457649	-0.025690	-0.750310
51141	-14.347356	2.622398	-1.808974	5.518879	9.326205	0.103396	0.427523	0.457628	-0.016429	-0.779442
51142	-15.029566	0.540721	-4.581217	7.593885	10.935204	-1.468325	0.374422	0.458530	-0.008517	-0.805907
51143	-16.705157	1.017459	-6.089024	10.874271	10.521702	-0.446391	0.309741	0.463786	-0.011496	-0.829958
51144	-17.980121	3.283256	-7.982459	15.256317	7.551509	0.545094	0.238683	0.465983	-0.016263	-0.851837
51145	-19.427419	10.520243	-12.046278	22.559617	-0.831729	1.244662	0.161910	0.464872	-0.032483	-0.869841
51146	-17.264042	21.696279	-13.253105	23.981625	-16.113531	0.559843	0.083279	0.455389	-0.053433	-0.884777
51147	-9.073148	28.772973	-5.314430	10.395308	-27.498312	-1.287312	0.012538	0.444400	-0.067472	-0.893196
51148	-5.154741	28.096700	-6.678844	5.849730	-28.544264	-6.530630	-0.041082	0.436264	-0.071266	-0.896051
51149	-1.949913	25.200645	-1.495168	-2.318742	-25.046629	-6.994900	-0.085882	0.431762	-0.084095	-0.893943
51150	2.351159	20.711481	5.054629	-10.663193	-18.373413	-6.883994	-0.115277	0.429535	-0.101213	-0.889925
51151	-0.582382	20.037934	8.626037	-12.339921	-16.332830	-2.253902	-0.129921	0.430954	-0.120344	-0.884826
51152	-6.176652	19.142882	13.812673	-12.993541	-14.002883	5.368480	-0.128841	0.437569	-0.126486	-0.880872
51153	-13.886993	10.895770	13.608698	-5.770107	-7.220785	10.468360	-0.111815	0.451780	-0.117528	-0.877257
51154	-19.753964	1.292192	14.921311	-1.025268	1.622008	14.901668	-0.095408	0.466808	-0.105408	-0.872855
51155	-14.460109	-1.118941	17.259541	-5.765057	4.844076	11.436190	-0.087905	0.476177	-0.100299	-0.869177
51156	-8.068594	0.109131	16.454724	-9.206872	3.674129	5.601441	-0.081108	0.483196	-0.094939	-0.866562
51157	-6.280761	2.775794	14.372877	-9.257522	0.443222	3.142119	-0.073131	0.487618	-0.087366	-0.865591
51158	-6.788968	3.507852	9.976684	-5.550861	-1.575410	1.350968	-0.060627	0.489964	-0.074282	-0.866454
51159	-8.056356	1.636539	5.529026	-0.771997	-0.863177	0.026519	-0.045518	0.488718	-0.059866	-0.869195
51160	-7.919139	0.176792	2.235170	2.223382	0.020478	-1.888316	-0.029246	0.485709	-0.046344	-0.872401
51161	-8.404511	-0.681113	1.329173	3.383332	0.833764	-2.020177	-0.013323	0.482737	-0.036370	-0.874908
51162	-8.380331	-1.356886	0.489987	4.146446	1.564134	-2.555289	0.001311	0.479261	-0.029145	-0.877187
51163	-8.024732	-1.372287	0.257253	4.168218	1.696414	-3.023575	0.012373	0.475963	-0.027429	-0.878950
51164	-7.697084	-0.243401	0.811557	3.542230	0.707925	-2.963382	0.020266	0.473296	-0.030185	-0.880153
51165	-8.192065	1.168045	1.703131	3.108202	-0.509294	-1.973473	0.026119	0.471552	-0.034605	-0.880772
51166	-8.336860	2.328042	2.641579	2.451736	-1.497896	-1.231012	0.031272	0.470071	-0.038180	-0.881248
51167	-8.927200	1.997433	3.059049	2.456634	-0.991533	-0.537810	0.037098	0.469444	-0.039982	-0.881276
51168	-10.212626	1.141059	3.346706	2.920578	0.107880	0.592016	0.042647	0.469612	-0.041493	-0.880866
51169	-10.514177	0.359953	4.128189	2.404513	1.042794	1.180481	0.046971	0.469836	-0.042703	-0.880468
51170	-9.568489	-0.517913	4.390980	1.614829	1.878398	0.432729	0.049174	0.470237	-0.044646	-0.880037
51171	-8.992919	-0.492694	4.604860	1.088938	1.846733	0.072828	0.049374	0.472303	-0.048157	-0.878734
51172	-9.408773	0.390275	4.855193	1.084669	1.096637	0.669224	0.048542	0.474986	-0.052087	-0.877108
51173	-9.651135	1.579450	5.282838	0.831497	0.019611	1.271323	0.047845	0.477269	-0.054362	-0.875768
51174	-9.402504	1.368961	5.618180	0.350760	0.227486	1.217727	0.048372	0.479508	-0.053923	-0.874542
51175	-8.643920	0.767857	5.951727	-0.407681	0.724297	0.677257	0.049919	0.481712	-0.052101	-0.873354
51176	-8.460893	0.398051	6.574087	-1.101477	1.067659	0.799108	0.052791	0.484190	-0.049251	-0.871979
51177	-8.859974	0.153094	7.120818	-1.432192	1.343514	1.384266	0.056979	0.486613	-0.045064	-0.870592
51178	-9.219791	-0.622803	7.212379	-1.435703	2.096918	1.630716	0.062739	0.488727	-0.038973	-0.869305
51179	-10.386580	-1.350813	7.194045	-0.955054	2.906474	2.520153	0.069222	0.490731	-0.032389	-0.867953
51180	-11.570466	-1.606546	7.337563	-0.579520	3.260866	3.578599	0.074883	0.491667	-0.026515	-0.867152
51181	-10.550875	-1.685485	7.194179	-1.020629	3.098000	2.648367	0.079341	0.491118	-0.020097	-0.867240
51182	-9.078940	-1.201568	6.868101	-1.429486	2.299428	1.309809	0.082755	0.489881	-0.013476	-0.867748
51183	-8.262706	-0.567539	6.799388	-1.679563	1.441409	0.671889	0.085259	0.488272	-0.006834	-0.868490
51184	-8.122074	-0.161640	6.545237	-1.429753	0.918862	0.480231	0.087972	0.485521	0.000950	-0.869787
51185	-7.843569	-0.515899	5.936551	-1.040183	1.151526	-0.085376	0.091249	0.481875	0.009585	-0.871423
51186	-8.234007	-1.434068	5.331824	-0.404650	2.060718	-0.123928	0.093926	0.477730	0.017292	-0.873300
51187	-8.209556	-1.832260	4.969341	-0.106451	2.404989	-0.344210	0.094391	0.473630	0.022088	-0.875373
51188	-7.946644	-1.269568	4.905397	-0.009519	1.766527	-0.555125	0.092692	0.470124	0.024322	-0.877383
51189	-9.211537	-0.564641	4.844333	0.922215	1.209457	0.498714	0.089432	0.468091	0.025558	-0.878772
51190	-9.907078	-0.396044	5.541293	0.837384	0.982201	1.472070	0.086466	0.464854	0.028377	-0.880698
51191	-7.555343	-1.594967	5.079179	-0.204549	1.843682	-0.758238	0.085045	0.460954	0.032996	-0.882723
51192	-6.359664	-2.916020	4.644659	-0.694927	2.997281	-1.998953	0.085328	0.458430	0.036315	-0.883879
51193	-6.234826	-3.262997	4.704709	-0.846841	3.293997	-2.061113	0.085359	0.457135	0.036534	-0.884537
51194	-6.261976	-2.924162	4.861361	-0.881127	2.940613	-1.940438	0.084481	0.457001	0.036387	-0.884697
51195	-5.898376	-2.616948	5.196958	-1.294173	2.538923	-2.032804	0.082395	0.457187	0.037050	-0.884770
51196	-5.517184	-2.549767	4.905311	-1.258651	2.449332	-2.503842	0.078696	0.458216	0.037263	-0.884566
51197	-6.303553	-1.853438	4.866597	-0.664878	1.829490	-1.871362	0.073269	0.459942	0.036324	-0.884175
51198	-7.566375	-0.796996	4.965671	0.128733	0.861497	-0.769226	0.066947	0.461352	0.035670	-0.883968
51199	-8.093877	-0.183075	5.037885	0.445220	0.227238	-0.290385	0.060348	0.462635	0.036648	-0.883733
51200	-8.567799	0.326241	5.149339	0.667025	-0.353269	0.160198	0.053780	0.464435	0.039170	-0.883105
51201	-8.355316	0.222955	5.085827	0.556810	-0.376881	-0.051890	0.047764	0.465957	0.043074	-0.882467
51202	-7.855128	-0.182873	5.097200	0.196587	-0.124102	-0.449859	0.042335	0.467164	0.047636	-0.881871
51203	-8.273760	-0.152516	5.247708	0.284740	-0.286408	-0.022271	0.036634	0.469047	0.051808	-0.880891
51204	-8.530399	0.206897	5.819534	-0.048575	-0.839402	0.481427	0.030274	0.471519	0.055662	-0.879576
51205	-8.640893	0.436899	6.128377	-0.298323	-1.244069	0.712217	0.023577	0.475820	0.059665	-0.877200
51206	-9.314868	0.844989	6.592150	-0.399914	-1.867468	1.469425	0.017816	0.481119	0.064349	-0.874109
51207	-8.541110	0.720256	6.578797	-0.939035	-1.868868	0.787910	0.014432	0.485710	0.069918	-0.871200
51208	-7.402876	-0.502753	6.431389	-1.618022	-0.718607	-0.154426	0.015102	0.489363	0.076264	-0.868608
51209	-8.038322	-2.335564	6.281246	-1.432634	0.983199	0.507331	0.018568	0.493201	0.081800	-0.865862
51210	-9.797027	-2.443680	5.964658	-0.395978	0.979589	1.866879	0.021879	0.497443	0.086200	-0.862926
51211	-10.579051	-2.466886	5.756599	0.043723	0.908037	2.447464	0.023519	0.501304	0.092456	-0.859996
51212	-10.370101	-2.706476	5.738525	-0.201848	1.010593	2.300477	0.023905	0.505325	0.100482	-0.856725
51213	-9.977760	-3.601860	5.512773	-0.450199	1.773570	2.001167	0.022871	0.509482	0.108543	-0.853301
51214	-9.358130	-2.796069	5.384568	-0.634996	0.889246	1.286389	0.020555	0.513493	0.114392	-0.850187
51215	-8.695461	-1.192639	5.153230	-0.603096	-0.713954	0.322077	0.018449	0.517116	0.120803	-0.847146
51216	-8.641419	-0.706737	4.825720	-0.349229	-1.260356	0.023372	0.016888	0.520499	0.128817	-0.843920
51217	-8.836095	-1.658712	4.272518	-0.005129	-0.402641	0.133012	0.015387	0.523748	0.138012	-0.840478
51218	-9.220676	-1.957556	4.373528	-0.057166	-0.373387	0.571630	0.013819	0.527282	0.147579	-0.836662
51219	-8.861450	-2.315808	3.928756	0.026165	-0.055488	0.153079	0.013594	0.530041	0.157414	-0.833122
51220	-7.832507	-2.838231	3.051608	0.176801	0.671058	-0.967776	0.013621	0.532498	0.166220	-0.829838
51221	-7.030220	-2.316241	2.055489	0.752517	0.469577	-2.182070	0.011147	0.534810	0.171600	-0.827289
51222	-6.446533	-1.598186	1.684501	0.932982	-0.095073	-3.025254	0.005676	0.537555	0.175038	-0.824842
51223	-6.619321	-0.881582	1.768611	1.022671	-0.918588	-3.042913	-0.000561	0.541352	0.178369	-0.821658
51224	-7.418061	-2.123165	2.051975	0.788324	-0.098406	-1.868321	-0.004879	0.546805	0.183207	-0.816955
51225	-7.859053	-3.298872	2.696943	0.050893	0.605851	-0.893685	-0.008810	0.553261	0.187294	-0.811631
51226	-8.174050	-3.048782	2.984793	-0.177585	0.106119	-0.594576	-0.013570	0.560219	0.190425	-0.806045
51227	-7.915650	-2.595758	2.558004	0.068089	-0.246180	-1.102273	-0.020533	0.566490	0.192793	-0.800936
51228	-7.117258	-1.763812	2.460341	-0.090585	-0.904618	-2.132127	-0.029423	0.572732	0.194835	-0.795708
51229	-7.399988	-1.773874	2.733440	-0.374795	-1.165467	-1.820422	-0.036970	0.580040	0.198216	-0.789238
51230	-8.276666	-2.089703	2.014577	0.364278	-1.069471	-1.115114	-0.043122	0.588294	0.202164	-0.781780
51231	-9.026143	-2.105175	1.411421	0.957954	-1.273570	-0.574198	-0.049681	0.597501	0.205459	-0.773506
51232	-9.456858	-0.946242	1.095336	1.343358	-2.541366	-0.688123	-0.058090	0.606899	0.206532	-0.765273
51233	-9.292508	0.594313	0.845483	1.533124	-3.977367	-1.491562	-0.067711	0.616920	0.206773	-0.756353
51234	-8.807752	2.433370	1.031324	1.239771	-5.653101	-2.667179	-0.077317	0.627607	0.206876	-0.746548
51235	-8.557606	3.813976	2.160500	0.004605	-7.148243	-3.382943	-0.082815	0.639390	0.209374	-0.735177
51236	-9.926279	3.728925	3.428350	-1.303206	-7.944763	-2.108026	-0.082296	0.653230	0.215581	-0.721140
51237	-12.648716	2.335614	5.311213	-3.325525	-8.270349	0.872912	-0.075862	0.666321	0.224048	-0.707152
51238	-15.052972	1.053158	6.564753	-4.851441	-8.460739	3.441323	-0.069247	0.674521	0.228746	-0.698500
51239	-15.442729	3.051633	6.712910	-4.721253	-10.406846	2.925424	-0.064129	0.677473	0.227251	-0.696616
51240	-15.314904	7.315908	6.507010	-3.611180	-13.952801	1.263292	-0.055567	0.676884	0.221722	-0.699700
51241	-14.537334	10.669327	5.966923	-2.207020	-16.301956	-0.320110	-0.038147	0.674780	0.216390	-0.704551
51242	-15.149913	11.812905	5.622071	-1.138362	-17.096159	0.531533	-0.012333	0.671551	0.208738	-0.710842
51243	-17.320380	13.594919	6.448527	-0.612039	-18.966028	3.074718	0.021766	0.665048	0.198072	-0.719726
51244	-19.469625	14.942952	7.433573	0.049193	-19.936068	6.301848	0.061870	0.651931	0.181023	-0.733750
51245	-20.643970	16.303800	8.167886	1.328249	-19.898311	9.162371	0.109170	0.629145	0.156310	-0.753542
51246	-21.129543	17.288192	5.704897	5.795298	-17.303977	11.244295	0.166948	0.597374	0.124066	-0.774520
51247	-22.415914	17.734070	5.220690	8.588222	-13.641155	14.317754	0.231872	0.560548	0.080755	-0.790886
51248	-28.418734	15.223413	6.386070	9.542014	-5.018715	21.183752	0.302229	0.524515	0.030508	-0.795368
51249	-42.361042	10.891823	10.535107	8.131088	10.329030	33.148704	0.374918	0.490333	-0.017047	-0.786587
51250	-47.814306	0.854527	7.564572	5.365465	29.644721	27.992228	0.448240	0.442503	-0.066249	-0.773876
51251	-42.228687	1.465013	3.714526	5.881331	32.898829	16.168118	0.511334	0.398579	-0.141487	-0.748100
51252	-39.428288	11.574296	12.882229	2.663849	30.308908	20.546479	0.568964	0.363443	-0.213706	-0.706059
51253	-44.324978	9.295706	26.355593	-11.163967	39.840860	22.233236	0.636429	0.301155	-0.251584	-0.664055
51254	-32.290381	8.987319	-25.955922	22.509675	33.083712	-23.437718	0.708141	0.195045	-0.217804	-0.642694
51255	-22.892451	7.235945	-63.640654	33.083824	22.072186	-64.763803	0.733270	0.093691	-0.138646	-0.659025
51256	-27.682592	-19.006192	-50.530846	-11.393310	20.410564	-65.599038	0.750491	-0.031729	-0.067884	-0.656618
51257	-2.568318	-77.607829	-7.643724	-77.476460	-7.096746	-12.556297	0.727208	-0.163440	-0.040312	-0.665455
51258	27.875610	-45.866625	-10.955388	-42.923708	-33.910214	-8.183628	0.739279	-0.101386	-0.111846	-0.656261
51259	-0.464883	9.078784	-2.614541	9.256177	1.206804	-11.106062	0.746819	0.014016	-0.204215	-0.632741
51260	-6.140260	67.649130	13.496539	53.852801	23.876276	26.318148	0.752491	0.115759	-0.248307	-0.598917
51261	-2.141802	30.212881	7.095327	23.494909	10.775989	7.384228	0.759666	0.016981	-0.202501	-0.617748
51262	4.469017	-22.224108	-10.677017	-17.814601	-11.975024	-22.668568	0.767303	-0.060723	-0.146587	-0.621346
51263	-2.120494	-29.692116	4.999563	-29.967389	-3.481490	-8.875448	0.770734	-0.047059	-0.152460	-0.616856
51264	-0.038340	-4.231582	4.317405	-5.033440	0.016717	-6.469196	0.774702	-0.005269	-0.181118	-0.605810
51265	0.342264	14.759160	7.578842	11.241011	5.203431	1.218475	0.769603	0.041723	-0.206875	-0.602639
51266	0.674793	13.317822	11.882750	8.013847	5.242083	5.263498	0.772915	0.028070	-0.199223	-0.601768
51267	1.734941	-1.282356	10.741510	-4.337414	0.188899	0.245361	0.775439	0.008580	-0.187157	-0.602986
51268	1.779200	-5.974152	9.309970	-8.057867	-1.373439	-2.150085	0.776712	0.011062	-0.189514	-0.600567
51269	2.593075	2.217262	11.567285	-1.441265	0.434972	2.150043	0.776722	0.043775	-0.208883	-0.592582
51270	3.888664	10.974653	15.131171	4.796052	2.202671	8.535453	0.776761	0.052115	-0.212002	-0.590747
51271	5.663810	7.171824	9.994977	3.747715	-1.516938	3.112647	0.777226	0.047179	-0.207165	-0.592264
51272	3.537180	5.009549	9.406313	1.722440	-0.265361	1.279987	0.777798	0.044551	-0.202297	-0.593398
51273	-0.103210	1.246691	8.949271	-2.177706	1.982455	-1.269796	0.778054	0.040302	-0.198954	-0.594495
51274	0.959496	0.168658	8.501862	-2.770788	0.591966	-1.737913	0.777407	0.045215	-0.203179	-0.593559
51275	1.151840	5.179317	10.426743	0.822815	2.121580	1.662334	0.776386	0.060582	-0.212120	-0.590389
51276	0.829689	9.095232	10.919186	3.787416	3.566455	3.437778	0.776129	0.064819	-0.213282	-0.589859
51277	1.464230	6.733435	9.171454	2.557650	1.978529	1.193738	0.776450	0.061377	-0.209663	-0.591101
51278	0.639239	3.583575	9.267224	-0.336585	1.847352	-0.034928	0.776874	0.056948	-0.204833	-0.592678
51279	-0.219553	2.415027	8.386416	-1.150030	2.177925	-1.437332	0.776670	0.057362	-0.203728	-0.593285
51280	-0.104932	4.778829	8.478867	0.919480	2.742202	-0.518952	0.776107	0.061770	-0.205915	-0.592825
51281	-0.250357	5.475893	8.635361	1.398515	3.083677	-0.161127	0.775611	0.062322	-0.206484	-0.593219
51282	-0.733093	5.976495	8.839289	1.646135	3.711175	0.082076	0.775017	0.062889	-0.207421	-0.593607
51283	-1.248272	5.669427	8.682622	1.338303	4.103620	-0.301774	0.774595	0.060101	-0.207526	-0.594410
51284	-1.189787	5.842096	8.376032	1.654268	4.080970	-0.522231	0.774106	0.058535	-0.208262	-0.594945
51285	-1.745804	5.333671	9.139337	0.816301	4.618931	-0.167901	0.773188	0.054724	-0.208931	-0.596266
51286	-1.130392	4.017127	9.395358	-0.294591	3.759795	-0.248977	0.771501	0.051439	-0.210179	-0.598302
51287	-1.646881	5.061574	11.141344	-0.128527	4.884436	1.526925	0.769630	0.050735	-0.212949	-0.599790
51288	-2.841997	6.745520	12.192449	0.729838	6.694929	2.712485	0.767886	0.050454	-0.215022	-0.601307
51289	-3.289945	5.655879	13.337230	-0.774475	7.037813	3.247316	0.765133	0.050286	-0.215844	-0.604528
51290	-2.407851	4.075851	13.453919	-2.087431	5.766388	3.063999	0.760734	0.054323	-0.216561	-0.609454
51291	-1.650528	5.070888	13.426056	-1.173264	5.140205	3.636882	0.754381	0.065855	-0.219017	-0.615308
51292	-2.023241	7.655688	13.395882	0.872348	5.814615	4.594426	0.746434	0.080236	-0.221344	-0.622419
51293	-1.944023	9.829262	12.493333	3.021934	5.677327	4.853392	0.738017	0.092498	-0.219872	-0.631214
51294	-1.816159	9.882912	11.581182	3.443286	5.006194	4.264207	0.730424	0.101531	-0.214003	-0.640606
51295	-1.085321	7.788022	10.863556	2.032913	3.500927	2.972082	0.724776	0.106192	-0.206508	-0.648673
51296	1.580120	5.768209	9.867853	0.952720	0.270973	1.683422	0.720829	0.106933	-0.201400	-0.654530
51297	4.723044	3.802382	9.633318	-0.419996	-3.202558	1.102058	0.718322	0.104164	-0.194401	-0.659827
51298	4.354008	0.455953	8.381079	-2.823079	-3.415741	-1.459909	0.715267	0.101822	-0.183162	-0.666691
51299	1.585781	-1.409739	7.235904	-4.120862	-1.037199	-3.583519	0.710597	0.106491	-0.174937	-0.673134
51300	0.996419	1.036709	7.924708	-2.237671	-0.319194	-2.082474	0.704172	0.118746	-0.176339	-0.677456
51301	3.287373	5.200003	8.381740	1.262074	-2.491622	0.202064	0.698903	0.127581	-0.175228	-0.681581
51302	4.376991	6.064513	6.745333	2.727025	-3.839848	-0.910491	0.696262	0.130161	-0.163404	-0.686715
51303	3.171333	5.227411	4.562662	2.973877	-2.955116	-3.439509	0.694751	0.131719	-0.145106	-0.692037
51304	2.052807	2.784716	3.272742	1.360023	-2.050514	-5.735812	0.694135	0.132766	-0.121485	-0.696987
51305	-0.165073	0.378113	2.419512	-0.485772	0.074594	-7.408185	0.692700	0.138731	-0.098879	-0.700816
51306	-1.268090	-0.158350	2.850413	-1.084925	1.059935	-7.082108	0.688827	0.148132	-0.079928	-0.705114
51307	-0.756453	-0.631779	3.526467	-1.722578	0.399755	-6.606561	0.683863	0.158089	-0.065270	-0.709281
51308	0.459981	-1.134979	3.598385	-2.237802	-0.870974	-6.866280	0.677404	0.169289	-0.056544	-0.713630
51309	0.405873	-0.817618	3.183225	-1.845290	-0.835464	-7.193106	0.668481	0.185811	-0.054475	-0.718081
51310	-0.807067	0.268735	4.104653	-1.198123	0.006469	-5.796026	0.656871	0.208497	-0.055025	-0.722511
51311	-2.002396	1.696627	6.499843	-0.910684	0.333348	-2.871088	0.643926	0.233273	-0.055079	-0.726574
51312	-1.916642	2.630257	8.321640	-1.079743	-0.578670	-0.962434	0.630765	0.255009	-0.053789	-0.730898
51313	-2.171798	3.447717	8.339293	-0.593120	-0.836074	-0.588767	0.616862	0.275876	-0.048996	-0.735509
51314	-3.936211	3.387700	7.610429	-0.346935	0.600445	-0.626448	0.601626	0.298378	-0.037962	-0.739983
51315	-5.618209	1.797541	7.259136	-1.518343	2.158026	-0.840526	0.584656	0.323642	-0.021043	-0.743633
51316	-7.441611	0.433707	7.818891	-2.898433	3.386841	0.025334	0.566040	0.352205	-0.002218	-0.745349
51317	-8.873186	-0.398426	9.073431	-4.289720	3.706333	1.546562	0.543063	0.383026	0.012274	-0.747143
51318	-9.222564	-0.521536	8.548256	-4.290939	3.608092	1.453841	0.512112	0.415770	0.019787	-0.751323
51319	-9.674941	-1.769158	8.124116	-5.172334	4.170555	1.075902	0.470577	0.452384	0.025298	-0.757143
51320	-12.824284	0.862396	9.060780	-3.747293	3.718511	4.997633	0.419498	0.492659	0.024288	-0.762049
51321	-13.671154	5.280246	8.741170	-1.130297	0.561529	7.200706	0.367298	0.526452	0.014580	-0.766634
51322	-13.329501	9.545374	5.289230	3.195292	-2.429432	6.935010	0.317821	0.549318	0.003908	-0.772803
51323	-11.148247	15.884631	2.947661	6.968906	-9.056171	6.138510	0.267692	0.560953	-0.003388	-0.783366
51324	-6.477424	18.136845	8.017072	1.479066	-15.568225	3.988136	0.233281	0.566759	0.003772	-0.790158
51325	-6.449564	11.515773	8.867932	-2.161938	-10.578539	1.858582	0.212017	0.570833	0.020210	-0.792963
51326	-8.351872	7.482849	7.702098	-2.126658	-6.555848	1.914807	0.198391	0.576363	0.038573	-0.791808
51327	-12.271952	6.241660	3.794948	1.972372	-3.767086	3.820252	0.189849	0.578669	0.055363	-0.791223
51328	-10.586660	6.242451	3.227221	2.147304	-4.382950	1.918894	0.181938	0.576070	0.065333	-0.794212
51329	-8.250408	5.734184	3.521985	1.178491	-4.746685	-0.355974	0.177642	0.575860	0.076715	-0.794319
51330	-9.182132	2.677835	4.722163	-0.730490	-2.311960	0.574789	0.172940	0.578570	0.083130	-0.792741
51331	-8.762085	2.101604	5.221287	-1.542528	-2.152454	0.259012	0.165573	0.581238	0.084385	-0.792230
51332	-9.119340	2.460681	3.947168	-0.235689	-2.119115	0.199808	0.159920	0.584154	0.085946	-0.791078
51333	-9.906140	3.411484	2.484650	1.560453	-2.495011	0.545053	0.155049	0.585979	0.083530	-0.790956
51334	-9.515005	5.296702	3.198543	1.373947	-4.546261	0.495748	0.151465	0.587396	0.077093	-0.791253
51335	-9.269039	6.489651	3.728758	1.126891	-5.798395	0.533392	0.152650	0.588975	0.071497	-0.790376
51336	-9.789653	6.505565	3.958730	1.010802	-5.685879	1.163581	0.157362	0.588970	0.067669	-0.789793
51337	-8.466962	4.339508	4.332101	-0.337465	-3.873299	-0.108534	0.163511	0.586627	0.067847	-0.790272
51338	-8.932508	1.748405	3.103462	0.078005	-0.954217	-0.243913	0.171384	0.585899	0.073080	-0.788676
51339	-10.975565	0.758826	1.161784	1.999386	0.957293	1.025883	0.182526	0.584579	0.085005	-0.785955
51340	-11.862857	-0.393588	0.364323	2.451160	2.456358	1.543932	0.190822	0.583938	0.094910	-0.783323
51341	-12.327711	-1.939543	2.296000	0.192173	3.221164	2.458942	0.193883	0.583563	0.099207	-0.782318
51342	-11.289047	-1.865306	2.760981	-0.449145	2.751278	1.622943	0.194731	0.583086	0.101396	-0.782182
51343	-9.967863	0.099219	2.983824	-0.139439	0.621259	0.573165	0.195920	0.582699	0.103082	-0.781953
51344	-9.386008	2.665672	1.543538	2.050996	-1.263243	-0.232340	0.197144	0.583825	0.104729	-0.780586
51345	-9.555156	2.761900	1.801877	1.898429	-1.423450	0.013075	0.199242	0.583721	0.106908	-0.779835
51346	-8.459920	1.784491	2.367045	0.739837	-0.963059	-0.931097	0.202396	0.582407	0.109009	-0.779714
51347	-8.675856	1.405070	2.280634	0.707992	-0.531421	-0.775968	0.204433	0.582538	0.109272	-0.779049
51348	-9.169636	1.579060	2.843980	0.402913	-0.792329	-0.123848	0.205760	0.582650	0.107724	-0.778831
51349	-9.330845	1.369056	2.596828	0.552822	-0.432921	-0.056187	0.207682	0.582370	0.106408	-0.778711
51350	-9.281884	1.046144	2.426106	0.541238	-0.039988	-0.177385	0.208509	0.582085	0.103937	-0.779037
51351	-9.333910	1.358932	2.617901	0.522173	-0.340183	-0.043684	0.209265	0.581777	0.101708	-0.779358
51352	-9.236317	1.468858	2.101645	0.990680	-0.214500	-0.280823	0.209416	0.581726	0.099405	-0.779653
51353	-9.192050	2.002215	2.276135	1.053865	-0.736859	-0.219474	0.208832	0.581858	0.096563	-0.780068
51354	-9.201189	2.676973	2.766946	0.910942	-1.503674	0.005313	0.208762	0.582000	0.094906	-0.780184
51355	-9.315850	2.832000	2.575356	1.167690	-1.524046	0.074248	0.209944	0.581752	0.094848	-0.780059
51356	-9.631254	2.844898	2.701799	1.144252	-1.499851	0.414498	0.211620	0.581234	0.095520	-0.779910
51357	-9.749557	2.371923	2.662715	1.017736	-1.021493	0.467908	0.213955	0.580140	0.097086	-0.779894
51358	-9.746659	1.882029	2.969964	0.558444	-0.698446	0.510120	0.215974	0.579164	0.098829	-0.779844
51359	-9.933128	1.751978	2.926648	0.606459	-0.523544	0.659169	0.217665	0.578050	0.100735	-0.779957
51360	-9.954973	1.524780	2.815620	0.632518	-0.275751	0.621773	0.218668	0.576913	0.102265	-0.780319
51361	-9.931181	1.665784	2.933143	0.622807	-0.461442	0.647025	0.219217	0.575579	0.103875	-0.780937
51362	-9.751785	1.965052	2.725980	0.935378	-0.695993	0.435735	0.219534	0.573975	0.106049	-0.781736
51363	-9.512995	1.900101	2.366086	1.209453	-0.561668	0.083129	0.220557	0.571555	0.109246	-0.782780
51364	-9.443159	1.362481	2.385439	0.984019	-0.137471	-0.028393	0.221690	0.569525	0.113321	-0.783360
51365	-10.148580	0.838220	2.441333	0.922498	0.417199	0.609930	0.222591	0.567402	0.117362	-0.784050
51366	-10.078673	0.445601	2.655141	0.597733	0.615423	0.584018	0.222919	0.565035	0.120929	-0.785123
51367	-9.938898	-0.028488	2.487656	0.536106	1.037408	0.366059	0.222563	0.562721	0.123711	-0.786452
51368	-9.507000	-0.362160	2.870638	0.000879	1.038706	0.070405	0.221367	0.560708	0.125387	-0.787960
51369	-9.311828	-0.323688	3.182234	-0.239497	0.798411	-0.002160	0.219350	0.559348	0.126538	-0.789306
51370	-9.258204	-0.010269	3.264098	-0.124452	0.449464	-0.007023	0.216260	0.558248	0.126613	-0.790923
51371	-9.063050	0.376839	2.993204	0.272856	0.162297	-0.266004	0.212429	0.557447	0.126169	-0.792596
51372	-9.182938	0.751817	2.981459	0.530367	-0.165333	-0.144600	0.207694	0.556846	0.124500	-0.794535
51373	-8.995233	1.037195	3.581913	0.136663	-0.736049	-0.103954	0.203716	0.556249	0.124045	-0.796052
51374	-9.083818	0.910784	3.452462	0.238092	-0.591661	-0.073190	0.201303	0.555956	0.125491	-0.796644
51375	-9.046059	0.168865	3.399379	-0.047072	0.041628	-0.147731	0.199962	0.555589	0.127154	-0.796974
51376	-8.781912	-0.482194	3.777724	-0.726765	0.376024	-0.275604	0.198946	0.555622	0.129056	-0.796900
51377	-8.785875	-0.810655	3.437979	-0.587643	0.777964	-0.393673	0.197765	0.556066	0.130030	-0.796726
51378	-8.429417	-0.921970	3.344658	-0.670754	0.838567	-0.760686	0.195248	0.556930	0.128771	-0.796948
51379	-8.263947	-0.429896	3.757357	-0.860351	0.190728	-0.767317	0.191989	0.558741	0.127176	-0.796728
51380	-8.471454	0.238280	3.619392	-0.416205	-0.331675	-0.612745	0.188742	0.560944	0.125756	-0.796181
51381	-9.030449	0.409305	3.839219	-0.405144	-0.507681	-0.012993	0.185822	0.563525	0.124667	-0.795216
51382	-9.625631	0.513739	3.724492	-0.141278	-0.490103	0.508554	0.183520	0.566239	0.123985	-0.793928
51383	-10.056171	0.548405	3.774574	-0.109005	-0.506474	0.930023	0.181726	0.569282	0.123582	-0.792225
51384	-9.617362	0.693182	4.019480	-0.453877	-0.833059	0.590671	0.180691	0.572304	0.124042	-0.790210
51385	-8.949158	0.562363	3.895032	-0.656617	-0.801988	-0.091573	0.180748	0.575342	0.125928	-0.787689
51386	-8.240925	0.281892	3.816466	-0.967017	-0.665189	-0.802720	0.181102	0.578608	0.128450	-0.784803
51387	-7.841181	0.092611	3.612652	-1.044555	-0.519586	-1.258025	0.181356	0.582091	0.131172	-0.781712
51388	-7.818672	0.144425	3.550794	-1.046075	-0.598197	-1.309289	0.181227	0.586007	0.133420	-0.778429
51389	-7.723894	0.588849	3.673615	-1.062802	-1.117769	-1.379368	0.181450	0.590406	0.136119	-0.774576
51390	-7.790172	0.918237	3.456176	-0.800704	-1.375526	-1.390047	0.182156	0.595076	0.139294	-0.770260
51391	-8.073108	1.345155	3.514701	-0.692092	-1.820870	-1.121212	0.183415	0.600184	0.143514	-0.765207
51392	-8.474781	1.484917	2.930335	-0.134603	-1.723413	-0.889448	0.185237	0.605146	0.148103	-0.759968
51393	-9.332089	1.472751	2.894564	-0.047596	-1.684538	-0.076478	0.187181	0.610402	0.152441	-0.754410
51394	-10.182688	1.468208	2.793887	0.078179	-1.623952	0.723147	0.190344	0.614820	0.156974	-0.749082
51395	-10.673971	1.278482	2.486513	0.219363	-1.331861	1.138448	0.194418	0.619144	0.161920	-0.743400
51396	-11.617952	1.356098	2.618890	0.164986	-1.442887	2.085358	0.199252	0.623167	0.167463	-0.737508
51397	-11.515484	1.275731	1.933583	0.579380	-1.098079	1.867642	0.206023	0.625901	0.174110	-0.731771
51398	-10.789512	0.638295	1.408097	0.498402	-0.383511	1.068823	0.213892	0.627991	0.181898	-0.725803
51399	-10.689234	-0.114349	1.174153	0.173499	0.325297	0.935070	0.222156	0.629720	0.190341	-0.719631
51400	-10.143132	-0.763280	1.210328	-0.386611	0.748423	0.396118	0.228840	0.631639	0.197511	-0.713900
51401	-9.904527	-0.860061	1.314814	-0.653011	0.699468	0.169872	0.233362	0.633763	0.201963	-0.709294
51402	-9.267820	-0.423502	1.589318	-0.762879	0.108191	-0.431667	0.235796	0.636307	0.203298	-0.705821
51403	-9.124014	0.221579	1.974350	-0.781109	-0.664671	-0.531394	0.238074	0.638797	0.204339	-0.702499
51404	-9.088662	0.760058	2.189289	-0.704320	-1.245498	-0.543018	0.241558	0.640776	0.206920	-0.698742
51405	-9.263665	0.678449	2.300932	-0.880586	-1.267797	-0.368800	0.246607	0.641649	0.212424	-0.694513
51406	-9.468095	0.716770	2.241249	-0.826272	-1.306862	-0.179895	0.252732	0.641660	0.220697	-0.689704
51407	-10.113155	-0.200773	1.620949	-0.909611	-0.249144	0.387967	0.260153	0.640492	0.231602	-0.684435
51408	-10.495282	-1.196278	1.783661	-1.679608	0.311434	0.762945	0.267013	0.638361	0.243005	-0.679815
51409	-10.263041	-2.103627	1.133484	-1.824931	1.275905	0.486837	0.272907	0.635466	0.254448	-0.675989
51410	-9.664722	-2.878057	-0.092295	-1.503637	2.538968	-0.169529	0.274822	0.633617	0.261883	-0.674106
51411	-8.649932	-2.082359	-1.035195	-0.300752	2.505470	-1.218463	0.269279	0.634685	0.263015	-0.674898
51412	-8.244637	0.151226	-0.944863	1.201273	0.730556	-1.632724	0.259111	0.637953	0.260794	-0.676657
51413	-8.161843	1.857804	-0.047208	1.704604	-1.252740	-1.713746	0.249155	0.641779	0.259274	-0.677362
51414	-8.146401	2.306839	0.891593	1.288505	-2.331009	-1.726560	0.244622	0.643875	0.262942	-0.675609
51415	-7.875546	0.888193	0.694077	0.471149	-1.244495	-1.969017	0.243305	0.644974	0.270230	-0.672152
51416	-7.857424	-0.556761	0.724501	-0.531158	-0.315363	-1.926565	0.241094	0.646512	0.278063	-0.668264
51417	-8.141986	-1.178834	0.639788	-0.892431	0.042697	-1.609603	0.236188	0.649038	0.284966	-0.664650
51418	-7.908462	-0.881680	0.258497	-0.433444	-0.052160	-1.863122	0.229425	0.651843	0.290137	-0.662032
51419	-7.432874	-0.601780	-0.056339	-0.041856	-0.155623	-2.357151	0.221376	0.655219	0.295197	-0.659196
51420	-7.762133	-0.549800	-0.221253	0.117166	-0.278829	-2.034013	0.212812	0.658823	0.301256	-0.655674
51421	-7.852159	-0.942100	-0.392190	-0.031782	-0.073891	-1.895104	0.204621	0.662259	0.308608	-0.651386
51422	-7.830803	-0.695822	-0.113866	-0.093405	-0.638818	-1.976999	0.196274	0.665899	0.317103	-0.646144
51423	-7.937248	-0.977522	-0.856744	0.241925	-0.170303	-1.775405	0.189316	0.669155	0.326881	-0.639953
51424	-7.344940	-2.255217	-1.715621	-0.040195	1.225959	-2.036490	0.181893	0.672273	0.335817	-0.634185
51425	-7.315443	-3.348196	-2.165385	-0.470363	2.097121	-1.763372	0.171452	0.676066	0.342935	-0.629233
51426	-7.576832	-3.587056	-2.136534	-0.635299	1.948605	-1.408281	0.157566	0.680317	0.348617	-0.625147
51427	-7.909225	-3.025984	-2.056741	-0.280225	1.148201	-1.179064	0.142046	0.684371	0.353916	-0.621452
51428	-8.220300	-2.829589	-2.026691	-0.135656	0.611583	-0.908327	0.126287	0.688272	0.359950	-0.617065
51429	-8.520686	-2.406967	-2.012635	0.158229	-0.093963	-0.734955	0.111057	0.691486	0.365850	-0.612917
51430	-8.319154	-2.651397	-2.383440	0.306001	0.088329	-0.767752	0.096667	0.694429	0.371670	-0.608511
51431	-8.664059	-2.994437	-2.390195	0.119269	-0.095598	-0.340911	0.081872	0.697349	0.377573	-0.603688
51432	-9.154441	-3.704104	-2.675082	-0.079221	0.037045	0.417821	0.068256	0.699613	0.385054	-0.598011
51433	-9.407642	-5.221972	-3.090984	-0.683602	0.851543	1.328331	0.055736	0.701339	0.394459	-0.591117
51434	-9.372736	-6.540323	-3.676777	-1.035798	1.689006	2.028011	0.042925	0.702471	0.404457	-0.584043
51435	-9.201717	-6.005890	-4.132057	-0.329256	1.241056	1.855764	0.028189	0.703381	0.413085	-0.577773
51436	-9.413237	-5.042593	-4.261524	0.413916	0.147478	1.676033	0.012832	0.703685	0.420484	-0.572587
51437	-9.346024	-4.764411	-4.080628	0.499088	-0.469717	1.421976	-0.001620	0.703384	0.427835	-0.567632
51438	-9.544849	-5.132096	-4.085857	0.348498	-0.725989	1.740508	-0.015747	0.702810	0.434895	-0.562739
51439	-9.386833	-5.440832	-4.274660	0.381664	-0.705163	1.820660	-0.028928	0.702002	0.441176	-0.558318
51440	-8.595415	-5.435804	-4.420440	0.548981	-0.453838	1.253202	-0.041031	0.701455	0.446994	-0.553600
51441	-8.408610	-5.294211	-4.265700	0.539511	-0.778051	0.958859	-0.052319	0.701105	0.452463	-0.548628
51442	-8.663619	-5.534795	-4.335665	0.488113	-1.059256	1.283440	-0.062215	0.700618	0.457502	-0.544019
51443	-8.810714	-6.058631	-4.570866	0.396828	-1.023431	1.763943	-0.070537	0.700432	0.462405	-0.539074
51444	-8.920702	-6.486509	-4.366837	-0.019190	-1.179287	1.991027	-0.077416	0.700373	0.466916	-0.534298
51445	-8.782068	-7.107348	-3.948036	-0.716580	-1.094334	2.083214	-0.082979	0.699577	0.470621	-0.531246
51446	-8.570088	-8.065298	-4.215560	-1.007213	-0.467052	2.638498	-0.088496	0.698557	0.472530	-0.530001
51447	-8.692776	-8.205840	-4.490323	-0.796725	-0.508022	2.921861	-0.094536	0.697759	0.473078	-0.529521
51448	-8.948925	-6.968222	-4.236710	-0.242110	-1.556003	2.191825	-0.099763	0.696682	0.472683	-0.530333
51449	-8.388074	-6.513615	-4.396137	0.209928	-1.363964	1.598187	-0.102476	0.695297	0.472427	-0.531859
51450	-8.237135	-6.837455	-4.438001	0.119864	-1.073485	1.725518	-0.103196	0.694450	0.472259	-0.532974
51451	-8.194443	-6.958843	-4.405741	0.042326	-0.969039	1.765051	-0.101504	0.694332	0.472088	-0.533604
51452	-7.826985	-6.827036	-4.395798	0.095252	-0.708071	1.442635	-0.098385	0.694171	0.471360	-0.535039
51453	-7.606227	-6.714617	-4.377805	0.136452	-0.520079	1.224341	-0.094646	0.694084	0.469623	-0.537348
51454	-7.581396	-6.868749	-4.495164	0.145590	-0.254478	1.357641	-0.089452	0.694358	0.467232	-0.539962
51455	-7.744252	-6.883642	-4.473786	0.112192	-0.223061	1.470399	-0.083709	0.694905	0.463734	-0.543185
51456	-7.909448	-6.555347	-4.300974	0.149185	-0.414592	1.315346	-0.077861	0.695495	0.459004	-0.547302
51457	-7.933499	-6.073598	-4.012828	0.176775	-0.620418	0.934969	-0.071492	0.696327	0.453477	-0.551702
51458	-8.013749	-5.575123	-3.645879	0.134830	-0.901848	0.568022	-0.063253	0.697286	0.448361	-0.555665
51459	-8.201498	-5.412431	-3.321493	-0.082986	-1.035250	0.507573	-0.052091	0.698251	0.444481	-0.558720
51460	-8.684264	-5.831330	-3.296665	-0.400840	-0.873331	1.112472	-0.038680	0.698925	0.441532	-0.561299
51461	-8.879708	-6.660149	-3.580478	-0.725962	-0.094770	1.827015	-0.024669	0.699170	0.438248	-0.564350
51462	-8.892579	-6.755229	-3.606688	-0.836450	0.271264	1.889347	-0.011690	0.699014	0.433444	-0.568656
51463	-8.904782	-6.221024	-3.634443	-0.544272	0.260152	1.625529	0.000428	0.698575	0.427293	-0.573945
51464	-8.973670	-5.599270	-3.817021	-0.049617	0.236643	1.429237	0.011943	0.698076	0.420205	-0.579634
51465	-8.957321	-5.230102	-3.570139	-0.039970	0.208045	1.154531	0.023436	0.697261	0.412868	-0.585506
51466	-8.985814	-4.894348	-3.226984	-0.126417	0.115010	0.914629	0.035956	0.696044	0.406317	-0.590878
51467	-9.206880	-4.918451	-3.103183	-0.258583	0.270609	1.070265	0.049564	0.694378	0.400492	-0.595809
51468	-9.135018	-4.864262	-2.824295	-0.473734	0.437977	0.895332	0.062706	0.692330	0.394427	-0.600977
51469	-8.966718	-4.599720	-2.463505	-0.607931	0.443764	0.534014	0.074812	0.689840	0.387835	-0.606719
51470	-8.645848	-4.272916	-2.412201	-0.444887	0.625638	0.098466	0.085985	0.686939	0.380821	-0.612941
51471	-8.522981	-3.657475	-2.496088	0.025102	0.576377	-0.225737	0.096037	0.684072	0.373180	-0.619321
51472	-8.622060	-2.897581	-2.204299	0.306395	0.098063	-0.459322	0.106022	0.681194	0.365535	-0.625395
51473	-8.714660	-2.617316	-1.897344	0.271747	-0.056548	-0.522217	0.116481	0.678168	0.358369	-0.630945
