// General information: 
//  MT Manager version: 2021.0.0 
//  XDA version: 2021.0.0 build 5908 rev 109668 built on 2021-04-19
// Device information: 
//  DeviceId: 00B43DFD
//  ProductCode: MTW2-3A7G6
//  Firmware Version: 4.3.5
//  Hardware Version: 1.1.0
// Device settings: 
//  Filter Profile: human(46.1)
//  Option Flags: Orientation Smoother Disabled, Position/Velocity Smoother Disabled, Continuous Zero Rotation Update Disabled, AHS Disabled, ICC Disabled
// Coordinate system: ENU
PacketCounter	Acc_X	Acc_Y	Acc_Z	FreeAcc_E	FreeAcc_N	FreeAcc_U	Quat_q0	Quat_q1	Quat_q2	Quat_q3
50291	1.908778	0.263030	9.476350	0.063995	0.152643	-0.143849	-0.991928	0.004302	0.100880	0.076699
50292	1.907312	0.017222	9.419721	0.038978	-0.084964	-0.202249	-0.991940	0.004477	0.100687	0.076788
50293	1.782290	0.100172	9.578481	-0.096894	0.016186	-0.069780	-0.991939	0.004059	0.100530	0.077029
50294	1.893835	0.365383	9.615849	0.046925	0.252217	-0.008666	-0.991931	0.003548	0.100385	0.077345
50295	2.004620	0.448167	9.605370	0.171349	0.310022	0.003474	-0.991933	0.003425	0.100250	0.077504
50296	1.937874	0.271959	9.521204	0.099100	0.144847	-0.094054	-0.991946	0.003629	0.100042	0.077604
50297	1.929132	0.141404	9.570141	0.067735	0.018025	-0.049275	-0.991986	0.003489	0.099583	0.077679
50298	1.884058	0.290162	9.705029	0.030814	0.168114	0.076308	-0.992041	0.003081	0.099033	0.077700
50299	1.920235	0.486463	9.795710	0.087730	0.352749	0.174692	-0.992086	0.003015	0.098669	0.077597
50300	1.877864	0.287275	9.695134	0.040874	0.165178	0.065347	-0.992122	0.003542	0.098464	0.077373
50301	1.849446	-0.005770	9.593747	-0.009057	-0.112586	-0.042953	-0.992146	0.003939	0.098378	0.077155
50302	1.919702	-0.018721	9.586424	0.061797	-0.131503	-0.037002	-0.992175	0.004019	0.098174	0.077038
50303	1.794205	0.085002	9.658031	-0.051869	-0.008199	0.010815	-0.992217	0.003999	0.097810	0.076954
50304	1.796780	0.008797	9.637939	-0.052040	-0.084552	-0.009193	-0.992240	0.004021	0.097648	0.076869
50305	1.819690	-0.053407	9.591171	-0.029780	-0.152408	-0.051511	-0.992230	0.003795	0.097713	0.076929
50306	1.979640	0.147017	9.629625	0.149332	0.013625	0.018272	-0.992232	0.003192	0.097539	0.077140
50307	1.984863	0.502693	9.766401	0.187443	0.356306	0.157914	-0.992260	0.002814	0.097228	0.077191
50308	1.916687	0.394330	9.776432	0.106604	0.256724	0.153784	-0.992282	0.002897	0.097131	0.077031
50309	1.886774	0.246167	9.724766	0.064605	0.114823	0.095604	-0.992290	0.002853	0.097220	0.076814
50310	1.872137	0.293865	9.727010	0.056528	0.162625	0.095710	-0.992317	0.002680	0.097186	0.076522
50311	1.758539	0.273339	9.713901	-0.053275	0.161146	0.061433	-0.992352	0.002982	0.097105	0.076153
50312	1.669281	-0.071103	9.597985	-0.170431	-0.159839	-0.073166	-0.992360	0.003430	0.097246	0.075849
50313	1.817748	-0.213286	9.511048	-0.034542	-0.319717	-0.132485	-0.992353	0.003378	0.097458	0.075673
50314	1.830597	-0.057962	9.567439	-0.011803	-0.172374	-0.073053	-0.992354	0.002847	0.097475	0.075651
50315	1.838194	0.178323	9.665025	0.012852	0.051430	0.027061	-0.992360	0.002337	0.097382	0.075712
50316	1.876914	0.304190	9.725772	0.058583	0.162410	0.095701	-0.992369	0.001980	0.097356	0.075643
50317	1.969438	0.381579	9.667408	0.169668	0.222382	0.056701	-0.992370	0.002116	0.097487	0.075457
50318	1.947936	0.152540	9.595108	0.127101	0.004096	-0.021485	-0.992388	0.002537	0.097489	0.075197
50319	1.880629	0.004774	9.606376	0.038604	-0.123756	-0.024816	-0.992408	0.002895	0.097449	0.074974
50320	1.733691	-0.092447	9.529489	-0.105020	-0.193842	-0.128846	-0.992412	0.003046	0.097622	0.074698
50321	1.696562	-0.142250	9.423191	-0.133630	-0.234615	-0.240740	-0.992384	0.003311	0.098008	0.074547
50322	1.757368	-0.131175	9.332355	-0.060600	-0.226127	-0.318289	-0.992364	0.003845	0.098169	0.074574
50323	1.824455	-0.298438	9.287461	-0.010864	-0.392293	-0.351154	-0.992368	0.004389	0.097973	0.074751
50324	1.790134	-0.279862	9.370176	-0.051732	-0.363932	-0.276023	-0.992375	0.004293	0.097634	0.075108
50325	1.849858	0.096673	9.536166	0.036788	-0.003458	-0.098347	-0.992369	0.003877	0.097369	0.075554
50326	1.828873	0.344292	9.651595	0.036131	0.242762	0.013622	-0.992354	0.004016	0.097203	0.075959
50327	1.863442	0.067110	9.586643	0.043232	-0.033961	-0.046541	-0.992339	0.004351	0.097069	0.076300
50328	1.775392	0.061099	9.587894	-0.041352	-0.026520	-0.061737	-0.992325	0.004105	0.096992	0.076596
50329	1.863663	0.361260	9.727250	0.066526	0.252203	0.094639	-0.992325	0.003698	0.096783	0.076875
50330	1.946287	0.343361	9.749072	0.145588	0.216677	0.131265	-0.992354	0.003616	0.096397	0.076998
50331	1.734096	0.160247	9.733832	-0.082016	0.064309	0.075153	-0.992356	0.003393	0.096399	0.076977
50332	1.818417	0.301402	9.697361	0.025834	0.186492	0.056499	-0.992330	0.003211	0.096599	0.077068
50333	1.857325	0.221134	9.625936	0.062760	0.098852	-0.007409	-0.992339	0.003265	0.096564	0.076996
50334	1.608293	0.006449	9.589373	-0.204572	-0.073803	-0.091812	-0.992345	0.003423	0.096561	0.076914
50335	1.605217	0.030473	9.514645	-0.191392	-0.048936	-0.165558	-0.992316	0.003464	0.096711	0.077101
50336	1.778799	0.023252	9.427912	-0.010433	-0.084177	-0.218783	-0.992285	0.003431	0.096808	0.077380
50337	1.825258	0.185964	9.453710	0.054792	0.066175	-0.182973	-0.992279	0.003126	0.096689	0.077619
50338	1.936793	0.435407	9.545251	0.188460	0.291231	-0.069371	-0.992296	0.002904	0.096373	0.077801
50339	1.869279	0.459054	9.593405	0.124922	0.324675	-0.034276	-0.992341	0.003085	0.095950	0.077735
50340	1.817263	0.219944	9.560550	0.050527	0.100781	-0.079126	-0.992381	0.003432	0.095699	0.077518
50341	1.770078	0.028972	9.556951	-0.020246	-0.077741	-0.093486	-0.992402	0.003390	0.095589	0.077389
50342	1.852598	0.177503	9.659502	0.066692	0.053804	0.024093	-0.992422	0.002997	0.095396	0.077385
50343	1.852713	0.467174	9.714047	0.104118	0.333755	0.081314	-0.992451	0.002668	0.095244	0.077214
50344	1.851635	0.521859	9.691097	0.118507	0.390024	0.059095	-0.992490	0.003213	0.095113	0.076860
50345	1.868205	0.023527	9.520730	0.094121	-0.093809	-0.111277	-0.992541	0.004058	0.094872	0.076452
50346	1.914251	-0.184750	9.525279	0.115132	-0.296507	-0.100414	-0.992611	0.004251	0.094309	0.076236
50347	1.749911	0.094772	9.728651	-0.027598	0.005155	0.072505	-0.992683	0.003789	0.093724	0.076039
50348	1.703900	0.332728	9.850111	-0.051886	0.242707	0.186166	-0.992713	0.003580	0.093628	0.075776
50349	1.647244	0.150616	9.698979	-0.108652	0.071554	0.025471	-0.992718	0.004030	0.093868	0.075392
50350	1.681081	-0.156506	9.475282	-0.086049	-0.228951	-0.191271	-0.992707	0.004746	0.094165	0.075125
50351	1.758333	-0.326670	9.417501	-0.027117	-0.397883	-0.235177	-0.992707	0.005243	0.094076	0.075198
50352	1.716358	-0.127936	9.507817	-0.051137	-0.191678	-0.152383	-0.992715	0.004977	0.093837	0.075413
50353	1.685757	0.225798	9.569913	-0.038186	0.155740	-0.094134	-0.992688	0.004452	0.093936	0.075671
50354	1.707335	0.342351	9.411926	0.023022	0.256527	-0.244501	-0.992647	0.004108	0.094353	0.075713
50355	1.606494	0.209935	9.121263	-0.051987	0.131913	-0.549739	-0.992600	0.004004	0.094889	0.075667
50356	1.669643	0.025083	8.780103	0.034153	-0.067356	-0.875527	-0.992559	0.003921	0.095343	0.075638
50357	1.747276	0.060986	8.492390	0.162033	-0.048659	-1.143849	-0.992543	0.003960	0.095478	0.075680
50358	1.643399	-0.018516	8.200417	0.102349	-0.116775	-1.450641	-0.992560	0.003944	0.095336	0.075637
50359	1.552509	-0.112783	7.905367	0.058703	-0.204428	-1.758335	-0.992616	0.003651	0.094816	0.075564
50360	1.414247	-0.061275	7.724374	-0.023199	-0.142196	-1.960998	-0.992719	0.003265	0.093776	0.075530
50361	1.231694	-0.291720	7.487323	-0.172962	-0.351826	-2.229256	-0.992876	0.003161	0.092198	0.075407
50362	0.914567	-0.408969	7.278134	-0.435480	-0.424360	-2.491136	-0.993058	0.003448	0.090192	0.075421
50363	0.443525	-0.503304	7.091118	-0.844472	-0.441939	-2.753974	-0.993244	0.004657	0.087878	0.075651
50364	-0.312448	-0.976999	6.677317	-1.552328	-0.780576	-3.284325	-0.993388	0.007306	0.085854	0.075867
50365	-1.031095	-1.991830	5.979234	-2.273087	-1.654401	-4.078786	-0.993389	0.010736	0.084733	0.076701
50366	-0.612487	-2.579822	5.386009	-1.853340	-2.283165	-4.578956	-0.993276	0.012361	0.083355	0.079389
50367	0.020576	-1.854486	5.468967	-1.121261	-1.656867	-4.395433	-0.993232	0.011052	0.079797	0.083674
50368	-0.044587	-0.553860	6.017467	-1.003185	-0.368409	-3.864909	-0.993394	0.008599	0.073463	0.087730
50369	-1.087006	0.304012	6.571670	-1.858924	0.650066	-3.442312	-0.993713	0.007887	0.065460	0.090489
50370	-2.373072	-0.032961	6.587685	-3.071791	0.566699	-3.545966	-0.994004	0.011347	0.057438	0.092351
50371	-1.874128	-1.753777	6.031836	-2.746898	-1.173193	-3.977619	-0.994110	0.017039	0.049944	0.094657
50372	-1.263375	-2.688638	5.705727	-2.211166	-2.158977	-4.170990	-0.994101	0.020619	0.040953	0.098291
50373	-1.436977	-1.859480	6.151628	-2.142335	-1.269153	-3.716521	-0.994077	0.020468	0.029459	0.102585
50374	-2.306237	-0.917160	6.781078	-2.678640	-0.149994	-3.108779	-0.993984	0.019278	0.016091	0.106610
50375	-2.505131	-0.098720	7.364126	-2.511815	0.703003	-2.484138	-0.993683	0.018986	0.000948	0.110605
50376	-2.824708	0.325657	7.800807	-2.479845	1.209522	-1.982076	-0.993154	0.021179	-0.015533	0.113824
50377	-3.621967	0.396615	7.812801	-2.959283	1.510382	-1.858513	-0.992377	0.027255	-0.032953	0.115579
50378	-4.252083	-0.320472	7.577173	-3.453118	1.051261	-1.903391	-0.991202	0.036894	-0.051230	0.116332
50379	-4.572754	-1.199441	7.340942	-3.674279	0.397880	-1.902746	-0.989499	0.048355	-0.070530	0.116532
50380	-4.534453	-1.599298	7.254440	-3.402918	0.144912	-1.804490	-0.987163	0.059861	-0.091107	0.116728
50381	-4.823473	-2.090377	7.052013	-3.474877	-0.137057	-1.734384	-0.984335	0.070062	-0.111919	0.116832
50382	-5.142982	-2.437372	7.151139	-3.463389	-0.266162	-1.359907	-0.981022	0.077466	-0.133221	0.117678
50383	-5.536508	-3.103786	7.161377	-3.587677	-0.737623	-0.972927	-0.977343	0.080249	-0.155257	0.119395
50384	-6.159344	-3.180459	7.787021	-3.557617	-0.582538	-0.031256	-0.973153	0.077450	-0.178519	0.122906
50385	-7.501755	-2.340207	8.550286	-3.841176	0.575060	1.130385	-0.968473	0.069940	-0.201706	0.128386
50386	-7.613458	-1.296853	9.214229	-2.939310	1.516861	1.745171	-0.963445	0.061078	-0.222943	0.135423
50387	-7.490912	-0.383924	9.483231	-2.006598	2.209720	1.903139	-0.958051	0.052803	-0.242800	0.142825
50388	-6.759195	-0.001012	9.494095	-0.814034	2.195867	1.603056	-0.952313	0.045851	-0.262331	0.148929
50389	-7.533416	0.017300	9.799387	-0.781971	2.297740	2.306064	-0.945884	0.040441	-0.282962	0.153625
50390	-7.528822	0.088723	10.447952	0.164352	2.193910	2.875023	-0.938329	0.035357	-0.305308	0.158353
50391	-8.421800	-0.144717	10.276027	-0.071533	2.087851	3.307752	-0.930383	0.030272	-0.327509	0.161891
50392	-9.456241	-0.598048	9.477388	-0.875240	1.868704	3.427959	-0.923212	0.026494	-0.346883	0.163250
50393	-8.810696	-1.789344	9.201746	-0.431155	0.432122	3.036802	-0.916147	0.024956	-0.364827	0.164172
50394	-8.783413	-1.490050	10.312661	0.978872	0.526743	3.768614	-0.906792	0.023885	-0.385861	0.168132
50395	-9.460841	-0.290295	10.872408	1.938847	1.726139	4.365543	-0.896508	0.022550	-0.407478	0.172414
50396	-9.908200	0.629528	10.674188	2.436643	2.652758	4.311780	-0.887366	0.022432	-0.426845	0.172862
50397	-10.202290	-0.611622	9.344490	1.415375	1.656726	3.862659	-0.880721	0.024841	-0.442104	0.168100
50398	-9.925154	-2.736182	7.972362	0.304881	-0.323103	3.200578	-0.875650	0.029296	-0.454484	0.160699
50399	-9.177973	-4.818478	7.612646	0.253439	-2.506510	2.798653	-0.869793	0.033449	-0.467006	0.155711
50400	-7.319127	-5.502400	8.453983	2.125713	-3.814458	1.859197	-0.860507	0.034011	-0.483210	0.157733
50401	-8.345207	-3.159891	9.729556	3.725967	-1.489813	2.763724	-0.848727	0.030470	-0.501483	0.165073
50402	-9.624587	-0.994455	10.653974	5.005572	0.724085	3.660422	-0.838203	0.028733	-0.517052	0.171016
50403	-9.646788	-1.027741	9.567917	4.437024	0.800065	3.045212	-0.831618	0.030745	-0.526907	0.172728
50404	-9.246128	-2.856664	8.255454	3.188137	-0.836052	2.473002	-0.828440	0.034053	-0.532094	0.171475
50405	-8.145584	-4.205100	7.921565	3.107534	-2.386255	1.651690	-0.824916	0.034793	-0.537212	0.172354
50406	-8.461141	-2.690367	7.897702	3.507535	-0.889499	1.505688	-0.819674	0.032650	-0.544189	0.175863
50407	-8.736092	-1.156552	7.607359	3.738121	0.618238	1.194970	-0.813800	0.031146	-0.552360	0.177928
50408	-9.311247	-1.545625	6.958339	3.077574	0.487196	1.491898	-0.808532	0.031204	-0.560442	0.176656
50409	-9.513122	-4.283473	6.676270	2.267425	-2.021175	2.195235	-0.804045	0.030326	-0.567444	0.174926
50410	-8.798522	-6.210874	7.542416	2.954382	-4.286517	2.260875	-0.797782	0.024096	-0.575073	0.179593
50411	-9.793539	-3.978816	7.913548	3.738086	-2.118879	2.673355	-0.790766	0.013886	-0.581581	0.190420
50412	-10.024845	-1.534528	7.933499	4.516510	0.041388	2.245045	-0.785075	0.005415	-0.585577	0.201811
50413	-9.800856	-0.971225	7.272699	4.214149	0.532432	1.669872	-0.781972	0.000427	-0.586526	0.210965
50414	-9.385063	-1.128130	6.270801	3.347285	0.476260	1.015233	-0.780949	-0.002317	-0.585180	0.218352
50415	-9.024034	-1.689408	5.298277	2.313130	0.121310	0.531080	-0.780610	-0.004487	-0.582886	0.225546
50416	-8.860608	-1.862724	4.829252	1.818943	0.066679	0.286253	-0.779722	-0.007956	-0.580574	0.234315
50417	-8.716088	-1.369680	4.578115	1.775609	0.539814	-0.047387	-0.778157	-0.013451	-0.578394	0.244441
50418	-8.707157	-0.938067	4.327542	1.700411	0.980002	-0.243453	-0.776571	-0.020530	-0.576061	0.254304
50419	-8.679989	-0.619242	4.101010	1.611981	1.287759	-0.416576	-0.775565	-0.027904	-0.573381	0.262592
50420	-8.435500	-0.868171	3.709959	1.170557	1.081203	-0.694809	-0.775199	-0.034384	-0.570713	0.268646
50421	-8.412258	-1.529470	3.453167	0.604170	0.569259	-0.628985	-0.774980	-0.040115	-0.568472	0.273195
50422	-8.410610	-1.904439	3.444965	0.376013	0.224060	-0.536847	-0.774573	-0.045350	-0.566705	0.277173
50423	-8.415812	-1.878655	3.729721	0.598194	0.105549	-0.437350	-0.773592	-0.050068	-0.565843	0.280839
50424	-8.717632	-1.424779	3.946846	0.932639	0.476929	-0.194615	-0.772652	-0.053732	-0.565579	0.283270
50425	-8.758423	-0.948168	3.976236	1.181386	0.847719	-0.257317	-0.772616	-0.055147	-0.565515	0.283223
50426	-8.594946	-1.043913	3.622693	0.860361	0.837143	-0.504319	-0.773594	-0.053711	-0.565906	0.280031
50427	-8.530361	-1.456415	3.262944	0.360591	0.606590	-0.591135	-0.775229	-0.050203	-0.566789	0.274317
50428	-8.897659	-2.012097	3.005983	-0.198041	0.359842	-0.216644	-0.777125	-0.045814	-0.567965	0.267194
50429	-8.999920	-2.640542	2.865957	-0.626241	-0.110064	-0.025943	-0.779054	-0.041699	-0.568911	0.260147
50430	-8.959995	-3.070596	2.804710	-0.859936	-0.500662	0.015143	-0.780790	-0.038701	-0.569283	0.254532
50431	-8.868618	-3.130614	2.779993	-0.892641	-0.600256	-0.064645	-0.782355	-0.036978	-0.568914	0.250778
50432	-8.721421	-2.976188	2.803535	-0.790624	-0.541586	-0.228210	-0.783765	-0.036302	-0.567995	0.248549
50433	-8.738807	-2.756160	3.005026	-0.550989	-0.423720	-0.194469	-0.784933	-0.036439	-0.566848	0.247458
50434	-8.818208	-2.335693	3.384121	-0.085029	-0.168185	-0.084741	-0.785739	-0.037025	-0.565909	0.246963
50435	-9.262703	-1.934401	3.707781	0.243180	0.210200	0.345257	-0.786418	-0.037893	-0.565246	0.246186
50436	-9.494105	-1.717547	3.879486	0.408237	0.399466	0.570572	-0.787366	-0.038304	-0.564657	0.244439
50437	-9.573788	-1.878951	3.739620	0.173598	0.313588	0.629730	-0.788614	-0.037599	-0.564142	0.241696
50438	-9.482082	-2.303261	3.512834	-0.204736	-0.025373	0.556127	-0.790066	-0.035874	-0.563589	0.238485
50439	-9.343441	-2.618646	3.285622	-0.520626	-0.276997	0.414957	-0.791518	-0.033720	-0.562878	0.235650
50440	-9.124458	-2.611364	3.165774	-0.585721	-0.296425	0.170604	-0.792805	-0.031553	-0.562010	0.233684
50441	-8.910288	-2.575553	3.120069	-0.571123	-0.306580	-0.048398	-0.793665	-0.029764	-0.561374	0.232526
50442	-8.881453	-2.407631	3.202657	-0.430073	-0.178889	-0.080425	-0.793993	-0.028792	-0.561106	0.232176
50443	-9.109308	-2.047757	3.387919	-0.180011	0.168604	0.116560	-0.793918	-0.028440	-0.561190	0.232275
50444	-9.179302	-1.780184	3.425950	-0.053961	0.423445	0.136361	-0.793962	-0.028049	-0.561211	0.232120
50445	-9.080230	-1.782941	3.339484	-0.106246	0.419247	0.015566	-0.794266	-0.027235	-0.561128	0.231377
50446	-8.819206	-1.987178	3.263655	-0.188206	0.177178	-0.204779	-0.794538	-0.026274	-0.561214	0.230342
50447	-8.841582	-2.038560	3.267740	-0.207240	0.137903	-0.171865	-0.794693	-0.025458	-0.561516	0.229161
50448	-8.931852	-2.122014	3.212901	-0.306864	0.106933	-0.091676	-0.794837	-0.024847	-0.561780	0.228080
50449	-8.819091	-2.165872	3.234892	-0.272137	0.019099	-0.176429	-0.794943	-0.024539	-0.561957	0.227305
50450	-8.722151	-2.148651	3.298865	-0.180567	-0.023137	-0.244930	-0.794876	-0.024658	-0.562222	0.226871
50451	-8.692473	-1.925580	3.479869	0.080156	0.102571	-0.254472	-0.794633	-0.025063	-0.562686	0.226529
50452	-8.868788	-1.806861	3.673095	0.260602	0.195735	-0.050232	-0.794393	-0.025399	-0.563257	0.225914
50453	-9.100296	-1.978540	3.948779	0.386878	0.019092	0.295369	-0.794234	-0.025766	-0.563798	0.225079
50454	-9.016857	-2.557214	4.506646	0.686826	-0.709934	0.539953	-0.793757	-0.026385	-0.564430	0.225105
50455	-8.574176	-3.170797	5.356097	1.325857	-1.675614	0.564817	-0.792251	-0.028342	-0.565453	0.227590
50456	-8.863708	-2.836138	6.462786	2.377028	-1.644534	1.142758	-0.789755	-0.031703	-0.566405	0.233382
50457	-8.995508	-1.929533	7.712719	3.822016	-1.226888	1.501689	-0.787004	-0.035426	-0.566638	0.241437
50458	-9.161929	-0.886492	8.925455	5.283591	-0.707985	1.848044	-0.784507	-0.039493	-0.566054	0.250145
50459	-9.229238	-0.234113	10.192904	6.635201	-0.629626	2.216695	-0.782815	-0.043403	-0.564418	0.258358
50460	-9.015238	0.125938	11.284251	7.728125	-0.882013	2.357818	-0.782000	-0.048022	-0.561389	0.266482
50461	-9.064813	0.820744	12.335559	8.831249	-0.797451	2.692491	-0.782224	-0.054109	-0.556818	0.274137
50462	-9.171121	1.841167	13.065425	9.751301	-0.345567	2.954053	-0.784283	-0.061015	-0.550287	0.279930
50463	-9.678325	2.343892	13.528263	10.019517	-0.065399	3.669521	-0.789064	-0.067134	-0.541354	0.282500
50464	-10.429664	2.136011	13.545363	9.375915	-0.027718	4.640255	-0.796749	-0.071650	-0.529735	0.281846
50465	-11.378358	1.456468	13.144012	7.938887	-0.040878	5.720868	-0.807151	-0.074520	-0.514942	0.278907
50466	-11.900056	1.022834	12.567424	6.464550	0.139018	6.272728	-0.819425	-0.076014	-0.497226	0.274828
50467	-12.398625	0.923600	11.957847	5.029762	0.653682	6.673197	-0.832913	-0.076191	-0.477176	0.269728
50468	-12.391717	1.108426	11.444102	3.929048	1.213924	6.581643	-0.847095	-0.074999	-0.455490	0.263314
50469	-12.522280	1.169370	10.918988	2.661840	1.745975	6.533439	-0.861614	-0.071923	-0.432930	0.254991
50470	-12.608703	0.933103	10.459896	1.297400	1.984279	6.422124	-0.876046	-0.067174	-0.409974	0.244851
50471	-12.819658	0.585473	9.882216	-0.266783	2.184486	6.231988	-0.890217	-0.061050	-0.386522	0.233212
50472	-12.974663	0.026221	9.202982	-1.954236	2.153215	5.824210	-0.904007	-0.054057	-0.362178	0.220626
50473	-12.921634	-0.519067	8.780241	-3.304938	1.918302	5.341873	-0.917043	-0.047082	-0.337025	0.207916
50474	-12.463357	-0.970224	8.477415	-4.207320	1.535117	4.610307	-0.929037	-0.040955	-0.311217	0.195850
50475	-11.891974	-1.159545	8.265314	-4.782915	1.287083	3.843472	-0.939742	-0.036128	-0.285311	0.184873
50476	-11.779669	-1.086433	8.094163	-5.510803	1.391971	3.343956	-0.949218	-0.032403	-0.259466	0.174964
50477	-11.253169	-1.020294	7.902677	-5.868268	1.341072	2.590712	-0.957668	-0.029130	-0.233570	0.165737
50478	-10.510762	-1.214603	7.935605	-5.956921	0.945095	1.956160	-0.965040	-0.026073	-0.207977	0.157364
50479	-9.864984	-1.183286	8.183030	-5.898952	0.774525	1.599871	-0.971235	-0.023815	-0.183133	0.150323
50480	-9.167484	-0.807439	8.253243	-5.713489	0.945892	1.106988	-0.976558	-0.022281	-0.158444	0.143992
50481	-8.621782	-0.460316	8.069026	-5.719512	1.165201	0.461298	-0.981303	-0.019925	-0.133330	0.137368
50482	-8.301874	-0.415715	8.046766	-5.930753	1.165364	0.050574	-0.985266	-0.015948	-0.108563	0.131187
50483	-7.372372	-0.603651	7.962165	-5.593007	0.814850	-0.531319	-0.988397	-0.010792	-0.084756	0.125580
50484	-6.358572	-0.583296	7.755210	-5.073471	0.671658	-1.169439	-0.990760	-0.005383	-0.061827	0.120597
50485	-5.755452	-0.543682	7.520377	-4.890084	0.652490	-1.711908	-0.992480	0.000029	-0.039193	0.115958
50486	-5.319743	-0.368001	7.522753	-4.781949	0.798214	-1.969976	-0.993583	0.005008	-0.016733	0.111747
50487	-4.357572	-0.185619	7.316565	-4.148724	0.826810	-2.420293	-0.994144	0.008994	0.005288	0.107556
50488	-3.970058	0.125644	6.830555	-4.015653	1.090869	-3.096477	-0.994253	0.012775	0.027523	0.102662
50489	-2.885556	-0.004776	6.214986	-3.238856	0.769286	-3.824160	-0.993866	0.017007	0.049815	0.097265
50490	-2.165272	-0.464728	5.654064	-2.823418	0.199450	-4.440946	-0.993000	0.021236	0.071526	0.091563
50491	-1.708816	-0.560697	5.104258	-2.534025	0.028844	-5.031285	-0.991774	0.025136	0.091954	0.085425
50492	-1.006079	-0.895050	4.529336	-1.982533	-0.423177	-5.544628	-0.990263	0.029203	0.110754	0.079115
50493	-0.231587	-1.401321	4.071037	-1.354888	-1.042047	-5.854425	-0.988621	0.033102	0.127178	0.073196
50494	0.455937	-2.130929	3.796012	-0.838985	-1.852121	-5.936660	-0.987103	0.035436	0.140641	0.067760
50495	0.720652	-2.584873	3.744207	-0.707678	-2.327021	-5.900671	-0.985867	0.034952	0.151401	0.062620
50496	0.949812	-2.726101	3.627224	-0.525651	-2.514475	-5.953750	-0.984850	0.031225	0.160551	0.057603
50497	0.936134	-2.384662	3.334464	-0.447400	-2.225671	-6.273258	-0.983787	0.025747	0.169491	0.052664
50498	0.637458	-1.956722	2.855238	-0.563291	-1.830866	-6.860073	-0.982376	0.021714	0.179448	0.047594
50499	0.299324	-2.289018	2.071477	-0.677579	-2.187965	-7.721321	-0.980340	0.021237	0.191288	0.043486
50500	1.018993	-3.170963	1.230371	0.184167	-3.163780	-8.211561	-0.977921	0.023378	0.203354	0.042095
50501	2.056560	-3.746443	0.644866	1.274083	-3.841078	-8.294904	-0.975699	0.025340	0.213287	0.043329
50502	2.751894	-3.553069	0.711767	1.855169	-3.699893	-7.922505	-0.974308	0.025235	0.219030	0.045974
50503	3.482696	-2.764033	1.677050	2.157593	-2.929900	-6.756237	-0.974096	0.023699	0.219254	0.050027
50504	3.695190	-2.055326	3.165497	1.801757	-2.187501	-5.355407	-0.975013	0.021928	0.213913	0.055776
50505	3.436028	-1.482474	5.184849	0.864236	-1.522206	-3.662757	-0.976513	0.019745	0.205044	0.063163
50506	2.930840	-0.978983	7.155760	-0.194066	-0.918069	-2.075074	-0.977952	0.016603	0.195428	0.071702
50507	3.513276	-0.413709	8.783054	-0.044114	-0.455603	-0.355245	-0.979135	0.011358	0.186501	0.079894
50508	4.157555	0.240880	10.034214	0.365018	-0.026631	1.044965	-0.980195	0.003150	0.178271	0.086180
50509	3.658359	1.426918	10.947636	-0.051804	1.017686	1.772846	-0.981125	-0.006884	0.171062	0.089915
50510	3.243146	2.316847	11.549856	-0.347684	1.734554	2.276562	-0.981830	-0.015500	0.165449	0.091629
50511	3.468819	2.770702	12.095034	-0.114663	1.947560	2.922696	-0.982465	-0.020966	0.160284	0.092903
50512	3.304878	2.755797	12.168241	-0.168677	1.857096	2.958522	-0.983142	-0.022630	0.155220	0.093945
50513	3.236320	2.363162	12.187449	-0.180359	1.464909	2.931424	-0.983845	-0.021376	0.150482	0.094586
50514	2.787378	1.579762	11.904066	-0.548531	0.823453	2.475193	-0.984416	-0.018852	0.146967	0.094717
50515	2.573214	1.100550	11.434951	-0.633694	0.452083	1.933990	-0.984714	-0.016601	0.145370	0.094497
50516	2.409340	0.839647	10.908241	-0.666733	0.278401	1.366644	-0.984703	-0.014736	0.145737	0.094364
50517	2.871837	0.850294	10.308268	-0.072839	0.241653	0.918902	-0.984545	-0.013355	0.146941	0.094348
50518	3.026628	0.872174	9.719884	0.221342	0.268983	0.398865	-0.984393	-0.011771	0.148244	0.094100
50519	2.734331	0.799276	9.327105	0.023910	0.294558	-0.064727	-0.984260	-0.009396	0.149535	0.093718
50520	2.964541	0.562176	9.016111	0.268515	0.069663	-0.309132	-0.984132	-0.006531	0.150699	0.093443
50521	2.961720	0.449015	8.814454	0.292959	0.012032	-0.507754	-0.984084	-0.003661	0.151250	0.093207
50522	2.794009	0.118132	8.665439	0.114980	-0.233752	-0.710917	-0.984076	-0.001115	0.151638	0.092728
50523	2.779172	-0.133318	8.561959	0.083286	-0.440719	-0.821166	-0.984070	0.000587	0.151929	0.092320
50524	2.884274	0.014099	8.734432	0.160764	-0.289067	-0.620292	-0.984129	0.001236	0.151596	0.092231
50525	2.802726	0.259817	8.918375	0.084203	-0.020859	-0.461075	-0.984228	0.001421	0.151024	0.092113
50526	2.783726	0.285165	9.090196	0.029893	0.013573	-0.301587	-0.984291	0.001457	0.150684	0.092002
50527	2.707997	0.251859	9.353529	-0.118807	-0.000361	-0.072509	-0.984320	0.001265	0.150513	0.091967
50528	2.666495	0.230756	9.370478	-0.165988	-0.017744	-0.068898	-0.984322	0.000966	0.150586	0.091827
50529	2.731259	0.212897	9.302827	-0.092727	-0.054020	-0.115462	-0.984285	0.000648	0.150870	0.091761
50530	2.844072	0.131332	9.198197	0.023493	-0.163340	-0.185353	-0.984241	0.000278	0.151089	0.091876
50531	2.908169	0.334299	9.285072	0.091975	0.018551	-0.077547	-0.984218	-0.000172	0.151100	0.092104
50532	2.924704	0.652770	9.338757	0.148258	0.324062	-0.011392	-0.984189	-0.000258	0.151148	0.092336
50533	2.627425	0.710656	9.194489	-0.082670	0.441334	-0.234307	-0.984125	0.000820	0.151622	0.092242
50534	2.663534	0.313726	9.014547	-0.077557	0.070758	-0.408235	-0.984005	0.002883	0.152440	0.092135
50535	2.838816	-0.206914	8.761369	0.058662	-0.442511	-0.611388	-0.983930	0.004809	0.152834	0.092194
50536	2.801017	-0.300237	8.778881	-0.000051	-0.502289	-0.606588	-0.983917	0.005608	0.152769	0.092396
50537	2.849123	0.065485	8.910004	0.077632	-0.139589	-0.459375	-0.983942	0.005730	0.152441	0.092665
50538	2.929256	0.198862	9.050417	0.144553	-0.016542	-0.299067	-0.984002	0.005937	0.151909	0.092890
50539	2.693530	0.083683	9.156565	-0.118123	-0.080968	-0.268880	-0.984076	0.006130	0.151353	0.093002
50540	2.555110	0.086199	9.131159	-0.232721	-0.051575	-0.333380	-0.984094	0.006329	0.151151	0.093123
50541	2.747971	0.243107	9.105719	-0.013087	0.072069	-0.298530	-0.984065	0.006776	0.151174	0.093361
50542	2.970297	0.173670	9.067452	0.198081	-0.029979	-0.271651	-0.984079	0.007331	0.150800	0.093774
50543	2.790188	-0.003837	9.187380	-0.027823	-0.164301	-0.212410	-0.984161	0.007279	0.150071	0.094086
50544	2.817691	0.031704	9.352398	-0.031414	-0.143403	-0.046105	-0.984241	0.005945	0.149486	0.094276
50545	2.986779	0.369699	9.472665	0.162879	0.127574	0.124413	-0.984313	0.003891	0.149055	0.094313
50546	2.820451	0.595306	9.546164	0.031404	0.346380	0.153131	-0.984388	0.002323	0.148737	0.094081
50547	2.718530	0.484014	9.645176	-0.112434	0.235457	0.216570	-0.984416	0.001494	0.148727	0.093829
50548	2.876985	0.415006	9.677603	0.014383	0.127272	0.291216	-0.984437	0.001075	0.148636	0.093757
50549	2.856470	0.348482	9.677678	-0.015156	0.059240	0.283578	-0.984462	0.000858	0.148469	0.093758
50550	2.840463	0.352850	9.672242	-0.025509	0.061865	0.273963	-0.984480	0.000646	0.148365	0.093733
50551	2.949733	0.391972	9.639860	0.096782	0.074323	0.275255	-0.984512	0.000390	0.148122	0.093783
50552	2.937629	0.476690	9.727940	0.082581	0.156525	0.358762	-0.984579	0.000185	0.147663	0.093812
50553	2.816341	0.430402	9.797417	-0.050471	0.132868	0.389577	-0.984649	0.000257	0.147199	0.093798
50554	2.780005	0.377366	9.724856	-0.067713	0.089790	0.308133	-0.984664	0.000638	0.147105	0.093788
50555	2.848187	0.249031	9.573363	0.016232	-0.042873	0.178376	-0.984642	0.001234	0.147242	0.093803
50556	2.777220	0.209497	9.524555	-0.046257	-0.058100	0.110440	-0.984606	0.001816	0.147436	0.093860
50557	2.847157	0.146802	9.446226	0.028473	-0.125478	0.053542	-0.984579	0.002191	0.147496	0.094041
50558	2.769266	0.233840	9.448751	-0.029390	-0.019059	0.036231	-0.984552	0.002546	0.147487	0.094329
50559	2.738096	0.175968	9.308403	-0.031322	-0.068083	-0.108622	-0.984488	0.002880	0.147717	0.094625
50560	2.768883	0.091254	9.245900	-0.004154	-0.152810	-0.161867	-0.984423	0.003232	0.147916	0.094988
50561	2.909490	0.010294	9.252528	0.110401	-0.258540	-0.117561	-0.984401	0.002984	0.147760	0.095463
50562	2.806335	0.247808	9.478596	-0.001087	-0.010140	0.075719	-0.984421	0.002332	0.147293	0.095989
50563	2.682850	0.440677	9.636227	-0.119475	0.192566	0.197177	-0.984416	0.001730	0.147037	0.096448
50564	2.682634	0.540407	9.675310	-0.112924	0.283115	0.237550	-0.984327	0.001600	0.147336	0.096907
50565	2.820516	0.474621	9.495056	0.046117	0.190598	0.101857	-0.984192	0.002087	0.147986	0.097271
50566	2.816693	0.288999	9.274565	0.057883	0.014308	-0.115716	-0.984057	0.002758	0.148647	0.097609
50567	2.937932	0.192802	9.167773	0.173959	-0.095070	-0.185779	-0.983955	0.003287	0.149093	0.097947
50568	2.983586	0.318654	9.188500	0.231886	0.026945	-0.149491	-0.983924	0.003548	0.149043	0.098319
50569	2.826195	0.404890	9.321128	0.067474	0.149992	-0.065498	-0.983946	0.003859	0.148678	0.098642
50570	2.748395	0.399541	9.483439	-0.046365	0.169564	0.067496	-0.983954	0.004168	0.148441	0.098903
50571	2.780188	0.390650	9.482813	-0.015333	0.161424	0.075664	-0.983926	0.004642	0.148479	0.099105
50572	2.744096	0.106717	9.310927	-0.058110	-0.105347	-0.105972	-0.983863	0.005267	0.148786	0.099237
50573	2.743058	-0.019526	9.251253	-0.073177	-0.224372	-0.166200	-0.983773	0.005326	0.149184	0.099529
50574	2.743404	0.310444	9.313607	-0.032744	0.100681	-0.099053	-0.983676	0.005258	0.149474	0.100052
50575	2.934428	0.478104	9.333034	0.170143	0.229997	-0.021716	-0.983606	0.005619	0.149592	0.100549
50576	2.798358	0.251525	9.273664	0.014698	0.041678	-0.122849	-0.983557	0.006359	0.149573	0.101012
50577	2.826803	0.101225	9.314222	-0.000346	-0.104794	-0.078993	-0.983497	0.006266	0.149640	0.101498
50578	2.953145	0.293779	9.257347	0.169543	0.046097	-0.092865	-0.983437	0.005375	0.149799	0.101900
50579	2.995477	0.695571	9.321457	0.266787	0.416898	-0.009563	-0.983389	0.004616	0.149957	0.102166
50580	2.906508	0.539700	9.196781	0.183383	0.268391	-0.157938	-0.983356	0.004418	0.150168	0.102186
50581	2.823124	0.275542	9.098227	0.074612	0.021138	-0.282857	-0.983310	0.004346	0.150542	0.102077
50582	3.018957	0.211515	9.060254	0.251243	-0.087068	-0.264058	-0.983312	0.003795	0.150607	0.101986
50583	3.000324	0.337632	9.238389	0.211150	0.034937	-0.095797	-0.983404	0.003180	0.150073	0.101908
50584	2.741709	0.371589	9.434492	-0.070524	0.114814	0.018208	-0.983506	0.002707	0.149463	0.101830
50585	2.738257	0.321447	9.460113	-0.083999	0.058409	0.040466	-0.983545	0.002335	0.149266	0.101750
50586	2.699124	0.296063	9.398645	-0.106731	0.032264	-0.030305	-0.983556	0.001959	0.149250	0.101677
50587	2.772151	0.365274	9.311768	-0.001360	0.077877	-0.090486	-0.983533	0.001791	0.149394	0.101690
50588	2.827666	0.431646	9.231701	0.084078	0.128950	-0.149219	-0.983497	0.001903	0.149531	0.101833
50589	2.864089	0.354381	9.222235	0.105062	0.047323	-0.150134	-0.983497	0.001995	0.149454	0.101947
50590	2.798495	0.375900	9.256928	0.040271	0.080600	-0.135111	-0.983529	0.001735	0.149276	0.101900
50591	2.882798	0.516845	9.349815	0.124398	0.197752	-0.017683	-0.983569	0.001332	0.149019	0.101900
50592	2.852720	0.577436	9.301957	0.126268	0.256539	-0.070199	-0.983614	0.001225	0.148791	0.101799
50593	2.832368	0.394370	9.198047	0.101813	0.077843	-0.181204	-0.983625	0.001240	0.148862	0.101592
50594	2.842737	0.337012	9.175358	0.105142	0.015638	-0.201723	-0.983636	0.000801	0.148902	0.101424
50595	2.846715	0.545060	9.272602	0.123388	0.210989	-0.100723	-0.983687	0.000133	0.148650	0.101310
50596	2.882161	0.690484	9.360941	0.166122	0.338889	-0.001042	-0.983776	-0.000197	0.148193	0.101112
50597	2.873290	0.573203	9.359515	0.144886	0.222972	-0.008904	-0.983895	-0.000130	0.147612	0.100805
50598	2.799375	0.314035	9.424055	0.017781	-0.014870	0.023338	-0.984019	-0.000197	0.147007	0.100474
50599	2.836900	0.443934	9.567530	0.050619	0.102025	0.175792	-0.984166	-0.000766	0.146288	0.100085
50600	2.757029	0.649629	9.617211	0.013618	0.310462	0.208160	-0.984307	-0.001236	0.145727	0.099512
50601	2.676785	0.652790	9.601902	-0.048946	0.326461	0.171243	-0.984416	-0.001117	0.145440	0.098846
50602	2.687954	0.246721	9.422555	-0.063019	-0.069739	-0.011582	-0.984487	-0.000563	0.145422	0.098173
50603	2.773592	0.010646	9.404187	-0.020737	-0.309081	-0.012907	-0.984546	-0.000321	0.145352	0.097683
50604	2.647999	0.109880	9.467016	-0.135258	-0.185956	0.015613	-0.984601	-0.000649	0.145222	0.097317
50605	2.617111	0.293299	9.434825	-0.121002	-0.008519	-0.017970	-0.984621	-0.001222	0.145347	0.096927
50606	2.784805	0.357086	9.324996	0.074789	0.012534	-0.074492	-0.984613	-0.001539	0.145642	0.096560
50607	2.881385	0.224419	9.153508	0.183628	-0.142602	-0.216573	-0.984617	-0.001700	0.145841	0.096211
50608	2.879372	0.250818	9.263454	0.155782	-0.116813	-0.110762	-0.984686	-0.001945	0.145627	0.095830
50609	2.790902	0.373101	9.410265	0.062136	0.018433	0.009594	-0.984823	-0.002214	0.145000	0.095364
50610	2.658823	0.412029	9.466976	-0.058576	0.082245	0.028681	-0.984965	-0.002013	0.144384	0.094827
50611	2.636440	0.108870	9.282356	-0.076501	-0.206902	-0.165090	-0.985040	-0.001483	0.144281	0.094220
50612	2.532774	-0.233781	9.074876	-0.179657	-0.519684	-0.404148	-0.985055	-0.001263	0.144505	0.093715
50613	2.668999	-0.116808	8.962633	0.000817	-0.433989	-0.470438	-0.985087	-0.001768	0.144365	0.093588
50614	2.996671	0.271378	9.161646	0.334764	-0.121675	-0.176167	-0.985204	-0.002457	0.143438	0.093766
50615	2.874164	0.443475	9.460629	0.189322	0.062017	0.082829	-0.985390	-0.002904	0.142094	0.093846
50616	2.598335	0.423606	9.693076	-0.115197	0.088443	0.230488	-0.985551	-0.003168	0.141051	0.093717
50617	2.496350	0.298206	9.670094	-0.213988	-0.022820	0.176561	-0.985630	-0.003479	0.140630	0.093511
50618	2.566473	0.278514	9.612455	-0.130185	-0.061842	0.139341	-0.985666	-0.003744	0.140455	0.093382
50619	2.689669	0.128793	9.477871	-0.002194	-0.236243	0.037446	-0.985692	-0.003753	0.140377	0.093224
50620	2.563226	0.048027	9.462077	-0.129305	-0.294171	-0.014724	-0.985715	-0.003906	0.140157	0.093311
50621	2.532305	0.246266	9.625949	-0.160623	-0.098874	0.142036	-0.985754	-0.004409	0.139691	0.093576
50622	2.508573	0.434035	9.633070	-0.143182	0.078913	0.149773	-0.985784	-0.004901	0.139304	0.093804
50623	2.568652	0.431698	9.567400	-0.066282	0.056681	0.102547	-0.985756	-0.005125	0.139338	0.094040
50624	2.729353	0.355806	9.437988	0.102442	-0.052393	0.017793	-0.985673	-0.005161	0.139695	0.094375
50625	2.724283	0.382292	9.361523	0.114923	-0.027458	-0.056048	-0.985581	-0.005227	0.140156	0.094652
50626	2.742946	0.490402	9.238021	0.178020	0.073800	-0.165505	-0.985518	-0.005166	0.140499	0.094800
50627	2.654172	0.379393	9.123094	0.100494	-0.015284	-0.304318	-0.985488	-0.004747	0.140652	0.094905
50628	2.752323	0.271129	9.050353	0.194112	-0.133233	-0.352125	-0.985498	-0.004274	0.140453	0.095125
50629	2.677127	0.289940	9.130814	0.112581	-0.094126	-0.294216	-0.985557	-0.004031	0.139891	0.095348
50630	2.661822	0.400910	9.249768	0.098755	0.019272	-0.179718	-0.985634	-0.004100	0.139206	0.095559
50631	2.451233	0.465650	9.331098	-0.097780	0.119164	-0.154997	-0.985703	-0.004350	0.138594	0.095721
50632	2.415505	0.448638	9.388215	-0.141831	0.102135	-0.109906	-0.985718	-0.004783	0.138299	0.095975
50633	2.504957	0.624291	9.333653	-0.006416	0.246921	-0.131747	-0.985691	-0.005249	0.138162	0.096417
50634	2.527404	0.822884	9.356467	0.047156	0.430849	-0.095665	-0.985653	-0.005372	0.138143	0.096831
50635	2.563846	0.682076	9.275678	0.077020	0.283948	-0.169546	-0.985616	-0.005212	0.138145	0.097208
50636	2.689203	0.626257	9.212686	0.203691	0.203036	-0.199422	-0.985610	-0.005369	0.137952	0.097532
50637	2.604702	0.729390	9.246423	0.138266	0.312456	-0.184808	-0.985630	-0.005990	0.137677	0.097689
50638	2.574899	0.986568	9.371068	0.130060	0.561258	-0.061359	-0.985660	-0.006395	0.137415	0.097722
50639	2.581783	0.871303	9.210956	0.161249	0.441973	-0.218671	-0.985712	-0.006323	0.137216	0.097489
50640	2.558813	0.545063	9.042961	0.126151	0.127405	-0.400588	-0.985781	-0.006174	0.137015	0.097078
50641	2.556367	0.504084	8.936153	0.150656	0.087351	-0.506044	-0.985893	-0.006319	0.136544	0.096593
50642	2.587376	0.445410	8.983421	0.169423	0.022938	-0.455044	-0.986075	-0.006346	0.135622	0.096032
50643	2.521166	0.525344	9.087790	0.115668	0.116019	-0.368467	-0.986311	-0.006163	0.134299	0.095481
50644	2.507375	0.562158	9.176231	0.113985	0.164416	-0.285565	-0.986573	-0.005306	0.132829	0.094876
50645	2.374450	0.247129	9.162839	-0.038066	-0.099574	-0.344571	-0.986825	-0.003895	0.131494	0.094180
50646	2.124026	-0.207510	8.987310	-0.289750	-0.478471	-0.592420	-0.987026	-0.002736	0.130422	0.093607
50647	1.908282	-0.307580	8.701879	-0.424673	-0.527059	-0.924454	-0.987132	-0.002301	0.129864	0.093281
50648	1.676065	-0.193307	8.378626	-0.537950	-0.369867	-1.290849	-0.987132	-0.001920	0.129871	0.093281
50649	1.339879	-0.101962	7.885079	-0.720060	-0.214556	-1.849296	-0.987050	-0.000942	0.130307	0.093549
50650	0.833213	0.083850	7.325310	-1.033421	0.079896	-2.512896	-0.986883	0.001726	0.131028	0.094291
50651	1.222803	-0.073142	6.368037	-0.460189	-0.115360	-3.345306	-0.986556	0.006940	0.132247	0.095764
50652	2.217712	-0.747264	5.298625	0.613632	-0.931875	-4.128788	-0.986066	0.013702	0.133579	0.098199
50653	2.444136	-1.137642	4.623882	0.911937	-1.333607	-4.709943	-0.985633	0.019244	0.133692	0.101410
50654	1.575162	-1.028347	4.412221	0.165177	-1.035561	-5.132238	-0.985400	0.022479	0.132596	0.104404
50655	0.900208	-0.393052	4.218895	-0.277073	-0.272151	-5.498404	-0.985432	0.024818	0.130149	0.106629
50656	0.201386	-0.532314	3.859865	-0.852893	-0.266441	-6.014810	-0.985677	0.029387	0.126119	0.108034
50657	-0.578174	-1.608670	3.585891	-1.724948	-1.133629	-6.418630	-0.986067	0.037217	0.119822	0.109224
50658	-0.975487	-2.797107	3.763789	-2.359867	-2.124447	-6.226891	-0.986376	0.046972	0.110864	0.112095
50659	-1.805906	-3.365024	4.285148	-3.323863	-2.349378	-5.765841	-0.986578	0.056078	0.098176	0.117816
50660	-2.846734	-3.008431	4.461087	-4.180324	-1.642872	-5.704337	-0.986553	0.063653	0.084503	0.124583
50661	-2.810354	-2.748113	4.185103	-3.955533	-1.329058	-5.869340	-0.986095	0.071572	0.072032	0.131554
50662	-3.117661	-3.279763	3.811087	-4.280319	-1.702623	-6.100779	-0.985237	0.079651	0.060440	0.138962
50663	-2.098537	-3.363070	3.885014	-3.274870	-1.937070	-5.771810	-0.984286	0.084239	0.046860	0.147951
50664	-2.183427	-2.200353	4.381146	-2.937485	-0.665557	-5.370939	-0.983419	0.084790	0.028934	0.157674
50665	-2.736126	-0.658186	4.824698	-2.809833	1.054396	-5.102589	-0.982495	0.084147	0.006739	0.166062
50666	-4.158564	0.473544	5.164855	-3.523461	2.654463	-4.840468	-0.981185	0.086334	-0.018354	0.171715
50667	-5.684043	-0.207234	5.232195	-4.881700	2.612286	-4.422079	-0.979244	0.093481	-0.044204	0.174323
50668	-4.749207	-2.124131	5.309252	-4.307809	0.605817	-3.786468	-0.976484	0.101052	-0.072048	0.176284
50669	-5.305035	-3.005027	5.450242	-4.707223	0.065803	-3.127231	-0.973151	0.103621	-0.103014	0.177845
50670	-6.366701	-2.835963	6.065822	-5.008223	0.672751	-2.079370	-0.969174	0.100610	-0.137160	0.178232
50671	-9.824905	-2.108643	6.807029	-7.051732	2.620712	-0.291632	-0.964148	0.095752	-0.172959	0.177020
50672	-12.169548	-2.528056	7.820246	-8.086673	3.062997	2.052027	-0.957785	0.090855	-0.208925	0.175338
50673	-13.038121	-3.300611	8.589636	-7.800525	2.528853	3.873458	-0.950038	0.084045	-0.244610	0.174726
50674	-12.502253	-3.458973	9.313694	-6.029238	1.954811	4.840739	-0.940415	0.074354	-0.280828	0.176713
50675	-13.333923	-2.029027	10.040617	-4.743552	3.278406	5.977774	-0.929366	0.063703	-0.316308	0.179359
50676	-14.759741	-1.137824	10.408602	-4.135698	4.275078	7.274392	-0.918071	0.056080	-0.348845	0.179745
50677	-14.432996	-1.871739	10.549441	-2.905057	3.137501	7.643314	-0.906870	0.051859	-0.378543	0.177773
50678	-13.812277	-2.805266	10.561036	-1.675022	1.747049	7.629206	-0.894555	0.048199	-0.408015	0.175987
50679	-13.637553	-3.131029	10.396408	-0.698309	1.105983	7.567083	-0.881189	0.044583	-0.437106	0.174518
50680	-13.648985	-2.978922	10.872514	0.809271	0.938853	7.843360	-0.866643	0.041539	-0.465829	0.173804
50681	-13.818815	-2.118524	11.450759	2.547445	1.495174	8.012339	-0.851165	0.039761	-0.493841	0.173372
50682	-13.676667	-1.119628	11.529331	4.027128	2.161718	7.514754	-0.835813	0.040050	-0.520366	0.170386
50683	-13.501060	-1.413350	11.020141	4.560504	1.730129	6.975766	-0.821926	0.042970	-0.544088	0.162973
50684	-13.241249	-3.275491	9.896755	4.067752	-0.092157	6.539494	-0.809926	0.047109	-0.564307	0.152836
50685	-12.652531	-5.331523	9.041400	3.779643	-2.244908	6.026891	-0.799330	0.048891	-0.581218	0.144456
50686	-11.732992	-6.757383	8.266369	3.635096	-3.947162	5.115071	-0.789078	0.045941	-0.595928	0.141830
50687	-11.202336	-7.484960	7.556771	3.360599	-4.924751	4.437268	-0.778438	0.036040	-0.608864	0.148394
50688	-11.364415	-7.224793	7.238319	3.272721	-4.859079	4.308565	-0.766468	0.018445	-0.620270	0.165686
50689	-18.665187	-6.290479	18.243942	12.668640	-4.594637	13.406056	-0.760641	-0.004541	-0.619806	0.192991
50690	-2.774333	14.053773	45.273896	46.112395	1.402416	1.383217	-0.777671	-0.025940	-0.592772	0.207789
50691	-5.357486	-0.579457	22.132087	18.827300	-4.782852	2.076012	-0.793117	-0.005170	-0.578554	0.190302
50692	-4.707294	-4.152028	8.527424	5.251050	-4.416260	-1.748422	-0.798555	-0.003367	-0.569149	0.195879
50693	-6.527191	-2.079383	3.814833	0.986241	-0.768827	-2.072179	-0.800365	-0.006190	-0.562272	0.207913
50694	-6.509793	-1.791822	1.396926	-1.154211	0.146746	-3.016694	-0.799024	-0.011235	-0.560715	0.216871
50695	-7.306015	-2.478135	2.111417	-0.976405	-0.399156	-1.883992	-0.794690	-0.021627	-0.563221	0.225351
50696	-8.294368	-1.585482	3.973993	0.814244	0.082861	-0.515888	-0.788634	-0.035411	-0.567486	0.234013
50697	-10.459590	-1.075890	4.087713	0.688746	1.038668	1.399518	-0.783357	-0.048244	-0.570710	0.241483
50698	-10.966005	-1.353193	3.976565	0.384952	0.847258	1.893293	-0.781534	-0.059558	-0.569423	0.247820
50699	-10.657696	-1.238448	3.758121	0.212975	0.837688	1.522822	-0.783894	-0.068596	-0.563006	0.252644
50700	-10.308624	-1.044327	3.196696	-0.312268	1.085478	0.971343	-0.790025	-0.074482	-0.552533	0.254991
50701	-9.427724	-1.237407	2.388778	-1.140355	0.974264	-0.124420	-0.798495	-0.077194	-0.540408	0.253781
50702	-8.862795	-1.796755	1.809024	-2.011728	0.552287	-0.829816	-0.807514	-0.077261	-0.529200	0.248798
50703	-8.589606	-2.825534	1.396989	-2.989488	-0.285396	-1.170087	-0.815486	-0.075335	-0.520623	0.241368
50704	-8.653886	-3.764756	1.276983	-3.700711	-1.092259	-1.106135	-0.821274	-0.072278	-0.515514	0.233517
50705	-9.295088	-3.947798	1.296483	-4.064692	-1.128341	-0.546119	-0.824703	-0.068491	-0.513641	0.226598
50706	-9.692340	-4.008248	1.417080	-4.147556	-1.154175	-0.144123	-0.826454	-0.063731	-0.513766	0.221263
50707	-9.572676	-4.246949	1.569862	-4.050064	-1.468555	-0.139153	-0.826962	-0.058402	-0.514863	0.218263
50708	-9.362858	-4.351772	1.776938	-3.794176	-1.660453	-0.189536	-0.826469	-0.053279	-0.516176	0.218342
50709	-9.228132	-4.189982	2.133811	-3.328007	-1.587447	-0.134328	-0.825168	-0.048770	-0.517185	0.221899
50710	-9.117768	-3.643971	2.415923	-2.775384	-1.099697	-0.151683	-0.823091	-0.045094	-0.518078	0.228216
50711	-9.608366	-2.660909	2.406394	-2.483632	0.075512	0.137985	-0.820614	-0.042365	-0.519058	0.235321
50712	-9.513282	-2.359029	2.261400	-2.376027	0.481636	-0.050386	-0.818070	-0.039855	-0.520449	0.241466
50713	-9.472219	-2.309637	2.226966	-2.296672	0.626251	-0.099366	-0.815528	-0.037187	-0.522363	0.246309
50714	-9.208570	-2.761697	2.262668	-2.299544	0.214193	-0.210117	-0.812778	-0.034031	-0.524955	0.250310
50715	-8.787187	-3.182352	2.031334	-2.449200	-0.150176	-0.569007	-0.809037	-0.031205	-0.528764	0.254743
50716	-9.278698	-3.267988	2.261284	-2.315913	-0.031797	0.011794	-0.803977	-0.029029	-0.533865	0.260318
50717	-9.749157	-2.897818	2.806629	-1.662270	0.370448	0.599666	-0.798032	-0.027918	-0.539500	0.267028
50718	-9.794960	-2.993681	3.461746	-0.992621	0.153710	0.951862	-0.791857	-0.028422	-0.544836	0.274423
50719	-9.978555	-3.324999	4.039748	-0.556659	-0.208013	1.438631	-0.786358	-0.030530	-0.548807	0.281991
50720	-10.598512	-4.124505	4.596231	-0.526422	-0.778599	2.417665	-0.782753	-0.032598	-0.549853	0.289648
50721	-10.723070	-4.845166	4.807145	-0.720784	-1.290368	2.811956	-0.781125	-0.031685	-0.547551	0.298376
50722	-9.830380	-5.170566	4.554448	-0.940489	-1.632960	2.043002	-0.780249	-0.027290	-0.543330	0.308641
50723	-8.996049	-5.399014	4.150117	-1.255255	-1.767812	1.259531	-0.778698	-0.021495	-0.539135	0.320157
50724	-9.119887	-6.413141	4.142572	-1.836189	-2.217512	1.727016	-0.775763	-0.015878	-0.536090	0.332487
50725	-10.088626	-7.119903	4.299258	-2.267530	-2.017930	2.904720	-0.771367	-0.010638	-0.533729	0.346429
50726	-10.291019	-6.938939	4.439030	-2.028350	-1.452707	3.130262	-0.764684	-0.004322	-0.532792	0.362452
50727	-10.130669	-5.868970	4.442392	-1.248446	-0.358009	2.641517	-0.755478	0.002911	-0.533760	0.379928
50728	-9.417000	-4.767365	4.256713	-0.444328	0.453320	1.549961	-0.744121	0.009867	-0.536259	0.398262
50729	-8.408918	-3.494749	4.254146	0.653391	1.008379	0.165615	-0.731192	0.015410	-0.539046	0.417792
50730	-7.510119	-1.897954	4.697966	2.261855	1.486307	-1.167272	-0.717484	0.019170	-0.541185	0.438141
50731	-7.308346	-0.053295	5.184429	3.998006	2.365295	-2.150489	-0.704824	0.022184	-0.541442	0.457790
50732	-6.574183	1.172282	5.349820	5.055771	2.540111	-3.394036	-0.695156	0.025347	-0.539610	0.474275
50733	-6.070629	0.940739	5.084339	4.791704	2.218873	-3.837472	-0.688544	0.028574	-0.536595	0.486988
50734	-5.291890	0.552803	4.790168	4.333207	1.644498	-4.356129	-0.683352	0.030762	-0.533121	0.497862
50735	-4.381103	1.904139	4.780483	5.182021	1.672158	-5.809815	-0.677696	0.031310	-0.530482	0.508269
50736	-3.669568	4.710838	5.150221	7.290026	2.250764	-7.820025	-0.671804	0.031728	-0.529974	0.516527
50737	-3.592524	6.378888	5.238762	8.488866	2.848194	-8.881331	-0.668454	0.033030	-0.531615	0.519099
50738	-4.635385	4.912320	5.125228	7.552045	2.997579	-7.390606	-0.669777	0.034932	-0.533746	0.515066
50739	-5.272930	2.047034	4.460151	5.209989	2.508746	-5.517482	-0.674694	0.034441	-0.534669	0.507672
50740	-6.725977	-1.324416	4.097683	2.805945	2.082891	-2.631440	-0.680329	0.029084	-0.535780	0.499246
50741	-8.498823	-4.360644	4.316768	1.025818	1.539863	0.504747	-0.684837	0.018916	-0.537844	0.491289
50742	-9.951698	-6.221867	4.832429	0.158341	1.026945	2.836799	-0.687898	0.006954	-0.540513	0.484349
50743	-11.319269	-8.170170	5.510368	-0.672008	0.215410	5.178385	-0.689891	-0.003265	-0.543413	0.478271
50744	-11.598572	-10.223033	5.570001	-2.104103	-1.057188	6.451063	-0.691371	-0.011728	-0.544799	0.474407
50745	-10.812423	-9.840556	5.061265	-2.400866	-1.281722	5.417250	-0.692495	-0.018839	-0.543928	0.473537
50746	-9.351053	-7.529019	4.297505	-1.566315	-0.616337	2.827049	-0.692916	-0.023006	-0.543357	0.473392
50747	-8.534526	-5.680775	3.579542	-0.890727	0.222309	1.007633	-0.692687	-0.024513	-0.545053	0.471700
50748	-8.521974	-5.159870	3.083060	-0.866439	0.718075	0.554893	-0.692403	-0.023626	-0.548169	0.468541
50749	-8.301708	-5.205386	2.706599	-1.130547	0.705094	0.265220	-0.692313	-0.022158	-0.551538	0.464777
50750	-8.622931	-5.997417	2.451627	-1.789812	0.536683	0.810052	-0.692270	-0.021695	-0.553898	0.462048
50751	-8.043680	-5.707385	2.203553	-1.786186	0.438768	0.124495	-0.692053	-0.022657	-0.554945	0.461070
50752	-7.843766	-5.376466	2.404409	-1.417282	0.360999	-0.113558	-0.691206	-0.024536	-0.556149	0.460793
50753	-7.892939	-4.630966	3.046525	-0.425507	0.422045	-0.186355	-0.689946	-0.026513	-0.557902	0.460453
50754	-7.896971	-3.977042	3.567562	0.417141	0.461827	-0.298540	-0.689088	-0.028220	-0.559680	0.459477
50755	-7.842659	-3.980587	3.588421	0.441338	0.362810	-0.330997	-0.688771	-0.029916	-0.561439	0.457697
50756	-8.199882	-4.364082	3.606705	0.221803	0.284872	0.145272	-0.689021	-0.031822	-0.562663	0.455683
50757	-8.088795	-4.274163	3.388015	0.102032	0.341349	-0.063401	-0.689953	-0.033227	-0.563242	0.453453
50758	-7.828086	-4.284931	2.768055	-0.400674	0.480682	-0.490145	-0.691596	-0.034350	-0.563799	0.450163
50759	-7.597316	-5.103720	1.622239	-1.841123	0.441826	-0.712506	-0.694176	-0.035501	-0.564130	0.445665
50760	-7.553313	-7.258883	0.022045	-4.516287	-0.062826	-0.360569	-0.697588	-0.036920	-0.563326	0.441216
50761	-7.789343	-11.136533	-1.753439	-8.508471	-1.336533	0.845038	-0.701501	-0.040274	-0.558263	0.441154
50762	-6.762570	-13.961783	-2.571399	-11.265316	-3.017199	0.734407	-0.703923	-0.049455	-0.547197	0.450137
50763	-5.404789	-14.424749	-1.009905	-10.886179	-4.520521	0.152611	-0.702436	-0.065006	-0.533269	0.466885
50764	-5.124768	-14.622071	1.774982	-9.694353	-5.856373	0.904976	-0.696673	-0.084438	-0.519269	0.487726
50765	-5.439899	-14.116414	5.084786	-7.854962	-6.895915	2.245390	-0.687161	-0.103311	-0.506874	0.510113
50766	-6.659502	-13.526114	8.430070	-6.013262	-7.574376	4.497646	-0.675901	-0.116444	-0.496210	0.532330
50767	-7.859620	-12.508698	10.783522	-4.322288	-7.495781	6.299639	-0.665592	-0.120626	-0.484988	0.554278
50768	-8.488215	-11.012182	11.854219	-2.746741	-6.644052	6.983018	-0.657441	-0.115241	-0.472662	0.575397
50769	-9.226785	-9.143176	12.214551	-0.910367	-5.039802	7.264532	-0.650848	-0.100717	-0.461312	0.594511
50770	-10.029413	-7.232050	12.651649	1.313663	-3.421556	7.491847	-0.644681	-0.079167	-0.453510	0.610285
50771	-11.076171	-6.336782	12.810535	2.813527	-1.688930	7.966048	-0.639317	-0.052818	-0.448544	0.622327
50772	-11.798696	-5.751018	13.248551	4.285138	-0.377089	8.330869	-0.634712	-0.023333	-0.444539	0.631649
50773	-11.640676	-5.160845	13.859389	5.770962	0.229122	8.096299	-0.629729	0.009051	-0.441313	0.639221
50774	-11.693192	-4.996875	14.172836	6.846511	1.131458	7.914935	-0.623394	0.042409	-0.438281	0.646136
50775	-11.594346	-4.417818	14.621605	8.287797	1.907826	7.370648	-0.615612	0.075037	-0.434336	0.653256
50776	-11.571214	-3.569074	14.993157	9.821992	2.801894	6.526485	-0.606830	0.106386	-0.427965	0.661275
50777	-10.893826	-2.839363	14.418631	10.349688	3.459450	4.865209	-0.596701	0.135585	-0.417750	0.671603
50778	-9.719830	-1.474125	13.945000	11.057603	3.475568	2.704931	-0.585017	0.160724	-0.402860	0.685293
50779	-8.998409	0.603326	13.643075	12.277169	3.560752	0.386647	-0.572684	0.180777	-0.383172	0.701806
50780	-8.697108	3.683555	13.613313	14.306827	3.552860	-2.248918	-0.562364	0.196309	-0.359225	0.718448
50781	-8.575718	6.335101	13.322692	15.833622	3.526384	-4.518752	-0.556286	0.208925	-0.333463	0.731914
50782	-8.357699	8.047178	12.456298	16.287731	3.546861	-6.364510	-0.554753	0.220091	-0.308385	0.740748
50783	-8.169089	8.791637	11.270831	15.878572	3.802822	-7.701521	-0.557483	0.230493	-0.285549	0.744679
50784	-8.750334	8.772330	10.077726	15.124018	4.972771	-8.547532	-0.564624	0.239579	-0.264707	0.744131
50785	-9.749996	8.655108	9.229390	14.547628	6.558520	-9.119874	-0.576067	0.246084	-0.244787	0.740046
50786	-11.110863	8.595194	8.402296	13.973022	8.522575	-9.725449	-0.591402	0.249212	-0.224816	0.733209
50787	-12.340543	9.383410	7.762065	13.969330	10.231699	-10.646576	-0.610623	0.248894	-0.204251	0.723514
50788	-13.563440	11.395430	7.371019	14.929624	11.850061	-11.989703	-0.632970	0.246153	-0.184111	0.710535
50789	-15.382689	14.446008	7.019476	16.639536	14.193427	-13.824492	-0.658022	0.242871	-0.165982	0.693160
50790	-15.844107	18.706174	5.889640	18.646504	15.496951	-16.705141	-0.686777	0.240847	-0.148668	0.669498
50791	-16.342468	25.278797	4.531949	22.185222	17.568890	-21.001299	-0.719329	0.243317	-0.133392	0.636843
50792	-15.526842	25.899968	2.106521	19.719030	18.822661	-22.933653	-0.760735	0.243824	-0.116974	0.590042
50793	-14.618478	22.881259	-0.102069	13.859996	19.759664	-22.185320	-0.815610	0.220471	-0.099553	0.525607
50794	-17.614148	22.626682	-1.301241	8.434235	25.166125	-20.583565	-0.874821	0.160364	-0.100685	0.445908
50795	-40.180584	16.796023	4.053089	-13.148542	41.456154	-6.514105	-0.921743	0.086415	-0.132428	0.354098
50796	-63.905984	-6.372548	12.150435	-48.389594	33.326421	18.528054	-0.950236	0.043992	-0.162132	0.262352
50797	-52.703745	-33.352981	8.472508	-54.601967	-7.539092	20.374197	-0.966860	0.043901	-0.187728	0.167367
50798	-46.343282	-72.533547	1.611098	-57.488120	-57.358425	18.497076	-0.972096	0.033554	-0.212780	0.092888
50799	-24.870618	-57.148615	7.310524	-27.427063	-52.713138	10.272619	-0.971917	-0.015773	-0.226151	0.063123
50800	-13.036805	-30.655213	17.251193	-7.393850	-30.659687	10.489139	-0.968767	-0.041582	-0.239744	0.047786
50801	-6.650000	-18.813635	18.186299	0.918331	-20.029332	8.265982	-0.967940	-0.033065	-0.246464	0.035423
50802	-3.005231	-11.634705	15.072605	3.836723	-12.511282	4.339932	-0.967929	-0.019883	-0.249216	0.024670
50803	-1.629937	-3.590720	12.490543	4.487222	-4.103635	1.788395	-0.968559	-0.013131	-0.247926	0.015898
50804	-1.855902	0.245193	11.350619	3.912135	-0.014381	1.005434	-0.968699	-0.004302	-0.248147	0.005129
50805	-2.828210	0.772206	12.781318	3.795273	0.737020	2.717453	-0.967987	0.004727	-0.250879	-0.006154
50806	-3.237133	1.967799	13.753342	3.938510	2.191399	3.721926	-0.967026	0.013555	-0.253686	-0.017915
50807	-3.751599	2.442764	14.162778	3.678757	2.953612	4.271346	-0.965895	0.024441	-0.255988	-0.030334
50808	-4.768503	2.082661	14.561644	2.981939	2.927491	5.074950	-0.964761	0.038169	-0.256677	-0.043549
50809	-6.168006	0.771086	14.617751	1.847726	1.954855	5.841859	-0.963666	0.054214	-0.255108	-0.057697
50810	-8.372121	-0.475563	14.753867	0.060210	0.999121	7.127646	-0.962497	0.071628	-0.251604	-0.071860
50811	-9.470694	-1.233148	14.513526	-1.065030	0.575289	7.518386	-0.961329	0.091764	-0.245112	-0.085703
50812	-8.065600	-1.311566	14.077566	-0.342158	1.115409	6.421551	-0.959934	0.115266	-0.235399	-0.099140
50813	-6.460171	-2.282124	14.194176	0.951921	1.049577	5.883208	-0.958138	0.139270	-0.223764	-0.111823
50814	-6.699976	-3.066166	13.820100	0.372016	0.746195	5.825390	-0.956410	0.160919	-0.209574	-0.124354
50815	-7.642608	-3.864479	11.872675	-1.416228	-0.366762	4.751918	-0.954531	0.182945	-0.191084	-0.137436
50816	-7.506076	-5.073284	9.004814	-2.272428	-2.174202	2.566718	-0.951306	0.207992	-0.170751	-0.150338
50817	-7.327577	-6.469656	6.539603	-2.603553	-4.062958	0.911648	-0.946016	0.236460	-0.151749	-0.161595
50818	-7.424494	-8.069852	5.103516	-2.603220	-5.723512	0.518584	-0.939257	0.265689	-0.135278	-0.170019
50819	-7.746945	-8.999712	4.295850	-2.839402	-6.553413	0.600383	-0.932197	0.293495	-0.119652	-0.174792
50820	-7.776257	-9.650101	3.428077	-2.924687	-7.155101	0.462335	-0.925780	0.318114	-0.103967	-0.175859
50821	-7.825010	-9.236813	2.763030	-3.450477	-6.906817	-0.088743	-0.920124	0.340199	-0.088252	-0.172764
50822	-7.926795	-7.987238	1.591707	-4.367772	-6.484407	-1.565071	-0.913964	0.362641	-0.072266	-0.167149
50823	-8.221804	-7.620286	-0.176105	-5.076753	-7.220207	-2.900421	-0.906111	0.387491	-0.055729	-0.160336
50824	-7.869963	-8.583270	-1.555307	-4.675076	-8.436775	-3.106645	-0.897072	0.413598	-0.040626	-0.150160
50825	-8.128092	-9.647617	-1.960764	-4.934405	-9.077702	-2.315951	-0.888649	0.437240	-0.028848	-0.135250
50826	-8.996529	-9.202982	-1.979971	-6.333168	-8.587012	-2.351394	-0.881847	0.456571	-0.020257	-0.116097
50827	-9.481200	-6.845873	-2.269351	-7.756192	-7.146958	-4.277252	-0.874397	0.475716	-0.013487	-0.094565
50828	-9.591714	-5.026736	-2.849112	-8.522840	-6.226441	-6.077335	-0.863180	0.499675	-0.007294	-0.072056
50829	-8.569960	-5.053119	-3.805211	-7.797016	-6.473757	-6.538298	-0.846943	0.529563	-0.003307	-0.047325
50830	-7.987550	-6.885631	-4.531853	-7.453446	-7.287507	-5.014699	-0.827743	0.560746	-0.004732	-0.019567
50831	-8.509871	-7.633863	-4.335542	-8.457096	-6.603761	-3.959003	-0.808967	0.587620	-0.011670	0.011787
50832	-8.544611	-6.837052	-2.722150	-8.891685	-3.915106	-4.095137	-0.791988	0.608311	-0.022482	0.046978
50833	-8.862333	-4.611748	-0.540720	-9.145645	-0.294406	-5.775394	-0.775709	0.624215	-0.035935	0.085673
50834	-9.108402	-1.256530	2.451391	-8.478056	4.160459	-8.674046	-0.757961	0.638012	-0.052085	0.125391
50835	-11.252113	2.343111	5.212104	-8.867462	8.619025	-12.310904	-0.735251	0.654118	-0.072329	0.162184
50836	-13.573103	3.870810	7.476012	-9.193760	12.217045	-14.413478	-0.704658	0.675831	-0.095845	0.193710
50837	-16.606900	4.585409	8.906229	-10.246521	15.100989	-16.363336	-0.666001	0.703527	-0.118795	0.217670
50838	-17.126912	4.416376	9.398942	-9.608927	15.783729	-17.527177	-0.619427	0.736511	-0.139035	0.233519
50839	-15.598388	4.073699	9.590120	-7.599808	14.885509	-18.317874	-0.567322	0.770119	-0.159293	0.244311
50840	-12.486407	5.183526	8.924156	-4.987277	11.673155	-19.867751	-0.508747	0.802957	-0.181767	0.251788
50841	-12.168145	5.876626	8.660674	-4.855324	9.964948	-21.411161	-0.441597	0.835900	-0.205186	0.253300
50842	-8.159980	6.102930	5.121843	-4.236216	4.085405	-19.573321	-0.367430	0.869733	-0.218708	0.246426
50843	4.001200	9.338407	-4.007052	-1.143401	-10.569856	-12.227976	-0.273496	0.913366	-0.202249	0.223738
50844	20.142411	11.422937	-23.014352	4.112068	-25.626108	9.800489	-0.154702	0.962420	-0.143423	0.171009
50845	27.158719	4.390306	-49.149508	10.535965	-19.567093	41.722542	-0.056521	0.991501	-0.075152	0.089906
50846	36.683123	-10.713329	-67.113625	28.841787	-0.356808	61.762429	-0.044970	0.997887	-0.040852	0.023046
50847	39.032458	-14.553177	-44.778789	38.326854	4.971803	37.568148	-0.095298	0.994834	-0.034983	0.000777
50848	20.550743	-31.655818	-50.792128	19.738605	19.655678	46.989990	-0.110905	0.993579	0.003190	0.022142
50849	17.807543	19.598372	12.763801	19.113967	-16.674608	-24.653453	-0.071832	0.996455	0.015460	0.040967
50850	6.639270	-14.541527	-13.364140	4.454626	12.553277	6.207035	-0.076822	0.994925	0.030965	0.057137
50851	5.607110	10.094248	-0.262498	6.173009	-9.743220	-10.415869	-0.080031	0.994748	0.024067	0.059091
50852	-1.587430	-4.391849	-6.607679	-2.557121	3.050826	-2.768945	-0.102672	0.992995	0.006510	0.058116
50853	-6.397497	-9.831480	-5.606197	-7.183647	8.473047	-3.058950	-0.113770	0.991496	-0.007388	0.062746
50854	-7.268154	-6.469021	-3.581373	-7.666794	5.732069	-5.829747	-0.116126	0.990913	-0.012179	0.066771
50855	-3.901346	-2.448601	-5.186967	-4.578147	1.338744	-4.775913	-0.117304	0.990788	-0.013036	0.066396
50856	-2.006110	-0.080977	-6.250913	-2.847893	-1.311146	-4.044239	-0.120560	0.990667	-0.014835	0.061838
50857	-0.705984	-0.395331	-7.423310	-1.644822	-1.397963	-2.664294	-0.125705	0.990311	-0.019259	0.055780
50858	-0.205781	-0.827796	-7.523643	-1.073138	-1.102586	-2.398878	-0.130947	0.989770	-0.025188	0.050739
50859	-0.244785	-1.972410	-7.109913	-0.965186	0.063911	-2.493854	-0.132500	0.989544	-0.030084	0.048378
50860	-1.239621	-5.520615	-6.816441	-1.710236	3.652620	-1.925317	-0.128906	0.989941	-0.033635	0.047636
50861	-1.604771	-7.292112	-6.541942	-1.886836	5.491406	-1.760916	-0.129307	0.989925	-0.036195	0.044919
50862	-1.342991	-7.931623	-6.559395	-1.482512	5.998309	-1.472621	-0.138889	0.988842	-0.039000	0.037148
50863	0.231072	-7.495624	-8.339553	0.112918	4.608056	0.410013	-0.163607	0.985268	-0.044257	0.022808
50864	2.575149	-5.263136	-10.389167	2.478433	0.957589	1.812376	-0.194719	0.979331	-0.054353	0.006418
50865	4.786910	-6.554967	-11.942271	5.140433	0.436740	3.670561	-0.224046	0.972251	-0.066900	-0.007415
50866	7.178047	-8.244428	-12.354350	8.093263	0.573087	4.547975	-0.245370	0.966048	-0.078903	-0.017872
50867	8.716863	-10.634571	-13.502725	10.346291	1.144348	6.404501	-0.258432	0.961506	-0.089074	-0.028020
50868	8.251985	-13.776609	-15.179605	10.955082	2.445077	9.220395	-0.268390	0.957424	-0.097901	-0.041493
50869	6.596425	-16.247017	-18.209201	10.677861	2.486650	12.962400	-0.283130	0.951210	-0.105804	-0.061985
50870	4.968302	-19.137864	-23.722584	11.153563	0.777378	18.967603	-0.308240	0.940806	-0.112769	-0.084582
50871	4.448875	-19.131610	-27.896439	11.793917	-4.019277	21.936001	-0.349213	0.924627	-0.120392	-0.092846
50872	0.482503	-12.945391	-26.063187	5.867318	-9.421239	17.081212	-0.392008	0.907111	-0.128098	-0.084082
50873	-1.038576	-9.463290	-22.922605	2.215896	-11.272534	12.180055	-0.428959	0.891058	-0.133763	-0.064168
50874	-2.568347	-7.267274	-19.773937	-1.124052	-11.190763	8.177841	-0.459342	0.877049	-0.135216	-0.038807
50875	-1.815985	-8.096643	-19.603484	-1.468082	-11.743219	7.874245	-0.487360	0.863201	-0.131344	-0.010674
50876	-2.548621	-8.385054	-19.465600	-3.519048	-12.185375	7.349451	-0.514081	0.848525	-0.123407	0.022289
50877	-6.486082	-7.199773	-19.068721	-8.991195	-12.094617	5.354416	-0.538790	0.832809	-0.112096	0.059745
50878	-11.646519	-4.503495	-16.780125	-15.060597	-10.091161	0.606033	-0.556021	0.819538	-0.099111	0.096831
50879	-12.719763	-3.882114	-13.856426	-16.162832	-7.341193	-2.494146	-0.563007	0.811477	-0.086064	0.130851
50880	-11.748667	-5.777320	-12.591188	-15.508938	-5.535177	-2.154540	-0.560381	0.808100	-0.075284	0.165166
50881	-10.266892	-9.172870	-10.795251	-14.464042	-2.677193	-0.351868	-0.555059	0.802547	-0.066214	0.208431
50882	-12.947884	-7.447486	-7.387152	-15.887701	1.242585	-4.968342	-0.548808	0.792842	-0.056982	0.258775
50883	-12.943658	-3.933183	-4.218148	-13.786263	3.201562	-10.372754	-0.539741	0.782469	-0.046099	0.307078
50884	-12.194253	-0.103282	-2.640998	-10.984016	3.041790	-14.880328	-0.525067	0.775563	-0.036279	0.348556
50885	-8.418556	0.744748	-3.184735	-7.787165	0.866195	-14.301180	-0.502938	0.773381	-0.031773	0.384610
50886	-5.865661	0.467266	-4.116623	-6.473660	-0.597121	-12.860851	-0.475179	0.772507	-0.034609	0.419811
50887	-4.916611	-1.118434	-4.173124	-6.357642	0.134686	-11.354843	-0.443864	0.770083	-0.044254	0.456068
50888	-4.575573	-2.293696	-3.483976	-5.923287	1.550366	-10.717428	-0.414926	0.763235	-0.057438	0.491944
50889	-4.080603	-1.618320	-2.406906	-4.402115	1.863951	-11.293820	-0.389426	0.752826	-0.073032	0.525612
50890	-3.357528	-0.869941	-1.749338	-3.100523	1.576457	-11.539658	-0.366197	0.740322	-0.091368	0.556304
50891	-3.118349	-0.256344	-1.298255	-2.251247	1.404648	-11.916963	-0.343913	0.726456	-0.113598	0.584021
50892	-2.663032	0.366425	-1.078051	-1.602593	0.928057	-12.038669	-0.321021	0.712248	-0.141550	0.607958
50893	-2.299818	-0.617263	-1.059001	-1.536367	1.613309	-11.163116	-0.297643	0.697083	-0.175666	0.628192
50894	-2.672706	-1.126727	-0.960308	-1.343236	2.411878	-11.118825	-0.275302	0.679715	-0.213862	0.645336
50895	-2.806953	-0.654119	-0.653069	-0.764489	2.311347	-11.486027	-0.254381	0.660889	-0.254535	0.658581
50896	-1.606600	-0.342566	-0.485134	-0.408254	1.372009	-10.752085	-0.233969	0.640891	-0.298151	0.667550
50897	-1.114711	-0.291623	-0.818120	-0.653110	1.111864	-10.388990	-0.214488	0.619104	-0.345782	0.671669
50898	-0.804072	-1.844579	-1.673198	-1.148801	2.186454	-8.951487	-0.195923	0.594602	-0.398466	0.670289
50899	-2.091016	-4.636110	-2.231910	-0.428674	4.975115	-7.388249	-0.180043	0.566826	-0.451703	0.665024
50900	-3.818375	-5.712289	-2.119801	1.059921	6.590007	-7.149072	-0.167904	0.538023	-0.501070	0.656710
50901	-3.984601	-5.700168	-1.760070	2.003543	6.199102	-6.817375	-0.160088	0.509986	-0.546699	0.644520
50902	-2.694743	-5.212637	-2.327803	1.247389	4.961053	-6.118894	-0.156604	0.480443	-0.592165	0.627687
50903	-2.359261	-5.761320	-3.313929	0.913901	4.958591	-4.887348	-0.151895	0.445613	-0.641787	0.605365
50904	-5.925792	-9.613936	-4.652195	4.067799	8.119926	-1.660407	-0.143127	0.405339	-0.693903	0.577680
50905	-10.521432	-13.406780	-4.121996	9.735517	9.402265	1.311178	-0.135148	0.365945	-0.741978	0.545241
50906	-12.347299	-16.762638	-4.994583	12.586589	8.524678	5.242946	-0.135080	0.331249	-0.782513	0.509610
50907	-11.387203	-18.738737	-6.992808	11.859718	6.231467	8.884300	-0.144161	0.297739	-0.816415	0.473325
50908	-9.060878	-18.989630	-8.863306	9.120943	3.378690	10.829075	-0.151094	0.261361	-0.845998	0.439486
50909	-8.992758	-18.284477	-10.151562	8.153897	1.963072	11.337964	-0.148529	0.218621	-0.874222	0.407283
50910	-11.362268	-19.250580	-11.112524	10.042682	0.552917	13.021030	-0.138353	0.170638	-0.898892	0.379124
50911	-11.523227	-18.726014	-10.835859	10.130228	-1.743896	12.430550	-0.124440	0.124194	-0.917055	0.357911
50912	-10.108620	-15.422612	-10.301455	8.407517	-2.124471	9.442007	-0.110117	0.084288	-0.929986	0.340435
50913	-7.351636	-11.891277	-10.025857	5.516649	-1.622844	6.398312	-0.097257	0.054364	-0.940404	0.321289
50914	-3.780317	-8.781683	-10.128812	1.987807	-0.665332	3.954867	-0.086281	0.036408	-0.950527	0.296190
50915	-2.400683	-14.367869	-7.364902	1.440235	-7.890018	4.399717	-0.077752	0.035680	-0.961340	0.261739
50916	0.852310	-13.069365	-7.065739	-1.463267	-8.188447	2.523487	-0.079714	0.048085	-0.968752	0.229898
50917	3.437578	-10.394802	-10.683049	-4.533494	-5.457323	3.735907	-0.082136	0.055729	-0.975534	0.196167
50918	4.115645	-9.329778	-13.035622	-5.525110	-4.541717	5.110821	-0.078910	0.057300	-0.979988	0.173532
50919	3.323170	-4.414468	-12.297735	-4.865153	-0.576939	2.747354	-0.072793	0.057487	-0.982234	0.163135
50920	3.723452	1.271564	-10.331042	-5.354501	3.869842	-0.949206	-0.070567	0.059521	-0.983739	0.154060
50921	5.162076	3.111475	-11.011279	-7.066958	5.396172	-0.952138	-0.073618	0.062832	-0.984959	0.143140
50922	6.340097	2.951761	-12.500786	-8.527094	5.178740	0.465250	-0.077901	0.064640	-0.986547	0.128367
50923	4.928015	-3.801896	-13.643775	-6.679091	-1.186349	3.561192	-0.080608	0.062266	-0.988334	0.113230
50924	2.366097	-10.588272	-12.807361	-3.453680	-7.796111	4.645058	-0.083779	0.054795	-0.988832	0.110410
50925	1.319767	-11.762047	-11.793164	-2.421375	-8.898740	4.119204	-0.087471	0.044989	-0.987840	0.120405
50926	1.041186	-7.843302	-10.009929	-2.384987	-5.136134	1.620164	-0.091128	0.034745	-0.985647	0.137798
50927	1.183004	-3.134904	-9.065153	-2.747208	-0.457818	-0.559037	-0.095622	0.024041	-0.982386	0.158731
50928	1.577755	0.152992	-9.002373	-3.271269	3.012570	-1.827414	-0.100668	0.013381	-0.978710	0.178364
50929	1.314234	-0.006718	-9.928923	-3.245395	3.556060	-1.030818	-0.105669	0.003105	-0.975263	0.194130
50930	1.131538	-1.263735	-10.642087	-3.311385	2.993068	-0.004602	-0.109815	-0.006459	-0.972133	0.207019
50931	0.243932	-2.980254	-10.660561	-2.623849	1.771455	0.796586	-0.113423	-0.016062	-0.968688	0.220275
50932	-1.025855	-4.195907	-10.268490	-1.518793	0.869258	1.188420	-0.118443	-0.025631	-0.964146	0.236087
50933	-2.185769	-5.144156	-9.930870	-0.598697	0.287724	1.562706	-0.125869	-0.035013	-0.957868	0.255775
50934	-2.713487	-5.761708	-9.725244	-0.365238	0.156329	1.804128	-0.135241	-0.044384	-0.949568	0.279393
50935	-2.598135	-5.498070	-8.898050	-0.496265	0.487059	0.940939	-0.144211	-0.053003	-0.940141	0.304186
50936	-2.104689	-5.436308	-7.669610	-0.861226	0.311265	-0.223611	-0.150706	-0.059060	-0.931780	0.324941
50937	-2.279119	-5.810462	-6.146113	-0.532975	-0.584727	-1.089303	-0.154116	-0.062896	-0.925572	0.340013
50938	-2.883730	-5.437500	-5.113166	0.294705	-0.761026	-1.852907	-0.156673	-0.065226	-0.921204	0.350117
50939	-2.895623	-5.256779	-5.164058	0.261237	-0.466790	-1.913423	-0.162387	-0.066606	-0.918371	0.354666
50940	-1.994721	-5.653241	-5.783233	-0.963693	-0.259246	-1.543158	-0.172575	-0.068774	-0.915412	0.357084
50941	-1.377237	-5.862088	-6.547914	-2.002403	0.156988	-1.146890	-0.187059	-0.070802	-0.912105	0.357856
50942	-0.675790	-6.966825	-7.315341	-3.459483	-0.095026	-0.298554	-0.204698	-0.075209	-0.907737	0.358406
50943	-1.749105	-9.191779	-8.007613	-3.777089	-1.160097	1.850503	-0.224581	-0.085118	-0.901019	0.361225
50944	-2.008510	-11.856350	-8.739197	-5.269062	-2.331072	3.888553	-0.244747	-0.099726	-0.890630	0.370043
50945	-2.455090	-15.050473	-10.296612	-7.370747	-2.871168	6.796629	-0.261089	-0.117023	-0.876204	0.387820
50946	-1.840812	-16.690537	-11.373095	-9.700621	-1.950422	7.883487	-0.268981	-0.136741	-0.856235	0.419300
50947	-1.801823	-16.185830	-10.792337	-9.761117	-0.392579	7.098288	-0.267244	-0.154125	-0.833771	0.457878
50948	-1.984101	-16.594333	-9.000862	-9.371282	-0.306055	6.683829	-0.257094	-0.166778	-0.811527	0.497505
50949	-2.937277	-17.784204	-6.846446	-8.535419	-1.019736	7.439283	-0.242692	-0.174289	-0.790222	0.535046
50950	-2.311960	-21.221556	-5.668678	-10.335319	-1.633575	9.631461	-0.228366	-0.174562	-0.771027	0.568238
50951	-1.301169	-23.910128	-5.159589	-11.939102	-1.169234	11.536451	-0.212574	-0.166021	-0.753661	0.599370
50952	0.937450	-27.425893	-6.116094	-14.675507	0.682383	14.149504	-0.191669	-0.148015	-0.739413	0.628191
50953	1.652092	-30.231345	-7.864397	-14.956498	3.908373	17.365189	-0.161091	-0.123459	-0.721853	0.661616
50954	2.143140	-29.965335	-7.536196	-12.693927	6.056851	17.757661	-0.120288	-0.093156	-0.698886	0.698864
50955	3.423262	-29.866742	-6.001947	-10.559967	7.401636	17.963756	-0.069597	-0.057893	-0.667411	0.739167
50956	4.595892	-27.321848	-4.792868	-7.582616	9.281539	15.578730	-0.013569	-0.019031	-0.620785	0.783632
50957	7.046257	-17.701725	-5.849865	-6.493552	11.247268	5.265989	0.040086	0.024487	-0.552837	0.831964
50958	10.039602	-3.441820	-6.814150	-9.497414	8.209330	-8.602276	0.080164	0.074008	-0.472370	0.874622
50959	11.655186	9.964989	-8.319403	-14.489213	1.538855	-19.377155	0.107938	0.124844	-0.395060	0.903710
50960	6.433615	23.906389	-8.514333	-15.066532	-10.195594	-28.607539	0.126103	0.163348	-0.337272	0.918511
50961	-9.611893	32.243754	-5.923269	-3.493073	-22.013907	-35.697121	0.128065	0.167279	-0.309993	0.927104
50962	-44.360077	22.918931	2.009859	35.160676	-24.662383	-35.299620	0.089595	0.125395	-0.297253	0.942279
50963	-90.294491	-32.307641	7.148422	94.731167	16.104318	-7.781266	0.048529	0.077122	-0.254903	0.962664
50964	-60.134777	-24.600482	21.277414	64.022374	12.095543	10.704831	0.014420	0.056365	-0.140647	0.988349
50965	-39.407849	-12.858054	17.604658	41.721672	7.751049	5.249145	0.010485	0.075409	-0.108189	0.991211
50966	-6.056560	12.373041	-14.312949	2.801627	-8.723316	-27.431831	0.031730	0.105238	-0.132743	0.985037
50967	10.334213	10.373924	-20.259354	-14.785726	-4.257434	-29.513031	0.037658	0.096256	-0.128567	0.986300
50968	7.091552	18.706920	0.629874	-8.324257	-18.069924	-11.981073	0.021086	0.077865	-0.095419	0.992163
50969	-5.486786	-7.526888	16.210752	7.684115	4.404978	6.649152	0.010781	0.051559	-0.084793	0.995005
50970	-8.910448	-8.818290	23.600972	11.112751	4.981781	13.973804	0.005217	0.043781	-0.072799	0.996372
50971	-4.748343	-5.504605	16.271355	6.089704	3.138872	6.639273	0.004246	0.042898	-0.071293	0.996523
50972	-3.579306	-5.534673	11.651753	4.547439	3.732634	2.211909	0.006039	0.041980	-0.079951	0.995896
50973	-2.565443	-4.632944	10.917337	3.457917	2.786173	1.479456	0.007282	0.041030	-0.085182	0.995494
50974	-2.576555	-3.212790	10.046152	3.371136	1.433890	0.408117	0.008080	0.040977	-0.088185	0.995228
50975	-2.913951	-2.747427	8.403947	3.591743	1.181917	-1.305771	0.009415	0.042194	-0.092401	0.994783
50976	-3.019376	-3.281988	6.407612	3.582703	1.985670	-3.166915	0.011053	0.042750	-0.097793	0.994227
50977	-3.207661	-4.521438	6.213245	3.804323	3.140066	-3.104270	0.014110	0.041347	-0.104048	0.993612
50978	-4.549616	-5.833647	8.890957	5.383885	3.705139	-0.270031	0.018387	0.038983	-0.110807	0.992907
50979	-5.736117	-7.874102	11.897508	6.900909	4.812342	3.058587	0.024504	0.039609	-0.115713	0.992190
50980	-6.361198	-9.054383	13.318317	7.864912	5.339285	4.659490	0.034111	0.044516	-0.122430	0.990891
50981	-6.679141	-9.887048	13.240697	8.593448	5.783012	4.691120	0.048064	0.052816	-0.128303	0.989161
50982	-6.229827	-8.450832	13.179702	8.441861	4.035654	4.199562	0.065655	0.062888	-0.134354	0.986754
50983	-5.363476	-6.497791	14.252976	7.862003	1.483908	4.681425	0.085027	0.073783	-0.143307	0.983255
50984	-4.728143	-8.408074	14.455844	8.101668	2.779549	5.307126	0.103985	0.085712	-0.151724	0.979194
50985	-5.305657	-8.006495	15.677845	9.282143	1.467709	5.988819	0.123300	0.099952	-0.152650	0.975451
50986	-6.459016	-5.032070	17.885000	10.487991	-2.624200	6.618089	0.142763	0.117167	-0.154013	0.970655
50987	-6.944688	-4.908681	17.071067	11.287571	-3.188123	5.223251	0.163195	0.135357	-0.164006	0.963404
50988	-6.757731	-5.698417	15.395964	11.492722	-2.741547	3.433022	0.186323	0.152711	-0.182272	0.953279
50989	-5.406716	-6.356458	13.669136	10.508409	-2.139887	2.076650	0.211709	0.166956	-0.204024	0.941105
50990	-4.423725	-5.678277	12.902560	9.402945	-3.040729	1.166225	0.237403	0.180287	-0.223056	0.928107
50991	-1.944893	-3.055908	12.264269	5.992824	-4.680714	0.466656	0.261517	0.193672	-0.238813	0.914914
50992	0.984488	-1.064056	11.524397	2.439051	-5.195510	0.284197	0.284039	0.205099	-0.255657	0.901053
50993	4.458110	-1.821883	10.256937	0.080617	-2.926150	1.133345	0.305996	0.215053	-0.272216	0.886576
50994	6.623928	-2.924817	8.635911	-0.878491	-0.550589	1.408901	0.328354	0.224779	-0.281423	0.873189
50995	4.466045	-0.954140	10.049675	-0.228953	-3.785287	0.553921	0.350529	0.235748	-0.283376	0.860959
50996	3.384710	2.496899	9.857059	-1.920819	-6.259705	-1.328811	0.370187	0.251206	-0.282126	0.848683
50997	3.733373	4.930793	8.514902	-4.163732	-6.579160	-2.732339	0.386234	0.266838	-0.285313	0.835594
50998	4.082634	4.355080	6.379032	-4.308802	-4.639284	-3.792928	0.399834	0.279247	-0.291147	0.823035
50999	3.718201	3.896922	5.149273	-3.979821	-3.714661	-4.724650	0.412307	0.288795	-0.296934	0.811437
51000	3.324180	2.286137	4.197065	-2.601912	-2.450678	-5.217498	0.422129	0.299130	-0.302209	0.800624
51001	4.963001	1.520792	2.094668	-3.074533	0.219966	-5.140697	0.426341	0.314612	-0.302052	0.792476
51002	6.168452	2.133533	0.268675	-4.423993	1.812479	-5.361668	0.426499	0.333130	-0.297106	0.786671
51003	7.217097	3.847897	-0.851232	-6.511983	2.241184	-5.320520	0.423946	0.351914	-0.287780	0.783331
51004	8.332716	5.726832	-1.253287	-8.580425	2.009910	-4.701050	0.420617	0.366447	-0.278147	0.781941
51005	9.009877	6.584987	-0.228132	-9.123288	0.995950	-3.459621	0.417441	0.374739	-0.270084	0.782540
51006	8.388716	6.369459	0.748383	-8.277228	0.004962	-3.256265	0.414194	0.379244	-0.264312	0.784064
51007	8.235461	6.079925	1.194130	-7.759744	-0.323658	-3.038106	0.410093	0.382457	-0.260454	0.785948
51008	7.717108	5.133852	1.543522	-6.619768	-0.398574	-3.155985	0.404120	0.383445	-0.258023	0.789355
51009	6.502033	2.919743	2.563271	-3.923230	-0.536415	-3.355760	0.396587	0.382454	-0.254147	0.794894
51010	5.846282	2.428864	3.490116	-2.901833	-1.228415	-3.306562	0.387584	0.381218	-0.245899	0.802487
51011	5.311350	3.348538	4.233156	-3.098054	-2.511223	-3.375417	0.376738	0.379413	-0.235446	0.811590
51012	3.685443	4.169001	5.131665	-2.595808	-4.325555	-4.169298	0.365316	0.376544	-0.226633	0.820607
51013	1.123420	4.335781	6.101026	-1.028142	-6.174705	-5.558481	0.355917	0.376378	-0.221785	0.826120
51014	1.333178	6.269105	6.482456	-2.271856	-7.630983	-5.373653	0.345708	0.379898	-0.222123	0.828749
51015	2.184256	6.661746	5.894053	-3.110743	-7.300869	-5.240575	0.331877	0.382685	-0.227841	0.831564
51016	1.435857	6.245490	5.214994	-2.640480	-7.038106	-6.384954	0.313715	0.382734	-0.235476	0.836450
51017	0.694440	5.990826	5.556943	-1.745965	-7.481477	-6.945344	0.290722	0.380114	-0.242958	0.843780
51018	-3.335236	6.780177	6.503949	0.699781	-9.943567	-9.916436	0.263536	0.375907	-0.252351	0.851799
51019	-4.891015	4.698137	5.635131	2.912536	-8.163777	-11.423565	0.232492	0.376047	-0.264547	0.857059
51020	-4.922387	5.000715	5.566133	3.173581	-8.120753	-11.853941	0.197125	0.378595	-0.276367	0.861062
51021	-4.712720	4.390753	5.464774	3.824066	-7.261226	-11.804845	0.157560	0.378460	-0.285649	0.866226
51022	-5.865406	4.880524	6.192299	5.358430	-7.758069	-12.571229	0.113415	0.372672	-0.291831	0.873549
51023	-8.139071	5.594485	7.412999	8.136198	-8.395360	-13.775219	0.064471	0.360172	-0.297464	0.881836
51024	-10.878844	6.119794	9.394290	12.111335	-8.714682	-14.417109	0.010183	0.340846	-0.304957	0.889225
51025	-15.046275	6.067528	11.629747	17.725536	-7.642739	-14.852937	-0.049691	0.316201	-0.316082	0.893107
51026	-18.504343	4.652533	13.454167	22.634361	-4.415831	-13.346629	-0.116977	0.287913	-0.329350	0.891600
51027	-23.150987	2.137782	14.754509	27.465606	1.346278	-10.631456	-0.191175	0.256521	-0.341055	0.883929
51028	-26.362863	-3.546220	14.776875	28.224559	9.887520	-4.386313	-0.269222	0.221146	-0.346757	0.870847
51029	-31.344086	-10.056405	15.207945	27.244750	19.497329	3.921791	-0.351456	0.177348	-0.342906	0.852902
51030	-36.112517	-15.734426	17.933281	24.047830	26.551487	14.368567	-0.430993	0.135042	-0.339033	0.825267
51031	-33.482611	-32.272352	15.786491	4.278910	31.194486	27.795266	-0.505979	0.105401	-0.351703	0.780501
51032	-25.976149	-58.876372	6.143739	-30.145768	29.796962	38.902642	-0.566891	0.081846	-0.366563	0.733190
51033	-14.298067	-61.289210	-1.601233	-45.406383	16.110301	30.652465	-0.609542	0.053422	-0.362253	0.703120
51034	-4.759772	-46.678307	-3.429196	-39.735953	4.281294	14.980550	-0.636480	0.026816	-0.354902	0.684265
51035	0.307185	-37.043494	-0.794462	-32.351864	-2.947009	7.998651	-0.652501	0.006926	-0.356483	0.668666
51036	0.546008	-28.736500	4.041237	-23.280336	-5.857630	6.497256	-0.661925	-0.007577	-0.360671	0.657050
51037	-0.693739	-17.996954	8.862406	-11.652721	-6.429967	5.212401	-0.667418	-0.018568	-0.364536	0.649093
51038	-2.492400	-7.553661	11.838019	-0.951052	-5.164226	3.447338	-0.673393	-0.024026	-0.368580	0.640401
51039	-3.337854	-2.087654	12.104880	4.128272	-3.800146	1.612795	-0.680902	-0.024649	-0.374956	0.628628
51040	-4.447851	1.283505	12.211514	7.315689	-2.264769	0.765709	-0.690054	-0.024836	-0.381613	0.614476
51041	-4.851417	4.969946	13.570944	11.290991	-1.610032	0.302824	-0.700661	-0.023929	-0.388806	0.597772
51042	-6.035940	6.662355	15.198780	13.657606	-0.680470	1.359417	-0.714154	-0.022467	-0.395411	0.577174
51043	-7.392418	7.922069	17.099400	15.719329	0.446225	2.933129	-0.731316	-0.016984	-0.401455	0.551111
51044	-8.389326	5.674847	17.340658	13.919944	1.075978	4.619429	-0.751882	-0.004138	-0.406605	0.518969
51045	-7.566332	2.459643	17.150744	11.397675	-0.020953	5.269324	-0.773772	0.012689	-0.409478	0.483160
51046	-8.183972	-0.339818	17.909415	9.764239	-0.443739	7.282391	-0.795310	0.030867	-0.410239	0.445234
51047	-9.503143	-3.389331	18.829173	8.005311	-0.788955	9.975581	-0.816185	0.050330	-0.407058	0.406955
51048	-11.057962	-5.436041	18.793295	6.119673	-0.240942	11.807940	-0.836709	0.072635	-0.398786	0.368256
51049	-12.038801	-6.665535	17.362395	3.803461	0.658210	12.001094	-0.855826	0.102090	-0.386741	0.327980
51050	-12.948060	-8.171198	14.974178	0.653482	1.218588	11.556875	-0.872104	0.140780	-0.371655	0.285462
51051	-15.051019	-9.902125	12.160960	-3.525150	1.893534	11.550877	-0.884554	0.188904	-0.352335	0.240292
51052	-16.657067	-12.490185	8.829466	-7.941503	0.779180	11.346877	-0.891986	0.242381	-0.328505	0.194157
51053	-16.579767	-13.419332	4.505853	-11.106866	-1.074261	8.915717	-0.893579	0.295228	-0.302784	0.150596
51054	-16.099258	-11.763944	0.934232	-12.719210	-1.614323	5.486163	-0.887136	0.348429	-0.281058	0.112224
51055	-16.194248	-11.337388	-3.127085	-14.780437	-3.678697	3.168952	-0.872327	0.403164	-0.264595	0.080586
51056	-17.869632	-12.093791	-6.152197	-17.194249	-5.656646	3.443045	-0.852306	0.455500	-0.250407	0.058224
51057	-18.525904	-13.505349	-8.902968	-18.416388	-8.118477	4.319616	-0.831695	0.500521	-0.235553	0.047726
51058	-17.978355	-14.028798	-9.680439	-18.073878	-8.607380	4.779378	-0.815037	0.533215	-0.220017	0.054668
51059	-20.208169	-10.606950	-8.918434	-20.627620	-4.871170	2.477295	-0.803139	0.554418	-0.203647	0.078210
51060	-24.178347	-4.546684	-9.059327	-25.371904	-0.309209	-3.237452	-0.792592	0.570765	-0.184393	0.109652
51061	-21.156734	-1.949072	-9.639801	-23.233863	-0.256189	-7.748550	-0.775849	0.591555	-0.166281	0.143074
51062	-18.464537	-3.543757	-9.796555	-21.056409	-0.980043	-7.586852	-0.755206	0.610108	-0.157361	0.180748
51063	-18.018465	-3.502586	-7.894212	-19.828684	1.729713	-8.122239	-0.733015	0.623613	-0.157182	0.221560
51064	-16.721426	-4.080492	-6.516278	-17.967901	3.556988	-8.084806	-0.710804	0.631386	-0.162587	0.263961
51065	-14.888940	-4.393823	-5.360100	-15.613214	4.810943	-8.206517	-0.690591	0.631401	-0.170415	0.308829
51066	-12.765048	-2.364565	-4.287073	-12.469986	5.551578	-10.456087	-0.671268	0.623675	-0.180064	0.357778
51067	-12.414836	-0.739404	-2.120640	-9.545130	7.858849	-12.282956	-0.646043	0.613171	-0.194583	0.410837
51068	-11.772109	-0.192809	1.621250	-5.002340	10.410026	-12.580004	-0.613573	0.603436	-0.210450	0.463793
51069	-8.717734	-3.435826	5.799438	0.187273	10.910627	-8.329307	-0.575702	0.590290	-0.226515	0.518475
51070	-12.371823	-1.567709	11.601664	6.126757	15.871174	-10.440585	-0.542644	0.572380	-0.231102	0.569659
51071	-7.975795	1.834208	15.823776	13.563061	11.508637	-10.689534	-0.511799	0.559840	-0.228816	0.610151
51072	-4.279869	2.490404	18.628376	17.625355	7.669856	-8.432841	-0.486927	0.545440	-0.223371	0.644595
51073	-4.727793	9.663721	22.428032	24.270898	4.667342	-12.580021	-0.466922	0.531856	-0.219446	0.671533
51074	-4.612514	11.986509	22.048989	25.078214	2.086352	-14.020397	-0.446843	0.529152	-0.226345	0.684907
51075	-0.350399	11.232808	19.525128	22.227287	-2.639984	-12.345901	-0.431046	0.532703	-0.242989	0.686574
51076	-0.216015	8.778043	18.021949	19.831705	-2.398096	-11.476458	-0.422377	0.536104	-0.266630	0.680514
51077	-1.989307	8.269013	16.945290	18.661722	-1.002880	-13.001380	-0.425385	0.538447	-0.290159	0.667031
51078	-4.325829	7.946862	15.649481	17.299346	1.360962	-14.870706	-0.438402	0.542580	-0.315690	0.643234
51079	-7.076163	4.085903	13.657073	14.252155	5.967594	-13.616606	-0.459136	0.550007	-0.343547	0.607175
51080	-10.431527	-3.352763	9.420704	8.137658	11.876496	-8.599383	-0.488352	0.559554	-0.368246	0.559291
51081	-11.474534	-10.053015	2.439962	-0.450017	13.494383	-2.319037	-0.526404	0.569104	-0.383696	0.501794
51082	-9.273745	-17.088022	-7.252095	-10.490627	8.817513	5.747465	-0.563608	0.579920	-0.392298	0.438339
51083	-3.787208	-22.503748	-15.111416	-15.774173	-1.395723	12.484569	-0.595279	0.592563	-0.392504	0.374770
51084	3.921834	-29.071760	-21.542045	-16.231574	-14.543398	19.307407	-0.621280	0.603102	-0.386539	0.317595
51085	8.267262	-31.331506	-21.930761	-11.621853	-21.736045	20.555636	-0.648462	0.603213	-0.374844	0.274087
51086	9.476852	-29.241888	-18.624974	-6.521295	-22.965930	17.041794	-0.675384	0.595239	-0.361568	0.242518
51087	9.134320	-23.493104	-13.773709	-2.230319	-20.125103	10.555401	-0.691662	0.591831	-0.352769	0.216550
51088	8.399145	-23.003887	-10.881712	0.588053	-18.048861	9.983869	-0.691289	0.600125	-0.352125	0.194879
51089	6.059271	-21.839213	-6.960333	2.727435	-13.362092	9.579614	-0.684352	0.610468	-0.355284	0.181011
51090	2.353350	-19.841695	-3.019634	3.252210	-7.451895	8.686789	-0.680081	0.615517	-0.357657	0.175244
51091	-1.621744	-16.999081	-0.588254	1.807238	-2.505143	6.992032	-0.685211	0.611554	-0.354694	0.175157
51092	-3.415963	-12.029893	0.221225	-0.034782	0.007035	2.694026	-0.697256	0.601060	-0.347325	0.178680
51093	-3.549161	-7.601806	0.731496	-0.750713	1.204444	-1.512000	-0.704736	0.593543	-0.342619	0.183482
51094	-3.937502	-6.838901	0.686134	-1.253932	1.553891	-2.147290	-0.704768	0.591812	-0.343496	0.187273
51095	-5.080001	-7.932776	0.722816	-1.845166	2.134918	-0.796327	-0.701762	0.591571	-0.347627	0.191648
51096	-6.076884	-7.998296	1.176585	-2.151069	3.164975	-0.450992	-0.700792	0.589050	-0.350778	0.197144
51097	-5.906502	-7.599154	1.123084	-2.152149	3.096879	-0.886754	-0.703830	0.583120	-0.350998	0.203455
51098	-5.211112	-6.783142	1.089883	-1.901484	2.722820	-1.855075	-0.709413	0.574829	-0.349251	0.210543
51099	-4.866808	-5.665677	1.682530	-1.428702	3.089988	-2.955070	-0.713327	0.567811	-0.348981	0.216720
51100	-5.001736	-6.546303	1.474210	-1.630003	2.784208	-2.090254	-0.714215	0.564140	-0.350558	0.220799
51101	-5.314569	-7.959985	1.168133	-1.951197	2.431201	-0.688401	-0.713444	0.562729	-0.352604	0.223615
51102	-5.829949	-9.515194	1.002915	-2.301095	2.287469	0.911370	-0.713840	0.560767	-0.352870	0.226840
51103	-6.016903	-9.936036	1.426046	-2.181875	2.540571	1.400823	-0.718689	0.555636	-0.348090	0.231489
51104	-4.424860	-7.968592	1.257842	-1.626506	1.720934	-0.922005	-0.728466	0.546171	-0.338204	0.238017
51105	-1.603389	-4.406642	1.820608	0.351614	0.971409	-4.889850	-0.737396	0.535720	-0.330438	0.245075
51106	-1.538334	-2.950059	2.463283	0.795705	1.705439	-6.125567	-0.742774	0.527914	-0.327330	0.249900
51107	-1.486844	-2.683182	2.624148	0.918314	1.805151	-6.320674	-0.747188	0.522176	-0.325976	0.250563
51108	-1.378377	-4.551305	1.891983	0.328016	0.602905	-4.740994	-0.753339	0.516010	-0.322732	0.249114
51109	-0.359240	-5.127737	0.926716	0.170253	-1.006273	-4.690404	-0.764474	0.506217	-0.313343	0.247267
51110	3.910994	-5.923634	-2.292132	0.546553	-6.380822	-5.989031	-0.779362	0.489969	-0.302332	0.247227
51111	6.099961	-5.470804	-3.275925	1.295716	-8.418159	-7.507143	-0.793792	0.468199	-0.297048	0.249892
51112	7.104599	-7.614890	-4.330924	0.822856	-10.789085	-6.632193	-0.803153	0.447602	-0.301184	0.252758
51113	6.384943	-13.566176	-5.018285	-1.246803	-13.711515	-2.041355	-0.808712	0.428506	-0.311211	0.255960
51114	7.281162	-18.735214	-6.565336	-2.975330	-18.052064	0.785251	-0.813857	0.407144	-0.321424	0.261835
51115	7.957423	-21.514620	-7.234733	-4.338099	-20.667905	1.691868	-0.818653	0.378557	-0.331945	0.276250
51116	7.506642	-22.791106	-5.473866	-4.817958	-20.555228	2.828330	-0.816580	0.351304	-0.348118	0.297651
51117	6.876581	-25.577763	-4.063262	-6.260286	-21.276894	5.216310	-0.809196	0.324641	-0.368298	0.322750
51118	3.646202	-27.571563	-3.590079	-9.709191	-19.703825	7.611846	-0.799498	0.296814	-0.387459	0.350115
51119	-0.571103	-29.982273	-1.286031	-12.131373	-16.945745	11.781433	-0.789418	0.267087	-0.400864	0.380516
51120	-5.293526	-32.112762	1.127856	-14.469314	-13.243510	16.175616	-0.776101	0.241191	-0.406169	0.417757
51121	-9.669855	-30.117760	4.305071	-13.881081	-6.828905	18.103344	-0.755247	0.221163	-0.405325	0.465189
51122	-14.566985	-28.090612	6.526501	-13.321743	0.782416	19.598159	-0.728517	0.206071	-0.393406	0.521564
51123	-15.080001	-24.415373	9.106746	-10.116134	5.289833	18.030019	-0.701504	0.194032	-0.365675	0.580109
51124	-13.290849	-20.266876	11.772500	-6.030385	7.002638	15.484539	-0.671746	0.186290	-0.334441	0.634194
51125	-13.160458	-18.239356	14.389631	-3.059239	9.025373	15.120788	-0.637758	0.182742	-0.307175	0.682285
51126	-16.215809	-14.892556	15.875182	1.105949	13.757494	13.550910	-0.600565	0.183253	-0.276623	0.727475
51127	-18.661820	-10.183680	16.298207	6.244586	17.191872	9.746286	-0.562577	0.191825	-0.234656	0.769186
51128	-15.885759	-2.527170	15.648599	11.755388	13.908655	3.290414	-0.524979	0.210568	-0.184092	0.803846
51129	-12.678863	2.799864	14.137900	14.462560	9.633928	-1.667702	-0.488994	0.238889	-0.136924	0.827689
51130	-9.225364	4.759152	11.863989	13.707824	5.860977	-4.696201	-0.459037	0.271487	-0.097384	0.840295
51131	-7.370879	4.627229	10.082882	12.074318	4.379426	-6.293037	-0.437251	0.303349	-0.066501	0.844019
51132	-7.842971	3.642815	9.405945	11.336276	5.388074	-7.433284	-0.423500	0.332545	-0.040808	0.841663
51133	-7.547829	3.424263	9.378426	11.079064	5.515658	-7.959579	-0.416036	0.359809	-0.015618	0.834990
51134	-5.885003	4.363131	8.844702	10.711841	3.858420	-8.317040	-0.411955	0.384223	0.008401	0.826193
51135	-4.827711	5.585991	8.814770	11.119606	2.608485	-8.492890	-0.408582	0.404323	0.030316	0.817719
51136	-3.946135	6.210956	8.677526	11.154219	1.811295	-8.493673	-0.404448	0.420867	0.048652	0.810510
51137	-4.231279	5.187859	8.859391	10.634588	2.946317	-8.578626	-0.400991	0.433631	0.066618	0.804197
51138	-5.154691	4.940047	9.964241	11.394682	4.392110	-8.754076	-0.399367	0.442629	0.088279	0.797993
51139	-4.988732	5.407155	10.236998	11.750666	4.435027	-8.735465	-0.398292	0.448147	0.114650	0.792075
51140	-3.576435	5.954722	9.921735	11.426557	3.560489	-7.961243	-0.398765	0.450561	0.144468	0.785564
51141	-2.479513	7.484638	9.238894	11.757959	2.104511	-7.615878	-0.400220	0.451279	0.172148	0.778804
51142	-2.279606	6.843456	8.981960	10.965860	2.651120	-7.485286	-0.400740	0.452299	0.192328	0.773203
51143	-2.433225	3.138034	7.385657	7.110294	4.159948	-8.247308	-0.401600	0.453592	0.208359	0.767827
51144	-2.219075	-0.000998	5.429137	3.379890	4.726299	-9.016030	-0.405011	0.453958	0.226331	0.760699
51145	0.794393	-2.046251	2.828794	-0.528147	2.860135	-7.724797	-0.411246	0.453037	0.245586	0.751879
51146	3.095502	-4.492293	-1.763300	-5.405254	-0.207432	-7.912652	-0.420280	0.453894	0.261898	0.740780
51147	9.724261	-7.273251	-5.107978	-10.736913	-4.186480	-3.431056	-0.433408	0.459129	0.266564	0.728218
51148	10.751756	-16.053350	-6.361218	-18.866882	-1.792381	-2.430155	-0.451961	0.469258	0.255097	0.714461
51149	10.228368	-22.539441	-6.167434	-24.053472	1.082889	-1.398978	-0.465225	0.482523	0.241399	0.701758
51150	12.133565	-24.465589	-6.572130	-25.850258	0.579060	1.159702	-0.467843	0.488690	0.241503	0.695687
51151	17.685017	-17.079329	-5.968004	-19.507961	-4.624187	5.618751	-0.467231	0.484799	0.252198	0.695026
51152	19.069392	-7.826878	0.066035	-8.947215	-4.423073	8.222905	-0.466028	0.479269	0.253476	0.699192
51153	15.211670	-6.030258	6.632491	-4.239586	1.487452	7.262344	-0.463721	0.475434	0.243444	0.706866
51154	11.765503	-4.403591	13.075193	0.417884	6.991155	6.912052	-0.460247	0.468969	0.234692	0.716352
51155	8.394584	-0.818712	16.855026	5.624587	9.434750	5.502939	-0.456445	0.460431	0.232441	0.725005
51156	5.997732	4.674595	15.817795	10.207629	6.963196	2.650906	-0.453272	0.455636	0.232613	0.729953
51157	5.620760	8.042565	11.884590	11.393292	2.479025	0.265317	-0.451380	0.455638	0.231316	0.731534
51158	6.199401	10.159513	9.165318	11.912714	-0.874002	-0.703648	-0.454241	0.454650	0.230051	0.730777
51159	6.221205	13.303065	8.753014	14.534436	-2.646076	-1.208328	-0.463530	0.452740	0.226784	0.727142
51160	5.818239	15.069142	9.983697	16.893548	-2.278627	-1.446674	-0.477131	0.456218	0.215131	0.719673
51161	7.200125	11.216303	11.701682	14.491755	0.021289	0.409098	-0.493196	0.468086	0.195003	0.706843
51162	9.292260	4.100997	13.407182	9.546797	3.144429	3.670703	-0.511762	0.482992	0.173738	0.688936
51163	11.198652	-1.409207	15.454029	6.504664	5.772550	7.232252	-0.532800	0.495513	0.161616	0.666687
51164	12.732034	-4.180346	17.468980	5.886168	7.476347	10.040730	-0.552115	0.506378	0.155807	0.643797
51165	13.854736	-8.020595	18.124396	3.614493	8.799465	12.418999	-0.567799	0.517293	0.155666	0.621112
51166	14.523355	-10.632607	17.619191	1.686514	9.143884	13.595313	-0.581289	0.527559	0.162713	0.597753
51167	14.999265	-12.153494	16.456256	0.180958	8.835045	13.964911	-0.594213	0.536571	0.177011	0.572424
51168	14.163345	-12.368581	14.916826	-0.841225	8.541952	12.601465	-0.607406	0.544514	0.195048	0.544535
51169	11.000827	-10.803814	13.327229	-1.156089	8.784536	8.540279	-0.620354	0.552950	0.212554	0.514031
51170	6.440931	-8.817035	11.435280	-1.757815	9.062701	3.022909	-0.627661	0.568079	0.223388	0.483142
51171	2.771478	-9.071943	8.854706	-4.079685	8.395368	-0.799609	-0.623728	0.595622	0.225361	0.453222
51172	-0.829781	-14.338833	3.558551	-11.199884	5.580850	-1.918716	-0.608443	0.632380	0.222296	0.424826
51173	-3.298081	-18.440455	-1.457304	-16.703457	2.561705	-1.602143	-0.590158	0.665816	0.226202	0.396528
51174	-3.333546	-17.570200	-5.866685	-16.854562	-1.462494	-1.568249	-0.573216	0.691485	0.236090	0.370855
51175	-3.162684	-13.611419	-8.481019	-14.142554	-4.652343	-3.066997	-0.557494	0.711150	0.243992	0.352042
51176	-5.381502	-9.374625	-10.549886	-12.794012	-7.335472	-6.555537	-0.540540	0.729206	0.241907	0.342865
51177	-8.991392	-5.445066	-13.365842	-13.243163	-10.630305	-10.625604	-0.518483	0.749273	0.226633	0.344099
51178	-13.185233	-6.033045	-15.875427	-17.888215	-11.678624	-12.184290	-0.485143	0.771654	0.202694	0.357912
51179	-16.549390	-10.806547	-17.452917	-24.614505	-9.357663	-11.075829	-0.452092	0.786092	0.190433	0.376043
51180	-15.366280	-6.669519	-16.911318	-21.339045	-10.079687	-12.912586	-0.426531	0.790171	0.196850	0.393639
51181	-11.439433	0.015472	-16.284638	-14.361848	-13.174029	-13.840717	-0.405750	0.787962	0.210356	0.412592
51182	-6.878979	2.280353	-15.549812	-9.977160	-13.830041	-11.680332	-0.389106	0.782149	0.215529	0.436333
51183	-5.220446	2.302712	-14.631344	-8.974431	-12.822808	-11.073408	-0.378887	0.770711	0.206195	0.468970
51184	-6.608734	1.167243	-12.882851	-9.847462	-10.101048	-13.251877	-0.373929	0.750990	0.184537	0.511992
51185	-7.977717	-0.330175	-10.935099	-10.349063	-6.557706	-15.554100	-0.374101	0.721023	0.155216	0.562212
51186	-12.226840	-0.832292	-7.648370	-9.244624	-1.641507	-20.773955	-0.377542	0.680992	0.123463	0.615199
51187	-15.064941	-1.374213	-2.272090	-4.833798	4.657482	-23.543585	-0.375829	0.637304	0.096479	0.665799
51188	-13.818132	-2.414107	2.531823	0.068975	8.848622	-20.973750	-0.368533	0.593392	0.075031	0.711646
51189	-9.131122	-0.823300	6.012047	4.986718	7.917096	-15.513317	-0.363278	0.549204	0.055218	0.750570
51190	-5.561028	1.536526	9.435585	9.276027	5.938356	-10.742518	-0.362404	0.506369	0.026305	0.782024
51191	-3.668803	0.739653	12.741919	11.159156	6.129810	-6.067381	-0.362660	0.463030	-0.015087	0.808612
51192	-5.129831	-1.980136	17.469668	13.800701	9.062525	-1.918504	-0.358934	0.420847	-0.065185	0.830545
51193	-6.166682	-4.884115	22.347448	16.510936	10.630441	3.412461	-0.351544	0.385237	-0.116578	0.845233
51194	-7.147713	-6.289592	26.720125	19.815600	10.011849	7.822792	-0.346392	0.363603	-0.165155	0.848840
51195	-6.359511	-9.028415	27.285770	19.135174	8.966330	10.669177	-0.346616	0.357895	-0.206688	0.842050
51196	-2.682569	-10.359956	24.482404	15.398582	5.681493	11.265071	-0.350189	0.362071	-0.241532	0.829419
51197	0.055548	-10.029381	20.264322	11.833449	2.672429	9.262104	-0.353768	0.369798	-0.276732	0.813337
51198	0.424299	-10.019723	16.292753	9.433381	1.947139	6.711781	-0.356940	0.379936	-0.314039	0.793487
51199	2.470129	-11.306975	12.166129	5.578166	0.841470	5.997560	-0.361423	0.389539	-0.351837	0.770612
51200	3.542912	-13.462859	9.506223	3.039400	0.563097	6.753856	-0.369076	0.393796	-0.386803	0.747724
51201	3.317441	-15.675650	8.077864	1.937250	0.916050	7.998809	-0.379556	0.391842	-0.416134	0.727481
51202	2.872359	-15.523182	7.336891	1.854379	0.328810	7.490506	-0.391837	0.386294	-0.440106	0.709610
51203	3.040686	-14.895500	6.432897	1.358125	-0.748952	6.619431	-0.403383	0.381299	-0.462239	0.691541
51204	4.634848	-15.085840	5.542046	0.186929	-2.804975	6.673406	-0.412040	0.378059	-0.484251	0.672901
51205	4.637720	-16.450606	5.513411	0.225794	-3.456888	7.806862	-0.420794	0.374837	-0.503023	0.655285
51206	3.911669	-17.568586	5.606730	0.591442	-3.474162	8.705588	-0.433933	0.371978	-0.512701	0.640681
51207	4.078024	-17.019741	5.185161	0.217781	-4.124514	7.966775	-0.452849	0.369267	-0.511401	0.630110
51208	5.331697	-15.083280	4.547343	-0.563931	-5.595242	5.839050	-0.473751	0.367564	-0.503619	0.621953
51209	6.693155	-13.205372	4.110884	-1.029136	-7.102315	3.773052	-0.493023	0.367819	-0.495979	0.612897
51210	6.898980	-13.486664	3.919071	-1.233792	-7.486210	3.871979	-0.508571	0.371021	-0.492240	0.601164
51211	5.511904	-15.650950	4.058864	-1.116951	-6.403549	5.984283	-0.521375	0.377904	-0.488983	0.588431
51212	4.838519	-16.702196	4.165260	-0.907457	-5.917836	7.035911	-0.533770	0.387407	-0.481026	0.577598
51213	5.525590	-16.220537	3.526954	-1.301556	-6.465592	6.391524	-0.545276	0.397611	-0.468787	0.569929
51214	6.463747	-14.782676	2.787999	-1.599717	-7.152576	4.828299	-0.553423	0.406643	-0.456529	0.565638
51215	6.068053	-13.352433	2.426400	-1.436596	-6.531844	3.463725	-0.556871	0.415133	-0.447183	0.563548
51216	5.021592	-12.760314	2.178867	-1.372154	-5.286708	2.952629	-0.557646	0.423342	-0.439847	0.562448
51217	4.005644	-11.881932	2.714687	-0.520748	-4.087528	2.336872	-0.558037	0.431424	-0.431832	0.562129
51218	3.467910	-11.295944	3.589877	0.531799	-3.342878	2.063732	-0.559531	0.440085	-0.421910	0.561464
51219	2.599945	-11.807418	4.102117	0.907098	-2.226373	2.725975	-0.563883	0.448817	-0.410320	0.558782
51220	2.469075	-11.412925	4.309033	1.198327	-1.870133	2.434000	-0.570512	0.457741	-0.397160	0.554304
51221	2.945949	-10.226189	4.185197	1.450924	-2.177174	1.319255	-0.576226	0.467917	-0.385263	0.548261
51222	4.290396	-8.962988	3.879437	1.755640	-3.394879	0.146184	-0.577837	0.479862	-0.378210	0.541105
51223	4.006744	-8.602885	4.149160	2.320648	-2.899871	-0.144505	-0.573714	0.494771	-0.377010	0.532839
51224	2.480864	-8.725844	4.856876	3.091021	-1.054351	-0.055579	-0.567072	0.513282	-0.377376	0.522071
51225	0.158444	-9.870052	4.742134	2.745261	1.561662	0.672218	-0.561965	0.536073	-0.375412	0.505853
51226	-0.385127	-14.193981	1.509299	-0.846221	2.043982	4.293557	-0.562047	0.558289	-0.366380	0.488039
51227	0.260762	-16.342060	-1.563536	-3.796294	0.988255	6.130536	-0.569688	0.571357	-0.348314	0.477163
51228	0.429513	-13.886321	-2.291239	-4.313163	0.362339	3.585558	-0.581067	0.574050	-0.325411	0.476378
51229	-0.933816	-9.818730	-0.864205	-3.086592	1.683343	-0.557796	-0.589444	0.574374	-0.303863	0.479914
51230	-1.595935	-6.763628	0.200555	-1.942159	2.388271	-3.579343	-0.592032	0.579953	-0.286520	0.480687
51231	0.170264	-6.459871	-0.301280	-1.746089	0.651755	-3.617960	-0.588526	0.592439	-0.275243	0.476334
51232	1.198117	-11.077071	-2.615249	-4.404646	-0.367012	0.743527	-0.581263	0.605439	-0.270545	0.471574
51233	-0.649928	-15.229559	-4.215291	-7.423266	1.474423	4.074336	-0.578456	0.610468	-0.264322	0.472070
51234	-3.279418	-14.484994	-4.652086	-8.916666	3.499613	2.452703	-0.582723	0.607090	-0.251712	0.478033
51235	-4.602209	-11.254027	-5.025469	-9.340378	3.796787	-1.362491	-0.589099	0.601292	-0.234723	0.486123
51236	-4.926606	-9.927703	-6.322151	-10.510822	3.146961	-3.300883	-0.592012	0.597013	-0.220553	0.494423
51237	-5.649880	-9.566404	-6.872658	-11.321654	3.488454	-4.307067	-0.589649	0.592767	-0.214503	0.504905
51238	-7.966659	-10.306300	-7.121926	-12.696654	5.786874	-4.743521	-0.581062	0.588628	-0.216371	0.518717
51239	-9.863935	-10.138674	-6.626111	-12.717031	8.101261	-5.738268	-0.569114	0.582130	-0.220941	0.537046
51240	-11.732208	-8.906968	-5.286305	-11.322772	10.573303	-7.608970	-0.554409	0.572318	-0.224578	0.560935
51241	-13.018424	-4.851982	-2.835599	-7.373571	11.984135	-11.544006	-0.538138	0.559525	-0.225991	0.588445
51242	-12.319485	-0.983390	-0.687230	-3.006157	11.098672	-14.386444	-0.517882	0.546226	-0.229844	0.616933
51243	-10.842658	1.153790	1.417527	0.838504	9.593564	-15.112696	-0.491928	0.531172	-0.241093	0.646326
51244	-12.804280	2.852102	5.078406	5.869796	11.035754	-16.252468	-0.458718	0.514444	-0.260577	0.676036
51245	-14.929882	4.314306	8.292000	10.804092	11.702020	-17.317639	-0.419262	0.498594	-0.287583	0.702082
51246	-18.828146	6.657728	12.256863	17.161729	12.480485	-19.730203	-0.379481	0.485128	-0.321169	0.719372
51247	-20.600693	9.776137	14.382360	21.124048	10.498960	-22.854869	-0.344931	0.481965	-0.361771	0.719620
51248	-19.706051	9.796393	12.805125	19.237720	8.914989	-23.902119	-0.314741	0.490148	-0.413891	0.699562
51249	-16.997941	11.309475	11.300991	15.972536	6.073807	-25.693449	-0.284429	0.503071	-0.474633	0.663885
51250	-17.971403	11.299561	10.292582	13.615009	7.556495	-27.521044	-0.239087	0.514989	-0.552715	0.610024
51251	-32.492390	3.424465	1.831770	12.003962	26.467600	-24.848884	-0.181818	0.537427	-0.630533	0.529663
51252	-30.912092	-1.183767	-19.151771	-3.932498	36.143928	-10.017507	-0.124308	0.600438	-0.670606	0.417503
51253	1.179891	17.395072	-47.488767	-41.326366	13.760537	15.358422	-0.058411	0.701563	-0.655682	0.272908
51254	27.896408	25.110483	-65.369296	-40.930695	-16.453777	50.676120	0.023402	0.785761	-0.607106	0.115992
51255	28.521904	-1.423834	-75.142983	2.480070	-16.789926	68.642210	0.016849	0.830527	-0.555715	0.033486
51256	38.439867	15.132019	-66.454498	-4.556164	-41.626105	56.182625	-0.072318	0.838014	-0.539960	0.030775
51257	36.814054	21.641245	-36.936137	-10.577836	-46.355041	20.601775	-0.121151	0.831838	-0.539736	0.045299
51258	28.184811	11.554987	-16.734133	-1.881435	-32.439854	2.513859	-0.102983	0.836085	-0.537361	0.039989
51259	18.425713	-6.567402	-11.811632	11.783507	-15.235249	2.479579	-0.071144	0.841566	-0.534693	0.028415
51260	9.377078	-21.409267	-10.633607	21.674711	-0.711648	3.935816	-0.078390	0.835469	-0.542914	0.033042
51261	-1.201082	-24.859156	-7.649362	20.534781	9.736175	2.878201	-0.111585	0.822942	-0.554411	0.054262
51262	-4.084634	-16.913894	-3.262732	12.793321	9.392477	-1.973155	-0.130241	0.818238	-0.554995	0.074197
51263	-3.675857	-2.640749	-2.972068	0.070069	3.970721	-6.132537	-0.138905	0.823484	-0.543270	0.086244
51264	0.545783	3.344799	-5.999103	-4.472038	-2.554838	-5.235798	-0.138688	0.830253	-0.532404	0.089392
51265	1.101213	0.224558	-7.964026	-2.194795	-2.140772	-2.377127	-0.144629	0.831857	-0.527283	0.095231
51266	1.935865	2.268890	-6.918204	-3.389412	-3.638323	-4.153539	-0.159300	0.828232	-0.527203	0.103507
51267	1.627356	1.868762	-6.539117	-3.225839	-3.220480	-4.509980	-0.173160	0.823295	-0.529148	0.110469
51268	1.458726	1.129586	-6.791762	-2.902297	-2.887099	-4.088016	-0.181138	0.820430	-0.530278	0.113529
51269	3.020411	0.539647	-8.136838	-2.329639	-4.355624	-2.655627	-0.181356	0.820427	-0.530490	0.112202
51270	3.845362	-1.296437	-9.577470	-0.979178	-4.666304	-0.568134	-0.177508	0.820566	-0.532093	0.109723
51271	3.356292	-3.141701	-11.202990	-0.188683	-3.790077	1.686941	-0.175117	0.819239	-0.535338	0.107677
51272	2.399684	-4.840465	-12.719782	0.287332	-2.560081	3.764663	-0.175993	0.815476	-0.540508	0.108976
51273	0.506545	-5.629866	-11.570591	0.550204	-0.371350	3.047661	-0.177382	0.809918	-0.547220	0.114539
51274	-2.843575	-9.231877	-8.080285	3.600153	4.488656	1.389769	-0.177820	0.804667	-0.553147	0.122147
51275	-3.803980	-8.714979	-5.765494	3.697826	5.558146	-0.919154	-0.177753	0.803097	-0.554312	0.127186
51276	-2.048708	-6.106578	-7.406757	1.424097	2.902060	-0.544631	-0.174108	0.805048	-0.552292	0.128674
51277	-0.771024	-3.327973	-8.648572	-0.955133	0.718768	-0.591082	-0.169259	0.806537	-0.551284	0.130137
51278	-0.623808	-1.826195	-8.020418	-1.897500	0.244146	-1.788316	-0.164900	0.805458	-0.553614	0.132504
51279	-1.017678	-0.991017	-7.069782	-2.349254	0.516800	-3.014661	-0.161891	0.802232	-0.558595	0.134860
51280	-1.909087	-2.841539	-7.228421	-1.104438	1.995235	-2.146672	-0.158254	0.797752	-0.565666	0.136268
51281	-2.565746	-5.072153	-6.721046	0.870649	3.387096	-1.734861	-0.154952	0.792788	-0.573034	0.138233
51282	-2.892236	-7.030572	-5.912392	2.861925	4.339891	-1.705613	-0.152584	0.788652	-0.578848	0.140292
51283	-2.337509	-7.787654	-6.065471	3.649335	3.988927	-1.229439	-0.153057	0.785537	-0.582245	0.143164
51284	-2.172137	-6.338889	-6.023855	2.415248	3.395072	-1.823582	-0.157510	0.781848	-0.584892	0.147667
51285	-2.198945	-6.591736	-6.616622	2.271667	3.360769	-1.117448	-0.167373	0.776822	-0.587597	0.152522
51286	-1.653913	-7.828995	-7.750057	2.800240	2.897804	0.572142	-0.180525	0.771170	-0.589979	0.156950
51287	-1.421240	-9.608408	-8.876728	3.594493	2.749734	2.542049	-0.196036	0.765037	-0.591847	0.161263
51288	-0.387741	-10.404190	-9.404243	3.924268	1.563971	3.565276	-0.212115	0.758261	-0.593605	0.166371
51289	0.510755	-12.511447	-9.294997	5.568028	0.787002	4.731952	-0.227227	0.750579	-0.596507	0.170816
51290	1.374582	-15.332454	-10.042122	7.203354	-0.124342	7.094484	-0.247678	0.740494	-0.599679	0.175242
51291	2.450370	-17.164141	-12.917785	6.511673	-2.154192	10.687550	-0.278723	0.726742	-0.601658	0.179354
51292	3.812859	-17.286807	-15.325015	4.224988	-5.163162	12.623254	-0.318640	0.708439	-0.602110	0.184516
51293	2.993393	-16.712423	-16.097137	1.609723	-6.020853	12.729462	-0.360300	0.688193	-0.600013	0.191202
51294	1.441523	-16.537025	-15.211635	0.274793	-5.590002	11.989460	-0.396818	0.670161	-0.595016	0.198436
51295	2.798342	-15.579783	-14.895294	-1.133314	-7.661910	10.492054	-0.423099	0.656033	-0.588928	0.209217
51296	5.938053	-15.683868	-14.877429	-1.671700	-11.013164	9.638220	-0.438497	0.640220	-0.586979	0.230856
51297	5.404642	-16.090729	-14.372517	-2.795337	-10.283126	9.701835	-0.449537	0.617388	-0.587540	0.267479
51298	2.617999	-13.667353	-12.765064	-5.038470	-6.525399	7.164465	-0.464224	0.587924	-0.581944	0.316516
51299	0.172103	-10.179526	-10.589436	-6.517189	-2.771225	3.046580	-0.481164	0.559369	-0.566582	0.366840
51300	-0.418599	-8.046527	-10.056663	-7.989368	-1.338813	0.200121	-0.497840	0.537123	-0.543064	0.410775
51301	-0.777493	-7.945429	-11.602081	-10.547049	-0.636700	-0.510115	-0.512047	0.521098	-0.516184	0.447012
51302	-2.154586	-9.913252	-13.404627	-13.172300	0.995417	0.573897	-0.521909	0.506257	-0.488281	0.482593
51303	-4.246730	-8.296101	-12.509726	-13.135132	3.749760	-2.293850	-0.528071	0.488665	-0.458089	0.522017
51304	-5.622645	-3.516805	-9.955688	-10.441007	5.573252	-8.111663	-0.530405	0.470254	-0.428319	0.560424
51305	-5.565520	-0.848768	-7.413431	-7.310709	5.589745	-11.194850	-0.530245	0.454053	-0.403535	0.591469
51306	-6.227057	-1.924178	-5.665973	-5.681267	6.477701	-10.380325	-0.527749	0.441024	-0.386499	0.614490
51307	-8.131602	-5.369669	-4.331757	-5.219732	8.982440	-7.409963	-0.521370	0.433219	-0.374760	0.632495
51308	-7.535782	-5.951497	-3.375727	-4.438555	8.665967	-6.848700	-0.510158	0.430570	-0.363101	0.650005
51309	-5.883112	-4.284413	-2.402586	-2.971485	6.842318	-8.057989	-0.493938	0.430230	-0.352783	0.668185
51310	-4.224482	-1.820775	-1.700646	-1.502239	4.667615	-9.877950	-0.474315	0.429518	-0.345968	0.686182
51311	-2.778820	0.613973	-0.823967	0.044948	2.478846	-11.434191	-0.452370	0.428024	-0.345386	0.702044
51312	-1.709173	1.214379	-0.258962	0.598299	1.160083	-11.473650	-0.430206	0.425509	-0.351418	0.714402
51313	-1.461274	1.125292	0.572693	1.292678	0.787975	-11.011524	-0.410706	0.421393	-0.361317	0.723325
51314	-1.347486	0.630510	1.432103	1.913875	0.656693	-10.224361	-0.395658	0.415200	-0.371899	0.729901
51315	-1.863055	0.500174	2.434797	2.983012	0.862968	-9.887405	-0.385861	0.408412	-0.380754	0.734396
51316	-1.244072	1.097907	2.829422	3.268589	-0.099230	-10.067499	-0.381436	0.402014	-0.388600	0.736126
51317	-0.731547	1.615023	3.422353	3.715467	-0.965942	-10.156269	-0.381269	0.395706	-0.399162	0.733976
51318	-0.661870	1.089314	3.665494	3.761758	-0.933961	-9.620443	-0.383320	0.388637	-0.415865	0.727381
51319	-1.773496	-1.286056	3.766236	3.755019	0.771920	-7.742456	-0.386417	0.380473	-0.438252	0.716838
51320	-2.873844	-4.081113	3.817836	3.690503	2.401193	-5.329743	-0.390634	0.371409	-0.462125	0.704202
51321	-3.288574	-6.419739	3.861459	3.478616	3.049151	-3.065357	-0.397031	0.361057	-0.482822	0.692017
51322	-3.589935	-6.817605	4.441975	4.022225	2.813183	-2.396992	-0.408535	0.347836	-0.497082	0.681923
51323	-4.068263	-6.724279	4.939808	4.518042	2.714770	-2.172711	-0.426148	0.331561	-0.503332	0.674627
51324	-3.323955	-4.107198	5.842800	5.376005	1.124520	-4.166739	-0.448189	0.312433	-0.505011	0.668189
51325	-2.793570	-4.579538	6.036170	4.935968	0.381295	-3.434171	-0.469758	0.289228	-0.512882	0.657743
51326	-3.178538	-5.415308	6.331644	4.835130	0.193523	-2.324845	-0.487070	0.260631	-0.531117	0.642455
51327	-7.596689	-7.065622	7.175630	6.536783	2.964175	0.556303	-0.499819	0.231424	-0.555782	0.622680
51328	-11.164749	-8.834477	7.976394	7.801310	4.510039	3.789161	-0.514134	0.208547	-0.575917	0.600411
51329	-10.958380	-8.933741	7.440839	6.897238	3.712667	4.109882	-0.535162	0.191819	-0.584650	0.578785
51330	-9.254817	-8.153083	6.101482	4.942789	2.534631	2.774599	-0.561095	0.176054	-0.585439	0.558067
51331	-8.117083	-8.636351	4.681463	2.564542	1.560876	2.569223	-0.587381	0.156381	-0.584000	0.538027
51332	-8.602619	-11.373637	3.269531	-0.429953	0.814435	4.784834	-0.610895	0.129047	-0.584831	0.517809
51333	-10.590086	-10.987702	3.638923	-0.184166	1.331936	5.813298	-0.629036	0.097970	-0.589459	0.497246
51334	-13.340578	-10.846465	4.018436	0.152558	2.073457	7.717060	-0.643283	0.072540	-0.597293	0.473461
51335	-14.441309	-11.839415	3.543928	-1.054795	1.307011	9.116806	-0.657069	0.054302	-0.603894	0.447911
51336	-14.149596	-13.573074	2.362372	-3.423086	-0.487773	9.628331	-0.670174	0.039880	-0.607299	0.424811
51337	-12.720072	-15.070355	1.803742	-5.237283	-3.081254	9.032686	-0.681339	0.023453	-0.608801	0.405695
51338	-12.278755	-16.957299	1.915968	-6.590029	-5.564655	9.357744	-0.688987	0.004168	-0.609668	0.391898
51339	-12.336468	-16.473235	3.058552	-5.765866	-6.464720	9.103587	-0.693740	-0.011552	-0.609587	0.383399
51340	-10.925701	-13.695875	3.652179	-4.077570	-5.966660	6.559448	-0.697192	-0.019570	-0.609211	0.377362
51341	-9.216933	-11.695717	3.622628	-3.122966	-5.616044	4.100231	-0.698968	-0.020881	-0.610952	0.371142
51342	-8.313754	-9.681098	3.440421	-2.131726	-4.650387	2.373645	-0.699724	-0.018879	-0.613572	0.365458
51343	-7.177308	-8.120098	3.014257	-1.586599	-3.928663	0.607625	-0.700472	-0.015529	-0.615727	0.360523
51344	-6.506914	-6.910489	2.769831	-1.104808	-3.281684	-0.551129	-0.701402	-0.013206	-0.616800	0.356958
51345	-6.895832	-6.456686	2.944172	-0.685246	-2.859832	-0.364872	-0.702598	-0.012232	-0.616755	0.354711
51346	-7.371873	-5.770604	3.545820	0.189676	-2.407549	-0.097497	-0.703996	-0.011700	-0.616087	0.353115
51347	-7.655615	-5.539672	3.699032	0.441483	-2.167681	0.091124	-0.705578	-0.009359	-0.615746	0.350612
51348	-7.793305	-5.412659	3.509055	0.365388	-1.903376	0.116535	-0.707179	-0.004855	-0.615863	0.347256
51349	-7.871063	-5.413037	3.078895	0.035580	-1.647400	0.087752	-0.708693	0.001014	-0.616305	0.343396
51350	-7.832864	-5.129906	2.759832	-0.051698	-1.279410	-0.135578	-0.709754	0.007150	-0.617053	0.339770
51351	-8.005550	-5.232458	2.715552	-0.085798	-1.219799	0.053724	-0.710550	0.012767	-0.617715	0.336726
51352	-8.220088	-5.455998	2.949695	0.057102	-1.341111	0.396935	-0.711054	0.016722	-0.617629	0.335645
51353	-8.190358	-4.594177	3.520024	0.975023	-0.866825	0.130989	-0.711459	0.019346	-0.616708	0.336338
51354	-8.095157	-3.629522	4.019718	1.863086	-0.311440	-0.257857	-0.711912	0.022223	-0.615830	0.336810
51355	-8.091755	-2.529392	4.571913	2.865213	0.380476	-0.624537	-0.712298	0.026429	-0.615687	0.335950
51356	-8.423723	-2.613682	4.638397	2.908185	0.528825	-0.295996	-0.712991	0.032255	-0.616210	0.333000
51357	-8.738879	-3.323766	4.427096	2.430326	0.291825	0.238307	-0.714325	0.038209	-0.616252	0.329414
51358	-8.681150	-3.885366	4.079127	1.890686	0.016338	0.361910	-0.715977	0.043256	-0.615547	0.326508
51359	-8.604909	-3.637216	3.958793	1.880986	0.272505	0.153916	-0.717747	0.047239	-0.614187	0.324624
51360	-8.623330	-3.304801	3.934778	1.973102	0.608831	0.010848	-0.719692	0.050924	-0.612446	0.323049
51361	-8.692989	-2.812840	4.138163	2.325794	1.026796	-0.110087	-0.721767	0.054992	-0.610614	0.321215
51362	-8.809733	-1.995245	4.554473	2.995086	1.676091	-0.296646	-0.724156	0.060702	-0.608905	0.318038
51363	-8.797796	-2.125816	4.494002	2.849113	1.686127	-0.265192	-0.727485	0.068728	-0.606918	0.312559
51364	-8.809451	-2.404067	4.291788	2.499780	1.646272	-0.177094	-0.731938	0.077886	-0.603921	0.305744
51365	-8.496306	-2.974651	3.798798	1.783331	1.260851	-0.289286	-0.737309	0.086953	-0.599940	0.298137
51366	-8.370472	-3.498819	3.424562	1.172414	0.941860	-0.232957	-0.743226	0.094396	-0.595110	0.290771
51367	-8.101573	-3.808837	3.080679	0.665206	0.665510	-0.392151	-0.749599	0.099384	-0.589418	0.284271
51368	-7.866052	-3.579125	2.784894	0.361442	0.799295	-0.775565	-0.755807	0.102163	-0.583650	0.278695
51369	-7.863080	-3.311739	2.705807	0.249849	1.023155	-0.924110	-0.760855	0.103808	-0.579400	0.273164
51370	-8.447428	-3.096586	2.687190	0.100699	1.482283	-0.541184	-0.764985	0.104685	-0.576772	0.266783
51371	-8.952392	-3.284998	2.379004	-0.415805	1.571262	-0.119732	-0.768890	0.105327	-0.575113	0.258765
51372	-9.369210	-3.815755	2.172393	-0.914121	1.263201	0.416112	-0.772987	0.105045	-0.573636	0.249797
51373	-9.398416	-4.429503	1.975611	-1.346814	0.641887	0.657528	-0.777333	0.103447	-0.571827	0.240969
51374	-9.264088	-4.515223	1.960931	-1.444611	0.347118	0.572175	-0.782081	0.099904	-0.569186	0.233230
51375	-8.965894	-4.136286	1.885629	-1.455797	0.384794	0.126189	-0.786804	0.095326	-0.566195	0.226442
51376	-8.409138	-3.517089	1.909808	-1.234042	0.519839	-0.596636	-0.790749	0.091297	-0.564144	0.219369
51377	-8.173364	-3.586029	1.636989	-1.502984	0.236927	-0.866954	-0.793733	0.088211	-0.563697	0.210839
51378	-8.481806	-3.882354	1.518342	-1.792132	-0.041586	-0.533504	-0.796188	0.085655	-0.564154	0.201190
51379	-8.747715	-3.993657	1.319359	-2.086312	-0.185223	-0.335193	-0.798579	0.083541	-0.564637	0.190989
51380	-9.286194	-4.029700	1.280043	-2.298825	-0.177875	0.126702	-0.801432	0.082031	-0.564191	0.180741
51381	-9.138236	-3.696130	0.847455	-2.630743	-0.067008	-0.275443	-0.804893	0.080874	-0.562569	0.170654
51382	-8.819454	-3.282117	0.402324	-2.917741	0.057946	-0.857376	-0.808104	0.079704	-0.561302	0.159861
51383	-8.914553	-3.065402	0.179650	-3.142706	0.117307	-0.924241	-0.810398	0.078377	-0.561471	0.147862
51384	-8.760130	-3.513652	-0.127723	-3.429718	-0.551420	-1.035968	-0.811174	0.077319	-0.563741	0.134961
51385	-9.074546	-4.139169	0.014747	-3.407137	-1.274601	-0.526019	-0.810755	0.076055	-0.567389	0.122318
51386	-9.350114	-4.821979	0.041034	-3.453236	-2.071928	-0.093872	-0.810500	0.073901	-0.570360	0.110986
51387	-9.114496	-4.685785	0.607262	-2.755216	-2.217597	-0.174905	-0.810864	0.070739	-0.572094	0.101013
51388	-9.012569	-4.686949	0.749564	-2.537851	-2.429904	-0.251941	-0.811358	0.067550	-0.573244	0.092335
51389	-8.674391	-3.771374	0.732936	-2.330334	-1.769450	-0.788145	-0.811116	0.065196	-0.575006	0.084900
51390	-8.968670	-3.261304	0.435679	-2.602030	-1.329106	-0.717396	-0.809655	0.066314	-0.578042	0.077003
51391	-9.199222	-2.839674	0.281606	-2.698824	-0.965839	-0.617547	-0.807496	0.070334	-0.581671	0.068276
51392	-9.561759	-3.691253	-0.011087	-2.984662	-1.818540	-0.177594	-0.804781	0.076284	-0.585668	0.059166
51393	-10.003463	-4.191534	0.293891	-2.696720	-2.275910	0.447486	-0.802769	0.079874	-0.588545	0.052883
51394	-9.778930	-3.109466	0.269121	-2.566338	-1.302583	0.040500	-0.801016	0.080051	-0.591156	0.049996
51395	-9.769369	-0.723573	0.488003	-2.292317	1.014233	-0.330188	-0.797840	0.078934	-0.595733	0.048208
51396	-10.403076	0.246005	0.942092	-1.907523	2.063383	0.250769	-0.792637	0.079940	-0.602831	0.043946
51397	-10.703043	-0.403525	0.653166	-2.052654	1.384102	0.628116	-0.786253	0.080488	-0.611518	0.037056
51398	-10.928207	-1.783545	0.179705	-2.274372	-0.093762	1.024753	-0.779483	0.077752	-0.620834	0.030427
51399	-10.197261	-2.316560	0.324649	-1.691932	-0.856133	0.475818	-0.772127	0.070811	-0.630941	0.026817
51400	-9.685416	-2.591102	0.971355	-0.690001	-1.286627	0.153564	-0.763481	0.060690	-0.642393	0.027302
51401	-9.585011	-2.053745	2.096279	0.683444	-0.838428	0.152602	-0.753996	0.049365	-0.654278	0.031197
51402	-9.624705	-1.925725	2.948315	1.786218	-0.815430	0.245799	-0.744569	0.038009	-0.665414	0.037355
51403	-9.897610	-2.415432	4.203627	3.232764	-1.425177	0.626616	-0.736055	0.025193	-0.674850	0.046539
51404	-10.308828	-1.441136	6.485214	5.687839	-0.713788	1.028726	-0.729475	0.010168	-0.681409	0.058697
51405	-10.699826	0.587964	9.316459	8.756074	0.770320	1.338449	-0.726424	-0.007017	-0.683466	0.071650
51406	-10.195972	3.670739	9.836958	9.721748	3.360485	0.598228	-0.726322	-0.015817	-0.682872	0.076761
51407	-10.023415	2.214321	5.826723	5.562326	2.312295	0.337994	-0.727686	-0.015191	-0.681698	0.074372
51408	-8.768972	1.054962	1.706435	1.360208	1.580855	-1.062236	-0.728281	-0.011750	-0.681737	0.068581
51409	-8.374252	-0.111432	-0.788102	-1.222152	0.645968	-1.515082	-0.726572	-0.011243	-0.684018	0.063922
51410	-8.433866	0.564462	-1.119302	-1.410962	1.289870	-1.503311	-0.722647	-0.013617	-0.688425	0.060553
51411	-9.153098	0.531973	-0.792262	-1.015293	1.186638	-0.743556	-0.718444	-0.018091	-0.692939	0.057840
51412	-9.722264	0.723725	-0.359087	-0.487994	1.256051	-0.150505	-0.715879	-0.024634	-0.695538	0.056012
51413	-9.823706	1.249183	-0.192135	-0.223263	1.642437	-0.047760	-0.715650	-0.031585	-0.695656	0.053941
51414	-10.036125	1.619531	-0.777113	-0.785554	1.967312	0.160362	-0.717530	-0.037533	-0.693643	0.051006
51415	-9.064525	2.017450	-1.540899	-1.535774	2.328278	-0.822186	-0.720389	-0.041592	-0.690753	0.046574
51416	-8.089146	1.666378	-2.159884	-2.230965	1.945450	-1.805628	-0.722265	-0.043762	-0.689055	0.040274
51417	-7.745005	1.075117	-1.955321	-2.118548	1.223354	-2.132957	-0.721944	-0.045392	-0.689685	0.032741
51418	-8.623426	0.161200	-1.368424	-1.655954	0.102934	-1.239044	-0.719976	-0.048883	-0.691819	0.025135
51419	-9.756892	0.241106	-0.956446	-1.244337	-0.055838	-0.085612	-0.718667	-0.056054	-0.692802	0.020018
51420	-10.374817	-0.003380	-0.167384	-0.508279	-0.574097	0.535021	-0.718933	-0.063341	-0.691976	0.017109
51421	-9.268734	0.052354	0.391302	0.050561	-0.631746	-0.557273	-0.720190	-0.071551	-0.689829	0.018531
51422	-9.455539	0.808487	0.980341	0.678232	-0.066789	-0.296563	-0.720996	-0.080717	-0.687879	0.021726
51423	-9.173990	2.669452	1.334711	1.287094	1.632992	-0.392226	-0.721959	-0.090794	-0.685493	0.025127
51424	-8.891176	3.790739	1.234978	1.372699	2.653507	-0.537940	-0.722954	-0.099223	-0.683283	0.024833
51425	-8.665885	4.110208	0.938254	1.120741	2.914932	-0.695824	-0.723785	-0.104143	-0.681833	0.019818
51426	-8.478591	3.505651	1.068852	1.113788	2.197433	-0.910566	-0.723879	-0.106502	-0.681566	0.011176
51427	-8.669621	3.383161	1.318247	1.282504	1.883236	-0.693869	-0.723714	-0.107108	-0.681737	-0.000137
51428	-8.665806	4.337973	1.528085	1.564612	2.661050	-0.500431	-0.723633	-0.104892	-0.682013	-0.014535
51429	-8.417174	3.759021	1.116049	1.004203	2.075618	-0.817917	-0.723451	-0.098878	-0.682447	-0.033276
51430	-8.484665	2.294560	0.323058	0.004762	0.564121	-1.035561	-0.722578	-0.092336	-0.682907	-0.054718
51431	-8.555922	1.559825	-0.610738	-0.965136	-0.315285	-1.153916	-0.718692	-0.086409	-0.685641	-0.076879
51432	-11.190841	0.754758	-0.100451	-0.453794	-1.960368	1.221675	-0.712877	-0.078870	-0.689561	-0.100459
51433	-11.661435	0.609049	-1.007132	-1.199863	-2.509484	1.572788	-0.708428	-0.072806	-0.691532	-0.120884
51434	-11.060450	0.462359	-1.164028	-1.204998	-2.737487	0.908851	-0.704597	-0.067119	-0.692828	-0.137940
51435	-11.159183	0.488091	0.080794	0.153395	-2.800405	0.999494	-0.700874	-0.062686	-0.693976	-0.152456
51436	-12.760828	4.005513	2.076347	1.742358	0.141283	3.608776	-0.700148	-0.057452	-0.691510	-0.168244
51437	-11.269600	-2.028268	-3.117368	-2.475705	-5.995945	0.124675	-0.698820	-0.050971	-0.689993	-0.181554
51438	-11.973073	2.844100	-1.429986	-1.622045	-1.542678	2.372379	-0.698535	-0.049873	-0.688370	-0.188966
51439	-11.249589	1.995578	-1.559706	-1.614127	-2.221318	1.386775	-0.698040	-0.047952	-0.687321	-0.195015
51440	-10.900239	1.781625	-0.991923	-1.017665	-2.255478	0.997042	-0.697239	-0.045349	-0.686825	-0.200181
51441	-11.851385	1.887146	0.223294	0.186649	-2.269256	1.972134	-0.696624	-0.043491	-0.686369	-0.204259
51442	-12.219291	1.582376	0.449476	0.471266	-2.643290	2.220924	-0.697409	-0.039053	-0.684496	-0.208711
51443	-11.379513	2.524196	0.592538	0.298090	-1.452977	1.763808	-0.699552	-0.034429	-0.681764	-0.211279
51444	-10.438769	2.178582	0.447076	0.131343	-1.461902	0.758926	-0.701633	-0.029757	-0.678863	-0.214409
51445	-10.449760	0.594172	0.603315	0.628317	-2.852810	0.256128	-0.702981	-0.026889	-0.676927	-0.216482
51446	-10.273162	0.286643	0.929760	0.987570	-2.970133	0.020286	-0.703891	-0.025170	-0.676175	-0.216081
51447	-9.862314	1.996333	1.048923	0.617848	-1.224720	0.210738	-0.704416	-0.023511	-0.675782	-0.215785
51448	-9.942989	2.157385	0.694894	0.220460	-1.174101	0.315149	-0.704414	-0.020869	-0.675437	-0.217141
51449	-9.894095	1.435041	0.321226	0.054105	-1.894536	0.008892	-0.704236	-0.019161	-0.675419	-0.217930
51450	-9.998881	1.300121	0.664557	0.424147	-1.945803	0.094053	-0.704328	-0.019673	-0.675814	-0.216358
51451	-9.985089	2.185913	1.087646	0.585762	-1.008957	0.400150	-0.704871	-0.020664	-0.676063	-0.213705
51452	-10.065711	2.403686	0.701535	0.146982	-0.916142	0.518209	-0.705589	-0.020722	-0.675856	-0.211973
51453	-9.947485	2.217872	0.034045	-0.463079	-1.195417	0.298151	-0.706242	-0.020176	-0.675557	-0.210805
51454	-10.005812	2.160162	-0.015001	-0.508922	-1.256547	0.333486	-0.706750	-0.019659	-0.675379	-0.209716
51455	-10.180804	2.096314	0.499337	-0.009469	-1.218328	0.522116	-0.707404	-0.019290	-0.675066	-0.208553
51456	-10.799264	1.796909	1.019642	0.549812	-1.536209	1.060688	-0.708585	-0.018856	-0.674229	-0.207283
51457	-10.921573	1.509671	0.867300	0.433532	-1.851557	1.082060	-0.710545	-0.018593	-0.672816	-0.205182
51458	-10.875334	1.721154	0.944812	0.388320	-1.593702	1.116024	-0.713043	-0.018619	-0.671035	-0.202321
51459	-10.852063	1.568735	0.893486	0.298963	-1.705943	1.051297	-0.716117	-0.019054	-0.668787	-0.198841
51460	-10.882376	1.641866	1.199832	0.481057	-1.538322	1.140056	-0.719562	-0.018906	-0.666112	-0.195368
