// General information: 
//  MT Manager version: 2021.0.0 
//  XDA version: 2021.0.0 build 5908 rev 109668 built on 2021-04-19
// Device information: 
//  DeviceId: 00B43DF1
//  ProductCode: MTW2-3A7G6
//  Firmware Version: 4.3.5
//  Hardware Version: 1.1.0
// Device settings: 
//  Filter Profile: human(46.1)
//  Option Flags: Orientation Smoother Disabled, Position/Velocity Smoother Disabled, Continuous Zero Rotation Update Disabled, AHS Disabled, ICC Disabled
// Coordinate system: ENU
PacketCounter	Acc_X	Acc_Y	Acc_Z	FreeAcc_E	FreeAcc_N	FreeAcc_U	Quat_q0	Quat_q1	Quat_q2	Quat_q3
50291	0.330090	8.954498	4.076326	-0.022714	0.080294	0.031167	0.080894	0.031611	-0.541535	-0.836180
50292	0.434099	9.095034	4.025772	-0.103979	-0.033479	0.142361	0.080790	0.031611	-0.541798	-0.836020
50293	0.413589	9.144992	4.005475	-0.076882	-0.063814	0.179098	0.080711	0.031574	-0.541893	-0.835967
50294	0.364345	9.054876	4.022473	-0.040383	-0.004733	0.102058	0.080575	0.031534	-0.541779	-0.836056
50295	0.349303	9.101468	3.913226	-0.007207	-0.118895	0.099824	0.080355	0.031597	-0.541936	-0.835973
50296	0.339419	9.184995	4.044368	-0.011833	-0.030673	0.228984	0.080215	0.031716	-0.541906	-0.836001
50297	0.316374	9.084891	4.107768	-0.009726	0.067070	0.162507	0.080073	0.031618	-0.541709	-0.836146
50298	0.386208	8.931176	4.036857	-0.083237	0.047321	-0.004420	0.079921	0.031555	-0.541541	-0.836271
50299	0.285881	8.943705	4.147329	-0.000008	0.156775	0.048719	0.079758	0.031541	-0.541507	-0.836309
50300	0.324282	8.940403	4.025373	-0.021150	0.041020	-0.002618	0.079514	0.031375	-0.541524	-0.836328
50301	0.308238	9.037995	4.053566	-0.000573	0.031974	0.097446	0.079360	0.031360	-0.541641	-0.836267
50302	0.299173	9.062808	4.121120	0.000399	0.085823	0.147245	0.079144	0.031209	-0.541639	-0.836295
50303	0.349357	8.989756	3.979084	-0.035328	-0.023370	0.024441	0.078926	0.031036	-0.541542	-0.836385
50304	0.334452	9.059346	4.047705	-0.023618	0.012132	0.115395	0.078671	0.030912	-0.541533	-0.836420
50305	0.337905	9.066495	3.974936	-0.016445	-0.058458	0.092460	0.078495	0.030827	-0.541433	-0.836503
50306	0.310279	9.080683	4.117525	-0.008268	0.068417	0.162499	0.078316	0.030714	-0.541472	-0.836499
50307	0.336890	9.026172	4.055954	-0.030957	0.029617	0.088534	0.078117	0.030577	-0.541419	-0.836558
50308	0.344272	9.069557	4.070049	-0.036266	0.023552	0.134112	0.078004	0.030545	-0.541453	-0.836547
50309	0.256757	9.009118	4.171646	0.030386	0.153986	0.117475	0.077851	0.030340	-0.541433	-0.836582
50310	0.409028	8.977558	3.997444	-0.095993	-0.015737	0.022655	0.077640	0.030037	-0.541497	-0.836571
50311	0.342226	9.004172	4.078289	-0.037222	0.060349	0.077694	0.077454	0.029860	-0.541645	-0.836499
50312	0.413843	9.028561	4.086174	-0.105232	0.047779	0.105460	0.077236	0.029602	-0.541658	-0.836519
50313	0.386328	9.028701	4.070491	-0.074658	0.038080	0.098345	0.077053	0.029452	-0.541645	-0.836550
50314	0.406046	9.015877	4.021262	-0.088605	-0.004662	0.067272	0.076843	0.029359	-0.541661	-0.836562
50315	0.278886	9.038172	4.085897	0.029020	0.066146	0.109796	0.076646	0.029305	-0.541690	-0.836564
50316	0.302957	8.953978	4.120995	-0.007581	0.128206	0.047922	0.076331	0.029025	-0.541761	-0.836556
50317	0.433111	8.999508	4.090502	-0.126488	0.063275	0.081297	0.076061	0.028807	-0.541865	-0.836521
50318	0.294795	8.929818	4.094782	0.003101	0.118993	0.014907	0.075893	0.028681	-0.541919	-0.836505
50319	0.257309	8.969456	4.149051	0.037411	0.161703	0.071867	0.075661	0.028413	-0.542150	-0.836386
50320	0.418668	9.037147	4.062248	-0.101992	0.034570	0.103742	0.075403	0.028138	-0.542281	-0.836334
50321	0.409576	9.013216	4.035488	-0.091476	0.025210	0.070732	0.075228	0.028072	-0.542491	-0.836215
50322	0.402414	9.065204	4.016143	-0.078583	-0.007386	0.110166	0.075087	0.028095	-0.542660	-0.836118
50323	0.355418	9.070088	4.028524	-0.034840	0.012709	0.118095	0.074906	0.028003	-0.542786	-0.836055
50324	0.412433	9.007334	3.960865	-0.088901	-0.029371	0.035249	0.074702	0.027924	-0.542976	-0.835953
50325	0.426249	9.083539	4.025832	-0.105595	0.001596	0.131585	0.074543	0.027912	-0.543173	-0.835839
50326	0.369154	9.067681	3.999929	-0.049508	-0.002227	0.104776	0.074452	0.027986	-0.543358	-0.835725
50327	0.356618	9.142739	4.003640	-0.032746	-0.023024	0.174524	0.074368	0.028020	-0.543473	-0.835656
50328	0.377230	9.112474	3.962382	-0.051593	-0.050055	0.130893	0.074188	0.027938	-0.543517	-0.835646
50329	0.427301	9.230741	4.059907	-0.104139	-0.015436	0.279930	0.074109	0.027984	-0.543543	-0.835635
50330	0.390467	9.023194	3.907180	-0.067751	-0.069433	0.027390	0.074005	0.027963	-0.543273	-0.835821
50331	0.396930	9.146845	3.963010	-0.071687	-0.071196	0.163161	0.073879	0.028049	-0.543332	-0.835791
50332	0.284781	9.135047	4.096620	0.018888	0.070706	0.202657	0.073831	0.028022	-0.543160	-0.835907
50333	0.347906	8.925213	4.053467	-0.055226	0.100293	-0.004632	0.073749	0.027784	-0.542992	-0.836032
50334	0.458022	8.901257	4.035310	-0.161355	0.073972	-0.030337	0.073663	0.027647	-0.542984	-0.836049
50335	0.371029	9.064671	4.114115	-0.070276	0.095097	0.148130	0.073588	0.027618	-0.543031	-0.836026
50336	0.384808	8.994184	4.047405	-0.081698	0.059846	0.057199	0.073457	0.027530	-0.542951	-0.836092
50337	0.398895	8.996007	4.048856	-0.095743	0.057712	0.059900	0.073359	0.027491	-0.542993	-0.836075
50338	0.372997	9.067683	4.054634	-0.064745	0.039207	0.126947	0.073246	0.027438	-0.542997	-0.836084
50339	0.339737	9.095252	4.047959	-0.028306	0.026899	0.148411	0.073155	0.027341	-0.542947	-0.836128
50340	0.278016	9.006136	4.052657	0.024337	0.073802	0.066876	0.073089	0.027296	-0.542819	-0.836218
50341	0.314807	8.985151	3.987400	-0.004757	0.015655	0.022511	0.072890	0.027106	-0.542817	-0.836243
50342	0.379804	9.140185	4.021129	-0.058624	-0.025340	0.179942	0.072784	0.027044	-0.542805	-0.836262
50343	0.416308	9.128310	3.926815	-0.083745	-0.112307	0.132140	0.072624	0.026961	-0.542777	-0.836297
50344	0.326050	9.077016	4.048193	-0.016161	0.031231	0.131414	0.072571	0.027049	-0.542765	-0.836306
50345	0.258699	9.007350	4.088513	0.038356	0.104345	0.081900	0.072464	0.026921	-0.542670	-0.836381
50346	0.323153	9.013221	4.000663	-0.012270	0.011507	0.053801	0.072348	0.026777	-0.542682	-0.836388
50347	0.363830	9.128458	4.050764	-0.047522	0.006515	0.180685	0.072242	0.026662	-0.542794	-0.836328
50348	0.321751	8.949202	4.209442	-0.041727	0.227966	0.079604	0.072166	0.026547	-0.542719	-0.836387
50349	0.346587	8.823666	4.124982	-0.064882	0.197905	-0.068494	0.072031	0.026286	-0.542845	-0.836325
50350	0.317011	9.067544	4.072214	-0.004893	0.063232	0.132148	0.071979	0.026167	-0.543128	-0.836150
50351	0.386805	9.167548	3.932869	-0.045156	-0.110456	0.169636	0.071930	0.025978	-0.543065	-0.836201
50352	0.391229	9.108772	4.024689	-0.064747	-0.006827	0.153088	0.072006	0.025988	-0.542943	-0.836273
50353	0.348244	9.015845	3.999375	-0.025293	0.010259	0.056507	0.071963	0.025754	-0.542778	-0.836391
50354	0.338253	9.114790	3.971585	0.000402	-0.055044	0.135391	0.071892	0.025547	-0.542710	-0.836448
50355	0.418564	9.185672	3.982065	-0.071005	-0.088203	0.207082	0.071728	0.025293	-0.542567	-0.836562
50356	0.400527	9.222425	3.951880	-0.044797	-0.131604	0.227809	0.071618	0.025256	-0.542354	-0.836711
50357	0.350510	9.206967	4.075421	-0.012012	-0.011919	0.262027	0.071449	0.025131	-0.542082	-0.836906
50358	0.349624	9.127523	4.027863	-0.011234	-0.030504	0.170124	0.071281	0.024952	-0.541757	-0.837135
50359	0.317824	9.318751	4.093278	0.029972	-0.048554	0.370230	0.071016	0.024851	-0.541588	-0.837270
50360	0.332950	9.353232	3.987722	0.031827	-0.165970	0.359193	0.070555	0.024451	-0.541292	-0.837512
50361	0.489729	9.310140	3.954381	-0.120820	-0.210961	0.311371	0.069977	0.023974	-0.540885	-0.837837
50362	0.626925	9.229147	4.081953	-0.278176	-0.096449	0.294034	0.069260	0.023576	-0.540214	-0.838341
50363	0.856981	9.070606	4.008353	-0.512080	-0.153290	0.126700	0.068230	0.023115	-0.539163	-0.839115
50364	0.978816	8.753784	4.040808	-0.672670	-0.038676	-0.145170	0.067122	0.023392	-0.538064	-0.839902
50365	0.832505	8.685941	4.531601	-0.616048	0.429512	-0.009122	0.065907	0.024860	-0.537301	-0.840444
50366	0.565680	9.054378	4.624085	-0.371443	0.375173	0.356136	0.064360	0.026511	-0.536213	-0.841208
50367	0.933812	8.911991	4.317028	-0.747510	0.070422	0.105396	0.062388	0.027281	-0.534562	-0.842382
50368	1.287926	8.679090	4.140231	-1.123822	-0.081768	-0.176454	0.060163	0.027700	-0.532706	-0.843705
50369	1.302260	8.383795	4.437214	-1.221683	0.264422	-0.320053	0.057787	0.028267	-0.530743	-0.845088
50370	1.477287	8.245646	5.094056	-1.511331	0.846117	-0.162704	0.055200	0.029113	-0.528859	-0.846412
50371	2.022641	8.757436	4.457676	-1.994977	-0.061057	0.019424	0.052457	0.031097	-0.526437	-0.848025
50372	1.441898	8.748476	3.858254	-1.421134	-0.588064	-0.266252	0.050947	0.035515	-0.523040	-0.850043
50373	0.984747	8.093757	4.011737	-1.088472	-0.181584	-0.793033	0.049412	0.038785	-0.519828	-0.851958
50374	0.901771	8.016813	4.205418	-1.081703	-0.018361	-0.779559	0.047208	0.039959	-0.518231	-0.853002
50375	0.342391	8.052742	5.721854	-0.752416	1.339719	-0.048352	0.045552	0.041941	-0.516824	-0.853849
50376	0.809362	8.532386	5.341306	-1.189910	0.685072	0.192349	0.042352	0.042069	-0.514628	-0.855333
50377	1.269562	8.958619	3.523889	-1.446440	-1.199090	-0.286078	0.039702	0.042301	-0.513599	-0.856067
50378	0.428803	9.598256	4.673358	-0.783421	-0.421972	0.834297	0.039497	0.046147	-0.511933	-0.856875
50379	-0.627538	8.791769	4.716309	0.192762	0.058362	0.181884	0.038723	0.047819	-0.508772	-0.858700
50380	-0.725375	9.154936	4.548802	0.299421	-0.313270	0.426579	0.036712	0.046906	-0.506612	-0.860114
50381	-0.602536	9.282895	5.504488	0.055083	0.375323	0.989633	0.035088	0.046831	-0.503495	-0.862014
50382	-0.648726	9.156272	6.286730	-0.018036	1.062531	1.262133	0.033909	0.048086	-0.502203	-0.862746
50383	-0.934838	9.434397	4.959532	0.405743	-0.247503	0.876199	0.031837	0.047839	-0.499176	-0.864593
50384	-0.384184	8.333273	3.846602	-0.026325	-0.794172	-0.660878	0.030033	0.047294	-0.496169	-0.866417
50385	-0.754086	8.297007	4.036977	0.315304	-0.666725	-0.584415	0.029894	0.047567	-0.490534	-0.869609
50386	-1.565713	8.019552	4.324057	1.096307	-0.329078	-0.639348	0.030095	0.046945	-0.483569	-0.873528
50387	-0.865461	7.599057	6.476100	0.171005	1.511128	0.092904	0.029430	0.045590	-0.478809	-0.876241
50388	-1.034499	7.493053	5.476979	0.450836	0.653419	-0.507712	0.029232	0.047238	-0.475158	-0.878145
50389	-1.622227	7.911308	5.847532	0.960078	0.727736	0.084901	0.028885	0.049565	-0.472545	-0.879437
50390	-1.688410	8.317272	5.726354	1.015813	0.344421	0.369054	0.027805	0.049734	-0.469328	-0.881183
50391	-1.817191	8.542156	5.162033	1.205951	-0.315512	0.255218	0.026905	0.049494	-0.465681	-0.883158
50392	-1.701528	8.490955	5.246385	1.086584	-0.331036	0.248358	0.025750	0.048493	-0.460640	-0.885887
50393	-1.708375	7.717484	5.823733	1.036896	0.458257	-0.060383	0.024147	0.047611	-0.455043	-0.888868
50394	-1.610765	7.696078	6.354841	0.873224	0.788614	0.228387	0.022033	0.048132	-0.451780	-0.890557
50395	-2.002106	8.277363	6.538719	1.212029	0.539238	0.841761	0.019899	0.048971	-0.447713	-0.892614
50396	-1.094523	8.177906	5.523394	0.400207	-0.363094	0.101537	0.017513	0.048543	-0.445965	-0.893562
50397	-1.191618	7.841510	5.114731	0.525725	-0.523830	-0.404248	0.016357	0.049471	-0.444030	-0.894496
50398	-1.418653	7.491667	5.076968	0.746201	-0.355210	-0.689626	0.015116	0.049131	-0.443430	-0.894834
50399	-1.720257	8.508836	5.312055	1.003010	-0.792643	0.283993	0.014280	0.048545	-0.441131	-0.896015
50400	-1.947913	7.833840	6.943110	1.085005	0.846440	0.745511	0.013232	0.047088	-0.436948	-0.898156
50401	-1.744999	7.271272	6.138631	0.994701	0.470013	-0.200785	0.011746	0.045564	-0.435067	-0.899168
50402	-1.547658	6.567209	6.010972	0.838926	0.763684	-0.847854	0.010143	0.044213	-0.434863	-0.899353
50403	-1.207399	6.549572	5.851596	0.526513	0.662874	-0.987793	0.008514	0.042857	-0.438996	-0.897426
50404	-1.237824	7.252485	5.231190	0.601700	-0.152167	-0.806604	0.007339	0.041926	-0.445516	-0.894262
50405	-1.092792	8.446261	5.755401	0.386555	-0.316461	0.454090	0.006120	0.040705	-0.452152	-0.890991
50406	-0.743708	9.793387	6.296539	-0.034280	-0.553809	1.840678	0.004883	0.039450	-0.456657	-0.888754
50407	-0.537119	10.533215	5.966997	-0.231375	-1.194482	2.243922	0.004625	0.039352	-0.457202	-0.888480
50408	-0.558092	9.163449	6.126262	-0.180025	-0.291419	1.218804	0.005085	0.039129	-0.455136	-0.889547
50409	-0.437007	8.155253	5.622570	-0.220936	-0.149199	0.098989	0.006220	0.038874	-0.454874	-0.889685
50410	-0.571391	7.820229	5.731948	-0.065473	0.149225	-0.101301	0.007572	0.037864	-0.455827	-0.889230
50411	-0.614793	7.924860	5.580508	0.017305	0.011795	-0.100707	0.009286	0.036862	-0.458828	-0.887712
50412	-0.585478	8.167190	5.501176	0.023149	-0.124387	0.050992	0.011029	0.035654	-0.462008	-0.886090
50413	-0.669583	8.545264	5.453811	0.138427	-0.306557	0.341150	0.012884	0.034875	-0.464616	-0.884732
50414	-0.613666	8.148161	5.865904	0.083523	0.293370	0.241407	0.014666	0.034187	-0.465354	-0.884343
50415	-0.381918	7.913331	5.688246	-0.109995	0.288175	-0.064479	0.016492	0.034104	-0.466629	-0.883641
50416	-0.547854	7.854501	5.939600	0.045547	0.566112	0.033610	0.018427	0.034723	-0.467613	-0.883059
50417	-0.639928	7.585897	5.663965	0.162360	0.522373	-0.339751	0.020068	0.035427	-0.469064	-0.882225
50418	-0.699802	7.765487	5.759213	0.212032	0.550003	-0.137289	0.021347	0.036144	-0.471477	-0.880879
50419	-0.414851	8.156225	5.564261	-0.055711	0.206068	0.067156	0.022370	0.036591	-0.473872	-0.879549
50420	-0.264780	8.459557	5.457932	-0.195256	-0.014148	0.256314	0.023484	0.037186	-0.475447	-0.878645
50421	-0.361605	8.336016	5.659344	-0.117189	0.263672	0.265246	0.024564	0.037491	-0.476832	-0.877851
50422	-0.468819	8.388250	5.398121	0.019623	0.055341	0.173239	0.025522	0.037537	-0.477986	-0.877194
50423	-0.458241	8.166176	5.311517	0.023483	0.128427	-0.061200	0.026205	0.037321	-0.479203	-0.876519
50424	-0.472585	8.174390	5.221232	0.054120	0.078050	-0.102066	0.026566	0.037064	-0.480526	-0.875794
50425	-0.429198	8.251178	5.368049	0.003145	0.188473	0.038530	0.026673	0.036797	-0.481986	-0.875000
50426	-0.187517	8.496314	5.275737	-0.223201	-0.009182	0.187609	0.026708	0.036669	-0.483236	-0.874314
50427	-0.192134	8.381804	5.132637	-0.204899	-0.045706	0.015406	0.026727	0.036556	-0.484082	-0.873850
50428	-0.233871	8.382901	5.145653	-0.163129	-0.011183	0.024929	0.026620	0.036354	-0.485058	-0.873320
50429	-0.245322	8.427428	5.259345	-0.159177	0.082127	0.122620	0.026431	0.035984	-0.485784	-0.872938
50430	-0.095247	8.346622	5.198076	-0.299242	0.075557	0.015837	0.026348	0.035614	-0.486477	-0.872570
50431	-0.109847	8.518615	5.143775	-0.272806	-0.039040	0.135242	0.026389	0.035290	-0.487519	-0.872000
50432	-0.152431	8.612851	5.132922	-0.222531	-0.070868	0.212120	0.026599	0.034981	-0.488440	-0.871490
50433	-0.104003	8.557910	4.956062	-0.247222	-0.176756	0.072594	0.026843	0.034535	-0.489297	-0.871020
50434	-0.132670	8.667146	4.953323	-0.208200	-0.212149	0.166493	0.027178	0.034189	-0.490233	-0.870497
50435	-0.129005	8.619829	5.056613	-0.211710	-0.080018	0.179118	0.027403	0.033592	-0.491008	-0.870076
50436	-0.101804	8.625821	4.766270	-0.201347	-0.314621	0.035811	0.027703	0.033104	-0.491878	-0.869593
50437	-0.145102	8.756337	4.997672	-0.166537	-0.158501	0.267904	0.027834	0.032529	-0.492796	-0.869091
50438	0.005883	8.850407	4.799375	-0.288504	-0.365989	0.244474	0.027914	0.032046	-0.493847	-0.868510
50439	-0.061651	8.909271	4.886316	-0.220757	-0.293631	0.342115	0.028108	0.031760	-0.494649	-0.868057
50440	-0.188584	8.857145	4.820859	-0.083364	-0.295626	0.268528	0.028464	0.031595	-0.495308	-0.867676
50441	-0.181026	8.878754	4.737775	-0.076191	-0.366260	0.245722	0.028931	0.031391	-0.495681	-0.867455
50442	-0.243033	8.818179	4.947543	-0.025932	-0.142355	0.300501	0.029465	0.031227	-0.495925	-0.867303
50443	-0.265491	8.686623	4.968898	0.000465	-0.052035	0.198064	0.029991	0.031014	-0.495983	-0.867260
50444	-0.199990	8.694067	4.984681	-0.058179	-0.046610	0.210699	0.030471	0.030901	-0.495991	-0.867243
50445	-0.191686	8.530200	5.059536	-0.071116	0.098070	0.106248	0.030862	0.030879	-0.495849	-0.867311
50446	-0.148665	8.489378	5.025558	-0.109186	0.084362	0.052851	0.031200	0.031007	-0.495868	-0.867283
50447	-0.248962	8.535368	5.050947	-0.008981	0.091804	0.107900	0.031491	0.031052	-0.495803	-0.867308
50448	-0.106191	8.599544	4.946130	-0.137934	-0.044906	0.107322	0.031671	0.031018	-0.495715	-0.867353
50449	-0.085206	8.631731	4.994846	-0.161283	-0.024344	0.159069	0.031732	0.031070	-0.495504	-0.867469
50450	-0.110726	8.540427	4.963746	-0.136212	-0.009663	0.065130	0.031771	0.031223	-0.495130	-0.867676
50451	-0.111805	8.585869	5.008201	-0.140406	-0.002509	0.126729	0.031794	0.031416	-0.494778	-0.867869
50452	-0.137359	8.781853	5.474236	-0.154687	0.290277	0.531338	0.031755	0.031494	-0.494162	-0.868219
50453	0.037871	8.864597	5.638266	-0.346643	0.350385	0.681575	0.031847	0.032037	-0.492864	-0.868933
50454	-0.369346	8.590994	5.323197	0.069648	0.215047	0.298034	0.032315	0.033286	-0.490674	-0.870107
50455	-0.194093	8.934576	5.633239	-0.134205	0.238149	0.747747	0.032281	0.033411	-0.488649	-0.871243
50456	-0.177604	8.600578	5.316165	-0.135101	0.082754	0.298577	0.032546	0.034453	-0.485956	-0.872698
50457	-0.470745	8.507626	5.353461	0.133049	0.140708	0.248286	0.032488	0.035786	-0.484360	-0.873532
50458	-0.750433	7.745527	4.848005	0.417694	0.108025	-0.654455	0.032261	0.037709	-0.483207	-0.874099
50459	-0.624979	8.290086	5.426583	0.218744	0.288365	0.108647	0.031223	0.038267	-0.483456	-0.873974
50460	-0.143832	8.350916	5.154233	-0.251630	-0.016541	-0.001420	0.030562	0.039156	-0.483604	-0.873876
50461	-0.271930	8.394552	5.038629	-0.133127	-0.116991	-0.019896	0.030524	0.040342	-0.484225	-0.873480
50462	-0.393859	8.289561	5.025537	-0.025843	-0.046665	-0.110878	0.030677	0.040774	-0.484931	-0.873063
50463	-0.364506	8.452889	5.159841	-0.068184	-0.002487	0.097079	0.030830	0.040550	-0.485875	-0.872542
50464	-0.314359	8.364811	5.093815	-0.105890	0.005592	-0.014497	0.031131	0.040159	-0.486953	-0.871949
50465	-0.361539	8.400908	4.989092	-0.036948	-0.071605	-0.035651	0.031464	0.039536	-0.488148	-0.871297
50466	-0.363721	8.405216	4.832919	-0.004282	-0.177088	-0.111885	0.031744	0.038676	-0.489548	-0.870540
50467	-0.421841	8.469555	4.910387	0.063499	-0.104681	-0.014315	0.032019	0.037669	-0.491126	-0.869684
50468	-0.478337	8.429234	4.930644	0.136013	-0.017490	-0.036544	0.032159	0.036426	-0.493419	-0.868434
50469	-0.367361	8.534181	5.168698	0.023268	0.180950	0.169746	0.032261	0.035248	-0.496211	-0.866886
50470	-0.350360	8.606440	5.097321	0.033348	0.149719	0.194923	0.032407	0.034097	-0.499293	-0.865156
50471	-0.245526	8.720150	4.975236	-0.033857	0.047132	0.229747	0.032706	0.032521	-0.502129	-0.863562
50472	-0.110925	8.790179	4.577978	-0.098843	-0.273307	0.094502	0.033133	0.030653	-0.505373	-0.861720
50473	-0.054449	9.063247	4.967397	-0.152655	0.011473	0.521542	0.034259	0.029451	-0.509025	-0.859566
50474	-0.212971	8.820972	4.559370	0.064976	-0.134127	0.118073	0.035505	0.028230	-0.512198	-0.857669
50475	-0.146972	8.846986	4.574899	0.027768	-0.053345	0.148036	0.036856	0.027162	-0.516258	-0.855208
50476	-0.048708	8.965302	4.412827	-0.023233	-0.168059	0.178437	0.038225	0.026095	-0.519960	-0.852936
50477	-0.093052	9.111982	4.254016	0.067473	-0.281724	0.239620	0.039873	0.025427	-0.523694	-0.850593
50478	-0.078805	9.358971	4.457738	0.072643	-0.124256	0.552958	0.041422	0.024464	-0.527031	-0.848484
50479	0.078285	9.366895	4.125460	-0.021453	-0.359233	0.416396	0.043188	0.023449	-0.530232	-0.846427
50480	0.118127	9.207679	4.193644	-0.045393	-0.155675	0.304384	0.045675	0.023351	-0.533351	-0.844337
50481	0.108670	9.114473	3.858496	0.017138	-0.343739	0.079456	0.048067	0.023047	-0.536225	-0.842390
50482	0.132611	9.097855	3.872423	0.016622	-0.253549	0.072611	0.050784	0.023234	-0.539375	-0.840212
50483	0.085473	9.389315	3.862146	0.105521	-0.301839	0.335218	0.053898	0.023678	-0.542206	-0.838181
50484	0.083575	9.278710	3.859877	0.129837	-0.197152	0.234403	0.057075	0.023594	-0.544201	-0.836678
50485	0.065185	9.077020	3.681584	0.191969	-0.232705	-0.021909	0.059945	0.022741	-0.545566	-0.835612
50486	0.299815	9.134949	3.755012	0.004415	-0.179580	0.066819	0.062285	0.020880	-0.547147	-0.834455
50487	0.496209	9.245563	3.933738	-0.148869	-0.043037	0.245970	0.064752	0.019400	-0.548744	-0.833253
50488	0.571003	9.033126	3.675094	-0.168949	-0.174969	-0.046910	0.067298	0.018653	-0.549592	-0.832510
50489	0.635704	8.856869	3.708843	-0.215333	-0.059929	-0.192208	0.069778	0.017940	-0.550699	-0.831589
50490	0.482155	8.755428	4.017453	-0.075272	0.314572	-0.172920	0.072350	0.017624	-0.552112	-0.830438
50491	0.547136	8.702752	3.899227	-0.097161	0.248006	-0.264385	0.074111	0.016187	-0.553121	-0.829640
50492	0.714357	8.747315	3.972859	-0.227888	0.310271	-0.186631	0.075620	0.014666	-0.554887	-0.828352
50493	0.719925	8.946072	4.132861	-0.198154	0.419817	0.057236	0.077410	0.014061	-0.555974	-0.827468
50494	0.646545	8.875960	4.004880	-0.090198	0.359392	-0.060643	0.079032	0.013160	-0.556405	-0.827039
50495	0.770374	8.981201	3.767269	-0.135499	0.098275	-0.044393	0.079774	0.010893	-0.556864	-0.826692
50496	0.995884	9.029642	3.883484	-0.322061	0.164548	0.060342	0.080630	0.008877	-0.556917	-0.826597
50497	0.950325	9.012168	3.836799	-0.233649	0.136440	0.024486	0.081609	0.007189	-0.556679	-0.826678
50498	0.768240	8.809664	4.017024	-0.059777	0.399501	-0.108382	0.082544	0.005361	-0.556343	-0.826825
50499	0.929467	8.574315	4.177676	-0.225498	0.601951	-0.251180	0.082928	0.003130	-0.555724	-0.827215
50500	1.282352	8.431319	3.803429	-0.517112	0.247742	-0.492346	0.082699	0.001015	-0.555034	-0.827706
50501	1.324305	8.432125	3.470859	-0.505183	-0.063886	-0.612575	0.082326	0.000153	-0.555517	-0.827420
50502	1.028612	8.624146	3.886580	-0.233735	0.309802	-0.305387	0.082475	0.001360	-0.556742	-0.826580
50503	0.940310	9.167043	3.962907	-0.103503	0.222064	0.215441	0.082380	0.002631	-0.557867	-0.825828
50504	0.960331	9.463914	3.918921	-0.106954	0.087074	0.474525	0.082480	0.004463	-0.558194	-0.825589
50505	0.718663	9.246330	3.857539	0.078939	0.141529	0.230487	0.082670	0.006408	-0.557937	-0.825730
50506	0.694064	9.119846	3.714861	0.074584	0.057015	0.058718	0.082624	0.007905	-0.558241	-0.825517
50507	0.750713	9.278106	3.854094	-0.002953	0.126862	0.261274	0.082863	0.009637	-0.558675	-0.825180
50508	0.779841	9.228809	3.787456	-0.054269	0.083257	0.193010	0.083008	0.010974	-0.558805	-0.825061
50509	0.856095	9.059881	3.329785	-0.116598	-0.289559	-0.127423	0.083080	0.012176	-0.558881	-0.824986
50510	0.709206	9.201847	3.493703	0.003735	-0.160163	0.054287	0.083487	0.014052	-0.559489	-0.824503
50511	0.336638	9.458179	3.754847	0.345685	0.059359	0.363082	0.083660	0.015412	-0.559927	-0.824164
50512	0.519618	9.473681	3.620816	0.170199	-0.096104	0.340772	0.083140	0.015417	-0.559798	-0.824304
50513	0.793830	9.503881	3.181547	-0.049382	-0.559348	0.225283	0.082722	0.015689	-0.559663	-0.824432
50514	0.516907	9.413386	3.397640	0.174647	-0.287451	0.202793	0.082538	0.016397	-0.559625	-0.824463
50515	0.526310	9.552712	3.574345	0.149978	-0.179608	0.397724	0.081823	0.016263	-0.559421	-0.824675
50516	0.758778	9.356075	3.395371	-0.084304	-0.318376	0.163883	0.080963	0.015881	-0.559106	-0.824981
50517	0.660069	9.341661	3.518175	-0.008880	-0.191728	0.189464	0.080406	0.015950	-0.558897	-0.825176
50518	0.557570	9.344157	3.689455	0.066526	-0.024365	0.248685	0.079794	0.015742	-0.558721	-0.825358
50519	0.665521	9.250291	3.749933	-0.060525	0.039464	0.190691	0.079250	0.015566	-0.558209	-0.825760
50520	0.622445	9.069834	3.772429	-0.044209	0.120325	0.029269	0.078907	0.015630	-0.557828	-0.826050
50521	0.651846	9.109804	3.866501	-0.084703	0.180645	0.103131	0.078761	0.015886	-0.557628	-0.826193
50522	0.579581	9.064255	3.829939	-0.018454	0.167190	0.043111	0.078576	0.015999	-0.557260	-0.826457
50523	0.671509	9.098548	3.862779	-0.113751	0.163244	0.092663	0.078412	0.016270	-0.557014	-0.826633
50524	0.535584	9.091941	3.820347	0.020230	0.140721	0.062791	0.078240	0.016376	-0.556748	-0.826826
50525	0.620477	9.192172	3.886774	-0.062174	0.144873	0.185471	0.078071	0.016330	-0.556391	-0.827084
50526	0.661770	9.113593	3.799477	-0.101281	0.077233	0.082529	0.077944	0.016281	-0.555949	-0.827394
50527	0.610501	9.066605	3.719053	-0.046238	0.019508	0.005911	0.077905	0.016292	-0.555662	-0.827590
50528	0.497505	9.090201	3.852612	0.052326	0.144654	0.071554	0.077902	0.016266	-0.555439	-0.827741
50529	0.549298	9.185006	3.808498	0.020522	0.057292	0.145576	0.077637	0.015718	-0.555280	-0.827883
50530	0.693300	9.266274	3.747066	-0.100465	-0.055666	0.205886	0.077601	0.015519	-0.554984	-0.828088
50531	0.510997	9.161171	3.863904	0.057521	0.107702	0.142362	0.077596	0.015371	-0.554443	-0.828454
50532	0.617981	9.045043	3.829886	-0.052329	0.091092	0.028638	0.077409	0.014942	-0.553948	-0.828810
50533	0.681160	8.916142	3.820580	-0.123552	0.110158	-0.089983	0.077357	0.014777	-0.553524	-0.829101
50534	0.594188	8.999380	3.913583	-0.036498	0.169302	0.017268	0.077281	0.014606	-0.553222	-0.829313
50535	0.671139	8.995496	3.904935	-0.108327	0.144879	0.015088	0.077049	0.014206	-0.552953	-0.829521
50536	0.630105	8.983742	3.922144	-0.067529	0.166300	0.008496	0.076928	0.013991	-0.552795	-0.829641
50537	0.665279	9.067876	3.963821	-0.094081	0.166451	0.104182	0.076783	0.013627	-0.552795	-0.829661
50538	0.738694	9.135785	3.864142	-0.143036	0.037348	0.133064	0.076802	0.013363	-0.552619	-0.829780
50539	0.725689	9.053907	3.816018	-0.128341	0.020801	0.038452	0.076797	0.013000	-0.552349	-0.829966
50540	0.763936	8.934379	3.709686	-0.162206	-0.040807	-0.110084	0.076778	0.012707	-0.552315	-0.829995
50541	0.703836	9.150201	3.891858	-0.095912	0.056557	0.155047	0.076759	0.012601	-0.552498	-0.829876
50542	0.679537	9.149183	3.829062	-0.062340	0.004882	0.128496	0.076701	0.012313	-0.552460	-0.829912
50543	0.649218	9.074123	3.806420	-0.034449	0.018183	0.048779	0.076740	0.012098	-0.552614	-0.829809
50544	0.539379	9.131974	3.926599	0.072082	0.126417	0.141250	0.076768	0.011753	-0.552731	-0.829733
50545	0.697285	9.127541	3.849419	-0.068755	0.035429	0.117583	0.076653	0.011179	-0.552647	-0.829807
50546	0.812685	9.017761	3.637190	-0.165674	-0.135999	-0.057500	0.076700	0.010926	-0.552596	-0.829841
50547	0.604870	8.981128	3.882942	0.011429	0.136147	-0.010387	0.076879	0.010964	-0.552901	-0.829620
50548	0.571621	9.149354	3.924531	0.061591	0.123489	0.158286	0.076806	0.010633	-0.553155	-0.829462
50549	0.699912	9.132991	3.824115	-0.051832	0.023910	0.113138	0.076712	0.010298	-0.553283	-0.829390
50550	0.647367	9.100582	3.858243	-0.003792	0.077701	0.092850	0.076634	0.010068	-0.553377	-0.829337
50551	0.667391	9.097314	3.823733	-0.016814	0.047997	0.077958	0.076402	0.009649	-0.553565	-0.829238
50552	0.697270	9.121925	3.857264	-0.043054	0.069895	0.115427	0.076242	0.009292	-0.553725	-0.829150
50553	0.651282	9.041898	3.846995	-0.002966	0.099882	0.034620	0.076072	0.009065	-0.553828	-0.829099
50554	0.621870	9.151688	3.934508	0.030303	0.148668	0.167164	0.075988	0.009001	-0.554126	-0.828908
50555	0.694403	9.187788	3.894894	-0.031571	0.092897	0.190224	0.075827	0.008696	-0.554162	-0.828902
50556	0.686779	9.017543	3.894543	-0.041776	0.154677	0.032592	0.075795	0.008665	-0.553966	-0.829037
50557	0.641487	9.069351	3.744213	0.025897	0.001863	0.020069	0.075587	0.008387	-0.553997	-0.829038
50558	0.799063	9.249888	3.719143	-0.104553	-0.110030	0.187708	0.075401	0.008182	-0.553932	-0.829100
50559	0.802742	9.197146	3.797665	-0.122283	-0.020880	0.169234	0.075368	0.008249	-0.553832	-0.829169
50560	0.760884	9.179371	3.733797	-0.077497	-0.069024	0.125636	0.075243	0.008220	-0.553788	-0.829210
50561	0.750852	9.241907	3.725571	-0.061391	-0.102721	0.179418	0.075314	0.008472	-0.553480	-0.829407
50562	0.727583	9.178412	3.668431	-0.041754	-0.134971	0.097411	0.075350	0.008580	-0.553259	-0.829550
50563	0.766934	9.183812	3.720957	-0.087164	-0.099683	0.125047	0.075404	0.008789	-0.553035	-0.829692
50564	0.682111	9.101672	3.808967	-0.024662	0.018843	0.077357	0.075483	0.009043	-0.552895	-0.829776
50565	0.650016	9.089656	3.837757	-0.000058	0.052394	0.075184	0.075512	0.009207	-0.552901	-0.829767
50566	0.662158	9.071502	3.908456	-0.024034	0.122336	0.086357	0.075555	0.009395	-0.552912	-0.829754
50567	0.684309	9.002091	3.841939	-0.050000	0.084480	-0.001634	0.075679	0.009686	-0.552964	-0.829705
50568	0.679340	9.012406	3.859702	-0.048822	0.097792	0.014333	0.075706	0.009861	-0.552946	-0.829712
50569	0.713959	9.080328	3.802100	-0.072328	0.015256	0.057094	0.075757	0.010113	-0.553023	-0.829653
50570	0.645503	9.087714	3.909732	-0.020315	0.121691	0.100637	0.075909	0.010594	-0.553042	-0.829621
50571	0.612764	9.082235	3.863466	0.011257	0.084420	0.075770	0.075927	0.010848	-0.552931	-0.829690
50572	0.671057	9.038993	3.883522	-0.058313	0.108020	0.047352	0.075979	0.011257	-0.552860	-0.829726
50573	0.593691	9.133255	3.897284	0.021582	0.094130	0.134589	0.076009	0.011605	-0.552757	-0.829788
50574	0.626956	9.232191	3.730579	0.014013	-0.103721	0.163920	0.076021	0.011791	-0.552604	-0.829886
50575	0.663850	9.258172	3.712510	-0.021436	-0.140502	0.183161	0.076110	0.012191	-0.552347	-0.830043
50576	0.591959	9.284185	3.803636	0.037551	-0.064140	0.237617	0.076217	0.012584	-0.551985	-0.830268
50577	0.664249	9.168759	3.704410	-0.039006	-0.132687	0.097453	0.076260	0.012765	-0.551510	-0.830577
50578	0.614543	9.261868	3.785254	0.007522	-0.094727	0.211232	0.076378	0.013251	-0.551308	-0.830693
50579	0.556788	9.297417	3.849073	0.056294	-0.049475	0.265095	0.076528	0.013626	-0.550856	-0.830973
50580	0.534291	8.947428	3.928008	0.028585	0.144647	-0.027524	0.076686	0.013806	-0.550226	-0.831372
50581	0.666965	8.948806	3.877572	-0.097060	0.069077	-0.037856	0.076888	0.014001	-0.550054	-0.831464
50582	0.530792	9.029167	4.011908	0.029701	0.177162	0.080276	0.077218	0.014360	-0.549849	-0.831563
50583	0.586185	8.956316	3.918366	-0.023703	0.107136	-0.019794	0.077483	0.014565	-0.549726	-0.831616
50584	0.535335	8.975316	3.986982	0.020084	0.168054	0.021450	0.077793	0.014827	-0.549658	-0.831627
50585	0.544281	9.030747	3.959074	0.021010	0.118929	0.062044	0.078060	0.014911	-0.549600	-0.831639
50586	0.588946	9.047108	3.922148	-0.015439	0.068982	0.065332	0.078302	0.015005	-0.549360	-0.831774
50587	0.552058	9.006060	3.884592	0.022350	0.050904	0.010798	0.078451	0.015009	-0.549167	-0.831887
50588	0.611504	9.024626	3.847479	-0.028301	-0.001328	0.016865	0.078674	0.015080	-0.549146	-0.831878
50589	0.583206	9.078664	4.016287	-0.012891	0.136522	0.130855	0.078964	0.015211	-0.549146	-0.831848
50590	0.582683	9.010183	3.933826	-0.008503	0.088789	0.035660	0.079220	0.015178	-0.549249	-0.831756
50591	0.569372	9.136493	3.968054	0.018612	0.077709	0.164224	0.079497	0.015100	-0.549402	-0.831631
50592	0.581535	9.089507	3.921868	0.010801	0.054023	0.103730	0.079731	0.014993	-0.549425	-0.831595
50593	0.636467	9.169196	3.883471	-0.025881	-0.017614	0.165269	0.080026	0.014978	-0.549532	-0.831497
50594	0.611156	9.048222	3.862301	-0.009042	0.013787	0.044337	0.080387	0.015007	-0.549484	-0.831492
50595	0.668939	9.087590	3.857880	-0.057686	-0.012109	0.082338	0.080743	0.015044	-0.549660	-0.831341
50596	0.586867	9.142620	3.946876	0.021500	0.064064	0.162541	0.081112	0.015163	-0.549702	-0.831276
50597	0.584582	9.079203	3.897799	0.024889	0.043905	0.084987	0.081318	0.015091	-0.549661	-0.831284
50598	0.622493	9.044698	3.873090	-0.010327	0.028812	0.046012	0.081438	0.014980	-0.549703	-0.831246
50599	0.684876	9.163618	3.862041	-0.054209	-0.034428	0.154870	0.081577	0.014980	-0.549760	-0.831195
50600	0.600009	9.122522	3.910338	0.020206	0.038342	0.130616	0.081701	0.014984	-0.549681	-0.831234
50601	0.611872	9.025958	3.928983	-0.003566	0.089216	0.049931	0.081756	0.014910	-0.549687	-0.831226
50602	0.584138	9.022612	3.927126	0.025010	0.093938	0.044372	0.081753	0.014839	-0.549739	-0.831194
50603	0.658836	9.165634	3.892421	-0.026084	-0.001656	0.166950	0.081686	0.014684	-0.549819	-0.831151
50604	0.592162	9.094410	3.947019	0.026144	0.085734	0.118570	0.081662	0.014596	-0.549753	-0.831198
50605	0.708478	9.016375	3.896719	-0.090069	0.049776	0.034688	0.081464	0.014345	-0.549701	-0.831256
50606	0.719215	9.037447	3.934276	-0.102083	0.073985	0.069385	0.081400	0.014365	-0.549712	-0.831255
50607	0.638330	9.059646	4.031799	-0.030871	0.167077	0.122663	0.081343	0.014219	-0.549686	-0.831280
50608	0.672485	9.073540	3.945352	-0.050139	0.077410	0.103898	0.081254	0.013973	-0.549679	-0.831297
50609	0.636291	9.135159	3.979301	-0.008567	0.090328	0.171431	0.081122	0.013773	-0.549633	-0.831344
50610	0.741104	9.196206	3.816773	-0.083880	-0.098500	0.170822	0.080862	0.013525	-0.549571	-0.831415
50611	0.777764	9.112334	3.856532	-0.135057	-0.039039	0.111658	0.080690	0.013560	-0.549399	-0.831544
50612	0.657752	9.068329	3.952711	-0.035227	0.080302	0.101115	0.080440	0.013529	-0.549295	-0.831638
50613	0.704320	9.164198	3.909712	-0.066891	-0.006977	0.175301	0.080114	0.013472	-0.549033	-0.831843
50614	0.666164	9.181511	3.938381	-0.034307	0.009676	0.199979	0.079934	0.013723	-0.548599	-0.832143
50615	0.647021	9.024288	3.992754	-0.044674	0.112076	0.075889	0.079725	0.013845	-0.548248	-0.832392
50616	0.699805	9.072392	3.906967	-0.084350	0.000935	0.089600	0.079596	0.013944	-0.548075	-0.832516
50617	0.746789	9.064445	4.110296	-0.157863	0.175626	0.165319	0.079583	0.014131	-0.547717	-0.832750
50618	0.579799	8.752568	3.993246	-0.017915	0.205009	-0.176959	0.079567	0.014249	-0.547372	-0.832977
50619	0.596126	8.985342	3.943972	-0.002398	0.065594	0.017996	0.079457	0.014218	-0.547471	-0.832923
50620	0.705310	9.231997	3.788544	-0.064121	-0.185951	0.189393	0.079312	0.014155	-0.547471	-0.832937
50621	0.676442	9.204771	3.814571	-0.042528	-0.151155	0.172886	0.079144	0.014124	-0.547168	-0.833153
50622	0.691378	9.224510	3.703994	-0.043607	-0.267373	0.148024	0.078795	0.014020	-0.547016	-0.833288
50623	0.748670	9.504345	3.827467	-0.086772	-0.279192	0.456543	0.078577	0.014362	-0.546530	-0.833621
50624	0.555323	9.223347	4.107978	0.033357	0.098164	0.298851	0.078390	0.014601	-0.545802	-0.834112
50625	0.611779	8.836782	4.131016	-0.071643	0.242368	-0.042099	0.078111	0.014519	-0.545075	-0.834614
50626	0.540914	8.841433	4.282420	-0.020594	0.376441	0.018920	0.078046	0.014740	-0.544759	-0.834823
50627	0.468829	8.826650	4.194825	0.056519	0.304001	-0.033603	0.077823	0.014714	-0.544294	-0.835147
50628	0.541491	8.947987	4.133605	0.003465	0.182094	0.057125	0.077682	0.014839	-0.544096	-0.835287
50629	0.597942	8.942645	4.125335	-0.054160	0.159929	0.052316	0.077443	0.014818	-0.543616	-0.835622
50630	0.637029	8.813856	4.157987	-0.114372	0.223084	-0.049703	0.077351	0.015137	-0.543184	-0.835906
50631	0.429561	8.869898	4.182420	0.088400	0.245500	-0.000238	0.077185	0.015394	-0.542899	-0.836102
50632	0.429676	8.960456	4.140489	0.099358	0.165089	0.065617	0.077030	0.015457	-0.542644	-0.836280
50633	0.513005	9.008799	4.071785	0.029304	0.063793	0.086612	0.076647	0.015245	-0.542288	-0.836550
50634	0.616636	9.107791	4.049579	-0.061109	-0.018192	0.173659	0.076341	0.015270	-0.542050	-0.836732
50635	0.556499	9.061566	4.119318	-0.017103	0.064415	0.156565	0.076062	0.015213	-0.541656	-0.837013
50636	0.539322	8.871675	4.022753	-0.010418	0.045496	-0.056775	0.075783	0.015028	-0.541280	-0.837285
50637	0.583988	9.000551	3.976804	-0.034046	-0.058656	0.044357	0.075421	0.014701	-0.541250	-0.837343
50638	0.644132	9.226880	3.974023	-0.067020	-0.161619	0.252722	0.075061	0.014410	-0.541137	-0.837454
50639	0.686195	9.319936	4.088388	-0.109545	-0.108422	0.386490	0.074734	0.014128	-0.540646	-0.837805
50640	0.687735	8.940882	4.152939	-0.157814	0.085607	0.067950	0.074464	0.013944	-0.539838	-0.838353
50641	0.572790	8.748712	4.259698	-0.076834	0.261608	-0.069037	0.074267	0.013953	-0.539440	-0.838627
50642	0.554573	8.869726	4.259810	-0.046630	0.208614	0.040225	0.074008	0.013840	-0.539240	-0.838780
50643	0.516684	8.941553	4.211127	0.003932	0.136304	0.083439	0.073811	0.013707	-0.539035	-0.838931
50644	0.609877	9.030176	4.169137	-0.073281	0.043432	0.151774	0.073641	0.013570	-0.538741	-0.839137
50645	0.424071	8.970054	4.172810	0.103460	0.090168	0.088586	0.073664	0.013672	-0.538418	-0.839341
50646	0.380562	8.956379	4.192142	0.144239	0.111585	0.081874	0.073506	0.013391	-0.538077	-0.839577
50647	0.563258	8.970478	4.082700	-0.019032	-0.027312	0.059195	0.073259	0.012998	-0.537690	-0.839853
50648	0.540468	8.897910	4.193773	-0.012414	0.095203	0.038374	0.072934	0.012667	-0.537171	-0.840219
50649	0.586046	8.889441	4.187776	-0.055843	0.075311	0.030801	0.072398	0.012324	-0.536704	-0.840568
50650	0.678048	8.967166	4.132531	-0.134063	-0.030741	0.083206	0.071713	0.012151	-0.536192	-0.840956
50651	0.632465	9.026738	4.166916	-0.090445	-0.032198	0.149037	0.070853	0.011962	-0.535522	-0.841458
50652	0.649399	8.972610	4.194048	-0.117472	-0.001803	0.112315	0.069998	0.011381	-0.535026	-0.841854
50653	0.873525	8.651661	4.128625	-0.363859	0.029368	-0.193615	0.069175	0.010681	-0.534440	-0.842303
50654	0.553946	8.517562	3.877711	-0.042364	-0.106200	-0.438293	0.068580	0.011205	-0.534400	-0.842371
50655	0.019455	8.586722	4.415438	0.423752	0.419181	-0.175626	0.067855	0.012043	-0.534508	-0.842349
50656	0.278932	8.932902	4.815456	0.143826	0.606152	0.320181	0.066624	0.012245	-0.534906	-0.842192
50657	0.704488	8.928678	4.388330	-0.256036	0.168050	0.156324	0.065499	0.012921	-0.534675	-0.842416
50658	0.671186	9.121180	4.100123	-0.206155	-0.173071	0.206537	0.064605	0.014518	-0.534592	-0.842512
50659	0.561377	9.551923	4.146382	-0.106697	-0.295172	0.610753	0.064036	0.017174	-0.535003	-0.842245
50660	0.543004	9.729088	3.971863	-0.110328	-0.543452	0.695296	0.063185	0.020107	-0.533309	-0.843318
50661	0.481426	8.918227	3.410577	-0.117057	-0.758758	-0.283340	0.062186	0.023564	-0.530445	-0.845107
50662	0.003333	8.897324	3.894518	0.236599	-0.298370	-0.107832	0.061532	0.027493	-0.529584	-0.845576
50663	-0.499932	9.134121	4.782507	0.582138	0.440315	0.483978	0.060825	0.030769	-0.528706	-0.846064
50664	0.148873	9.515551	4.801427	-0.091743	0.186615	0.844617	0.058768	0.032141	-0.528493	-0.846291
50665	0.075574	9.206188	3.634261	0.056339	-0.758551	0.055856	0.056139	0.033421	-0.525120	-0.848517
50666	0.125245	7.942269	3.186566	-0.053510	-0.678911	-1.281251	0.052916	0.033711	-0.522676	-0.850220
50667	-0.117191	8.257638	3.938777	0.088817	-0.149762	-0.664686	0.049850	0.033065	-0.522499	-0.850539
50668	-0.454157	9.340355	6.620360	0.157218	1.797892	1.501926	0.047596	0.032605	-0.523392	-0.850137
50669	0.805238	10.272151	6.656555	-1.044943	1.281939	2.342142	0.044242	0.029655	-0.523464	-0.850381
50670	0.822109	8.915030	1.576434	-0.579972	-2.686680	-1.147633	0.040661	0.024571	-0.518118	-0.853989
50671	0.699944	7.676272	2.304482	-0.572622	-1.537844	-1.936603	0.040403	0.025205	-0.516042	-0.855239
50672	-0.783470	8.665187	5.061615	0.694961	0.547732	0.214080	0.040480	0.025215	-0.514067	-0.856423
50673	-0.287345	9.203571	6.817903	0.093252	1.744071	1.510789	0.038908	0.022324	-0.511885	-0.857882
50674	0.858628	9.033010	5.452495	-0.910699	0.445790	0.724557	0.036459	0.020616	-0.508336	-0.860139
50675	0.877261	7.372445	2.102097	-0.750299	-1.768619	-2.339402	0.034396	0.022062	-0.505165	-0.862055
50676	-0.425454	8.919445	5.341838	0.299541	0.361858	0.582086	0.033987	0.025784	-0.502479	-0.863536
50677	-0.852837	8.536784	4.888890	0.718359	0.095927	0.035086	0.031767	0.024560	-0.497056	-0.866789
50678	0.150464	8.933266	4.692150	-0.246825	-0.480553	0.264467	0.028888	0.022464	-0.491790	-0.869944
50679	0.047092	8.160543	5.600570	-0.228536	0.571974	0.065682	0.026731	0.021920	-0.485919	-0.873320
50680	0.065662	7.923786	5.933479	-0.282269	0.879786	0.043420	0.023777	0.021173	-0.483208	-0.874927
50681	-0.016935	8.833239	5.191133	-0.155781	-0.278065	0.428033	0.021220	0.021895	-0.481173	-0.876095
50682	-0.184630	8.563892	4.579285	0.014374	-0.696825	-0.124652	0.018529	0.021861	-0.478471	-0.877636
50683	0.512862	8.485604	4.361801	-0.682858	-0.933396	-0.328170	0.015812	0.020166	-0.476048	-0.879046
50684	0.136934	8.602535	4.668206	-0.321927	-0.780220	-0.060677	0.014027	0.018863	-0.472844	-0.880832
50685	-0.109096	8.892597	6.144953	-0.139282	0.225165	0.993783	0.012267	0.017155	-0.469100	-0.882893
50686	0.006763	8.247187	5.730607	-0.233498	0.151786	0.226138	0.010862	0.016865	-0.465912	-0.884604
50687	-0.030861	7.904516	5.703815	-0.204275	0.264542	-0.070822	0.009202	0.016698	-0.463874	-0.885696
50688	-0.134557	7.995486	5.487683	-0.097222	0.016602	-0.114706	0.007252	0.015746	-0.463927	-0.885704
50689	0.099118	8.419422	5.484951	-0.323975	-0.217867	0.228661	0.005162	0.013655	-0.465119	-0.885128
50690	0.405122	8.383478	5.410982	-0.608435	-0.233416	0.152287	0.003822	0.011663	-0.466734	-0.884313
50691	0.662307	8.439762	5.484146	-0.843263	-0.171378	0.237360	0.003292	0.009770	-0.468331	-0.883493
50692	1.229517	8.363438	5.282984	-1.377058	-0.268929	0.056453	0.003633	0.008323	-0.469949	-0.882647
50693	1.562336	8.401987	5.640920	-1.697595	0.032602	0.285397	0.005135	0.008379	-0.471201	-0.881971
50694	1.158567	8.037125	5.781354	-1.296098	0.366729	0.063917	0.007728	0.010187	-0.471117	-0.881978
50695	0.411449	7.334314	5.857409	-0.568698	0.826635	-0.471173	0.010189	0.012348	-0.470655	-0.882172
50696	-0.028474	7.623715	6.199765	-0.157253	0.967466	-0.035256	0.011640	0.013817	-0.471283	-0.881797
50697	-0.277892	7.983652	5.992724	0.087157	0.622416	0.153937	0.012295	0.014950	-0.472113	-0.881326
50698	-0.321198	8.047798	6.092283	0.110761	0.702779	0.261030	0.012233	0.015766	-0.473966	-0.880317
50699	-0.099546	8.042833	5.878026	-0.119213	0.566746	0.132791	0.011839	0.016615	-0.476492	-0.878942
50700	-0.030654	8.391998	5.821985	-0.205785	0.391183	0.391540	0.011205	0.017555	-0.479488	-0.877301
50701	0.308488	8.266539	5.508117	-0.555202	0.241687	0.107152	0.010540	0.018604	-0.481917	-0.875956
50702	0.355330	8.372804	5.282205	-0.620257	0.043124	0.073917	0.010182	0.020231	-0.484042	-0.874751
50703	0.240126	8.488843	5.114272	-0.530249	-0.124274	0.085654	0.009964	0.022060	-0.484774	-0.874304
50704	0.362880	8.146552	5.388326	-0.702187	0.286447	-0.068109	0.010039	0.024339	-0.484436	-0.874431
50705	0.627300	8.010635	5.012966	-0.979932	0.017536	-0.392872	0.010212	0.026467	-0.484075	-0.874567
50706	0.921855	8.117386	5.256368	-1.322075	0.140437	-0.189619	0.010692	0.028597	-0.483437	-0.874847
50707	1.152428	8.073473	5.018405	-1.565357	-0.066334	-0.366068	0.011368	0.030612	-0.482915	-0.875058
50708	1.062029	8.381639	4.941269	-1.497967	-0.305523	-0.145289	0.012405	0.032646	-0.482395	-0.875257
50709	0.981035	8.570027	5.111041	-1.454260	-0.268489	0.104143	0.013673	0.034670	-0.482297	-0.875215
50710	0.700052	8.458677	5.428759	-1.219230	0.067014	0.188295	0.015212	0.036682	-0.481950	-0.875298
50711	0.608484	7.929176	5.435095	-1.140982	0.352052	-0.254625	0.016937	0.038374	-0.482029	-0.875150
50712	0.642303	7.691175	5.196401	-1.164977	0.282694	-0.585978	0.018912	0.040083	-0.483137	-0.874422
50713	0.314869	8.514690	4.423079	-0.784328	-0.757006	-0.274637	0.020845	0.042043	-0.484564	-0.873496
50714	0.156268	8.959372	6.213574	-0.822459	0.544679	1.046874	0.022595	0.044110	-0.483837	-0.873754
50715	-0.019725	8.991090	5.909025	-0.636279	0.272099	0.924060	0.023590	0.045563	-0.483596	-0.873786
50716	-0.366626	9.362256	5.916803	-0.316365	0.113796	1.263490	0.024315	0.047380	-0.483808	-0.873552
50717	-0.790335	9.316130	5.766246	0.097278	0.062632	1.171440	0.024502	0.048503	-0.484593	-0.873050
50718	-0.655701	8.847834	5.257444	0.007359	-0.110721	0.499559	0.024393	0.049006	-0.485827	-0.872339
50719	-0.475154	8.600759	5.052923	-0.158437	-0.140563	0.171595	0.024442	0.049569	-0.487334	-0.871465
50720	-0.622903	8.637712	4.782261	0.006574	-0.344577	0.074134	0.024656	0.050472	-0.488545	-0.870728
50721	-1.000314	8.558454	4.648375	0.379747	-0.354638	-0.035924	0.024909	0.051827	-0.489633	-0.870030
50722	-1.508609	8.384548	4.851665	0.838764	-0.022118	-0.044826	0.024983	0.053260	-0.490218	-0.869613
50723	-1.632545	8.250098	5.037182	0.917618	0.228219	-0.055210	0.024810	0.054386	-0.490508	-0.869384
50724	-1.947481	8.669431	5.012883	1.205048	0.031825	0.317836	0.024760	0.055788	-0.490782	-0.869142
50725	-2.330966	8.807373	5.043387	1.555834	0.031666	0.483783	0.024566	0.056923	-0.490853	-0.869034
50726	-2.569635	8.576975	5.097960	1.767341	0.226894	0.335303	0.024335	0.057913	-0.491239	-0.868757
50727	-2.750042	8.138286	5.211205	1.922498	0.580905	0.031986	0.024032	0.058347	-0.492125	-0.868234
50728	-2.937409	7.812651	5.185174	2.108668	0.772660	-0.246690	0.023635	0.058364	-0.493972	-0.867195
50729	-2.844585	7.912673	5.270789	2.001587	0.833718	-0.128600	0.023121	0.057917	-0.496730	-0.865662
50730	-2.744233	8.024532	5.301876	1.897453	0.852739	-0.029741	0.022567	0.057394	-0.499554	-0.864085
50731	-2.902444	8.007412	5.018623	2.091864	0.688052	-0.175267	0.021757	0.056803	-0.502131	-0.862650
50732	-2.783093	7.866143	5.110096	1.967872	0.875137	-0.268249	0.020383	0.055732	-0.504793	-0.861199
50733	-2.747833	7.566830	4.129460	2.063969	0.214060	-1.006216	0.018518	0.054106	-0.507927	-0.859500
50734	-2.504575	7.872464	3.818614	1.858585	-0.168161	-0.904970	0.015962	0.051767	-0.511845	-0.857368
50735	-2.113613	7.977431	3.162532	1.544347	-0.764529	-1.144437	0.012887	0.049183	-0.515660	-0.855283
50736	-1.386219	8.552262	3.803205	0.737548	-0.456360	-0.390664	0.009719	0.047165	-0.519192	-0.853300
50737	-0.941830	9.943094	4.872883	0.140519	-0.107273	1.298820	0.005893	0.045208	-0.521754	-0.851877
50738	-0.451452	10.823802	5.065291	-0.414081	-0.324241	2.134656	0.002116	0.043871	-0.522397	-0.851570
50739	-0.384770	10.497975	4.541617	-0.453036	-0.640928	1.605092	-0.000685	0.043816	-0.522393	-0.851578
50740	-0.671367	10.251401	4.762168	-0.205890	-0.327171	1.504144	-0.002677	0.044108	-0.521882	-0.851872
50741	-0.619488	9.547178	4.552769	-0.214558	-0.230216	0.777915	-0.004369	0.042419	-0.520055	-0.853068
50742	-0.191759	9.529612	3.958652	-0.577377	-0.809459	0.460211	-0.005499	0.040036	-0.518603	-0.854059
50743	-0.210776	9.275605	3.532974	-0.491717	-1.106700	0.041066	-0.005899	0.038298	-0.517029	-0.855090
50744	-0.399259	8.744367	3.673391	-0.262782	-0.761818	-0.353953	-0.006138	0.036619	-0.515944	-0.855817
50745	-0.616199	8.244741	4.117536	-0.027187	-0.152857	-0.577679	-0.006438	0.035149	-0.515040	-0.856421
50746	-0.739312	8.290749	4.380146	0.097052	0.038432	-0.407487	-0.007137	0.033674	-0.513892	-0.857164
50747	-0.701628	8.601652	4.595164	0.048662	0.048825	-0.035606	-0.008277	0.032201	-0.512170	-0.858240
50748	-0.112104	8.794239	4.742089	-0.543910	0.033385	0.164362	-0.009648	0.030800	-0.510372	-0.859348
50749	0.061390	8.932510	4.836603	-0.720054	0.006231	0.319813	-0.010622	0.029911	-0.508558	-0.860442
50750	-0.075523	9.077605	4.890551	-0.587217	-0.053351	0.481890	-0.011151	0.029280	-0.506958	-0.861401
50751	-0.146337	8.915559	4.781176	-0.494952	-0.108087	0.292334	-0.011356	0.028480	-0.505360	-0.862364
50752	0.171124	9.102507	4.711830	-0.805193	-0.297427	0.402466	-0.011481	0.027631	-0.504060	-0.863150
50753	0.577424	8.994057	4.732435	-1.195031	-0.264304	0.292973	-0.011269	0.027245	-0.502580	-0.864028
50754	0.507462	8.768297	4.805690	-1.111469	-0.130541	0.136313	-0.010535	0.027518	-0.500552	-0.865205
50755	0.154153	8.496394	4.937213	-0.750129	0.070646	-0.013677	-0.009733	0.027971	-0.498107	-0.866610
50756	0.146911	8.084232	4.726410	-0.715662	0.038914	-0.474518	-0.009161	0.028386	-0.495681	-0.867992
50757	0.185355	8.218635	5.135936	-0.780698	0.276256	-0.154935	-0.009011	0.028693	-0.493736	-0.869091
50758	0.265454	8.464333	5.122790	-0.877079	0.091316	0.045331	-0.008924	0.029263	-0.491469	-0.870358
50759	0.676945	9.040444	5.866476	-1.358248	0.374423	0.893297	-0.008742	0.029982	-0.489237	-0.871592
50760	0.904585	9.247583	6.206528	-1.627143	0.492202	1.231169	-0.007910	0.031459	-0.486660	-0.872989
50761	1.129751	9.455237	6.001186	-1.876890	0.139138	1.284592	-0.006311	0.034001	-0.484559	-0.874075
50762	1.140697	9.291320	5.874231	-1.905263	0.055305	1.073217	-0.004047	0.036931	-0.482458	-0.875131
50763	1.118555	8.767858	5.017387	-1.835580	-0.457196	0.173396	-0.001373	0.040372	-0.480079	-0.876295
50764	1.308427	8.215828	4.565946	-2.000170	-0.619693	-0.556639	0.001760	0.044582	-0.477424	-0.877540
50765	0.828850	7.631381	4.224914	-1.505829	-0.640877	-1.204783	0.006142	0.050053	-0.474282	-0.878928
50766	-0.265137	7.471819	4.182518	-0.439583	-0.589162	-1.277401	0.011912	0.055652	-0.471135	-0.880223
50767	-1.255626	7.596973	4.203251	0.512145	-0.614268	-1.076664	0.018945	0.061846	-0.468138	-0.881285
50768	-2.465838	7.385841	4.582897	1.639284	-0.103146	-0.928100	0.026631	0.068214	-0.464411	-0.882587
50769	-3.041723	6.949390	5.274059	2.076111	0.766145	-0.842492	0.034343	0.074073	-0.462499	-0.882852
50770	-3.481901	7.774968	5.593938	2.413036	0.649444	0.067653	0.042753	0.079475	-0.461719	-0.882424
50771	-3.811437	8.337914	5.633444	2.713122	0.467833	0.589396	0.051278	0.083611	-0.461347	-0.881781
50772	-3.742595	8.673890	5.474652	2.685534	0.205616	0.768446	0.060137	0.087305	-0.461415	-0.880828
50773	-3.039078	8.969459	4.989570	2.130100	-0.410412	0.669521	0.069045	0.090636	-0.461992	-0.879534
50774	-2.534041	9.479909	4.771776	1.746393	-0.908574	0.919694	0.078161	0.093579	-0.462099	-0.878407
50775	-2.461698	9.349922	4.346885	1.833987	-1.138684	0.565928	0.087505	0.095580	-0.461614	-0.877565
50776	-1.758908	9.094514	3.910806	1.330480	-1.476000	0.043724	0.096971	0.097029	-0.460869	-0.876802
50777	-1.086260	8.506920	3.424106	0.853342	-1.686685	-0.773971	0.106928	0.098931	-0.459829	-0.875978
50778	-1.189570	8.049545	4.121811	0.793488	-0.832760	-0.764151	0.117177	0.100957	-0.459083	-0.874826
50779	-1.580307	7.390009	3.967477	1.198261	-0.439247	-1.373415	0.127137	0.103007	-0.458790	-0.873348
50780	-1.682097	7.342688	3.113976	1.593009	-0.981610	-1.879249	0.136502	0.105873	-0.460380	-0.870752
50781	-2.096480	8.233863	3.530178	2.005490	-0.889739	-0.877430	0.144874	0.108840	-0.463948	-0.867132
50782	-1.921281	7.822833	3.706326	1.735733	-0.466537	-1.129782	0.153236	0.112455	-0.468367	-0.862847
50783	-1.512404	8.180957	3.865849	1.371160	-0.559017	-0.759137	0.161306	0.115088	-0.470906	-0.859641
50784	-1.590168	8.879753	4.096009	1.491337	-0.594758	-0.036334	0.169466	0.118953	-0.473588	-0.856064
50785	-1.107089	9.569597	5.057908	0.826205	-0.302275	1.032173	0.178192	0.122793	-0.473965	-0.853538
50786	-0.713285	9.048071	4.110377	0.746238	-0.889569	0.082925	0.189194	0.129739	-0.473819	-0.850217
50787	-1.521110	8.918173	3.213870	1.804335	-1.069880	-0.443832	0.200625	0.137489	-0.474464	-0.846009
50788	-2.718024	9.216246	3.467486	2.791165	-0.344566	0.007687	0.211774	0.145671	-0.474500	-0.841892
50789	-2.849781	9.089594	3.760647	2.698977	0.112523	0.065866	0.221403	0.153514	-0.475398	-0.837503
50790	-2.246618	9.480923	3.906512	2.141492	-0.158333	0.462708	0.229543	0.160866	-0.476645	-0.833212
50791	-1.686929	9.655134	3.496041	1.845390	-0.742711	0.401598	0.235452	0.168186	-0.477814	-0.829439
50792	-2.245893	9.162553	4.208236	1.754345	0.335876	0.361515	0.239035	0.174862	-0.477655	-0.827122
50793	-2.115592	9.255847	4.653571	1.356805	0.544895	0.659368	0.238548	0.178247	-0.477712	-0.826507
50794	-2.090445	10.121243	6.480249	0.516916	1.403918	2.293688	0.235988	0.179257	-0.475540	-0.828274
50795	-1.590144	11.220518	8.147083	-0.529734	1.701928	4.030158	0.232549	0.178350	-0.471364	-0.831822
50796	-1.890116	10.860842	4.957544	1.341018	-0.360108	2.194706	0.230777	0.177321	-0.466060	-0.835516
50797	-2.298375	10.051882	1.435281	3.349293	-2.321055	-0.232623	0.229723	0.176624	-0.464495	-0.836825
50798	0.005278	9.925153	1.682869	1.306230	-3.399905	-0.427864	0.229775	0.174521	-0.462854	-0.838160
50799	0.938239	6.094602	2.535106	-0.689866	-1.628909	-3.384617	0.234782	0.174876	-0.453128	-0.842004
50800	-0.494120	5.759520	4.239101	-0.433927	0.393896	-2.668297	0.242475	0.182031	-0.448255	-0.840915
50801	-2.281476	6.618780	6.141165	0.182277	2.213275	-0.768631	0.251234	0.187833	-0.443116	-0.839791
50802	-3.796773	6.836300	5.446570	1.774648	2.526485	-0.796990	0.260953	0.193562	-0.439086	-0.837640
50803	-4.198097	7.505031	5.465316	2.203648	2.501762	-0.184407	0.269926	0.197585	-0.437873	-0.834486
50804	-3.663435	8.738649	5.423403	2.108430	1.651255	0.771490	0.278548	0.201368	-0.438636	-0.830337
50805	-3.697102	9.387694	4.711166	2.693942	1.043723	0.941138	0.287625	0.206103	-0.438381	-0.826205
50806	-3.604388	10.166625	4.675795	2.843641	0.710430	1.572532	0.295247	0.209783	-0.438037	-0.822766
50807	-2.986169	10.518492	5.603303	1.923119	0.753940	2.298711	0.302291	0.212688	-0.436036	-0.820522
50808	-2.584686	10.553850	5.983590	1.426497	0.693585	2.489818	0.308779	0.215095	-0.432683	-0.819253
50809	-1.148727	9.710540	6.234643	0.024428	0.163120	1.782874	0.314518	0.216341	-0.428130	-0.819133
50810	-0.044328	8.117239	6.368903	-1.307450	0.072029	0.421522	0.320935	0.219097	-0.422986	-0.818584
50811	0.005522	7.393797	6.075461	-1.375128	0.103350	-0.342876	0.326710	0.222881	-0.418657	-0.817503
50812	-0.039659	8.301098	6.284659	-1.162636	-0.219593	0.531701	0.331765	0.226806	-0.414881	-0.816312
50813	0.532503	8.807496	6.443570	-1.468288	-0.850480	0.980617	0.336878	0.230633	-0.411043	-0.815086
50814	1.311718	9.758944	5.935754	-1.284460	-2.182837	1.402275	0.342580	0.234355	-0.406688	-0.813831
50815	0.941847	10.080879	6.208793	-1.040678	-2.019731	1.844743	0.349689	0.237885	-0.399572	-0.813309
50816	0.645155	9.886133	6.338446	-0.911103	-1.785156	1.776457	0.357130	0.240643	-0.391964	-0.812966
50817	0.562370	9.279710	6.630387	-1.164319	-1.471988	1.450747	0.365255	0.242189	-0.382744	-0.813289
50818	0.420044	7.236131	6.037026	-1.353028	-0.888681	-0.519713	0.374081	0.242561	-0.372115	-0.814099
50819	0.447955	5.881582	6.099965	-1.861906	-0.428640	-1.545247	0.383031	0.243791	-0.363105	-0.813638
50820	0.654332	6.216508	5.780259	-1.532897	-0.982350	-1.495922	0.392358	0.247140	-0.356294	-0.811191
50821	1.145308	7.188123	5.400969	-1.039893	-2.034761	-1.041778	0.402575	0.252044	-0.350644	-0.807128
50822	1.610928	7.897923	4.884223	-0.519057	-2.975070	-0.884846	0.414262	0.257846	-0.344786	-0.801888
50823	1.840870	8.101529	4.124139	0.110764	-3.557992	-1.247707	0.427833	0.264466	-0.338037	-0.795454
50824	2.109677	8.326689	3.570261	0.636109	-4.081556	-1.478110	0.443145	0.272594	-0.330385	-0.787503
50825	1.628124	8.731720	3.554826	1.253475	-3.837162	-1.139034	0.460586	0.281488	-0.320237	-0.778507
50826	0.463797	8.426788	4.098088	1.363801	-2.568101	-0.892939	0.480191	0.289629	-0.307247	-0.768850
50827	-0.110718	7.834334	3.970322	1.499880	-1.855224	-1.359312	0.500306	0.297986	-0.296256	-0.757054
50828	0.535340	8.125478	3.459378	1.968068	-2.567014	-1.577847	0.520124	0.307577	-0.288112	-0.742872
50829	0.503895	8.118697	3.199336	2.280564	-2.458668	-1.740830	0.541226	0.319077	-0.278918	-0.726271
50830	0.039480	7.327860	3.408507	1.803430	-1.680578	-2.115989	0.561642	0.330798	-0.272015	-0.707912
50831	-0.389993	7.808237	2.831480	2.581971	-1.223430	-2.004301	0.580354	0.344365	-0.269116	-0.687153
50832	-0.766682	10.219270	3.135460	3.691610	-1.072487	0.190475	0.598035	0.360784	-0.268104	-0.663558
50833	-1.057583	12.284715	3.814260	4.134038	-0.823839	2.385456	0.615934	0.375794	-0.267282	-0.638721
50834	-1.548742	12.922258	2.687337	5.122432	0.130887	2.448047	0.636362	0.389862	-0.262426	-0.611706
50835	-1.717477	13.651006	5.260873	3.155537	0.219501	4.573104	0.658513	0.400532	-0.257149	-0.582931
50836	-1.339703	13.117839	5.091523	2.766550	0.283007	4.045195	0.681216	0.414173	-0.250724	-0.549129
50837	-3.068285	11.612262	4.548633	1.481083	2.331257	2.728901	0.702418	0.427896	-0.245318	-0.513160
50838	-2.865610	6.786669	5.667748	-2.225222	1.341265	-0.889084	0.721204	0.440247	-0.242296	-0.476801
50839	-1.600387	4.608544	5.929976	-3.275852	-0.372945	-2.878934	0.730907	0.460469	-0.247758	-0.438588
50840	-3.467383	6.497304	6.665856	-4.461123	1.001989	-0.996496	0.735532	0.482024	-0.253307	-0.403089
50841	-4.154621	7.339674	6.702174	-5.027480	1.479110	-0.401347	0.744524	0.490879	-0.252184	-0.375665
50842	-5.550535	10.077505	8.535518	-6.593438	2.092876	2.731810	0.760470	0.489283	-0.241577	-0.352034
50843	-7.076143	9.879157	5.616944	-5.540353	4.855298	1.365358	0.781871	0.478441	-0.218464	-0.334733
50844	-11.954008	12.226528	6.123817	-8.451315	8.796240	3.644192	0.793672	0.473012	-0.204539	-0.323278
50845	-4.111856	7.884194	4.829466	-3.441129	2.693162	-0.686320	0.803046	0.459667	-0.204954	-0.319089
50846	-0.264464	14.587383	8.642686	-1.134776	0.169834	7.105220	0.800056	0.471241	-0.210399	-0.305901
50847	-9.926045	19.306466	11.662971	-8.750175	6.486504	12.292447	0.813756	0.464065	-0.190687	-0.293399
50848	-11.603561	2.837984	4.038497	-10.207238	6.152457	-5.694690	0.832642	0.432225	-0.177484	-0.297302
50849	1.587110	-4.403125	6.937953	-4.200510	-7.223286	-9.357752	0.838147	0.410731	-0.186103	-0.306880
50850	2.762039	4.661475	4.982200	0.860746	-2.651275	-3.000652	0.830278	0.430961	-0.187624	-0.299512
50851	-5.263304	11.659878	7.313528	-4.242599	4.034805	3.709676	0.831343	0.438579	-0.176587	-0.292121
50852	-3.920488	7.647764	6.611328	-4.123569	1.766726	0.058545	0.834153	0.432380	-0.178223	-0.292358
50853	-2.857733	6.687552	5.070150	-2.786524	1.695478	-1.569092	0.834442	0.432089	-0.180285	-0.290694
50854	-3.196101	5.021746	4.220269	-3.132667	1.707613	-3.447625	0.835785	0.429693	-0.179664	-0.290773
50855	-1.958941	5.791697	4.676321	-2.160910	1.010959	-2.494384	0.835450	0.428751	-0.179993	-0.292915
50856	-1.728023	6.083212	4.417130	-1.710660	1.167472	-2.382143	0.835894	0.427345	-0.177761	-0.295057
50857	-3.808091	6.481355	5.283484	-3.586909	2.152905	-1.632013	0.836671	0.426449	-0.174259	-0.296237
50858	-4.119940	5.915349	5.499857	-4.078718	1.984962	-1.961756	0.837548	0.423167	-0.173271	-0.299031
50859	-3.286389	6.083450	5.332959	-3.239745	1.679701	-1.879755	0.837937	0.420257	-0.173103	-0.302129
50860	-3.388813	5.399323	5.220685	-3.446844	1.554731	-2.491914	0.839015	0.416252	-0.172006	-0.305289
50861	-3.165959	4.705026	4.943001	-3.334289	1.307604	-3.197082	0.838959	0.413611	-0.172472	-0.308752
50862	-3.431069	5.953537	5.321539	-3.243421	1.867639	-1.968731	0.838277	0.412860	-0.172558	-0.311549
50863	-3.893100	6.851391	6.099330	-3.647033	2.153745	-0.792710	0.837575	0.411581	-0.173512	-0.314584
50864	-4.196910	7.416001	6.162351	-3.674088	2.617060	-0.313339	0.836411	0.410567	-0.175913	-0.317657
50865	-4.730738	8.636702	7.487830	-4.325693	2.803216	1.433216	0.835239	0.409948	-0.177915	-0.320413
50866	-5.833955	10.704484	9.432639	-5.428819	3.389153	4.210052	0.833012	0.411022	-0.180440	-0.323409
50867	-7.126239	14.223544	11.674669	-6.302198	4.557815	8.322882	0.829064	0.413138	-0.184533	-0.328508
50868	-7.848309	17.052723	13.694708	-6.826817	5.210117	11.778561	0.825417	0.411015	-0.188272	-0.338092
50869	-8.058171	16.255126	12.552451	-6.385626	5.897551	10.464176	0.821562	0.404013	-0.193780	-0.352505
50870	-6.157338	13.967560	10.111413	-4.247148	5.246476	7.206543	0.816623	0.391963	-0.203488	-0.371597
50871	-1.773048	10.131904	6.324593	-0.468939	2.567097	1.976162	0.810550	0.374778	-0.216267	-0.394688
50872	3.226570	7.642273	3.505585	3.285697	-1.043302	-1.492836	0.802942	0.356181	-0.229597	-0.419172
50873	4.847106	7.651059	3.498558	4.161379	-2.447935	-1.388766	0.795134	0.342478	-0.237402	-0.440580
50874	3.248285	7.423398	4.824288	2.356270	-1.668854	-0.835258	0.788322	0.328118	-0.240839	-0.461393
50875	1.645912	6.937087	6.002288	0.644999	-0.771876	-0.547361	0.780893	0.315829	-0.242461	-0.481322
50876	-0.472549	6.908921	6.866537	-0.685313	0.985045	-0.134844	0.772528	0.301699	-0.245999	-0.501659
50877	1.313572	5.161888	5.554193	-0.052561	-0.780889	-2.157294	0.762723	0.284109	-0.252389	-0.523293
50878	2.619977	4.739725	5.133754	0.413941	-1.956830	-2.623555	0.751902	0.269909	-0.259273	-0.542744
50879	1.541819	4.252218	4.578649	0.153005	-0.919219	-3.444489	0.740720	0.257551	-0.265522	-0.560803
50880	1.173538	5.201459	4.305359	0.887634	-0.280151	-3.022850	0.726341	0.249005	-0.276287	-0.578006
50881	1.380025	7.262034	4.821790	1.946400	-0.094307	-1.204938	0.710475	0.240963	-0.287767	-0.595276
50882	0.874693	7.601938	4.677985	2.165744	0.418982	-1.119487	0.693741	0.232278	-0.299237	-0.612559
50883	1.164001	7.455546	4.197168	2.362849	0.044326	-1.507838	0.675430	0.222736	-0.312510	-0.629699
50884	2.080896	6.850698	3.718305	2.177323	-1.016487	-2.111254	0.655866	0.212698	-0.326186	-0.646686
50885	2.814895	6.167857	3.108146	1.920224	-1.921494	-2.866941	0.635084	0.203852	-0.339771	-0.663075
50886	2.886439	6.925964	3.975175	1.614580	-1.846039	-1.683526	0.613638	0.196678	-0.352272	-0.678728
50887	2.812270	7.251048	4.275986	1.417061	-1.747354	-1.227521	0.591479	0.189493	-0.363525	-0.694330
50888	2.154442	6.820933	4.704413	0.787396	-1.020363	-1.348938	0.568990	0.182056	-0.372825	-0.710005
50889	1.661033	6.943428	4.382622	1.076199	-0.704561	-1.534960	0.545264	0.175161	-0.382639	-0.724978
50890	0.677464	8.298028	4.405903	2.141319	-0.026443	-0.639935	0.520821	0.168749	-0.390920	-0.739899
50891	-0.530897	9.919604	4.693438	3.354220	0.750708	0.622287	0.494694	0.162156	-0.398287	-0.755215
50892	-1.546296	10.907196	5.300686	3.992895	1.426447	1.653218	0.466900	0.153062	-0.402729	-0.772260
50893	-2.001635	11.393301	6.140556	4.025925	1.734583	2.527949	0.436324	0.142233	-0.407125	-0.789709
50894	-0.974425	11.911412	6.060403	3.768153	0.358727	3.041191	0.402145	0.128814	-0.413224	-0.806803
50895	0.300345	11.668702	5.777104	2.881701	-0.998428	2.848851	0.366174	0.112716	-0.417790	-0.823810
50896	1.022192	10.408947	4.717137	2.105273	-1.918675	1.301359	0.328982	0.095534	-0.421619	-0.839572
50897	0.912881	9.935020	3.408235	2.316455	-2.706744	0.109594	0.290483	0.077954	-0.425679	-0.853429
50898	0.394422	8.844292	2.839610	2.246292	-2.529599	-1.153245	0.251051	0.058964	-0.426108	-0.867138
50899	0.021094	7.934338	2.502883	2.100284	-2.352776	-2.114368	0.210507	0.040285	-0.428393	-0.877806
50900	0.296209	8.997242	2.556037	1.913549	-3.137321	-1.207012	0.169442	0.021190	-0.435232	-0.883976
50901	0.551550	9.763294	0.661326	1.852177	-5.161569	-1.690388	0.129068	0.000246	-0.442067	-0.887648
50902	0.902575	10.094427	-0.727336	1.236172	-6.540252	-2.137382	0.090285	-0.020651	-0.449252	-0.888591
50903	0.440957	11.555650	-0.011870	1.351745	-6.708980	-0.492668	0.053559	-0.038862	-0.454870	-0.888096
50904	0.038743	13.350637	2.369967	1.495523	-5.774130	2.363534	0.016932	-0.056777	-0.456215	-0.887895
50905	1.185311	12.380687	1.825406	-0.259336	-5.651799	1.411746	-0.019572	-0.073470	-0.452856	-0.888336
50906	2.022023	9.854022	3.162868	-1.383759	-2.996833	0.201788	-0.053304	-0.085062	-0.446975	-0.888896
50907	0.544640	10.972831	3.365012	-0.244132	-3.717612	1.056210	-0.084332	-0.095546	-0.443831	-0.887003
50908	0.078056	10.691879	6.941577	0.822122	-0.938660	2.873790	-0.113771	-0.105143	-0.437555	-0.885747
50909	1.759346	8.936384	5.539099	-1.144538	-0.568341	0.770378	-0.141121	-0.114473	-0.428998	-0.884840
50910	2.438692	7.928677	3.900023	-2.282319	-0.936771	-0.984712	-0.162799	-0.120339	-0.423300	-0.883081
50911	2.901146	8.262667	5.293731	-2.368151	0.115560	0.141688	-0.180752	-0.126508	-0.420513	-0.880053
50912	3.658528	7.741963	5.137691	-3.043358	0.696548	-0.327378	-0.195457	-0.130415	-0.415885	-0.878538
50913	4.288340	6.444768	3.400698	-4.016457	0.595504	-2.396322	-0.206731	-0.132657	-0.412681	-0.877131
50914	4.845586	6.307469	2.851959	-4.732156	0.631667	-2.840982	-0.214395	-0.132235	-0.410476	-0.876389
50915	6.459717	8.272108	1.967427	-7.079202	-0.224015	-1.821446	-0.217598	-0.128061	-0.413414	-0.874837
50916	5.975156	12.620774	4.729129	-6.845442	-0.920253	3.211904	-0.215979	-0.117845	-0.420129	-0.873474
50917	2.636603	12.061169	7.411973	-2.885047	-0.305710	4.291956	-0.214024	-0.110488	-0.418506	-0.875693
50918	-1.024111	8.005851	6.376686	0.948022	-0.536958	0.415467	-0.211478	-0.101967	-0.414021	-0.879469
50919	-1.291559	6.986157	6.858227	1.552107	0.170096	-0.062248	-0.214101	-0.102161	-0.409719	-0.880826
50920	1.740902	5.714467	7.371273	-0.621956	2.548321	-0.694564	-0.219869	-0.103079	-0.404385	-0.881762
50921	3.159992	5.691816	7.586203	-1.811886	3.314214	-0.557109	-0.226544	-0.103495	-0.400294	-0.881891
50922	2.547417	5.970833	7.806231	-1.318115	2.972627	-0.194832	-0.232112	-0.102179	-0.396645	-0.882245
50923	2.589394	5.356665	6.696092	-1.584390	2.591603	-1.385958	-0.238359	-0.103302	-0.393884	-0.881685
50924	2.946018	5.795522	5.992761	-2.298489	2.072861	-1.530154	-0.244316	-0.104522	-0.393346	-0.880150
50925	2.993236	6.984845	5.585767	-2.892426	1.203391	-0.916970	-0.249018	-0.106391	-0.393962	-0.878331
50926	3.246370	7.209768	5.596220	-3.170516	1.263266	-0.746863	-0.252896	-0.107918	-0.394271	-0.876896
50927	2.991266	6.928945	6.047124	-2.667669	1.623985	-0.660004	-0.256182	-0.108805	-0.395561	-0.875251
50928	2.461128	7.169722	6.275845	-2.201593	1.415499	-0.325998	-0.259010	-0.109740	-0.397692	-0.873334
50929	2.000993	7.587264	6.097995	-2.013107	0.898651	-0.122727	-0.261444	-0.110941	-0.400754	-0.871054
50930	1.258891	8.407335	6.239534	-1.603091	0.235468	0.607182	-0.263553	-0.111999	-0.404539	-0.868530
50931	-0.162234	10.057861	7.538382	-0.464504	-0.465323	2.740429	-0.265588	-0.112291	-0.408346	-0.866087
50932	-2.149005	9.767843	7.967757	1.484316	-1.029716	2.846308	-0.267377	-0.112169	-0.410867	-0.864359
50933	-3.475019	8.544460	8.073125	3.097386	-1.000065	2.005295	-0.268551	-0.113497	-0.413202	-0.862707
50934	-3.928492	8.186172	7.149040	3.274140	-1.637753	1.148721	-0.269967	-0.117492	-0.415828	-0.860465
50935	-3.668439	9.305205	6.644397	2.520016	-2.358346	1.688582	-0.272035	-0.123024	-0.418676	-0.857655
50936	-3.205245	9.850966	6.090622	1.790708	-2.709629	1.757162	-0.274730	-0.129334	-0.420532	-0.854955
50937	-2.634799	10.729153	6.740606	1.393366	-2.381401	2.831655	-0.277983	-0.135807	-0.421693	-0.852325
50938	-2.316535	10.830227	6.607973	1.113231	-2.345987	2.819895	-0.281985	-0.141763	-0.421142	-0.850310
50939	-2.673951	10.465195	6.174349	1.377437	-2.705614	2.252749	-0.286767	-0.148626	-0.419884	-0.848158
50940	-2.249504	10.150708	6.151834	1.204771	-2.371190	1.971511	-0.292548	-0.157579	-0.418403	-0.845295
50941	-1.475866	9.052301	5.230007	0.610439	-1.997841	0.536724	-0.298878	-0.168469	-0.417013	-0.841659
50942	-0.712172	8.463891	5.012192	0.226011	-1.406106	-0.053729	-0.305692	-0.180494	-0.416081	-0.837168
50943	-0.342791	7.790189	4.446080	-0.011694	-1.209146	-0.918362	-0.312890	-0.192543	-0.415419	-0.832138
50944	-0.889791	7.734278	4.562125	0.580683	-1.508722	-0.935220	-0.320887	-0.205125	-0.414674	-0.826438
50945	-1.084225	7.418397	4.101555	0.639564	-1.796032	-1.482288	-0.330673	-0.218569	-0.412710	-0.820094
50946	-1.064892	6.914963	3.852622	0.712102	-1.736633	-2.049310	-0.342202	-0.232489	-0.410454	-0.812634
50947	-1.093616	6.830725	3.858699	0.805563	-1.758446	-2.131340	-0.355906	-0.246069	-0.407450	-0.804217
50948	-1.330369	6.727151	4.234674	1.262159	-1.761047	-2.049806	-0.371668	-0.258844	-0.403865	-0.794831
50949	-1.845887	7.221202	4.854712	1.798114	-2.146905	-1.370043	-0.389791	-0.271018	-0.399425	-0.784265
50950	-2.873136	7.190542	5.373746	2.672279	-2.868749	-1.241675	-0.411064	-0.283131	-0.393097	-0.772229
50951	-3.961809	6.189326	4.922550	3.097353	-3.788966	-2.445418	-0.436696	-0.295974	-0.383783	-0.757896
50952	-5.141847	5.116734	3.899060	2.945028	-5.036039	-4.001632	-0.467277	-0.307698	-0.371700	-0.740819
50953	-6.453651	6.633162	2.976814	1.472496	-7.068826	-3.305844	-0.500374	-0.319212	-0.359910	-0.719857
50954	-4.970703	10.444318	1.222042	-2.838079	-6.780697	-0.800576	-0.532160	-0.335501	-0.352797	-0.692661
50955	-4.460537	10.808843	0.873592	-3.898048	-5.968798	-0.505067	-0.563338	-0.350173	-0.345103	-0.664028
50956	-4.589337	9.275398	-1.858211	-5.888780	-5.534626	-3.090439	-0.593315	-0.366513	-0.336299	-0.632889
50957	-4.263610	6.574200	-4.565875	-7.287093	-4.331054	-6.598923	-0.622010	-0.383953	-0.327113	-0.598900
50958	-2.709845	4.976258	-5.626211	-7.580037	-1.941457	-8.236691	-0.647939	-0.402341	-0.320182	-0.561943
50959	0.125545	6.413108	-5.697785	-7.802603	1.662844	-6.664952	-0.668636	-0.421944	-0.317050	-0.523803
50960	3.480860	9.379934	-0.857735	-3.589714	4.646910	-1.669600	-0.685240	-0.437576	-0.316348	-0.488772
50961	7.219039	17.282374	8.802673	3.682771	6.708368	9.413326	-0.698524	-0.449628	-0.314913	-0.459053
50962	7.630141	23.453866	9.548420	3.110604	7.958907	15.215590	-0.712819	-0.456551	-0.307338	-0.434734
50963	-0.113494	21.105308	9.590590	0.724664	0.840358	13.342144	-0.731058	-0.448141	-0.296671	-0.420369
50964	1.324868	20.211006	7.201411	-0.495182	3.275865	11.426889	-0.749210	-0.452242	-0.277592	-0.396363
50965	17.086031	16.483559	2.182206	5.590284	17.948309	4.848122	-0.764926	-0.452644	-0.263557	-0.374885
50966	18.550728	8.070207	1.584014	9.329236	16.808586	-3.317553	-0.777901	-0.440099	-0.258616	-0.366472
50967	5.455136	1.756876	5.652763	6.725491	2.323366	-6.049639	-0.781957	-0.421677	-0.266394	-0.373852
50968	-3.290074	4.199772	8.689983	3.013048	-5.093009	-1.508444	-0.782695	-0.416715	-0.267013	-0.377414
50969	-0.409406	7.098006	8.694666	3.583651	-1.639424	0.704735	-0.783545	-0.415765	-0.266232	-0.377249
50970	-0.687752	8.932064	7.172398	1.637693	-0.494501	1.535061	-0.784323	-0.416069	-0.266934	-0.374793
50971	0.159403	9.791382	6.098206	1.058337	1.004279	1.630909	-0.784453	-0.416933	-0.267702	-0.373009
50972	2.788502	8.239294	5.790723	2.917003	2.676778	-0.142115	-0.782921	-0.418708	-0.267324	-0.374509
50973	2.956613	6.868246	5.603156	3.344031	2.374440	-1.416912	-0.780158	-0.418644	-0.268078	-0.379768
50974	1.388586	5.412825	5.596826	2.954327	0.577571	-2.499027	-0.777511	-0.417905	-0.269390	-0.385046
50975	1.745804	4.685538	6.059531	3.755800	0.428198	-2.925700	-0.775502	-0.417613	-0.270757	-0.388441
50976	2.267802	5.196282	6.346140	4.066719	0.935002	-2.396133	-0.773780	-0.417113	-0.272644	-0.391084
50977	2.152518	5.217619	6.259768	3.929840	0.916988	-2.412896	-0.772269	-0.415556	-0.274806	-0.394202
50978	1.938282	4.798509	5.928434	3.713533	0.778325	-2.918294	-0.770742	-0.413562	-0.276842	-0.397847
50979	1.997830	4.492982	5.620182	3.607894	0.899079	-3.336642	-0.769419	-0.411047	-0.278260	-0.402002
50980	2.503447	3.959685	5.137721	3.676737	1.393950	-4.078517	-0.768340	-0.408000	-0.279395	-0.406359
50981	2.678618	3.923168	5.452798	3.992843	1.456240	-3.961570	-0.766693	-0.405745	-0.281326	-0.410376
50982	2.759406	4.649391	5.535602	3.783889	1.784142	-3.303249	-0.764974	-0.403388	-0.283253	-0.414560
50983	3.071762	5.785166	6.744648	4.395255	2.011110	-1.748495	-0.762624	-0.402472	-0.285386	-0.418300
50984	3.366532	7.797290	8.012110	4.700146	2.478944	0.583877	-0.759472	-0.402199	-0.287952	-0.422519
50985	4.201202	8.949598	8.553534	5.040123	3.408976	1.758149	-0.755333	-0.401945	-0.291249	-0.427886
50986	5.178828	10.670430	9.601760	5.597656	4.467282	3.662534	-0.750021	-0.401948	-0.295500	-0.434265
50987	5.926524	13.888970	10.991017	5.673816	5.676622	7.051842	-0.744224	-0.400202	-0.300595	-0.442280
50988	5.810259	16.327090	11.194158	4.664564	6.324588	9.262937	-0.737771	-0.395688	-0.307027	-0.452614
50989	5.518356	18.453450	10.183127	2.644318	7.085573	10.619531	-0.729908	-0.390261	-0.314604	-0.464709
50990	5.583512	18.703763	8.283416	0.702390	7.824331	9.882398	-0.721194	-0.382546	-0.321899	-0.479498
50991	4.824608	17.600657	5.584547	-1.723559	7.483335	7.658978	-0.710343	-0.373366	-0.329244	-0.497603
50992	2.262586	14.759614	2.289512	-4.343574	4.885008	3.805689	-0.696501	-0.362679	-0.337208	-0.519269
50993	-1.002400	11.463882	-0.292355	-5.960543	1.119712	-0.029349	-0.679140	-0.351968	-0.347052	-0.542626
50994	-3.306088	10.205017	0.056969	-5.435861	-1.793259	-0.740904	-0.660491	-0.340762	-0.356130	-0.566395
50995	-3.599993	9.024611	-0.054704	-4.867375	-2.603438	-1.817309	-0.642390	-0.329096	-0.363594	-0.588922
50996	-3.980605	9.983008	0.360230	-4.889765	-3.229112	-0.796707	-0.624737	-0.316447	-0.370449	-0.610190
50997	-3.197357	10.868699	0.816344	-4.878097	-2.687707	0.086310	-0.607393	-0.302509	-0.376826	-0.630528
50998	-3.448788	11.091452	1.982246	-3.914210	-3.069548	0.868861	-0.589759	-0.287548	-0.383245	-0.650095
50999	-5.619565	10.230747	1.849353	-3.011104	-5.402527	0.257059	-0.569253	-0.275413	-0.395558	-0.666058
51000	-7.010699	8.853150	5.668874	1.455823	-5.898644	1.266375	-0.551913	-0.261916	-0.400512	-0.682922
51001	-6.770210	6.374837	4.645043	2.142200	-5.679624	-1.374770	-0.533928	-0.246449	-0.403583	-0.700931
51002	-5.539762	7.332352	3.441720	0.553014	-4.930368	-1.346476	-0.515664	-0.239569	-0.409922	-0.713205
51003	-4.867154	7.511374	5.627824	2.107187	-3.553402	-0.080606	-0.498411	-0.230513	-0.412937	-0.726590
51004	-4.965540	5.867627	5.405267	3.004456	-3.402176	-1.584791	-0.481817	-0.223893	-0.416043	-0.737992
51005	-3.449984	4.908994	4.316501	2.168664	-2.247823	-3.113727	-0.466504	-0.218146	-0.418007	-0.748369
51006	-3.176221	4.092287	3.274165	1.801652	-2.244281	-4.402343	-0.452551	-0.212906	-0.420256	-0.757135
51007	-2.592699	3.596608	2.088724	1.012100	-2.128158	-5.515442	-0.439426	-0.208751	-0.424121	-0.763839
51008	-2.731647	4.776539	2.318315	0.768365	-2.408750	-4.403605	-0.426537	-0.205488	-0.429215	-0.769166
51009	-3.105351	5.427806	1.581072	0.302953	-3.225084	-4.235165	-0.413341	-0.204030	-0.436392	-0.772712
51010	-4.056711	6.143919	4.706528	2.802204	-2.542820	-1.936458	-0.400962	-0.202929	-0.441959	-0.776351
51011	-2.873368	4.931074	2.500220	1.287628	-2.371708	-4.196758	-0.390233	-0.203751	-0.445525	-0.779558
51012	-1.643155	6.324015	2.041803	-0.233202	-2.054622	-3.287009	-0.379718	-0.206042	-0.450936	-0.781037
51013	-1.281815	8.117144	3.273288	-0.217104	-1.627424	-1.120862	-0.370101	-0.207805	-0.455973	-0.782260
51014	-0.657215	9.895507	3.655956	-0.892899	-1.475022	0.615344	-0.361383	-0.209496	-0.460367	-0.783311
51015	-0.015486	11.508950	3.277580	-2.010800	-1.717884	1.857903	-0.353044	-0.208960	-0.464339	-0.784910
51016	-0.154955	12.508017	3.019765	-2.331610	-2.313057	2.629422	-0.344470	-0.205447	-0.467384	-0.787835
51017	-0.908374	12.046357	3.824037	-1.086052	-2.278151	2.604774	-0.335429	-0.199119	-0.468369	-0.792761
51018	-1.731800	9.864076	3.218891	-0.122389	-2.557518	0.390466	-0.325074	-0.191349	-0.469251	-0.798446
51019	-1.685717	8.156854	3.029098	0.338502	-2.071713	-1.201962	-0.314362	-0.184452	-0.471306	-0.803134
51020	-0.894158	7.316449	3.669694	0.435169	-0.817145	-1.631032	-0.303230	-0.176884	-0.473612	-0.807747
51021	-0.723033	7.241316	3.248433	0.098536	-0.939357	-1.899432	-0.290905	-0.167813	-0.477064	-0.812172
51022	-1.307657	8.648570	3.025652	0.025366	-1.941562	-0.763295	-0.278585	-0.158451	-0.482059	-0.815416
51023	-1.016676	10.338392	3.384827	-0.492722	-2.099260	0.898206	-0.267610	-0.148255	-0.485836	-0.818760
51024	-0.797477	11.599529	3.550034	-0.975886	-2.316795	2.081331	-0.257193	-0.135931	-0.487526	-0.823221
51025	-0.563589	11.518416	3.525156	-1.227286	-2.206669	1.978909	-0.247982	-0.123658	-0.487122	-0.828206
51026	0.062478	11.839057	5.154873	-1.249778	-0.835878	3.012165	-0.239705	-0.111053	-0.486416	-0.832831
51027	-0.149070	10.823533	5.617784	-0.769419	-0.244414	2.355895	-0.232390	-0.097357	-0.483574	-0.838256
51028	-1.631734	8.584540	5.117585	0.814226	-0.449427	0.270962	-0.225817	-0.085717	-0.481664	-0.842413
51029	-1.976223	8.419884	6.023676	1.375946	0.157996	0.635547	-0.220705	-0.078200	-0.480127	-0.845371
51030	-1.323055	9.424273	5.996337	0.414698	-0.024667	1.427893	-0.216937	-0.073945	-0.479218	-0.847243
51031	-0.657764	10.416700	7.582763	-0.012232	1.028571	3.047313	-0.214349	-0.070176	-0.476770	-0.849600
51032	-0.564063	9.213079	6.396895	-0.197079	0.606740	1.399420	-0.212819	-0.066704	-0.473489	-0.852096
51033	-0.523428	10.359002	3.948217	-1.396388	-1.893141	1.033363	-0.211225	-0.064063	-0.470532	-0.854330
51034	1.332962	7.771295	4.106698	-2.303859	0.090536	-1.226856	-0.207445	-0.059740	-0.463883	-0.859192
51035	1.705119	6.342082	4.983241	-2.017339	1.480398	-1.957771	-0.200587	-0.054935	-0.460257	-0.863082
51036	-1.278832	6.256072	7.296615	1.282529	2.056764	-0.424550	-0.190680	-0.046310	-0.454857	-0.868678
51037	-4.834800	6.671966	7.636265	4.452478	0.749418	0.474036	-0.182649	-0.042266	-0.451164	-0.872528
51038	-3.339633	8.143793	6.912038	2.490675	-0.080416	1.097878	-0.177639	-0.042942	-0.449107	-0.874588
51039	-2.834843	7.737289	5.939641	1.943016	-0.484718	0.145771	-0.172411	-0.041963	-0.447074	-0.876720
51040	-2.284887	7.445536	5.302849	1.400698	-0.667201	-0.519168	-0.167811	-0.042909	-0.445928	-0.878150
51041	-2.350545	6.865871	4.913121	1.567998	-0.698281	-1.218639	-0.162365	-0.042246	-0.444692	-0.879831
51042	-2.511484	6.315087	4.102991	1.719579	-1.079586	-2.138067	-0.157560	-0.042260	-0.444819	-0.880639
51043	-2.513049	6.830495	4.068126	1.633526	-1.372362	-1.752370	-0.153266	-0.042172	-0.446152	-0.880727
51044	-2.383789	7.160658	3.772207	1.417728	-1.709449	-1.673000	-0.149809	-0.042525	-0.448470	-0.880127
51045	-1.505125	8.139216	3.053270	0.264765	-2.492047	-1.353748	-0.146432	-0.043013	-0.452259	-0.878732
51046	-0.950616	9.511699	3.967968	-0.320764	-2.294672	0.274529	-0.141619	-0.041679	-0.455308	-0.878010
51047	-0.871320	9.250746	4.602723	-0.165621	-1.588546	0.432771	-0.135218	-0.039636	-0.456800	-0.878339
51048	-0.437839	9.138067	4.417149	-0.537545	-1.528028	0.216413	-0.127588	-0.037703	-0.459428	-0.878195
51049	-0.091749	9.202915	4.432345	-0.815273	-1.438697	0.267633	-0.118899	-0.035184	-0.461036	-0.878676
51050	-0.389607	7.962003	4.849121	-0.189193	-0.487919	-0.496826	-0.109648	-0.031602	-0.462488	-0.879252
51051	-0.036244	8.025464	5.827051	-0.380173	0.358926	0.091380	-0.100909	-0.027010	-0.463375	-0.879984
51052	1.560906	9.060577	5.278126	-2.184243	-0.340002	0.555656	-0.092632	-0.021543	-0.464707	-0.880342
51053	2.593812	10.831726	5.307714	-3.478217	-1.143387	1.969498	-0.082364	-0.012193	-0.465299	-0.881229
51054	2.658747	10.988164	5.056622	-3.636136	-1.517589	1.928365	-0.069523	-0.000577	-0.465624	-0.882248
51055	2.919582	10.409607	4.307772	-3.907019	-1.942424	0.976157	-0.052963	0.013623	-0.463577	-0.884367
51056	2.456687	9.321993	4.732707	-3.357311	-1.222909	0.314631	-0.032505	0.030340	-0.461553	-0.885998
51057	2.286243	9.149581	4.618033	-3.202482	-1.427014	0.085396	-0.009889	0.047816	-0.459314	-0.886931
51058	2.188649	10.038179	5.203813	-3.213895	-1.659235	1.121158	0.013835	0.064659	-0.456800	-0.887109
51059	1.645881	10.224561	4.261190	-2.520901	-2.708204	0.756779	0.038781	0.082902	-0.451148	-0.887744
51060	0.743142	9.247426	4.034102	-1.534185	-2.394994	-0.104528	0.065045	0.103875	-0.444697	-0.887256
51061	0.267013	8.699445	4.533988	-1.197662	-1.750084	-0.230968	0.092756	0.125972	-0.437913	-0.885302
51062	-0.180426	8.958060	3.982821	-0.571711	-2.319544	-0.302999	0.121894	0.147965	-0.431243	-0.881634
51063	-1.388244	9.819089	3.907065	0.699733	-2.505298	0.523677	0.152052	0.169793	-0.424650	-0.876198
51064	-2.025135	9.873529	3.761364	1.410223	-2.318679	0.597371	0.182718	0.189414	-0.418208	-0.869390
51065	-2.123813	10.246479	3.848405	1.604614	-2.299616	0.978278	0.212895	0.206184	-0.413805	-0.860773
51066	-2.427617	10.635351	3.800341	2.068058	-2.194331	1.338531	0.242729	0.220939	-0.409390	-0.851275
51067	-2.991210	10.212149	4.445898	2.143458	-1.034148	1.471511	0.272236	0.233056	-0.404042	-0.841619
51068	-3.053453	9.021218	4.913981	1.650692	0.087653	0.775871	0.300838	0.242770	-0.399106	-0.831429
51069	-2.681855	8.149644	6.168452	0.335614	1.068539	0.694603	0.327463	0.250334	-0.395059	-0.820993
51070	-2.682182	6.306990	5.221745	0.310155	1.582839	-1.348884	0.351503	0.260221	-0.391166	-0.809765
51071	-2.983544	6.624700	5.965309	0.017421	2.092483	-0.647887	0.370625	0.265207	-0.388314	-0.800946
51072	-1.880333	6.857471	5.697899	-0.360884	1.039885	-0.767523	0.388813	0.270301	-0.382471	-0.793396
51073	-2.482420	7.481073	6.275412	-0.194560	1.504503	0.147645	0.407289	0.276457	-0.374447	-0.785797
51074	-1.998765	7.588435	7.375057	-1.181613	1.398013	0.799535	0.425085	0.279961	-0.365199	-0.779458
51075	-1.330158	7.714578	7.019440	-1.047251	0.573771	0.633699	0.443187	0.279824	-0.353900	-0.774622
51076	-0.315329	6.834999	4.897078	-0.128552	-0.695360	-1.428525	0.461170	0.278066	-0.343098	-0.769601
51077	-0.433311	6.589567	2.961813	1.420605	-0.995265	-2.786191	0.477793	0.277347	-0.336466	-0.762616
51078	-0.585784	7.038988	2.481078	2.191482	-1.007295	-2.725588	0.492435	0.277985	-0.333714	-0.754233
51079	0.013326	6.965643	2.374975	2.074717	-1.421647	-2.896532	0.505757	0.280501	-0.334642	-0.744005
51080	-0.657470	7.048632	2.669356	2.120827	-0.584218	-2.573964	0.518159	0.283997	-0.337507	-0.732766
51081	-1.320342	5.912252	3.102599	1.284466	0.561555	-3.152632	0.528665	0.288388	-0.342978	-0.720911
51082	-1.362005	4.970908	4.372107	-0.349223	1.174935	-3.166312	0.536029	0.293229	-0.352809	-0.708671
51083	-1.907662	7.395910	9.038579	-2.884917	2.292454	1.431813	0.539383	0.301693	-0.366356	-0.695580
51084	-2.943161	9.462110	11.461640	-3.889428	3.597292	4.381852	0.541420	0.306247	-0.374186	-0.687795
51085	-4.606652	8.375852	7.658688	-1.218961	4.789327	1.394412	0.541356	0.314287	-0.381732	-0.680028
51086	-5.110312	11.888604	8.659057	-0.513986	5.111652	4.885419	0.539372	0.318396	-0.388265	-0.675982
51087	-2.308829	12.111433	7.502790	-0.213388	2.226726	4.445754	0.536050	0.319736	-0.394040	-0.674649
51088	-2.791940	13.711847	7.409485	0.641472	2.539710	5.802963	0.534724	0.319112	-0.394967	-0.675454
51089	-3.346326	12.430981	7.788877	-0.043535	3.266883	4.874536	0.534673	0.314344	-0.390544	-0.680285
51090	-2.946601	9.636201	6.819572	-0.402098	2.949150	1.984765	0.533756	0.308279	-0.383937	-0.687503
51091	-2.356302	8.493447	6.150462	-0.344199	2.304664	0.679527	0.530896	0.304640	-0.379510	-0.693770
51092	-1.796197	9.138888	6.102044	0.019111	1.574606	1.209963	0.528223	0.300865	-0.375855	-0.699424
51093	-1.769874	7.813221	6.057152	-0.481964	1.678713	0.077474	0.526997	0.296299	-0.370923	-0.704909
51094	-1.672355	6.659929	5.941191	-0.869200	1.697535	-0.935170	0.525707	0.291752	-0.366329	-0.710152
51095	-1.795139	6.303445	5.701223	-0.706195	1.778274	-1.339346	0.524227	0.287759	-0.361866	-0.715146
51096	-1.892788	6.631073	6.306130	-0.853646	1.885022	-0.700225	0.522938	0.283088	-0.356770	-0.720494
51097	-1.342815	6.661418	6.342129	-0.867256	1.298022	-0.649697	0.522496	0.277644	-0.350185	-0.726142
51098	-1.184928	6.331408	6.248010	-0.853003	1.123112	-0.950617	0.522930	0.272219	-0.342467	-0.731545
51099	-1.412602	5.676825	6.052120	-0.846435	1.364534	-1.550180	0.524002	0.267607	-0.334559	-0.736125
51100	-1.500484	5.328621	6.442016	-1.176716	1.539188	-1.542879	0.525023	0.263893	-0.327900	-0.739725
51101	-1.540937	5.604036	6.556330	-0.968174	1.478299	-1.231240	0.525935	0.260989	-0.322410	-0.742515
51102	-1.411103	5.844732	6.805136	-0.942475	1.296867	-0.874519	0.526892	0.258306	-0.317611	-0.744840
51103	-1.094009	6.108972	6.315043	-0.430149	0.789784	-1.004362	0.527956	0.255972	-0.313167	-0.746771
51104	-0.884532	6.482692	6.243115	-0.115631	0.440824	-0.780776	0.529039	0.253081	-0.308286	-0.749018
51105	-0.296281	6.198170	5.920132	-0.138414	-0.155173	-1.238977	0.530002	0.249278	-0.302751	-0.751865
51106	0.367449	5.648428	5.708277	-0.430638	-0.733293	-1.818964	0.530866	0.244941	-0.296600	-0.755125
51107	0.912779	5.118172	5.807973	-0.899320	-1.139024	-2.154095	0.531384	0.240283	-0.290758	-0.758522
51108	1.411455	5.154420	6.044762	-1.088636	-1.615449	-1.983020	0.531256	0.236061	-0.285790	-0.761818
51109	1.758107	5.221920	6.324821	-1.244277	-1.944639	-1.748445	0.530641	0.231525	-0.280966	-0.765424
51110	2.045439	5.263844	6.456399	-1.309732	-2.233340	-1.635083	0.529669	0.227838	-0.277182	-0.768577
51111	2.378887	6.010788	6.877624	-1.117747	-2.703187	-0.838640	0.528398	0.224648	-0.274863	-0.771219
51112	2.824521	6.431927	8.316073	-1.833150	-2.987872	0.493439	0.527203	0.220327	-0.272372	-0.774161
51113	3.140537	6.164540	9.777946	-2.976253	-2.920778	1.415990	0.525509	0.216010	-0.271149	-0.776954
51114	2.761376	6.378596	9.758813	-2.649331	-2.591670	1.580737	0.522543	0.213393	-0.272904	-0.779061
51115	2.149195	7.522872	10.454333	-2.062693	-2.163788	2.898275	0.518971	0.209501	-0.274787	-0.781838
51116	2.282333	7.661237	10.553314	-2.061834	-2.225212	3.074227	0.514373	0.204851	-0.277328	-0.785204
51117	1.544094	8.041105	10.656186	-1.586580	-1.537796	3.443056	0.508221	0.200853	-0.281647	-0.788698
51118	0.838448	7.907072	11.215271	-1.778324	-0.575037	3.807571	0.501013	0.196860	-0.288249	-0.791925
51119	-0.552664	8.947606	10.850211	-0.342967	0.438288	4.250679	0.492852	0.192904	-0.297681	-0.794526
51120	-2.454299	8.748370	10.073532	0.771447	2.190392	3.552862	0.484071	0.187946	-0.307127	-0.797512
51121	-3.439549	10.111868	9.126471	2.686884	2.480072	3.751994	0.471979	0.180074	-0.318335	-0.802167
51122	-3.000918	9.235928	7.633188	2.857384	2.025873	2.032277	0.457704	0.169496	-0.328941	-0.808441
51123	-3.300897	8.765539	7.711925	2.763158	2.580652	1.715878	0.442138	0.158698	-0.340089	-0.814658
51124	-4.229716	6.877435	7.075207	2.660887	3.856959	-0.154206	0.425423	0.144758	-0.348153	-0.822709
51125	-5.093792	5.698443	5.751343	3.467110	4.374825	-2.045629	0.406539	0.129135	-0.353046	-0.832712
51126	-4.458244	5.838525	4.371058	4.132402	3.002472	-2.959247	0.383777	0.112893	-0.356936	-0.844137
51127	-2.642139	6.891615	6.369718	2.806862	2.045510	-0.703452	0.358142	0.095265	-0.358757	-0.856710
51128	-1.581309	7.364743	5.171823	3.010003	0.235071	-1.189133	0.331052	0.076676	-0.357709	-0.869810
51129	-0.898555	8.554010	5.320566	3.157641	-0.983284	-0.255344	0.303097	0.058797	-0.355582	-0.882177
51130	-0.838062	8.199102	5.847867	2.811755	-0.762808	-0.136313	0.274933	0.044206	-0.353472	-0.893037
51131	-1.387703	7.206797	6.836509	2.587064	0.498942	-0.135072	0.245619	0.031670	-0.353343	-0.902118
51132	-1.037354	7.105389	6.839060	2.279145	0.219272	-0.164350	0.214750	0.019108	-0.353577	-0.910220
51133	-0.156558	9.187471	5.393523	2.457202	-2.561841	0.233158	0.183387	0.007675	-0.356901	-0.915932
51134	0.550975	8.731120	5.819028	1.392422	-2.311121	0.341810	0.152272	-0.003188	-0.358072	-0.921188
51135	0.649257	7.616799	5.577617	0.832317	-1.751681	-0.550764	0.122099	-0.011778	-0.362057	-0.924050
51136	1.053624	7.569018	4.321924	0.310024	-2.586676	-1.429016	0.092887	-0.018155	-0.369519	-0.924391
51137	1.066771	8.171837	3.704133	0.160315	-3.295094	-1.401768	0.063916	-0.023368	-0.379676	-0.922613
51138	0.245932	8.459333	1.945158	0.700073	-4.482763	-2.409692	0.035167	-0.027528	-0.392260	-0.918769
51139	0.710546	9.441211	1.864600	-0.059437	-4.977312	-1.547450	0.006608	-0.031965	-0.410768	-0.911156
51140	1.411605	9.221400	3.129302	-1.054459	-3.498307	-0.677718	-0.022316	-0.039041	-0.426480	-0.903379
51141	1.038776	8.195021	2.238105	-1.025801	-3.187840	-1.937722	-0.051523	-0.047755	-0.441979	-0.894270
51142	-0.146541	8.346169	2.081095	-0.108056	-3.212120	-1.833502	-0.081005	-0.060533	-0.458374	-0.882988
51143	0.477060	7.565140	0.957813	-1.057214	-3.263668	-2.986430	-0.109765	-0.074054	-0.467989	-0.873758
51144	0.446594	5.420201	-0.030701	-1.178330	-2.711670	-5.248456	-0.136644	-0.086220	-0.475701	-0.864641
51145	2.030881	8.654663	8.559524	-0.765473	3.329175	2.045084	-0.161303	-0.100279	-0.485065	-0.853603
51146	-1.177246	9.089482	3.600223	0.557060	-1.937138	-0.174373	-0.185816	-0.109738	-0.474819	-0.853216
51147	-1.918442	4.332853	-1.788017	0.076161	-4.249987	-7.059710	-0.207072	-0.114699	-0.470485	-0.850064
51148	3.398883	6.430313	3.387997	-3.254173	1.245113	-2.585368	-0.225579	-0.120963	-0.475536	-0.841634
51149	6.013863	2.688085	3.046436	-4.627281	4.142748	-6.058320	-0.240873	-0.124170	-0.476308	-0.836476
51150	-0.678940	5.756571	3.212351	0.363245	-0.320346	-3.203566	-0.250846	-0.127341	-0.488276	-0.826103
51151	1.531187	14.797047	5.091191	-3.273189	-1.061568	5.529125	-0.262661	-0.131062	-0.490714	-0.820385
51152	5.828386	16.828487	5.735697	-7.244823	1.315139	7.387312	-0.270638	-0.128962	-0.493712	-0.816317
51153	6.337826	22.973131	10.041492	-7.774243	2.763219	14.696040	-0.273514	-0.122038	-0.493559	-0.816515
51154	5.104044	19.985983	8.033692	-7.018184	1.563057	11.123490	-0.270298	-0.116123	-0.489906	-0.820638
51155	3.540641	13.944054	6.549415	-4.538947	1.599819	5.243967	-0.261104	-0.112164	-0.488443	-0.825026
51156	3.646278	10.856545	5.057846	-4.311733	1.508417	1.843702	-0.249733	-0.108460	-0.486310	-0.830284
51157	2.343374	8.281655	4.325715	-2.745673	1.105659	-0.646184	-0.237379	-0.101896	-0.482968	-0.836666
51158	0.178608	6.336381	5.556468	0.130872	1.659712	-1.549338	-0.224636	-0.093626	-0.479710	-0.843001
51159	-1.595238	4.845043	5.265728	1.941699	1.219494	-2.849255	-0.212342	-0.085645	-0.477273	-0.848403
51160	-2.492193	4.765231	4.753138	2.542592	0.471312	-3.117634	-0.201736	-0.078914	-0.474651	-0.853101
51161	-1.772466	5.093361	4.763537	1.779491	0.633413	-2.869531	-0.192823	-0.074278	-0.473182	-0.856388
51162	-0.899937	5.490409	4.176030	0.689653	0.328841	-2.898214	-0.183974	-0.070316	-0.473003	-0.858765
51163	-1.133276	6.352457	4.051164	0.666306	-0.260590	-2.227307	-0.174658	-0.066122	-0.474570	-0.860178
51164	-1.394665	6.948725	3.918104	0.755765	-0.707329	-1.780901	-0.164558	-0.060720	-0.477573	-0.860905
51165	-2.308080	7.388963	3.784471	1.510539	-1.256433	-1.423116	-0.153793	-0.054014	-0.481619	-0.861089
51166	-2.858194	7.450462	3.859907	2.071864	-1.276333	-1.288944	-0.143139	-0.047483	-0.486640	-0.860487
51167	-2.869549	7.656257	4.505799	2.215496	-0.680929	-0.769472	-0.132782	-0.041152	-0.493640	-0.858484
51168	-2.130636	8.954988	5.474123	1.479079	-0.077968	0.793888	-0.122946	-0.035060	-0.501951	-0.855395
51169	-1.679319	9.972692	4.944268	0.793499	-0.682134	1.395456	-0.112879	-0.028658	-0.508942	-0.852887
51170	-1.306665	10.180192	5.384853	0.491596	-0.136847	1.766506	-0.102393	-0.022418	-0.514865	-0.850839
51171	-1.057223	10.225654	5.654856	0.286512	0.280921	1.913198	-0.092066	-0.015627	-0.520091	-0.848991
51172	-1.558411	10.380440	5.260651	0.693534	-0.074628	1.907733	-0.082205	-0.007410	-0.524732	-0.847257
51173	-1.021593	10.799283	6.003995	0.136681	0.628421	2.568774	-0.073253	0.000521	-0.529431	-0.845184
51174	-0.236157	9.673213	6.353147	-0.545653	1.601961	1.638276	-0.063102	0.009230	-0.531113	-0.844897
51175	0.120581	8.705790	6.519843	-0.862262	2.218024	0.800982	-0.052105	0.017379	-0.532280	-0.844784
51176	0.389631	8.517015	5.931439	-1.199079	1.782203	0.348948	-0.040206	0.026057	-0.532794	-0.844888
51177	-0.134070	9.097827	6.767219	-0.801785	2.256827	1.270961	-0.028586	0.033091	-0.532474	-0.845316
51178	-0.104297	9.267914	6.667867	-0.896013	2.054274	1.382943	-0.016582	0.040254	-0.530614	-0.846495
51179	-1.352685	9.194802	6.484080	0.319476	1.907743	1.353142	-0.004147	0.047089	-0.529254	-0.847146
51180	-1.878562	9.050768	6.340331	0.843159	1.864723	1.208069	0.008147	0.052295	-0.528072	-0.847549
51181	-1.009606	8.979722	5.655139	0.073695	1.229559	0.775885	0.020289	0.055636	-0.527908	-0.847235
51182	-0.104448	9.002525	4.944367	-0.678981	0.499762	0.424103	0.033255	0.058615	-0.527494	-0.846881
51183	0.176781	8.629165	4.568959	-0.820691	0.275877	-0.085470	0.046676	0.061201	-0.526226	-0.846854
51184	0.053199	8.356974	4.653462	-0.631844	0.456220	-0.279137	0.059298	0.063597	-0.524325	-0.847067
51185	-0.266950	8.097251	4.536452	-0.234537	0.480404	-0.542852	0.071244	0.066589	-0.521410	-0.847716
51186	-0.367672	8.092499	4.867963	-0.143996	0.761850	-0.393589	0.082208	0.069296	-0.519887	-0.847442
51187	0.082141	8.591300	4.722312	-0.462357	0.308007	-0.024510	0.092447	0.071318	-0.519030	-0.846744
51188	0.577022	8.991734	5.202990	-0.955702	0.419495	0.539399	0.102834	0.073928	-0.517898	-0.846015
51189	0.040049	8.722940	5.842164	-0.586272	1.196197	0.601123	0.113595	0.079250	-0.515929	-0.845360
51190	-2.207936	7.511004	6.613629	1.202619	2.995954	-0.086039	0.123582	0.085836	-0.514034	-0.844470
51191	-2.497624	7.255669	6.309778	1.482346	2.967688	-0.448323	0.129872	0.088302	-0.514895	-0.842745
51192	-1.410546	7.437717	5.770450	0.628069	2.139842	-0.558836	0.133839	0.088085	-0.516060	-0.841433
51193	-0.306574	7.274383	4.670260	-0.084690	0.969292	-1.217635	0.135537	0.085548	-0.517949	-0.840262
51194	0.698020	7.287141	3.771447	-0.734833	-0.069140	-1.610959	0.135841	0.082724	-0.520571	-0.838874
51195	1.102947	7.401076	3.691055	-1.052285	-0.256399	-1.539662	0.135353	0.080231	-0.523302	-0.837495
51196	1.136833	7.233865	3.396851	-1.008008	-0.402022	-1.813815	0.134475	0.078237	-0.525117	-0.836688
51197	1.074009	7.170945	3.588017	-0.995543	-0.165168	-1.785772	0.133643	0.076323	-0.525822	-0.836556
51198	1.377647	7.594946	4.210732	-1.376883	0.116882	-1.129262	0.133437	0.074873	-0.525956	-0.836635
51199	1.436290	8.613644	4.355766	-1.305011	-0.191541	-0.143629	0.134365	0.074131	-0.525357	-0.836929
51200	0.988796	9.371217	4.734155	-0.850774	-0.058518	0.698368	0.136068	0.074488	-0.523918	-0.837524
51201	0.595251	9.172706	4.825404	-0.525370	0.181166	0.554006	0.137742	0.076274	-0.521830	-0.838393
51202	0.335619	8.183569	4.690554	-0.408430	0.498442	-0.396263	0.139410	0.079628	-0.519078	-0.839513
51203	1.129567	8.053630	5.050777	-1.315684	0.554397	-0.346504	0.140433	0.082610	-0.517803	-0.839842
51204	2.325611	9.268349	5.414533	-2.412040	-0.054217	0.902109	0.142013	0.085913	-0.518418	-0.838865
51205	2.150963	10.100214	5.331491	-2.145246	-0.425613	1.601440	0.145308	0.090495	-0.518227	-0.837937
51206	0.051511	9.879038	5.588096	-0.342305	0.573844	1.517709	0.150234	0.096969	-0.517105	-0.837036
51207	-2.452617	9.159068	6.072335	1.647754	2.152016	1.115714	0.153768	0.103265	-0.515889	-0.836391
51208	-1.983675	8.866417	6.563895	0.914034	2.509821	1.072985	0.153895	0.106856	-0.516261	-0.835687
51209	-0.495468	9.289126	5.532223	-0.119045	0.941166	0.968711	0.153239	0.109130	-0.517618	-0.834674
51210	0.632456	9.666408	4.592575	-0.825102	-0.401772	0.868555	0.153700	0.110507	-0.517791	-0.834300
51211	-0.161226	9.512454	4.115583	0.039240	-0.437931	0.543831	0.156029	0.112822	-0.517383	-0.833811
51212	-0.993174	9.216821	4.395346	0.662148	0.229381	0.422751	0.159058	0.114558	-0.516674	-0.833442
51213	-1.012608	9.218889	4.875960	0.515595	0.648160	0.632514	0.161220	0.114602	-0.517558	-0.832471
51214	-0.838826	8.980401	4.154207	0.600500	0.117270	0.098628	0.163404	0.114275	-0.518712	-0.831371
51215	-0.301477	9.365457	3.658863	0.368928	-0.612999	0.221145	0.164856	0.113145	-0.520637	-0.830035
51216	0.539828	10.064152	3.477805	-0.202431	-1.329707	0.763910	0.166478	0.112245	-0.521707	-0.829161
51217	0.858376	10.592397	4.118472	-0.609849	-1.135289	1.511466	0.168602	0.112008	-0.519959	-0.829862
51218	-0.490230	9.901746	4.226542	0.511513	-0.277678	0.948794	0.171248	0.112707	-0.517192	-0.830954
51219	-1.568582	7.440858	3.780242	1.287269	0.738883	-1.451236	0.171774	0.111082	-0.515528	-0.832097
51220	-0.803629	6.303794	2.194328	1.001011	-0.413390	-3.177498	0.169585	0.107889	-0.517707	-0.831613
51221	0.264451	7.128223	1.581844	0.378439	-1.636511	-2.701985	0.166686	0.105420	-0.521353	-0.830237
51222	0.701901	8.733518	2.281745	-0.031364	-1.809084	-0.941427	0.164349	0.104777	-0.524261	-0.828952
51223	0.949868	10.782282	3.956473	-0.557718	-1.274595	1.627492	0.162168	0.105321	-0.525154	-0.828747
51224	0.229790	10.329314	4.766711	-0.266628	-0.184695	1.561102	0.158627	0.103723	-0.521919	-0.831673
51225	0.748741	7.818253	3.120741	-0.564363	-0.828808	-1.421084	0.153345	0.100465	-0.519208	-0.834754
51226	1.293876	7.525755	3.072998	-1.114515	-0.984226	-1.716795	0.147910	0.098838	-0.518550	-0.836337
51227	1.682160	8.208261	2.622660	-1.273286	-1.805146	-1.315426	0.143110	0.098619	-0.517119	-0.838082
51228	0.874443	9.935559	3.104326	-0.498046	-1.894342	0.447884	0.139060	0.100803	-0.515077	-0.839760
51229	-0.024201	9.885206	3.405099	0.173446	-1.433757	0.542212	0.133309	0.101699	-0.508825	-0.844383
51230	0.603695	8.438376	3.050470	-0.540676	-1.465478	-0.956414	0.125601	0.101391	-0.501852	-0.849758
51231	1.241780	8.002392	2.698097	-1.156784	-1.896539	-1.571132	0.118586	0.103170	-0.496405	-0.853742
51232	2.029560	8.618389	2.364424	-1.839223	-2.811827	-1.286543	0.112675	0.106775	-0.491907	-0.856698
51233	1.450810	9.514078	2.209575	-1.278419	-3.317308	-0.600596	0.109801	0.114458	-0.486190	-0.859338
51234	-0.260469	10.292413	3.325671	-0.069300	-2.452080	0.724809	0.108734	0.124051	-0.478066	-0.862694
51235	-0.612854	9.794586	4.250506	-0.169214	-1.621412	0.756530	0.107700	0.130295	-0.464120	-0.869492
51236	0.450395	7.540990	4.639485	-1.488206	-0.753838	-1.106189	0.108389	0.135595	-0.448952	-0.876532
51237	0.837843	6.144733	4.561207	-1.954165	-0.355437	-2.375095	0.110337	0.141756	-0.442681	-0.878501
51238	0.970445	7.664263	4.165843	-1.868998	-1.642559	-1.395695	0.112446	0.144324	-0.442181	-0.878068
51239	1.594779	9.300512	3.736726	-2.173476	-3.121399	-0.403186	0.118152	0.146993	-0.442733	-0.876596
51240	0.735825	10.085518	3.853372	-1.323851	-3.125641	0.462705	0.127666	0.151753	-0.448151	-0.871684
51241	-0.250023	10.549167	2.585254	0.158969	-3.748499	0.382643	0.137846	0.154092	-0.460117	-0.863451
51242	1.758945	10.835498	1.990789	-1.278597	-4.898859	0.128451	0.153771	0.158051	-0.464497	-0.857681
51243	3.289195	11.327568	0.966984	-1.895733	-6.454801	-0.076277	0.176259	0.165455	-0.467457	-0.850319
51244	3.262970	11.917525	-0.281809	-0.784380	-7.570327	-0.075988	0.204657	0.174463	-0.468009	-0.841811
51245	2.874180	10.511926	-0.488309	-0.042081	-6.738616	-1.236084	0.239147	0.184854	-0.466743	-0.831137
51246	0.162077	14.152346	4.833806	0.533461	-2.751748	4.876877	0.273753	0.196250	-0.476810	-0.811910
51247	-1.663760	14.174779	11.252843	-1.691809	3.047941	8.024526	0.315501	0.209132	-0.470596	-0.797034
51248	-5.903789	8.017550	11.327270	-1.020518	8.312117	2.727040	0.360176	0.232063	-0.462048	-0.776487
51249	-8.183819	6.170858	8.224287	1.137960	9.173458	-0.475992	0.387559	0.246043	-0.471080	-0.753223
51250	-5.348517	6.819777	5.375129	1.321395	5.617467	-1.405309	0.403254	0.250851	-0.483087	-0.735586
51251	-4.785088	10.650934	7.130209	0.653170	5.577813	2.662049	0.420174	0.262235	-0.486940	-0.719427
51252	-7.063047	10.335377	9.531465	-0.304683	8.694407	3.296427	0.449170	0.262242	-0.458214	-0.720774
51253	-6.330716	5.986068	-4.861967	9.187003	2.641415	-6.957022	0.467237	0.253342	-0.441296	-0.723025
51254	-3.135727	10.857772	3.238778	3.618104	2.397842	1.112757	0.471310	0.252518	-0.450775	-0.714775
51255	5.640942	18.006881	15.039902	-6.141247	-1.807281	13.452457	0.483167	0.253873	-0.442573	-0.711496
51256	-8.303663	16.278900	9.480793	3.605030	8.508831	8.581194	0.511855	0.257523	-0.397105	-0.716934
51257	-12.756730	-1.641117	0.850067	2.515614	12.590903	-10.926995	0.534763	0.248187	-0.349894	-0.728015
51258	-2.426853	-6.472805	8.666039	-9.518970	5.662760	-9.361240	0.533571	0.233713	-0.349968	-0.733623
51259	1.924436	2.187997	4.348796	-2.490306	-1.043857	-5.328512	0.526893	0.241141	-0.367265	-0.727565
51260	-0.989528	12.267644	7.783875	1.399928	0.918088	4.651942	0.529567	0.264685	-0.370801	-0.715547
51261	-4.353284	11.715477	9.139677	0.736737	4.383947	5.018691	0.537837	0.270325	-0.358396	-0.713589
51262	-0.105153	2.735546	5.241804	-2.369384	0.807503	-4.455480	0.541901	0.253637	-0.349152	-0.721183
51263	1.080670	-1.517492	1.903175	-2.637379	-0.369892	-9.807214	0.544898	0.258142	-0.345596	-0.719036
51264	-2.212467	3.630099	5.899468	-1.763313	2.733075	-3.309352	0.546169	0.271963	-0.346141	-0.712686
51265	-1.656956	4.669825	3.377483	0.519504	1.498588	-4.029592	0.544597	0.275336	-0.349496	-0.710955
51266	-0.408132	7.231612	3.678377	1.342633	-0.068032	-1.801205	0.543694	0.284535	-0.352503	-0.706526
51267	-2.258143	10.893047	6.791903	1.193731	1.642998	3.061954	0.543851	0.296383	-0.350921	-0.702309
51268	-4.334626	12.216593	8.045875	1.226799	3.529191	4.979476	0.542835	0.300969	-0.348875	-0.702164
51269	-3.123368	10.656086	7.418753	0.613463	2.439982	3.302751	0.540501	0.297487	-0.348187	-0.705780
51270	-0.281601	9.612690	6.664768	0.063762	-0.255797	1.884841	0.537316	0.291838	-0.349582	-0.709869
51271	1.843164	8.678247	4.629336	0.685857	-2.469256	-0.139419	0.535128	0.286422	-0.351648	-0.712702
51272	1.295770	7.571520	4.707002	0.171580	-1.706636	-0.968438	0.536151	0.286467	-0.350843	-0.712312
51273	-2.085454	7.742257	5.783683	0.276925	1.716709	-0.080334	0.537562	0.289324	-0.349510	-0.710747
51274	-3.111184	8.863106	6.370193	0.649137	2.596297	1.216866	0.537102	0.291616	-0.350018	-0.709907
51275	-3.642291	10.361020	6.610349	1.384822	2.865472	2.604436	0.535856	0.292517	-0.349904	-0.710535
51276	-3.229827	9.452294	5.829850	1.437256	2.468668	1.394636	0.534274	0.288937	-0.349321	-0.713471
51277	-2.027218	8.387419	5.642995	0.779611	1.460435	0.363767	0.533264	0.284372	-0.347852	-0.716771
51278	-2.975333	7.485559	5.539885	0.701390	2.517763	-0.392240	0.532550	0.280658	-0.346577	-0.719379
51279	-3.029388	6.934267	5.489496	0.529030	2.671846	-0.869727	0.531466	0.276043	-0.346525	-0.721987
51280	-2.741433	6.223191	5.153948	0.376954	2.487570	-1.659393	0.530454	0.271729	-0.347267	-0.724008
51281	-2.875761	6.107001	5.335209	0.266561	2.707454	-1.650074	0.530015	0.268182	-0.348302	-0.725154
51282	-3.549595	5.824051	4.740340	0.798376	3.317416	-2.239908	0.529458	0.264305	-0.350633	-0.725860
51283	-3.571865	5.390914	4.927321	0.453393	3.514121	-2.495338	0.528847	0.260257	-0.353465	-0.726395
51284	-4.009631	6.071485	5.931858	0.245215	4.101265	-1.371956	0.528265	0.257500	-0.357385	-0.725883
51285	-4.010613	6.915844	6.375050	0.400110	4.138052	-0.470811	0.527132	0.254912	-0.362728	-0.724970
51286	-4.223357	7.686052	6.721988	0.629478	4.390701	0.307668	0.526299	0.252941	-0.368197	-0.723507
51287	-4.660458	8.123577	7.793848	0.174399	5.122832	1.240868	0.525399	0.251124	-0.373770	-0.721934
51288	-5.710982	10.283991	9.935533	0.011116	6.458832	4.164811	0.523256	0.252778	-0.380359	-0.719468
51289	-8.375883	15.431905	12.469580	1.585306	8.978218	9.697856	0.518695	0.255401	-0.387784	-0.717878
51290	-8.731308	18.768258	12.604098	3.346590	8.940815	12.462986	0.511845	0.250083	-0.394049	-0.721248
51291	-6.386905	18.110407	10.802702	3.781339	6.383756	10.933841	0.503627	0.240280	-0.398968	-0.727633
51292	-5.030766	16.658659	9.591543	3.711709	4.962557	9.066020	0.494691	0.231069	-0.401063	-0.735552
51293	-5.010016	13.717507	8.730500	3.112582	5.074927	6.125731	0.484942	0.219399	-0.400283	-0.745968
51294	-3.097769	9.518576	6.868287	1.759254	3.382358	1.712175	0.473231	0.203121	-0.397921	-0.759245
51295	0.320724	4.961235	3.990732	-0.056639	0.167129	-3.440282	0.459755	0.183141	-0.391843	-0.775592
51296	4.256508	2.841786	2.922700	-2.470664	-3.107484	-5.456701	0.445287	0.167236	-0.385910	-0.790459
51297	4.313347	5.281298	4.506810	-2.144808	-3.116704	-2.567443	0.430369	0.159611	-0.385664	-0.800356
51298	2.499652	9.922466	6.535147	0.229913	-2.208554	2.123838	0.415677	0.152753	-0.386563	-0.808979
51299	1.911409	10.333638	6.122998	1.055364	-2.179062	2.106412	0.400655	0.140242	-0.384284	-0.819838
51300	3.626682	7.335273	4.953473	-0.979576	-3.030769	-0.793231	0.385149	0.124742	-0.380048	-0.831663
51301	4.923463	5.634494	4.802418	-2.690183	-3.349685	-2.028521	0.369773	0.112171	-0.377418	-0.841571
51302	3.842177	5.500895	5.334913	-2.287571	-2.166556	-1.840477	0.354962	0.102573	-0.376775	-0.849424
51303	2.424208	5.881370	4.516366	-0.723359	-1.793241	-2.254531	0.340916	0.094486	-0.377979	-0.855559
51304	2.014676	5.312085	3.574100	-0.336046	-1.774227	-3.348135	0.328086	0.085935	-0.379504	-0.860785
51305	1.370252	3.575412	2.206611	-0.178136	-1.296911	-5.591737	0.316087	0.077788	-0.383128	-0.864437
51306	1.749631	3.167267	3.335067	-1.127956	-0.569550	-5.056839	0.303638	0.070233	-0.389202	-0.866829
51307	3.222582	3.877691	2.883892	-1.857457	-1.981608	-4.678476	0.291347	0.064598	-0.394856	-0.868926
51308	3.779140	5.937166	2.699133	-1.421949	-3.366044	-3.220105	0.278858	0.061466	-0.401865	-0.870037
51309	3.364739	6.439310	3.069911	-1.119769	-3.071892	-2.635056	0.266463	0.059143	-0.405355	-0.872460
51310	2.370072	6.519781	3.438405	-0.495347	-2.288817	-2.432892	0.253043	0.057215	-0.410768	-0.874051
51311	1.862657	7.376296	4.429764	-0.168640	-1.762657	-1.189174	0.239092	0.055952	-0.413810	-0.876622
51312	2.075525	7.502450	4.024895	-0.341237	-2.176367	-1.331023	0.224265	0.055315	-0.418241	-0.878476
51313	2.245681	10.074842	5.176108	-0.149689	-2.764350	1.397464	0.208837	0.055336	-0.424181	-0.879429
51314	2.620922	11.145641	5.185014	-0.401208	-3.401994	2.280209	0.192814	0.053122	-0.429666	-0.880561
51315	3.477348	11.348539	5.033437	-1.330528	-3.823138	2.427539	0.177003	0.049321	-0.435693	-0.881141
51316	3.147690	9.963936	7.610653	-2.195937	-0.889800	2.895382	0.163016	0.045496	-0.436648	-0.883569
51317	3.790101	8.923168	4.696995	-2.503132	-2.658716	0.322062	0.151310	0.043017	-0.438713	-0.884752
51318	3.285307	8.427431	2.256572	-1.737176	-3.999504	-1.573085	0.141782	0.040573	-0.442991	-0.884314
51319	2.727975	8.005400	1.169765	-1.190397	-4.323281	-2.547301	0.132736	0.036963	-0.450617	-0.882020
51320	2.625722	8.426784	2.245396	-1.321073	-3.500512	-1.509533	0.122496	0.031600	-0.461591	-0.878026
51321	2.175400	10.087770	8.354733	-1.715480	0.869915	3.324744	0.112273	0.027634	-0.469185	-0.875498
51322	2.863408	8.562852	6.216286	-2.340182	-0.095790	0.896093	0.103000	0.024646	-0.468318	-0.877190
51323	2.947684	7.139369	3.097147	-2.247553	-1.886258	-2.025407	0.095636	0.024317	-0.468443	-0.877965
51324	2.912752	6.946296	3.072820	-2.308503	-1.756765	-2.212599	0.089512	0.024421	-0.470540	-0.877487
51325	2.722140	8.252900	3.429780	-2.062378	-2.050935	-0.934468	0.083667	0.023822	-0.474803	-0.875782
51326	1.060199	11.415062	8.156538	-0.686283	0.532084	4.230196	0.077673	0.022205	-0.474667	-0.876450
51327	1.399225	10.032774	5.644015	-0.928341	-0.932427	1.708454	0.072588	0.022434	-0.470370	-0.879193
51328	1.143385	7.518676	4.643747	-0.893145	-0.449989	-0.958246	0.068756	0.025057	-0.466801	-0.881329
51329	0.886990	6.921426	5.357505	-0.841928	0.461860	-1.067786	0.065586	0.027214	-0.466499	-0.881667
51330	0.843947	7.424361	5.416113	-0.814898	0.239163	-0.623227	0.063224	0.029095	-0.467036	-0.881495
51331	0.812135	7.875219	5.481972	-0.803719	0.062826	-0.216829	0.061581	0.031095	-0.468002	-0.881031
51332	0.611579	8.193299	5.045378	-0.579043	-0.427947	-0.198045	0.060301	0.033335	-0.468721	-0.880655
51333	0.392140	8.544655	5.113571	-0.399928	-0.526839	0.130938	0.059032	0.036157	-0.468945	-0.880510
51334	-0.462295	8.491113	5.290709	0.353914	-0.230323	0.193590	0.057650	0.039444	-0.469091	-0.880383
51335	-1.516318	8.642762	5.798498	1.275100	0.259706	0.624050	0.055831	0.041777	-0.469762	-0.880035
51336	-1.938105	8.962489	5.630632	1.677624	0.014565	0.816123	0.054383	0.043606	-0.470268	-0.879766
51337	-1.075017	8.941357	4.953095	0.869663	-0.655850	0.407396	0.053735	0.045301	-0.469901	-0.879917
51338	-0.540636	9.145762	4.529066	0.368895	-1.197731	0.330235	0.053927	0.048040	-0.469927	-0.879746
51339	-0.511553	9.423381	4.752894	0.275001	-1.175527	0.684649	0.055104	0.051823	-0.469343	-0.879770
51340	-1.606191	9.047907	5.154739	1.227241	-0.481163	0.640921	0.056658	0.055702	-0.469022	-0.879605
51341	-2.666763	9.003794	5.573444	2.162001	0.060045	0.890827	0.057526	0.058003	-0.469293	-0.879256
51342	-2.557938	8.757056	5.692130	2.002398	0.289810	0.748364	0.057286	0.058253	-0.469926	-0.878916
51343	-1.890278	8.209347	5.692517	1.316398	0.495017	0.256737	0.056593	0.057759	-0.470483	-0.878696
51344	-1.326546	7.670809	5.613464	0.753853	0.647303	-0.266762	0.055867	0.056959	-0.471288	-0.878363
51345	-1.275114	7.828181	5.367035	0.755451	0.364968	-0.272904	0.055100	0.056153	-0.472051	-0.878054
51346	-1.180874	7.729560	5.350901	0.667380	0.406848	-0.370137	0.053894	0.055067	-0.473071	-0.877648
51347	-1.274444	7.994607	5.075712	0.816303	0.077520	-0.292797	0.052529	0.054173	-0.475004	-0.876742
51348	-1.533973	8.105278	5.150861	1.062552	0.157028	-0.146966	0.051301	0.053734	-0.477023	-0.875746
51349	-1.410092	8.389434	4.964692	0.972731	-0.124123	-0.011804	0.049885	0.053005	-0.479401	-0.874572
51350	-1.164958	8.466093	4.788977	0.752117	-0.301507	-0.050033	0.048855	0.052708	-0.481436	-0.873530
51351	-1.091136	8.647179	4.847313	0.673195	-0.318166	0.132471	0.048228	0.052115	-0.483207	-0.872622
51352	-1.140170	8.803945	4.595774	0.763790	-0.573835	0.138085	0.048366	0.052039	-0.484247	-0.872042
51353	-1.366394	8.828154	4.441052	1.012573	-0.666523	0.089671	0.048781	0.052063	-0.484791	-0.871715
51354	-1.426080	8.856006	4.557556	1.060146	-0.565020	0.176843	0.049193	0.051989	-0.484964	-0.871600
51355	-1.435224	9.006069	4.658012	1.067062	-0.553904	0.356914	0.049520	0.051679	-0.484967	-0.871598
51356	-1.342711	8.879577	4.731376	0.971385	-0.440906	0.281751	0.049798	0.051127	-0.484758	-0.871732
51357	-1.418973	8.664150	4.890312	1.028338	-0.183857	0.182553	0.050666	0.050968	-0.484852	-0.871639
51358	-1.318627	8.546768	4.629835	0.973779	-0.344722	-0.057982	0.052087	0.051006	-0.485482	-0.871202
51359	-1.427268	8.942133	4.680080	1.104775	-0.469628	0.309607	0.053990	0.051101	-0.486278	-0.870636
51360	-1.595925	9.208156	4.504411	1.327642	-0.705666	0.452114	0.056163	0.051244	-0.486923	-0.870129
51361	-1.653217	9.063935	4.706377	1.368213	-0.429827	0.433346	0.058316	0.051301	-0.487445	-0.869692
51362	-1.815372	8.832446	4.931004	1.503577	-0.073972	0.353736	0.060492	0.051289	-0.488049	-0.869205
51363	-1.596365	8.888555	4.863313	1.324125	-0.175100	0.357002	0.062430	0.050912	-0.488399	-0.868894
51364	-1.500446	9.008626	4.943059	1.247125	-0.171597	0.495353	0.064240	0.050802	-0.488529	-0.868696
51365	-1.386875	8.788025	5.308039	1.085054	0.237256	0.487527	0.065682	0.050447	-0.488472	-0.868641
51366	-1.167251	8.337175	5.405245	0.841054	0.521648	0.142618	0.067104	0.050385	-0.488941	-0.868272
51367	-1.158320	8.168040	5.163764	0.875459	0.421940	-0.128757	0.068320	0.049751	-0.489872	-0.867688
51368	-0.640666	8.525663	4.991921	0.438297	0.037813	0.077862	0.069115	0.048748	-0.491399	-0.866818
51369	-0.311932	8.658280	5.136703	0.121344	0.076078	0.258467	0.069478	0.047708	-0.493087	-0.865888
51370	-0.094148	8.981288	5.120630	-0.049976	-0.097036	0.525649	0.069406	0.046588	-0.494637	-0.865070
51371	-0.128681	9.147459	4.870900	0.043355	-0.353585	0.545463	0.069419	0.046408	-0.495788	-0.864420
51372	0.007722	9.078018	5.263208	-0.158111	0.019283	0.679519	0.069133	0.046340	-0.496916	-0.863798
51373	0.114958	8.467988	5.344061	-0.326828	0.390066	0.188314	0.068861	0.046632	-0.497523	-0.863455
51374	0.217718	8.192902	5.255615	-0.443756	0.448396	-0.097004	0.068424	0.046913	-0.498434	-0.862949
51375	0.137326	8.148222	5.176212	-0.367754	0.438136	-0.175350	0.067680	0.047240	-0.499611	-0.862309
51376	0.278883	8.101953	5.000479	-0.496351	0.314233	-0.305900	0.066370	0.047089	-0.501067	-0.861574
51377	0.556396	8.316599	4.903523	-0.752385	0.113314	-0.172101	0.064588	0.046594	-0.502561	-0.860866
51378	0.837372	8.361635	4.667916	-1.003056	-0.123167	-0.253076	0.062536	0.045965	-0.504039	-0.860187
51379	1.028352	8.611643	4.708273	-1.196652	-0.206656	-0.019273	0.060586	0.045614	-0.505255	-0.859631
51380	0.908953	8.955133	4.887111	-1.103091	-0.175427	0.368512	0.058863	0.045673	-0.505860	-0.859392
51381	0.448688	9.281932	4.974887	-0.665415	-0.177660	0.705425	0.057240	0.046039	-0.505939	-0.859436
51382	0.213018	9.320574	5.066744	-0.466119	-0.083017	0.787604	0.055325	0.046055	-0.505847	-0.859615
51383	0.427991	9.028723	5.053367	-0.707575	0.014858	0.518654	0.053356	0.045599	-0.506154	-0.859582
51384	0.693240	8.444800	4.670535	-0.951889	-0.064039	-0.184661	0.051705	0.044786	-0.506884	-0.859296
51385	0.900819	8.293057	4.266061	-1.111363	-0.349410	-0.516007	0.050574	0.043947	-0.508061	-0.858711
51386	0.898693	8.508296	4.137590	-1.081524	-0.537833	-0.386162	0.049715	0.043057	-0.509014	-0.858242
51387	1.003978	8.455012	3.814194	-1.142035	-0.793011	-0.587171	0.048978	0.042201	-0.509325	-0.858142
51388	1.075768	8.535319	3.859698	-1.212325	-0.798311	-0.496079	0.048594	0.041802	-0.509095	-0.858320
51389	1.341148	8.447795	3.803679	-1.469558	-0.853767	-0.607073	0.048649	0.041790	-0.508035	-0.858945
51390	1.258158	8.261225	3.809283	-1.395040	-0.780664	-0.769141	0.049498	0.042637	-0.506284	-0.859888
51391	1.129688	8.326798	4.159813	-1.311067	-0.539583	-0.544167	0.051004	0.043922	-0.503708	-0.861248
51392	0.903977	8.310087	4.368290	-1.119947	-0.387142	-0.455762	0.053495	0.046281	-0.500499	-0.862843
51393	0.406170	8.450314	4.875914	-0.700979	-0.039573	-0.073418	0.056894	0.049387	-0.495733	-0.865201
51394	-0.190064	9.208363	5.550703	-0.192437	0.133914	0.938316	0.060786	0.053349	-0.490613	-0.867616
51395	-0.690363	9.784926	6.089525	0.216038	0.257211	1.728089	0.064234	0.057424	-0.485789	-0.869819
51396	-1.064207	9.316607	5.967982	0.544792	0.353465	1.283526	0.067171	0.060975	-0.481784	-0.871582
51397	-1.215938	8.699407	5.868595	0.648001	0.548987	0.717130	0.069933	0.063832	-0.479372	-0.872489
51398	-1.072822	8.543094	5.786878	0.496183	0.501545	0.537461	0.072287	0.065633	-0.478193	-0.872810
51399	-0.797640	8.202510	5.433227	0.268732	0.327501	0.049254	0.074238	0.066405	-0.478221	-0.872573
51400	-0.711010	8.278262	5.325815	0.215407	0.200284	0.052041	0.076021	0.066678	-0.479452	-0.871723
51401	-0.551670	8.543332	4.959657	0.159672	-0.242367	0.077041	0.077308	0.066443	-0.480673	-0.870955
51402	-0.438205	8.813227	4.402874	0.186833	-0.841704	0.011104	0.078177	0.066437	-0.481524	-0.870407
51403	-0.076945	8.934730	3.847201	-0.044498	-1.434358	-0.190998	0.079136	0.067155	-0.480982	-0.870565
51404	0.219059	9.514384	4.147067	-0.353748	-1.577788	0.441818	0.080683	0.068997	-0.478876	-0.871440
51405	0.183119	9.984592	4.672712	-0.395803	-1.462325	1.108106	0.082927	0.071554	-0.474355	-0.873493
51406	-0.035764	9.676768	4.750815	-0.224462	-1.323437	0.883448	0.085556	0.074453	-0.467604	-0.876632
51407	-0.561343	9.260183	5.163158	0.165694	-0.807425	0.772335	0.087939	0.076913	-0.460586	-0.879893
51408	-0.748548	8.869948	5.018094	0.354644	-0.824961	0.366166	0.089698	0.078374	-0.453327	-0.883350
51409	-0.536527	8.847326	4.858099	0.197224	-1.145484	0.227785	0.090953	0.079377	-0.446279	-0.886714
51410	-0.483502	8.999662	4.872393	0.172754	-1.398625	0.335187	0.091822	0.080183	-0.438557	-0.890397
51411	-0.317500	9.203133	4.963276	0.030988	-1.676479	0.512885	0.092234	0.080490	-0.429617	-0.894675
51412	-0.314688	9.048549	4.868934	0.062917	-1.871286	0.295301	0.091911	0.080157	-0.419233	-0.899650
51413	-0.273522	8.827272	4.603625	0.091989	-2.181727	-0.095962	0.090830	0.079440	-0.407344	-0.905268
51414	-0.444693	8.610968	4.334803	0.328549	-2.461732	-0.487341	0.089196	0.078172	-0.393908	-0.911466
51415	-0.171000	8.090850	4.289400	0.055619	-2.490618	-0.999285	0.087326	0.076655	-0.378763	-0.918170
51416	-0.012902	7.562607	4.516634	-0.166238	-2.295479	-1.310423	0.085585	0.075646	-0.362734	-0.924866
51417	0.001106	7.117142	4.265555	-0.144437	-2.438440	-1.883383	0.084239	0.075214	-0.345408	-0.931633
51418	0.011776	7.072945	4.468503	-0.175198	-2.579286	-1.856427	0.083219	0.075340	-0.327281	-0.938235
51419	0.252351	6.635584	4.455451	-0.425470	-2.615581	-2.268575	0.082455	0.075316	-0.307004	-0.945133
51420	0.165569	5.643818	4.807507	-0.492471	-1.926569	-2.669218	0.082395	0.076493	-0.286057	-0.951594
51421	-0.347422	4.770865	5.210545	-0.151892	-1.202143	-2.844532	0.082587	0.077957	-0.264752	-0.957605
51422	-0.559634	4.551238	5.332996	0.024079	-1.215980	-2.885858	0.082287	0.078673	-0.243947	-0.963083
51423	-0.580429	4.229204	5.344943	0.028265	-1.223336	-3.083156	0.081392	0.078643	-0.222679	-0.968300
51424	-0.479462	3.606256	5.566847	-0.164817	-0.893294	-3.225424	0.080398	0.079135	-0.200623	-0.973152
51425	-0.782481	2.702146	5.791648	-0.006881	-0.227843	-3.378573	0.079508	0.079984	-0.178175	-0.977515
51426	-0.948192	2.012043	5.931542	0.051332	0.194240	-3.481564	0.078669	0.081509	-0.155562	-0.981309
51427	-0.973374	1.784749	6.632548	-0.082910	0.319767	-2.884032	0.077605	0.083241	-0.133488	-0.984494
51428	-1.152716	1.245499	7.131701	-0.076456	0.668854	-2.513474	0.076433	0.085582	-0.110862	-0.987190
51429	-1.377001	0.664818	7.559026	-0.028789	1.011807	-2.167970	0.075047	0.088442	-0.087989	-0.989345
51430	-1.505717	0.317284	8.118733	-0.076344	1.096354	-1.623580	0.073505	0.091316	-0.065002	-0.990976
51431	-1.649252	-0.200549	8.507986	-0.101952	1.290826	-1.241995	0.071900	0.094089	-0.042795	-0.992041
51432	-1.974262	-0.767462	8.534866	0.106705	1.520973	-1.152798	0.070405	0.097333	-0.021367	-0.992529
51433	-2.464106	-0.923554	8.745201	0.482543	1.375181	-0.797879	0.068887	0.100962	-0.000465	-0.992502
51434	-2.449544	-1.335188	9.189447	0.282624	1.384476	-0.314365	0.067273	0.104232	0.020658	-0.992060
51435	-2.370424	-2.338436	9.668763	-0.071415	1.930603	0.228441	0.065420	0.107716	0.041373	-0.991164
51436	-2.800175	-3.130541	10.229318	0.068203	2.286035	1.005485	0.063376	0.111358	0.061147	-0.989871
51437	-3.183668	-3.580955	10.462453	0.283122	2.315082	1.455264	0.061151	0.114068	0.079406	-0.988405
51438	-3.053562	-3.785537	10.685430	0.055813	2.058098	1.745017	0.058897	0.115808	0.096235	-0.986843
51439	-3.023576	-4.069410	10.875730	-0.067925	1.905698	2.033612	0.056732	0.117350	0.112052	-0.985117
51440	-2.941041	-4.319195	11.231080	-0.272066	1.682634	2.456185	0.054870	0.118591	0.126949	-0.983265
51441	-3.062659	-4.978397	11.472281	-0.313710	1.896005	2.918096	0.053333	0.120131	0.141014	-0.981244
51442	-3.433480	-5.373672	11.699288	-0.089125	1.880679	3.377591	0.052029	0.122080	0.153717	-0.979163
51443	-3.766445	-5.944578	11.688037	0.115537	2.118886	3.664061	0.050863	0.124323	0.164975	-0.977108
51444	-3.853505	-6.301566	11.902478	0.063095	2.101853	4.036518	0.049752	0.125841	0.174165	-0.975374
51445	-3.450374	-6.415284	11.889857	-0.363000	1.955383	3.988419	0.048704	0.127066	0.181529	-0.973925
51446	-3.642663	-6.227964	12.176272	-0.241393	1.498174	4.259020	0.047907	0.128179	0.187224	-0.972739
51447	-4.133778	-6.536089	12.255067	0.143175	1.624251	4.586441	0.047416	0.129423	0.191792	-0.971708
51448	-4.151445	-6.871969	12.440451	0.049961	1.757311	4.888745	0.047298	0.129760	0.194390	-0.971153
51449	-3.797415	-6.695413	12.249478	-0.222452	1.602887	4.563676	0.047398	0.129645	0.195224	-0.970996
51450	-3.914235	-6.515181	12.165826	-0.056790	1.474769	4.456086	0.047787	0.129028	0.194414	-0.971222
51451	-3.957914	-6.428409	11.824155	0.097397	1.576799	4.126606	0.048528	0.127883	0.192040	-0.971808
51452	-3.680279	-6.158180	11.724243	-0.076039	1.445890	3.855813	0.049434	0.126085	0.188149	-0.972758
51453	-3.313924	-5.929560	11.386715	-0.278632	1.468262	3.361678	0.050185	0.124273	0.183203	-0.973897
51454	-3.337893	-5.618724	11.512347	-0.202027	1.285824	3.361118	0.050785	0.122546	0.177170	-0.975200
51455	-3.071001	-5.608852	11.155459	-0.339470	1.562434	2.945649	0.051389	0.120745	0.170229	-0.976628
51456	-2.862306	-5.252351	11.268376	-0.480155	1.386811	2.860028	0.052047	0.119010	0.161196	-0.978337
51457	-2.641350	-4.755968	11.160288	-0.562741	1.185672	2.533153	0.053043	0.116815	0.151069	-0.980163
51458	-2.632476	-4.870529	10.817056	-0.470151	1.664313	2.214911	0.054311	0.114403	0.139971	-0.982024
51459	-2.499560	-4.466986	10.894049	-0.518320	1.548630	2.112322	0.055501	0.112025	0.126503	-0.984056
51460	-2.339207	-4.038291	11.227378	-0.654199	1.364685	2.251075	0.056883	0.110342	0.113260	-0.985779
51461	-2.413404	-4.045451	11.078488	-0.541047	1.740665	2.086518	0.058483	0.109550	0.099544	-0.987253
51462	-2.489544	-3.499824	10.920925	-0.362723	1.587414	1.808476	0.060102	0.108873	0.084750	-0.988611
51463	-2.474915	-3.159505	10.651806	-0.270646	1.653791	1.445611	0.061711	0.107420	0.068944	-0.989899
51464	-2.380085	-2.642879	10.477313	-0.238872	1.526281	1.142921	0.063295	0.105376	0.052221	-0.991041
51465	-2.250015	-2.262527	10.190572	-0.235023	1.538098	0.751248	0.064869	0.103582	0.034918	-0.991889
51466	-2.148380	-1.967747	9.824697	-0.212564	1.633316	0.301037	0.066176	0.102670	0.016576	-0.992373
51467	-2.393072	-1.317995	9.775971	0.116861	1.404876	0.238835	0.067331	0.101757	-0.002891	-0.992524
51468	-2.063052	-0.848012	9.283030	-0.036609	1.280862	-0.352462	0.068441	0.100021	-0.022757	-0.992368
51469	-1.825280	-0.317814	8.756757	-0.082840	1.081729	-0.928754	0.069411	0.098459	-0.044011	-0.991741
51470	-1.853652	0.268765	8.424836	0.088613	0.855111	-1.225745	0.070403	0.097168	-0.065433	-0.990616
51471	-1.802971	0.873208	8.000372	0.195625	0.566431	-1.587770	0.071297	0.096360	-0.087169	-0.988956
51472	-1.797887	1.448576	7.686395	0.315025	0.308281	-1.799770	0.072080	0.095409	-0.109013	-0.986822
51473	-1.624948	1.903359	7.516190	0.228738	0.156476	-1.896294	0.072745	0.094049	-0.131009	-0.984225
51474	-1.566954	2.259366	7.254569	0.265280	0.089490	-2.060235	0.073244	0.092294	-0.153077	-0.981165
51475	-1.376789	2.632944	6.961299	0.185386	-0.036852	-2.246837	0.073507	0.090116	-0.175435	-0.977598
51476	-1.139425	3.214834	6.518922	0.112139	-0.426341	-2.469256	0.073537	0.087963	-0.197961	-0.973482
51477	-0.983754	3.844327	6.225296	0.083975	-0.802560	-2.475086	0.073375	0.086189	-0.220234	-0.968857
51478	-0.942336	4.263792	6.025434	0.116429	-0.936862	-2.432078	0.073185	0.084779	-0.241910	-0.963813
