// General information: 
//  MT Manager version: 2021.0.0 
//  XDA version: 2021.0.0 build 5908 rev 109668 built on 2021-04-19
// Device information: 
//  DeviceId: 00B43DF3
//  ProductCode: MTW2-3A7G6
//  Firmware Version: 4.3.5
//  Hardware Version: 1.1.0
// Device settings: 
//  Filter Profile: human(46.1)
//  Option Flags: Orientation Smoother Disabled, Position/Velocity Smoother Disabled, Continuous Zero Rotation Update Disabled, AHS Disabled, ICC Disabled
// Coordinate system: ENU
PacketCounter	Acc_X	Acc_Y	Acc_Z	FreeAcc_E	FreeAcc_N	FreeAcc_U	Quat_q0	Quat_q1	Quat_q2	Quat_q3
50291	9.743187	0.538707	0.102700	-0.070280	0.066648	-0.054560	-0.488396	0.479902	0.522439	0.508154
50292	9.740211	0.522903	0.075400	-0.084772	0.037644	-0.058600	-0.488441	0.479876	0.522420	0.508155
50293	9.758395	0.564339	0.097354	-0.044647	0.059841	-0.037788	-0.488479	0.479880	0.522372	0.508165
50294	9.724388	0.576773	0.058119	-0.028098	0.020315	-0.071098	-0.488487	0.479921	0.522291	0.508202
50295	9.741102	0.591987	0.093463	-0.014205	0.055212	-0.053333	-0.488468	0.479978	0.522202	0.508257
50296	9.785063	0.610978	0.138848	0.001338	0.100155	-0.008097	-0.488429	0.480050	0.522099	0.508333
50297	9.816283	0.594646	0.019187	-0.012664	-0.021147	0.021578	-0.488396	0.480123	0.521966	0.508432
50298	9.741334	0.527714	0.077585	-0.075940	0.033908	-0.057116	-0.488329	0.480216	0.521765	0.508614
50299	9.728509	0.537760	0.068357	-0.064365	0.022979	-0.069326	-0.488276	0.480298	0.521597	0.508760
50300	9.731541	0.551457	0.099668	-0.051302	0.052860	-0.065303	-0.488213	0.480384	0.521431	0.508909
50301	9.749753	0.532845	0.101360	-0.070785	0.052454	-0.048256	-0.488127	0.480476	0.521286	0.509054
50302	9.752811	0.486332	0.110461	-0.117321	0.059709	-0.048020	-0.488078	0.480554	0.521217	0.509098
50303	9.754417	0.511016	0.097316	-0.091804	0.047465	-0.044956	-0.488026	0.480645	0.521150	0.509131
50304	9.760577	0.576169	0.100247	-0.026298	0.051976	-0.034779	-0.488020	0.480714	0.521054	0.509168
50305	9.758346	0.535188	0.121696	-0.066353	0.071445	-0.039405	-0.488022	0.480783	0.520930	0.509229
50306	9.756859	0.507387	0.136899	-0.093300	0.084575	-0.042497	-0.488029	0.480823	0.520818	0.509300
50307	9.776012	0.538603	0.075669	-0.060988	0.023019	-0.021774	-0.488020	0.480861	0.520755	0.509337
50308	9.804903	0.566741	0.073698	-0.033844	0.020835	0.008777	-0.488062	0.480871	0.520698	0.509344
50309	9.790578	0.550216	0.076851	-0.048489	0.022599	-0.006506	-0.488107	0.480884	0.520627	0.509361
50310	9.761839	0.579361	0.103366	-0.017469	0.048295	-0.033259	-0.488154	0.480871	0.520525	0.509434
50311	9.745103	0.584636	0.148433	-0.011858	0.091707	-0.049373	-0.488179	0.480864	0.520458	0.509484
50312	9.730159	0.592988	0.102683	-0.000921	0.044989	-0.064039	-0.488177	0.480902	0.520366	0.509544
50313	9.752131	0.601758	0.126370	0.006459	0.067707	-0.041428	-0.488156	0.480948	0.520279	0.509610
50314	9.769536	0.569736	0.134029	-0.026154	0.073661	-0.025947	-0.488111	0.481030	0.520171	0.509686
50315	9.728745	0.563121	0.119258	-0.029293	0.059009	-0.067151	-0.488013	0.481157	0.520081	0.509751
50316	9.741854	0.527613	0.053467	-0.063205	-0.006614	-0.056617	-0.487908	0.481308	0.520020	0.509772
50317	9.780642	0.529708	0.032574	-0.062154	-0.026852	-0.017891	-0.487848	0.481410	0.519931	0.509824
50318	9.801831	0.525052	0.062446	-0.067898	0.002212	0.003159	-0.487802	0.481513	0.519774	0.509930
50319	9.803228	0.512237	0.107076	-0.081084	0.044797	0.004061	-0.487759	0.481580	0.519600	0.510086
50320	9.761582	0.492887	0.100785	-0.097320	0.036482	-0.038703	-0.487732	0.481628	0.519478	0.510191
50321	9.751689	0.457532	0.098926	-0.131540	0.032381	-0.050710	-0.487714	0.481670	0.519362	0.510286
50322	9.722946	0.486678	0.125141	-0.100498	0.058071	-0.077456	-0.487713	0.481734	0.519238	0.510353
50323	9.717695	0.491129	0.138499	-0.094719	0.070728	-0.082321	-0.487703	0.481820	0.519135	0.510385
50324	9.754871	0.466384	0.132009	-0.119902	0.063186	-0.046722	-0.487723	0.481893	0.519066	0.510369
50325	9.767764	0.452546	0.144554	-0.132926	0.075017	-0.034568	-0.487760	0.481956	0.518975	0.510366
50326	9.767011	0.437196	0.152649	-0.146756	0.081804	-0.036148	-0.487806	0.481980	0.518884	0.510391
50327	9.755564	0.435141	0.184951	-0.147618	0.113008	-0.047442	-0.487868	0.481976	0.518842	0.510379
50328	9.778383	0.456114	0.201385	-0.127136	0.129413	-0.023282	-0.487941	0.481978	0.518858	0.510292
50329	9.773576	0.498026	0.158208	-0.082679	0.087257	-0.025890	-0.487995	0.481996	0.518829	0.510252
50330	9.746426	0.492711	0.148659	-0.084973	0.077625	-0.053361	-0.488011	0.482033	0.518785	0.510246
50331	9.807141	0.504675	0.151303	-0.075884	0.079707	0.007979	-0.488059	0.482014	0.518781	0.510223
50332	9.838975	0.549436	0.053086	-0.030336	-0.018897	0.041695	-0.488160	0.481942	0.518760	0.510215
50333	9.797018	0.552660	0.124383	-0.025635	0.050211	0.000532	-0.488233	0.481901	0.518630	0.510316
50334	9.686394	0.511959	0.099957	-0.058873	0.022981	-0.112464	-0.488255	0.481883	0.518526	0.510417
50335	9.674179	0.558275	0.160948	-0.013252	0.083158	-0.121443	-0.488238	0.481898	0.518442	0.510506
50336	9.705560	0.566133	0.118369	-0.006404	0.039359	-0.089991	-0.488173	0.481957	0.518348	0.510608
50337	9.727258	0.515464	0.120543	-0.058630	0.039452	-0.071292	-0.488081	0.482019	0.518248	0.510737
50338	9.787736	0.468406	0.101647	-0.109149	0.018895	-0.013848	-0.487980	0.482109	0.518192	0.510807
50339	9.793100	0.461601	0.089287	-0.116345	0.007134	-0.009000	-0.487902	0.482164	0.518189	0.510832
50340	9.775354	0.454487	0.138119	-0.123824	0.056866	-0.026747	-0.487849	0.482198	0.518195	0.510844
50341	9.760901	0.439251	0.139209	-0.138425	0.058599	-0.042073	-0.487828	0.482216	0.518221	0.510822
50342	9.735439	0.461584	0.115320	-0.114468	0.036274	-0.066369	-0.487831	0.482182	0.518298	0.510773
50343	9.790788	0.481034	0.128381	-0.098952	0.050583	-0.009878	-0.487837	0.482168	0.518402	0.510674
50344	9.813940	0.480360	0.066494	-0.099380	-0.010456	0.012718	-0.487898	0.482146	0.518437	0.510601
50345	9.765441	0.500978	0.105263	-0.075702	0.028701	-0.034173	-0.487992	0.482124	0.518397	0.510572
50346	9.741232	0.510319	0.125492	-0.064214	0.048501	-0.057622	-0.488038	0.482129	0.518369	0.510553
50347	9.763188	0.518591	0.148663	-0.056889	0.071253	-0.035031	-0.488080	0.482126	0.518356	0.510528
50348	9.776586	0.543171	0.105961	-0.031237	0.028289	-0.020541	-0.488107	0.482164	0.518269	0.510555
50349	9.768410	0.533010	0.090360	-0.039204	0.011478	-0.029415	-0.488115	0.482235	0.518147	0.510605
50350	9.769651	0.519625	0.133988	-0.052392	0.054053	-0.028599	-0.488114	0.482280	0.518085	0.510626
50351	9.731783	0.443322	0.176203	-0.126822	0.094595	-0.070503	-0.488083	0.482309	0.518031	0.510683
50352	9.718183	0.441406	0.171018	-0.128297	0.089982	-0.084244	-0.488043	0.482302	0.518112	0.510645
50353	9.780679	0.480305	0.159248	-0.093086	0.079450	-0.019692	-0.488069	0.482301	0.518140	0.510593
50354	9.843223	0.517949	0.148769	-0.057884	0.068924	0.044865	-0.488165	0.482290	0.518099	0.510554
50355	9.884357	0.495975	0.216390	-0.081896	0.133007	0.085238	-0.488336	0.482212	0.517959	0.510606
50356	9.851504	0.436705	0.201655	-0.137216	0.112876	0.048952	-0.488529	0.482093	0.517842	0.510652
50357	10.026087	0.335868	0.070058	-0.243020	-0.027953	0.216285	-0.488825	0.481936	0.517694	0.510667
50358	10.375065	0.300604	0.004614	-0.293116	-0.109788	0.562010	-0.489565	0.481412	0.517368	0.510782
50359	10.451298	0.248936	0.342216	-0.351229	0.198210	0.639391	-0.490821	0.480447	0.516557	0.511306
50360	10.213919	0.100475	0.424805	-0.481651	0.241217	0.396346	-0.492320	0.479266	0.515646	0.511892
50361	10.131508	0.228259	0.433412	-0.342231	0.208186	0.322731	-0.494130	0.477865	0.514585	0.512527
50362	10.046209	0.495348	0.533870	-0.063460	0.262160	0.256256	-0.496077	0.476478	0.512931	0.513594
50363	9.867195	0.794945	0.468529	0.260591	0.147982	0.093009	-0.497630	0.475645	0.510578	0.515205
50364	10.149503	0.946814	0.726524	0.408587	0.329580	0.393225	-0.498790	0.475325	0.507342	0.517569
50365	10.184236	0.719030	0.922095	0.194598	0.439388	0.427155	-0.499644	0.475156	0.503475	0.520668
50366	9.901116	0.393807	1.020712	-0.102282	0.464356	0.137305	-0.500065	0.475021	0.499380	0.524319
50367	9.499445	0.089577	1.080873	-0.379048	0.466840	-0.270484	-0.499873	0.474997	0.495216	0.528456
50368	8.899663	-0.271687	1.222008	-0.709739	0.579064	-0.872234	-0.499274	0.474918	0.491284	0.532747
50369	8.544939	-0.459961	1.125714	-0.887712	0.457167	-1.239615	-0.498267	0.474775	0.488321	0.536528
50370	8.578401	-0.435989	0.943572	-0.883925	0.234390	-1.220074	-0.496901	0.474670	0.486202	0.539801
50371	8.706048	-0.407261	0.797206	-0.888003	0.053425	-1.106070	-0.495287	0.474588	0.484998	0.542433
50372	8.934690	-0.610387	0.516118	-1.139416	-0.248024	-0.918432	-0.493505	0.474580	0.484675	0.544349
50373	9.143384	-0.891306	0.318278	-1.469015	-0.444955	-0.749514	-0.491813	0.474537	0.485410	0.545262
50374	9.498880	-0.949230	0.057093	-1.588647	-0.709699	-0.426239	-0.490425	0.474343	0.487291	0.545004
50375	9.977442	-0.587558	-0.026284	-1.291121	-0.812929	0.064927	-0.489464	0.473971	0.489532	0.544183
50376	10.106330	-0.551872	0.332372	-1.278779	-0.439558	0.223466	-0.488881	0.473387	0.491218	0.543696
50377	10.319024	-0.564486	0.604691	-1.323407	-0.165809	0.453158	-0.488526	0.472594	0.492907	0.543176
50378	10.435405	-0.505290	0.613061	-1.298427	-0.149582	0.570976	-0.488114	0.471737	0.494867	0.542508
50379	10.710076	-0.251350	0.680265	-1.093648	-0.088204	0.865689	-0.487996	0.470525	0.497236	0.541500
50380	10.631675	0.631358	1.229331	-0.225857	0.464793	0.895967	-0.488381	0.469154	0.499348	0.540398
50381	10.170842	1.284649	1.324911	0.444642	0.599983	0.497211	-0.488951	0.468105	0.501232	0.539047
50382	9.846860	1.429695	1.266127	0.605503	0.582521	0.182400	-0.489491	0.467452	0.502749	0.537709
50383	9.344278	0.965276	0.964126	0.180700	0.339491	-0.377175	-0.489726	0.467309	0.503959	0.536484
50384	9.068765	0.940368	0.812854	0.177715	0.226997	-0.663678	-0.489884	0.467139	0.505165	0.535354
50385	8.871981	1.298311	0.764232	0.549075	0.208212	-0.832885	-0.489954	0.467031	0.506121	0.534479
50386	8.958820	1.674985	0.800360	0.915655	0.254390	-0.713047	-0.489721	0.467252	0.506683	0.533967
50387	9.380211	1.773752	0.645077	0.978792	0.088373	-0.295082	-0.489223	0.467712	0.507000	0.533720
50388	9.695266	1.774699	0.505898	0.951476	-0.056677	0.010507	-0.488468	0.468244	0.507112	0.533839
50389	10.016731	1.697952	0.305721	0.844354	-0.266056	0.312908	-0.487625	0.468875	0.506939	0.534220
50390	10.188002	1.608272	0.307365	0.739942	-0.268506	0.475986	-0.486842	0.469825	0.506338	0.534669
50391	10.235878	1.600805	0.384535	0.736147	-0.193367	0.526767	-0.486210	0.471041	0.505225	0.535227
50392	10.117349	1.804864	0.635011	0.964225	0.054757	0.438594	-0.485551	0.472388	0.503664	0.536109
50393	9.939623	2.018709	0.766937	1.207172	0.181019	0.285304	-0.484571	0.473875	0.501916	0.537321
50394	9.548040	1.924845	0.927887	1.157460	0.351664	-0.103534	-0.483003	0.475531	0.500064	0.538994
50395	9.301052	1.526579	0.768941	0.780353	0.209507	-0.390456	-0.480857	0.477429	0.498453	0.540725
50396	9.268746	1.288068	0.617493	0.538742	0.068147	-0.450253	-0.478597	0.479263	0.496996	0.542444
50397	9.420493	1.219676	0.582699	0.452570	0.030718	-0.306528	-0.476461	0.481000	0.495639	0.544028
50398	9.725670	0.954900	0.287218	0.145616	-0.262650	-0.040646	-0.474633	0.482446	0.494579	0.545308
50399	10.071459	1.117231	0.295490	0.273236	-0.275696	0.317423	-0.473383	0.483430	0.493846	0.546187
50400	9.940953	0.889176	0.100328	0.046175	-0.446767	0.158347	-0.472574	0.484348	0.493180	0.546675
50401	9.552097	0.865059	0.034424	0.059170	-0.486866	-0.233987	-0.472415	0.485210	0.492680	0.546500
50402	9.340164	1.099735	0.305963	0.342470	-0.215892	-0.411743	-0.472703	0.486034	0.492108	0.546032
50403	9.239229	1.072485	0.394362	0.351622	-0.119238	-0.510473	-0.473230	0.486925	0.491382	0.545437
50404	9.571142	0.706242	0.752433	0.010397	0.243749	-0.189170	-0.474073	0.487771	0.490523	0.544722
50405	10.212731	0.086295	1.262172	-0.590083	0.759432	0.433060	-0.474786	0.488984	0.489550	0.543887
50406	10.700007	-0.600824	0.980521	-1.289159	0.510369	0.859239	-0.475178	0.490259	0.489439	0.542495
50407	10.640257	-0.069640	0.786441	-0.743246	0.312005	0.826324	-0.475507	0.490701	0.490537	0.540813
50408	9.950066	0.830460	0.933856	0.212807	0.468659	0.202328	-0.475409	0.490706	0.492369	0.539228
50409	9.426722	1.496946	0.742652	0.895288	0.297430	-0.285601	-0.475472	0.490305	0.494403	0.537673
50410	8.967405	1.836078	0.856812	1.263419	0.439481	-0.717070	-0.475628	0.490014	0.495742	0.536567
50411	9.131317	1.895483	0.817926	1.309414	0.410528	-0.552035	-0.475599	0.490281	0.496213	0.535912
50412	9.626570	1.553740	0.890789	0.944945	0.494488	-0.079187	-0.475262	0.491011	0.496013	0.535729
50413	9.771803	1.029136	0.813515	0.417330	0.449000	0.027703	-0.474594	0.492032	0.495711	0.535664
50414	9.797880	0.665298	0.515460	0.045335	0.186561	0.019396	-0.473710	0.493119	0.495779	0.535385
50415	9.765737	0.491520	0.190243	-0.138971	-0.106078	-0.034303	-0.472824	0.494026	0.495992	0.535133
50416	9.764204	0.463322	0.181545	-0.165870	-0.092946	-0.037662	-0.472127	0.494786	0.496194	0.534859
50417	9.687396	0.316460	0.193791	-0.301146	-0.054745	-0.123021	-0.471780	0.495579	0.496114	0.534505
50418	9.737040	0.139766	0.136440	-0.471103	-0.089800	-0.085506	-0.471799	0.496380	0.496066	0.533790
50419	9.789103	0.057515	0.086352	-0.542211	-0.121103	-0.038814	-0.472053	0.497054	0.496341	0.532681
50420	9.794547	0.166655	0.065458	-0.417821	-0.129502	-0.026278	-0.472336	0.497616	0.496896	0.531386
50421	9.632375	0.328415	0.015417	-0.235791	-0.164223	-0.178990	-0.472562	0.497977	0.497717	0.530077
50422	9.582183	0.573785	-0.056558	0.016787	-0.225531	-0.215840	-0.472688	0.498147	0.498756	0.528827
50423	9.662373	0.740180	0.000569	0.185187	-0.155761	-0.125029	-0.472721	0.498245	0.499725	0.527790
50424	9.667226	0.645797	-0.009536	0.092865	-0.141735	-0.125393	-0.472658	0.498416	0.500517	0.526933
50425	9.755945	0.435497	-0.086032	-0.121440	-0.190508	-0.049263	-0.472595	0.498742	0.501201	0.526030
50426	9.887554	0.301236	-0.007501	-0.252753	-0.087962	0.075835	-0.472563	0.499161	0.501779	0.525110
50427	9.852582	0.193563	-0.117040	-0.354861	-0.173053	0.034578	-0.472519	0.499607	0.502382	0.524149
50428	9.751779	0.201136	-0.082286	-0.333089	-0.118646	-0.064900	-0.472484	0.499953	0.503054	0.523204
50429	9.670727	0.292448	-0.076142	-0.231970	-0.097048	-0.140510	-0.472536	0.500116	0.503882	0.522204
50430	9.723765	0.380648	-0.130577	-0.145326	-0.137651	-0.082659	-0.472622	0.500154	0.504660	0.521338
50431	9.751043	0.426859	-0.103347	-0.098206	-0.097906	-0.052745	-0.472689	0.500082	0.505383	0.520645
50432	9.821349	0.504908	-0.070077	-0.022815	-0.055460	0.021698	-0.472834	0.499928	0.506078	0.519985
50433	9.839625	0.459090	-0.033451	-0.068048	-0.007292	0.037460	-0.473037	0.499749	0.506719	0.519348
50434	9.796653	0.427883	-0.045345	-0.097007	-0.009502	-0.007074	-0.473192	0.499594	0.507313	0.518777
50435	9.835573	0.358742	-0.057143	-0.168265	-0.010090	0.028148	-0.473244	0.499550	0.507823	0.518271
50436	9.921841	0.346641	-0.040609	-0.184461	0.015203	0.113565	-0.473263	0.499510	0.508195	0.517929
50437	9.970498	0.344413	-0.006034	-0.189024	0.054651	0.161818	-0.473362	0.499354	0.508471	0.517717
50438	9.999024	0.406812	0.028929	-0.128838	0.088103	0.193434	-0.473560	0.499065	0.508641	0.517647
50439	9.940077	0.421251	0.019130	-0.112649	0.074010	0.135417	-0.473847	0.498776	0.508698	0.517608
50440	9.838933	0.422712	0.085585	-0.103921	0.134676	0.034224	-0.474149	0.498508	0.508690	0.517596
50441	9.735811	0.396770	0.164089	-0.121395	0.207961	-0.070389	-0.474453	0.498286	0.508660	0.517561
50442	9.593364	0.347487	0.184188	-0.161086	0.224205	-0.215235	-0.474688	0.498140	0.508622	0.517524
50443	9.615150	0.380758	0.161765	-0.128270	0.198664	-0.191547	-0.474879	0.498022	0.508684	0.517401
50444	9.734487	0.404243	0.131627	-0.110922	0.167277	-0.070989	-0.475003	0.497945	0.508694	0.517352
50445	9.819335	0.404982	0.116213	-0.114645	0.150476	0.013862	-0.475128	0.497828	0.508702	0.517342
50446	9.845291	0.420471	0.087546	-0.101461	0.119077	0.040725	-0.475284	0.497655	0.508733	0.517334
50447	9.781114	0.393892	0.057709	-0.125128	0.088083	-0.024671	-0.475449	0.497537	0.508840	0.517192
50448	9.679501	0.421526	0.070421	-0.090706	0.100266	-0.124700	-0.475575	0.497493	0.508953	0.517007
50449	9.638420	0.487758	0.035523	-0.021356	0.065997	-0.162117	-0.475682	0.497503	0.509114	0.516741
50450	9.656613	0.512939	0.061310	0.005429	0.094773	-0.142732	-0.475706	0.497576	0.509231	0.516532
50451	9.758238	0.553966	0.027515	0.041664	0.064179	-0.038999	-0.475687	0.497635	0.509350	0.516375
50452	9.820058	0.460381	0.008475	-0.055091	0.050659	0.017876	-0.475586	0.497725	0.509406	0.516328
50453	9.756788	0.448086	-0.032334	-0.065619	0.013330	-0.045792	-0.475444	0.497798	0.509545	0.516250
50454	9.717679	0.471581	-0.063215	-0.042086	-0.014191	-0.083469	-0.475300	0.497864	0.509677	0.516189
50455	9.775504	0.444955	-0.046853	-0.072831	0.007224	-0.027224	-0.475131	0.497947	0.509808	0.516135
50456	9.820929	0.476197	-0.011506	-0.044738	0.046267	0.019576	-0.474980	0.498020	0.509927	0.516086
50457	9.762981	0.504407	-0.034126	-0.015354	0.025802	-0.036671	-0.474819	0.498109	0.509963	0.516113
50458	9.730655	0.435934	-0.016486	-0.082892	0.047574	-0.072727	-0.474627	0.498228	0.510007	0.516131
50459	9.846622	0.376035	-0.062992	-0.151389	0.006150	0.040149	-0.474554	0.498212	0.510142	0.516080
50460	9.855676	0.357645	0.000807	-0.170549	0.072370	0.047736	-0.474526	0.498143	0.510283	0.516033
50461	9.872940	0.367340	-0.048470	-0.164555	0.023680	0.065804	-0.474503	0.498090	0.510323	0.516067
50462	9.918428	0.398214	-0.007270	-0.136491	0.062743	0.112597	-0.474610	0.497939	0.510301	0.516136
50463	9.874917	0.394300	-0.053559	-0.139722	0.012025	0.069248	-0.474829	0.497708	0.510283	0.516174
50464	9.764764	0.415917	-0.052274	-0.112361	0.006826	-0.039578	-0.475140	0.497405	0.510306	0.516158
50465	9.660201	0.404792	-0.015322	-0.117139	0.037857	-0.144781	-0.475493	0.497054	0.510380	0.516096
50466	9.630688	0.447839	-0.026517	-0.073292	0.021322	-0.171858	-0.475797	0.496712	0.510550	0.515978
50467	9.682622	0.479884	-0.085885	-0.046280	-0.041904	-0.118002	-0.476067	0.496381	0.510677	0.515921
50468	9.770634	0.449760	-0.099178	-0.082851	-0.058183	-0.031729	-0.476340	0.496021	0.510822	0.515872
50469	9.850159	0.412489	-0.129260	-0.126594	-0.091774	0.045712	-0.476659	0.495620	0.510970	0.515817
50470	9.883578	0.377010	-0.161122	-0.165784	-0.128583	0.077166	-0.477059	0.495158	0.511109	0.515753
50471	9.842422	0.399552	-0.217207	-0.142770	-0.191935	0.037331	-0.477554	0.494631	0.511271	0.515640
50472	9.779599	0.432821	-0.217131	-0.106811	-0.200254	-0.023739	-0.478070	0.494066	0.511407	0.515569
50473	9.750706	0.423540	-0.128154	-0.114254	-0.119948	-0.053352	-0.478589	0.493498	0.511504	0.515534
50474	9.707856	0.439249	-0.092766	-0.096691	-0.093205	-0.095384	-0.479114	0.492932	0.511668	0.515426
50475	9.712129	0.466233	-0.061301	-0.070600	-0.069535	-0.089686	-0.479630	0.492363	0.511852	0.515307
50476	9.744753	0.436800	-0.006643	-0.102159	-0.022545	-0.058709	-0.480180	0.491784	0.511990	0.515210
50477	9.774148	0.419890	-0.028766	-0.121741	-0.053478	-0.030387	-0.480822	0.491084	0.512209	0.515062
50478	9.777250	0.433881	0.010771	-0.108764	-0.023500	-0.026442	-0.481487	0.490374	0.512416	0.514911
50479	9.827509	0.458408	0.047670	-0.087277	0.003417	0.025235	-0.482120	0.489759	0.512528	0.514792
50480	9.826612	0.469661	0.015105	-0.075425	-0.038223	0.024790	-0.482712	0.489225	0.512629	0.514645
50481	9.841376	0.555051	0.004267	0.009662	-0.058249	0.044152	-0.483332	0.488617	0.512733	0.514537
50482	9.818154	0.506741	0.048041	-0.037580	-0.025523	0.018547	-0.483976	0.487934	0.512751	0.514562
50483	9.696204	0.528131	0.085624	-0.010158	-0.000160	-0.101740	-0.484582	0.487307	0.512660	0.514677
50484	9.736911	0.531223	0.114601	-0.008944	0.015741	-0.060640	-0.485179	0.486788	0.512570	0.514695
50485	9.855875	0.611426	0.083776	0.066991	-0.028429	0.062221	-0.485840	0.486294	0.512396	0.514711
50486	9.801128	0.576086	0.125637	0.038104	-0.000128	0.006085	-0.486466	0.485877	0.512036	0.514872
50487	9.728761	0.512327	0.139359	-0.018172	-0.000186	-0.069467	-0.487000	0.485504	0.511701	0.515053
50488	9.782568	0.526642	0.132253	-0.003796	-0.021238	-0.015085	-0.487521	0.485132	0.511424	0.515186
50489	9.855045	0.548462	0.076473	0.017240	-0.091432	0.057465	-0.488057	0.484735	0.511104	0.515369
50490	9.808142	0.521298	0.136480	-0.004487	-0.045816	0.010137	-0.488575	0.484415	0.510607	0.515672
50491	9.725453	0.529644	0.198352	0.011774	0.001253	-0.070812	-0.489212	0.483989	0.510163	0.515907
50492	9.672093	0.567040	0.257876	0.055507	0.046015	-0.120825	-0.489821	0.483587	0.509764	0.516100
50493	9.627920	0.625158	0.326603	0.119492	0.101800	-0.160243	-0.490386	0.483255	0.509403	0.516231
50494	9.648634	0.581376	0.297111	0.079630	0.059845	-0.142502	-0.490874	0.483030	0.509103	0.516273
50495	9.743676	0.526756	0.358826	0.024362	0.109401	-0.048831	-0.491336	0.482801	0.508890	0.516259
50496	9.809212	0.467976	0.336826	-0.033255	0.077027	0.013098	-0.491813	0.482536	0.508751	0.516189
50497	9.769785	0.460667	0.363810	-0.035269	0.097840	-0.025836	-0.492270	0.482245	0.508700	0.516076
50498	9.854863	0.446098	0.399405	-0.051871	0.123352	0.059442	-0.492776	0.481853	0.508646	0.516012
50499	9.783736	0.445491	0.464530	-0.048066	0.181846	-0.009608	-0.493369	0.481332	0.508705	0.515873
50500	9.718613	0.392881	0.488275	-0.097149	0.199060	-0.076408	-0.493935	0.480779	0.508883	0.515672
50501	9.485269	0.366569	0.525446	-0.113286	0.237767	-0.309455	-0.494469	0.480178	0.509281	0.515327
50502	9.426333	0.429325	0.538657	-0.050441	0.252553	-0.364730	-0.494848	0.479651	0.509843	0.514899
50503	9.396834	0.473447	0.480116	-0.007073	0.200148	-0.393821	-0.495096	0.479265	0.510611	0.514258
50504	9.589461	0.486387	0.464922	-0.006775	0.189004	-0.201512	-0.495166	0.479044	0.511408	0.513605
50505	9.680331	0.530156	0.454233	0.028995	0.189332	-0.109106	-0.495050	0.478986	0.512167	0.513014
50506	9.734358	0.502004	0.355104	-0.003624	0.103399	-0.059477	-0.494784	0.479040	0.512946	0.512441
50507	9.826449	0.559340	0.333418	0.045226	0.097443	0.034726	-0.494421	0.479210	0.513635	0.511942
50508	9.890616	0.553379	0.279764	0.033366	0.058373	0.097118	-0.493988	0.479456	0.514165	0.511598
50509	9.880355	0.510767	0.304638	-0.013253	0.096193	0.085073	-0.493539	0.479698	0.514536	0.511431
50510	9.817729	0.417073	0.318787	-0.108131	0.120075	0.017738	-0.493105	0.479908	0.514794	0.511394
50511	9.819245	0.421772	0.346191	-0.108308	0.156338	0.019868	-0.492692	0.480123	0.515011	0.511370
50512	9.863068	0.395546	0.356018	-0.139936	0.172695	0.062226	-0.492301	0.480414	0.515109	0.511375
50513	9.838822	0.407663	0.368421	-0.128221	0.192334	0.038754	-0.492007	0.480663	0.515142	0.511391
50514	9.885453	0.358484	0.339691	-0.180018	0.167001	0.082048	-0.491783	0.480843	0.515228	0.511351
50515	9.922963	0.406986	0.307619	-0.133639	0.140425	0.121490	-0.491619	0.480976	0.515348	0.511262
50516	9.964647	0.435452	0.272033	-0.106889	0.107974	0.164022	-0.491573	0.481032	0.515366	0.511236
50517	9.847811	0.461996	0.240550	-0.073163	0.078856	0.048302	-0.491584	0.481035	0.515267	0.511322
50518	9.824918	0.438495	0.227450	-0.094700	0.063091	0.023983	-0.491654	0.480989	0.515152	0.511414
50519	9.898522	0.486301	0.113021	-0.048138	-0.055415	0.098146	-0.491790	0.480849	0.515064	0.511503
50520	9.844735	0.456310	0.183108	-0.076378	0.008581	0.044018	-0.491932	0.480744	0.514750	0.511782
50521	9.659822	0.380534	0.238479	-0.142761	0.057104	-0.143655	-0.492064	0.480625	0.514395	0.512123
50522	9.657049	0.365640	0.216969	-0.157099	0.028026	-0.147601	-0.492108	0.480550	0.514189	0.512359
50523	9.734981	0.418715	0.211493	-0.108939	0.016972	-0.067035	-0.492135	0.480468	0.514034	0.512565
50524	9.749632	0.433212	0.215526	-0.095948	0.016297	-0.051541	-0.492154	0.480433	0.513828	0.512785
50525	9.755095	0.414917	0.250416	-0.115747	0.046678	-0.046360	-0.492115	0.480427	0.513668	0.512989
50526	9.767813	0.345118	0.279213	-0.187900	0.071590	-0.036860	-0.491995	0.480461	0.513572	0.513168
50527	9.721678	0.348385	0.276022	-0.183852	0.068693	-0.082833	-0.491875	0.480477	0.513539	0.513301
50528	9.705606	0.322208	0.284414	-0.211348	0.076550	-0.100171	-0.491784	0.480451	0.513540	0.513412
50529	9.685288	0.315380	0.298201	-0.219216	0.090287	-0.120578	-0.491708	0.480443	0.513533	0.513500
50530	9.698790	0.317562	0.303497	-0.219329	0.095907	-0.106907	-0.491609	0.480472	0.513577	0.513523
50531	9.741062	0.300324	0.240789	-0.238956	0.034367	-0.067013	-0.491488	0.480527	0.513692	0.513472
50532	9.798910	0.345844	0.239930	-0.198012	0.036646	-0.006808	-0.491355	0.480589	0.513824	0.513410
50533	9.812301	0.371431	0.157727	-0.172983	-0.041940	0.006294	-0.491237	0.480641	0.513925	0.513373
50534	9.802564	0.397757	0.173726	-0.147537	-0.023433	-0.001656	-0.491175	0.480659	0.513941	0.513399
50535	9.730281	0.445209	0.223177	-0.097736	0.028232	-0.070201	-0.491130	0.480682	0.513873	0.513489
50536	9.746337	0.460595	0.259491	-0.084227	0.063386	-0.052593	-0.491051	0.480751	0.513744	0.513628
50537	9.731559	0.445803	0.261911	-0.098609	0.064947	-0.068117	-0.490961	0.480806	0.513663	0.513744
50538	9.743106	0.374079	0.252356	-0.171290	0.054039	-0.060792	-0.490834	0.480902	0.513609	0.513831
50539	9.733844	0.353540	0.240755	-0.192193	0.043425	-0.071443	-0.490708	0.480941	0.513646	0.513877
50540	9.703837	0.372568	0.270106	-0.173891	0.075210	-0.099793	-0.490623	0.480918	0.513744	0.513881
50541	9.706994	0.460127	0.277784	-0.088925	0.085910	-0.091611	-0.490528	0.480897	0.513855	0.513881
50542	9.744397	0.510183	0.249320	-0.042590	0.059397	-0.052033	-0.490400	0.480928	0.513926	0.513903
50543	9.771428	0.514159	0.258832	-0.042143	0.070216	-0.024662	-0.490254	0.480978	0.513958	0.513962
50544	9.775662	0.495789	0.252414	-0.062471	0.064786	-0.021620	-0.490084	0.481048	0.513949	0.514069
50545	9.754043	0.487830	0.228857	-0.070837	0.042698	-0.044122	-0.489897	0.481119	0.513941	0.514188
50546	9.761898	0.508959	0.203270	-0.051858	0.018403	-0.035573	-0.489736	0.481176	0.513940	0.514290
50547	9.784624	0.532378	0.219551	-0.031791	0.035112	-0.011246	-0.489590	0.481242	0.513878	0.514428
50548	9.791273	0.539595	0.201944	-0.025915	0.017108	-0.004527	-0.489492	0.481290	0.513796	0.514560
50549	9.824610	0.583879	0.266765	0.014858	0.080711	0.032530	-0.489402	0.481372	0.513641	0.514723
50550	9.826307	0.549660	0.234369	-0.019093	0.045756	0.031646	-0.489329	0.481429	0.513461	0.514918
50551	9.771635	0.590262	0.244071	0.024296	0.054587	-0.020381	-0.489273	0.481480	0.513291	0.515093
50552	9.772899	0.590637	0.283445	0.024113	0.090862	-0.018305	-0.489220	0.481538	0.513055	0.515325
50553	9.771616	0.576770	0.293599	0.010311	0.097605	-0.020154	-0.489146	0.481609	0.512846	0.515536
50554	9.747577	0.540614	0.286967	-0.024241	0.088083	-0.046341	-0.489065	0.481691	0.512615	0.515767
50555	9.764756	0.568634	0.318835	0.002339	0.116976	-0.026893	-0.488965	0.481777	0.512397	0.515997
50556	9.778197	0.569639	0.327304	0.002199	0.122626	-0.013212	-0.488841	0.481873	0.512190	0.516230
50557	9.744398	0.547600	0.379188	-0.018778	0.173258	-0.047106	-0.488675	0.482016	0.511998	0.516446
50558	9.693403	0.508836	0.358650	-0.054436	0.153342	-0.100678	-0.488473	0.482215	0.511852	0.516595
50559	9.724780	0.503440	0.320412	-0.061059	0.116196	-0.070499	-0.488260	0.482441	0.511774	0.516662
50560	9.794955	0.535598	0.332755	-0.032778	0.130056	0.001625	-0.488079	0.482636	0.511728	0.516696
50561	9.780340	0.519995	0.331460	-0.047133	0.131605	-0.013924	-0.487948	0.482786	0.511711	0.516697
50562	9.779698	0.471594	0.264555	-0.094685	0.067110	-0.018739	-0.487854	0.482878	0.511770	0.516641
50563	9.838060	0.469307	0.236852	-0.100215	0.040365	0.038815	-0.487847	0.482877	0.511841	0.516579
50564	9.833716	0.501001	0.200539	-0.068695	0.004610	0.035584	-0.487892	0.482773	0.511895	0.516581
50565	9.827628	0.554390	0.243195	-0.016525	0.046377	0.033446	-0.487991	0.482617	0.511949	0.516579
50566	9.804745	0.544579	0.186738	-0.025362	-0.011546	0.008906	-0.488087	0.482488	0.511977	0.516580
50567	9.780157	0.555785	0.208341	-0.013547	0.008052	-0.014549	-0.488229	0.482316	0.511975	0.516609
50568	9.739536	0.539657	0.237921	-0.028479	0.035013	-0.055415	-0.488358	0.482121	0.511990	0.516654
50569	9.733906	0.534301	0.295743	-0.035237	0.089739	-0.060120	-0.488486	0.481936	0.512018	0.516679
50570	9.711060	0.512233	0.282349	-0.056653	0.073908	-0.084475	-0.488602	0.481790	0.512028	0.516694
50571	9.722685	0.546875	0.325474	-0.023567	0.114986	-0.069904	-0.488718	0.481667	0.512063	0.516666
50572	9.761933	0.537541	0.350012	-0.035735	0.137329	-0.030731	-0.488791	0.481573	0.512111	0.516637
50573	9.750222	0.502717	0.310298	-0.070213	0.097159	-0.045320	-0.488837	0.481465	0.512215	0.516591
50574	9.739150	0.515740	0.334192	-0.057846	0.121947	-0.055100	-0.488861	0.481400	0.512327	0.516516
50575	9.740967	0.457837	0.382345	-0.116972	0.171179	-0.055677	-0.488871	0.481367	0.512481	0.516386
50576	9.749102	0.489495	0.313004	-0.085404	0.104802	-0.047223	-0.488857	0.481374	0.512635	0.516240
50577	9.745480	0.462002	0.287649	-0.112806	0.081995	-0.053020	-0.488844	0.481349	0.512775	0.516135
50578	9.794047	0.474072	0.320047	-0.104828	0.115439	-0.003191	-0.488867	0.481282	0.512921	0.516032
50579	9.892378	0.559724	0.211425	-0.024685	0.007203	0.097735	-0.488959	0.481141	0.513121	0.515877
50580	9.885619	0.577206	0.145515	-0.006759	-0.058089	0.090665	-0.489047	0.481022	0.513191	0.515836
50581	9.710520	0.499887	0.089893	-0.073331	-0.112379	-0.089820	-0.489132	0.480921	0.513180	0.515860
50582	9.658914	0.496008	0.142008	-0.075149	-0.061125	-0.140488	-0.489240	0.480796	0.513213	0.515841
50583	9.731981	0.496164	0.159372	-0.079718	-0.046796	-0.067202	-0.489369	0.480661	0.513281	0.515776
50584	9.761443	0.512725	0.201379	-0.065760	-0.006383	-0.035937	-0.489477	0.480533	0.513347	0.515728
50585	9.730695	0.470097	0.210436	-0.106816	0.002484	-0.068957	-0.489557	0.480455	0.513449	0.515624
50586	9.675450	0.450987	0.194172	-0.122724	-0.011631	-0.125571	-0.489629	0.480348	0.513645	0.515460
50587	9.671921	0.542312	0.177730	-0.031748	-0.024524	-0.124028	-0.489726	0.480219	0.513892	0.515241
50588	9.702140	0.618735	0.238523	0.041636	0.038767	-0.088078	-0.489825	0.480140	0.514042	0.515070
50589	9.765429	0.536996	0.218984	-0.042560	0.019148	-0.030165	-0.489864	0.480169	0.514189	0.514859
50590	9.822666	0.520510	0.196410	-0.061294	-0.001246	0.025530	-0.489890	0.480154	0.514393	0.514646
50591	9.790217	0.523357	0.194794	-0.056507	0.000950	-0.006720	-0.489931	0.480107	0.514556	0.514488
50592	9.770022	0.502582	0.248191	-0.076911	0.056727	-0.027066	-0.490004	0.480054	0.514720	0.514303
50593	9.736348	0.491884	0.253670	-0.085213	0.065186	-0.061213	-0.490103	0.479992	0.514913	0.514073
50594	9.740224	0.517959	0.274550	-0.059219	0.088903	-0.055422	-0.490182	0.479945	0.515069	0.513886
50595	9.702298	0.526726	0.285948	-0.047884	0.103248	-0.092562	-0.490248	0.479915	0.515189	0.513730
50596	9.730254	0.588202	0.316527	0.011870	0.137014	-0.060503	-0.490263	0.479938	0.515335	0.513548
50597	9.759184	0.567156	0.247098	-0.008411	0.070373	-0.034171	-0.490260	0.480017	0.515463	0.513349
50598	9.788148	0.533657	0.219665	-0.041307	0.045828	-0.007736	-0.490224	0.480158	0.515532	0.513182
50599	9.784145	0.550426	0.221833	-0.022378	0.052171	-0.010726	-0.490189	0.480302	0.515568	0.513044
50600	9.804631	0.555409	0.206352	-0.016008	0.039399	0.009738	-0.490190	0.480432	0.515568	0.512921
50601	9.777855	0.537405	0.236532	-0.030356	0.071506	-0.017527	-0.490198	0.480577	0.515487	0.512860
50602	9.783510	0.527480	0.224796	-0.037595	0.059800	-0.012645	-0.490228	0.480682	0.515362	0.512857
50603	9.780722	0.556945	0.224896	-0.005561	0.059868	-0.013724	-0.490246	0.480786	0.515225	0.512881
50604	9.768960	0.507085	0.228651	-0.052597	0.061760	-0.028240	-0.490251	0.480882	0.515059	0.512953
50605	9.731408	0.455831	0.257629	-0.100173	0.089019	-0.068125	-0.490268	0.480974	0.514901	0.513008
50606	9.713769	0.471305	0.259515	-0.081745	0.090133	-0.084790	-0.490285	0.481057	0.514754	0.513062
50607	9.719336	0.462226	0.248696	-0.088993	0.078421	-0.079912	-0.490266	0.481177	0.514644	0.513078
50608	9.746511	0.462407	0.259654	-0.088677	0.089323	-0.052571	-0.490241	0.481296	0.514571	0.513064
50609	9.785914	0.451192	0.282206	-0.100963	0.111723	-0.013470	-0.490230	0.481374	0.514533	0.513040
50610	9.827888	0.478305	0.249465	-0.074454	0.079487	0.029392	-0.490254	0.481408	0.514542	0.512975
50611	9.848280	0.472245	0.279087	-0.080716	0.108826	0.049927	-0.490396	0.481362	0.514565	0.512861
50612	9.837442	0.482355	0.304552	-0.068342	0.133602	0.040138	-0.490603	0.481286	0.514552	0.512745
50613	9.833626	0.451597	0.284034	-0.095734	0.110772	0.034311	-0.490841	0.481203	0.514533	0.512616
50614	9.878425	0.432388	0.298285	-0.114577	0.121020	0.078290	-0.491114	0.481095	0.514455	0.512533
50615	9.828547	0.415830	0.233433	-0.124302	0.052574	0.026496	-0.491410	0.480924	0.514376	0.512490
50616	9.789270	0.422541	0.216609	-0.113396	0.031066	-0.012614	-0.491711	0.480674	0.514299	0.512513
50617	9.728022	0.456158	0.248589	-0.076320	0.058203	-0.071277	-0.492024	0.480395	0.514205	0.512569
50618	9.600212	0.472400	0.330898	-0.053849	0.137086	-0.196293	-0.492264	0.480232	0.514073	0.512623
50619	9.585923	0.551215	0.428567	0.024972	0.232739	-0.204221	-0.492386	0.480187	0.514004	0.512617
50620	9.667088	0.556845	0.462375	0.027224	0.264588	-0.122192	-0.492315	0.480361	0.513919	0.512608
50621	9.742387	0.485271	0.371367	-0.044462	0.172328	-0.052778	-0.492160	0.480603	0.513789	0.512660
50622	9.826357	0.458624	0.404678	-0.074958	0.204569	0.030276	-0.491978	0.480821	0.513607	0.512812
50623	9.907682	0.476803	0.395686	-0.060113	0.194332	0.112266	-0.491871	0.480969	0.513456	0.512928
50624	9.924560	0.479229	0.277125	-0.055202	0.074117	0.126871	-0.491851	0.481053	0.513250	0.513074
50625	9.812558	0.380842	0.228557	-0.145414	0.022317	0.008816	-0.491835	0.481117	0.512923	0.513356
50626	9.797813	0.377132	0.193836	-0.147078	-0.018296	-0.006823	-0.491948	0.481014	0.512667	0.513601
50627	9.810941	0.483382	0.221818	-0.042061	0.003653	0.012568	-0.492069	0.480889	0.512389	0.513879
50628	9.783199	0.514884	0.289662	-0.010040	0.064905	-0.011888	-0.492116	0.480864	0.512038	0.514207
50629	9.710005	0.454402	0.295363	-0.065527	0.064216	-0.088003	-0.492160	0.480901	0.511655	0.514511
50630	9.674592	0.429549	0.315916	-0.086813	0.078885	-0.124123	-0.492214	0.480962	0.511295	0.514760
50631	9.682888	0.446362	0.296986	-0.067855	0.054650	-0.115360	-0.492220	0.481074	0.510947	0.514997
50632	9.707463	0.431449	0.283400	-0.081166	0.036035	-0.091915	-0.492216	0.481232	0.510612	0.515184
50633	9.714033	0.422204	0.311226	-0.087939	0.060163	-0.085087	-0.492197	0.481424	0.510267	0.515365
50634	9.683523	0.424278	0.386552	-0.082101	0.133944	-0.113442	-0.492142	0.481632	0.509990	0.515497
50635	9.677138	0.426032	0.363719	-0.076722	0.110715	-0.120286	-0.492047	0.481879	0.509771	0.515574
50636	9.704270	0.424835	0.374765	-0.076447	0.121645	-0.092957	-0.491939	0.482140	0.509566	0.515635
50637	9.796412	0.416123	0.383909	-0.087369	0.129244	-0.001169	-0.491849	0.482338	0.509430	0.515670
50638	9.822053	0.403052	0.401008	-0.100212	0.146457	0.024207	-0.491775	0.482476	0.509336	0.515705
50639	9.751873	0.474223	0.400724	-0.024233	0.149500	-0.042244	-0.491706	0.482615	0.509245	0.515730
50640	9.748612	0.456878	0.334984	-0.038966	0.084570	-0.048072	-0.491651	0.482775	0.509137	0.515739
50641	9.793762	0.450219	0.304146	-0.045260	0.052788	-0.004112	-0.491629	0.482929	0.508973	0.515778
50642	9.768189	0.504492	0.316239	0.012510	0.065646	-0.026597	-0.491579	0.483093	0.508800	0.515843
50643	9.731407	0.466477	0.336787	-0.021860	0.086546	-0.064696	-0.491490	0.483266	0.508623	0.515940
50644	9.743666	0.405922	0.320331	-0.081483	0.069306	-0.055897	-0.491331	0.483471	0.508437	0.516084
50645	9.679373	0.354393	0.370411	-0.129417	0.121794	-0.121378	-0.491098	0.483724	0.508291	0.516210
50646	9.693502	0.366650	0.331019	-0.117019	0.085391	-0.107689	-0.490845	0.484006	0.508250	0.516229
50647	9.783073	0.391892	0.336667	-0.095273	0.092637	-0.016883	-0.490650	0.484270	0.508142	0.516272
50648	9.821693	0.391519	0.280264	-0.095515	0.037182	0.020267	-0.490555	0.484466	0.507996	0.516323
50649	9.899587	0.486300	0.264214	-0.002255	0.020040	0.102337	-0.490508	0.484651	0.507819	0.516368
50650	9.924048	0.588231	0.185317	0.101802	-0.060179	0.129802	-0.490503	0.484826	0.507541	0.516481
50651	9.922662	0.687547	0.133242	0.205390	-0.115082	0.131872	-0.490476	0.485101	0.507083	0.516697
50652	9.966997	0.606196	0.164291	0.127491	-0.091855	0.172841	-0.490459	0.485442	0.506331	0.517131
50653	9.910528	0.346835	0.247619	-0.123388	-0.018756	0.106213	-0.490540	0.485607	0.505467	0.517744
50654	9.820943	0.094201	0.334323	-0.368635	0.055981	0.007319	-0.490789	0.485396	0.504897	0.518262
50655	9.702906	-0.052573	0.353461	-0.510497	0.064836	-0.116850	-0.491137	0.484917	0.504719	0.518555
50656	9.680604	0.079791	0.429847	-0.379775	0.130199	-0.130537	-0.491512	0.484414	0.504684	0.518703
50657	9.697418	0.375928	0.416822	-0.084904	0.107287	-0.100003	-0.491867	0.484178	0.504497	0.518769
50658	9.805708	0.590464	0.504219	0.128472	0.182418	0.021183	-0.492197	0.484175	0.504035	0.518908
50659	9.839419	0.579949	0.586109	0.123036	0.252891	0.057212	-0.492424	0.484291	0.503367	0.519232
50660	9.917891	0.413995	0.591452	-0.039563	0.245629	0.128331	-0.492459	0.484561	0.502658	0.519634
50661	10.014966	0.254249	0.477608	-0.196534	0.117748	0.214266	-0.492617	0.484771	0.501788	0.520129
50662	9.946013	0.121524	0.526724	-0.316888	0.153514	0.141777	-0.493024	0.484864	0.500708	0.520697
50663	9.781438	-0.136728	0.636694	-0.557332	0.249850	-0.028644	-0.493516	0.484832	0.499533	0.521389
50664	9.530301	-0.285345	0.705089	-0.689112	0.307255	-0.281901	-0.494025	0.484390	0.498832	0.521988
50665	9.400496	-0.159844	0.812440	-0.561031	0.402202	-0.401078	-0.494257	0.483712	0.498826	0.522404
50666	9.596311	0.058068	0.448076	-0.363987	0.018886	-0.212663	-0.494427	0.482898	0.499336	0.522509
50667	9.784636	0.314523	0.128059	-0.127224	-0.316791	-0.028114	-0.494795	0.482125	0.499750	0.522477
50668	9.920920	0.401661	0.213315	-0.051004	-0.247007	0.115448	-0.495261	0.481547	0.499754	0.522566
50669	9.718811	0.527529	0.295370	0.081425	-0.166218	-0.076849	-0.495488	0.481146	0.499648	0.522821
50670	9.688520	0.760996	0.400711	0.310830	-0.066068	-0.091262	-0.495308	0.480938	0.499730	0.523105
50671	9.832769	0.975114	0.293241	0.509627	-0.183735	0.057809	-0.494904	0.480859	0.499660	0.523626
50672	9.806033	0.675926	0.122318	0.204179	-0.356553	0.008784	-0.494439	0.481017	0.499231	0.524329
50673	9.608314	0.316223	0.239376	-0.148317	-0.232939	-0.200158	-0.493947	0.481492	0.498541	0.525013
50674	9.393186	0.437759	0.449665	-0.014457	-0.014148	-0.398583	-0.493225	0.482291	0.497897	0.525569
50675	9.645852	0.815247	0.280748	0.350611	-0.193663	-0.136662	-0.492293	0.483283	0.497431	0.525973
50676	9.749539	0.899081	0.245288	0.431097	-0.229680	-0.030897	-0.491365	0.484364	0.496582	0.526648
50677	9.711852	0.649059	0.188902	0.185958	-0.277340	-0.083066	-0.490384	0.485557	0.495613	0.527375
50678	9.717783	0.428239	0.206606	-0.030798	-0.250047	-0.086542	-0.489173	0.486934	0.494657	0.528128
50679	9.907627	0.450460	0.384124	-0.011006	-0.074547	0.112324	-0.487844	0.488293	0.493683	0.529013
50680	9.962157	0.406972	0.408030	-0.055806	-0.046357	0.165861	-0.486569	0.489464	0.492699	0.530022
50681	9.832268	0.362875	0.524329	-0.091320	0.080927	0.039480	-0.485308	0.490517	0.491840	0.531001
50682	9.790218	0.307321	0.370019	-0.153982	-0.064852	-0.012085	-0.484097	0.491391	0.491159	0.531928
50683	9.856695	0.106111	0.354010	-0.362924	-0.070696	0.044001	-0.483078	0.492185	0.490536	0.532696
50684	10.017082	-0.048649	0.482887	-0.521728	0.061262	0.202377	-0.482357	0.492805	0.489926	0.533336
50685	10.029598	-0.170381	0.580445	-0.638959	0.164432	0.213452	-0.482061	0.493140	0.489520	0.533668
50686	9.897228	-0.291776	0.717663	-0.746448	0.310808	0.081832	-0.482066	0.493113	0.489349	0.533844
50687	9.999597	-0.161141	0.763803	-0.619320	0.339940	0.192420	-0.482701	0.492527	0.489551	0.533625
50688	9.989832	-0.228647	0.733441	-0.686342	0.300047	0.178601	-0.483905	0.491578	0.489701	0.533273
50689	10.109107	0.086200	0.872029	-0.367620	0.397127	0.319884	-0.485614	0.490327	0.489754	0.532822
50690	9.912736	0.520725	1.059376	0.087653	0.544303	0.154845	-0.487503	0.488787	0.489418	0.532822
50691	9.338159	0.136269	1.165448	-0.261510	0.656956	-0.427703	-0.488861	0.487681	0.488445	0.533483
50692	9.251803	0.057555	1.106344	-0.337560	0.573190	-0.518570	-0.489385	0.486996	0.487656	0.534350
50693	9.212765	0.279172	0.790817	-0.133419	0.232226	-0.565709	-0.489011	0.486601	0.487262	0.535409
50694	9.163381	0.797640	0.733157	0.368881	0.144171	-0.593989	-0.488071	0.486448	0.486745	0.536874
50695	9.604165	1.088190	0.726272	0.615508	0.088343	-0.139792	-0.486840	0.486359	0.486491	0.538302
50696	9.807094	0.843315	0.571259	0.329493	-0.072703	0.041383	-0.485470	0.486343	0.486321	0.539705
50697	9.870577	0.184123	0.285352	-0.368355	-0.327749	0.051413	-0.484122	0.486498	0.486423	0.540684
50698	10.035518	-0.198037	0.084423	-0.787018	-0.508496	0.181309	-0.483097	0.486780	0.486716	0.541082
50699	10.138173	-0.384795	0.089828	-0.988221	-0.486317	0.273223	-0.482447	0.487228	0.486870	0.541121
50700	9.991948	-0.511223	-0.042716	-1.112133	-0.589904	0.112904	-0.482087	0.487779	0.486997	0.540831
50701	9.922901	-0.653360	-0.098694	-1.246216	-0.619709	0.034315	-0.481875	0.488451	0.487134	0.540290
50702	9.901742	-0.891367	0.105459	-1.461160	-0.388031	0.014040	-0.481881	0.489100	0.487198	0.539639
50703	9.798414	-1.097433	0.095473	-1.647971	-0.367594	-0.098192	-0.482064	0.489643	0.487541	0.538672
50704	9.515824	-0.980804	0.077789	-1.504830	-0.360880	-0.372128	-0.482261	0.489984	0.488279	0.537516
50705	9.179647	-0.817183	0.067616	-1.317010	-0.346116	-0.697647	-0.482345	0.490085	0.489204	0.536507
50706	9.087264	-0.766307	0.108981	-1.260212	-0.288035	-0.784601	-0.482214	0.489929	0.490249	0.535812
50707	9.172678	-0.504715	0.265039	-1.007412	-0.134322	-0.678682	-0.481739	0.489543	0.491492	0.535453
50708	9.659311	-0.286567	0.206450	-0.838920	-0.202827	-0.185539	-0.480653	0.489449	0.493095	0.535042
50709	10.005473	-0.186276	0.143596	-0.785376	-0.250519	0.161532	-0.479223	0.489597	0.494893	0.534528
50710	9.916900	-0.229014	-0.046437	-0.855593	-0.393854	0.062137	-0.477469	0.489979	0.496641	0.534128
50711	9.589111	-0.459335	0.091131	-1.085412	-0.193874	-0.275684	-0.475600	0.490296	0.498325	0.533935
50712	9.392155	-0.477846	0.229497	-1.115191	-0.009467	-0.471936	-0.473694	0.490364	0.500273	0.533745
50713	9.513232	-0.518073	0.226652	-1.197718	0.028166	-0.358282	-0.471730	0.490386	0.502526	0.533348
50714	9.943952	0.028278	0.422117	-0.712452	0.238670	0.111843	-0.469811	0.490435	0.504967	0.532690
50715	10.557523	0.650142	0.415142	-0.172310	0.247552	0.768667	-0.468023	0.490845	0.506924	0.532028
50716	10.925325	1.065706	0.388746	0.190829	0.247680	1.166914	-0.466668	0.491529	0.508175	0.531393
50717	10.822895	1.304312	0.357626	0.430494	0.243615	1.083158	-0.465521	0.492733	0.508356	0.531111
50718	10.490279	1.362683	0.252425	0.519003	0.151822	0.754912	-0.464702	0.494088	0.507165	0.531708
50719	10.122942	1.040797	0.190919	0.239308	0.091559	0.362179	-0.464392	0.495148	0.504765	0.533275
50720	9.634140	0.138490	0.335126	-0.599068	0.249640	-0.193603	-0.464885	0.495282	0.502435	0.534918
50721	9.490890	-0.372409	0.510545	-1.080625	0.420442	-0.371726	-0.465934	0.494345	0.501998	0.535282
50722	10.097318	0.429380	0.437856	-0.339049	0.271071	0.293915	-0.467392	0.492452	0.502783	0.535019
50723	10.147545	1.395195	0.640298	0.615023	0.391522	0.424379	-0.469398	0.489882	0.503094	0.535330
50724	9.798124	2.156530	1.032843	1.404082	0.719846	0.148783	-0.471549	0.487364	0.503650	0.535214
50725	9.551313	2.492702	0.916970	1.743870	0.571592	-0.070299	-0.473106	0.485599	0.503991	0.535123
50726	9.175563	2.210203	0.486052	1.473251	0.146533	-0.478864	-0.473995	0.484673	0.504132	0.535044
50727	8.954168	1.932881	0.327012	1.209466	-0.005220	-0.726585	-0.474674	0.484087	0.504205	0.534903
50728	8.961568	1.835613	0.152063	1.108542	-0.182887	-0.733040	-0.475207	0.483732	0.504226	0.534732
50729	9.042748	2.057787	0.102548	1.325883	-0.243650	-0.636688	-0.475588	0.483642	0.504346	0.534361
50730	9.214490	2.713587	0.075984	1.972291	-0.291657	-0.415818	-0.475659	0.484118	0.504314	0.533897
50731	9.378349	2.805329	0.005807	2.060108	-0.360302	-0.249767	-0.474981	0.485499	0.503835	0.533699
50732	9.441527	2.572091	-0.177139	1.829314	-0.520636	-0.212065	-0.473762	0.487381	0.503473	0.533408
50733	9.215588	2.480925	-0.323676	1.762858	-0.633377	-0.449039	-0.472193	0.489706	0.503088	0.533033
50734	8.973379	2.344251	-0.426316	1.657203	-0.696885	-0.704081	-0.470582	0.492536	0.502401	0.532498
50735	8.729911	2.247955	0.162433	1.631197	-0.073405	-0.945631	-0.469247	0.495685	0.501259	0.531829
50736	9.351956	1.377902	1.044299	0.808524	0.866659	-0.376420	-0.467821	0.499598	0.499032	0.531519
50737	10.502763	-0.221658	0.669692	-0.821699	0.613353	0.663651	-0.465540	0.504381	0.496762	0.531131
50738	11.801166	-0.480134	0.590345	-1.106882	0.614039	1.945018	-0.462867	0.508580	0.495618	0.530531
50739	12.122011	-0.037795	0.157643	-0.690824	0.227670	2.288548	-0.459996	0.511341	0.495735	0.530264
50740	10.750154	0.625798	0.267758	0.045040	0.333200	0.953736	-0.457331	0.512754	0.496262	0.530712
50741	9.189867	0.816684	0.433408	0.317978	0.496389	-0.595264	-0.454852	0.513971	0.496278	0.531649
50742	8.356981	0.898699	0.494396	0.442928	0.553945	-1.422921	-0.452548	0.515629	0.495316	0.532907
50743	8.675852	0.721139	0.329812	0.231895	0.421964	-1.113987	-0.450408	0.517667	0.493787	0.534162
50744	9.438020	0.294019	-0.066887	-0.272720	0.092706	-0.374246	-0.448614	0.519558	0.492116	0.535376
50745	9.944355	0.146608	-0.403586	-0.481189	-0.210285	0.127072	-0.447292	0.520920	0.490779	0.536384
50746	10.039030	0.168424	-0.494376	-0.473952	-0.298400	0.224306	-0.446538	0.521683	0.489952	0.537027
50747	9.908749	0.046868	-0.465857	-0.582188	-0.259966	0.086605	-0.446224	0.522112	0.489308	0.537457
50748	9.693634	-0.083126	-0.330815	-0.678240	-0.121678	-0.137561	-0.446437	0.522291	0.488614	0.537739
50749	9.745386	-0.066638	-0.044611	-0.622479	0.151237	-0.088049	-0.446980	0.522337	0.488064	0.537742
50750	9.976755	-0.146351	0.143959	-0.681519	0.345101	0.136895	-0.447644	0.522303	0.488054	0.537232
50751	10.082634	-0.011175	0.098064	-0.549116	0.284689	0.251440	-0.448452	0.521988	0.488560	0.536404
50752	9.817375	0.156820	-0.005052	-0.373301	0.157816	-0.002427	-0.449267	0.521527	0.489035	0.535738
50753	9.584307	0.350136	0.014732	-0.162761	0.148738	-0.224511	-0.449908	0.521104	0.489300	0.535368
50754	9.564105	0.395900	0.109301	-0.103940	0.233322	-0.243176	-0.450298	0.520815	0.489411	0.535220
50755	9.654528	0.401332	0.245877	-0.088074	0.367076	-0.154068	-0.450530	0.520605	0.489533	0.535118
50756	9.712470	0.439377	0.419465	-0.033224	0.537827	-0.096170	-0.450663	0.520643	0.489754	0.534766
50757	9.705372	0.530879	0.504184	0.071774	0.621170	-0.099848	-0.450711	0.520930	0.490191	0.534045
50758	9.823125	0.782017	0.400232	0.308849	0.510914	0.031553	-0.450510	0.521289	0.490927	0.533188
50759	10.110699	0.841520	0.484984	0.361537	0.616776	0.319363	-0.450082	0.521453	0.491815	0.532570
50760	10.234429	0.673294	0.869870	0.216817	1.038951	0.425821	-0.449415	0.521174	0.492800	0.532496
50761	10.721227	0.490397	1.126287	0.006760	1.342693	0.894820	-0.448740	0.520104	0.494661	0.532387
50762	11.209889	0.584425	1.223665	0.031071	1.457247	1.384440	-0.447969	0.518199	0.496769	0.532929
50763	11.160742	0.315527	1.326766	-0.297621	1.572528	1.316548	-0.447408	0.515008	0.498195	0.535158
50764	10.347385	-0.123654	1.565790	-0.747045	1.792131	0.471501	-0.447521	0.510473	0.500200	0.537533
50765	9.712982	-0.621192	0.705598	-1.367329	0.921277	-0.194656	-0.448420	0.505228	0.503186	0.538951
50766	8.821142	-0.565559	0.756520	-1.315369	0.903784	-1.085894	-0.450727	0.499099	0.506813	0.539339
50767	8.098389	-1.522233	-0.302936	-2.340336	-0.146939	-1.907403	-0.453788	0.492597	0.511295	0.538519
50768	8.280429	-1.247156	-0.937782	-2.166873	-0.852214	-1.714639	-0.457794	0.485569	0.517306	0.535763
50769	8.582897	-0.085446	-1.587867	-1.091154	-1.584100	-1.298305	-0.462732	0.478044	0.524280	0.531492
50770	8.746141	1.224795	-1.480699	0.193640	-1.499009	-0.986419	-0.467978	0.471036	0.531359	0.526099
50771	8.855922	2.095132	-1.698001	1.060976	-1.668212	-0.768839	-0.472491	0.465352	0.538203	0.520132
50772	9.402724	2.925185	-1.836759	1.840644	-1.701454	-0.114343	-0.475878	0.460569	0.545129	0.514052
50773	9.954786	2.982999	-1.578788	1.822885	-1.338478	0.452461	-0.478402	0.456389	0.551801	0.508287
50774	9.934387	2.199662	-1.414020	1.035616	-1.132640	0.344767	-0.480478	0.452720	0.558254	0.502532
50775	9.424619	1.398854	-1.598313	0.326108	-1.306012	-0.245963	-0.482528	0.449158	0.564889	0.496311
50776	9.012475	1.518588	-1.473825	0.489815	-1.091574	-0.632768	-0.484995	0.445327	0.571535	0.489706
50777	8.975305	1.868508	-1.918600	0.906086	-1.408787	-0.597358	-0.487751	0.441276	0.577380	0.483742
50778	9.126399	2.422848	-1.464990	1.374487	-0.800643	-0.390539	-0.491165	0.436463	0.583117	0.477737
50779	9.085032	2.345827	-1.330257	1.289303	-0.617190	-0.444294	-0.494861	0.431510	0.588293	0.472041
50780	9.011502	2.300493	-1.244055	1.248882	-0.486834	-0.525593	-0.498776	0.426678	0.593168	0.466175
50781	8.678121	1.813405	-1.341325	0.858597	-0.643730	-0.910688	-0.503284	0.421399	0.598067	0.459831
50782	8.294606	1.395692	-1.674781	0.609763	-1.028587	-1.320147	-0.508159	0.415586	0.603683	0.452359
50783	8.639364	1.563761	-1.682385	0.761742	-0.927420	-0.954155	-0.513932	0.408441	0.610168	0.443559
50784	8.952026	2.005456	-2.042689	1.285213	-1.070889	-0.564235	-0.520835	0.400259	0.616797	0.433688
50785	9.187170	2.623240	-1.959315	1.870789	-0.701779	-0.266442	-0.528338	0.392017	0.623258	0.422765
50786	9.354711	3.773964	-1.785704	2.924152	-0.013187	0.005113	-0.535856	0.384482	0.629180	0.411297
50787	9.135113	4.437706	-1.442915	3.489865	0.696686	-0.191942	-0.542515	0.378692	0.633883	0.400578
50788	8.723778	4.191400	-2.187510	3.658198	0.055163	-0.589367	-0.548174	0.373861	0.638151	0.390507
50789	8.719808	3.964305	-2.436292	3.609290	-0.122610	-0.612549	-0.552988	0.369239	0.642098	0.381546
50790	9.003145	2.775566	-3.650661	3.101445	-1.608890	-0.332228	-0.556874	0.365176	0.645229	0.374456
50791	10.572618	3.278241	-2.647364	2.972407	-0.330499	1.168688	-0.560513	0.360832	0.648022	0.368365
50792	11.919386	2.123082	-1.850506	1.476881	-0.070057	2.345331	-0.563166	0.358098	0.649097	0.365080
50793	12.469446	0.784930	-1.028073	-0.114754	0.025170	2.723112	-0.565317	0.355509	0.649740	0.363136
50794	12.709662	-0.895022	-0.342575	-1.919114	-0.227888	2.785675	-0.567313	0.352229	0.650367	0.362096
50795	12.129288	-1.530525	0.712092	-2.925125	0.277052	2.075770	-0.569952	0.347654	0.651085	0.361081
50796	10.382051	-0.635756	1.402978	-2.328203	1.183548	0.352826	-0.572857	0.342311	0.652264	0.359458
50797	8.595619	1.136020	1.868846	-0.881859	2.377775	-1.313512	-0.575816	0.337571	0.652675	0.358465
50798	7.009323	1.680742	1.471952	-0.060677	2.247443	-2.807877	-0.579214	0.333415	0.652802	0.356644
50799	7.078008	2.792575	1.239183	1.000499	2.611079	-2.628438	-0.583815	0.329837	0.651850	0.354202
50800	7.554198	2.472228	0.962374	0.866971	2.183409	-2.158616	-0.588979	0.327162	0.649917	0.351678
50801	8.724549	2.537877	-0.250300	1.534995	1.185087	-0.932361	-0.593965	0.324669	0.648415	0.348359
50802	9.392272	2.987807	-0.830985	2.239679	0.947087	-0.225257	-0.598403	0.322080	0.647652	0.344565
50803	9.789574	2.903096	-2.145376	2.930516	-0.175615	0.199674	-0.601959	0.318784	0.647939	0.340878
50804	9.648306	2.890773	-1.780436	2.759099	0.133216	0.035453	-0.605649	0.314158	0.648657	0.337250
50805	9.473321	2.270433	-1.148042	1.923228	0.296533	-0.198641	-0.609166	0.309270	0.649732	0.333343
50806	9.892785	2.017748	-0.889484	1.556603	0.353654	0.196388	-0.612322	0.304320	0.651116	0.329391
50807	10.667550	1.824098	-0.141351	0.898743	0.816419	0.942292	-0.614744	0.298525	0.653329	0.325782
50808	11.132527	2.290208	-0.655113	1.488878	0.684534	1.453241	-0.614776	0.291564	0.657873	0.322868
50809	11.993045	2.272098	-1.324445	1.714814	0.125484	2.344276	-0.614706	0.282260	0.663341	0.320069
50810	11.670606	1.996982	-0.685816	1.002388	0.406338	1.997914	-0.616351	0.272216	0.667317	0.317328
50811	11.162916	0.214550	0.709526	-1.266972	0.222625	1.300566	-0.619385	0.264085	0.668836	0.315087
50812	9.711756	-1.603190	1.381246	-2.935770	-0.540150	-0.331945	-0.623236	0.256622	0.669178	0.312926
50813	9.379717	-2.328860	2.275361	-4.037875	-0.485338	-0.755177	-0.626131	0.248716	0.670502	0.310689
50814	10.653565	-3.833591	1.001187	-4.347489	-2.647743	0.350225	-0.627879	0.241196	0.672974	0.307732
50815	11.198905	-4.335536	-0.104040	-3.952327	-3.925702	0.826408	-0.629779	0.233746	0.676298	0.302261
50816	11.060951	-2.737093	-1.212520	-1.990218	-3.607166	0.879999	-0.632305	0.225896	0.680036	0.294471
50817	11.017390	-0.623977	-0.722772	-0.876262	-1.747782	1.071797	-0.635267	0.217617	0.683447	0.286319
50818	10.973591	-0.386184	-0.892193	-0.568963	-1.690662	1.058502	-0.637696	0.209531	0.686537	0.279475
50819	10.770205	-1.212910	-1.518371	-0.571344	-2.725154	0.771302	-0.640461	0.200036	0.689981	0.271520
50820	9.258065	-1.647953	-1.760767	-0.451896	-3.114659	-0.778200	-0.643925	0.189308	0.693372	0.262220
50821	7.854874	-1.113202	-1.463889	-0.174087	-2.408143	-2.115191	-0.647324	0.177897	0.696992	0.252045
50822	7.995941	-1.175083	-1.713672	0.048177	-2.614758	-1.976052	-0.650667	0.166058	0.700601	0.241280
50823	8.158736	-0.826894	-1.469269	0.080813	-2.199580	-1.777607	-0.653822	0.153794	0.704250	0.229990
50824	8.412880	-0.790892	-2.104344	0.677866	-2.500661	-1.499018	-0.656530	0.140821	0.708258	0.217964
50825	8.727566	-0.513290	-2.188468	0.914190	-2.292700	-1.144894	-0.659201	0.127025	0.712130	0.205403
50826	9.216055	-0.236475	-2.257873	1.107525	-2.080529	-0.618452	-0.661809	0.112401	0.715851	0.192177
50827	9.520858	-0.785766	-2.571442	1.203173	-2.686497	-0.367538	-0.664299	0.096864	0.719421	0.178206
50828	9.886131	-1.652780	-2.945964	1.296180	-3.599038	-0.091007	-0.666413	0.079147	0.723508	0.161758
50829	9.978922	-2.559586	-3.493749	1.659796	-4.550214	-0.072375	-0.667686	0.058711	0.728243	0.142865
50830	11.001328	-3.310951	-4.269631	2.327907	-5.454672	0.912998	-0.668700	0.034556	0.732918	0.120319
50831	11.242588	-3.535832	-4.609679	2.887387	-5.563612	1.180130	-0.669747	0.007598	0.736530	0.094359
50832	10.771585	-3.894763	-5.542796	4.163561	-5.672865	0.788084	-0.670182	-0.021604	0.739041	0.064866
50833	10.799324	-2.847153	-7.265332	6.279513	-4.239940	1.144882	-0.671155	-0.050495	0.738808	0.034109
50834	10.436090	-0.191022	-6.272840	5.431230	-0.993300	1.040115	-0.672376	-0.079199	0.735959	0.001268
50835	9.122466	0.648012	-5.950359	5.143923	0.517518	-0.205763	-0.673488	-0.106039	0.730880	-0.031375
50836	8.541139	2.642560	-3.999551	2.756483	2.575125	-0.774472	-0.672245	-0.130255	0.726180	-0.061503
50837	7.408118	2.523181	-1.798353	0.549360	2.194552	-2.108193	-0.669455	-0.152352	0.721599	-0.088964
50838	7.966592	1.847294	-1.032348	-0.114431	1.330228	-1.678774	-0.664689	-0.172267	0.718169	-0.112900
50839	6.386771	5.499581	1.719913	-4.212121	3.645689	-3.258765	-0.660896	-0.189852	0.713262	-0.135758
50840	6.386053	6.378033	0.049205	-3.377830	5.030967	-3.124208	-0.656271	-0.203889	0.709998	-0.153753
50841	7.893911	10.625329	2.353987	-7.821459	7.275010	-1.649263	-0.653226	-0.214395	0.706917	-0.166129
50842	11.113576	13.039371	2.846401	-9.854543	8.592818	1.619084	-0.651777	-0.221314	0.705063	-0.170566
50843	14.346926	12.602982	2.092113	-9.210809	8.173616	4.931681	-0.650773	-0.226123	0.704664	-0.169740
50844	15.572133	6.153985	0.396070	-4.391627	3.431151	5.981560	-0.647424	-0.226774	0.708600	-0.165236
50845	14.172945	-1.283513	-0.566291	0.388139	-2.265579	4.242716	-0.641975	-0.230457	0.712144	-0.166160
50846	12.736753	-3.485525	-1.714038	2.530713	-3.363509	2.820344	-0.637067	-0.235586	0.713514	-0.171882
50847	10.922994	-1.715283	1.744683	-1.192836	-3.577714	0.726499	-0.635495	-0.241265	0.710704	-0.181211
50848	8.856060	-1.722725	2.957763	-1.964771	-4.027932	-1.442452	-0.632277	-0.248059	0.707945	-0.193666
50849	12.966536	12.730336	4.191867	-12.012474	6.171894	3.046360	-0.626836	-0.258503	0.707040	-0.200864
50850	9.360165	11.120890	1.223699	-8.657541	6.824774	-0.260384	-0.620225	-0.265429	0.709648	-0.203146
50851	6.064959	6.950433	1.535065	-6.101480	3.669342	-3.749993	-0.618053	-0.267489	0.710636	-0.203609
50852	6.813951	3.394502	1.497820	-3.897748	0.820808	-3.154633	-0.616261	-0.269772	0.711475	-0.203097
50853	8.085078	2.091728	1.014091	-2.811526	-0.073640	-1.884130	-0.615848	-0.271714	0.711171	-0.202827
50854	8.207719	2.881452	1.457804	-3.658976	0.210963	-1.790096	-0.615942	-0.272827	0.710777	-0.202426
50855	7.645472	3.660966	1.237099	-3.934046	1.015063	-2.270854	-0.616536	-0.272089	0.710861	-0.201315
50856	7.126196	3.959438	1.360108	-4.162523	1.251481	-2.782976	-0.617552	-0.270067	0.711316	-0.199308
50857	7.464655	3.689634	1.377773	-4.015261	1.017691	-2.459144	-0.618916	-0.267286	0.711900	-0.196721
50858	7.470768	3.936437	1.424018	-4.183247	1.221307	-2.440828	-0.620828	-0.263838	0.712209	-0.194219
50859	7.206579	3.758785	1.155640	-3.812085	1.335779	-2.665517	-0.623109	-0.259257	0.712680	-0.191335
50860	7.238642	3.265033	0.997142	-3.354838	1.101193	-2.630441	-0.625636	-0.254103	0.713131	-0.188296
50861	7.134358	3.090306	1.081855	-3.272302	0.991671	-2.746744	-0.628665	-0.248527	0.713304	-0.184966
50862	7.096584	2.938355	1.322082	-3.333845	0.803307	-2.813903	-0.631633	-0.242712	0.713710	-0.180964
50863	7.623321	3.127837	1.554744	-3.633080	0.833804	-2.301324	-0.634583	-0.237250	0.714023	-0.176600
50864	8.360386	3.653438	1.332406	-3.752681	1.375043	-1.503358	-0.637710	-0.232127	0.714124	-0.171668
50865	10.064554	4.565249	1.513043	-4.453381	1.916646	0.233145	-0.641231	-0.227292	0.713755	-0.166479
50866	14.017743	5.825270	2.062186	-5.741595	2.339658	4.195922	-0.645167	-0.222759	0.712830	-0.161277
50867	19.157187	8.963219	3.622170	-8.841783	3.784569	9.369291	-0.650024	-0.215974	0.711989	-0.154582
50868	23.352156	10.111341	2.832237	-8.719907	4.997806	13.736305	-0.654272	-0.204790	0.713536	-0.144414
50869	22.558284	8.602031	0.482657	-5.589036	5.182317	13.100066	-0.659392	-0.190579	0.715152	-0.132054
50870	16.771048	4.107773	-0.361402	-2.225104	2.298469	7.158821	-0.665361	-0.174625	0.716422	-0.116363
50871	13.410797	-0.579797	-2.328137	1.824577	-0.846869	3.661654	-0.671777	-0.159148	0.716495	-0.100111
50872	9.862569	-1.927944	0.497787	-0.103167	-2.844160	-0.162037	-0.679140	-0.144350	0.714593	-0.085376
50873	7.536274	-0.667180	-0.024610	0.078626	-1.256013	-2.352329	-0.686770	-0.127723	0.711970	-0.071642
50874	5.757448	0.120334	0.959557	-0.998442	-0.570502	-4.089077	-0.694706	-0.109769	0.708328	-0.060050
50875	6.198637	-0.137904	-0.915221	0.964157	-0.320522	-3.628305	-0.702654	-0.089689	0.704216	-0.048102
50876	6.634433	-0.951387	-3.441752	3.686445	-0.647469	-3.273839	-0.708730	-0.072178	0.700759	-0.037796
50877	8.272611	-0.279521	-4.339985	4.571022	0.008767	-1.660738	-0.712528	-0.056060	0.698835	-0.028103
50878	8.518494	-0.080147	-5.042109	5.309928	0.182052	-1.460203	-0.715062	-0.039804	0.697701	-0.017766
50879	7.971310	0.229006	-4.115969	4.385005	0.295465	-1.988475	-0.716461	-0.023154	0.697224	-0.005094
50880	8.401857	1.416509	-3.687120	3.969406	1.304699	-1.522230	-0.716691	-0.006092	0.697287	0.010401
50881	8.449121	2.475892	-3.863191	4.227302	2.178347	-1.456718	-0.715781	0.010541	0.697684	0.027990
50882	8.134313	1.518859	-3.638519	4.008585	1.022553	-1.775642	-0.713829	0.027624	0.698174	0.047320
50883	8.406302	-0.065639	-3.566914	3.767269	-0.779118	-1.530825	-0.711044	0.044264	0.698560	0.066868
50884	8.433272	-1.027199	-3.278997	3.233392	-1.895386	-1.513591	-0.707448	0.061254	0.698762	0.086581
50885	8.209905	-0.773487	-2.729310	2.602708	-1.700542	-1.702167	-0.702834	0.078706	0.699008	0.105908
50886	8.075025	0.289705	-2.422831	2.452763	-0.731829	-1.774895	-0.697078	0.096868	0.699322	0.125094
50887	7.986822	1.025775	-2.794387	2.934282	-0.286136	-1.815474	-0.690067	0.115590	0.699679	0.144554
50888	8.422771	1.082151	-2.988292	3.025108	-0.485966	-1.347888	-0.681725	0.135209	0.699816	0.165006
50889	9.254518	0.271915	-2.878014	2.420611	-1.367935	-0.524633	-0.672263	0.157374	0.698859	0.186792
50890	9.788433	1.336367	-1.574890	1.624561	0.052637	0.058322	-0.662448	0.184570	0.694661	0.211051
50891	10.702023	0.332653	-2.018459	1.345326	-1.122886	0.941203	-0.651721	0.216099	0.687292	0.237045
50892	12.011590	-0.397585	-1.782397	0.535389	-1.588464	2.220682	-0.639954	0.249874	0.677129	0.263662
50893	12.114287	-2.474923	-2.195759	-0.753545	-3.301684	2.279683	-0.627160	0.284166	0.664657	0.290090
50894	10.974764	-3.563031	-2.451081	-1.626489	-4.034425	1.151498	-0.613634	0.316795	0.651021	0.315064
50895	9.440999	-3.903378	-2.697255	-2.014787	-4.220449	-0.338634	-0.599163	0.348284	0.636562	0.338365
50896	8.438009	-2.945906	-3.435378	-1.106521	-4.140733	-1.251239	-0.583385	0.379251	0.621506	0.359946
50897	7.842102	-1.811587	-4.432270	0.035510	-4.392433	-1.743033	-0.566042	0.409717	0.605631	0.380711
50898	8.020801	-0.729135	-4.506888	0.718295	-3.986991	-1.520788	-0.547533	0.438983	0.588187	0.401918
50899	8.225290	-0.165515	-4.198876	0.844646	-3.514023	-1.313050	-0.528019	0.466601	0.569231	0.423622
50900	8.497192	-0.502326	-4.575731	0.274628	-3.942603	-0.994356	-0.508673	0.491893	0.548643	0.445291
50901	9.082896	0.499257	-3.798099	0.875668	-3.059765	-0.483258	-0.490158	0.514485	0.525465	0.467907
50902	8.892159	0.910556	-2.368662	1.035574	-1.769255	-0.795814	-0.472980	0.534414	0.501151	0.489427
50903	8.606109	2.923129	-1.060018	3.011768	-0.800734	-1.209574	-0.455011	0.553465	0.476625	0.509383
50904	9.798084	2.800739	-2.458535	2.620894	-2.382002	0.053384	-0.433455	0.572423	0.452447	0.528904
50905	11.072817	0.824682	-1.805860	0.685992	-1.423720	1.325044	-0.412592	0.588517	0.430373	0.546072
50906	11.124267	-0.229708	-1.987564	-0.491206	-1.316816	1.402320	-0.393256	0.603099	0.409179	0.560530
50907	11.268250	-0.305856	-0.905222	-0.229192	-0.257500	1.490746	-0.376074	0.615816	0.389357	0.572485
50908	11.401565	-0.870907	-0.823242	-0.708448	0.059544	1.629622	-0.360482	0.625922	0.371369	0.583403
50909	11.229628	-1.116355	0.032250	-0.545095	0.913788	1.422061	-0.347763	0.632209	0.355757	0.593978
50910	10.214766	-0.930440	0.672243	-0.105222	1.304386	0.382722	-0.336109	0.636829	0.342111	0.603688
50911	9.518887	-1.432275	0.396674	-0.705763	1.293200	-0.291790	-0.325893	0.640184	0.330767	0.612005
50912	8.925290	-2.364194	-0.518705	-2.021048	1.062872	-0.851393	-0.317000	0.642806	0.321775	0.618686
50913	8.315834	-1.989393	-0.256054	-1.598321	1.078780	-1.478550	-0.309375	0.644337	0.314927	0.624450
50914	8.345835	-1.371669	-0.001648	-0.983717	0.927876	-1.463697	-0.301995	0.645354	0.308993	0.629953
50915	8.875761	-1.379272	0.061645	-0.987555	0.997993	-0.940603	-0.295229	0.645750	0.303437	0.635431
50916	9.431929	-1.279022	-0.581089	-1.377745	0.442454	-0.387166	-0.290282	0.644823	0.299048	0.640711
50917	9.914677	-1.323233	-1.494726	-2.091659	-0.236515	0.079436	-0.286194	0.642968	0.294700	0.646404
50918	10.663888	-1.682190	-1.521554	-2.497063	-0.045569	0.799796	-0.282490	0.640560	0.290280	0.652396
50919	11.367760	-2.144341	-2.093484	-3.359147	-0.181011	1.451805	-0.278008	0.638314	0.286775	0.658047
50920	11.181614	-1.593729	-3.015823	-3.694798	-1.205831	1.212576	-0.272676	0.636555	0.284942	0.662762
50921	10.209824	-0.782867	-2.711061	-2.959282	-1.476379	0.250370	-0.267011	0.635958	0.283492	0.666254
50922	9.419360	-0.785626	-3.023502	-3.209522	-1.629160	-0.564598	-0.261391	0.636515	0.282190	0.668500
50923	8.424370	-1.083468	-3.080452	-3.452220	-1.388962	-1.579495	-0.255956	0.637508	0.280867	0.670212
50924	7.798774	-0.981968	-2.122023	-2.707101	-0.720697	-2.168089	-0.250777	0.637761	0.279869	0.672343
50925	7.521704	-1.366085	-1.839710	-2.797447	-0.188958	-2.466614	-0.245041	0.638051	0.279506	0.674331
50926	8.676799	-2.031186	-1.735640	-3.309168	0.458092	-1.370896	-0.239595	0.638052	0.279920	0.676113
50927	9.345236	-2.268039	-1.674348	-3.530789	0.759958	-0.744269	-0.235079	0.637082	0.280135	0.678519
50928	8.857004	-2.176053	-1.139192	-3.095497	1.091142	-1.227446	-0.231684	0.635514	0.279932	0.681236
50929	8.955968	-1.269458	-0.615043	-2.157740	0.814686	-1.044596	-0.229244	0.634483	0.279764	0.683088
50930	9.731612	-0.245082	0.165219	-0.997246	0.632348	-0.148461	-0.227049	0.634813	0.278014	0.684229
50931	10.671043	0.113257	0.059248	-0.904702	0.333600	0.815458	-0.225442	0.637519	0.275053	0.683440
50932	11.794594	-0.168647	-0.980797	-1.879919	-0.106755	1.873037	-0.224586	0.641936	0.271606	0.680962
50933	11.948824	-0.780927	-1.238863	-2.365019	0.187944	1.989387	-0.224813	0.646150	0.268390	0.678172
50934	11.214186	-0.684809	0.441613	-0.863827	1.179616	1.335540	-0.226437	0.649630	0.265171	0.675567
50935	11.044681	1.454989	1.352493	1.353450	0.113596	1.326657	-0.228690	0.652899	0.261255	0.673178
50936	10.662977	3.794626	2.238100	3.688278	-1.174580	1.055693	-0.229253	0.657289	0.253829	0.671554
50937	11.337742	4.584863	1.324919	3.594369	-2.495923	1.683748	-0.227102	0.663640	0.243249	0.669952
50938	12.246381	5.784567	0.758678	3.974984	-3.947426	2.541428	-0.222179	0.669977	0.230754	0.669716
50939	11.928383	4.716982	0.415966	3.076495	-3.491354	2.147771	-0.214341	0.676026	0.217368	0.670669
50940	10.897515	4.122753	-0.017609	2.358459	-3.406103	1.077119	-0.204683	0.681700	0.203571	0.672272
50941	10.318325	3.824289	-0.472740	1.764400	-3.518558	0.474300	-0.193549	0.687774	0.188958	0.673647
50942	9.562955	3.466083	-1.070176	0.997230	-3.603328	-0.292716	-0.181506	0.693934	0.173296	0.674893
50943	9.103620	3.841614	-1.117284	1.044041	-4.016554	-0.776201	-0.168234	0.699936	0.156448	0.676248
50944	8.776219	4.323718	-1.406406	0.855121	-4.637044	-1.126018	-0.153057	0.705183	0.138455	0.678322
50945	8.427806	4.906470	-1.610596	0.685136	-5.292878	-1.493664	-0.135578	0.709663	0.119928	0.680893
50946	9.138599	4.910951	-2.010512	0.075204	-5.462390	-0.767045	-0.115588	0.714048	0.100524	0.683132
50947	9.026639	3.073130	-2.596974	-1.289302	-3.827352	-0.793072	-0.093409	0.718621	0.079528	0.684496
50948	9.052462	3.107435	-2.733681	-1.614229	-3.770480	-0.743582	-0.069042	0.722878	0.055495	0.685274
50949	8.409952	3.397000	-3.627829	-2.688086	-4.022733	-1.326766	-0.041961	0.727727	0.028992	0.683968
50950	8.711336	5.180900	-5.082465	-4.229897	-5.644142	-0.936486	-0.011776	0.732098	-0.000285	0.681097
50951	9.850539	5.393092	-6.633629	-6.088192	-5.412314	0.371639	0.021118	0.734821	-0.032125	0.677171
50952	9.708319	3.835824	-6.917837	-6.594117	-3.182241	0.344383	0.056453	0.734495	-0.066586	0.672975
50953	8.980483	2.312064	-6.869903	-6.483511	-0.978059	-0.317501	0.091577	0.732722	-0.101039	0.666726
50954	7.832370	1.413735	-6.684634	-6.107307	0.530536	-1.421467	0.126447	0.729820	-0.134690	0.658204
50955	7.416913	0.498200	-6.655076	-5.579753	1.991362	-1.786734	0.160007	0.726380	-0.166520	0.647333
50956	6.172783	-0.523699	-4.414602	-2.975181	2.381660	-3.230154	0.189876	0.721288	-0.194046	0.637211
50957	4.923676	-0.982797	-2.964527	-1.391178	2.265978	-4.624074	0.213957	0.718062	-0.216842	0.625771
50958	6.070478	-2.338245	-2.036959	0.497362	2.847566	-3.639605	0.234079	0.714343	-0.235919	0.615843
50959	6.054734	-6.032440	-0.822066	3.953288	4.920396	-3.991895	0.250473	0.708624	-0.248560	0.611010
50960	8.606037	-10.983336	0.778560	8.924211	7.342038	-1.954725	0.264194	0.702600	-0.257590	0.608442
50961	12.600425	-13.391095	-1.040641	9.845549	10.087784	2.039602	0.270209	0.696909	-0.260599	0.611059
50962	14.495425	-13.701844	4.685511	14.352769	6.272069	3.396003	0.273586	0.692215	-0.263293	0.613732
50963	19.192906	-12.442790	0.847921	11.058342	7.996562	8.563095	0.270353	0.690072	-0.260409	0.618787
50964	15.739907	-2.968707	1.078050	4.249390	1.158969	5.624903	0.262484	0.693711	-0.252886	0.621221
50965	15.878863	10.908423	-0.282841	-5.979586	-8.165877	6.581591	0.261993	0.696820	-0.250129	0.619061
50966	13.861339	8.252370	-1.676554	-5.346975	-5.133284	4.613127	0.271647	0.695683	-0.253624	0.614742
50967	9.526129	2.157016	2.217503	1.150764	-3.171853	-0.382319	0.284288	0.692824	-0.259303	0.609866
50968	7.012909	-5.371327	2.492325	6.371755	1.937014	-3.496900	0.293451	0.691781	-0.266751	0.603465
50969	8.371432	-12.041860	1.593166	10.848508	6.979865	-2.656667	0.298353	0.691091	-0.274541	0.598336
50970	10.689268	-12.036745	0.354430	10.375789	7.693875	-0.199394	0.294620	0.691878	-0.276914	0.598183
50971	10.312266	-6.530490	1.038460	6.686828	3.445791	-0.144199	0.289531	0.690759	-0.276142	0.602303
50972	9.246526	-2.095827	1.185981	3.345978	0.351495	-0.869674	0.285410	0.689392	-0.274708	0.606478
50973	8.090214	-1.055954	0.118933	1.679900	0.443724	-1.840133	0.282315	0.688936	-0.273411	0.609025
50974	7.991030	-1.703622	-0.187263	1.884820	1.123335	-1.939985	0.279346	0.689240	-0.271298	0.610992
50975	8.370132	-2.056967	0.213272	2.422958	1.093316	-1.610887	0.275667	0.690115	-0.267977	0.613137
50976	8.133277	-2.450056	0.965016	3.174775	0.882105	-1.924299	0.272145	0.690536	-0.264199	0.615870
50977	7.381502	-2.629083	1.067803	3.269050	1.000531	-2.681709	0.268193	0.691285	-0.260013	0.618540
50978	6.670937	-1.514403	1.092923	2.438403	0.226691	-3.332562	0.263572	0.693015	-0.255403	0.620507
50979	6.178552	-0.904445	0.833131	1.791915	-0.013429	-3.773195	0.259641	0.695101	-0.251357	0.621483
50980	5.863368	-0.846145	0.701662	1.641049	0.049167	-4.077543	0.256245	0.697798	-0.247655	0.621356
50981	6.043043	-1.104786	0.857201	1.972410	0.143494	-3.933690	0.253202	0.701138	-0.244326	0.620161
50982	6.996218	-2.252984	1.011616	2.970152	0.897897	-3.073384	0.250555	0.704487	-0.241316	0.618617
50983	7.755762	-3.089964	1.180428	3.759368	1.422730	-2.400811	0.247653	0.708150	-0.237809	0.616959
50984	8.716002	-3.132067	0.883989	3.722322	1.637100	-1.444663	0.244516	0.712480	-0.233923	0.614707
50985	10.598254	-3.047791	0.731741	3.863528	1.629649	0.412973	0.241816	0.716956	-0.230228	0.611959
50986	13.265649	-3.838325	0.815555	4.892119	2.116409	2.952956	0.239834	0.721544	-0.227802	0.608243
50987	17.183067	-5.835156	0.350519	6.491639	3.828367	6.698793	0.238530	0.725946	-0.225963	0.604190
50988	20.042037	-5.727144	0.637041	7.281354	3.475271	9.417243	0.235561	0.730939	-0.221160	0.601105
50989	22.084613	-6.557855	-0.547929	7.380654	4.853315	11.471189	0.231056	0.736580	-0.213742	0.598646
50990	20.975607	-7.059714	-1.610905	6.726168	6.050905	10.449433	0.223729	0.742109	-0.203238	0.598260
50991	18.123555	-4.896110	-3.130523	3.708982	5.341352	8.074394	0.212343	0.748088	-0.189667	0.599417
50992	15.469349	-1.711491	-3.910427	0.724119	3.215618	5.892552	0.200694	0.751083	-0.174114	0.604384
50993	11.471732	-1.689513	-2.617971	0.810622	2.684189	1.738992	0.191065	0.750049	-0.158849	0.612933
50994	8.023411	-2.575176	-1.590908	1.229252	3.081004	-1.905172	0.178446	0.749421	-0.141154	0.621772
50995	7.018638	0.489317	-0.737817	0.341439	0.024860	-2.746797	0.163512	0.748619	-0.119108	0.631385
50996	7.729759	2.274982	0.639323	0.995413	-2.024921	-2.051206	0.148795	0.746138	-0.095847	0.641834
50997	8.469741	2.117184	-0.770522	-0.183937	-1.265095	-1.142166	0.133640	0.743556	-0.074374	0.650948
50998	9.394203	0.337634	-2.499921	-1.332482	1.009276	-0.230545	0.117869	0.740292	-0.054639	0.659613
50999	9.952042	0.078091	-4.601824	-3.447706	1.713561	0.453599	0.100385	0.737199	-0.033771	0.667323
51000	9.822799	-0.397980	-5.659174	-4.651362	2.163364	0.303931	0.081186	0.733622	-0.010493	0.674609
51001	8.652940	1.079893	-5.600320	-5.047539	0.303322	-0.767046	0.059159	0.729757	0.015107	0.680975
51002	7.698731	2.533328	-5.234544	-4.868763	-1.583949	-1.635551	0.035983	0.724815	0.040221	0.686826
51003	6.664982	3.483556	-5.161398	-4.752101	-2.974965	-2.618736	0.011723	0.719248	0.065080	0.691600
51004	6.438486	4.551680	-4.824544	-4.138262	-4.349825	-2.784954	-0.012735	0.713863	0.090399	0.694309
51005	6.608042	5.497427	-4.289910	-3.161746	-5.437643	-2.552342	-0.036424	0.709208	0.114432	0.694696
51006	6.804948	5.009068	-4.379873	-3.014913	-5.179851	-2.420303	-0.060199	0.704671	0.137295	0.693516
51007	6.666246	5.073390	-3.553735	-1.871841	-5.195496	-2.580811	-0.082337	0.700204	0.158092	0.691333
51008	6.245083	3.898025	-2.903849	-1.375169	-4.031297	-3.143350	-0.103160	0.695458	0.177693	0.688565
51009	5.767899	2.709330	-2.141854	-0.938849	-2.768916	-3.759091	-0.122473	0.690461	0.196107	0.685424
51010	5.383380	1.892888	-2.023963	-1.055397	-2.088214	-4.228385	-0.140689	0.684995	0.213605	0.682174
51011	5.694652	1.222960	-1.959634	-1.253947	-1.517746	-3.991342	-0.158720	0.678077	0.230324	0.679684
51012	6.738034	1.618450	-1.327823	-0.495976	-1.487149	-2.933336	-0.177433	0.670057	0.246329	0.677394
51013	8.583230	3.021750	-0.907226	0.637416	-2.275069	-0.978503	-0.196183	0.662353	0.260523	0.674484
51014	10.363702	4.027459	-0.697096	1.446811	-2.812189	0.869498	-0.213748	0.656278	0.273778	0.669819
51015	11.506900	5.802985	0.035935	3.271907	-3.537636	2.139718	-0.228458	0.652178	0.285666	0.663977
51016	10.797758	6.913225	-0.210797	4.090544	-4.416817	1.509053	-0.239120	0.649486	0.296977	0.657871
51017	9.573567	6.260124	-1.472990	2.987382	-4.766124	0.255448	-0.246353	0.647733	0.307315	0.652157
51018	7.659286	3.967000	-2.049669	1.169206	-3.625374	-1.807042	-0.252451	0.646438	0.317434	0.646237
51019	7.331094	2.489185	-2.592031	-0.152074	-2.989662	-2.216844	-0.258562	0.645403	0.327609	0.639744
51020	8.228107	2.726939	-2.356676	0.267699	-2.813576	-1.286141	-0.265167	0.643904	0.338692	0.632742
51021	10.035803	4.282951	-1.818815	1.870168	-3.081484	0.645465	-0.270685	0.642083	0.349441	0.626379
51022	11.002181	4.782067	-0.882882	2.892320	-2.396673	1.614650	-0.275131	0.639639	0.358388	0.621870
51023	11.281954	3.533521	-0.251068	2.282485	-1.017345	1.745259	-0.280637	0.635558	0.366096	0.619099
51024	10.456584	2.460573	0.207529	1.682173	-0.064144	0.798793	-0.286915	0.630025	0.374195	0.617031
51025	10.522609	2.504646	0.069895	1.591242	-0.155272	0.885301	-0.294240	0.623295	0.383071	0.614966
51026	11.449669	1.433187	0.267031	0.675540	0.691909	1.688819	-0.300677	0.616947	0.390519	0.613567
51027	11.752386	-0.990376	-0.417724	-1.841576	1.347618	1.765996	-0.307079	0.611423	0.398127	0.611031
51028	11.427300	-2.007296	-0.583116	-2.842223	1.612960	1.335045	-0.313335	0.606579	0.404559	0.608453
51029	10.465280	-2.312489	-0.949438	-3.256897	1.260851	0.364406	-0.319075	0.602385	0.408596	0.606937
51030	10.192445	-2.377121	-0.150295	-2.957843	1.874845	0.051099	-0.324611	0.598290	0.410462	0.606793
51031	10.626062	-1.873236	0.553965	-2.261564	2.210954	0.518093	-0.330374	0.594340	0.411966	0.606546
51032	10.948073	-0.648922	0.962854	-1.046971	1.967804	0.968737	-0.336680	0.590018	0.413729	0.606097
51033	10.334347	0.663049	1.013755	0.181854	1.325807	0.505971	-0.342564	0.586378	0.414852	0.605565
51034	9.778335	0.911132	-0.238517	-0.069425	-0.028730	0.010580	-0.347973	0.583729	0.414409	0.605343
51035	8.950336	0.239139	-0.203025	-0.587149	0.128725	-0.877127	-0.353102	0.580758	0.411066	0.607506
51036	8.544996	-0.152390	0.387736	-0.657112	0.710684	-1.312505	-0.360133	0.577730	0.411893	0.605703
51037	10.093982	0.743382	-0.322797	-0.209665	-0.322925	0.306427	-0.366904	0.574612	0.413157	0.603742
51038	9.556598	1.909594	-0.798523	0.758217	-1.283129	-0.148782	-0.373133	0.571328	0.414603	0.602047
51039	8.849287	2.846363	-1.890008	1.310028	-2.690376	-0.811059	-0.377428	0.569058	0.416052	0.600518
51040	8.492049	2.843137	-3.062125	0.943160	-3.798770	-1.195574	-0.379802	0.567834	0.417083	0.599464
51041	8.316115	3.747623	-2.595734	1.988259	-3.689586	-1.305394	-0.381184	0.567039	0.417951	0.598735
51042	8.106712	3.680879	-2.160437	2.106832	-3.254397	-1.511767	-0.381247	0.567295	0.418256	0.598238
51043	8.434086	3.168339	-1.835758	1.730837	-2.756028	-1.213230	-0.380867	0.568391	0.418130	0.597528
51044	8.694171	2.171864	-1.212916	1.024230	-1.805254	-1.011057	-0.381267	0.569433	0.418157	0.596260
51045	8.609111	1.455961	-1.719571	0.214965	-2.014319	-1.147255	-0.382739	0.569879	0.419073	0.594244
51046	8.647996	1.010395	-1.258017	-0.003254	-1.414685	-1.129956	-0.385983	0.569029	0.421480	0.591251
51047	9.437904	1.362121	-0.534000	0.567263	-0.832752	-0.315364	-0.390343	0.567159	0.424791	0.587806
51048	9.844144	0.960250	0.537985	0.544829	0.327709	0.072372	-0.394289	0.565256	0.427924	0.584724
51049	10.458962	0.973933	0.119809	0.398865	-0.046480	0.684525	-0.397822	0.562384	0.432747	0.581543
51050	9.941308	2.103383	-0.973663	1.158419	-1.390137	0.233558	-0.400996	0.557856	0.440197	0.578123
51051	9.907588	3.059176	0.622312	2.478372	-0.058570	0.274894	-0.403554	0.552087	0.447969	0.575905
51052	10.197027	1.956848	0.609673	1.314014	0.298789	0.500585	-0.405545	0.547007	0.455058	0.573793
51053	10.211589	-0.751641	0.351039	-1.444264	0.759110	0.301764	-0.407611	0.542360	0.461148	0.571875
51054	10.457691	-2.898408	0.965719	-3.485235	1.839720	0.344283	-0.411350	0.536212	0.467616	0.569739
51055	10.451565	-4.314447	0.625302	-5.042339	1.731739	0.178031	-0.415925	0.528892	0.475741	0.566524
51056	10.819821	-4.724712	0.569627	-5.608219	1.638711	0.462288	-0.422063	0.520053	0.485615	0.561771
51057	11.065459	-4.620206	-0.317923	-5.773105	0.585156	0.685758	-0.430261	0.510779	0.495635	0.555272
51058	11.447299	-3.609114	-0.061211	-4.821717	0.529703	1.166279	-0.440590	0.501815	0.504298	0.547490
51059	11.433369	-2.244222	-0.135091	-3.469314	0.158115	1.309973	-0.451960	0.492636	0.512537	0.538839
51060	11.054962	-2.659429	-0.651231	-3.842759	-0.483953	0.897397	-0.462494	0.483099	0.521552	0.529810
51061	10.941804	-2.026625	-1.246364	-3.180499	-1.221135	0.853887	-0.472755	0.471920	0.532872	0.519463
51062	10.443745	-1.337217	-1.793802	-2.387535	-1.848985	0.432207	-0.482699	0.459751	0.544611	0.508950
51063	10.277385	-0.755665	-2.131771	-1.707318	-2.213149	0.332579	-0.493021	0.447015	0.556450	0.497465
51064	9.600537	-0.927766	-2.109913	-1.713174	-2.264901	-0.356641	-0.504075	0.434165	0.567442	0.485199
51065	9.017463	-1.060685	-2.229155	-1.638118	-2.457955	-0.942400	-0.515726	0.421287	0.578187	0.471427
51066	8.997136	-0.762412	-2.842358	-1.059600	-3.030539	-0.907687	-0.527608	0.407905	0.589315	0.456017
51067	9.570911	0.037750	-3.354134	-0.031384	-3.307045	-0.225563	-0.539257	0.393636	0.600866	0.439560
51068	9.428776	0.392125	-3.996264	0.728354	-3.737589	-0.298442	-0.550940	0.377906	0.612576	0.422377
51069	9.565229	1.287683	-3.801446	1.674158	-3.113018	-0.060533	-0.562122	0.360706	0.624860	0.404303
51070	10.101800	1.278982	-3.679977	1.728647	-2.859461	0.485639	-0.572596	0.343141	0.636761	0.385907
51071	10.296958	0.892083	-3.829234	1.607365	-3.018653	0.665177	-0.582614	0.326005	0.647766	0.366988
51072	9.648160	0.486307	-4.064671	1.635470	-3.269555	0.009510	-0.591720	0.310055	0.657286	0.348867
51073	8.891975	0.372452	-4.120220	1.818571	-3.212578	-0.726976	-0.598887	0.293751	0.667607	0.330673
51074	8.065451	0.664564	-4.405040	2.433715	-3.070809	-1.473575	-0.604199	0.275789	0.678892	0.313034
51075	7.495570	0.286707	-4.387909	2.292641	-3.122602	-2.033884	-0.607711	0.256259	0.690884	0.296139
51076	7.244295	-0.386197	-4.012003	1.651572	-3.172208	-2.333867	-0.609521	0.236094	0.703331	0.279407
51077	7.230924	-0.300195	-4.803265	2.348582	-3.489264	-2.213100	-0.610094	0.215750	0.715883	0.262201
51078	7.720629	-0.359132	-4.726441	2.231966	-3.330212	-1.688519	-0.610781	0.195550	0.726746	0.246062
51079	7.897547	-0.557157	-4.530505	1.984914	-3.232003	-1.516942	-0.611679	0.174860	0.736722	0.229161
51080	8.160267	1.355810	-2.962261	1.660175	-0.649127	-1.208958	-0.613517	0.154699	0.744809	0.211953
51081	7.165021	2.043637	-2.806667	1.995415	0.177435	-2.107048	-0.615792	0.137612	0.750357	0.197049
51082	8.181989	4.371762	-0.422616	0.610359	3.384904	-1.187038	-0.617989	0.120302	0.755495	0.181232
51083	8.814508	8.431661	0.065650	1.412540	7.319297	-0.157786	-0.621877	0.104915	0.757869	0.167024
51084	10.499294	9.453078	1.689877	-0.305898	8.839919	1.332210	-0.623732	0.095449	0.759634	0.157491
51085	14.525333	9.973963	2.670521	-1.990429	9.466252	5.154755	-0.626502	0.090174	0.759365	0.150759
51086	14.315816	7.788223	2.643244	-2.661307	7.434111	4.686866	-0.627559	0.090452	0.758800	0.149028
51087	14.525953	5.651624	0.765160	-1.608050	4.810972	4.945303	-0.627242	0.092458	0.758571	0.150298
51088	13.808123	4.404519	0.955741	-2.012791	3.741715	4.077073	-0.628129	0.093674	0.757366	0.151905
51089	12.182282	4.205167	2.491157	-3.112435	4.139626	2.248486	-0.631397	0.094731	0.754028	0.154290
51090	11.237649	4.221848	3.444182	-3.694328	4.515129	1.229727	-0.634077	0.097613	0.750588	0.158228
51091	11.053126	3.544720	1.933709	-2.367670	3.347599	1.217373	-0.635924	0.101751	0.747347	0.163460
51092	10.586432	3.099948	0.715952	-1.204136	2.487718	0.890331	-0.638629	0.105007	0.743450	0.168552
51093	9.429424	2.588824	1.062407	-1.412575	2.175430	-0.325035	-0.641577	0.107870	0.739256	0.173906
51094	9.070081	1.704123	1.119396	-1.639700	1.367987	-0.764898	-0.644277	0.110814	0.735188	0.179240
51095	9.056564	1.433154	1.326774	-1.836585	1.171365	-0.807710	-0.646835	0.113957	0.731194	0.184320
51096	8.598636	1.535050	1.462528	-1.772099	1.327677	-1.237831	-0.649278	0.116593	0.727492	0.188679
51097	8.230547	1.130025	1.171143	-1.553562	0.842669	-1.611083	-0.651496	0.118665	0.724142	0.192587
51098	7.883825	1.408446	0.982755	-1.165670	1.013687	-1.893248	-0.653665	0.119651	0.721244	0.195483
51099	7.994770	1.551001	0.811470	-0.908088	1.028324	-1.744351	-0.655920	0.119818	0.718674	0.197281
51100	8.569698	1.755856	0.821440	-0.833839	1.136991	-1.140366	-0.658121	0.120189	0.716215	0.198664
51101	9.041173	1.931869	0.840164	-0.761208	1.236731	-0.643636	-0.660427	0.120728	0.713726	0.199638
51102	9.377049	2.240788	0.729113	-0.487504	1.412158	-0.260234	-0.663123	0.121739	0.710693	0.200906
51103	9.166589	2.113549	0.907710	-0.595730	1.376192	-0.481680	-0.666391	0.123492	0.706798	0.202752
51104	8.521567	1.437984	0.770398	-0.623987	0.756178	-1.191990	-0.669722	0.125737	0.702532	0.205212
51105	8.183050	0.472120	0.051979	-0.298634	-0.414780	-1.631858	-0.673011	0.128624	0.697800	0.208774
51106	7.717777	-0.489048	-0.191533	-0.415202	-1.356000	-2.208195	-0.676144	0.131317	0.693057	0.212735
51107	7.534153	-1.016750	-0.653143	-0.180557	-2.047853	-2.464411	-0.679007	0.133137	0.688787	0.216322
51108	7.542248	-1.586991	-0.926355	-0.159444	-2.709677	-2.539850	-0.681440	0.134695	0.685091	0.219426
51109	7.854201	-1.789393	-0.868432	-0.272258	-2.921395	-2.260488	-0.683659	0.135925	0.682018	0.221328
51110	8.313350	-1.661256	-1.305042	0.206980	-3.093776	-1.815175	-0.685729	0.136662	0.679509	0.222184
51111	8.470558	-1.474482	-1.649274	0.635329	-3.132214	-1.662225	-0.687242	0.137019	0.677665	0.222922
51112	9.101153	-1.002170	-2.155125	1.319708	-3.063975	-1.017786	-0.687527	0.137136	0.676936	0.224183
51113	10.533770	-0.615471	-2.693452	1.951331	-3.203528	0.410975	-0.686517	0.138110	0.676696	0.227382
51114	12.251416	0.255246	-2.911285	2.488034	-2.838920	2.203427	-0.683740	0.139819	0.677393	0.232571
51115	13.460850	0.696162	-3.548768	3.122983	-3.049625	3.424237	-0.679774	0.143823	0.677224	0.242054
51116	12.899229	0.366201	-2.141520	1.612391	-2.667939	2.891201	-0.674753	0.148630	0.676947	0.253692
51117	11.575226	0.866229	-2.160915	1.781045	-2.200299	1.649803	-0.668145	0.156340	0.676656	0.266977
51118	11.328820	1.343447	-1.442727	1.297024	-1.449325	1.520583	-0.659497	0.167323	0.677520	0.279343
51119	12.917691	1.803221	-0.987980	0.913426	-1.035399	3.194412	-0.649300	0.181397	0.679057	0.290492
51120	12.717108	1.870928	-1.433754	1.133142	-1.153673	3.019397	-0.638484	0.197800	0.680025	0.301296
51121	12.184201	0.981614	-1.263443	0.324878	-1.526105	2.376540	-0.628532	0.216509	0.678614	0.312336
51122	9.480918	1.387969	1.786310	-1.338430	1.293290	-0.245086	-0.620987	0.234878	0.674246	0.323419
51123	8.042956	2.121113	2.309121	-0.898404	2.427525	-1.577559	-0.613671	0.254282	0.667786	0.335874
51124	7.835919	3.998096	0.928149	1.609947	2.658425	-1.531057	-0.606830	0.274072	0.660021	0.347872
51125	6.844612	3.664954	0.282201	2.049019	1.965803	-2.581248	-0.599167	0.297034	0.649622	0.361607
51126	8.390380	4.605386	-0.827139	3.476190	1.396389	-0.966550	-0.589845	0.320676	0.638870	0.375627
51127	10.515869	3.786225	-1.538889	3.083653	0.133735	1.038947	-0.579746	0.343027	0.627284	0.390821
51128	11.581629	2.369788	-1.668773	1.854620	-0.773606	1.955764	-0.568137	0.364488	0.615946	0.406177
51129	11.427947	2.092935	-1.554156	1.569179	-0.822129	1.774179	-0.555514	0.385498	0.604750	0.420800
51130	10.192509	1.619374	-1.737894	1.276429	-1.165064	0.509288	-0.542721	0.405969	0.593335	0.434278
51131	9.762341	1.760527	-2.013483	1.499838	-1.403024	0.098859	-0.530168	0.426088	0.580938	0.447081
51132	9.355836	0.871398	-2.093531	0.655036	-1.715830	-0.362787	-0.517482	0.446054	0.566969	0.460211
51133	9.658089	0.165148	-2.191089	-0.088488	-1.915635	-0.095233	-0.504302	0.465107	0.552755	0.473093
51134	10.149359	0.607352	-2.219385	0.257733	-1.842118	0.426634	-0.490329	0.482586	0.539147	0.485808
51135	10.589863	1.465890	-2.482022	1.010921	-2.029206	0.925732	-0.475257	0.498797	0.525820	0.498845
51136	10.908979	2.014697	-2.964383	1.403405	-2.519421	1.301846	-0.459195	0.513899	0.513083	0.511657
51137	10.819660	1.596102	-3.403124	0.774135	-2.960383	1.224826	-0.442458	0.527686	0.500563	0.524609
51138	10.271706	1.246875	-3.924192	0.165549	-3.461710	0.696629	-0.425419	0.540569	0.487793	0.537459
51139	9.176511	1.054460	-3.994825	-0.229301	-3.535599	-0.393542	-0.407925	0.553039	0.474434	0.550143
51140	8.344597	1.235375	-4.255215	-0.324147	-3.837231	-1.185430	-0.389881	0.564772	0.461481	0.562192
51141	7.670985	1.395512	-4.363992	-0.437221	-3.975458	-1.823111	-0.370655	0.576415	0.448200	0.574002
51142	6.693271	1.673246	-4.500277	-0.441828	-4.202436	-2.742384	-0.350624	0.588544	0.434587	0.584648
51143	5.955127	1.492760	-4.721808	-0.922346	-4.317330	-3.449501	-0.330374	0.601146	0.420729	0.593687
51144	5.427677	1.738031	-4.232779	-0.707987	-3.931903	-3.944935	-0.310314	0.613968	0.406856	0.601013
51145	5.090332	1.245678	-4.279142	-1.355898	-3.661789	-4.288010	-0.289993	0.627389	0.392510	0.606814
51146	5.172985	0.587919	-3.139716	-1.468720	-2.205595	-4.341048	-0.270223	0.640666	0.377911	0.611318
51147	5.755151	-1.368357	-2.779959	-2.947108	-0.549037	-4.004788	-0.251148	0.652508	0.363336	0.615748
51148	6.170817	-3.996423	-0.687629	-3.686830	2.945624	-4.133853	-0.235958	0.661218	0.352522	0.618743
51149	8.200177	-4.201331	0.776361	-2.796349	4.690002	-2.350968	-0.223807	0.668027	0.344026	0.620722
51150	11.121661	-6.480973	2.085091	-3.477598	7.784715	0.053539	-0.214869	0.672335	0.336009	0.623614
51151	13.071917	-8.578245	1.841509	-5.012263	9.462060	1.728400	-0.210461	0.675058	0.330387	0.625178
51152	15.772940	-11.374709	1.401827	-7.247551	11.540207	4.131129	-0.213197	0.675086	0.328739	0.625089
51153	20.624783	-12.273173	1.525297	-7.825512	12.932959	8.891179	-0.218790	0.674524	0.329049	0.623599
51154	21.164239	-9.821706	0.745395	-6.705459	10.528197	9.913591	-0.231970	0.670641	0.336866	0.618831
51155	16.533370	-2.486469	-0.699266	-2.348452	3.606831	6.358091	-0.249041	0.663935	0.348080	0.613196
51156	11.309948	3.267083	0.114336	2.600933	-0.305102	1.665274	-0.263275	0.657300	0.355223	0.610295
51157	8.126365	5.033953	1.053530	4.630736	-1.069403	-1.452030	-0.274984	0.652266	0.360824	0.607238
51158	7.920489	3.173843	-0.611082	2.206051	-1.321664	-1.653823	-0.283046	0.649469	0.364967	0.604048
51159	7.284482	2.585824	-0.942247	1.582566	-1.340882	-2.306996	-0.289843	0.646282	0.368387	0.602164
51160	7.160745	0.655273	-1.492126	-0.303012	-0.765162	-2.515110	-0.295411	0.643207	0.370875	0.601223
51161	7.188548	0.334542	-2.014536	-0.837623	-1.061030	-2.463000	-0.301872	0.639951	0.375359	0.598700
51162	7.174919	1.168649	-2.835129	-0.521656	-2.226947	-2.352708	-0.309592	0.636220	0.381286	0.594978
51163	7.764448	1.910724	-3.742440	-0.257188	-3.338598	-1.643868	-0.318759	0.632354	0.388639	0.589476
51164	8.005972	2.978787	-3.224259	1.063572	-3.383021	-1.399197	-0.328512	0.628319	0.396349	0.583269
51165	8.818549	4.010568	-2.884518	2.280338	-3.426495	-0.580742	-0.336904	0.624910	0.404375	0.576597
51166	9.115112	4.243105	-2.156922	2.935196	-2.749812	-0.348930	-0.342891	0.622055	0.412540	0.570337
51167	9.191945	3.312185	-1.643545	2.386122	-1.769733	-0.360880	-0.346680	0.619854	0.420590	0.564534
51168	9.606024	1.687223	-0.968204	1.202591	-0.349508	-0.092052	-0.350188	0.616686	0.428946	0.559529
51169	10.088907	1.741913	-1.378064	1.092954	-0.591134	0.442783	-0.354608	0.611629	0.438859	0.554586
51170	10.771501	2.401929	-0.565545	1.961872	0.104247	1.061762	-0.360012	0.604688	0.448797	0.550749
51171	11.626806	1.989477	1.868945	2.281716	2.688449	1.597744	-0.365741	0.597166	0.456586	0.548777
51172	11.803260	-0.773958	2.514477	-0.282947	4.166954	1.536015	-0.371320	0.590326	0.462810	0.547214
51173	11.015653	-2.207628	2.332675	-1.821278	4.246675	0.689994	-0.377221	0.583581	0.468923	0.545206
51174	10.015756	-2.102335	2.831864	-1.685631	4.493728	-0.340761	-0.383990	0.576067	0.475744	0.542555
51175	9.225720	-2.152890	3.095751	-1.775399	4.585712	-1.143803	-0.390656	0.568641	0.481827	0.540257
51176	8.755967	-2.452160	2.787789	-2.237797	4.214624	-1.585944	-0.397530	0.561742	0.487179	0.537654
51177	10.082649	-2.256424	1.557287	-2.467892	3.034967	-0.123836	-0.404225	0.555582	0.492550	0.534158
51178	12.196662	-3.119060	0.918828	-3.611703	2.688868	1.979499	-0.411674	0.549746	0.498003	0.529431
51179	13.292204	-2.678112	1.704120	-3.149925	3.385954	3.046978	-0.420352	0.543733	0.503630	0.523465
51180	11.110782	-3.334600	1.252710	-3.769610	2.695113	0.895409	-0.428965	0.537512	0.509497	0.517188
51181	9.355579	-3.287730	0.784496	-3.707973	1.934211	-0.787186	-0.438336	0.529949	0.516704	0.509934
51182	9.160738	-3.047512	-0.560333	-3.561830	0.434656	-0.832520	-0.449000	0.522049	0.525214	0.500014
51183	9.106339	-1.865832	-1.224866	-2.330240	-0.373232	-0.738763	-0.461088	0.514989	0.533536	0.487363
51184	9.838287	-0.436800	-1.243119	-0.786191	-0.341929	0.076208	-0.472611	0.510912	0.540159	0.473113
51185	10.285632	-0.193295	-1.844377	-0.336889	-0.832353	0.599924	-0.482921	0.508485	0.546115	0.458246
51186	10.473995	0.224552	-1.684614	0.273561	-0.526634	0.781483	-0.492187	0.506024	0.552341	0.443409
51187	10.164402	-0.016163	-1.829118	0.244553	-0.599630	0.494439	-0.499804	0.505152	0.558106	0.428410
51188	9.755768	0.664635	-1.852093	1.109633	-0.407956	0.068736	-0.505273	0.506882	0.563616	0.412441
51189	9.660904	1.417333	-3.661800	2.338815	-1.825984	0.184097	-0.508380	0.510680	0.569214	0.395918
51190	10.015772	1.747317	-3.146895	2.782348	-0.929773	0.417507	-0.510233	0.515266	0.573286	0.381453
51191	9.683481	1.448779	-2.822969	2.565112	-0.481875	0.037173	-0.509926	0.520863	0.576236	0.369634
51192	8.777140	0.671689	-1.646883	1.614566	0.523010	-1.019676	-0.508732	0.526224	0.579351	0.358655
51193	8.827168	1.331962	-0.811494	2.154528	1.655056	-1.270624	-0.505547	0.532444	0.581807	0.349894
51194	8.916782	1.792869	-2.257480	2.977923	0.578312	-0.946202	-0.501636	0.537849	0.584221	0.343171
51195	8.177149	1.998689	-1.273182	2.912867	1.473819	-1.949872	-0.496256	0.543110	0.585177	0.341070
51196	7.595330	-0.427072	-2.031113	0.646796	0.234274	-1.969033	-0.490225	0.547275	0.586204	0.341371
51197	8.434269	-1.410572	-1.380809	-0.429419	1.004928	-1.219780	-0.484534	0.549710	0.588373	0.341852
51198	9.025193	0.022774	-1.091039	0.892506	1.774190	-0.941391	-0.479455	0.550988	0.590956	0.342500
51199	9.793572	1.038267	-1.862743	2.012029	1.522428	-0.112434	-0.472942	0.553446	0.592457	0.344990
51200	10.071177	-1.282426	-3.502841	-0.053294	-0.218187	0.924666	-0.465467	0.556375	0.593259	0.349045
51201	10.405404	-4.325381	-6.022275	-2.743311	-2.830446	2.340895	-0.459812	0.557471	0.594574	0.352536
51202	8.269434	-5.741285	-5.838075	-4.383041	-3.502713	0.382818	-0.456634	0.556868	0.596917	0.353659
51203	7.983365	-4.389682	-5.593364	-3.133564	-3.163861	-0.093639	-0.456527	0.554382	0.600995	0.350783
51204	7.929595	-0.735452	-3.730027	0.166841	-0.895390	-1.066098	-0.457880	0.551425	0.604960	0.346844
51205	9.451229	3.688069	-0.776251	4.032209	3.118693	-1.006755	-0.457416	0.550706	0.608137	0.343020
51206	9.959208	0.452153	-1.098729	0.908885	2.534283	-0.150982	-0.453851	0.553324	0.608208	0.343417
51207	9.477449	-4.416861	-2.676537	-3.622219	0.199399	0.352641	-0.451716	0.554575	0.609871	0.341258
51208	9.243033	-5.310459	-4.819860	-4.097303	-1.943150	0.971628	-0.452513	0.553293	0.613866	0.335063
51209	10.442513	-3.953041	-4.267829	-2.771380	-0.727353	1.792338	-0.455208	0.550277	0.619131	0.326585
51210	11.111125	-1.770581	-4.483950	-0.501304	-0.223385	2.286738	-0.459379	0.545172	0.624639	0.318723
51211	10.822325	-0.830852	-3.087652	0.119968	1.129000	1.414847	-0.463917	0.538896	0.628947	0.314322
51212	9.909067	-1.273988	-2.001083	-0.606466	1.603854	0.231024	-0.468708	0.531499	0.632583	0.312507
51213	9.315723	-1.486623	-1.673454	-0.935156	1.522105	-0.399902	-0.474511	0.522590	0.636204	0.311421
51214	8.706714	-0.911517	-2.828080	-0.077411	0.299502	-0.618193	-0.481102	0.512593	0.639617	0.310931
51215	9.692203	0.336727	-2.856521	1.095738	0.850775	0.201610	-0.488140	0.501935	0.643026	0.310319
51216	10.716594	1.051623	-3.948504	2.086075	0.305149	1.460964	-0.494643	0.491673	0.645367	0.311589
51217	10.210680	1.477019	-4.601958	2.690388	-0.468989	1.148892	-0.500721	0.481358	0.646368	0.315883
51218	9.818998	1.215693	-3.630364	2.075933	-0.026545	0.519540	-0.506735	0.471149	0.645807	0.322755
51219	8.327214	0.396649	-2.012515	0.750810	0.495492	-1.284104	-0.513354	0.460919	0.644454	0.329698
51220	6.486806	0.918384	-2.159259	1.347592	-0.087709	-3.048170	-0.519104	0.452502	0.642199	0.336680
51221	6.623899	0.409653	-2.123862	0.853417	-0.368739	-2.907007	-0.525287	0.445448	0.639009	0.342514
51222	6.494341	0.396086	-3.827493	1.491154	-2.095711	-2.715836	-0.530493	0.439565	0.635150	0.349206
51223	8.874251	-0.546948	-1.714387	-0.279505	-0.280158	-0.766650	-0.536766	0.430961	0.633387	0.353520
51224	8.874685	0.894590	-0.499727	0.570890	1.200953	-0.978689	-0.540747	0.423660	0.632058	0.358620
51225	10.007460	1.370786	-3.551089	2.097917	-1.391027	0.594057	-0.543593	0.417555	0.631113	0.363112
51226	9.876827	1.308595	-1.400913	1.187435	0.361570	0.171463	-0.545576	0.414519	0.627081	0.370527
51227	8.855243	0.232884	-1.231568	0.168455	-0.155473	-0.872182	-0.544873	0.414454	0.623015	0.378409
51228	8.597197	-1.388388	-2.194383	-1.007948	-1.764135	-1.064779	-0.542758	0.414510	0.620781	0.385002
51229	9.835750	-1.977050	-1.365477	-2.001336	-1.167476	0.043585	-0.541474	0.412786	0.619891	0.390062
51230	10.455821	-2.314646	-1.273514	-2.446071	-1.233868	0.617894	-0.541736	0.410288	0.618546	0.394444
51231	9.740294	-1.812662	-1.720746	-1.796771	-1.618706	-0.052028	-0.543446	0.407039	0.616871	0.398065
51232	9.132844	-0.753377	0.179080	-1.435248	0.381543	-0.768258	-0.546530	0.404099	0.613367	0.402233
51233	7.650921	-1.212835	-0.471540	-1.518632	-0.540549	-2.221158	-0.547060	0.403687	0.611056	0.405429
51234	8.472395	-1.303471	-1.613874	-1.276407	-1.635271	-1.340278	-0.546175	0.403477	0.610899	0.407064
51235	9.059311	-2.591553	-3.044074	-2.067566	-3.409077	-0.748650	-0.544427	0.402657	0.611884	0.408735
51236	10.816422	-3.481939	-3.272697	-3.012435	-3.879737	0.943799	-0.543673	0.398957	0.615273	0.408280
51237	11.320613	-4.030966	-2.924052	-3.722243	-3.765814	1.364000	-0.544687	0.393143	0.620168	0.405150
51238	10.262129	-4.080174	-3.955371	-3.254320	-4.834275	0.367799	-0.548324	0.385453	0.626191	0.398311
51239	10.196384	-4.731485	-4.562739	-3.463926	-5.725392	0.306046	-0.554649	0.375017	0.633733	0.387440
51240	10.567499	-4.365940	-4.631505	-2.901472	-5.714766	0.727705	-0.563286	0.361379	0.642525	0.373197
51241	10.925178	-4.452978	-5.535566	-2.259028	-6.642581	1.168660	-0.573835	0.344755	0.651820	0.356354
51242	10.155267	-3.300604	-4.746381	-1.176289	-5.514651	0.421471	-0.589063	0.323737	0.658791	0.337925
51243	6.262993	-3.042454	-3.840515	-0.733280	-4.791591	-3.509911	-0.601579	0.305922	0.664807	0.320229
51244	6.144666	-3.488985	-3.301695	-1.050250	-4.695014	-3.674887	-0.615017	0.285709	0.672187	0.297134
51245	8.167118	-0.043779	-0.388799	-0.313806	-0.226926	-1.645450	-0.629265	0.263464	0.679174	0.270806
51246	9.629224	4.630973	4.122582	-0.453974	6.277611	-0.244789	-0.644063	0.243929	0.681460	0.247577
51247	11.048215	8.372570	8.077120	-1.437263	11.651477	1.121888	-0.656909	0.228004	0.681737	0.227419
51248	10.537908	9.634963	7.913329	-0.880515	12.513198	0.634274	-0.664568	0.218810	0.681415	0.214813
51249	10.060362	7.932481	4.998036	0.305883	9.425359	0.196438	-0.668393	0.211737	0.682072	0.207837
51250	7.879789	8.805628	3.130860	2.233883	9.077571	-1.936209	-0.668038	0.207515	0.683837	0.207438
51251	8.182016	9.860194	1.282776	4.311326	8.867061	-1.530167	-0.664777	0.207424	0.684937	0.214263
51252	9.725334	7.377482	-1.261316	4.985469	5.229440	0.106731	-0.661432	0.207896	0.685033	0.223643
51253	13.210364	1.606557	1.775618	-0.959585	2.068431	3.417860	-0.658860	0.207825	0.685602	0.229482
51254	17.051023	-5.065072	-1.023311	-2.771652	-5.154706	7.015430	-0.658191	0.206044	0.686023	0.231739
51255	16.039820	-2.507665	-1.139434	-1.115780	-3.214573	6.102141	-0.662050	0.200250	0.684893	0.229151
51256	13.816308	-0.100118	1.545533	-1.768845	0.268201	3.974523	-0.666983	0.191095	0.685138	0.221816
51257	9.559207	4.109669	1.068682	1.072573	3.617540	-0.057051	-0.672093	0.179593	0.685833	0.213704
51258	4.590870	10.125740	1.636372	3.722516	9.277496	-4.679505	-0.673712	0.169932	0.688938	0.206398
51259	5.330690	7.500819	0.580827	3.085782	6.510946	-4.059486	-0.674321	0.162207	0.691796	0.200995
51260	6.899817	2.704380	1.627319	-0.337950	2.777326	-2.759970	-0.674148	0.154658	0.694790	0.197163
51261	10.508417	2.161821	0.927846	-0.210324	1.723007	0.814948	-0.673121	0.145907	0.698697	0.193500
51262	10.259599	0.503873	-0.000867	-0.250834	-0.222998	0.453726	-0.671263	0.137637	0.702562	0.192012
51263	7.846140	0.979261	-1.077777	0.949869	-0.171264	-1.891193	-0.669213	0.128078	0.707008	0.189445
51264	5.245878	1.975129	-0.594818	1.030936	1.100215	-4.381244	-0.668691	0.119815	0.709411	0.187704
51265	4.496419	1.805791	1.096586	-0.576663	1.690903	-5.177050	-0.667679	0.112838	0.711984	0.185879
51266	5.708501	2.430939	2.646323	-1.873620	2.747837	-3.944279	-0.667044	0.109381	0.713219	0.185489
51267	8.264531	1.350903	1.019075	-1.039109	0.853418	-1.484554	-0.664277	0.113897	0.713710	0.190743
51268	12.261580	-1.346978	-1.736480	-0.019284	-3.124781	2.245953	-0.661978	0.116718	0.714067	0.195626
51269	13.896402	-3.120819	-2.172588	-0.580048	-5.116470	3.642948	-0.660901	0.115677	0.714344	0.198850
51270	11.719220	-2.486151	-0.823876	-1.372783	-3.802764	1.494571	-0.660199	0.111670	0.715960	0.197656
51271	8.809598	1.055216	-1.239650	0.709845	-0.492081	-0.895683	-0.658606	0.109985	0.718338	0.195273
51272	8.574535	3.450807	-2.177837	2.510648	1.332102	-0.752034	-0.655654	0.111637	0.720889	0.194871
51273	10.468363	4.211256	-1.712457	2.149731	2.047990	1.207206	-0.653872	0.112333	0.722295	0.195251
51274	11.814235	7.408921	1.348726	0.529611	6.084629	2.796201	-0.652971	0.113350	0.722378	0.197358
51275	10.776355	3.935585	-0.339668	0.727603	2.328706	1.402558	-0.649711	0.118989	0.722869	0.202922
51276	10.510217	1.119420	-0.042005	-0.741407	-0.024314	0.730988	-0.647043	0.123453	0.723340	0.207060
51277	9.118667	0.533959	0.847259	-1.652612	0.011276	-0.789292	-0.645000	0.126458	0.724032	0.209192
51278	7.497749	0.999376	1.234091	-1.607722	0.780134	-2.359874	-0.642611	0.129752	0.725147	0.210661
51279	7.444958	2.043250	1.361903	-1.262088	1.797566	-2.287210	-0.640464	0.132336	0.726372	0.211368
51280	7.914746	3.166326	1.137034	-0.626345	2.669851	-1.661541	-0.638926	0.134962	0.727039	0.212071
51281	7.667955	3.652294	0.696947	0.024430	2.934191	-1.811916	-0.637875	0.138443	0.727015	0.213069
51282	7.110974	3.590842	0.163217	0.563554	2.690033	-2.333869	-0.637038	0.142878	0.726444	0.214587
51283	6.768316	3.627093	0.235592	0.597205	2.803321	-2.684855	-0.635980	0.147779	0.725940	0.216106
51284	7.200065	3.695248	0.224127	0.608571	2.854072	-2.260879	-0.634825	0.152092	0.725769	0.217081
51285	7.871288	3.886020	0.574850	0.331904	3.185108	-1.619183	-0.633654	0.156356	0.725631	0.217934
51286	9.702565	4.133501	1.032248	-0.173224	3.575793	0.161002	-0.632202	0.160182	0.726100	0.217808
51287	11.928647	4.577864	0.733959	0.004361	3.759012	2.420771	-0.630405	0.164664	0.726474	0.218429
51288	15.002461	6.858912	1.450526	0.148801	6.022268	5.612354	-0.628998	0.169169	0.726431	0.219181
51289	18.300331	8.921310	2.493080	-0.045727	8.278058	8.953687	-0.628246	0.174837	0.725070	0.221390
51290	21.180334	10.984913	3.098224	0.326878	10.305031	11.925933	-0.628389	0.181037	0.722355	0.224846
51291	21.832253	12.056005	3.311593	0.968379	11.295273	12.646754	-0.628740	0.189169	0.717988	0.231070
51292	19.310166	10.472179	2.501338	1.488376	9.527621	10.082028	-0.628653	0.198986	0.712538	0.239772
51293	15.318051	6.987368	1.164414	1.389286	5.922480	5.929232	-0.627598	0.209876	0.706750	0.250154
51294	11.852007	3.663478	-0.674767	1.456275	2.153859	2.335715	-0.626588	0.220924	0.700361	0.260911
51295	8.661056	0.976789	-3.011682	1.997866	-1.435978	-0.925423	-0.625001	0.234687	0.692273	0.273960
51296	7.675541	0.278658	-1.233336	0.378841	-0.835468	-2.088054	-0.627074	0.246179	0.682194	0.284229
51297	5.989800	1.094075	2.469273	-1.421634	2.349591	-3.843966	-0.627221	0.263958	0.669083	0.298745
51298	6.190392	-0.644885	0.429334	-1.127226	-0.303249	-3.684249	-0.626459	0.280863	0.656097	0.313372
51299	7.012409	-1.166978	-1.391903	-0.335068	-2.057303	-2.875234	-0.624231	0.294014	0.645743	0.326967
51300	8.849460	-1.356226	-4.708035	1.429060	-4.914468	-1.087933	-0.621103	0.305854	0.636546	0.339844
51301	10.131254	-1.235859	-4.369841	1.193110	-4.720862	0.164998	-0.619450	0.316157	0.627664	0.349807
51302	9.423717	-1.819785	-4.192620	0.569450	-4.926501	-0.587667	-0.616949	0.327983	0.619063	0.358555
51303	7.989852	-2.504530	-4.376176	0.037924	-5.394883	-2.056754	-0.614498	0.339386	0.610760	0.366308
51304	6.238562	-2.638195	-4.445997	-0.120672	-5.433725	-3.803882	-0.611328	0.350473	0.603819	0.372626
51305	5.602135	-2.747760	-3.900679	-0.578035	-4.951911	-4.400397	-0.607679	0.361809	0.597214	0.378358
51306	5.577066	-1.569143	-2.271508	-0.347124	-2.924544	-4.330730	-0.603432	0.372758	0.591199	0.383934
51307	6.370782	-0.533680	-1.819217	0.362019	-2.065981	-3.505406	-0.598468	0.383590	0.585064	0.390379
51308	6.781429	-0.081460	-1.007818	0.436954	-1.143868	-3.066522	-0.593575	0.394107	0.577935	0.397919
51309	7.526268	-0.276156	-0.907153	0.235679	-1.147275	-2.317882	-0.588535	0.404779	0.569744	0.406414
51310	8.309905	-0.787871	-0.836596	-0.245667	-1.286016	-1.526496	-0.583535	0.414938	0.560910	0.415564
51311	8.682719	-0.772717	-0.363957	-0.363611	-0.849227	-1.137103	-0.577785	0.425196	0.551660	0.425493
51312	9.358709	-1.361173	-0.527577	-0.864200	-1.183050	-0.454802	-0.570990	0.435213	0.543438	0.435011
51313	10.344230	-2.834485	-1.063275	-2.162172	-2.040733	0.547203	-0.563746	0.444503	0.537038	0.442942
51314	11.917334	-3.588707	-2.645134	-2.575324	-3.682115	2.091334	-0.556493	0.453673	0.531890	0.448987
51315	11.749416	-3.038359	-2.571543	-2.134849	-3.381989	1.930252	-0.550314	0.461876	0.526231	0.454868
51316	10.646662	-1.861932	-1.901230	-1.180414	-2.424709	0.824976	-0.544584	0.469089	0.520705	0.460705
51317	9.653975	-1.330668	-1.713185	-0.756046	-2.096868	-0.172343	-0.539510	0.475315	0.515879	0.465697
51318	9.404569	-1.698815	-1.599028	-1.172592	-1.993561	-0.403148	-0.535126	0.481139	0.510311	0.470880
51319	9.104629	-2.179204	-1.041090	-1.731109	-1.459807	-0.669424	-0.531547	0.486285	0.504316	0.476078
51320	8.993726	-2.528544	-0.597706	-2.122815	-1.024912	-0.752827	-0.528390	0.490358	0.499520	0.480451
51321	8.641071	-2.577369	-0.376610	-2.207751	-0.771909	-1.095883	-0.525204	0.493430	0.496686	0.483727
51322	9.114426	-2.511553	-0.525447	-2.135891	-0.897259	-0.631757	-0.522065	0.495663	0.495410	0.486143
51323	9.726428	-2.133429	0.074519	-1.787652	-0.276078	-0.020420	-0.519556	0.496960	0.493812	0.489124
51324	9.588038	-1.776010	0.545474	-1.479289	0.208707	-0.161248	-0.517392	0.497527	0.491987	0.492667
51325	9.797426	-0.928060	0.942515	-0.668400	0.605697	0.032384	-0.514871	0.497944	0.490311	0.496543
51326	9.302568	-0.711051	0.884174	-0.503143	0.554232	-0.471133	-0.511976	0.498277	0.489319	0.500167
51327	8.857145	-0.768448	0.834079	-0.612689	0.528755	-0.919992	-0.508136	0.499445	0.489431	0.502802
51328	9.484086	-1.101261	0.170338	-0.979614	-0.118803	-0.314500	-0.504196	0.500941	0.490052	0.504672
51329	9.741715	-0.891794	-0.462839	-0.820400	-0.721924	-0.080474	-0.500869	0.501712	0.490500	0.506779
51330	9.730507	-0.850950	-0.120387	-0.836851	-0.363175	-0.087012	-0.497827	0.501307	0.490816	0.509862
51331	9.292016	-0.876162	-0.016335	-0.934480	-0.251018	-0.529764	-0.495132	0.499613	0.491616	0.513366
51332	9.236987	0.319579	0.242395	0.183418	-0.024389	-0.568880	-0.493015	0.497121	0.493493	0.516016
51333	9.874809	1.491860	-0.275917	1.251412	-0.611842	0.080369	-0.491663	0.494533	0.493741	0.519542
51334	10.183223	1.630210	-0.388918	1.309263	-0.793088	0.393344	-0.491007	0.492229	0.492966	0.523075
51335	10.566950	1.282892	-0.449864	0.895438	-0.914430	0.764189	-0.490438	0.490749	0.492342	0.525582
51336	10.353836	0.376175	-0.422706	-0.037939	-0.880928	0.519039	-0.489586	0.490238	0.492305	0.526885
51337	9.872772	-0.048378	-0.258993	-0.464635	-0.686682	0.028734	-0.488672	0.489908	0.492833	0.527546
51338	9.293148	0.357560	0.387122	-0.038111	-0.022615	-0.504716	-0.488199	0.489363	0.493690	0.527689
51339	9.596132	0.911632	0.447263	0.489447	0.015608	-0.175413	-0.488123	0.488988	0.494411	0.527432
51340	9.850136	1.202785	0.461574	0.767668	0.017234	0.091620	-0.488156	0.489276	0.494363	0.527179
51341	9.804665	1.231716	0.411917	0.806836	-0.023026	0.044631	-0.488004	0.490081	0.494233	0.526694
51342	9.748140	1.188023	0.490284	0.779020	0.073920	-0.011380	-0.487677	0.490908	0.494387	0.526082
51343	9.745506	1.233883	0.160436	0.821150	-0.236380	-0.025303	-0.486987	0.491608	0.494873	0.525610
51344	9.584550	1.317776	0.237959	0.910068	-0.135757	-0.178889	-0.486339	0.491829	0.495537	0.525377
51345	9.406804	1.478336	0.171021	1.065725	-0.183581	-0.350490	-0.485507	0.491944	0.496363	0.525259
51346	9.555470	1.938819	0.240939	1.505818	-0.112074	-0.177130	-0.484351	0.492197	0.497240	0.525261
51347	9.807107	2.069521	0.431106	1.611533	0.085456	0.089016	-0.482849	0.492627	0.497771	0.525737
51348	9.919763	1.418768	0.328983	0.931507	0.017103	0.170036	-0.481331	0.492893	0.498386	0.526297
51349	9.824632	0.873643	0.254430	0.366787	-0.020901	0.047147	-0.480088	0.492944	0.499101	0.526707
51350	9.443160	0.806391	0.451541	0.307626	0.203878	-0.331591	-0.479322	0.492888	0.500021	0.526584
51351	9.174114	0.831967	0.421780	0.337150	0.199273	-0.599598	-0.478903	0.493063	0.501054	0.525819
51352	9.194269	0.960233	0.556743	0.466685	0.355370	-0.570261	-0.478798	0.493298	0.502319	0.524485
51353	9.254881	1.048031	0.564413	0.551925	0.390481	-0.506101	-0.478885	0.493294	0.504013	0.522782
51354	9.327587	1.142464	0.463781	0.638273	0.323617	-0.431220	-0.478963	0.493150	0.506165	0.520763
51355	9.635305	1.306576	0.130692	0.775343	0.029702	-0.119336	-0.479007	0.492958	0.508722	0.518407
51356	9.896988	1.650611	0.208697	1.104438	0.151269	0.161057	-0.479293	0.492732	0.511152	0.515962
51357	10.004496	1.745560	0.163575	1.196985	0.149333	0.272375	-0.479707	0.492728	0.512772	0.513969
51358	9.902800	1.571888	0.059214	1.038756	0.079011	0.159998	-0.480348	0.492756	0.513946	0.512169
51359	9.788262	1.497828	-0.055741	0.985486	-0.014042	0.040497	-0.481268	0.492708	0.514645	0.510648
51360	9.755020	1.580496	0.005420	1.088729	0.059641	0.009201	-0.482540	0.492526	0.515099	0.509162
51361	9.738922	1.765223	0.095415	1.296750	0.157735	-0.001204	-0.483982	0.492410	0.515301	0.507700
51362	9.808538	1.676059	0.324440	1.228926	0.394872	0.059273	-0.485102	0.492711	0.515400	0.506235
51363	10.063452	1.545854	0.332424	1.112776	0.417321	0.304661	-0.485805	0.493220	0.515647	0.504813
51364	10.173910	1.443355	0.102777	1.030207	0.204443	0.409792	-0.486273	0.493773	0.515844	0.503620
51365	10.349707	1.380549	-0.681477	0.993321	-0.566273	0.588243	-0.487402	0.493855	0.516037	0.502246
51366	10.256717	1.452789	-0.489284	1.094522	-0.377266	0.493128	-0.489703	0.492934	0.515962	0.500989
51367	10.220400	1.717978	-0.128574	1.384752	-0.032422	0.458915	-0.492107	0.492058	0.515325	0.500149
51368	10.370273	1.608972	0.065257	1.298662	0.124667	0.600444	-0.494577	0.491154	0.513985	0.499981
51369	10.347516	1.539995	0.374877	1.255617	0.382300	0.572885	-0.496778	0.490576	0.511848	0.500559
51370	10.032683	1.264727	0.638864	1.013552	0.585765	0.251689	-0.498594	0.490225	0.509566	0.501424
51371	9.521817	1.039992	0.855524	0.822366	0.752816	-0.260972	-0.499727	0.490296	0.507244	0.502580
51372	9.552666	0.786121	0.727673	0.594197	0.582442	-0.236232	-0.500135	0.490951	0.505246	0.503547
51373	9.739480	0.366034	0.353120	0.199581	0.173230	-0.063522	-0.500484	0.491677	0.503556	0.504183
51374	10.031080	-0.176515	-0.002423	-0.318727	-0.215985	0.212551	-0.501030	0.492390	0.501834	0.504662
51375	9.934095	-0.440171	0.037465	-0.556553	-0.203785	0.113539	-0.501850	0.492860	0.499621	0.505583
51376	9.827210	-0.674337	0.139615	-0.768763	-0.137303	0.007611	-0.502633	0.493008	0.497376	0.506873
51377	9.746767	-0.899958	0.114050	-0.979355	-0.203025	-0.075034	-0.503477	0.492658	0.495388	0.508321
51378	9.628112	-0.963379	0.202740	-1.034178	-0.152645	-0.191005	-0.504305	0.492141	0.493655	0.509684
51379	9.719507	-1.159662	0.115937	-1.222783	-0.282361	-0.104339	-0.505129	0.491795	0.491986	0.510814
51380	10.130602	-0.971403	0.058075	-1.022014	-0.392603	0.305480	-0.506061	0.491854	0.490152	0.511599
51381	10.577317	-0.719038	0.301834	-0.745285	-0.204215	0.765139	-0.506944	0.492459	0.487753	0.512435
51382	10.192808	-0.960596	0.348600	-0.953015	-0.166438	0.385426	-0.507457	0.493597	0.485316	0.513146
51383	9.618889	-1.278782	0.332712	-1.240626	-0.166424	-0.184496	-0.507816	0.494736	0.483443	0.513461
51384	9.243067	-1.722233	0.366417	-1.657818	-0.119157	-0.551369	-0.508466	0.495470	0.481916	0.513545
51385	9.059298	-1.553807	0.788418	-1.460997	0.293834	-0.708520	-0.509511	0.495670	0.480448	0.513692
51386	8.790717	-1.223560	0.855874	-1.110712	0.352200	-0.972522	-0.510307	0.495961	0.478941	0.514028
51387	8.719217	-1.218777	0.813176	-1.091592	0.294521	-1.043819	-0.510882	0.495961	0.477741	0.514573
51388	8.679018	-0.904646	0.751156	-0.777187	0.215315	-1.091588	-0.510970	0.495433	0.477589	0.515136
51389	8.538864	-0.870843	0.680108	-0.765117	0.147538	-1.237965	-0.510535	0.494170	0.478987	0.515482
51390	8.317473	-0.807420	0.770255	-0.742386	0.255248	-1.457505	-0.509846	0.492057	0.481797	0.515566
51391	8.604953	-0.288734	0.648273	-0.280487	0.127395	-1.184040	-0.508890	0.489462	0.485937	0.515095
51392	9.124442	0.767677	0.747294	0.705401	0.219713	-0.655351	-0.508050	0.486439	0.490325	0.514630
51393	10.072387	1.415927	1.553588	1.262190	1.001309	0.349750	-0.507259	0.483582	0.494036	0.514554
51394	10.770827	2.455116	1.315823	2.213584	0.765513	1.063120	-0.506097	0.481484	0.497270	0.514550
51395	11.335460	2.206528	0.679442	1.896515	0.132388	1.598202	-0.504123	0.481069	0.499304	0.514905
51396	11.230454	0.194643	0.139063	-0.144344	-0.392296	1.412525	-0.502203	0.481778	0.500360	0.515093
51397	10.848284	-1.720206	-0.501286	-2.055633	-0.998103	0.942483	-0.500852	0.482817	0.501104	0.514713
51398	9.960117	-2.312275	-0.485027	-2.621409	-0.920793	0.039526	-0.500957	0.482818	0.502488	0.513259
51399	9.830055	-1.352019	-0.032015	-1.658074	-0.436041	-0.039274	-0.502255	0.481891	0.504260	0.511119
51400	10.228085	-0.331816	0.577962	-0.652448	0.179074	0.414731	-0.504369	0.480539	0.505413	0.509167
51401	10.409806	0.668996	1.320186	0.336906	0.925166	0.655598	-0.506832	0.479107	0.505561	0.507924
51402	10.056382	1.337984	1.721032	1.017370	1.335368	0.339388	-0.509007	0.477878	0.505124	0.507340
51403	9.605842	1.334194	1.873969	1.031416	1.478557	-0.101147	-0.510693	0.476812	0.504471	0.507298
51404	9.214639	0.727869	2.058574	0.436519	1.626078	-0.493766	-0.511918	0.475993	0.503358	0.507939
51405	8.901587	-0.129895	2.097637	-0.405071	1.613689	-0.818966	-0.512781	0.475586	0.501779	0.509011
51406	9.394082	-0.622539	1.981134	-0.891121	1.416800	-0.338529	-0.513494	0.475329	0.500016	0.510265
51407	10.098399	-0.539265	1.890583	-0.805722	1.244003	0.367971	-0.514512	0.474762	0.497953	0.511783
51408	10.670103	0.000471	1.784352	-0.262621	1.061233	0.950187	-0.515858	0.473653	0.496008	0.513342
51409	10.773875	0.780227	1.889711	0.516885	1.113787	1.084467	-0.517196	0.472209	0.493931	0.515324
51410	10.815261	0.743163	1.704515	0.486669	0.843321	1.117951	-0.518463	0.470688	0.491371	0.517883
51411	10.615693	0.350677	1.832942	0.097687	0.879866	0.929329	-0.519937	0.469028	0.487902	0.521182
51412	9.995789	-0.162781	1.916069	-0.399106	0.902169	0.318426	-0.521628	0.467226	0.484165	0.524583
51413	9.819490	-0.157328	2.300738	-0.390687	1.198459	0.194844	-0.523553	0.465237	0.480733	0.527582
51414	9.912488	-0.127497	2.430081	-0.357769	1.213524	0.315364	-0.525526	0.463107	0.477466	0.530453
51415	10.018460	0.038292	2.328909	-0.184806	0.991071	0.423388	-0.527786	0.460713	0.473690	0.533670
51416	10.274795	0.367855	2.075194	0.154947	0.575648	0.658987	-0.530726	0.457812	0.469144	0.537254
51417	10.194887	0.391031	2.138305	0.194118	0.493712	0.597750	-0.534128	0.454505	0.463937	0.541197
51418	10.278216	0.397229	1.852581	0.218579	0.020184	0.636254	-0.538051	0.450500	0.458177	0.545550
51419	10.174449	0.201296	1.736484	0.043399	-0.277633	0.506833	-0.542648	0.445887	0.451538	0.550301
51420	9.931867	-0.171324	1.440376	-0.301630	-0.739978	0.192465	-0.547966	0.440598	0.444310	0.555153
51421	9.992963	-0.058103	1.690321	-0.163766	-0.753193	0.292762	-0.554202	0.434344	0.436420	0.560127
51422	9.643874	-0.145998	2.126152	-0.221085	-0.508282	0.047977	-0.560935	0.427409	0.427959	0.565265
51423	9.196844	0.193454	1.819173	0.152866	-0.945293	-0.484994	-0.568102	0.419973	0.419385	0.570087
51424	9.013504	0.432490	2.226822	0.425067	-0.767026	-0.559916	-0.575168	0.412675	0.409968	0.575158
51425	9.024578	0.220049	2.212336	0.250607	-1.055502	-0.582157	-0.582218	0.405187	0.400519	0.580027
51426	8.694362	0.195484	2.537277	0.260079	-0.906121	-0.803096	-0.589274	0.397310	0.390541	0.585131
51427	8.579056	-0.133642	2.953388	-0.036688	-0.754556	-0.770372	-0.596099	0.389250	0.380705	0.590096
51428	8.722613	0.188508	3.354468	0.317994	-0.721880	-0.499078	-0.602961	0.380916	0.371429	0.594459
51429	8.915825	-0.171294	3.451330	-0.005874	-0.999528	-0.303359	-0.609642	0.372824	0.362042	0.598552
51430	8.687728	-0.199508	2.870221	-0.002511	-1.674174	-0.815700	-0.616487	0.364410	0.352914	0.602163
51431	8.718168	-0.316421	3.726859	-0.083990	-1.212916	-0.404638	-0.623162	0.356145	0.343437	0.605707
51432	8.429143	0.248693	4.181731	0.508252	-0.929910	-0.460131	-0.629491	0.348036	0.334306	0.608975
51433	8.310742	0.139580	5.007067	0.425828	-0.430666	-0.128346	-0.635264	0.340345	0.325781	0.611941
51434	7.952331	0.352795	4.934644	0.659899	-0.526529	-0.485456	-0.640729	0.333142	0.317024	0.614800
51435	7.732993	-0.163407	5.279741	0.172978	-0.364687	-0.456718	-0.645965	0.326370	0.308424	0.617323
51436	7.993185	-0.468040	5.623489	-0.072724	-0.485444	-0.040883	-0.650860	0.320302	0.299641	0.619679
51437	8.002026	-0.362903	6.097772	0.084150	-0.341458	0.248077	-0.655494	0.314444	0.291427	0.621710
51438	7.745153	-0.430306	6.395767	0.048913	-0.167878	0.239370	-0.659793	0.308579	0.283643	0.623697
51439	7.478239	-0.305655	6.654213	0.196986	0.002411	0.200001	-0.663635	0.303072	0.276549	0.625505
51440	7.445729	-0.651991	6.045530	-0.120531	-0.623991	-0.220715	-0.667166	0.297943	0.270051	0.627050
51441	7.070539	-0.771502	6.448095	-0.229835	-0.248026	-0.218474	-0.670454	0.293137	0.263613	0.628546
51442	6.937122	-0.331039	7.019448	0.239140	0.114898	0.058153	-0.673352	0.289014	0.257691	0.629812
51443	6.918632	-0.311444	7.543398	0.297082	0.357833	0.417146	-0.675724	0.285687	0.252609	0.630848
51444	6.667987	-0.533285	7.537137	0.085506	0.401917	0.256322	-0.677676	0.282691	0.248356	0.631791
51445	6.804337	-0.872993	7.587376	-0.220243	0.221624	0.411356	-0.679287	0.280236	0.245013	0.632461
51446	6.714269	-0.773545	7.625536	-0.109786	0.235934	0.373596	-0.680744	0.278202	0.242236	0.632860
51447	6.513723	-0.733629	7.802195	-0.066598	0.440179	0.367812	-0.681816	0.276847	0.240021	0.633146
51448	6.617391	-0.548564	7.960174	0.143476	0.438082	0.543112	-0.682371	0.276289	0.238799	0.633252
51449	6.449101	-0.541279	7.963915	0.147760	0.548834	0.433520	-0.682457	0.276452	0.238256	0.633294
51450	6.509124	-0.555271	7.924815	0.147937	0.482962	0.445215	-0.682175	0.277351	0.238384	0.633156
51451	6.530125	-0.677884	7.855325	0.036272	0.440959	0.415328	-0.681555	0.278967	0.239048	0.632864
51452	6.529265	-0.612147	7.889236	0.113696	0.513293	0.432771	-0.680609	0.281282	0.240235	0.632407
51453	6.714666	-0.625082	7.688166	0.121641	0.304808	0.408722	-0.679324	0.284092	0.242124	0.631812
51454	6.920420	-0.843359	7.458049	-0.079758	0.070054	0.395839	-0.677733	0.287265	0.244753	0.631072
51455	6.924455	-1.028499	7.280412	-0.270554	0.035350	0.283594	-0.675865	0.290770	0.248147	0.630144
51456	6.823032	-0.895265	7.266163	-0.155473	0.218499	0.191272	-0.673669	0.294624	0.252328	0.629045
51457	6.817520	-0.855296	7.235964	-0.131122	0.333427	0.159239	-0.671045	0.298903	0.257078	0.627906
51458	6.979591	-0.909068	7.219162	-0.190355	0.354413	0.261708	-0.667981	0.303683	0.262433	0.626664
51459	7.313264	-0.995248	6.984897	-0.279944	0.118365	0.344486	-0.664511	0.308747	0.268474	0.625318
51460	7.421912	-0.902391	6.621336	-0.220864	-0.038025	0.171692	-0.660654	0.313995	0.275508	0.623729
51461	7.271453	-0.786172	6.307854	-0.164628	0.024812	-0.156091	-0.656367	0.319510	0.283416	0.621910
51462	7.224182	-0.637751	5.971005	-0.074533	0.008560	-0.419135	-0.651626	0.325371	0.292032	0.619866
51463	7.540531	-0.531744	5.705528	-0.007489	-0.171963	-0.343734	-0.646443	0.331590	0.301361	0.617528
51464	7.917307	-0.292827	5.163150	0.185777	-0.587865	-0.376471	-0.640864	0.338090	0.311316	0.614875
51465	7.997120	-0.226467	4.761451	0.192210	-0.709321	-0.532014	-0.634921	0.345058	0.321506	0.611918
51466	8.135976	-0.198482	4.336202	0.166592	-0.880244	-0.635132	-0.628657	0.352469	0.331924	0.608591
51467	8.372317	-0.018377	3.913512	0.299031	-1.093971	-0.641047	-0.622207	0.360050	0.342584	0.604863
51468	8.511506	-0.150619	3.471675	0.116396	-1.273203	-0.708860	-0.615425	0.367828	0.353346	0.600918
51469	8.744834	-0.259209	3.083257	-0.039541	-1.449310	-0.650986	-0.608458	0.375629	0.364130	0.596733
51470	8.801605	-0.103857	2.689738	0.065161	-1.541526	-0.739309	-0.601436	0.383411	0.374981	0.592166
51471	8.889289	0.184954	2.508669	0.306306	-1.456267	-0.695373	-0.594317	0.391242	0.385735	0.587304
51472	9.110963	0.234543	2.167231	0.313765	-1.572277	-0.583177	-0.587199	0.398985	0.396220	0.582253
51473	9.202286	0.243248	1.959828	0.280021	-1.513733	-0.528005	-0.580040	0.406580	0.406426	0.577117
51474	9.413894	0.296985	1.636633	0.293853	-1.606222	-0.393831	-0.572908	0.413950	0.416376	0.571885
51475	9.654219	0.298345	1.464304	0.254306	-1.563708	-0.173167	-0.565849	0.421080	0.425910	0.566663
51476	9.878088	0.194130	1.261308	0.110051	-1.545513	0.025904	-0.559044	0.427752	0.435009	0.561485
51477	9.906743	0.165233	1.234166	0.041812	-1.307769	0.085587	-0.552507	0.434057	0.443785	0.556224
51478	10.075145	0.258046	0.976326	0.100802	-1.333958	0.223896	-0.546275	0.440086	0.451964	0.551032
51479	10.092097	0.337174	1.426145	0.139930	-0.642458	0.363773	-0.540375	0.445656	0.459824	0.545846
51480	10.051853	0.434037	1.156097	0.211151	-0.657329	0.290950	-0.534689	0.450864	0.466986	0.541067
51481	9.943762	0.377813	1.538369	0.119332	-0.040509	0.255479	-0.529473	0.455386	0.473803	0.536463
51482	10.100487	0.118646	1.709205	-0.178969	0.312151	0.425582	-0.524602	0.459446	0.480528	0.531785
51483	9.807340	0.277025	1.569015	-0.044067	0.411316	0.114464	-0.520231	0.462670	0.487201	0.527192
51484	10.133921	0.353311	1.725116	-0.020401	0.715166	0.448044	-0.516511	0.465093	0.493707	0.522646
51485	10.010698	0.001111	1.661605	-0.402565	0.817613	0.293868	-0.513150	0.467377	0.499209	0.518678
51486	9.905391	0.233296	1.528066	-0.194174	0.834946	0.175811	-0.510566	0.468790	0.503848	0.515457
51487	10.033215	0.100460	1.448139	-0.358445	0.843344	0.283462	-0.508208	0.469957	0.506945	0.513685
51488	10.084658	0.064177	1.867349	-0.442289	1.338114	0.346284	-0.507046	0.470116	0.510676	0.510985
