// General information: 
//  MT Manager version: 2021.0.0 
//  XDA version: 2021.0.0 build 5908 rev 109668 built on 2021-04-19
// Device information: 
//  DeviceId: 00B43DEF
//  ProductCode: MTW2-3A7G6
//  Firmware Version: 4.3.5
//  Hardware Version: 1.1.0
// Device settings: 
//  Filter Profile: human(46.1)
//  Option Flags: Orientation Smoother Disabled, Position/Velocity Smoother Disabled, Continuous Zero Rotation Update Disabled, AHS Disabled, ICC Disabled
// Coordinate system: ENU
PacketCounter	Acc_X	Acc_Y	Acc_Z	FreeAcc_E	FreeAcc_N	FreeAcc_U	Quat_q0	Quat_q1	Quat_q2	Quat_q3
50291	-9.648835	-1.334167	-0.503213	-0.049649	-0.004928	-0.059188	0.404554	0.525835	0.501353	-0.555408
50292	-9.645663	-1.321746	-0.457638	-0.044345	-0.051836	-0.066375	0.404530	0.525739	0.501461	-0.555420
50293	-9.646380	-1.371535	-0.467295	-0.088986	-0.034350	-0.058559	0.404487	0.525688	0.501564	-0.555407
50294	-9.637839	-1.296828	-0.447260	-0.018879	-0.068163	-0.077969	0.404350	0.525678	0.501623	-0.555462
50295	-9.652563	-1.339879	-0.496431	-0.047882	-0.015362	-0.055066	0.404297	0.525644	0.501782	-0.555389
50296	-9.640911	-1.395358	-0.502131	-0.100664	-0.001584	-0.058909	0.404146	0.525674	0.501861	-0.555400
50297	-9.623794	-1.324136	-0.542877	-0.023611	0.024460	-0.083129	0.403876	0.525806	0.501827	-0.555502
50298	-9.681753	-1.283212	-0.528185	0.022397	-0.004539	-0.032021	0.403683	0.525875	0.501881	-0.555528
50299	-9.635131	-1.354890	-0.549645	-0.047203	0.030186	-0.067409	0.403552	0.525884	0.502003	-0.555504
50300	-9.650288	-1.350198	-0.512453	-0.045785	-0.011011	-0.055050	0.403335	0.525962	0.502031	-0.555562
50301	-9.606933	-1.323956	-0.503786	-0.025063	-0.023391	-0.101939	0.403148	0.526010	0.502086	-0.555603
50302	-9.657259	-1.366730	-0.551456	-0.049611	0.024571	-0.043775	0.402990	0.526061	0.502150	-0.555612
50303	-9.638453	-1.361014	-0.548695	-0.045208	0.019827	-0.063289	0.402829	0.526100	0.502208	-0.555639
50304	-9.649328	-1.341865	-0.543722	-0.024187	0.008297	-0.055377	0.402687	0.526115	0.502293	-0.555650
50305	-9.649761	-1.359536	-0.560167	-0.036303	0.025304	-0.051640	0.402596	0.526096	0.502405	-0.555634
50306	-9.630080	-1.370748	-0.538014	-0.051717	0.004863	-0.070811	0.402449	0.526098	0.502503	-0.555650
50307	-9.651470	-1.347083	-0.506102	-0.029962	-0.034892	-0.054638	0.402317	0.526105	0.502603	-0.555648
50308	-9.644013	-1.352729	-0.490044	-0.037423	-0.051656	-0.062152	0.402165	0.526117	0.502713	-0.555647
50309	-9.636497	-1.358673	-0.474526	-0.044843	-0.068419	-0.069661	0.402057	0.526085	0.502908	-0.555580
50310	-9.625364	-1.398115	-0.500434	-0.077687	-0.038957	-0.073836	0.401799	0.526206	0.502984	-0.555583
50311	-9.616976	-1.356092	-0.478189	-0.040056	-0.072229	-0.089156	0.401455	0.526390	0.503008	-0.555634
50312	-9.624900	-1.322197	-0.541424	0.008080	-0.022474	-0.082349	0.401085	0.526594	0.503075	-0.555648
50313	-9.642445	-1.364929	-0.548224	-0.028147	-0.015501	-0.058751	0.400831	0.526708	0.503247	-0.555567
50314	-9.650137	-1.427841	-0.595606	-0.077531	0.035696	-0.039698	0.400516	0.526876	0.503357	-0.555536
50315	-9.628723	-1.343800	-0.561201	-0.003018	-0.017752	-0.074478	0.400220	0.527009	0.503512	-0.555483
50316	-9.653877	-1.366821	-0.606182	-0.011418	0.022525	-0.043739	0.399859	0.527198	0.503565	-0.555515
50317	-9.634094	-1.314054	-0.598440	0.037993	0.001215	-0.071066	0.399604	0.527309	0.503732	-0.555443
50318	-9.625321	-1.481360	-0.669016	-0.109897	0.095805	-0.052178	0.399354	0.527365	0.503948	-0.555374
50319	-9.645249	-1.363392	-0.624086	0.001721	0.023221	-0.051611	0.398871	0.527614	0.503878	-0.555547
50320	-9.632155	-1.404664	-0.617851	-0.038564	0.020816	-0.059159	0.398682	0.527655	0.504089	-0.555452
50321	-9.637356	-1.453367	-0.617549	-0.082863	0.024208	-0.047196	0.398326	0.527814	0.504115	-0.555534
50322	-9.630590	-1.410961	-0.627822	-0.037810	0.022620	-0.059160	0.398069	0.527900	0.504221	-0.555539
50323	-9.635170	-1.443760	-0.613373	-0.069525	0.009961	-0.050913	0.397768	0.528036	0.504260	-0.555590
50324	-9.631810	-1.479292	-0.690654	-0.087061	0.088889	-0.044290	0.397451	0.528194	0.504234	-0.555690
50325	-9.640221	-1.365518	-0.638509	0.016486	0.012630	-0.055344	0.397195	0.528306	0.504263	-0.555740
50326	-9.611025	-1.444832	-0.665264	-0.057286	0.052842	-0.071237	0.397136	0.528271	0.504456	-0.555640
50327	-9.614522	-1.445409	-0.622762	-0.064098	0.008015	-0.070413	0.396885	0.528383	0.504457	-0.555713
50328	-9.635995	-1.341461	-0.589604	0.035165	-0.048502	-0.066100	0.396663	0.528474	0.504479	-0.555766
50329	-9.614525	-1.513290	-0.651197	-0.120925	0.042349	-0.058879	0.396609	0.528444	0.504704	-0.555628
50330	-9.638292	-1.504183	-0.667404	-0.104340	0.050516	-0.035611	0.396325	0.528592	0.504706	-0.555688
50331	-9.655516	-1.465630	-0.669622	-0.063023	0.040595	-0.023927	0.396238	0.528628	0.504819	-0.555613
50332	-9.613258	-1.453284	-0.674367	-0.054960	0.044199	-0.067096	0.396125	0.528694	0.504852	-0.555601
50333	-9.631373	-1.397503	-0.694798	0.006263	0.049943	-0.055814	0.395988	0.528770	0.504869	-0.555610
50334	-9.641378	-1.378043	-0.657202	0.019886	0.006716	-0.051200	0.396004	0.528701	0.505019	-0.555529
50335	-9.624743	-1.530942	-0.690286	-0.123281	0.067393	-0.043541	0.395961	0.528675	0.505124	-0.555489
50336	-9.599156	-1.447347	-0.665057	-0.049070	0.027950	-0.082440	0.395762	0.528781	0.505063	-0.555586
50337	-9.646558	-1.362926	-0.669414	0.041379	0.010962	-0.047447	0.395678	0.528768	0.505108	-0.555616
50338	-9.622850	-1.439103	-0.680426	-0.032083	0.037114	-0.059184	0.395691	0.528686	0.505243	-0.555562
50339	-9.627558	-1.390335	-0.661017	0.013658	0.007522	-0.062836	0.395503	0.528752	0.505198	-0.555674
50340	-9.618550	-1.412536	-0.591822	-0.021136	-0.056673	-0.073162	0.395502	0.528672	0.505377	-0.555588
50341	-9.606561	-1.548022	-0.598464	-0.151544	-0.026198	-0.065027	0.395410	0.528661	0.505504	-0.555548
50342	-9.600756	-1.519702	-0.621074	-0.119055	-0.011569	-0.073312	0.395303	0.528703	0.505602	-0.555496
50343	-9.633099	-1.521484	-0.702249	-0.099803	0.062139	-0.035631	0.395069	0.528870	0.505563	-0.555538
50344	-9.598793	-1.265594	-0.608872	0.126807	-0.076426	-0.112824	0.394838	0.529002	0.505528	-0.555608
50345	-9.648410	-1.468438	-0.661549	-0.053038	0.005310	-0.030922	0.395054	0.528817	0.505915	-0.555279
50346	-9.568015	-1.632691	-0.764182	-0.202584	0.140771	-0.079460	0.394836	0.528967	0.505882	-0.555321
50347	-9.645673	-1.407160	-0.615042	-0.002138	-0.057009	-0.045696	0.394514	0.529199	0.505747	-0.555453
50348	-9.598927	-1.428504	-0.659884	-0.019489	-0.007299	-0.085662	0.394507	0.529191	0.505894	-0.555331
50349	-9.653759	-1.435993	-0.701071	-0.011374	0.026339	-0.027606	0.394385	0.529278	0.505932	-0.555300
50350	-9.610654	-1.503981	-0.674942	-0.088236	0.014893	-0.062090	0.394272	0.529383	0.505972	-0.555243
50351	-9.597669	-1.494336	-0.659203	-0.083568	-0.003969	-0.077399	0.393924	0.529656	0.505829	-0.555360
50352	-9.615236	-1.423083	-0.667257	-0.009772	-0.014180	-0.069851	0.393652	0.529850	0.505769	-0.555424
50353	-9.604150	-1.332423	-0.715102	0.087348	0.013654	-0.090620	0.393376	0.530039	0.505693	-0.555508
50354	-9.626533	-1.307484	-0.684712	0.109118	-0.025967	-0.074314	0.393360	0.530004	0.505887	-0.555375
50355	-9.619496	-1.536385	-0.661364	-0.118416	-0.008552	-0.049569	0.393403	0.529941	0.506162	-0.555155
50356	-9.572145	-1.510438	-0.698978	-0.090757	0.024672	-0.097385	0.392963	0.530234	0.505960	-0.555371
50357	-9.534100	-1.112558	-0.662134	0.285429	-0.085462	-0.195698	0.392355	0.530632	0.505616	-0.555734
50358	-9.573430	-1.066448	-0.402002	0.284471	-0.355964	-0.182430	0.392254	0.530627	0.505862	-0.555586
50359	-9.746374	-1.967725	-0.592411	-0.529697	-0.022682	0.133850	0.392637	0.530365	0.506596	-0.554897
50360	-9.442465	-2.021423	-1.072323	-0.523587	0.482697	-0.123053	0.390903	0.531839	0.505094	-0.556078
50361	-9.558981	-0.784462	-0.370253	0.547813	-0.455411	-0.240901	0.388442	0.533906	0.502788	-0.557908
50362	-9.574684	-1.564052	-0.926353	-0.089614	0.236823	-0.070263	0.389271	0.533512	0.503718	-0.556867
50363	-9.563324	-2.097860	-1.597315	-0.469164	0.996350	0.046155	0.388187	0.534642	0.502418	-0.557714
50364	-9.638372	-0.897426	-0.404806	0.443083	-0.410936	-0.143031	0.386169	0.536527	0.499802	-0.559652
50365	-9.709918	-1.819143	-0.212465	-0.489858	-0.409278	0.047812	0.388098	0.535539	0.501280	-0.557939
50366	-9.467961	-2.580168	-1.556025	-0.966620	1.083424	0.016482	0.386108	0.537555	0.498818	-0.559586
50367	-9.653916	-0.447063	-0.321583	0.838233	-0.581753	-0.197059	0.380325	0.542273	0.492272	-0.564766
50368	-9.736873	-0.557222	0.271595	0.589068	-1.136834	-0.140482	0.381126	0.542157	0.492909	-0.563781
50369	-9.595667	-3.093282	-1.684602	-1.405765	1.349311	0.221562	0.383441	0.541073	0.494802	-0.561591
50370	-9.608504	-2.210797	-1.165314	-0.685626	0.651741	0.070327	0.379073	0.544852	0.489532	-0.565507
50371	-9.609469	-1.012326	-0.075799	0.187970	-0.666172	-0.174570	0.377742	0.546397	0.486979	-0.567109
50372	-9.532367	-1.768700	-1.133506	-0.281320	0.560982	-0.071779	0.378524	0.546485	0.486721	-0.566725
50373	-9.648877	-1.442772	-0.534408	-0.125472	-0.098220	-0.043215	0.378197	0.547438	0.485063	-0.567444
50374	-9.659721	-1.796418	-0.584773	-0.465573	0.049336	0.018897	0.379259	0.547548	0.484864	-0.566798
50375	-9.578288	-1.703301	-0.320686	-0.475426	-0.213153	-0.092802	0.379934	0.548060	0.484161	-0.566453
50376	-9.618069	-2.183493	-0.082317	-1.020006	-0.324785	-0.007807	0.381891	0.548000	0.484802	-0.564643
50377	-9.663711	-2.672670	-0.166264	-1.498931	-0.136636	0.101569	0.383560	0.548577	0.485068	-0.562720
50378	-9.587678	-1.569181	0.152687	-0.570784	-0.717388	-0.139601	0.383816	0.550526	0.483872	-0.561670
50379	-9.648578	-0.400608	0.680913	0.376801	-1.537281	-0.262099	0.385685	0.551523	0.484773	-0.558627
50380	-9.561234	-0.756641	0.558129	0.010670	-1.360189	-0.302136	0.390272	0.550699	0.489163	-0.552392
50381	-9.555328	-1.502085	0.169931	-0.671319	-0.874585	-0.201593	0.393999	0.550678	0.493171	-0.546169
50382	-9.489636	-1.054843	0.385830	-0.349339	-1.244351	-0.344660	0.395742	0.552249	0.495864	-0.540858
50383	-9.616340	-0.771577	0.235784	-0.091876	-1.251853	-0.244597	0.397846	0.553669	0.499451	-0.534526
50384	-9.744037	-1.444081	-0.323765	-0.689750	-0.691634	-0.005501	0.400495	0.554464	0.504355	-0.527067
50385	-9.680317	-2.269471	-1.663824	-1.309581	0.657210	0.161227	0.399252	0.557787	0.506770	-0.522164
50386	-8.978862	-1.653030	-1.986931	-0.723459	0.862532	-0.537326	0.392982	0.564733	0.504493	-0.521660
50387	-9.422860	-0.573811	-1.597054	0.258871	0.108942	-0.242409	0.384755	0.572878	0.500645	-0.522617
50388	-9.604528	-0.232526	-1.851133	0.634242	0.132855	-0.050187	0.378088	0.579728	0.498777	-0.521715
50389	-9.723009	-0.335165	-2.076858	0.564221	0.227690	0.116617	0.372989	0.585241	0.498256	-0.519724
50390	-9.607520	-0.465802	-2.036277	0.391415	0.129989	0.010587	0.369743	0.589037	0.499202	-0.516839
50391	-9.574551	-1.753568	-2.201628	-0.852967	0.493008	0.118193	0.369797	0.589935	0.503575	-0.511506
50392	-9.535759	-3.027946	-3.027785	-1.930107	1.466387	0.355394	0.370045	0.589710	0.508411	-0.506781
50393	-9.280645	-2.539879	-3.464855	-1.370085	1.734825	0.172263	0.367570	0.590219	0.511248	-0.505132
50394	-8.843932	-2.456872	-3.397348	-1.306943	1.668659	-0.257578	0.366897	0.588797	0.516392	-0.502040
50395	-8.384547	-4.019903	-3.756329	-2.774411	2.342314	-0.464676	0.367632	0.586472	0.522581	-0.497802
50396	-8.239871	-5.047407	-4.800960	-3.547961	3.475400	-0.233874	0.363559	0.586955	0.525258	-0.497405
50397	-8.846338	-3.499585	-3.810627	-2.115213	2.031213	0.006862	0.353582	0.590403	0.523433	-0.502416
50398	-8.972778	-2.196810	-3.335365	-0.801105	1.242932	-0.103276	0.343473	0.593285	0.521001	-0.508525
50399	-8.656420	-1.611269	-3.182685	-0.147771	1.019250	-0.506942	0.334168	0.595617	0.518178	-0.514843
50400	-8.844333	-0.498629	-3.078147	1.044147	0.566081	-0.510356	0.324692	0.597693	0.514102	-0.522530
50401	-8.835708	0.620295	-2.319838	2.005054	-0.452021	-0.890212	0.318019	0.597911	0.510777	-0.529596
50402	-9.086922	0.070391	-1.941509	1.477916	-0.690710	-0.664760	0.318443	0.594044	0.511946	-0.532558
50403	-9.308217	0.773715	-3.727451	2.818783	0.766987	-0.189806	0.317326	0.591170	0.508390	-0.539780
50404	-10.457289	3.540668	-2.231867	5.154057	-1.604939	0.073164	0.316681	0.587615	0.502357	-0.549599
50405	-12.420707	9.247154	-5.963687	12.068897	-0.287157	1.571797	0.316196	0.585239	0.494684	-0.559288
50406	-11.344632	8.214257	1.861531	8.384723	-6.684699	-0.613067	0.332909	0.576807	0.505599	-0.548484
50407	-11.065720	-3.679537	-0.647774	-2.149682	-0.934831	1.628448	0.370711	0.555243	0.535407	-0.517318
50408	-7.918068	-13.926906	-8.807711	-11.078017	9.137984	1.501188	0.373393	0.552835	0.533420	-0.520014
50409	-9.076754	-2.398701	0.181810	-1.348945	-1.488585	-0.640226	0.352233	0.565260	0.511937	-0.542525
50410	-9.558871	2.093093	1.580412	2.667501	-3.849304	-1.076675	0.347239	0.566487	0.504264	-0.551575
50411	-9.206628	0.944620	0.322871	1.905695	-2.235709	-1.030439	0.358913	0.558406	0.513545	-0.543725
50412	-9.353111	-2.183492	-1.550477	-0.646141	0.259487	-0.108736	0.374359	0.547782	0.525555	-0.532524
50413	-9.518679	-3.533239	-2.535142	-1.801115	1.418058	0.398139	0.377926	0.545286	0.526750	-0.531384
50414	-9.597188	-1.343036	-0.916631	0.031851	-0.508284	-0.092069	0.373038	0.548422	0.521151	-0.537101
50415	-9.792428	-0.986277	-0.335789	0.299403	-1.140099	-0.035795	0.371690	0.548882	0.519444	-0.539216
50416	-9.202074	-1.625200	-1.408399	-0.143900	0.140134	-0.364797	0.370979	0.548748	0.518406	-0.540837
50417	-9.455271	-0.780780	-0.500194	0.522197	-0.926862	-0.371811	0.370560	0.548376	0.517669	-0.542207
50418	-9.482076	-1.632120	-0.720882	-0.243150	-0.541291	-0.182468	0.375089	0.544648	0.521748	-0.538930
50419	-9.405374	-2.834829	-1.863521	-1.190692	0.795750	0.082718	0.377219	0.542766	0.523574	-0.537570
50420	-9.801704	-1.624842	-1.590486	-0.010109	0.257110	0.245985	0.374051	0.544722	0.520593	-0.540692
50421	-9.652457	-0.503557	-0.700679	0.891053	-0.780693	-0.194425	0.372171	0.545647	0.518812	-0.542763
50422	-9.478573	-1.573748	-1.402775	-0.009290	0.137222	-0.103471	0.373944	0.543945	0.520752	-0.541394
50423	-9.403563	-2.247775	-1.952372	-0.552687	0.810907	0.002006	0.374036	0.543366	0.520881	-0.541787
50424	-9.488154	-1.505532	-1.308695	0.054896	0.044881	-0.117363	0.373311	0.543419	0.520005	-0.543074
50425	-9.529601	-1.494096	-1.335587	0.087261	0.074971	-0.075329	0.374017	0.542491	0.520368	-0.543169
50426	-9.586443	-1.667833	-1.203409	-0.095878	-0.017204	-0.008594	0.374795	0.541590	0.520655	-0.543257
50427	-9.558486	-1.822806	-1.297721	-0.225640	0.120114	0.000875	0.375549	0.540725	0.520902	-0.543361
50428	-9.518600	-1.527536	-1.186139	0.038168	-0.023353	-0.099705	0.375702	0.540266	0.520600	-0.544000
50429	-9.591960	-1.564831	-1.136710	0.007926	-0.062872	-0.027879	0.376498	0.539338	0.521001	-0.543987
50430	-9.478869	-1.960437	-1.378854	-0.335565	0.273580	-0.045085	0.376888	0.538679	0.521034	-0.544339
50431	-9.457532	-1.757545	-1.177356	-0.174904	0.056770	-0.123198	0.376620	0.538546	0.520417	-0.545245
50432	-9.523834	-1.562296	-1.049870	0.005188	-0.099333	-0.105139	0.376702	0.538187	0.520077	-0.545866
50433	-9.540407	-1.857122	-1.206256	-0.240152	0.117697	-0.022295	0.377044	0.537695	0.519951	-0.546236
50434	-9.494979	-1.703437	-1.247628	-0.082947	0.150018	-0.087283	0.376830	0.537622	0.519206	-0.547162
50435	-9.532359	-1.218808	-1.009000	0.349114	-0.162359	-0.157576	0.376782	0.537413	0.518580	-0.547994
50436	-9.575900	-1.584929	-0.982019	-0.000637	-0.112254	-0.057606	0.378092	0.536165	0.519309	-0.547624
50437	-9.510615	-2.036370	-1.285444	-0.382232	0.287468	-0.013594	0.378860	0.535306	0.519535	-0.547719
50438	-9.615494	-1.662107	-1.173636	-0.022414	0.110242	0.015083	0.378957	0.534979	0.518967	-0.548509
50439	-9.617219	-1.363689	-1.078897	0.253706	-0.019688	-0.042847	0.379330	0.534450	0.518622	-0.549094
50440	-9.577324	-1.683773	-1.100338	-0.053877	0.082727	-0.026922	0.380482	0.533345	0.518939	-0.549070
50441	-9.398644	-1.744559	-1.102218	-0.134255	0.137492	-0.192088	0.381039	0.532671	0.518640	-0.549621
50442	-9.503614	-1.520212	-0.616853	0.004300	-0.373023	-0.175725	0.382288	0.531540	0.519058	-0.549454
50443	-9.473092	-1.926983	-0.731794	-0.371133	-0.170929	-0.126548	0.383607	0.530431	0.519601	-0.549094
50444	-9.507580	-1.755305	-0.586703	-0.227433	-0.336360	-0.135161	0.384110	0.529971	0.519537	-0.549245
50445	-9.539549	-1.660528	-0.610174	-0.125574	-0.326333	-0.116791	0.384464	0.529666	0.519598	-0.549236
50446	-9.474443	-1.604999	-0.749270	-0.053067	-0.187833	-0.176070	0.384080	0.529921	0.519163	-0.549669
50447	-9.560127	-1.491429	-0.693663	0.060369	-0.271888	-0.116091	0.383789	0.530108	0.519005	-0.549842
50448	-9.490100	-1.693875	-0.825808	-0.119821	-0.100270	-0.138559	0.383679	0.530201	0.519068	-0.549768
50449	-9.511215	-1.826749	-0.867273	-0.238686	-0.043303	-0.091909	0.383677	0.530276	0.519270	-0.549507
50450	-9.506627	-1.715735	-0.890148	-0.128773	-0.044906	-0.112509	0.383321	0.530650	0.519114	-0.549542
50451	-9.563409	-1.532132	-0.840515	0.045540	-0.138884	-0.092023	0.383290	0.530811	0.519319	-0.549213
50452	-9.551320	-1.750983	-1.148643	-0.110629	0.195309	-0.037073	0.382949	0.531168	0.519286	-0.549137
50453	-9.545360	-1.407704	-0.983677	0.188867	-0.032064	-0.115964	0.382334	0.531685	0.519019	-0.549318
50454	-9.603497	-1.729033	-1.175345	-0.077035	0.198475	0.013442	0.382245	0.531791	0.519255	-0.549055
50455	-9.582683	-1.850224	-1.183040	-0.195495	0.225908	0.013882	0.381561	0.532325	0.518805	-0.549438
50456	-9.550434	-1.644232	-1.108033	-0.013612	0.118743	-0.059342	0.381113	0.532700	0.518416	-0.549753
50457	-9.585976	-1.628405	-1.160594	0.018201	0.163017	-0.021737	0.380788	0.532989	0.518049	-0.550044
50458	-9.611237	-1.570521	-1.132423	0.072798	0.123653	-0.009412	0.380642	0.533122	0.517773	-0.550276
50459	-9.490560	-1.670448	-1.104165	-0.046298	0.133949	-0.114223	0.380538	0.533214	0.517473	-0.550542
50460	-9.510632	-1.583681	-1.059886	0.033163	0.076596	-0.113380	0.380232	0.533408	0.517012	-0.550997
50461	-9.610883	-1.433967	-0.851632	0.151747	-0.162731	-0.060708	0.380343	0.533246	0.516961	-0.551126
50462	-9.562340	-1.786659	-0.991337	-0.167636	0.048832	-0.036044	0.380920	0.532750	0.517342	-0.550849
50463	-9.538480	-1.796115	-1.008188	-0.176496	0.073825	-0.056229	0.380902	0.532735	0.517112	-0.551091
50464	-9.556766	-1.454532	-0.959713	0.148059	-0.034164	-0.099532	0.380993	0.532643	0.516957	-0.551263
50465	-9.542279	-1.601971	-1.037211	0.018959	0.074846	-0.081744	0.381524	0.532198	0.517249	-0.551052
50466	-9.533509	-1.779072	-1.095874	-0.142113	0.169953	-0.055395	0.381839	0.531896	0.517315	-0.551063
50467	-9.554123	-1.692543	-0.985050	-0.076837	0.048957	-0.060355	0.381995	0.531732	0.517172	-0.551249
50468	-9.555115	-1.676332	-0.965928	-0.063823	0.033845	-0.063938	0.382182	0.531548	0.517012	-0.551446
50469	-9.569583	-1.592006	-0.866997	0.000941	-0.073147	-0.073194	0.382440	0.531299	0.516943	-0.551571
50470	-9.544401	-1.697216	-0.896367	-0.098260	-0.015978	-0.077714	0.382646	0.531138	0.516837	-0.551682
50471	-9.563266	-1.672348	-0.904423	-0.069507	-0.009345	-0.062514	0.382724	0.531065	0.516623	-0.551899
50472	-9.600480	-1.624155	-0.892705	-0.019406	-0.028798	-0.035018	0.382818	0.530996	0.516445	-0.552067
50473	-9.510951	-1.644988	-0.908737	-0.049675	0.006627	-0.117975	0.383161	0.530764	0.516472	-0.552027
50474	-9.528408	-1.714912	-0.932642	-0.111273	0.045411	-0.087110	0.383436	0.530592	0.516409	-0.552060
50475	-9.555858	-1.543259	-0.841449	0.039347	-0.073866	-0.096870	0.383770	0.530403	0.516435	-0.551986
50476	-9.604206	-1.552904	-0.794052	0.025560	-0.121053	-0.052181	0.384205	0.530121	0.516619	-0.551781
50477	-9.459149	-1.676917	-0.802302	-0.115449	-0.071050	-0.173555	0.384526	0.529903	0.516813	-0.551586
50478	-9.595434	-1.758430	-0.916036	-0.153565	0.038636	-0.015827	0.384500	0.529962	0.516736	-0.551619
50479	-9.539530	-1.511642	-0.852366	0.064406	-0.060362	-0.116996	0.384460	0.530059	0.516578	-0.551702
50480	-9.567975	-1.624614	-0.862852	-0.041312	-0.033479	-0.069628	0.385020	0.529718	0.517057	-0.551190
50481	-9.564451	-1.876421	-0.949709	-0.272527	0.095528	-0.024008	0.385292	0.529629	0.517201	-0.550950
50482	-9.509663	-1.565625	-0.800873	-0.010782	-0.099189	-0.142304	0.385369	0.529699	0.517178	-0.550850
50483	-9.527055	-1.600822	-0.903084	-0.025778	0.003220	-0.109993	0.385609	0.529662	0.517377	-0.550531
50484	-9.605051	-1.597331	-0.861455	-0.022719	-0.050138	-0.037844	0.385717	0.529696	0.517489	-0.550318
50485	-9.537436	-1.718327	-0.927475	-0.139828	0.041054	-0.078505	0.385782	0.529774	0.517606	-0.550087
50486	-9.532881	-1.606819	-0.916275	-0.036988	0.007818	-0.102084	0.385505	0.530135	0.517388	-0.550138
50487	-9.576925	-1.460430	-0.819615	0.089923	-0.121332	-0.091612	0.385544	0.530236	0.517506	-0.549903
50488	-9.554268	-1.766634	-0.989470	-0.181087	0.097436	-0.048375	0.385820	0.530167	0.517823	-0.549477
50489	-9.531317	-1.662164	-1.018193	-0.079866	0.106178	-0.085003	0.385436	0.530570	0.517566	-0.549600
50490	-9.593966	-1.460938	-0.907170	0.100915	-0.049046	-0.066463	0.385381	0.530734	0.517601	-0.549447
50491	-9.591158	-1.633722	-0.994844	-0.052710	0.063739	-0.033003	0.385412	0.530816	0.517730	-0.549225
50492	-9.580033	-1.590861	-0.919999	-0.029457	-0.019056	-0.058046	0.385410	0.530906	0.517806	-0.549068
50493	-9.526376	-1.565550	-0.904005	-0.017055	-0.035853	-0.116377	0.385372	0.530983	0.517922	-0.548911
50494	-9.591384	-1.567382	-0.955398	-0.000965	0.002556	-0.047232	0.385274	0.531110	0.517996	-0.548785
50495	-9.580717	-1.461786	-0.892439	0.087248	-0.080355	-0.080816	0.385105	0.531252	0.518054	-0.548713
50496	-9.560102	-1.597515	-0.947228	-0.036927	-0.005407	-0.073927	0.385005	0.531319	0.518286	-0.548499
50497	-9.541421	-1.607225	-0.927880	-0.052341	-0.026330	-0.092635	0.384695	0.531526	0.518360	-0.548445
50498	-9.565944	-1.519684	-0.881146	0.027810	-0.097442	-0.087315	0.384411	0.531706	0.518540	-0.548300
50499	-9.522158	-1.587664	-0.891280	-0.042032	-0.078302	-0.118429	0.384375	0.531698	0.518995	-0.547903
50500	-9.535352	-1.706152	-1.067775	-0.120657	0.103980	-0.068528	0.384104	0.531850	0.519269	-0.547686
50501	-9.477594	-1.462595	-1.044249	0.104387	0.036897	-0.166851	0.383739	0.532069	0.519443	-0.547565
50502	-9.545901	-1.528029	-1.141178	0.070215	0.125233	-0.079201	0.383715	0.531998	0.519953	-0.547165
50503	-9.565832	-1.614212	-1.243979	0.010508	0.229766	-0.034886	0.383660	0.531883	0.520404	-0.546887
50504	-9.593877	-1.651896	-1.258060	-0.017539	0.240545	0.000355	0.383775	0.531643	0.520834	-0.546630
50505	-9.580630	-1.675439	-1.268396	-0.038101	0.253485	-0.007653	0.383801	0.531458	0.521080	-0.546557
50506	-9.586725	-1.660271	-1.242449	-0.024538	0.224429	-0.006847	0.383873	0.531221	0.521237	-0.546587
50507	-9.612379	-1.655491	-1.123308	-0.036148	0.105692	0.005043	0.384050	0.530929	0.521395	-0.546596
50508	-9.546139	-1.751833	-1.056715	-0.149094	0.069186	-0.051165	0.384161	0.530696	0.521417	-0.546723
50509	-9.518707	-1.689322	-0.952904	-0.109106	-0.035524	-0.099065	0.384110	0.530609	0.521309	-0.546946
50510	-9.471176	-1.664114	-0.948669	-0.089142	-0.034536	-0.150220	0.383956	0.530603	0.521152	-0.547210
50511	-9.526312	-1.645482	-0.862405	-0.076866	-0.127505	-0.108059	0.383766	0.530651	0.521054	-0.547389
50512	-9.543064	-1.622192	-0.940583	-0.034037	-0.057034	-0.087366	0.383324	0.530894	0.520768	-0.547736
50513	-9.525443	-1.432819	-0.688183	0.101169	-0.335357	-0.161888	0.383188	0.530913	0.520875	-0.547711
50514	-9.471253	-1.928144	-0.928438	-0.340156	-0.012582	-0.108642	0.383217	0.530825	0.521302	-0.547370
50515	-9.553000	-1.641419	-0.908838	-0.051808	-0.098229	-0.077817	0.382231	0.531519	0.520790	-0.547873
50516	-9.520267	-1.469038	-0.832992	0.097768	-0.205174	-0.146469	0.382129	0.531576	0.521193	-0.547505
50517	-9.511186	-1.924609	-1.188604	-0.277138	0.213006	-0.042458	0.381946	0.531719	0.521528	-0.547176
50518	-9.590677	-1.594756	-1.014310	0.020640	-0.034051	-0.037639	0.381328	0.532220	0.521361	-0.547278
50519	-9.540613	-1.615287	-1.061909	0.002439	0.014833	-0.078220	0.381204	0.532365	0.521639	-0.546959
50520	-9.544694	-1.645147	-1.084725	-0.022132	0.033695	-0.066781	0.380838	0.532652	0.521707	-0.546869
50521	-9.561243	-1.654273	-1.100057	-0.025867	0.040541	-0.047350	0.380773	0.532703	0.522010	-0.546575
50522	-9.533685	-1.760791	-1.142366	-0.125175	0.097496	-0.051983	0.380512	0.532905	0.522106	-0.546469
50523	-9.559974	-1.657307	-1.081497	-0.032310	0.010457	-0.050093	0.380090	0.533215	0.522043	-0.546520
50524	-9.574480	-1.559194	-1.013926	0.052437	-0.080545	-0.059710	0.379783	0.533443	0.522100	-0.546457
50525	-9.576187	-1.717460	-1.044670	-0.094962	-0.029527	-0.028289	0.379768	0.533451	0.522440	-0.546134
50526	-9.511196	-1.838328	-1.132036	-0.204660	0.079336	-0.062015	0.379355	0.533797	0.522393	-0.546128
50527	-9.518685	-1.585625	-0.989648	0.013153	-0.111586	-0.112876	0.379006	0.534128	0.522386	-0.546054
50528	-9.508957	-1.822671	-1.166628	-0.184292	0.097011	-0.062814	0.378779	0.534368	0.522519	-0.545849
50529	-9.519317	-1.678147	-1.073840	-0.061964	-0.027943	-0.087355	0.378209	0.534890	0.522347	-0.545898
50530	-9.520867	-1.721310	-1.175318	-0.085170	0.070645	-0.066973	0.377992	0.535205	0.522434	-0.545656
50531	-9.547865	-1.689605	-1.268963	-0.034202	0.145118	-0.034930	0.377554	0.535672	0.522266	-0.545662
50532	-9.528879	-1.647470	-1.307381	0.009606	0.171831	-0.055982	0.377353	0.535969	0.522252	-0.545522
50533	-9.508390	-1.716636	-1.340475	-0.056695	0.214731	-0.060566	0.377247	0.536231	0.522206	-0.545383
50534	-9.505292	-1.685808	-1.266079	-0.045608	0.133873	-0.077417	0.377159	0.536478	0.522122	-0.545280
50535	-9.511147	-1.695963	-1.270149	-0.057477	0.136762	-0.069511	0.377226	0.536618	0.522074	-0.545143
50536	-9.498586	-1.745716	-1.273423	-0.110503	0.149713	-0.073199	0.377203	0.536821	0.521945	-0.545082
50537	-9.539001	-1.647763	-1.196576	-0.029230	0.050713	-0.058917	0.377233	0.537014	0.521796	-0.545014
50538	-9.523563	-1.743619	-1.271643	-0.113386	0.143483	-0.049384	0.377300	0.537185	0.521640	-0.544948
50539	-9.544855	-1.652100	-1.231979	-0.033766	0.086367	-0.048321	0.377262	0.537442	0.521319	-0.545029
50540	-9.509785	-1.647158	-1.230601	-0.038173	0.091275	-0.083672	0.377372	0.537585	0.521120	-0.545001
50541	-9.499055	-1.615520	-1.229520	-0.013553	0.088104	-0.099514	0.377488	0.537725	0.520910	-0.544983
50542	-9.539369	-1.623797	-1.295731	-0.006621	0.150744	-0.050903	0.377593	0.537845	0.520669	-0.545022
50543	-9.545323	-1.599736	-1.333027	0.020997	0.185453	-0.044654	0.377860	0.537859	0.520492	-0.544993
50544	-9.556775	-1.604395	-1.382411	0.023762	0.238146	-0.026993	0.378209	0.537790	0.520279	-0.545022
50545	-9.573188	-1.547017	-1.310822	0.063327	0.163185	-0.028680	0.378657	0.537598	0.520113	-0.545059
50546	-9.533010	-1.592549	-1.289889	0.006162	0.166168	-0.063295	0.379240	0.537277	0.519991	-0.545087
50547	-9.605809	-1.497570	-1.150213	0.077549	0.013398	-0.023353	0.379771	0.536935	0.519804	-0.545233
50548	-9.512856	-1.568702	-1.080431	-0.019822	-0.017403	-0.111044	0.380501	0.536413	0.519871	-0.545174
50549	-9.518139	-1.723088	-1.094350	-0.167215	0.033642	-0.079625	0.380856	0.536154	0.519622	-0.545418
50550	-9.519154	-1.517473	-0.956570	0.004855	-0.127350	-0.126832	0.381051	0.536042	0.519252	-0.545743
50551	-9.536808	-1.586897	-0.977077	-0.056743	-0.088476	-0.096074	0.381437	0.535795	0.519150	-0.545814
50552	-9.537941	-1.665247	-0.939780	-0.141107	-0.103346	-0.086539	0.381676	0.535661	0.518944	-0.545974
50553	-9.533762	-1.569431	-0.932306	-0.050995	-0.120619	-0.106618	0.381770	0.535654	0.518660	-0.546185
50554	-9.517744	-1.527602	-0.894717	-0.021282	-0.157679	-0.133007	0.381896	0.535644	0.518509	-0.546250
50555	-9.527108	-1.647031	-0.974381	-0.121597	-0.056865	-0.096212	0.382017	0.535623	0.518441	-0.546251
50556	-9.506125	-1.576941	-0.893788	-0.074023	-0.143850	-0.136643	0.381878	0.535842	0.518205	-0.546357
50557	-9.522718	-1.566430	-0.954673	-0.050927	-0.089181	-0.115434	0.381722	0.536050	0.518073	-0.546387
50558	-9.545830	-1.569894	-0.984926	-0.047022	-0.064368	-0.088945	0.381640	0.536239	0.518036	-0.546294
50559	-9.531600	-1.588489	-1.061115	-0.053534	0.012282	-0.091697	0.381407	0.536508	0.517916	-0.546307
50560	-9.580032	-1.518202	-1.052785	0.017547	-0.018837	-0.056169	0.381372	0.536652	0.517981	-0.546128
50561	-9.516409	-1.621541	-1.156065	-0.072468	0.105780	-0.090986	0.381234	0.536845	0.517957	-0.546058
50562	-9.566222	-1.504298	-1.107329	0.036776	0.026763	-0.065912	0.381108	0.537005	0.517952	-0.545993
50563	-9.581573	-1.574849	-1.172076	-0.017780	0.097578	-0.032574	0.381039	0.537119	0.517983	-0.545899
50564	-9.545464	-1.541822	-1.180234	0.010273	0.102320	-0.072284	0.381019	0.537151	0.518024	-0.545842
50565	-9.572734	-1.607490	-1.249772	-0.036115	0.177131	-0.027469	0.381015	0.537162	0.518052	-0.545808
50566	-9.568333	-1.514631	-1.215624	0.046971	0.127985	-0.050195	0.381001	0.537127	0.517993	-0.545908
50567	-9.592942	-1.537004	-1.189243	0.024104	0.105043	-0.025471	0.381201	0.536914	0.518094	-0.545883
50568	-9.526773	-1.598180	-1.192676	-0.042384	0.131859	-0.080428	0.381349	0.536727	0.518089	-0.545967
50569	-9.518094	-1.573575	-1.090717	-0.038836	0.033002	-0.104067	0.381455	0.536578	0.518059	-0.546069
50570	-9.550132	-1.562200	-1.023126	-0.035673	-0.035854	-0.081823	0.381580	0.536400	0.518067	-0.546148
50571	-9.556570	-1.592709	-1.001736	-0.067268	-0.048840	-0.073010	0.381715	0.536218	0.518098	-0.546204
50572	-9.557079	-1.609744	-0.980456	-0.086705	-0.063869	-0.072116	0.381817	0.536074	0.518121	-0.546251
50573	-9.528486	-1.608286	-0.932573	-0.097605	-0.104916	-0.105588	0.381850	0.535998	0.518118	-0.546307
50574	-9.538870	-1.586703	-0.991418	-0.062362	-0.052268	-0.092402	0.381824	0.535957	0.518152	-0.546332
50575	-9.543094	-1.616256	-1.038892	-0.079892	-0.001490	-0.078426	0.381736	0.535988	0.518133	-0.546382
50576	-9.512972	-1.565706	-1.051790	-0.031546	0.005167	-0.114578	0.381698	0.535987	0.518188	-0.546357
50577	-9.499892	-1.571266	-1.079745	-0.032367	0.033914	-0.123493	0.381636	0.535988	0.518243	-0.546347
50578	-9.612861	-1.618583	-1.079572	-0.062446	0.025219	-0.005147	0.381642	0.535944	0.518376	-0.546260
50579	-9.539330	-1.633996	-1.125737	-0.077335	0.081771	-0.069825	0.381528	0.535997	0.518348	-0.546314
50580	-9.563673	-1.592525	-1.113894	-0.035256	0.058705	-0.053792	0.381491	0.535982	0.518381	-0.546323
50581	-9.550749	-1.566147	-1.146602	-0.003634	0.087381	-0.067090	0.381440	0.535949	0.518388	-0.546385
50582	-9.582121	-1.506641	-1.107169	0.051729	0.034388	-0.050056	0.381548	0.535796	0.518497	-0.546355
50583	-9.502046	-1.653223	-1.140319	-0.093561	0.105127	-0.101738	0.381647	0.535640	0.518604	-0.546338
50584	-9.555475	-1.662869	-1.147599	-0.092495	0.108179	-0.046984	0.381555	0.535622	0.518494	-0.546524
50585	-9.543967	-1.573400	-1.156325	-0.002993	0.104815	-0.071589	0.381468	0.535584	0.518346	-0.546762
50586	-9.611265	-1.579182	-1.102791	-0.007792	0.048128	-0.010442	0.381615	0.535356	0.518378	-0.546852
50587	-9.498208	-1.502330	-1.107374	0.055337	0.058404	-0.133186	0.381525	0.535269	0.518192	-0.547177
50588	-9.610600	-1.443922	-0.955065	0.099698	-0.111918	-0.048558	0.381851	0.534874	0.518445	-0.547097
50589	-9.517738	-1.708784	-0.975356	-0.163870	-0.029041	-0.095131	0.382127	0.534521	0.518682	-0.547024
50590	-9.476121	-1.744904	-0.947627	-0.208365	-0.042200	-0.133103	0.382221	0.534361	0.518764	-0.547037
50591	-9.529130	-1.657312	-1.005390	-0.102883	-0.007443	-0.088944	0.382118	0.534359	0.518678	-0.547192
50592	-9.531635	-1.547483	-0.944293	-0.006529	-0.086567	-0.110578	0.382168	0.534252	0.518795	-0.547151
50593	-9.535451	-1.641272	-0.980753	-0.088983	-0.035573	-0.087910	0.382197	0.534188	0.518928	-0.547067
50594	-9.524402	-1.583885	-0.955488	-0.038953	-0.070783	-0.110659	0.382019	0.534278	0.518919	-0.547112
50595	-9.541337	-1.544624	-0.991168	0.009578	-0.048015	-0.096567	0.381875	0.534348	0.518999	-0.547068
50596	-9.503357	-1.641532	-1.009820	-0.085240	-0.011197	-0.116256	0.381786	0.534369	0.519195	-0.546924
50597	-9.502889	-1.578700	-1.026721	-0.020018	-0.010485	-0.125023	0.381479	0.534562	0.519199	-0.546946
50598	-9.555877	-1.605246	-1.021562	-0.038645	-0.023277	-0.069323	0.381397	0.534578	0.519478	-0.546723
50599	-9.529395	-1.696600	-1.049402	-0.125303	0.017587	-0.077543	0.381259	0.534677	0.519688	-0.546523
50600	-9.521028	-1.699575	-1.101835	-0.118550	0.064284	-0.079528	0.380957	0.534878	0.519747	-0.546480
50601	-9.568133	-1.631475	-1.127599	-0.040373	0.065226	-0.041481	0.380652	0.535135	0.519729	-0.546458
50602	-9.565385	-1.599184	-1.204537	0.006424	0.129833	-0.040892	0.380304	0.535387	0.519684	-0.546497
50603	-9.586399	-1.498418	-1.122952	0.091772	0.024909	-0.045586	0.380069	0.535527	0.519720	-0.546488
50604	-9.515194	-1.655436	-1.213222	-0.051101	0.147429	-0.079911	0.379929	0.535575	0.519832	-0.546432
50605	-9.510115	-1.660806	-1.164515	-0.065419	0.098443	-0.089381	0.379731	0.535660	0.519873	-0.546447
50606	-9.554050	-1.704935	-1.248151	-0.083293	0.179412	-0.029772	0.379438	0.535800	0.519784	-0.546598
50607	-9.558294	-1.532628	-1.167664	0.070993	0.068217	-0.062627	0.379151	0.535908	0.519650	-0.546819
50608	-9.513900	-1.632793	-1.194481	-0.024423	0.118920	-0.086827	0.379220	0.535748	0.519785	-0.546799
50609	-9.562965	-1.614900	-1.156208	-0.005458	0.072164	-0.045918	0.379046	0.535745	0.519707	-0.546998
50610	-9.528931	-1.618211	-1.088947	-0.023977	0.013022	-0.086218	0.379068	0.535583	0.519811	-0.547042
50611	-9.517959	-1.750213	-1.175352	-0.133032	0.123819	-0.065728	0.378947	0.535537	0.519765	-0.547215
50612	-9.557466	-1.578219	-1.125819	0.033034	0.040748	-0.060731	0.378645	0.535604	0.519509	-0.547600
50613	-9.535969	-1.560781	-1.050798	0.035437	-0.030352	-0.092979	0.378703	0.535397	0.519637	-0.547642
50614	-9.522276	-1.836787	-1.158505	-0.209123	0.128663	-0.049012	0.378756	0.535204	0.519708	-0.547727
50615	-9.526545	-1.680308	-1.087998	-0.067583	0.033445	-0.078390	0.378423	0.535312	0.519397	-0.548145
50616	-9.569449	-1.584782	-1.091675	0.035473	0.016384	-0.051739	0.378456	0.535131	0.519428	-0.548270
50617	-9.529788	-1.649602	-1.173529	-0.012879	0.116866	-0.070952	0.378451	0.534972	0.519361	-0.548493
50618	-9.547147	-1.692279	-1.171064	-0.049014	0.123916	-0.047163	0.378607	0.534691	0.519434	-0.548590
50619	-9.513692	-1.614631	-1.131311	0.017125	0.080506	-0.097212	0.378499	0.534590	0.519206	-0.548978
50620	-9.540245	-1.640506	-1.035620	-0.019700	-0.006152	-0.077205	0.378736	0.534215	0.519331	-0.549061
50621	-9.484853	-1.730536	-1.037153	-0.110573	0.024468	-0.116293	0.378770	0.533978	0.519284	-0.549313
50622	-9.533492	-1.777841	-0.982289	-0.156509	-0.022102	-0.066504	0.378825	0.533755	0.519263	-0.549512
50623	-9.540161	-1.697781	-0.996597	-0.070959	-0.019394	-0.071798	0.378584	0.533769	0.518995	-0.549918
50624	-9.478211	-1.741664	-1.037565	-0.110207	0.040990	-0.120805	0.378582	0.533630	0.518942	-0.550104
50625	-9.549228	-1.761063	-1.049482	-0.113028	0.050365	-0.046665	0.378370	0.533668	0.518668	-0.550471
50626	-9.565109	-1.614455	-0.998204	0.023986	-0.024815	-0.061124	0.378298	0.533599	0.518514	-0.550733
50627	-9.482656	-1.632044	-1.149297	0.029453	0.141064	-0.123289	0.378198	0.533532	0.518317	-0.551051
50628	-9.561142	-1.649591	-1.114603	0.020227	0.104630	-0.047055	0.378269	0.533311	0.518292	-0.551240
50629	-9.534341	-1.741791	-1.162273	-0.059411	0.177326	-0.052903	0.378296	0.533120	0.518145	-0.551544
50630	-9.565126	-1.747685	-1.136323	-0.061901	0.156474	-0.024483	0.378334	0.532912	0.517911	-0.551939
50631	-9.538501	-1.602856	-1.125013	0.076729	0.130832	-0.076425	0.378326	0.532707	0.517610	-0.552425
50632	-9.569878	-1.641512	-1.057710	0.034776	0.078146	-0.045981	0.378685	0.532195	0.517620	-0.552663
50633	-9.524730	-1.822151	-1.074295	-0.138254	0.144926	-0.057960	0.378833	0.531840	0.517367	-0.553140
50634	-9.543008	-1.692906	-0.930557	-0.034995	-0.009993	-0.076182	0.379039	0.531448	0.517154	-0.553574
50635	-9.507187	-1.710705	-0.931687	-0.052206	0.010581	-0.108136	0.379262	0.531036	0.516977	-0.553981
50636	-9.541601	-1.637411	-0.803256	0.001913	-0.122100	-0.099111	0.379547	0.530609	0.516898	-0.554270
50637	-9.516503	-1.746396	-0.763182	-0.111529	-0.129125	-0.108716	0.379915	0.530113	0.517033	-0.554366
50638	-9.440780	-1.842406	-0.867795	-0.190140	0.006987	-0.156619	0.379788	0.530031	0.516758	-0.554788
50639	-9.548731	-1.454618	-0.624001	0.155477	-0.311381	-0.139920	0.379593	0.529971	0.516549	-0.555172
50640	-9.528982	-1.842178	-0.920404	-0.157093	0.055312	-0.065148	0.379834	0.529588	0.516885	-0.555060
50641	-9.495993	-1.733537	-0.857930	-0.065539	-0.020188	-0.121951	0.379315	0.529785	0.516492	-0.555594
50642	-9.517563	-1.758709	-0.929026	-0.067267	0.052732	-0.089887	0.379207	0.529696	0.516535	-0.555712
50643	-9.598321	-1.854928	-0.950056	-0.139474	0.082439	0.007948	0.378872	0.529766	0.516333	-0.556061
50644	-9.588825	-1.703458	-0.972045	0.014940	0.078866	-0.025668	0.378543	0.529831	0.516055	-0.556481
50645	-9.530489	-1.652624	-0.934670	0.051955	0.043200	-0.095155	0.378433	0.529726	0.515971	-0.556734
50646	-9.545330	-1.776815	-0.933156	-0.061733	0.066447	-0.059075	0.378344	0.529592	0.515945	-0.556946
50647	-9.534784	-1.721738	-0.903208	-0.011703	0.031131	-0.081748	0.378147	0.529524	0.515784	-0.557294
50648	-9.502149	-1.613082	-0.839553	0.079873	-0.044390	-0.138527	0.378002	0.529408	0.515710	-0.557570
50649	-9.557370	-1.909058	-1.023154	-0.153733	0.187151	-0.015953	0.377971	0.529189	0.515779	-0.557736
50650	-9.557810	-1.724762	-0.874436	-0.001344	0.010019	-0.061222	0.377567	0.529239	0.515457	-0.558259
50651	-9.536794	-1.768866	-0.968303	-0.021213	0.116519	-0.065744	0.377514	0.529015	0.515447	-0.558517
50652	-9.524421	-1.685387	-0.728238	0.011615	-0.128293	-0.113777	0.377662	0.528656	0.515612	-0.558605
50653	-9.500249	-2.078345	-0.839066	-0.343636	0.060844	-0.057868	0.377774	0.528351	0.515810	-0.558635
50654	-9.420217	-1.800625	-0.637061	-0.125755	-0.177182	-0.203245	0.377024	0.528712	0.515210	-0.559352
50655	-9.515264	-1.623317	-0.552210	0.046991	-0.305558	-0.149108	0.376713	0.528771	0.515246	-0.559473
50656	-9.502964	-1.678094	-0.804130	0.050624	-0.051351	-0.129519	0.376056	0.529069	0.515050	-0.559814
50657	-9.618151	-1.555394	-0.855165	0.202878	-0.043724	-0.034328	0.375835	0.529016	0.515251	-0.559827
50658	-9.559585	-1.994194	-1.062359	-0.180732	0.246950	0.005532	0.375884	0.528750	0.515720	-0.559614
50659	-9.565242	-1.996254	-1.018790	-0.186812	0.201997	0.007757	0.375441	0.528894	0.515511	-0.559968
50660	-9.422598	-1.553222	-0.967816	0.212254	0.084525	-0.216734	0.374757	0.529208	0.514945	-0.560649
50661	-9.646318	-1.482602	-0.578355	0.235210	-0.335462	-0.044566	0.375517	0.528453	0.515870	-0.560002
50662	-9.399860	-2.655773	-1.069728	-0.831881	0.396232	-0.029754	0.377108	0.527209	0.517498	-0.558602
50663	-9.553265	-2.416035	-1.255025	-0.536654	0.511757	0.093235	0.375620	0.528322	0.515948	-0.559985
50664	-9.543236	-1.384940	-0.464516	0.291008	-0.449920	-0.173181	0.374553	0.529161	0.514705	-0.561050
50665	-9.586831	-2.122797	-0.871691	-0.326209	0.088073	0.039178	0.375771	0.528363	0.515810	-0.559972
50666	-9.457973	-2.313101	-1.120943	-0.480257	0.383339	-0.030939	0.375332	0.528835	0.515129	-0.560448
50667	-9.515638	-1.499482	-0.542017	0.186597	-0.343603	-0.172318	0.374813	0.529382	0.514399	-0.560949
50668	-9.613366	-1.849992	-0.917796	-0.056778	0.080243	0.019502	0.375270	0.529221	0.514731	-0.560491
50669	-9.510153	-1.856869	-1.016702	-0.062099	0.189754	-0.071804	0.375157	0.529463	0.514460	-0.560586
50670	-9.620135	-1.635381	-0.914069	0.144338	0.033549	-0.012941	0.375088	0.529615	0.514236	-0.560695
50671	-9.520045	-1.990464	-0.978351	-0.202718	0.179969	-0.041460	0.375823	0.529193	0.514727	-0.560150
50672	-9.438585	-2.035958	-1.159298	-0.222834	0.377532	-0.097555	0.375491	0.529557	0.514091	-0.560612
50673	-9.613979	-1.298606	-0.836685	0.445830	-0.098577	-0.086098	0.374672	0.530227	0.512965	-0.561558
50674	-9.625905	-1.641096	-0.688318	0.084067	-0.170453	-0.025507	0.375680	0.529570	0.513649	-0.560878
50675	-9.409094	-2.486363	-1.291575	-0.635744	0.614427	-0.035187	0.376008	0.529388	0.513641	-0.560839
50676	-9.528138	-1.614393	-0.931910	0.147141	0.085410	-0.105413	0.374434	0.530564	0.511575	-0.562665
50677	-9.651545	-1.388808	-0.728150	0.340801	-0.162379	-0.041874	0.374939	0.530218	0.511572	-0.562658
50678	-9.623671	-1.939491	-1.336724	-0.056987	0.555943	0.079287	0.375172	0.529961	0.511191	-0.563091
50679	-9.605995	-1.184956	-0.607885	0.507249	-0.291442	-0.132474	0.374630	0.530200	0.510047	-0.564263
50680	-9.595808	-1.871191	-0.552535	-0.164910	-0.191038	-0.023791	0.376488	0.528721	0.511416	-0.563173
50681	-9.413011	-2.533909	-1.019012	-0.728432	0.426020	-0.047866	0.376478	0.528653	0.510929	-0.563687
50682	-9.559457	-1.505006	-0.424702	0.157364	-0.366354	-0.134380	0.374811	0.529825	0.508868	-0.565558
50683	-9.491473	-0.931312	-0.303802	0.674829	-0.587453	-0.312835	0.374260	0.530089	0.508186	-0.566288
50684	-9.510502	-1.493462	0.082284	0.052126	-0.846115	-0.222681	0.375548	0.529002	0.509841	-0.564962
50685	-9.221705	-2.589540	-0.773706	-0.853738	0.235664	-0.244001	0.375570	0.528898	0.510513	-0.564438
50686	-9.376374	-1.669416	-0.199672	-0.069763	-0.536366	-0.302133	0.371884	0.531554	0.507629	-0.566980
50687	-9.384205	-0.909910	-0.176933	0.659119	-0.733126	-0.434489	0.369227	0.533378	0.506184	-0.568293
50688	-9.474609	-1.269057	-0.594948	0.434969	-0.279210	-0.248929	0.367729	0.534318	0.506315	-0.568264
50689	-9.563555	-2.176497	-0.748056	-0.380299	0.036627	0.016466	0.366956	0.534954	0.507138	-0.567431
50690	-9.631234	-2.496559	-1.203237	-0.561039	0.516164	0.180312	0.364623	0.536636	0.506321	-0.568076
50691	-9.299600	-1.925866	-1.133627	-0.079013	0.347549	-0.254989	0.362284	0.538520	0.504559	-0.569355
50692	-9.928367	-2.003982	-0.741087	-0.155992	-0.106261	0.341226	0.361404	0.539508	0.504599	-0.568945
50693	-9.460563	-2.461127	-1.953521	-0.347849	1.218923	0.075126	0.359194	0.541210	0.502995	-0.570148
50694	-9.592926	-0.691947	-0.780871	1.055025	-0.364100	-0.227953	0.355363	0.543883	0.499450	-0.573113
50695	-9.522540	-1.899676	-0.523678	-0.175990	-0.310854	-0.094972	0.359711	0.540979	0.504763	-0.568475
50696	-9.664679	-4.140826	-2.302140	-1.856636	1.877449	0.621870	0.363974	0.538251	0.508779	-0.564759
50697	-9.315962	-2.595899	-0.999011	-0.780001	0.302673	-0.126418	0.362255	0.539740	0.506553	-0.566442
50698	-9.570416	-0.850231	-0.214027	0.725334	-0.883421	-0.270413	0.361418	0.540680	0.504950	-0.567510
50699	-9.594789	-1.734654	-0.240120	-0.120664	-0.656246	-0.082252	0.364869	0.538926	0.508158	-0.564096
50700	-9.410731	-3.351741	-1.426131	-1.428412	0.859428	0.139738	0.367015	0.538237	0.509718	-0.561951
50701	-9.286956	-2.068467	-1.132472	-0.304957	0.304204	-0.240695	0.364638	0.540779	0.506657	-0.563822
50702	-9.613333	-0.926214	0.083777	0.518781	-1.172602	-0.239972	0.365498	0.541271	0.506747	-0.562712
50703	-9.478683	-2.706827	-1.154163	-0.936952	0.423904	0.058809	0.370496	0.539099	0.510918	-0.557735
50704	-9.388864	-2.871943	-1.428296	-1.086371	0.715279	0.023316	0.370132	0.540966	0.509490	-0.557475
50705	-9.508251	-1.355877	-0.097769	0.042709	-0.916948	-0.251721	0.368673	0.543775	0.506848	-0.558116
50706	-9.334863	-1.836388	-0.981151	-0.265624	0.058879	-0.252328	0.369537	0.545090	0.506702	-0.556392
50707	-9.577862	-1.812201	-1.425604	-0.139432	0.436596	0.028131	0.368388	0.547914	0.504478	-0.556402
50708	-9.660195	-0.932390	-1.567457	0.721168	0.352843	-0.014678	0.367050	0.550664	0.501823	-0.556971
50709	-9.665193	-0.706393	-0.617908	0.661673	-0.619015	-0.144409	0.369121	0.551064	0.502332	-0.554745
50710	-9.617533	-2.795065	-1.704060	-1.139399	0.898852	0.242476	0.374758	0.549132	0.506050	-0.549477
50711	-9.549027	-2.616857	-2.086306	-0.941025	1.229800	0.186637	0.374023	0.551855	0.502985	-0.550062
50712	-9.775165	-0.973357	-0.522110	0.252693	-0.664289	-0.001034	0.373889	0.554315	0.500115	-0.550297
50713	-9.456782	-1.772422	-1.702620	-0.316182	0.709085	-0.072667	0.377307	0.554326	0.500585	-0.547518
50714	-9.650379	-1.593178	-1.562782	-0.216081	0.516728	0.076517	0.378701	0.555925	0.498616	-0.546732
50715	-9.752169	-2.072503	-1.190513	-0.822076	0.266024	0.190830	0.382671	0.555949	0.498634	-0.543919
50716	-9.579049	-2.483210	-1.516798	-1.230741	0.711915	0.097064	0.385621	0.556903	0.497113	-0.542249
50717	-9.706029	-1.248824	-0.489078	-0.331933	-0.543078	-0.035154	0.387930	0.558575	0.494670	-0.541115
50718	-9.664782	-0.789851	-0.101593	-0.053057	-0.990711	-0.166063	0.391884	0.559230	0.493971	-0.538221
50719	-9.470416	-0.522811	-0.022053	0.100947	-1.088965	-0.391110	0.394680	0.560673	0.492950	-0.535606
50720	-9.507585	0.130929	0.634398	0.523381	-1.872968	-0.483623	0.396276	0.562768	0.492087	-0.533019
50721	-9.358160	0.094426	0.996041	0.337787	-2.221980	-0.673515	0.399188	0.563846	0.493930	-0.527977
50722	-9.393973	-0.584464	0.601494	-0.298833	-1.760790	-0.552036	0.401889	0.565017	0.497061	-0.521700
50723	-9.966402	-0.441454	0.441867	-0.167504	-1.798965	0.008400	0.402925	0.567280	0.500032	-0.515570
50724	-10.446301	-0.421168	-0.112386	-0.092090	-1.446741	0.541635	0.404017	0.569267	0.504142	-0.508474
50725	-10.298724	-0.924611	-1.518328	-0.401069	-0.100834	0.630056	0.403625	0.571724	0.508257	-0.501889
50726	-9.913711	-1.202195	-2.081572	-0.629292	0.417895	0.360192	0.398416	0.577147	0.509222	-0.498857
50727	-8.704101	-1.428827	-2.076708	-0.878362	0.557409	-0.810886	0.388418	0.585802	0.505987	-0.499945
50728	-9.485933	-0.055887	-2.964356	0.686670	0.844246	0.065910	0.377805	0.593431	0.504017	-0.501070
50729	-9.489987	0.332578	-2.093748	0.901948	-0.216757	-0.133209	0.373246	0.595612	0.507521	-0.498354
50730	-8.511465	-1.199129	-3.780380	-0.238122	1.817028	-0.603209	0.374981	0.592984	0.516425	-0.490983
50731	-8.970466	-2.176385	-5.209011	-0.940805	3.129498	0.269928	0.374919	0.591682	0.523277	-0.485313
50732	-8.723018	-1.051655	-2.721902	-0.323844	0.535681	-0.635889	0.370832	0.593365	0.523543	-0.486111
50733	-6.930664	-0.881410	-2.176238	-0.282081	0.435560	-2.513530	0.370847	0.593328	0.522603	-0.487156
50734	-6.929999	-1.142876	-2.703166	-0.419760	1.034524	-2.370168	0.371001	0.593944	0.516885	-0.492360
50735	-7.647790	0.236603	-4.379650	1.337387	2.302678	-1.408417	0.373450	0.592892	0.506594	-0.502371
50736	-8.987181	1.487501	-10.815411	4.070781	8.027637	1.093115	0.378679	0.588768	0.503639	-0.506263
50737	-13.066492	5.856197	-8.660043	7.993326	4.116404	4.300308	0.369125	0.596599	0.496719	-0.510966
50738	-16.370564	4.401516	7.067462	2.934733	-11.036313	4.570176	0.391471	0.582352	0.504324	-0.503263
50739	-5.386680	-6.132442	-7.060422	-4.841820	6.802405	-2.978407	0.419172	0.566421	0.519425	-0.483383
50740	-11.692117	-5.021506	-3.870410	-4.328881	2.394929	2.533006	0.411347	0.571001	0.508566	-0.496097
50741	-8.192551	0.833626	0.913037	0.750865	-2.390189	-1.915264	0.402228	0.575904	0.496455	-0.509980
50742	-9.274367	1.925002	1.180242	1.790514	-2.949526	-0.912924	0.408571	0.571014	0.497704	-0.509219
50743	-9.549446	-0.918763	-0.247923	-0.726613	-1.017149	-0.297707	0.419902	0.562650	0.504483	-0.502598
50744	-9.636063	-2.005038	-1.730604	-1.584006	0.632834	0.034087	0.422678	0.560818	0.503194	-0.503609
50745	-9.458721	-0.048728	-0.392665	0.141074	-0.882920	-0.388022	0.419445	0.563603	0.497225	-0.509102
50746	-9.472469	0.441073	0.123955	0.534954	-1.426895	-0.452385	0.420362	0.563139	0.495827	-0.510222
50747	-9.580868	-0.981469	-1.141317	-0.662658	0.063210	-0.137165	0.423731	0.560796	0.496955	-0.508916
50748	-9.644158	-0.905471	-1.238075	-0.579788	0.169107	-0.066014	0.423804	0.561071	0.494996	-0.510459
50749	-9.696460	0.093442	-0.824684	0.335703	-0.369624	-0.093594	0.424031	0.561192	0.493188	-0.511886
50750	-9.639087	0.161766	-0.895364	0.408720	-0.273895	-0.143266	0.425889	0.559981	0.493157	-0.511699
50751	-9.678499	-0.258983	-0.978082	0.001094	-0.101268	-0.081976	0.427592	0.558799	0.493180	-0.511549
50752	-9.688619	-0.120709	-0.803734	0.105406	-0.270159	-0.094367	0.428669	0.558060	0.492840	-0.511782
50753	-9.726688	-0.578977	-0.902577	-0.335255	-0.083495	-0.033172	0.429987	0.557206	0.492798	-0.511648
50754	-9.718096	-0.439386	-0.889659	-0.204529	-0.096706	-0.046689	0.430452	0.557076	0.491942	-0.512221
50755	-9.609805	-0.095790	-0.527318	0.071354	-0.475018	-0.199944	0.431733	0.556313	0.491889	-0.512023
50756	-9.527104	-0.277202	-0.698250	-0.088663	-0.254202	-0.259803	0.433323	0.555293	0.492359	-0.511335
50757	-9.642197	-0.028635	-0.461477	0.115042	-0.524690	-0.174368	0.434798	0.554346	0.493043	-0.510451
50758	-9.414075	0.071921	0.022670	0.135437	-0.987533	-0.451228	0.436380	0.553360	0.494193	-0.509056
50759	-9.509078	-0.012643	0.640817	-0.038970	-1.602304	-0.417772	0.437814	0.552468	0.496216	-0.506821
50760	-9.641922	0.298802	1.328051	0.179150	-2.363996	-0.368168	0.438514	0.552064	0.498839	-0.504073
50761	-9.829591	0.572779	1.974682	0.377526	-3.110971	-0.271871	0.438860	0.551960	0.502762	-0.499973
50762	-10.323294	0.773533	1.684054	0.632479	-2.994819	0.218995	0.438217	0.552255	0.508147	-0.494739
50763	-10.834780	1.988182	1.594292	1.880295	-3.232597	0.670624	0.434736	0.553891	0.513341	-0.490603
50764	-11.031967	3.555751	1.234801	3.534703	-3.230131	0.814685	0.429887	0.554848	0.520758	-0.485955
50765	-12.103155	4.197036	-0.523240	4.470420	-1.918151	2.049282	0.425582	0.553313	0.532549	-0.478661
50766	-12.903402	4.668911	-2.269194	5.254316	-0.598734	3.050930	0.419745	0.551297	0.545307	-0.471726
50767	-13.712343	4.705160	-3.829250	5.586968	0.527262	4.091671	0.414246	0.548756	0.558247	-0.464358
50768	-11.693233	2.223687	-4.640193	3.180599	1.656557	2.448731	0.408435	0.546557	0.569415	-0.458501
50769	-9.521793	1.589508	-6.825413	2.627010	4.141357	0.944717	0.400963	0.546289	0.575549	-0.457756
50770	-9.315797	3.585713	-8.059301	4.785663	5.174622	0.906964	0.393544	0.546728	0.581377	-0.456302
50771	-9.351422	3.643464	-4.526985	4.708055	1.676950	-0.002516	0.394946	0.542153	0.591069	-0.448024
50772	-7.736740	2.201868	-6.301895	3.040501	3.879080	-0.861575	0.405290	0.532419	0.600860	-0.437307
50773	-6.314438	4.204849	-7.812757	4.635175	5.939862	-1.950235	0.414768	0.524195	0.607244	-0.429468
50774	-8.729653	8.455035	-0.735516	9.237008	-0.911666	-1.934744	0.431328	0.514346	0.613051	-0.416621
50775	-6.717510	3.484846	-3.276156	3.594788	1.898312	-2.640084	0.463263	0.493060	0.626184	-0.387522
50776	-7.293527	0.168309	-3.623153	-0.104360	1.641285	-1.835754	0.491357	0.475408	0.630553	-0.367367
50777	-8.301617	1.493834	-3.396239	0.926499	1.732777	-0.935350	0.512728	0.465866	0.624241	-0.361112
50778	-9.083381	3.729217	-2.199683	3.085430	1.433025	-0.344029	0.536646	0.453416	0.618426	-0.352100
50779	-9.465668	2.364120	-3.883492	0.757611	2.818797	0.272619	0.566077	0.431396	0.618759	-0.332552
50780	-9.627777	0.292348	-3.369503	-1.472259	1.739074	0.133061	0.594566	0.407934	0.618639	-0.312036
50781	-8.922505	-3.171371	-3.275835	-4.875116	0.138526	-1.060636	0.622141	0.383810	0.618312	-0.288653
50782	-8.302795	-8.161352	-5.424228	-10.437133	-0.813685	-2.372313	0.639214	0.370261	0.613401	-0.279377
50783	-7.577049	-5.358535	-2.647450	-6.637722	-1.470504	-2.963668	0.644931	0.370021	0.605040	-0.284736
50784	-7.172895	-2.630971	0.495096	-2.682690	-2.399787	-3.055412	0.651393	0.366504	0.599869	-0.285515
50785	-7.553442	-3.661895	-1.057362	-4.513288	-1.673579	-2.854895	0.657936	0.362188	0.596807	-0.282423
50786	-8.218570	-1.956093	-0.112463	-2.762280	-1.474748	-1.965566	0.658932	0.368100	0.589646	-0.287453
50787	-8.550404	1.180987	1.552951	0.582020	-1.079496	-1.128751	0.660121	0.372982	0.582380	-0.293185
50788	-7.285407	2.142134	3.004470	2.278592	-1.638390	-2.143607	0.668519	0.364610	0.581602	-0.286149
50789	-7.175181	-2.327893	-4.803217	-5.848561	2.223333	-3.424288	0.683814	0.341949	0.587335	-0.265532
50790	-5.199976	-8.517706	-13.419319	-15.776700	4.772796	-6.993954	0.687117	0.329909	0.596503	-0.251422
50791	-12.753781	-10.453199	3.452056	-7.538569	-10.013449	1.445232	0.669955	0.337388	0.608122	-0.259842
50792	-13.318911	4.099326	-5.527753	-1.486597	6.163244	3.768715	0.645714	0.366840	0.596994	-0.303446
50793	-11.230123	19.702624	12.804299	22.271925	-0.843197	3.659343	0.640555	0.369102	0.597617	-0.310334
50794	-14.178209	-0.900913	3.821647	0.397332	-4.352915	4.232153	0.655776	0.320703	0.631671	-0.260959
50795	-15.151056	-11.974955	-6.448989	-14.137470	-3.925847	4.303011	0.652026	0.316875	0.638186	-0.259174
50796	-13.324280	6.960144	5.809445	8.489444	-1.211028	3.828505	0.625526	0.352508	0.628407	-0.299265
50797	-8.423480	9.959233	4.058263	10.274562	1.988153	-1.034328	0.626042	0.331672	0.647019	-0.281834
50798	-10.761154	-1.283904	-2.008134	-2.143352	-0.195309	0.996220	0.625840	0.304983	0.671221	-0.254503
50799	-10.256198	-1.947200	-4.060175	-3.742720	0.690197	0.721761	0.616325	0.303582	0.680094	-0.255840
50800	-10.079050	1.365851	0.252465	1.876071	-0.266088	0.183230	0.604691	0.303527	0.688812	-0.260305
50801	-8.952642	0.531518	-0.426294	0.979009	-0.255967	-0.891646	0.599490	0.288834	0.703078	-0.250734
50802	-6.671786	-2.067943	-2.173359	-2.122899	-0.665189	-2.844261	0.595874	0.271243	0.716678	-0.240279
50803	-4.201334	-2.623935	-3.222280	-3.442309	-0.197265	-5.013876	0.590135	0.258252	0.726909	-0.238012
50804	-4.666160	-0.010690	-3.264287	-1.527403	1.722233	-4.604233	0.581855	0.248009	0.735766	-0.242045
50805	-9.117659	6.337826	-4.439226	2.958638	6.923623	-0.523129	0.568186	0.250959	0.740474	-0.256675
50806	-9.722686	7.640541	1.528273	8.467106	3.852534	-1.523693	0.560827	0.243876	0.751380	-0.247842
50807	-9.560633	-1.045612	-1.457020	0.792963	-0.813844	-0.152502	0.558381	0.223330	0.769314	-0.215619
50808	-12.842637	-11.999695	-8.704551	-9.895880	-6.031390	6.009586	0.551595	0.212930	0.779957	-0.205111
50809	-11.020755	-3.161616	-7.172096	-3.710901	0.789527	3.163773	0.529723	0.237099	0.773230	-0.255523
50810	-6.258038	6.392527	-2.175149	4.934903	5.549442	-4.374756	0.513435	0.251486	0.766609	-0.292318
50811	-7.566383	2.488651	-0.180927	4.245834	1.258103	-3.189583	0.511506	0.231581	0.783228	-0.266993
50812	-9.311296	-8.967507	-6.826022	-6.749047	-3.488264	2.672950	0.515047	0.209125	0.798515	-0.231011
50813	-8.955123	-8.552706	-7.469681	-6.854073	-3.088761	2.540710	0.505131	0.215646	0.798904	-0.245137
50814	-10.102269	-2.846644	-4.458548	-0.721996	-0.372941	1.561562	0.496553	0.221073	0.799098	-0.256913
50815	-10.090616	-1.717628	-6.104636	-0.961417	1.655577	1.950324	0.489904	0.224366	0.799473	-0.265512
50816	-9.682017	-0.382311	-5.872899	0.051075	2.671327	1.197967	0.482928	0.228922	0.798149	-0.278088
50817	-9.124601	0.601896	-3.973748	1.812015	2.267529	-0.274088	0.478768	0.230478	0.797746	-0.285064
50818	-8.757405	-0.465894	-3.056824	1.606681	0.915140	-0.711353	0.478214	0.224630	0.801752	-0.279369
50819	-8.508576	-2.908696	-3.683258	-0.414121	-0.512261	-0.117968	0.479339	0.216951	0.806632	-0.269280
50820	-8.782082	-4.199941	-4.348719	-1.467647	-1.139381	0.686040	0.477538	0.214586	0.808443	-0.268944
50821	-8.498153	-1.916857	-3.997691	0.096194	0.433002	-0.237907	0.474061	0.216410	0.807223	-0.277170
50822	-8.496280	-0.282590	-2.774317	1.962117	0.912734	-1.136289	0.470729	0.216301	0.807661	-0.281624
50823	-8.328480	-1.434268	-2.856056	1.171744	0.126123	-0.970255	0.470802	0.209772	0.811693	-0.274767
50824	-8.465853	-3.230342	-3.963325	-0.513630	-0.566641	0.047748	0.469626	0.204859	0.815132	-0.270265
50825	-8.636091	-2.458768	-3.047640	0.690908	-0.590798	-0.374003	0.466230	0.204273	0.816195	-0.273365
50826	-8.444901	-2.005424	-2.793598	1.105295	-0.380523	-0.769715	0.463440	0.202053	0.818417	-0.273115
50827	-8.240371	-2.861841	-4.197236	-0.330184	-0.124488	-0.138720	0.460885	0.199367	0.820825	-0.272185
50828	-8.596258	-1.454388	-5.290567	0.056818	1.655609	0.249881	0.456827	0.199106	0.821263	-0.277836
50829	-8.377015	0.775350	-5.035756	1.523317	3.291306	-0.703400	0.453471	0.197049	0.821146	-0.285052
50830	-8.655123	1.667399	-4.438264	2.628528	3.638417	-1.023954	0.452156	0.188708	0.824371	-0.283474
50831	-8.542866	-0.305830	-4.432277	1.446618	2.151157	-0.539131	0.453550	0.171723	0.831907	-0.269693
50832	-7.752833	-3.120561	-4.601448	-0.559304	-0.045941	-0.289070	0.455821	0.151218	0.840401	-0.251170
50833	-6.480066	-4.456558	-5.104655	-2.120348	-1.035558	-0.738846	0.455665	0.131929	0.848447	-0.234739
50834	-6.808794	-5.867405	-3.844120	-1.460470	-3.152236	-0.675858	0.454984	0.113703	0.856645	-0.214991
50835	-7.753044	-6.683291	-4.594391	-1.532592	-3.791101	0.634742	0.453943	0.099028	0.863617	-0.195692
50836	-9.416167	-4.354974	-3.629254	1.173216	-2.307486	0.868961	0.453376	0.086394	0.868064	-0.182895
50837	-11.071912	2.085363	-7.457509	1.337541	5.190518	2.589576	0.455171	0.068239	0.869645	-0.178553
50838	-6.317729	12.305976	-5.361943	2.679121	13.722812	-4.858561	0.459802	0.046613	0.873017	-0.155723
50839	-6.665781	0.290825	-5.208740	-0.305304	1.825693	-1.559778	0.457614	-0.007770	0.887342	-0.056153
50840	-7.880981	-20.529309	-18.207050	-9.867904	-19.341643	8.687348	0.450696	-0.042796	0.891627	0.006499
50841	-8.987578	-5.256009	-5.189799	1.472766	-4.698080	0.727215	0.451664	-0.045192	0.891029	-0.004922
50842	-9.326734	1.762570	-4.410240	1.761022	2.455340	0.208017	0.451250	-0.059005	0.890430	0.005217
50843	-9.133374	-0.465156	-5.822234	0.716949	-0.020360	1.004384	0.450722	-0.065587	0.889826	0.027532
50844	-8.623961	-2.864649	-6.851640	-0.042163	-2.823718	1.212031	0.451044	-0.069609	0.888866	0.040394
50845	-9.576088	0.419403	-7.500093	-0.540133	0.360361	2.340716	0.455380	-0.072402	0.886561	0.037382
50846	-10.071046	5.533469	-5.935627	0.000561	5.676347	1.808340	0.461980	-0.081477	0.882093	0.042985
50847	-10.507239	3.347054	-5.815864	0.389082	3.302667	2.201196	0.463919	-0.109341	0.875081	0.084007
50848	-10.081427	-2.173640	-8.446953	-0.566348	-3.342781	3.077735	0.464809	-0.136187	0.865488	0.127810
50849	-6.806912	-2.868600	-6.788515	-0.689185	-4.224166	-0.739256	0.471510	-0.145126	0.859267	0.135192
50850	-6.546373	1.383896	-2.995476	0.463161	1.033115	-2.569777	0.478196	-0.146085	0.856450	0.128378
50851	-7.511721	3.399847	-0.206049	2.282131	4.019099	-2.981563	0.482229	-0.150695	0.852246	0.135731
50852	-6.371074	1.025573	-2.111377	1.042743	0.918132	-3.166715	0.481952	-0.160649	0.847640	0.153042
50853	-6.607082	0.151339	-3.422208	0.475112	-0.443631	-2.398829	0.482732	-0.163598	0.845859	0.157254
50854	-6.618430	1.768723	-1.612035	1.192365	1.767142	-3.105527	0.484218	-0.159581	0.847044	0.150280
50855	-6.832403	2.891468	-1.006227	1.337137	3.085244	-3.123304	0.482662	-0.157508	0.848936	0.146753
50856	-6.478004	1.543166	-2.125462	0.898760	1.407430	-3.024894	0.477964	-0.156311	0.852388	0.143359
50857	-6.421063	1.072809	-2.738949	0.674943	0.811911	-2.829424	0.472450	-0.150517	0.858382	0.131590
50858	-6.671388	0.808321	-3.654367	0.319432	0.411399	-2.181193	0.464537	-0.143611	0.865956	0.117054
50859	-6.507300	-0.077911	-3.612447	0.726501	-0.251765	-2.409661	0.454850	-0.134379	0.874818	0.098734
50860	-5.725917	-0.615811	-5.666439	-0.972410	-1.226205	-1.887042	0.443896	-0.122808	0.884215	0.077705
50861	-5.602850	-0.388225	-6.422446	-1.532537	-0.845811	-1.463561	0.431736	-0.105570	0.894496	0.048326
50862	-6.484960	1.805009	-6.619086	-1.376968	1.882618	-0.666730	0.419485	-0.084338	0.903754	0.012208
50863	-7.735659	4.196102	-5.526268	0.300022	4.963214	-0.689684	0.407599	-0.066550	0.910566	-0.017439
50864	-6.382588	5.885262	-5.172262	-0.029553	6.717368	-2.264016	0.396158	-0.053500	0.915969	-0.034595
50865	-5.485372	1.480227	-4.074744	0.743714	2.211981	-3.222275	0.384710	-0.048605	0.921432	-0.024455
50866	-3.760496	-7.873840	-13.471209	-6.288825	-7.568064	2.864739	0.376049	-0.045119	0.925492	0.004085
50867	-4.847789	-11.495809	-15.340145	-6.595396	-11.130949	5.136804	0.374167	-0.028802	0.926688	-0.020460
50868	-4.951680	-5.653652	-10.393813	-3.685095	-4.757185	1.512921	0.380801	-0.019068	0.923442	-0.043378
50869	-6.308486	-4.880483	-12.917993	-4.840976	-3.243688	4.205592	0.390637	-0.020966	0.918558	-0.056685
50870	-8.423859	4.080744	-16.677464	-6.368271	7.205599	6.709112	0.408400	-0.019418	0.906754	-0.103105
50871	-13.431046	17.173378	-5.852742	5.747006	19.556621	-0.116301	0.423387	-0.009063	0.895975	-0.133750
50872	-20.023126	11.073646	0.687047	14.234610	13.243161	2.269398	0.429753	-0.020688	0.894531	-0.121240
50873	-13.986675	-3.975452	-0.600555	8.039370	-1.764944	2.189197	0.438396	-0.041648	0.894095	-0.081667
50874	-8.970683	-13.129013	-10.676528	-2.904650	-10.471208	5.958514	0.446738	-0.059637	0.890244	-0.065833
50875	-5.345584	-4.318452	-0.485798	2.875165	-3.254255	-4.465001	0.454061	-0.061835	0.884868	-0.083750
50876	-1.270957	-5.385732	-5.645488	-3.619770	-4.659476	-4.553683	0.463160	-0.081567	0.880853	-0.054109
50877	-2.694717	-11.097729	-11.329989	-6.926526	-10.066530	0.650417	0.466326	-0.082943	0.879250	-0.050791
50878	-9.099178	-2.486747	-4.734014	1.159937	-0.394284	0.669262	0.473674	-0.068309	0.874195	-0.082160
50879	-9.871120	3.071152	-2.761969	2.943669	5.281009	-0.984262	0.481339	-0.052430	0.867704	-0.112489
50880	-8.885290	2.606694	-1.631632	3.360866	4.543327	-2.298186	0.485478	-0.051435	0.865440	-0.112599
50881	-8.320133	-0.915622	-3.895519	0.971905	1.319446	-0.726906	0.488126	-0.055915	0.864910	-0.102646
50882	-7.105684	-3.714237	-5.505380	-1.136137	-1.512467	-0.272453	0.492171	-0.053851	0.863138	-0.099299
50883	-6.631159	-3.213414	-4.971112	-1.004056	-1.170158	-1.058772	0.494893	-0.047274	0.860846	-0.108583
50884	-7.906422	-1.699241	-2.366642	1.858001	0.213922	-1.596749	0.496844	-0.039469	0.858930	-0.117588
50885	-8.522307	-2.877998	-2.177645	2.215999	-0.852180	-0.867428	0.497564	-0.035092	0.858542	-0.118762
50886	-8.611115	-4.103998	-3.281611	1.182155	-1.851828	0.032923	0.497697	-0.028117	0.858125	-0.122999
50887	-7.904740	-3.348689	-3.174185	0.924437	-1.263931	-0.794836	0.497338	-0.017712	0.857364	-0.131405
50888	-7.762261	-2.533790	-4.470238	-0.207218	-0.200252	-0.508242	0.496059	-0.007234	0.857112	-0.138679
50889	-7.386089	-1.383213	-3.565345	0.524603	0.662477	-1.538328	0.494263	0.005728	0.856213	-0.150238
50890	-7.384818	-1.737463	-2.411507	1.459667	-0.001665	-1.987178	0.490566	0.016779	0.857413	-0.154615
50891	-9.181482	-5.096340	-3.214457	1.122935	-2.856705	0.731507	0.485363	0.026754	0.860612	-0.151839
50892	-7.067284	-7.210453	-6.654501	-3.301053	-4.144946	1.056555	0.483179	0.041924	0.860595	-0.155424
50893	-5.819614	-8.286609	-6.445020	-4.212441	-5.290182	0.103910	0.478533	0.063752	0.860835	-0.160949
50894	-7.092187	-10.294169	-7.443349	-5.183254	-6.682799	2.025054	0.474801	0.090374	0.859336	-0.167147
50895	-7.114754	-4.515744	-11.098616	-6.419185	0.481866	2.544677	0.472056	0.128199	0.850382	-0.193854
50896	-4.434976	3.184476	-14.785292	-6.890208	10.046994	0.175801	0.463976	0.176612	0.836213	-0.232987
50897	-4.370389	4.743899	-10.921393	-2.244372	9.845479	-2.145714	0.451585	0.233583	0.820977	-0.259820
50898	-4.540219	4.377240	-9.868129	-0.517146	9.008609	-2.355931	0.434858	0.295378	0.800362	-0.288221
50899	-7.162952	4.618311	-6.962772	3.456036	6.175701	-1.391337	0.409892	0.361665	0.774142	-0.319204
50900	-9.637704	4.175486	-2.549344	6.364227	0.806433	-1.120104	0.383612	0.424884	0.744340	-0.343909
50901	-9.759194	3.496456	-3.247386	5.602432	0.015965	-0.510092	0.356123	0.483689	0.713128	-0.361483
50902	-10.688350	2.775785	-3.722197	4.931764	-1.178379	0.675325	0.325897	0.540201	0.680275	-0.373095
50903	-11.068845	2.914202	-5.166926	4.823763	-1.119925	1.723837	0.293589	0.595298	0.641733	-0.384193
50904	-8.919274	1.982633	-4.562135	3.281653	-1.339655	-0.237708	0.261213	0.647300	0.598846	-0.392624
50905	-6.697779	1.704107	-6.171138	3.129890	0.570798	-1.112860	0.225226	0.696385	0.549526	-0.402918
50906	-7.400001	3.245754	-7.333875	4.916544	-0.286351	-0.079462	0.182237	0.741826	0.494137	-0.415106
50907	-8.623845	5.193495	-5.766009	5.420276	-3.966051	-0.359211	0.142553	0.778908	0.438206	-0.425390
50908	-8.368656	5.005003	-5.665161	4.650130	-4.552828	-0.605942	0.119063	0.806200	0.390618	-0.428116
50909	-7.977493	1.389735	-8.105514	3.132333	-0.987708	1.163310	0.111124	0.825797	0.353144	-0.425440
50910	-8.025928	-1.706183	-7.700103	0.564302	1.047015	1.376697	0.103415	0.839927	0.320652	-0.425453
50911	-7.106960	-2.264494	-7.006497	0.194429	1.648465	0.285375	0.091106	0.848244	0.294481	-0.430653
50912	-6.212637	-2.158195	-2.933635	-2.034603	0.377795	-2.915064	0.085644	0.852529	0.277634	-0.434486
50913	-6.931635	-5.315331	-1.530024	-5.096744	2.319508	-2.936589	0.101222	0.852311	0.276163	-0.432498
50914	-8.608964	-10.524114	-3.364304	-7.695827	6.808227	-0.294209	0.118443	0.848950	0.283097	-0.430244
50915	-9.637466	-8.034161	-2.605398	-7.316150	4.056288	-0.105273	0.116063	0.845709	0.283498	-0.436961
50916	-7.984270	-1.562593	-4.692787	-1.248988	0.277746	-0.508294	0.106327	0.843554	0.280397	-0.445521
50917	-7.210981	-0.831348	-4.555566	-0.490815	-0.094141	-1.257423	0.106435	0.844610	0.274817	-0.446969
50918	-10.476955	-1.794829	-8.158762	0.037390	1.046721	3.546065	0.105155	0.846536	0.269447	-0.446897
50919	-11.832969	0.894013	-7.353890	0.389202	-2.101988	3.983069	0.090807	0.847290	0.260342	-0.453956
50920	-8.573211	2.198348	-4.673081	0.711331	-3.107435	-0.325508	0.094577	0.844593	0.258517	-0.459225
50921	-8.080546	-0.498204	-5.768775	0.323750	0.001496	0.122491	0.117353	0.841189	0.265973	-0.455947
50922	-9.603127	-3.044376	-7.037588	-0.944739	2.441284	2.193872	0.130502	0.838725	0.267001	-0.456312
50923	-9.659566	-0.981650	-6.399949	-0.227703	0.562010	1.800257	0.126195	0.837668	0.261159	-0.462799
50924	-9.736512	2.299650	-2.592985	-1.086520	-3.888795	-0.299113	0.117239	0.837248	0.252618	-0.470590
50925	-9.557886	3.209815	0.677846	-2.879269	-5.955275	-2.173409	0.125774	0.835170	0.253136	-0.471799
50926	-9.502920	-0.523434	2.340007	-6.035387	-3.513133	-2.936176	0.148120	0.833132	0.263126	-0.463374
50927	-8.972019	-3.852868	1.031853	-6.854232	-0.062909	-2.782894	0.162790	0.833340	0.269140	-0.454541
50928	-9.781062	-2.669708	2.345870	-7.543805	-1.976196	-2.921993	0.157866	0.839454	0.266634	-0.446432
50929	-11.602727	-0.249220	3.290001	-7.801617	-5.009339	-2.096625	0.151385	0.847997	0.264462	-0.433640
50930	-14.708198	-0.613065	1.850859	-8.905352	-5.152252	0.875731	0.149954	0.857986	0.266544	-0.412709
50931	-18.236720	-1.599228	-0.092993	-10.631915	-4.910257	4.255219	0.147825	0.869395	0.269373	-0.386959
50932	-21.107348	-2.427344	2.855000	-15.172629	-7.035724	3.592518	0.148953	0.880123	0.275090	-0.357102
50933	-24.492601	-6.179074	5.306807	-21.463168	-7.131592	2.608303	0.163466	0.889164	0.288388	-0.315433
50934	-28.475572	-10.586486	-0.481845	-24.962259	-3.827641	7.059386	0.170622	0.897953	0.302826	-0.269936
50935	-23.719258	-9.233558	-4.216155	-20.531588	-2.120660	5.657951	0.169929	0.904596	0.310381	-0.237685
50936	-19.745674	-10.283594	-8.933171	-17.654479	2.195764	6.276210	0.189849	0.902357	0.317799	-0.220709
50937	-5.232667	-12.600530	-7.879718	-9.698026	10.426676	-3.069329	0.196532	0.901669	0.317025	-0.218775
50938	-0.723259	-13.525119	-8.309289	-6.973716	13.537533	-5.274549	0.190608	0.904088	0.313271	-0.219443
50939	-4.293274	-12.155004	-14.698633	-6.609188	13.899397	2.243345	0.188645	0.906307	0.307098	-0.220704
50940	-12.045571	-5.088798	-11.092555	-8.384337	3.191977	4.799765	0.163882	0.913001	0.296231	-0.227638
50941	-6.968651	-9.071899	11.856989	-14.678585	-0.625563	-17.255332	0.128158	0.918843	0.275680	-0.251602
50942	-2.740108	-12.028112	-8.073199	-5.181888	11.783006	-2.628841	0.126904	0.917409	0.256794	-0.276248
50943	-3.395365	-13.784302	-13.036194	-2.738220	14.840563	2.151087	0.078280	0.919201	0.223788	-0.314422
50944	-3.919463	-2.822706	-6.278709	-0.049571	2.634181	-2.349400	0.024430	0.913677	0.187162	-0.359955
50945	-3.093527	0.074410	-7.185674	3.021125	-0.062090	-2.600846	-0.011381	0.901595	0.152388	-0.404692
50946	-2.240103	-0.585544	-8.832816	5.317813	0.605093	-2.419007	-0.027365	0.887141	0.118875	-0.445085
50947	-3.895074	-1.385844	-9.564071	5.591240	0.715662	-1.054982	-0.045316	0.869938	0.081244	-0.484308
50948	-5.022271	2.184965	-9.768949	6.198757	-3.510525	-1.176450	-0.076002	0.846706	0.035921	-0.525379
50949	-4.682239	7.045760	-7.704275	4.510592	-8.566401	-3.716195	-0.098306	0.819190	-0.014613	-0.564845
50950	-5.650865	4.634137	-5.555910	2.640850	-5.949292	-3.340812	-0.084905	0.793975	-0.042418	-0.600497
50951	-7.491867	-1.202237	-9.067675	7.186902	-0.555570	-0.447708	-0.056986	0.766633	-0.064235	-0.636318
50952	-8.424226	-9.243992	-19.177169	19.309573	6.030813	0.882062	-0.035269	0.734443	-0.094568	-0.671124
50953	-6.533528	-9.449889	-21.469778	22.962380	4.423933	-3.110019	-0.059214	0.695824	-0.158272	-0.698049
50954	-7.690830	-3.954277	-17.040706	17.772297	-1.506505	-2.982567	-0.081677	0.662872	-0.216672	-0.712027
50955	-8.495321	-4.624450	-17.453419	18.664296	-2.668883	-3.297979	-0.097970	0.635258	-0.264120	-0.719090
50956	-5.652320	-2.169583	-13.596870	13.461898	-4.835989	-5.725230	-0.129800	0.610653	-0.311963	-0.716194
50957	-4.060016	2.945637	-5.770837	3.413237	-5.165010	-5.330772	-0.166719	0.594525	-0.358701	-0.700056
50958	-5.466932	4.148850	-7.091163	3.614291	-6.789284	-3.630071	-0.162088	0.584315	-0.362299	-0.707843
50959	2.918853	-11.856303	-23.837461	24.255089	-7.708139	-18.085993	-0.109179	0.596325	-0.318915	-0.728539
50960	-5.887792	-23.910014	-19.789308	30.517113	7.583241	-12.760198	-0.115834	0.627525	-0.324722	-0.698105
50961	-27.163277	9.577230	9.246537	-9.041709	6.302626	18.337085	-0.180511	0.641644	-0.381465	-0.640463
50962	-26.290660	22.364170	3.864662	-16.569607	-4.656358	20.351646	-0.188853	0.654528	-0.377543	-0.627207
50963	-22.225613	13.586432	5.728058	-12.657374	1.022436	13.640301	-0.175973	0.674604	-0.360754	-0.619515
50964	-24.899261	-5.288194	-5.343687	7.407271	7.338707	14.005664	-0.128583	0.708832	-0.316766	-0.616995
50965	-13.083642	-8.599715	-15.963979	17.240478	0.699499	4.407237	-0.145164	0.709681	-0.322153	-0.609506
50966	1.966239	-0.036134	-10.021137	7.612415	-6.800987	-9.555572	-0.167920	0.703638	-0.334034	-0.604249
50967	6.333416	-1.801644	-2.166287	3.118389	-1.832655	-15.726012	-0.164729	0.706580	-0.336009	-0.600589
50968	-1.078778	-3.705072	-6.414169	7.152211	-1.138665	-7.920422	-0.156863	0.712197	-0.336405	-0.595819
50969	-15.174715	-5.982725	-3.850595	5.694647	6.474309	4.558027	-0.150009	0.723388	-0.337337	-0.583447
50970	-25.030200	0.803206	1.222398	-3.917865	8.016762	13.618410	-0.177985	0.723151	-0.354571	-0.565379
50971	-16.662890	11.933597	-1.555127	-9.462053	-3.976884	7.995438	-0.195636	0.716706	-0.360283	-0.564141
50972	-6.104571	0.600572	-1.142147	-0.283573	0.622939	-3.610916	-0.168625	0.724558	-0.337504	-0.576778
50973	-5.576935	-5.095047	-6.295285	7.435248	1.261007	-3.502519	-0.163988	0.725796	-0.331463	-0.580052
50974	-5.352710	0.735931	-6.333945	3.377080	-3.112393	-2.869641	-0.187863	0.721753	-0.344261	-0.570319
50975	-7.577554	5.025620	0.995249	-5.170267	-0.636666	-2.294094	-0.193333	0.721904	-0.345211	-0.567720
50976	-11.194612	1.516982	-0.198660	-2.288793	1.919336	1.083973	-0.179343	0.728486	-0.331309	-0.572171
50977	-12.493772	-2.233880	-1.617191	1.103454	4.011192	2.286570	-0.172144	0.731841	-0.323467	-0.574583
50978	-9.071614	-1.207888	-3.222242	1.960140	1.286036	-0.397848	-0.179778	0.730201	-0.326752	-0.572468
50979	-7.712363	2.505267	-1.298687	-1.855497	-0.537793	-1.830792	-0.189976	0.728546	-0.333450	-0.567398
50980	-7.286286	1.192262	0.602641	-2.239108	1.519190	-2.916818	-0.181299	0.732051	-0.326441	-0.569796
50981	-7.331200	-2.302837	-2.720050	2.503346	1.936000	-2.300574	-0.170110	0.736469	-0.318746	-0.571907
50982	-10.694541	-3.266822	0.346467	0.407081	5.578267	-0.123427	-0.171103	0.738434	-0.323641	-0.566299
50983	-12.419186	-1.684493	-1.115269	0.087804	4.078218	2.090139	-0.175315	0.738626	-0.331310	-0.560295
50984	-9.052029	0.406721	-3.850425	1.039646	-0.102078	-0.022946	-0.180370	0.736552	-0.338704	-0.556989
50985	-5.518078	-0.205199	-4.214366	2.261062	-0.932544	-3.311179	-0.175485	0.735427	-0.340657	-0.558843
50986	-5.822331	-1.871162	-9.530346	7.204675	-3.021249	-1.615870	-0.167150	0.732841	-0.339548	-0.565431
50987	-10.789617	0.308099	-11.531781	6.494878	-4.301200	3.928001	-0.173027	0.729903	-0.347854	-0.562406
50988	-14.992883	2.015645	-3.411362	-0.771353	1.069146	5.638526	-0.171149	0.723048	-0.351857	-0.569304
50989	-11.238434	-3.697226	-10.906102	9.469991	-0.811853	3.166678	-0.143188	0.715827	-0.336041	-0.595118
50990	-10.222701	-8.041832	-15.789591	16.720290	-0.823148	1.941710	-0.142544	0.700002	-0.340452	-0.611368
50991	-8.885353	-1.267389	-11.877411	9.674400	-4.210973	0.686450	-0.161297	0.677185	-0.354717	-0.624163
50992	-7.924596	4.806753	-10.919524	5.048468	-8.606519	0.460145	-0.166579	0.650570	-0.360802	-0.647172
50993	-9.204509	3.098589	-15.023167	10.046094	-10.114565	0.986350	-0.150692	0.632543	-0.346584	-0.676063
50994	-20.036752	7.663036	-11.786612	7.070576	-8.727110	11.934549	-0.154670	0.620846	-0.352152	-0.683093
50995	-22.908605	14.902800	5.207499	-8.559211	-2.310773	16.550449	-0.155421	0.595480	-0.339489	-0.711333
50996	-8.855702	13.188792	3.826537	-8.267051	-6.220809	2.814558	-0.126691	0.584844	-0.280053	-0.750651
50997	-7.566534	6.534836	-2.164608	1.169080	-5.784779	-1.471248	-0.074983	0.587947	-0.188501	-0.783047
50998	-6.583042	-0.707199	-17.867852	18.625430	-3.528896	-8.397297	-0.008308	0.591960	-0.074385	-0.802485
50999	-1.888730	-5.423066	-19.068959	18.886200	4.735623	-13.839453	0.039845	0.600023	0.013096	-0.798882
51000	-7.027774	-7.645548	-17.576837	17.346396	10.455452	-7.488722	0.090920	0.616855	0.088464	-0.776787
51001	-9.172829	-14.871573	-15.223784	11.752398	18.814030	-3.155922	0.117087	0.637679	0.132545	-0.749726
51002	-8.281831	-8.225969	-5.632979	3.488602	9.587555	-1.823227	0.114494	0.663774	0.144335	-0.724888
51003	-10.358542	-2.348409	-6.292518	5.665320	4.011520	0.392785	0.112165	0.688518	0.155834	-0.699341
51004	-8.536862	-1.544513	-6.814949	5.682751	3.339231	-0.969668	0.113737	0.713393	0.168625	-0.670597
51005	-9.358289	-2.528647	-3.220572	1.202266	2.590468	-0.008303	0.114542	0.739169	0.179816	-0.638886
51006	-10.863217	-0.871387	-1.113331	-1.017745	-0.246371	1.089096	0.103553	0.764905	0.181183	-0.609401
51007	-10.140252	2.765331	0.363327	-1.486149	-4.358193	-0.359901	0.089117	0.785677	0.182194	-0.584444
51008	-8.573175	5.469232	0.931155	-1.051651	-7.015402	-2.468278	0.089341	0.802377	0.192490	-0.557814
51009	-7.626430	4.133173	-1.028609	0.115471	-5.044589	-2.682657	0.101968	0.815415	0.208311	-0.530385
51010	-7.164936	3.668264	-1.086255	-0.097136	-4.539360	-3.078163	0.117859	0.825899	0.221756	-0.504802
51011	-7.383630	3.178703	-0.863702	-0.782604	-4.251469	-2.980559	0.135745	0.833497	0.232650	-0.482421
51012	-6.570686	2.429430	-2.108748	-0.060790	-2.780619	-3.046318	0.159037	0.836899	0.244070	-0.463396
51013	-6.459097	1.857710	-4.093883	0.873249	-1.123638	-2.073497	0.187070	0.836854	0.255746	-0.446402
51014	-7.820392	1.204940	-4.251856	-0.297442	-0.598805	-0.855594	0.215899	0.834242	0.265985	-0.432065
51015	-8.097933	0.312212	-3.963174	-1.411115	0.143181	-0.904443	0.248597	0.827226	0.276438	-0.421283
51016	-7.759046	-0.534230	-4.385332	-1.793709	1.422177	-1.183304	0.282560	0.816455	0.287637	-0.413312
51017	-8.984371	-1.562337	-3.779612	-3.629106	1.700442	-0.791913	0.314470	0.803394	0.296945	-0.409255
51018	-9.935745	-3.117220	-4.272712	-5.145203	3.125933	-0.302917	0.345560	0.787786	0.302788	-0.410244
51019	-10.414270	-4.913050	-5.287622	-6.365397	5.205962	-0.173142	0.366487	0.775512	0.301170	-0.416611
51020	-11.889929	-4.612332	-5.398250	-6.749785	5.287464	1.061501	0.379883	0.767275	0.292598	-0.425869
51021	-15.041173	-4.859833	-4.842327	-8.608306	5.070224	3.357921	0.396650	0.758580	0.284479	-0.431621
51022	-11.635675	-8.703097	-10.139643	-7.706972	12.417549	0.201464	0.419393	0.747118	0.273009	-0.437481
51023	-16.909002	-29.076501	5.632390	-32.903382	8.750687	-7.876298	0.443866	0.734168	0.274839	-0.434101
51024	-11.027863	-23.467412	0.346554	-22.904376	12.095381	-9.296657	0.389776	0.758983	0.235408	-0.465406
51025	-15.175219	17.168811	10.852948	-1.791243	-19.319552	6.482083	0.324352	0.785698	0.195091	-0.489299
51026	-19.498124	2.968026	10.622905	-12.900499	-9.866226	5.604197	0.378602	0.756951	0.242954	-0.473982
51027	-13.264983	-14.163911	-5.329124	-13.431087	12.305030	-1.264658	0.409954	0.728950	0.272026	-0.475995
51028	-11.519313	1.902237	4.784665	-5.391666	-5.200667	0.340496	0.377104	0.737780	0.267952	-0.491603
51029	-11.750208	8.905099	3.324523	1.028853	-8.083026	2.914118	0.389518	0.721819	0.291692	-0.492106
51030	-13.764411	4.709428	-2.715306	0.460677	-0.757673	4.959596	0.396332	0.713357	0.310086	-0.487739
51031	-13.187426	2.427393	-0.533484	-2.019809	-1.527591	3.365612	0.400849	0.706063	0.323742	-0.485785
51032	-10.892891	0.255024	-0.698797	-2.889399	-0.291349	0.712182	0.405583	0.699401	0.336607	-0.482739
51033	-9.825302	-1.026049	-2.136676	-2.991772	1.522338	-0.279353	0.408639	0.693515	0.349927	-0.479167
51034	-8.498007	0.227021	-3.038420	-1.091816	1.791555	-1.032230	0.406246	0.690354	0.359337	-0.478803
51035	-7.581983	2.321155	-5.309004	1.936314	2.983454	-0.957792	0.405637	0.686420	0.368645	-0.477898
51036	-8.317555	2.558276	-5.476591	2.051827	2.898333	-0.163407	0.403445	0.684689	0.376202	-0.476346
51037	-11.784316	2.362848	-0.849367	-0.629955	-1.783692	2.086619	0.396717	0.686012	0.379951	-0.477117
51038	-11.782839	2.465297	0.903593	-1.059087	-3.550175	1.676479	0.388430	0.686113	0.383434	-0.480988
51039	-10.390311	3.684762	-1.654094	1.479418	-1.702566	1.104241	0.381395	0.684559	0.392899	-0.481193
51040	-8.701486	4.616172	-3.262866	3.456499	-0.477040	-0.040592	0.378715	0.679776	0.405469	-0.479661
51041	-7.493464	5.091387	-4.921759	4.825964	1.086847	-0.766959	0.384129	0.669932	0.425265	-0.472002
51042	-6.849404	5.185565	-5.763387	5.290442	2.119145	-1.179160	0.392106	0.658184	0.448246	-0.460568
51043	-7.359925	4.740276	-3.154802	4.070792	-0.090399	-1.445533	0.402971	0.644270	0.473503	-0.445337
51044	-6.998283	3.416213	-0.594982	2.411058	-1.937158	-2.641096	0.418029	0.627211	0.500229	-0.426181
51045	-6.579967	0.264498	-0.733380	-0.516451	-1.190304	-3.315117	0.437578	0.605885	0.531883	-0.398158
51046	-6.038295	-3.761873	-2.175861	-4.429110	0.293611	-3.844023	0.452801	0.587667	0.557901	-0.371975
51047	-10.180404	-3.774054	0.014701	-4.687066	-3.536940	-0.680936	0.450292	0.582285	0.574487	-0.357974
51048	-19.524878	-7.350647	6.995671	-7.919646	-14.085615	5.119250	0.455934	0.570113	0.593923	-0.338157
51049	-10.573030	-13.006376	-10.737117	-14.994574	4.531324	2.469782	0.449649	0.567520	0.599401	-0.341256
51050	-5.907674	6.976230	-12.233191	6.037062	9.421347	0.554970	0.395375	0.594818	0.577286	-0.395741
51051	-2.338351	13.607763	0.834770	13.550019	-1.990728	-7.871723	0.394316	0.591377	0.583035	-0.393521
51052	-5.491293	-5.575364	-6.674355	-5.808806	3.817226	-2.236795	0.411095	0.573566	0.611684	-0.357583
51053	-9.378923	-6.018286	-7.215857	-6.299864	2.300966	1.643395	0.390258	0.577428	0.614404	-0.369842
51054	-8.870723	-0.370881	-6.997073	-0.199915	2.531456	1.201925	0.373027	0.578163	0.618912	-0.378848
51055	-9.702120	-2.735484	-3.773707	-2.202865	-0.967112	0.678420	0.366764	0.576457	0.625762	-0.376302
51056	-10.772500	-4.054662	-3.911571	-3.289035	-1.488184	1.795554	0.357923	0.576401	0.628436	-0.380424
51057	-9.158590	-1.090476	-7.938132	-0.199794	2.908214	2.001540	0.346876	0.577496	0.627574	-0.390290
51058	-8.646995	0.502087	-6.206446	1.553987	1.581420	0.609559	0.337164	0.580267	0.627011	-0.395559
51059	-9.242973	-1.178878	-5.248038	0.014540	0.380438	0.874635	0.335868	0.577742	0.630927	-0.394130
51060	-8.215579	-1.303817	-8.356701	-0.026724	3.590753	1.418315	0.334320	0.575022	0.632923	-0.396218
51061	-8.710046	-1.500130	-5.310346	-0.200333	0.653894	0.475474	0.329484	0.574566	0.633892	-0.399368
51062	-9.183560	-0.891902	-4.443228	0.533835	-0.317349	0.409273	0.325781	0.573066	0.633586	-0.405008
51063	-8.527188	1.043548	-4.036678	2.453084	-0.333273	-0.649341	0.322311	0.571147	0.633863	-0.410029
51064	-8.868727	2.366503	-3.991948	3.901733	-0.487032	-0.607874	0.322007	0.566052	0.637364	-0.411903
51065	-8.361159	1.853590	-3.811464	3.374322	-0.346258	-1.073972	0.325979	0.557012	0.644784	-0.409548
51066	-8.318421	-0.406505	-5.075590	1.219264	0.781851	-0.167739	0.332015	0.545313	0.655407	-0.403536
51067	-8.627350	-0.519067	-5.609889	1.213918	1.157180	0.353814	0.334121	0.534322	0.663243	-0.403698
51068	-7.727941	1.695071	-4.378204	3.289761	0.755285	-1.424147	0.336319	0.521700	0.671584	-0.404591
51069	-7.100717	-0.674265	-1.658211	0.984194	-1.636545	-2.743255	0.345176	0.504414	0.687825	-0.391557
51070	-8.828657	-6.884058	-4.484121	-4.750544	-1.189088	1.207336	0.359482	0.484294	0.705875	-0.371446
51071	-8.365671	-5.468893	-7.298864	-3.830653	1.581436	1.848687	0.357514	0.472319	0.712672	-0.375762
51072	-7.811725	4.450583	-4.138249	6.035427	1.729002	-2.162192	0.351943	0.460179	0.717893	-0.386008
51073	-7.360805	6.226015	-1.091716	8.036318	0.139209	-4.382188	0.372098	0.429373	0.741830	-0.356188
51074	-7.131834	-3.405757	-8.170041	-2.919672	2.613795	0.851586	0.402781	0.389313	0.771532	-0.301566
51075	-8.372859	-14.288670	-10.039799	-12.741393	-2.953412	4.465872	0.411296	0.366953	0.786854	-0.277565
51076	-9.456094	-5.505381	-3.543265	-2.163841	-3.715205	0.854462	0.408789	0.354252	0.791644	-0.284071
51077	-7.649889	1.629439	-2.378756	3.480121	0.296696	-2.421375	0.408395	0.338596	0.798544	-0.284419
51078	-7.842648	0.065958	-1.287211	2.891448	-1.416760	-2.546278	0.423133	0.309679	0.815156	-0.246126
51079	-7.036407	-4.370703	-10.202455	-5.562274	1.356459	2.013197	0.435894	0.281793	0.828284	-0.211033
51080	-7.499995	-1.341554	-5.371757	-0.583496	0.093043	-0.509188	0.433595	0.269347	0.835390	-0.203889
51081	-9.210501	-0.698998	-1.873043	2.866698	-1.986727	-1.056894	0.436329	0.252154	0.844527	-0.181134
51082	-7.039660	-3.822193	-5.181305	-2.081585	-2.380467	-0.812866	0.440166	0.235495	0.852732	-0.153766
51083	-6.950931	-4.412478	-6.067216	-2.950744	-2.777753	-0.423037	0.439759	0.224973	0.858487	-0.137837
51084	-6.736868	-1.624654	-7.771656	-2.706957	0.210616	0.239654	0.436535	0.220372	0.862334	-0.131352
51085	-8.538210	2.286166	-6.669541	1.017580	2.503049	0.925458	0.432740	0.220455	0.865154	-0.125075
51086	-8.438696	-3.725769	-6.775723	-2.089907	-2.932932	1.050789	0.435488	0.215931	0.867959	-0.101842
51087	-8.258906	-5.457570	-9.360729	-4.843962	-3.643908	2.388773	0.432439	0.222383	0.867531	-0.104556
51088	-8.063807	0.612095	-6.387322	0.106806	0.676474	0.469652	0.430545	0.227599	0.865755	-0.115319
51089	-6.947044	2.873794	-6.953813	0.222502	3.203356	-0.088416	0.434832	0.225618	0.865315	-0.106060
51090	-7.856282	-0.308938	-8.046919	-1.810672	0.378442	1.284019	0.441109	0.221591	0.865086	-0.089141
51091	-7.548239	-1.073530	-8.023213	-2.473778	-0.382720	0.968444	0.445084	0.225268	0.862358	-0.086564
51092	-7.254455	1.132585	-6.010922	-0.189753	0.921014	-0.370409	0.446309	0.235149	0.858407	-0.093007
51093	-8.394361	1.683477	-4.515100	1.689290	0.464014	-0.293430	0.447111	0.244240	0.855052	-0.096563
51094	-8.830077	1.008320	-4.512950	1.516368	-0.286383	0.034756	0.448094	0.251965	0.851763	-0.101122
51095	-8.757114	3.082259	-5.836797	1.637355	2.074978	0.830073	0.448570	0.258496	0.848375	-0.110561
51096	-8.019645	5.132203	-4.140975	3.613955	3.366493	-0.679895	0.450729	0.261384	0.845798	-0.114662
51097	-6.298576	2.534411	-4.425721	1.103026	1.898877	-2.011587	0.458083	0.256682	0.844579	-0.104694
51098	-4.938954	-0.612997	-6.981923	-3.156235	0.717080	-1.872988	0.462239	0.254481	0.843791	-0.097936
51099	-6.926740	0.814632	-5.150342	-0.209263	0.501874	-1.159786	0.459893	0.258584	0.842778	-0.106576
51100	-8.093987	2.932832	-1.609578	4.003106	0.429327	-2.034798	0.461920	0.258205	0.841667	-0.107503
51101	-7.385168	0.333796	-3.777928	0.673391	-0.603572	-1.560038	0.467004	0.250082	0.842727	-0.095794
51102	-7.397143	-0.262163	-6.404583	-1.610221	-0.076650	-0.158342	0.468291	0.248470	0.842496	-0.095745
51103	-7.411801	2.304771	-3.822304	1.654363	1.100914	-1.392057	0.465441	0.253233	0.841598	-0.104647
51104	-7.950472	1.386534	-2.678535	2.260087	-0.334302	-1.622020	0.466427	0.249857	0.843002	-0.096775
51105	-8.315419	-1.542281	-5.403523	-1.104730	-1.938231	-0.027797	0.466240	0.246583	0.845037	-0.087919
51106	-8.566259	0.242056	-5.509715	-0.104148	-0.467094	0.364021	0.461624	0.250550	0.845390	-0.097184
51107	-7.948677	4.055624	-2.432572	3.943822	1.795561	-1.641495	0.458437	0.252679	0.845783	-0.103155
51108	-7.194368	1.428228	-3.920603	1.163491	0.389668	-1.586933	0.459229	0.243518	0.849809	-0.087365
51109	-8.623569	-1.443045	-4.121524	0.257076	-2.593723	-0.504622	0.455736	0.239767	0.853458	-0.080164
51110	-9.272358	-0.517428	-4.569130	0.802990	-1.896968	0.330114	0.449647	0.240230	0.856361	-0.082178
51111	-7.823247	-0.155001	-4.710273	0.291889	-1.063784	-0.746463	0.445795	0.239405	0.858752	-0.080601
51112	-6.721629	-1.423624	-8.002434	-3.200350	-0.690453	0.213545	0.444413	0.238365	0.860353	-0.073973
51113	-8.384332	-1.574752	-8.848936	-2.983099	-1.160159	2.054632	0.437060	0.244507	0.862034	-0.078052
51114	-10.154630	0.251415	-6.292679	0.737513	-1.135542	2.059280	0.433202	0.250730	0.861961	-0.080582
51115	-9.660722	-1.374647	-7.796170	-1.396987	-1.945581	2.445248	0.434006	0.252829	0.861851	-0.070204
51116	-11.572156	-3.680881	-7.622798	-1.553059	-4.956147	3.551012	0.432280	0.258725	0.861600	-0.061978
51117	-11.981139	-3.998588	-5.528312	-0.092680	-6.311555	2.445009	0.430224	0.266856	0.860355	-0.059025
51118	-12.277570	-4.817133	-3.653590	0.829102	-7.962062	1.286933	0.428289	0.278049	0.858140	-0.053416
51119	-14.038887	-6.355857	-5.032111	-0.303854	-9.801281	3.096093	0.423501	0.293933	0.855457	-0.049442
51120	-15.584488	-7.362252	-2.974075	0.986348	-12.343362	2.539087	0.414109	0.316002	0.852117	-0.050528
51121	-18.732678	-8.559426	2.689818	5.009565	-17.318134	0.497651	0.396326	0.343569	0.849756	-0.052917
51122	-24.146938	-4.451934	7.103688	12.141347	-19.639242	1.140499	0.367038	0.376122	0.848401	-0.063486
51123	-27.092694	-0.626197	7.044874	15.635026	-19.841769	2.247989	0.336973	0.398740	0.851486	-0.049268
51124	-28.235534	-6.655308	-0.743636	7.685350	-23.180419	5.843363	0.315060	0.414716	0.853584	-0.011923
51125	-17.308945	-15.877969	-6.874537	-7.498348	-20.600589	1.060977	0.307311	0.436139	0.845777	0.001895
51126	-5.692719	-17.839979	-10.887457	-16.529422	-11.783226	-2.262356	0.282824	0.460991	0.840962	-0.016776
51127	-6.597571	-12.947944	-24.141723	-17.994803	-4.632648	11.363603	0.265985	0.477251	0.836369	-0.044388
51128	-7.383979	-2.113271	-29.884364	-8.447706	4.182015	19.535091	0.218138	0.499633	0.831653	-0.105526
51129	-8.456449	6.611341	-2.473173	9.067348	-2.951740	-4.334358	0.131671	0.531883	0.815415	-0.186712
51130	-11.451709	9.087806	27.850399	11.426464	-19.696743	-31.481325	0.104609	0.550519	0.793543	-0.237223
51131	-0.559591	-2.279977	-5.560288	-1.467122	1.766761	-4.232212	0.135061	0.561773	0.781944	-0.233949
51132	-0.796074	-11.228178	-18.527428	-9.140885	6.682166	8.671560	0.144923	0.575527	0.765763	-0.247734
51133	-4.175507	-2.071401	-6.109918	-0.055487	-0.140849	-2.132627	0.133349	0.590240	0.736774	-0.301661
51134	-2.390569	4.958105	-3.906072	6.081762	0.946422	-7.044952	0.135684	0.605385	0.704230	-0.345194
51135	-3.333321	4.001134	-3.976349	5.402023	0.205876	-6.111466	0.168109	0.617477	0.680917	-0.356110
51136	-5.043638	-0.283383	-7.444639	1.996995	1.849863	-1.241148	0.213168	0.625007	0.658858	-0.360321
51137	-4.653184	-2.094954	-8.873876	-0.060900	3.968102	-0.380677	0.252474	0.631425	0.631121	-0.373156
51138	-4.747738	-2.234188	-5.889948	-1.008779	2.282922	-2.332698	0.286511	0.636850	0.600774	-0.389106
51139	-6.136107	-3.206575	-5.491571	-2.246339	2.043831	-1.517824	0.319791	0.638873	0.568647	-0.407695
51140	-5.259661	-4.021945	-7.604738	-2.787038	5.289995	-1.699802	0.349720	0.638269	0.530334	-0.434804
51141	-4.430570	-2.733925	-8.716165	-1.047618	7.186916	-2.725620	0.368136	0.641119	0.484880	-0.467262
51142	-5.357668	-1.579912	-7.678472	0.086825	6.371881	-2.778964	0.385489	0.643620	0.435283	-0.497675
51143	-4.235330	-3.907744	-9.284789	-1.074792	9.463078	-4.465387	0.406995	0.642258	0.387154	-0.521508
51144	-5.514211	-6.400641	-10.562877	-2.642518	12.091114	-4.370441	0.425597	0.641477	0.341487	-0.539222
51145	-6.603865	-7.231284	-11.545932	-2.622951	13.928429	-4.505107	0.438810	0.638578	0.299729	-0.556621
51146	-9.892322	-6.732433	-6.584874	-4.604541	10.260996	-2.069167	0.444864	0.638852	0.261901	-0.570413
51147	-11.915201	-9.583167	-5.823925	-7.450356	11.994255	-1.549946	0.454841	0.631428	0.235944	-0.582022
51148	-11.123083	-13.658460	-9.987450	-8.198967	17.760212	-4.584649	0.464797	0.620948	0.223356	-0.590338
51149	-6.321712	-19.660365	-15.039670	-9.241168	23.698203	-12.191548	0.467068	0.611723	0.215688	-0.600934
51150	0.330605	-20.164382	-22.283370	-3.733156	28.167281	-19.597332	0.444588	0.619745	0.209683	-0.611792
51151	-7.130160	10.102336	-26.604656	23.330940	16.427156	-3.095752	0.377967	0.650042	0.204464	-0.626722
51152	-18.171620	20.492864	-19.697865	25.127851	4.233464	12.277091	0.351378	0.687332	0.227977	-0.593409
51153	-53.046416	9.593882	32.565438	-27.239162	-24.844797	41.224518	0.295640	0.719946	0.194404	-0.597062
51154	-18.658951	17.041918	-1.318886	8.085979	-10.595309	11.696116	0.311748	0.716762	0.230439	-0.579624
51155	-16.707616	-2.082407	-11.222417	2.179918	9.806398	7.748941	0.328478	0.711985	0.268516	-0.559535
51156	-6.619487	-6.298066	-7.237609	-1.653087	9.470122	-3.221074	0.325513	0.713774	0.271159	-0.557710
51157	-5.506611	-4.523625	-4.066782	-2.115531	5.829626	-4.440437	0.321693	0.715053	0.282273	-0.552752
51158	-3.969659	-3.293373	-0.284289	-3.200916	2.136707	-6.366847	0.317529	0.715494	0.283954	-0.553727
51159	-3.322936	-3.710113	-5.539787	-0.059709	6.404779	-6.008808	0.308235	0.717963	0.286466	-0.554488
51160	-7.585781	2.622087	-3.051679	2.263607	-0.109996	-1.531092	0.285296	0.723363	0.286562	-0.559674
51161	-11.055783	8.592821	2.675924	2.215458	-8.955572	1.055093	0.273900	0.724147	0.290612	-0.562259
51162	-8.649748	3.217603	0.187808	0.591277	-3.360387	-1.235965	0.285186	0.716632	0.315702	-0.552666
51163	-8.584943	-2.657759	-3.177433	-1.744632	2.832937	-0.880353	0.295704	0.708919	0.338742	-0.543366
51164	-6.589833	-2.835637	-4.149949	-0.957601	3.844226	-2.533303	0.283261	0.708895	0.343500	-0.547027
51165	-5.462302	2.402800	-3.116287	2.921990	-0.159661	-3.750568	0.259029	0.710905	0.340493	-0.558196
51166	-5.410324	9.221783	0.597819	5.975023	-7.444446	-4.960540	0.250526	0.706588	0.348247	-0.562757
51167	-6.688850	5.248866	-2.437274	4.809458	-2.895389	-2.977903	0.259270	0.699999	0.374485	-0.550038
51168	-12.012149	0.584412	-5.752825	2.325432	1.052396	3.271534	0.264143	0.699561	0.398853	-0.530810
51169	-15.745749	-5.880020	-2.079236	-5.753907	0.257043	6.112894	0.270903	0.698192	0.415358	-0.516350
51170	-8.646344	-9.554245	-6.941540	-5.647483	7.874589	1.156443	0.268113	0.693317	0.420972	-0.519817
51171	-5.097788	-1.319373	-4.586368	0.865003	2.695873	-3.430928	0.233542	0.698144	0.413548	-0.535753
51172	-9.896071	3.745249	-0.617499	2.602808	-5.030227	-0.854588	0.210383	0.703538	0.413477	-0.538339
51173	-9.815269	-3.673120	-0.938166	-3.259547	-0.809740	0.158272	0.237061	0.693681	0.439431	-0.519143
51174	-9.007364	-12.693725	-10.937004	-5.858997	11.664839	4.024935	0.239311	0.692352	0.444831	-0.515271
51175	-10.789906	-4.667703	-4.548287	-2.264858	1.835407	2.450330	0.211815	0.700280	0.435417	-0.524551
51176	-11.516063	0.961452	-4.026563	2.344788	-2.110479	2.010740	0.185461	0.706891	0.421368	-0.536990
51177	-9.988069	4.689035	-5.347477	6.334507	-2.978241	0.254324	0.175709	0.707753	0.415492	-0.543671
51178	-8.311201	2.718728	-6.286466	5.524677	-0.493214	-0.581216	0.183943	0.704041	0.425482	-0.538012
51179	-9.040427	-0.492454	-5.834213	2.569037	0.848679	0.612641	0.194731	0.699832	0.436878	-0.530522
51180	-8.872538	-4.787982	-5.251838	-1.387850	2.872876	1.098195	0.204551	0.693624	0.447370	-0.526217
51181	-8.497780	-4.570472	-4.810313	-1.394456	2.547770	0.570028	0.198139	0.689127	0.449467	-0.532752
51182	-8.053269	-0.821183	-2.736303	0.740877	-0.819774	-1.339620	0.191272	0.684045	0.451428	-0.540102
51183	-8.633221	-0.135627	-2.059044	1.049540	-1.937689	-1.214222	0.194904	0.677582	0.460413	-0.539365
51184	-10.318830	-2.024483	-2.292308	-0.319158	-1.519198	0.837265	0.205759	0.669724	0.474183	-0.533183
51185	-8.411050	-5.261585	-3.563133	-2.483866	1.734091	0.284227	0.220148	0.659068	0.488243	-0.527999
51186	-7.307239	-7.159899	-1.901264	-5.034506	1.578052	-0.844033	0.221980	0.653553	0.495790	-0.527054
51187	-7.905254	-4.140383	-0.696355	-2.878903	-1.005016	-1.397131	0.221927	0.648649	0.501896	-0.527355
51188	-9.423947	-4.656849	-1.697468	-2.745328	-0.714913	0.450296	0.227302	0.644583	0.510920	-0.521351
51189	-11.729068	-8.295462	-2.448075	-5.559843	0.190848	3.656840	0.234036	0.641006	0.517338	-0.516430
51190	-12.557195	-5.448885	-4.815583	-1.848212	0.685366	4.563429	0.226573	0.639202	0.517721	-0.521584
51191	-16.519804	-0.497495	-2.361744	2.111541	-5.011546	5.971391	0.207731	0.639136	0.516681	-0.530466
51192	-18.006964	-0.508403	-1.861116	2.595509	-5.925089	7.100276	0.220242	0.615591	0.527957	-0.542036
51193	-5.540471	-2.109165	-2.009029	-0.060084	0.277106	-3.560235	0.236023	0.587919	0.537192	-0.556838
51194	-3.353373	-0.664276	-2.388336	1.081289	1.099937	-5.938325	0.242625	0.567666	0.551413	-0.561099
51195	-7.849862	-2.024410	-1.517778	0.694346	-0.841695	-1.637697	0.261025	0.544341	0.576208	-0.550948
51196	-5.988082	-3.915830	-6.330123	-0.069920	4.607879	-1.444783	0.273274	0.524966	0.591730	-0.547346
51197	-2.422233	-3.117675	-5.680017	-0.658847	5.038619	-5.119312	0.275424	0.517713	0.594013	-0.550693
51198	-3.690329	-2.762843	-3.976548	-0.364424	2.996060	-4.525390	0.272543	0.520756	0.593226	-0.550106
51199	-6.609270	-5.411642	-1.514730	-2.534949	0.176086	-1.517773	0.268414	0.527653	0.589596	-0.549466
51200	-7.315723	-3.812864	-0.679596	-1.109254	-1.073137	-1.680208	0.266229	0.529798	0.585173	-0.553180
51201	-6.877495	-3.475729	-3.442391	-0.169792	1.589635	-1.525668	0.267939	0.530484	0.586189	-0.550616
51202	-8.299125	-3.608840	-5.142481	0.574944	2.722072	0.217470	0.267323	0.532678	0.583946	-0.551181
51203	-12.244578	-1.727267	-0.308344	2.036805	-3.398236	1.905308	0.265438	0.535531	0.581493	-0.551919
51204	-11.507618	-4.028328	-1.048204	-0.105312	-2.075394	2.246848	0.265851	0.536765	0.583440	-0.548456
51205	-12.309209	-3.174911	-2.079442	1.193801	-1.603568	2.912249	0.261869	0.538402	0.582006	-0.550289
51206	-11.190294	-1.449252	-1.557710	2.343837	-2.091116	1.136395	0.257098	0.538858	0.582713	-0.551342
51207	-8.611369	-5.006095	-1.126215	-1.741573	-1.004790	0.007719	0.256926	0.538857	0.588522	-0.545220
51208	-7.140690	-6.253419	-4.261812	-2.359518	2.535287	-0.001348	0.252420	0.540676	0.587946	-0.546143
51209	-8.125480	-1.403621	-3.600622	2.223646	0.647369	-1.118270	0.244967	0.541763	0.582780	-0.553942
51210	-9.021835	0.461677	-4.063317	4.390873	0.360041	-0.940949	0.245571	0.538419	0.587419	-0.552031
51211	-8.576138	-1.365492	-5.790643	3.155371	2.464678	-0.173435	0.248923	0.532594	0.594486	-0.548605
51212	-6.216803	-2.004051	-3.253588	1.087095	1.116492	-2.683710	0.251452	0.527603	0.598237	-0.548197
51213	-4.721956	-4.667011	-3.240112	-1.833980	2.048208	-2.955838	0.258108	0.522478	0.605439	-0.542071
51214	-5.225031	-5.401695	-4.099648	-2.179086	2.712530	-1.990931	0.262386	0.517777	0.609523	-0.539947
51215	-7.114836	-3.681969	-2.388912	-0.445799	0.217021	-1.467701	0.266119	0.513670	0.613796	-0.537195
51216	-10.453507	-5.371792	-2.331072	-0.930613	-0.839439	2.103454	0.272389	0.509397	0.619676	-0.531338
51217	-8.606723	-4.302889	-3.299222	-0.358115	0.609162	0.334969	0.273029	0.507161	0.617222	-0.535985
51218	-7.340363	-2.052564	-0.098974	0.625857	-2.120755	-2.517880	0.274947	0.504316	0.617226	-0.537681
51219	-6.592591	-5.405685	0.000239	-2.712245	-1.675823	-1.905851	0.280614	0.500259	0.623284	-0.531521
51220	-7.428301	-3.161280	-2.698241	0.161794	0.403349	-1.311824	0.284689	0.494377	0.625380	-0.532395
51221	-8.366132	7.338237	-3.836187	10.377264	0.599779	-4.289258	0.286693	0.487817	0.628610	-0.533565
51222	-10.846308	0.364365	3.981101	3.757153	-7.206171	-1.593432	0.303213	0.475831	0.659937	-0.496114
51223	-14.029677	-25.355925	-2.363319	-18.523469	-4.557424	12.118481	0.321531	0.469640	0.679774	-0.462561
51224	-8.208623	-12.136676	-9.656285	-7.841192	5.372702	4.929656	0.292233	0.486147	0.655656	-0.498373
51225	-8.161135	10.524200	10.197714	11.218931	-12.465402	-10.015124	0.276115	0.496042	0.642085	-0.515198
51226	-7.222954	-3.340623	-7.966341	0.415793	4.757026	0.380732	0.294689	0.490891	0.668173	-0.475110
51227	-8.396574	-11.062582	-10.929673	-6.464698	6.384399	5.345960	0.287494	0.498651	0.663730	-0.477658
51228	-7.796755	-1.624687	-3.193093	1.555577	-0.128156	-1.375603	0.268612	0.507403	0.652737	-0.494292
51229	-8.262883	1.060650	0.557121	3.699436	-3.833918	-3.384218	0.264132	0.510760	0.652442	-0.493638
51230	-8.014847	-3.465612	-2.666400	-0.123092	-0.861416	-0.724595	0.271243	0.509845	0.663479	-0.475690
51231	-8.581448	-5.355708	-5.726107	-1.366469	1.475865	1.635758	0.267397	0.513574	0.663894	-0.473271
51232	-8.160165	-2.425784	-2.828418	0.843801	-1.006113	-0.938692	0.259127	0.518969	0.661547	-0.475269
51233	-8.378219	-2.787655	-4.215549	0.782275	0.036726	-0.059690	0.259261	0.520680	0.665708	-0.467449
51234	-8.418165	-4.762817	-6.088485	-0.878962	1.518754	1.480516	0.262061	0.521796	0.669862	-0.458626
51235	-8.550638	-4.261070	-7.242308	-0.294765	2.382567	1.932830	0.261100	0.523439	0.670624	-0.456183
51236	-8.121334	-1.411641	-4.329113	1.853620	0.036370	-0.688400	0.258291	0.524387	0.669587	-0.458212
51237	-7.928469	-1.093976	-3.420905	1.944236	-0.683219	-1.356170	0.264486	0.520870	0.674829	-0.450941
51238	-7.965238	-3.770506	-4.777403	-0.544864	0.306875	0.191708	0.276451	0.515165	0.684257	-0.435859
51239	-8.902078	-5.867823	-5.737291	-2.367155	0.396065	2.054456	0.285698	0.510346	0.690728	-0.425228
51240	-8.639456	-4.389685	-3.266238	-1.303760	-1.607338	0.201995	0.292142	0.506493	0.694671	-0.418987
51241	-7.181134	-3.882262	-1.661410	-1.389689	-2.367349	-1.947313	0.301613	0.500655	0.701361	-0.408004
51242	-6.803913	-5.500597	-1.558571	-3.098846	-2.685707	-1.928583	0.311542	0.494781	0.708907	-0.394442
51243	-6.497932	-5.032938	-3.258149	-2.890416	-1.139196	-1.535320	0.317690	0.491386	0.713585	-0.385240
51244	-6.387887	-1.966880	-4.018052	-0.123485	0.121819	-2.016019	0.318413	0.490590	0.716254	-0.380676
51245	-7.649858	-0.502462	-2.394206	1.735652	-1.617666	-2.139724	0.320406	0.490691	0.720954	-0.369847
51246	-9.480787	-3.551563	-2.231297	-0.652160	-3.576104	-0.104485	0.326471	0.488951	0.731516	-0.345293
51247	-13.045214	-7.022078	-2.867171	-3.006561	-6.141015	3.638609	0.327563	0.489618	0.738005	-0.329128
51248	-11.160853	-3.433487	-2.638532	-0.199907	-4.567205	1.251452	0.325015	0.490144	0.739932	-0.326535
51249	-7.592700	-0.271971	-3.183650	1.586346	-1.403062	-1.851938	0.331137	0.482738	0.745642	-0.318325
51250	-5.860694	-1.553392	-6.726852	-1.003390	1.792571	-0.993757	0.350300	0.464500	0.758724	-0.293032
51251	-5.184862	-1.588449	-12.411864	-3.248219	6.330560	1.710545	0.370873	0.441886	0.768727	-0.276131
51252	-4.069718	2.285223	-9.999098	-0.022104	6.705970	-1.050446	0.384732	0.421525	0.777005	-0.265636
51253	-7.335702	3.481043	-11.513039	0.935801	6.967155	2.394034	0.403341	0.400268	0.786215	-0.242832
51254	-7.200293	3.224437	-11.056375	0.270320	6.521058	2.098495	0.412078	0.391789	0.788957	-0.232896
51255	-6.348927	-1.065557	-7.154250	-2.064554	1.631088	-0.555440	0.424682	0.388438	0.787212	-0.221490
51256	-10.640932	1.429927	-13.187335	-1.656598	5.473415	6.202121	0.424332	0.388526	0.785680	-0.227371
51257	-11.466864	11.003006	-0.761308	12.358423	2.240429	-0.046265	0.432397	0.390650	0.776748	-0.238929
51258	-4.290000	2.458706	-4.329340	1.040004	2.774772	-3.948943	0.458860	0.367141	0.784126	-0.199504
51259	-8.420672	-6.231190	-7.748111	-6.689910	-2.570460	1.066202	0.475546	0.352379	0.788441	-0.167468
51260	-10.318096	-2.028640	-3.814066	-0.735582	-3.027689	0.930237	0.475184	0.350676	0.786240	-0.181805
51261	-9.939928	8.683050	2.452776	10.835930	0.693933	-1.918835	0.479813	0.346691	0.783180	-0.190300
51262	-8.566219	4.084767	-2.162072	4.100521	1.152144	-1.061076	0.491534	0.329735	0.787793	-0.170444
51263	-5.250839	-0.834969	-4.305707	-1.908809	0.123387	-3.244078	0.502560	0.322039	0.785971	-0.161163
51264	-3.203371	-2.260409	-6.291736	-4.914539	0.933692	-4.341687	0.507793	0.321470	0.782853	-0.161071
51265	-4.916610	1.861065	-4.677559	-0.507998	2.491461	-3.251596	0.502108	0.329512	0.780146	-0.175161
51266	-10.454642	4.770414	0.998707	6.863716	-0.740419	-0.571766	0.503886	0.329526	0.780073	-0.170286
51267	-13.195242	-2.745431	-2.096822	0.347856	-5.364056	2.723061	0.510229	0.317432	0.786105	-0.144715
51268	-10.240074	-6.595446	-2.763335	-3.468302	-6.974869	-0.049678	0.509331	0.322348	0.784118	-0.147757
51269	-10.362340	-2.108268	2.045267	2.813412	-6.425586	-1.639445	0.500442	0.333018	0.782652	-0.161593
51270	-10.224383	0.632824	-1.110075	2.543045	-2.571459	-0.164323	0.496211	0.337452	0.782538	-0.165939
51271	-8.002877	0.607098	-8.270974	-2.778937	2.458683	1.098543	0.494569	0.337016	0.784714	-0.161389
51272	-9.501715	0.356017	-8.737653	-2.783987	1.933537	2.647879	0.490478	0.340251	0.785609	-0.162724
51273	-8.223288	3.281445	-5.741433	0.952728	2.685312	0.347782	0.487768	0.344710	0.784271	-0.167861
51274	-9.091738	2.054457	-3.908613	1.517416	0.355299	0.173713	0.489623	0.341500	0.786293	-0.159345
51275	-9.156041	-1.343964	-4.752755	-1.443135	-1.670474	0.353620	0.490861	0.339890	0.787610	-0.152316
51276	-9.149540	-0.009378	-1.923663	1.358839	-2.409095	-0.881601	0.485529	0.346861	0.786113	-0.161168
51277	-8.367687	2.589333	1.094377	4.960255	-2.118225	-2.824921	0.481149	0.350742	0.786349	-0.164717
51278	-8.456272	0.299518	-1.049046	2.038459	-2.512489	-1.924100	0.476824	0.350654	0.789861	-0.160625
51279	-8.041842	-0.748887	-1.639566	0.876630	-2.787464	-2.106802	0.467351	0.356600	0.791841	-0.165553
51280	-7.769593	0.796160	-3.020063	1.209662	-0.838546	-1.569421	0.454372	0.365832	0.793024	-0.175571
51281	-8.077631	2.704224	-3.607281	2.619318	0.580802	-0.960144	0.439568	0.374959	0.794910	-0.185213
51282	-7.438957	3.384676	-5.291489	2.259256	2.241591	-0.611689	0.426945	0.380733	0.798145	-0.189011
51283	-6.783665	2.042771	-6.243855	0.727365	2.158935	-0.648587	0.414258	0.384437	0.803021	-0.189092
51284	-5.629611	0.257102	-5.336116	-0.426874	0.869955	-2.112655	0.403121	0.386977	0.807953	-0.186959
51285	-6.797641	-0.098531	-7.005576	-0.911697	0.995679	-0.144860	0.390391	0.389600	0.813220	-0.185687
51286	-8.318762	1.309232	-6.908429	1.074695	0.930692	0.986120	0.378135	0.392620	0.817172	-0.187333
51287	-7.807204	1.377773	-8.295968	0.488667	1.942453	1.485894	0.369846	0.392228	0.821792	-0.184469
51288	-7.199539	-0.273665	-10.037177	-1.745155	2.120609	2.233381	0.365561	0.389153	0.826457	-0.178590
51289	-6.301856	-1.551636	-12.191915	-4.066114	2.909653	3.062227	0.363594	0.386098	0.829344	-0.175830
51290	-5.988308	-1.336511	-13.237226	-4.425145	3.812375	3.557103	0.360165	0.384852	0.830298	-0.181039
51291	-7.349127	-1.281832	-11.727348	-2.963827	2.430256	3.547247	0.359459	0.383408	0.829325	-0.189757
51292	-6.374253	-1.743626	-12.122058	-3.858066	3.128405	3.068905	0.362641	0.381538	0.826300	-0.200369
51293	-7.405670	-1.741980	-11.728778	-3.121193	2.826052	3.517154	0.364158	0.381635	0.820276	-0.221114
51294	-5.938771	3.123320	-13.465396	-0.242229	8.240619	2.767875	0.361361	0.386084	0.808604	-0.257909
51295	-4.557746	12.627769	-5.145765	10.598443	8.585814	-5.272714	0.361204	0.393849	0.792955	-0.292638
51296	-4.129970	1.983918	-4.185285	1.901444	2.494661	-4.458853	0.378617	0.382650	0.796046	-0.276659
51297	-16.027089	-8.273618	-1.259805	-0.549588	-9.987789	5.248835	0.386613	0.375889	0.797605	-0.270304
51298	-10.525425	-5.475490	-1.778642	-0.831174	-5.676892	0.722505	0.395208	0.372475	0.789121	-0.286987
51299	-6.289971	-6.001066	-3.563865	-3.806702	-2.860429	-1.713055	0.405830	0.365422	0.787503	-0.285670
51300	-5.906540	-7.791378	-8.174613	-7.459449	-0.174742	0.518800	0.412838	0.364616	0.783071	-0.288825
51301	-9.750557	-6.553200	-4.504585	-3.476268	-3.268629	1.828837	0.410109	0.374140	0.773114	-0.306798
51302	-10.965569	-0.628518	-2.379461	2.746744	-1.919678	0.914225	0.401433	0.389021	0.757754	-0.336636
51303	-8.316053	3.205711	-6.777794	3.759452	4.504777	-0.276848	0.394861	0.399625	0.744464	-0.360775
51304	-1.756436	3.590998	-9.211694	1.351617	8.822155	-5.212352	0.389054	0.416973	0.731881	-0.372989
51305	-3.793793	-0.366767	-12.145265	-1.841901	9.323426	-1.344920	0.382847	0.436684	0.719808	-0.380278
51306	-5.707153	0.920787	-11.494023	0.874400	8.605019	-0.293955	0.357781	0.469273	0.694192	-0.412157
51307	-7.484495	4.575674	0.906783	6.591012	-2.861704	-4.703488	0.330726	0.501063	0.666545	-0.441897
51308	-6.218248	-0.557817	1.149959	1.068128	-3.477439	-4.610604	0.329058	0.518347	0.655246	-0.440101
51309	-8.520377	-9.909638	0.299438	-7.714274	-4.071260	-0.077333	0.324929	0.538750	0.640078	-0.440986
51310	-8.507119	-7.523557	-1.323183	-5.486184	-2.020741	0.010913	0.304516	0.559932	0.613589	-0.466106
51311	-11.245711	-2.018887	7.999716	-1.454726	-11.554073	-2.139711	0.287754	0.573828	0.591297	-0.488146
51312	-14.060370	0.244609	5.927905	1.337543	-10.916939	0.766635	0.288802	0.572567	0.586834	-0.494355
51313	-12.584576	2.238018	-2.204333	4.951322	-3.121749	1.762115	0.287919	0.569777	0.582766	-0.502833
51314	-12.230226	0.435685	-4.196885	3.675833	-0.803907	2.565657	0.289060	0.572644	0.579804	-0.502345
51315	-10.429433	-3.058284	-4.650057	0.061806	0.914875	1.973212	0.291883	0.574676	0.576069	-0.502690
51316	-7.912605	-2.616516	-3.097053	-0.340793	0.431056	-0.938904	0.286316	0.579230	0.566637	-0.511310
51317	-6.998553	-2.471386	-0.899899	-0.939846	-1.186814	-2.491131	0.287423	0.580083	0.563101	-0.513624
51318	-8.034318	-4.920657	-4.041431	-2.263590	1.862347	0.010907	0.293705	0.579350	0.562844	-0.511173
51319	-9.034893	-3.274931	-5.212981	-0.205220	2.318863	0.869424	0.286699	0.584445	0.552613	-0.520430
51320	-9.463871	0.359625	-0.756909	2.014040	-2.648702	-0.913538	0.278137	0.589526	0.539670	-0.532781
51321	-8.553888	0.180825	-1.013571	1.784844	-2.010044	-1.627164	0.281774	0.588973	0.538770	-0.532393
51322	-8.959414	-2.584668	-2.987651	-0.124009	0.419156	-0.030760	0.287434	0.587437	0.540618	-0.529181
51323	-8.838137	-3.407436	-2.445321	-1.125009	0.223906	-0.097404	0.287642	0.588436	0.536999	-0.531636
51324	-9.687340	-2.261561	-1.586085	-0.220627	-1.076769	0.200629	0.286472	0.590384	0.532596	-0.534530
51325	-9.894635	-1.192206	-1.685056	0.822398	-1.296087	0.177712	0.287333	0.591150	0.529420	-0.536373
51326	-8.951470	-2.338215	-2.095261	-0.273480	-0.254330	-0.333960	0.293221	0.589483	0.530463	-0.533986
51327	-8.562077	-4.610179	-3.639102	-2.016065	1.928231	0.188447	0.298305	0.588801	0.530491	-0.531889
51328	-9.282506	-3.771101	-4.102421	-1.010492	1.965096	0.786011	0.296185	0.591486	0.524144	-0.536369
51329	-10.219945	-0.475455	-1.718260	1.421601	-1.333444	0.376818	0.292598	0.593886	0.515393	-0.544110
51330	-8.766967	0.502419	-2.007662	2.253610	-0.851207	-1.132903	0.297801	0.591702	0.513871	-0.545105
51331	-9.217280	-3.252715	-1.476619	-1.433885	-0.275300	-0.035889	0.309155	0.587851	0.519144	-0.537906
51332	-9.559717	-7.300515	-2.951117	-4.824626	2.173856	1.385074	0.316118	0.586313	0.515930	-0.538630
51333	-8.704622	-5.603926	-2.643291	-3.406374	1.847780	0.144022	0.311749	0.589551	0.503114	-0.549653
51334	-8.703177	-0.752272	-2.206677	1.074365	0.140385	-0.868141	0.302182	0.594602	0.487406	-0.563533
51335	-9.648124	4.027598	-1.478771	5.330498	-2.391255	-1.017110	0.295003	0.597588	0.473620	-0.575800
51336	-10.583618	4.808751	1.494567	4.919096	-5.501481	-0.707504	0.304403	0.593972	0.476565	-0.572208
51337	-9.746095	-0.756736	-1.189615	0.797866	-0.724686	-0.024376	0.324631	0.584533	0.490179	-0.559161
51338	-9.127051	-4.988073	-2.127235	-3.026536	1.629998	0.231705	0.338293	0.578165	0.496519	-0.552044
51339	-9.222072	-3.574801	-1.497828	-1.960894	0.635597	-0.023938	0.339216	0.578429	0.492778	-0.554548
51340	-9.612312	-0.355666	1.067139	0.285260	-2.707647	-0.525680	0.338663	0.579468	0.487375	-0.558560
51341	-8.929663	1.394142	0.648199	1.987235	-2.659426	-1.381746	0.343893	0.576931	0.489282	-0.556320
51342	-10.052123	0.241917	0.392983	1.087505	-2.249387	-0.065087	0.353538	0.571990	0.497060	-0.548425
51343	-9.760502	-1.878352	-0.383627	-0.767622	-0.912637	0.062547	0.362253	0.567489	0.504296	-0.540754
51344	-9.501956	-2.634980	-1.862208	-1.186087	0.691389	0.127787	0.365745	0.566331	0.506653	-0.537403
51345	-9.621246	-1.480956	-1.855448	-0.094785	0.380610	0.089353	0.363721	0.568856	0.504683	-0.537965
51346	-9.875610	0.128294	-1.283528	1.317189	-0.605847	0.040712	0.361364	0.571587	0.501834	-0.539322
51347	-9.633692	-0.261731	-1.436044	0.935190	-0.334265	-0.119788	0.363772	0.571206	0.503691	-0.536366
51348	-9.382695	-2.108985	-2.254393	-0.694194	0.908574	-0.001602	0.365962	0.570690	0.506143	-0.533108
51349	-9.424602	-1.522315	-1.177742	-0.413942	-0.287887	-0.206783	0.362736	0.573518	0.503868	-0.534431
51350	-9.029681	-0.310309	-0.207296	0.466367	-1.448312	-0.904308	0.360285	0.575576	0.502789	-0.534892
51351	-9.013096	-0.936619	-1.144099	0.095511	-0.441334	-0.690300	0.359838	0.576617	0.504630	-0.532333
51352	-9.279102	-1.691789	-1.954061	-0.417053	0.401192	-0.197750	0.357709	0.578870	0.505319	-0.530666
51353	-9.660497	-0.610507	-1.289379	0.464381	-0.633332	-0.079071	0.353184	0.582710	0.503833	-0.530908
51354	-9.537539	-0.827043	-1.921596	0.405601	-0.023464	-0.056886	0.350355	0.585712	0.503921	-0.529392
51355	-9.461819	-1.216168	-2.454743	0.164758	0.528548	0.022149	0.346266	0.589257	0.502748	-0.529263
51356	-8.941775	-0.780360	-1.986715	0.412204	0.030675	-0.628996	0.341776	0.592951	0.501205	-0.529519
51357	-8.742128	-1.952319	-2.325145	-0.625733	0.653002	-0.602674	0.338497	0.596295	0.500904	-0.528155
51358	-9.216014	-2.129076	-2.305710	-0.772822	0.512343	-0.121240	0.331529	0.601905	0.497440	-0.529484
51359	-9.072059	-1.524104	-2.193471	-0.231694	0.211976	-0.360830	0.323623	0.608161	0.492492	-0.531846
51360	-9.177635	-1.410648	-2.042970	-0.161415	-0.042282	-0.306661	0.316049	0.614026	0.487955	-0.533840
51361	-9.265159	-2.248249	-2.661509	-0.712455	0.729217	0.033224	0.310724	0.618574	0.484481	-0.534878
51362	-9.436029	-2.638080	-3.430195	-0.751911	1.487073	0.433645	0.303693	0.623426	0.479014	-0.538197
51363	-10.769149	0.094728	-1.895956	1.271558	-1.263253	0.974580	0.293742	0.628019	0.471163	-0.545265
51364	-9.177755	0.633421	-0.882288	1.316135	-1.944416	-0.874131	0.294170	0.626637	0.471503	-0.546328
51365	-9.185540	-2.080026	-2.595381	-0.443929	0.624794	-0.073643	0.301219	0.622038	0.478655	-0.541502
51366	-9.059553	-2.442890	-3.326809	-0.494320	1.448466	0.024397	0.300854	0.620450	0.478423	-0.543727
51367	-9.453790	-1.026156	-1.863795	0.296958	-0.452033	-0.137566	0.299688	0.618870	0.477479	-0.546993
51368	-9.462266	-1.224688	-2.554064	0.448374	0.264191	0.050703	0.300449	0.615891	0.479093	-0.548524
51369	-9.656759	-0.438357	-2.245115	1.118386	-0.317791	0.042938	0.300086	0.613278	0.478932	-0.551781
51370	-9.711226	-0.969528	-1.976775	0.587806	-0.335132	0.121971	0.302624	0.609297	0.481728	-0.552372
51371	-9.843540	-2.683874	-1.922505	-0.953448	0.232381	0.523234	0.305447	0.605234	0.484661	-0.552719
51372	-9.148251	-3.168776	-2.292860	-1.256067	0.947112	0.011435	0.304601	0.602746	0.483834	-0.556615
51373	-9.542870	-2.356085	-1.704976	-0.621833	0.083774	0.143717	0.302340	0.601238	0.481892	-0.561145
51374	-9.438561	-1.982596	-1.921740	-0.121233	0.224151	0.018099	0.299972	0.599727	0.479235	-0.566285
51375	-9.573077	-1.294290	-1.422901	0.396834	-0.459638	-0.067209	0.297162	0.598856	0.476554	-0.570931
51376	-9.714398	-1.240953	-0.868478	0.296058	-0.969211	-0.033303	0.296094	0.597249	0.475395	-0.574127
51377	-9.497560	-2.062898	-1.435374	-0.183092	-0.061523	0.009831	0.295640	0.595469	0.474890	-0.576622
51378	-9.526877	-1.709956	-1.377840	0.167475	-0.218650	-0.039890	0.294648	0.593940	0.473696	-0.579681
51379	-9.361218	-1.699229	-0.881629	-0.001996	-0.594699	-0.276276	0.295209	0.591677	0.473913	-0.581529
51380	-9.280475	-3.276915	-0.863603	-1.409173	0.036451	-0.033931	0.297597	0.589062	0.475876	-0.581364
51381	-9.894014	-3.461483	-1.626732	-1.153877	0.690800	0.709227	0.297306	0.587889	0.474471	-0.583843
51382	-9.858407	-0.765250	-0.352800	0.784507	-1.426641	-0.053226	0.294775	0.587657	0.470254	-0.588751
51383	-9.346710	-0.899418	0.425712	0.297075	-1.929155	-0.618058	0.299092	0.584463	0.473539	-0.587118
51384	-9.054790	-3.955897	-0.992760	-1.912459	0.568309	-0.084210	0.304442	0.580934	0.478362	-0.583952
51385	-9.172743	-2.896895	-0.718174	-1.038339	-0.087097	-0.223060	0.300560	0.582373	0.474092	-0.587998
51386	-9.476948	-0.899176	-0.102157	0.584119	-1.427592	-0.418423	0.298323	0.582669	0.471622	-0.590824
51387	-9.146806	-1.538886	-0.761274	0.255505	-0.511939	-0.523749	0.298810	0.581600	0.472825	-0.590669
51388	-9.227162	-2.529014	-1.224390	-0.416351	0.265340	-0.179838	0.298752	0.580797	0.473813	-0.590697
51389	-9.485320	-1.984250	-0.694035	-0.085596	-0.473809	-0.109166	0.296780	0.580869	0.472803	-0.592428
51390	-9.373118	-2.088141	-0.464385	-0.267044	-0.621980	-0.222426	0.296383	0.580145	0.473854	-0.592495
51391	-8.969442	-2.737893	-1.582830	-0.423015	0.710315	-0.338050	0.295151	0.579882	0.473675	-0.593511
51392	-9.033707	-2.137650	-0.562634	-0.282285	-0.447508	-0.527538	0.293496	0.580426	0.472076	-0.595071
51393	-9.437207	-3.697303	-0.393437	-1.680626	-0.072334	0.190109	0.294406	0.579964	0.473440	-0.593988
51394	-10.042663	-5.395606	-1.428950	-2.675713	1.385336	1.274735	0.295661	0.578766	0.474636	-0.593578
51395	-9.375847	-3.363511	-1.614911	-0.852704	0.924790	0.199547	0.290830	0.580770	0.469498	-0.598076
51396	-10.097898	0.402039	-0.683052	2.252117	-1.515920	-0.054331	0.286466	0.581800	0.463511	-0.603825
51397	-9.359378	-0.137734	-0.765326	1.709794	-1.050969	-0.638011	0.292306	0.578528	0.468768	-0.600099
51398	-9.900828	-3.692649	-2.387990	-0.719482	1.714818	0.859957	0.301642	0.573414	0.476606	-0.594184
51399	-9.062862	-3.407329	-2.456275	-0.600258	1.841840	-0.013428	0.300308	0.573726	0.472852	-0.597549
51400	-9.462467	-1.020422	0.495291	0.416261	-1.754695	-0.454680	0.300143	0.573442	0.469493	-0.600545
51401	-9.397743	-2.131131	-0.358694	-0.240335	-0.504529	-0.185871	0.307818	0.569257	0.474674	-0.596556
51402	-9.270142	-3.149421	-1.662764	-0.687600	1.105067	0.032365	0.311958	0.566873	0.475848	-0.595739
51403	-9.569203	-1.522426	-0.434493	0.354500	-0.619736	-0.139721	0.311101	0.567146	0.472641	-0.598475
51404	-9.290783	-0.812383	0.090057	0.755522	-1.274483	-0.604458	0.313038	0.565534	0.472698	-0.598945
51405	-9.512183	-1.987018	-0.631079	0.015394	-0.190545	-0.076592	0.316524	0.563001	0.474851	-0.597795
51406	-9.387361	-2.942336	-0.851154	-0.789822	0.394736	0.022183	0.318828	0.561241	0.475533	-0.597684
51407	-9.549617	-3.135716	-1.118811	-0.832180	0.717450	0.240782	0.319298	0.560628	0.474156	-0.599100
51408	-9.541014	-2.721749	-0.981451	-0.492961	0.493433	0.132931	0.317918	0.561214	0.470495	-0.602164
51409	-9.640233	-2.056704	-0.847687	0.096522	0.171163	0.078914	0.316571	0.561635	0.466658	-0.605458
51410	-9.459990	-1.776771	-0.711485	0.287763	0.026126	-0.165372	0.315761	0.561447	0.463155	-0.608737
51411	-9.438399	-1.784685	-0.844371	0.357681	0.215409	-0.179064	0.314854	0.561023	0.459635	-0.612255
51412	-9.653560	-1.783763	-0.785717	0.400597	0.198693	0.025504	0.314539	0.560388	0.456365	-0.615436
51413	-9.781579	-2.269789	-0.606177	-0.061941	0.280152	0.242954	0.315638	0.558949	0.454162	-0.617807
51414	-9.445221	-2.682458	-1.061899	-0.276184	0.974735	0.011181	0.316191	0.557645	0.450986	-0.621021
51415	-9.492874	-1.988430	-0.202529	0.021583	-0.005720	-0.111742	0.315700	0.557055	0.446469	-0.625051
51416	-9.509773	-2.001380	0.360099	-0.202591	-0.426517	-0.099426	0.316911	0.555601	0.443488	-0.627849
51417	-9.543015	-2.243559	-0.074714	-0.208549	0.149713	-0.012600	0.318333	0.554122	0.440367	-0.630626
51418	-9.608279	-1.968634	-0.053333	0.052945	0.099347	-0.005343	0.320638	0.552156	0.437651	-0.633069
51419	-9.643859	-1.971322	-0.553372	0.285158	0.645578	0.020798	0.323497	0.549800	0.435047	-0.635455
51420	-9.664093	-2.043671	-0.479920	0.207214	0.711488	0.048929	0.327140	0.546794	0.432777	-0.637730
51421	-9.769133	-2.230838	-0.627451	0.138164	1.030378	0.173522	0.331249	0.543357	0.430504	-0.640081
51422	-9.664049	-1.958288	-0.374727	0.272042	0.817644	0.017118	0.335521	0.539564	0.427460	-0.643097
51423	-9.474571	-1.555697	-0.226997	0.553476	0.658438	-0.247247	0.340198	0.535350	0.424343	-0.646219
51424	-9.634857	-1.533834	0.447168	0.350405	0.178676	-0.054277	0.345627	0.530598	0.421743	-0.648953
51425	-9.393690	-2.194169	1.456738	-0.670153	-0.332682	-0.085571	0.352727	0.524837	0.421119	-0.650222
51426	-9.104844	-2.490925	1.632953	-1.040257	-0.252612	-0.293124	0.358329	0.520203	0.418618	-0.652494
51427	-8.990835	-1.201123	3.010853	-0.419925	-1.903522	-0.456314	0.362122	0.516810	0.414440	-0.655755
51428	-9.350236	-0.698832	2.963481	0.151220	-1.919605	-0.169635	0.368390	0.511805	0.413598	-0.656720
51429	-9.398617	-1.895531	1.883819	-0.479309	-0.348446	-0.059539	0.375896	0.505682	0.414877	-0.656403
51430	-9.638885	-2.079907	1.639717	-0.484368	0.061423	0.171478	0.381906	0.500641	0.414648	-0.656942
51431	-9.544463	-1.592022	1.223874	0.105029	0.361613	-0.066596	0.387816	0.495567	0.413832	-0.657842
51432	-9.504625	-1.426005	1.791463	0.077924	-0.112465	-0.037165	0.394536	0.489595	0.413736	-0.658378
51433	-9.148792	-1.555923	1.934899	-0.135315	-0.127323	-0.334841	0.400870	0.483783	0.413444	-0.659030
51434	-9.419784	-1.605248	2.543188	-0.287674	-0.532697	0.056935	0.406605	0.478565	0.412859	-0.659694
51435	-9.135812	-1.663680	3.161629	-0.561484	-1.024792	-0.073057	0.411399	0.473956	0.411621	-0.660821
51436	-9.212918	-1.281813	4.015873	-0.408623	-1.837960	0.142322	0.416451	0.469178	0.411256	-0.661294
51437	-8.931916	-1.863377	3.292706	-0.766432	-0.942238	-0.188888	0.421501	0.464468	0.411692	-0.661148
51438	-9.221963	-1.390187	3.372002	-0.258756	-1.043822	0.045844	0.424774	0.461407	0.410644	-0.661848
51439	-9.443532	-1.518581	3.075362	-0.234002	-0.623077	0.212331	0.427887	0.458464	0.410574	-0.661931
51440	-9.212123	-1.433927	2.963096	-0.161272	-0.535334	-0.046087	0.429861	0.456531	0.409533	-0.662633
51441	-9.228569	-1.192272	3.110177	0.041036	-0.694954	-0.026145	0.431947	0.454477	0.409189	-0.662900
51442	-9.288437	-1.581062	2.408492	-0.117356	0.126545	-0.089223	0.434571	0.451859	0.409783	-0.662608
51443	-9.297812	-1.536612	3.002276	-0.209868	-0.402996	0.067473	0.436612	0.449816	0.409750	-0.662677
51444	-9.290068	-1.822182	3.484365	-0.588750	-0.738973	0.230904	0.438518	0.447970	0.409944	-0.662549
51445	-9.093489	-1.203701	3.834044	-0.127223	-1.257662	0.048467	0.438936	0.447618	0.408653	-0.663307
51446	-9.147735	-1.123533	3.691647	-0.000597	-1.117654	0.052527	0.440289	0.446327	0.409506	-0.662754
51447	-9.411795	-1.816116	2.500441	-0.303945	0.254964	0.085544	0.441112	0.445537	0.410034	-0.662412
51448	-9.280235	-1.119086	3.060033	0.196504	-0.488412	0.008807	0.441102	0.445533	0.409554	-0.662717
51449	-9.299892	-1.246573	3.101314	0.070311	-0.482024	0.057611	0.441326	0.445289	0.409820	-0.662568
51450	-9.218321	-1.265953	3.582151	-0.079423	-0.943261	0.112827	0.440990	0.445542	0.409594	-0.662761
51451	-9.136763	-1.647942	3.692653	-0.481169	-0.961906	0.120843	0.441322	0.445092	0.410634	-0.662199
51452	-9.109509	-1.533098	3.211681	-0.258613	-0.564218	-0.052400	0.440821	0.445421	0.410980	-0.662097
51453	-9.258368	-1.822980	3.078781	-0.466781	-0.343191	0.096087	0.440410	0.445649	0.411992	-0.661588
51454	-9.209212	-2.089948	2.800574	-0.670979	-0.032575	0.014285	0.437667	0.448300	0.409973	-0.662870
51455	-9.323308	-0.961089	3.825554	0.139698	-1.297551	0.226204	0.434429	0.451504	0.407174	-0.664549
51456	-9.125092	-1.479536	3.603019	-0.355096	-1.000038	0.051985	0.433214	0.452604	0.408255	-0.663930
51457	-8.970232	-2.237703	3.148672	-0.993816	-0.414243	-0.105620	0.430820	0.454873	0.407866	-0.664176
51458	-9.317616	-1.728834	3.174920	-0.474067	-0.550601	0.155204	0.426453	0.459268	0.405270	-0.665557
51459	-9.503574	-1.127921	3.857486	-0.100614	-1.372900	0.413504	0.422594	0.463273	0.403766	-0.666158
51460	-9.181344	-1.560419	3.644717	-0.550815	-1.150329	0.106428	0.419106	0.466955	0.403844	-0.665743
51461	-8.892467	-1.427741	3.859742	-0.589130	-1.510723	-0.149244	0.414662	0.471440	0.403368	-0.665653
51462	-9.137818	-1.403748	3.588389	-0.476601	-1.302885	0.006743	0.409515	0.476642	0.403400	-0.665115
