// General information: 
//  MT Manager version: 2021.0.0 
//  XDA version: 2021.0.0 build 5908 rev 109668 built on 2021-04-19
// Device information: 
//  DeviceId: 00B43DF5
//  ProductCode: MTW2-3A7G6
//  Firmware Version: 4.3.5
//  Hardware Version: 1.1.0
// Device settings: 
//  Filter Profile: human(46.1)
//  Option Flags: Orientation Smoother Disabled, Position/Velocity Smoother Disabled, Continuous Zero Rotation Update Disabled, AHS Disabled, ICC Disabled
// Coordinate system: ENU
PacketCounter	Acc_X	Acc_Y	Acc_Z	FreeAcc_E	FreeAcc_N	FreeAcc_U	Quat_q0	Quat_q1	Quat_q2	Quat_q3
50291	0.012143	-8.956683	3.780828	-0.116102	0.003499	-0.091397	-0.829420	0.557850	-0.010148	0.027602
50292	0.007732	-9.072834	3.700314	-0.127274	-0.111615	-0.015747	-0.829359	0.557936	-0.010229	0.027691
50293	0.019476	-9.029065	3.683340	-0.114779	-0.109021	-0.062491	-0.829305	0.558012	-0.010250	0.027745
50294	0.148790	-9.120058	3.667529	0.010681	-0.163833	0.016931	-0.829200	0.558159	-0.010401	0.027886
50295	0.044511	-9.090879	3.748841	-0.087340	-0.070481	0.020281	-0.829235	0.558092	-0.010605	0.028094
50296	0.105431	-9.000561	3.683749	-0.026334	-0.102846	-0.087465	-0.829406	0.557836	-0.010632	0.028147
50297	0.043943	-8.967209	3.688363	-0.085564	-0.088237	-0.117241	-0.829590	0.557554	-0.010809	0.028225
50298	0.016094	-8.922787	3.790204	-0.104680	0.018774	-0.118838	-0.829716	0.557357	-0.011017	0.028338
50299	0.009701	-8.863606	3.841609	-0.105335	0.086002	-0.153336	-0.829778	0.557257	-0.011094	0.028453
50300	0.028991	-8.861861	3.794957	-0.088355	0.041178	-0.172894	-0.829793	0.557229	-0.011169	0.028543
50301	0.066753	-8.935358	3.770115	-0.054298	-0.011611	-0.114452	-0.829719	0.557336	-0.011218	0.028593
50302	0.139770	-8.949506	3.695660	0.014966	-0.089743	-0.129567	-0.829768	0.557258	-0.011325	0.028630
50303	0.081879	-9.006434	3.722706	-0.042217	-0.085513	-0.067329	-0.829830	0.557157	-0.011483	0.028751
50304	0.005640	-8.975746	3.801949	-0.111893	0.000593	-0.065568	-0.829955	0.556964	-0.011613	0.028829
50305	0.065187	-8.929620	3.735544	-0.053378	-0.049892	-0.133261	-0.830037	0.556843	-0.011655	0.028805
50306	0.091870	-8.943643	3.732193	-0.026505	-0.062141	-0.121357	-0.830070	0.556792	-0.011715	0.028799
50307	0.132157	-8.974333	3.800339	0.017392	-0.016070	-0.065989	-0.830151	0.556671	-0.011789	0.028780
50308	0.054629	-8.883245	3.790701	-0.056151	0.013257	-0.154473	-0.830194	0.556604	-0.011865	0.028802
50309	0.004402	-9.013463	3.782711	-0.110626	-0.041844	-0.038361	-0.830157	0.556662	-0.011843	0.028738
50310	0.008348	-8.911372	3.799466	-0.101674	0.014024	-0.125684	-0.830142	0.556683	-0.011890	0.028747
50311	-0.017021	-8.982984	3.757840	-0.131511	-0.049998	-0.076371	-0.830125	0.556710	-0.011871	0.028742
50312	0.021384	-9.043386	3.808912	-0.092937	-0.028762	-0.000367	-0.830125	0.556706	-0.011885	0.028808
50313	-0.019458	-8.952023	3.747217	-0.134630	-0.048910	-0.109069	-0.830220	0.556562	-0.011848	0.028854
50314	0.075889	-8.938477	3.777511	-0.038613	-0.024969	-0.108585	-0.830306	0.556432	-0.011814	0.028910
50315	0.044202	-8.936138	3.772212	-0.071183	-0.029649	-0.113195	-0.830374	0.556324	-0.011874	0.029015
50316	-0.017333	-8.934936	3.847146	-0.128442	0.040836	-0.085625	-0.830453	0.556195	-0.012007	0.029170
50317	0.054991	-8.774025	3.823937	-0.052231	0.076842	-0.241878	-0.830426	0.556234	-0.011950	0.029211
50318	0.132813	-8.776654	3.837208	0.025181	0.085526	-0.233360	-0.830309	0.556408	-0.011930	0.029233
50319	0.086945	-8.907677	3.764288	-0.029443	-0.024574	-0.141976	-0.830128	0.556672	-0.011987	0.029333
50320	0.029281	-8.924856	3.845456	-0.084006	0.052801	-0.095095	-0.829971	0.556901	-0.011951	0.029447
50321	0.017409	-8.998079	3.782600	-0.103242	-0.027652	-0.052444	-0.829834	0.557093	-0.012016	0.029648
50322	-0.008443	-9.013766	3.799531	-0.129539	-0.012574	-0.031709	-0.829737	0.557225	-0.012084	0.029824
50323	0.024280	-8.984311	3.732675	-0.100158	-0.061927	-0.084510	-0.829670	0.557320	-0.012114	0.029931
50324	0.079150	-8.985014	3.706763	-0.047632	-0.088235	-0.093285	-0.829656	0.557336	-0.012108	0.030007
50325	0.047096	-8.971390	3.772662	-0.075684	-0.018958	-0.080527	-0.829588	0.557427	-0.012238	0.030162
50326	0.044748	-8.940055	3.684079	-0.081773	-0.086880	-0.143934	-0.829584	0.557434	-0.012200	0.030146
50327	0.123175	-8.986053	3.712997	-0.003423	-0.083220	-0.089328	-0.829578	0.557433	-0.012333	0.030265
50328	0.010154	-9.057803	3.763159	-0.114745	-0.057550	-0.005099	-0.829576	0.557428	-0.012503	0.030354
50329	-0.028115	-9.069056	3.650516	-0.158921	-0.161970	-0.039083	-0.829519	0.557513	-0.012488	0.030359
50330	0.061517	-9.087332	3.737778	-0.064588	-0.094807	0.012852	-0.829571	0.557426	-0.012650	0.030449
50331	0.083418	-9.013957	3.783709	-0.035986	-0.028898	-0.036558	-0.829699	0.557230	-0.012779	0.030508
50332	-0.027856	-8.876779	3.753655	-0.142257	-0.000467	-0.175900	-0.829835	0.557026	-0.012866	0.030487
50333	0.028051	-8.830810	3.672239	-0.087127	-0.063991	-0.249338	-0.829859	0.556989	-0.013040	0.030449
50334	-0.061235	-8.889484	3.777422	-0.169183	0.015595	-0.155217	-0.829840	0.557015	-0.013214	0.030417
50335	-0.018446	-9.007590	3.796632	-0.127162	-0.016217	-0.038486	-0.829888	0.556939	-0.013344	0.030430
50336	-0.079972	-8.946528	3.797029	-0.184566	0.010156	-0.095177	-0.829943	0.556853	-0.013464	0.030457
50337	-0.023549	-8.931642	3.789405	-0.127579	0.002707	-0.111239	-0.830025	0.556731	-0.013457	0.030473
50338	0.029875	-8.960685	3.765654	-0.076784	-0.035526	-0.093235	-0.830028	0.556725	-0.013468	0.030468
50339	0.075624	-8.917546	3.773645	-0.028663	-0.014563	-0.129315	-0.830030	0.556724	-0.013493	0.030443
50340	0.073005	-8.946115	3.774766	-0.031047	-0.025505	-0.102613	-0.830083	0.556641	-0.013606	0.030445
50341	0.083079	-8.916066	3.759903	-0.019275	-0.029084	-0.135974	-0.830081	0.556645	-0.013667	0.030418
50342	0.029274	-9.045511	3.738575	-0.077493	-0.096722	-0.025772	-0.830149	0.556540	-0.013780	0.030444
50343	0.046579	-9.061426	3.841863	-0.054144	-0.011465	0.029490	-0.830201	0.556458	-0.013803	0.030494
50344	0.024769	-8.912378	3.792198	-0.074324	0.001143	-0.127320	-0.830231	0.556414	-0.013727	0.030519
50345	0.103035	-8.897700	3.734547	0.000395	-0.052174	-0.162621	-0.830248	0.556388	-0.013751	0.030508
50346	0.085850	-8.853105	3.723879	-0.015303	-0.042625	-0.207998	-0.830187	0.556481	-0.013754	0.030476
50347	0.063925	-8.956871	3.783832	-0.036296	-0.024561	-0.089257	-0.830129	0.556565	-0.013872	0.030496
50348	0.032917	-8.914409	3.863506	-0.059079	0.069535	-0.097435	-0.830049	0.556676	-0.014040	0.030559
50349	-0.151121	-8.781536	3.988759	-0.229027	0.251779	-0.172534	-0.829956	0.556803	-0.014175	0.030700
50350	-0.033790	-8.898334	3.751588	-0.130367	-0.014911	-0.156669	-0.829779	0.557079	-0.014009	0.030568
50351	0.046305	-9.018413	3.714628	-0.056530	-0.095984	-0.059741	-0.829671	0.557244	-0.014037	0.030452
50352	0.098803	-9.005087	3.688420	-0.003067	-0.116326	-0.081693	-0.829661	0.557272	-0.014032	0.030222
50353	0.086006	-9.019996	3.720124	-0.011676	-0.091896	-0.055717	-0.829660	0.557274	-0.014172	0.030139
50354	-0.003858	-9.017694	3.737730	-0.097413	-0.069338	-0.051788	-0.829693	0.557230	-0.014246	0.030023
50355	0.084114	-9.061810	3.676696	-0.012040	-0.150029	-0.034195	-0.829747	0.557158	-0.014316	0.029848
50356	0.062421	-9.134936	3.755786	-0.027788	-0.107063	0.063782	-0.829847	0.557013	-0.014485	0.029683
50357	0.059893	-9.043653	3.687776	-0.026581	-0.138510	-0.046877	-0.830009	0.556780	-0.014639	0.029456
50358	0.134101	-9.075436	3.810827	0.059616	-0.047674	0.030996	-0.830119	0.556627	-0.014859	0.029124
50359	0.149414	-9.206115	3.807537	0.079306	-0.107292	0.149963	-0.830253	0.556421	-0.015405	0.028967
50360	0.010602	-9.328140	3.642430	-0.060513	-0.305856	0.196527	-0.830568	0.555936	-0.016180	0.028799
50361	-0.013554	-9.232621	3.524956	-0.073434	-0.388940	0.062032	-0.831013	0.555252	-0.017135	0.028637
50362	-0.074282	-9.147232	3.392583	-0.122678	-0.496604	-0.069730	-0.831883	0.553927	-0.018143	0.028399
50363	-0.243925	-8.867755	3.361703	-0.270230	-0.430340	-0.339602	-0.832584	0.552875	-0.018780	0.027931
50364	-0.177788	-9.054428	3.786195	-0.169302	-0.148761	0.000501	-0.833446	0.551588	-0.019169	0.027392
50365	0.032001	-9.122018	3.851443	0.056059	-0.166757	0.087552	-0.834561	0.549869	-0.020169	0.027306
50366	-0.802145	-9.057769	3.608955	-0.769724	-0.350917	-0.066136	-0.836070	0.547436	-0.022515	0.028187
50367	-1.409928	-8.924758	3.713980	-1.343030	-0.209462	-0.138755	-0.837619	0.544960	-0.024231	0.028747
50368	-1.083579	-8.641278	3.288278	-1.028211	-0.557846	-0.577434	-0.839317	0.542294	-0.025124	0.028870
50369	-1.091421	-8.673668	3.578243	-1.004236	-0.366918	-0.427374	-0.841015	0.539581	-0.026290	0.029247
50370	-0.949007	-8.585393	4.110595	-0.810180	0.078636	-0.281493	-0.842775	0.536748	-0.027209	0.029867
50371	-1.068325	-8.497467	3.921548	-0.927477	-0.114712	-0.439704	-0.845108	0.532838	-0.029887	0.031346
50372	-2.255716	-8.463481	4.124343	-2.063098	0.107397	-0.354332	-0.847354	0.528983	-0.033104	0.032742
50373	-2.116796	-8.314681	4.402536	-1.873173	0.324016	-0.358455	-0.850010	0.524687	-0.033787	0.032318
50374	-1.231116	-7.930772	4.446749	-0.970698	0.366743	-0.696274	-0.852425	0.520797	-0.033958	0.031449
50375	-0.997526	-8.578603	4.492131	-0.736199	-0.002043	-0.105777	-0.854679	0.517077	-0.034667	0.030870
50376	-1.523078	-8.578485	4.733574	-1.221166	0.153616	0.026051	-0.857847	0.511726	-0.035935	0.030727
50377	-1.737249	-8.396974	5.904926	-1.310927	1.163447	0.449971	-0.860588	0.507146	-0.035895	0.030048
50378	-1.281203	-8.706372	5.087986	-0.949807	0.167893	0.306557	-0.862547	0.504092	-0.033592	0.027837
50379	-0.498014	-8.414197	5.297267	-0.170914	0.350777	0.134922	-0.864586	0.500853	-0.031178	0.025816
50380	0.182913	-8.512133	5.182146	0.473182	0.089062	0.142837	-0.865855	0.498904	-0.028827	0.023628
50381	0.576777	-8.903624	4.170088	0.780540	-1.050912	-0.051388	-0.867145	0.496777	-0.028351	0.021662
50382	-0.376547	-9.322530	4.411766	-0.128916	-1.082458	0.450119	-0.870109	0.491484	-0.030438	0.020675
50383	-0.956886	-7.872185	5.937323	-0.557455	0.886050	0.038275	-0.873277	0.485918	-0.030246	0.018839
50384	0.044462	-7.395625	6.060560	0.442615	1.078917	-0.322319	-0.875396	0.482336	-0.027757	0.016204
50385	0.825257	-7.670701	4.958098	1.127356	-0.090611	-0.711907	-0.876396	0.480699	-0.025719	0.014057
50386	0.626683	-7.960115	5.453396	0.963130	0.131356	-0.192371	-0.877814	0.478079	-0.026637	0.013174
50387	0.054980	-8.002281	4.213388	0.329252	-0.948993	-0.824755	-0.879240	0.475543	-0.025795	0.011433
50388	-0.363721	-7.429967	5.918369	0.015759	0.722084	-0.334232	-0.881954	0.470471	-0.026317	0.011041
50389	-0.151322	-7.295072	6.427686	0.259909	1.123041	-0.157273	-0.883443	0.467742	-0.025571	0.009602
50390	0.261095	-6.973686	6.067593	0.649858	0.955943	-0.637723	-0.883944	0.466844	-0.025240	0.007922
50391	0.733109	-7.335144	5.503043	1.095010	0.275060	-0.683038	-0.883308	0.468147	-0.023938	0.005693
50392	0.830498	-7.849221	5.053010	1.169862	-0.350442	-0.520685	-0.882245	0.470262	-0.022024	0.003433
50393	0.814650	-9.018793	5.012010	1.162744	-1.012767	0.421804	-0.881850	0.471046	-0.021220	0.002511
50394	-0.035734	-9.805301	5.445146	0.340309	-1.126917	1.341142	-0.884294	0.466462	-0.020800	0.002000
50395	0.215931	-7.498342	5.947843	0.568828	0.531078	-0.271047	-0.885084	0.464998	-0.019999	0.001845
50396	0.142088	-7.292193	6.067966	0.478700	0.732450	-0.365423	-0.885211	0.464808	-0.018724	0.001953
50397	0.365066	-7.502835	5.752579	0.659278	0.376171	-0.381813	-0.883842	0.467511	-0.015956	0.001575
50398	0.662135	-7.874416	5.954564	0.923245	0.398254	0.030577	-0.881746	0.471530	-0.013484	0.001666
50399	0.685087	-8.300672	5.282786	0.893178	-0.311324	0.004798	-0.879872	0.475067	-0.011584	0.001790
50400	0.340472	-8.072777	5.651697	0.539901	0.205168	0.030751	-0.878008	0.478480	-0.012242	0.003033
50401	0.171106	-7.330004	5.290066	0.352935	0.382261	-0.786498	-0.876565	0.481125	-0.011919	0.003420
50402	0.504925	-6.987586	4.882381	0.668902	0.285462	-1.304479	-0.874505	0.484854	-0.011922	0.003824
50403	0.645923	-7.120829	5.085830	0.812731	0.463426	-1.088404	-0.871928	0.489465	-0.012025	0.004650
50404	0.402509	-7.939914	5.259406	0.572735	0.285302	-0.301903	-0.868825	0.494932	-0.012304	0.005833
50405	0.525531	-9.147975	5.010788	0.679464	-0.454021	0.598898	-0.866669	0.498716	-0.011430	0.006115
50406	0.337982	-9.660330	5.742026	0.504947	-0.017885	1.419037	-0.865694	0.500396	-0.011663	0.006401
50407	-0.763404	-9.234150	5.661184	-0.596598	0.178952	1.027671	-0.865682	0.500416	-0.011742	0.006368
50408	-1.071767	-8.482993	5.732547	-0.899639	0.638487	0.422298	-0.865303	0.501076	-0.011763	0.005883
50409	-0.480532	-8.104221	5.302085	-0.311984	0.485133	-0.133411	-0.863668	0.503882	-0.012278	0.005401
50410	-0.268382	-8.307570	4.510558	-0.113220	-0.244337	-0.359643	-0.862040	0.506679	-0.011952	0.004518
50411	-0.031473	-8.544885	4.567406	0.131649	-0.266492	-0.128228	-0.860917	0.508579	-0.012244	0.004358
50412	-0.044759	-8.511487	4.556268	0.123078	-0.231435	-0.161870	-0.860566	0.509171	-0.012386	0.004259
50413	-0.109685	-8.360639	4.554369	0.060792	-0.153933	-0.292856	-0.860735	0.508888	-0.012375	0.003896
50414	-0.310408	-8.674615	4.918660	-0.123804	0.003482	0.163442	-0.861026	0.508401	-0.012339	0.003317
50415	-0.474340	-8.537743	4.901156	-0.287149	0.038999	0.038979	-0.861758	0.507175	-0.011858	0.002606
50416	-0.371026	-8.527861	5.099307	-0.186485	0.187948	0.126872	-0.862350	0.506199	-0.010604	0.001773
50417	-0.128297	-8.409735	5.004900	0.034318	0.132591	-0.026461	-0.863240	0.504714	-0.008936	0.001292
50418	0.003770	-8.211370	5.019218	0.137992	0.214095	-0.192180	-0.863872	0.503660	-0.007112	0.001281
50419	-0.170963	-8.176933	4.990747	-0.067284	0.189790	-0.233628	-0.864266	0.503000	-0.005618	0.001721
50420	-0.452399	-8.086131	4.926449	-0.378637	0.175142	-0.342420	-0.864299	0.502957	-0.004137	0.002153
50421	-0.482105	-8.131768	4.898150	-0.435241	0.130393	-0.318297	-0.864130	0.503257	-0.002705	0.002263
50422	-0.265669	-8.183608	4.838326	-0.242623	0.056516	-0.305357	-0.863975	0.503530	-0.001165	0.001875
50423	0.036456	-8.297165	4.671049	0.039710	-0.141206	-0.292108	-0.863812	0.503812	0.000029	0.001458
50424	0.012472	-8.376262	4.745071	0.004752	-0.112898	-0.186429	-0.863766	0.503890	0.000453	0.001429
50425	-0.089044	-8.426706	4.761270	-0.102590	-0.123268	-0.134812	-0.863781	0.503865	0.000688	0.001514
50426	-0.237496	-8.246585	4.826842	-0.252703	0.023783	-0.257765	-0.863808	0.503818	0.000684	0.001531
50427	-0.264036	-8.349740	4.825342	-0.277735	-0.025612	-0.169348	-0.863587	0.504199	0.000569	0.001337
50428	-0.221849	-8.369518	4.960620	-0.231190	0.089482	-0.084155	-0.863375	0.504561	0.000540	0.000940
50429	-0.242645	-8.351364	4.879603	-0.247479	0.037366	-0.140457	-0.863122	0.504994	0.000438	0.000605
50430	-0.268302	-8.251532	4.743665	-0.268532	-0.018536	-0.294828	-0.862752	0.505627	0.000358	0.000275
50431	-0.254028	-8.299235	4.775276	-0.247410	0.000098	-0.237519	-0.862320	0.506364	-0.000084	0.000082
50432	-0.190771	-8.375420	4.719475	-0.173745	-0.069730	-0.199030	-0.861876	0.507119	-0.000661	-0.000162
50433	-0.190826	-8.474117	4.545963	-0.160855	-0.254768	-0.199049	-0.861552	0.507667	-0.001414	-0.000415
50434	-0.370973	-8.468541	4.802233	-0.323997	-0.017625	-0.075648	-0.861286	0.508115	-0.002286	-0.000654
50435	-0.489032	-8.389002	4.700044	-0.428574	-0.050856	-0.194028	-0.860709	0.509088	-0.002648	-0.001228
50436	-0.382494	-8.771056	4.617335	-0.310053	-0.281186	0.098023	-0.859704	0.510782	-0.002804	-0.001886
50437	-0.288713	-9.074831	4.561242	-0.208187	-0.449222	0.335990	-0.859176	0.511667	-0.002480	-0.002691
50438	-0.227545	-8.921940	4.565265	-0.145323	-0.355962	0.204628	-0.858914	0.512105	-0.002186	-0.003340
50439	-0.072590	-8.807358	4.538042	0.011511	-0.312382	0.090389	-0.858580	0.512661	-0.002076	-0.003856
50440	-0.018906	-8.666450	4.397965	0.067915	-0.355845	-0.100913	-0.858363	0.513020	-0.002092	-0.004286
50441	-0.159987	-8.678550	4.336778	-0.068228	-0.409855	-0.118471	-0.858267	0.513177	-0.002070	-0.004792
50442	-0.205742	-8.704652	4.498608	-0.107923	-0.278996	-0.016705	-0.858244	0.513210	-0.002161	-0.005242
50443	-0.212756	-8.700580	4.682601	-0.110351	-0.117707	0.068915	-0.858341	0.513043	-0.001976	-0.005811
50444	-0.118004	-8.680663	4.645459	-0.013263	-0.143102	0.032488	-0.858396	0.512946	-0.001794	-0.006334
50445	-0.152774	-8.665561	4.761337	-0.046371	-0.037170	0.075795	-0.858463	0.512829	-0.001648	-0.006729
50446	-0.171573	-8.514744	4.758608	-0.065834	0.029164	-0.057204	-0.858612	0.512576	-0.001559	-0.006987
50447	-0.263213	-8.481900	4.693200	-0.156493	-0.018129	-0.116646	-0.858736	0.512366	-0.001562	-0.007127
50448	-0.296947	-8.568904	4.666247	-0.187649	-0.087437	-0.053317	-0.858776	0.512297	-0.001554	-0.007251
50449	-0.302370	-8.601322	4.613570	-0.190030	-0.153562	-0.050542	-0.858958	0.511990	-0.001704	-0.007373
50450	-0.207037	-8.501978	4.619049	-0.091825	-0.107434	-0.135801	-0.859189	0.511600	-0.001945	-0.007457
50451	-0.241994	-8.500672	4.573468	-0.120650	-0.154779	-0.158772	-0.859378	0.511281	-0.002424	-0.007390
50452	-0.266051	-8.610039	4.760076	-0.134399	-0.052924	0.028095	-0.859589	0.510925	-0.003118	-0.007260
50453	-0.367768	-8.605685	5.160169	-0.221411	0.297477	0.221398	-0.859402	0.511235	-0.004362	-0.006955
50454	-0.322967	-8.689805	5.167116	-0.149072	0.277412	0.297545	-0.858870	0.512111	-0.006498	-0.006530
50455	-0.319360	-8.770765	4.776857	-0.107456	-0.076507	0.178760	-0.858075	0.513401	-0.009744	-0.005536
50456	-0.575911	-8.955084	4.565685	-0.320936	-0.329925	0.245081	-0.857884	0.513666	-0.012670	-0.004612
50457	-0.512706	-8.901849	4.885182	-0.211354	-0.026334	0.352216	-0.858171	0.513113	-0.015546	-0.003948
50458	-0.320802	-8.889503	4.785727	0.013839	-0.139303	0.287287	-0.859375	0.511033	-0.017537	-0.003498
50459	-0.239978	-8.548647	4.666829	0.107161	-0.133478	-0.071714	-0.861012	0.508216	-0.019153	-0.002753
50460	-0.803559	-8.375719	5.053866	-0.430300	0.248183	-0.009981	-0.861976	0.506518	-0.020874	-0.001303
50461	-0.764624	-8.190181	4.917216	-0.392755	0.193607	-0.239237	-0.862523	0.505554	-0.021653	0.000004
50462	-0.675852	-8.060970	4.766039	-0.315518	0.110863	-0.429762	-0.862801	0.505056	-0.022163	0.001520
50463	-0.715037	-8.153353	4.806391	-0.362153	0.094834	-0.328507	-0.862906	0.504872	-0.022085	0.003082
50464	-0.697808	-8.079009	4.681886	-0.370505	0.023245	-0.456432	-0.862916	0.504868	-0.021548	0.004472
50465	-0.562861	-8.273691	4.754837	-0.252975	-0.014975	-0.256799	-0.862956	0.504814	-0.020875	0.005854
50466	-0.336952	-8.505945	4.680460	-0.054102	-0.204241	-0.100498	-0.863033	0.504697	-0.020062	0.007222
50467	-0.274673	-8.516541	4.726012	-0.016942	-0.177318	-0.070495	-0.863261	0.504311	-0.019380	0.008743
50468	-0.380955	-8.370998	4.839270	-0.145097	-0.012892	-0.137152	-0.863616	0.503695	-0.018765	0.010325
50469	-0.414722	-8.281859	4.886722	-0.204889	0.060827	-0.190034	-0.864012	0.503020	-0.017766	0.011719
50470	-0.372865	-8.079033	4.949798	-0.189596	0.205516	-0.334711	-0.864214	0.502672	-0.016787	0.013154
50471	-0.285549	-8.171680	4.829388	-0.137721	0.052289	-0.317473	-0.864006	0.503022	-0.015815	0.014574
50472	-0.154185	-8.385490	4.988480	-0.029852	0.087646	-0.054793	-0.863641	0.503633	-0.014965	0.015936
50473	-0.179176	-8.661674	4.913490	-0.086752	-0.102847	0.146275	-0.863405	0.504002	-0.014496	0.017406
50474	-0.249964	-8.273684	4.953428	-0.172178	0.145630	-0.168941	-0.862830	0.504946	-0.013980	0.018921
50475	-0.098516	-8.502240	4.902947	-0.051622	0.003927	0.002296	-0.862193	0.506006	-0.013185	0.020204
50476	-0.034298	-8.567375	4.709417	-0.021371	-0.167246	-0.037662	-0.861176	0.507691	-0.012652	0.021564
50477	-0.012660	-8.857315	4.613770	-0.032240	-0.355383	0.167872	-0.860155	0.509358	-0.012398	0.023120
50478	-0.001063	-8.667819	4.875213	-0.019274	0.005368	0.132071	-0.859038	0.511157	-0.012599	0.024770
50479	0.060461	-8.603265	4.409279	0.009117	-0.320541	-0.150471	-0.857378	0.513883	-0.012480	0.025931
50480	0.107807	-8.552409	4.265994	0.039735	-0.360483	-0.261659	-0.855595	0.516794	-0.012411	0.026955
50481	0.033995	-8.705728	4.583050	-0.034211	-0.088895	0.025292	-0.854064	0.519290	-0.012037	0.027724
50482	0.178749	-8.677888	4.403737	0.091351	-0.172569	-0.081710	-0.851858	0.522874	-0.011739	0.028348
50483	0.160918	-8.973370	4.161751	0.043018	-0.442090	0.070108	-0.849758	0.526217	-0.011961	0.029391
50484	0.106832	-8.807910	4.166974	-0.012563	-0.279704	-0.072284	-0.847589	0.529669	-0.011630	0.030125
50485	0.275478	-8.607217	3.905166	0.139574	-0.353184	-0.364639	-0.845286	0.533339	-0.011010	0.030337
50486	0.192250	-8.649454	4.153534	0.064132	-0.068454	-0.216194	-0.843353	0.536365	-0.011220	0.030698
50487	0.099503	-8.686949	4.225603	-0.023425	0.059148	-0.152244	-0.841190	0.539733	-0.011435	0.030946
50488	-0.025449	-8.711560	4.286115	-0.141852	0.186679	-0.106643	-0.839147	0.542901	-0.011557	0.030941
50489	-0.081286	-8.658656	4.062775	-0.202891	0.086580	-0.250475	-0.836890	0.546380	-0.011634	0.030815
50490	0.070108	-8.829051	3.920702	-0.066677	-0.042533	-0.152347	-0.834615	0.549910	-0.010621	0.030063
50491	0.135390	-9.020471	4.080585	-0.008840	0.099227	0.088223	-0.832596	0.553010	-0.009512	0.029551
50492	0.083266	-8.957876	3.958123	-0.077532	0.084144	-0.019640	-0.830808	0.555715	-0.008409	0.029464
50493	-0.077878	-8.932044	3.819669	-0.258978	0.037740	-0.101427	-0.829167	0.558172	-0.007436	0.029519
50494	-0.017670	-8.790965	3.738897	-0.212864	0.065427	-0.262244	-0.827887	0.560093	-0.006146	0.029337
50495	-0.103650	-8.881383	3.851684	-0.315234	0.186555	-0.138454	-0.826478	0.562192	-0.004834	0.029176
50496	0.054333	-8.883787	3.666892	-0.186244	0.050168	-0.203663	-0.825363	0.563869	-0.002931	0.028616
50497	0.005679	-8.897537	3.787162	-0.255214	0.192981	-0.147994	-0.824545	0.565111	-0.000779	0.027818
50498	-0.141515	-8.687271	3.912740	-0.415408	0.421102	-0.302259	-0.823839	0.566185	0.001629	0.026850
50499	0.344645	-8.657172	3.784979	0.037963	0.312305	-0.363222	-0.823410	0.566855	0.004438	0.025516
50500	0.619094	-8.560029	3.662609	0.286223	0.237427	-0.488862	-0.823166	0.567238	0.006759	0.024359
50501	0.701710	-8.484032	3.463507	0.348694	0.086278	-0.629114	-0.823012	0.567471	0.008273	0.023665
50502	0.534791	-8.769985	3.277923	0.151837	-0.177662	-0.437785	-0.822749	0.567851	0.009263	0.023325
50503	0.345836	-9.056215	3.609163	-0.054672	0.038002	-0.057880	-0.822643	0.567997	0.009512	0.023402
50504	0.633832	-8.924856	3.393372	0.231777	-0.117584	-0.247009	-0.822409	0.568329	0.009802	0.023465
50505	0.661211	-9.176444	3.372001	0.242366	-0.221466	-0.019479	-0.822131	0.568718	0.009760	0.023775
50506	0.382032	-9.214688	3.778198	-0.036148	0.155932	0.152532	-0.822108	0.568730	0.009537	0.024379
50507	0.327207	-8.943561	3.575008	-0.084423	0.068939	-0.176135	-0.821989	0.568874	0.009503	0.025007
50508	0.499249	-8.768373	3.431501	0.087646	0.001550	-0.383949	-0.821591	0.569428	0.009704	0.025420
50509	0.457337	-9.093980	3.419562	0.022102	-0.113155	-0.086963	-0.821204	0.569968	0.009800	0.025762
50510	0.269364	-9.436367	3.562795	-0.187387	-0.086844	0.275346	-0.820992	0.570249	0.009753	0.026348
50511	0.363028	-9.294086	3.215713	-0.098359	-0.359310	0.021633	-0.821009	0.570202	0.009970	0.026713
50512	0.461403	-9.254718	3.283241	-0.004294	-0.280917	0.013981	-0.820706	0.570620	0.010190	0.027030
50513	0.449896	-9.355484	3.204370	-0.029244	-0.385089	0.079043	-0.820697	0.570618	0.010387	0.027281
50514	0.540274	-9.429176	3.180872	0.050255	-0.434131	0.143627	-0.820554	0.570809	0.010657	0.027448
50515	0.443256	-9.475785	3.325528	-0.053763	-0.314303	0.234423	-0.820792	0.570453	0.010955	0.027636
50516	0.442628	-9.266180	3.297645	-0.050450	-0.272050	0.028852	-0.820958	0.570203	0.011461	0.027661
50517	0.481482	-9.176226	3.315135	-0.013131	-0.230784	-0.046848	-0.821149	0.569920	0.011800	0.027671
50518	0.444572	-9.254983	3.600897	-0.056461	0.000506	0.127917	-0.821419	0.569522	0.012130	0.027703
50519	0.511370	-8.927617	3.545996	0.022646	0.057735	-0.193224	-0.821600	0.569255	0.012592	0.027638
50520	0.681156	-8.908470	3.422517	0.187063	-0.059833	-0.247132	-0.821652	0.569174	0.012730	0.027679
50521	0.391337	-8.778633	3.600960	-0.092801	0.161936	-0.317972	-0.821656	0.569163	0.012486	0.027897
50522	0.444380	-9.116164	3.575597	-0.060176	0.016980	-0.010499	-0.821489	0.569403	0.012530	0.027922
50523	0.456487	-9.040617	3.500078	-0.044442	-0.025579	-0.107583	-0.821597	0.569239	0.012292	0.028168
50524	0.329012	-8.983251	3.608571	-0.165868	0.098866	-0.128084	-0.821578	0.569258	0.012058	0.028441
50525	0.398284	-9.055857	3.591921	-0.100624	0.053446	-0.063016	-0.821657	0.569140	0.011905	0.028597
50526	0.387045	-8.994179	3.555429	-0.107464	0.038275	-0.134200	-0.821799	0.568931	0.011681	0.028765
50527	0.353222	-9.039589	3.686780	-0.140568	0.140372	-0.045814	-0.821939	0.568725	0.011504	0.028911
50528	0.440266	-9.019506	3.552306	-0.053976	0.014546	-0.109024	-0.822071	0.568532	0.011472	0.028955
50529	0.422651	-9.115397	3.424601	-0.078462	-0.145155	-0.067445	-0.822320	0.568170	0.011244	0.029096
50530	0.465737	-8.909590	3.503789	-0.019148	-0.006230	-0.227603	-0.822543	0.567850	0.011029	0.029101
50531	0.648552	-8.922701	3.483215	0.167277	-0.044161	-0.213830	-0.822741	0.567576	0.010645	0.029005
50532	0.523058	-8.832441	3.502407	0.055765	0.006484	-0.296948	-0.822831	0.567458	0.010082	0.028982
50533	0.218925	-8.937118	3.733479	-0.241142	0.192320	-0.129520	-0.822877	0.567399	0.009551	0.028989
50534	0.371228	-8.949540	3.577741	-0.085545	0.037284	-0.167813	-0.822816	0.567497	0.009239	0.028902
50535	0.388757	-8.978476	3.557393	-0.063272	0.006710	-0.147536	-0.822892	0.567389	0.008652	0.029044
50536	0.240311	-8.905520	3.668243	-0.197873	0.140350	-0.181323	-0.822926	0.567340	0.008164	0.029169
50537	0.263408	-8.891327	3.662092	-0.169073	0.139909	-0.195628	-0.822826	0.567487	0.007921	0.029193
50538	0.396073	-8.935618	3.536742	-0.037087	0.006592	-0.194514	-0.822635	0.567773	0.007610	0.029113
50539	0.295361	-8.994884	3.520569	-0.133946	-0.019992	-0.149808	-0.822474	0.568016	0.007099	0.029056
50540	0.248983	-9.129231	3.550313	-0.179696	-0.033656	-0.015946	-0.822300	0.568276	0.006791	0.028979
50541	0.269525	-9.187142	3.465132	-0.158958	-0.131224	0.007744	-0.822260	0.568334	0.006431	0.029055
50542	0.251583	-8.910703	3.536233	-0.154601	0.037198	-0.223966	-0.822241	0.568365	0.006078	0.029053
50543	0.411719	-9.058928	3.479498	0.001432	-0.074428	-0.100064	-0.822141	0.568517	0.005782	0.028959
50544	0.403354	-9.089004	3.477528	-0.001281	-0.084845	-0.073146	-0.822116	0.568557	0.005199	0.029002
50545	0.261557	-9.001307	3.553935	-0.127479	0.024845	-0.132526	-0.822098	0.568585	0.004637	0.029049
50546	0.286074	-8.988584	3.560212	-0.095232	0.037431	-0.141022	-0.821921	0.568849	0.004373	0.028954
50547	0.411623	-9.122357	3.478912	0.026579	-0.087370	-0.041234	-0.821799	0.569028	0.003996	0.028947
50548	0.296711	-9.108571	3.529782	-0.079828	-0.026271	-0.039950	-0.821695	0.569167	0.003409	0.029247
50549	0.251648	-9.109359	3.551486	-0.119672	-0.001624	-0.032990	-0.821625	0.569259	0.003099	0.029433
50550	0.328431	-9.095749	3.502945	-0.040841	-0.042287	-0.060371	-0.821492	0.569444	0.002802	0.029608
50551	0.262772	-9.038837	3.560383	-0.098091	0.038245	-0.094927	-0.821411	0.569551	0.002385	0.029835
50552	0.288098	-8.996473	3.552983	-0.067167	0.049183	-0.136103	-0.821256	0.569770	0.002136	0.029924
50553	0.319976	-9.100445	3.507422	-0.039319	-0.026324	-0.054601	-0.821048	0.570063	0.001874	0.030076
50554	0.317862	-9.134234	3.575793	-0.039199	0.031971	0.001537	-0.820853	0.570333	0.001682	0.030294
50555	0.331884	-8.977032	3.633923	-0.014657	0.147565	-0.123485	-0.820703	0.570539	0.001551	0.030496
50556	0.278316	-9.006210	3.594053	-0.070228	0.108726	-0.112701	-0.820477	0.570849	0.001287	0.030763
50557	0.198440	-9.207078	3.432624	-0.165654	-0.102490	0.013534	-0.820270	0.571134	0.001169	0.031007
50558	0.238815	-9.269137	3.479257	-0.128437	-0.079181	0.089655	-0.820229	0.571179	0.001121	0.031268
50559	0.364890	-9.242137	3.501068	-0.003085	-0.056092	0.076932	-0.820277	0.571096	0.001127	0.031533
50560	0.208212	-9.074837	3.453825	-0.154656	-0.035425	-0.101882	-0.820408	0.570891	0.001016	0.031839
50561	0.224670	-9.159346	3.391679	-0.146792	-0.127704	-0.044897	-0.820457	0.570813	0.001031	0.031967
50562	0.306791	-9.116254	3.425353	-0.062997	-0.088321	-0.069922	-0.820584	0.570628	0.001102	0.032005
50563	0.364103	-9.144337	3.417418	-0.008885	-0.112849	-0.044505	-0.820692	0.570471	0.001136	0.032026
50564	0.307880	-9.054156	3.436591	-0.060009	-0.063678	-0.123775	-0.820821	0.570284	0.001128	0.032059
50565	0.303075	-8.982729	3.564420	-0.056549	0.077003	-0.144325	-0.820946	0.570103	0.001115	0.032084
50566	0.345162	-8.997015	3.557302	-0.015597	0.061688	-0.131997	-0.820896	0.570174	0.001100	0.032095
50567	0.273149	-9.010963	3.571297	-0.088317	0.074708	-0.116665	-0.820877	0.570197	0.001129	0.032181
50568	0.261649	-9.082347	3.511203	-0.107821	-0.004782	-0.072339	-0.820804	0.570296	0.001225	0.032274
50569	0.265258	-8.994267	3.514359	-0.102091	0.030175	-0.153154	-0.820843	0.570236	0.001385	0.032321
50570	0.283569	-9.068055	3.523474	-0.090394	0.012342	-0.080444	-0.820737	0.570384	0.001495	0.032404
50571	0.271949	-9.055939	3.600384	-0.101384	0.091257	-0.064449	-0.820710	0.570419	0.001644	0.032469
50572	0.323694	-9.022916	3.473026	-0.056016	-0.018458	-0.139207	-0.820748	0.570363	0.001883	0.032483
50573	0.276195	-9.140046	3.526284	-0.111771	-0.009463	-0.012747	-0.820780	0.570312	0.002044	0.032557
50574	0.359895	-9.121460	3.409485	-0.035632	-0.118877	-0.068985	-0.820917	0.570114	0.002359	0.032559
50575	0.436660	-9.179463	3.411561	0.033946	-0.145162	-0.011170	-0.820980	0.570021	0.002491	0.032586
50576	0.260614	-9.084865	3.351600	-0.140362	-0.162625	-0.128176	-0.821210	0.569693	0.002632	0.032500
50577	0.405500	-9.231267	3.337113	-0.006120	-0.240506	0.008675	-0.821232	0.569675	0.002913	0.032254
50578	0.555252	-9.249785	3.492130	0.146589	-0.116942	0.088152	-0.821591	0.569159	0.002920	0.032225
50579	0.359420	-9.009204	3.566653	-0.032545	0.037017	-0.116631	-0.821963	0.568623	0.002895	0.032196
50580	0.290874	-8.856624	3.534853	-0.092908	0.056446	-0.272888	-0.822182	0.568318	0.003006	0.031970
50581	0.305358	-8.900563	3.625967	-0.076378	0.118744	-0.198065	-0.822315	0.568137	0.002977	0.031760
50582	0.330018	-8.972397	3.622729	-0.053912	0.084413	-0.131419	-0.822423	0.567992	0.003005	0.031586
50583	0.352481	-8.868524	3.593052	-0.025415	0.091730	-0.237933	-0.822432	0.567989	0.003057	0.031402
50584	0.358560	-8.897495	3.560181	-0.020736	0.051782	-0.222809	-0.822346	0.568122	0.003099	0.031217
50585	0.340673	-9.101359	3.497123	-0.049888	-0.078422	-0.057073	-0.822332	0.568147	0.002991	0.031146
50586	0.272232	-9.115397	3.541743	-0.115865	-0.039307	-0.030380	-0.822389	0.568071	0.003010	0.031043
50587	0.349020	-8.939837	3.548397	-0.029191	0.024714	-0.188127	-0.822473	0.567953	0.003088	0.030960
50588	0.354333	-8.910261	3.580511	-0.020890	0.063059	-0.203631	-0.822514	0.567898	0.003066	0.030886
50589	0.331740	-8.910876	3.630095	-0.039782	0.110251	-0.185766	-0.822466	0.567976	0.002978	0.030729
50590	0.308940	-9.013679	3.614499	-0.065520	0.062259	-0.096809	-0.822353	0.568151	0.002932	0.030527
50591	0.316044	-9.044068	3.593601	-0.057470	0.035383	-0.075930	-0.822244	0.568324	0.002920	0.030239
50592	0.437173	-9.059822	3.474370	0.062648	-0.082920	-0.100225	-0.822122	0.568517	0.002898	0.029914
50593	0.322033	-9.032388	3.584817	-0.043436	0.039438	-0.089766	-0.822017	0.568681	0.002821	0.029680
50594	0.288337	-9.045812	3.513471	-0.076258	-0.026952	-0.104558	-0.821943	0.568806	0.002835	0.029351
50595	0.265936	-9.089763	3.499648	-0.097710	-0.052383	-0.069497	-0.821894	0.568891	0.002805	0.029066
50596	0.314554	-9.164169	3.470179	-0.050258	-0.106724	-0.009159	-0.821818	0.569015	0.002777	0.028800
50597	0.300458	-9.106247	3.488071	-0.057405	-0.066652	-0.057027	-0.821803	0.569050	0.002763	0.028521
50598	0.286530	-9.077449	3.505575	-0.066708	-0.037837	-0.077937	-0.821746	0.569146	0.002822	0.028270
50599	0.291772	-9.120831	3.472878	-0.063116	-0.083372	-0.049253	-0.821765	0.569128	0.002896	0.028070
50600	0.269972	-9.121612	3.521951	-0.082038	-0.036158	-0.031440	-0.821707	0.569221	0.002926	0.027862
50601	0.272779	-9.063942	3.536648	-0.074966	0.000360	-0.079665	-0.821652	0.569307	0.003031	0.027705
50602	0.331562	-9.063858	3.463650	-0.018039	-0.068554	-0.104170	-0.821620	0.569360	0.003088	0.027583
50603	0.264929	-9.034422	3.507329	-0.080819	-0.012576	-0.118068	-0.821556	0.569457	0.003051	0.027490
50604	0.261221	-9.137415	3.503534	-0.089039	-0.050915	-0.023673	-0.821494	0.569554	0.003206	0.027310
50605	0.264477	-9.094053	3.518697	-0.083046	-0.020028	-0.058423	-0.821490	0.569562	0.003192	0.027255
50606	0.197361	-8.990154	3.551894	-0.143774	0.050947	-0.145500	-0.821520	0.569523	0.003276	0.027152
50607	0.288887	-8.976951	3.486196	-0.053940	-0.006361	-0.178388	-0.821317	0.569822	0.003428	0.027000
50608	0.292275	-9.052294	3.509793	-0.053253	-0.007320	-0.099541	-0.821269	0.569897	0.003442	0.026869
50609	0.310451	-9.170192	3.469355	-0.040895	-0.084405	-0.003691	-0.821101	0.570150	0.003569	0.026638
50610	0.220154	-9.185429	3.545456	-0.128630	-0.012079	0.034857	-0.821095	0.570162	0.003523	0.026559
50611	0.226893	-9.081897	3.502186	-0.117542	-0.014571	-0.077000	-0.821060	0.570225	0.003752	0.026285
50612	0.307769	-9.157019	3.466130	-0.041710	-0.075849	-0.017163	-0.820952	0.570388	0.003914	0.026086
50613	0.211258	-9.259835	3.589269	-0.140111	0.005584	0.119703	-0.821082	0.570203	0.003964	0.026020
50614	0.373205	-9.125719	3.430045	0.023533	-0.106448	-0.057107	-0.821272	0.569936	0.004115	0.025870
50615	0.366882	-8.934996	3.533208	0.028871	0.052807	-0.197663	-0.821435	0.569701	0.004041	0.025876
50616	0.290795	-9.018555	3.474073	-0.052001	-0.031067	-0.143954	-0.821370	0.569796	0.004085	0.025816
50617	0.265921	-9.063557	3.585061	-0.074994	0.055165	-0.062674	-0.821545	0.569543	0.003867	0.025892
50618	0.062141	-8.763993	3.594596	-0.262840	0.178237	-0.345285	-0.821499	0.569605	0.003798	0.026001
50619	0.242564	-9.043273	3.412888	-0.101330	-0.097658	-0.144822	-0.821449	0.569675	0.003916	0.025995
50620	0.241858	-9.173596	3.349539	-0.111063	-0.202854	-0.046455	-0.821448	0.569675	0.003939	0.026032
50621	0.254912	-9.246371	3.346739	-0.102965	-0.233375	0.020722	-0.821514	0.569581	0.004094	0.025990
50622	0.363822	-9.480473	3.324324	-0.007436	-0.350051	0.234215	-0.821837	0.569112	0.004080	0.026076
50623	0.433483	-9.345914	3.372803	0.068738	-0.273601	0.128651	-0.822346	0.568372	0.004072	0.026143
50624	0.397259	-9.063021	3.555235	0.051509	-0.018046	-0.069339	-0.822912	0.567554	0.003891	0.026121
50625	0.279586	-8.765152	3.779804	-0.043183	0.290342	-0.267699	-0.823177	0.567174	0.003714	0.026062
50626	0.252589	-8.849086	3.759764	-0.071360	0.235163	-0.197826	-0.823316	0.566972	0.003487	0.026091
50627	0.284732	-8.922079	3.800134	-0.038990	0.240387	-0.113910	-0.823415	0.566826	0.003298	0.026175
50628	0.301565	-8.889895	3.680537	-0.021675	0.137351	-0.187294	-0.823486	0.566717	0.003062	0.026330
50629	0.247970	-8.873948	3.722923	-0.071340	0.184143	-0.188260	-0.823444	0.566771	0.002839	0.026494
50630	0.249477	-8.917469	3.675971	-0.071150	0.125605	-0.165127	-0.823406	0.566819	0.002581	0.026678
50631	0.144950	-8.886894	3.757178	-0.169892	0.218218	-0.167077	-0.823350	0.566894	0.002375	0.026834
50632	0.281096	-9.048951	3.575776	-0.045656	-0.015221	-0.078911	-0.823365	0.566866	0.002251	0.026979
50633	0.304554	-9.062693	3.558697	-0.022332	-0.039936	-0.071672	-0.823498	0.566663	0.001977	0.027211
50634	0.226387	-9.000546	3.626548	-0.093788	0.043708	-0.106905	-0.823681	0.566384	0.001676	0.027491
50635	0.272785	-8.968430	3.503351	-0.047975	-0.066415	-0.180766	-0.823805	0.566200	0.001487	0.027599
50636	0.165853	-8.979486	3.588997	-0.150023	0.009463	-0.142270	-0.823932	0.566008	0.001159	0.027744
50637	0.238821	-9.037674	3.532032	-0.079856	-0.072222	-0.107006	-0.824028	0.565867	0.001133	0.027761
50638	0.284061	-9.197325	3.495682	-0.042544	-0.172758	0.029040	-0.824256	0.565531	0.000954	0.027863
50639	0.214462	-9.205922	3.474392	-0.111223	-0.202511	0.026672	-0.824602	0.565027	0.000806	0.027850
50640	0.234879	-9.071650	3.664022	-0.075869	0.009124	-0.026514	-0.825006	0.564434	0.000567	0.027902
50641	0.197808	-8.832096	3.776450	-0.095476	0.191753	-0.207442	-0.825328	0.563959	0.000359	0.028001
50642	0.275049	-8.845024	3.738927	-0.018616	0.139876	-0.206973	-0.825500	0.563698	0.000165	0.028175
50643	0.255710	-9.016528	3.688650	-0.046005	0.021737	-0.067601	-0.825793	0.563255	-0.000175	0.028452
50644	0.243142	-8.924096	3.717260	-0.050831	0.072700	-0.142695	-0.826108	0.562779	-0.000521	0.028703
50645	0.324778	-8.921816	3.636123	0.031309	-0.016387	-0.172956	-0.826403	0.562340	-0.000893	0.028845
50646	0.279997	-8.946389	3.683061	-0.007508	0.010205	-0.133791	-0.826654	0.561956	-0.001501	0.029112
50647	0.196725	-8.955464	3.691525	-0.083686	0.010122	-0.124588	-0.826884	0.561606	-0.002097	0.029281
50648	0.186020	-9.010785	3.699744	-0.088787	-0.011130	-0.070566	-0.827117	0.561252	-0.002722	0.029433
50649	0.156088	-9.124012	3.696681	-0.115919	-0.064163	0.032100	-0.827361	0.560873	-0.003430	0.029727
50650	0.061504	-9.249190	3.827145	-0.202729	0.003092	0.195170	-0.827689	0.560354	-0.004303	0.030265
50651	0.076500	-8.920060	3.767661	-0.167031	0.053785	-0.130862	-0.828422	0.559238	-0.005164	0.030713
50652	0.392971	-7.939023	3.538816	0.190958	0.175667	-1.115656	-0.829229	0.558057	-0.005448	0.030350
50653	0.753943	-7.889283	3.302301	0.552857	-0.056810	-1.244985	-0.829325	0.557985	-0.005477	0.029036
50654	0.552609	-8.731474	3.622770	0.351687	-0.079795	-0.350217	-0.829518	0.557766	-0.006382	0.027487
50655	-0.226272	-9.135330	4.029865	-0.393557	0.167180	0.165403	-0.830116	0.556912	-0.007567	0.026444
50656	-0.192503	-9.345270	4.177311	-0.338332	0.192278	0.418124	-0.830982	0.555671	-0.007705	0.025267
50657	0.261016	-9.203163	4.140285	0.130563	0.149355	0.280316	-0.832372	0.553626	-0.007848	0.024368
50658	0.881091	-8.916652	3.612345	0.750019	-0.298307	-0.185624	-0.833590	0.551813	-0.008380	0.023669
50659	0.343547	-9.366447	3.430401	0.212231	-0.662903	0.143781	-0.834864	0.549844	-0.010213	0.023849
50660	-0.544506	-9.289053	4.042347	-0.622456	-0.079863	0.312993	-0.836481	0.547348	-0.011521	0.024009
50661	-0.220049	-8.945851	3.836449	-0.288454	-0.222658	-0.083277	-0.839231	0.543214	-0.010605	0.022289
50662	1.154086	-7.691034	3.602503	1.116091	-0.065119	-1.314952	-0.841937	0.539128	-0.010122	0.019522
50663	1.607983	-9.059071	2.985552	1.552948	-1.294471	-0.353405	-0.843473	0.536758	-0.012316	0.017110
50664	0.081738	-9.141876	3.378315	0.116856	-1.012121	-0.119756	-0.847534	0.530169	-0.017995	0.016829
50665	-1.412457	-8.681466	4.441724	-1.241230	0.085580	-0.038107	-0.850520	0.525268	-0.021434	0.015816
50666	-1.043934	-8.746839	4.517927	-0.826326	-0.009237	0.052635	-0.853484	0.520539	-0.020998	0.012797
50667	0.622163	-8.162244	5.589516	0.921536	1.025775	0.003095	-0.856219	0.516057	-0.021774	0.009947
50668	0.645887	-8.635156	3.843377	0.924521	-0.822859	-0.420056	-0.858139	0.512629	-0.027065	0.008784
50669	-1.316321	-8.410603	4.046943	-0.926400	-0.551789	-0.448732	-0.861614	0.506340	-0.034107	0.008857
50670	-2.024703	-7.351092	5.337700	-1.479755	1.015613	-0.679961	-0.864218	0.501727	-0.036766	0.006662
50671	-1.029193	-8.563860	5.336333	-0.415157	0.250621	0.318421	-0.866514	0.497837	-0.036114	0.002584
50672	-0.566513	-7.672630	5.489315	0.056869	0.747853	-0.391436	-0.867747	0.495686	-0.036182	-0.000982
50673	-0.383005	-9.323448	4.067289	0.242665	-1.352819	0.273297	-0.867632	0.495874	-0.036152	-0.004115
50674	-1.255480	-9.860203	4.442229	-0.539642	-1.326029	0.980034	-0.869552	0.492338	-0.038167	-0.005055
50675	-1.349762	-8.509217	5.676769	-0.589819	0.342242	0.482381	-0.871920	0.488140	-0.037851	-0.006498
50676	-0.766041	-7.416032	5.666008	-0.051648	0.818260	-0.484482	-0.873528	0.485237	-0.037784	-0.008165
50677	-0.795086	-7.552325	5.719192	-0.050648	0.754953	-0.336067	-0.873649	0.484911	-0.038871	-0.009415
50678	-0.717235	-8.123076	4.190973	-0.013226	-0.840171	-0.682685	-0.873372	0.485367	-0.038958	-0.011066
50679	-1.007911	-8.364315	4.565534	-0.243786	-0.637318	-0.254651	-0.872941	0.486024	-0.040197	-0.011766
50680	-1.588048	-9.157247	3.584616	-0.820129	-1.881185	-0.065122	-0.873336	0.485363	-0.039076	-0.013404
50681	-1.646734	-8.124659	5.848716	-0.807702	0.535367	0.286313	-0.875122	0.482141	-0.038810	-0.013980
50682	-1.265866	-7.876199	6.042346	-0.444741	0.795873	0.153034	-0.874773	0.482888	-0.036728	-0.015567
50683	-1.366013	-8.105857	5.903215	-0.558261	0.576369	0.275667	-0.874006	0.484346	-0.035243	-0.016766
50684	-1.026334	-8.182990	5.894295	-0.240423	0.582344	0.304614	-0.871934	0.488191	-0.032686	-0.018221
50685	-0.661901	-8.834810	4.721116	0.082780	-0.666506	0.203747	-0.869532	0.492574	-0.030147	-0.019378
50686	-1.174297	-9.307263	5.172654	-0.413625	-0.454484	0.882288	-0.868254	0.494929	-0.027870	-0.020101
50687	-0.915312	-8.841920	4.914525	-0.227794	-0.396736	0.334257	-0.867879	0.495701	-0.025431	-0.020508
50688	-0.950593	-8.486726	5.401280	-0.308272	0.201789	0.285138	-0.868353	0.494975	-0.023571	-0.020199
50689	-0.937863	-8.138641	5.378540	-0.353649	0.346854	-0.024928	-0.868752	0.494385	-0.021635	-0.019626
50690	-1.013731	-8.014102	5.011898	-0.484856	0.081326	-0.318967	-0.869268	0.493598	-0.019471	-0.018847
50691	-1.264234	-7.962698	5.120078	-0.782023	0.163448	-0.295368	-0.870545	0.491461	-0.016761	-0.018331
50692	-2.131352	-8.143152	5.437864	-1.689943	0.257278	0.061566	-0.872651	0.487822	-0.013306	-0.018244
50693	-2.192232	-7.670526	5.203415	-1.841418	0.229565	-0.470635	-0.874255	0.485028	-0.008440	-0.018830
50694	-1.476393	-7.550852	5.032492	-1.208972	0.119318	-0.699805	-0.874592	0.484453	-0.002941	-0.019620
50695	-0.716119	-8.217430	4.888123	-0.504314	-0.351139	-0.244273	-0.874492	0.484634	0.002111	-0.019726
50696	-0.275825	-8.651880	4.707042	-0.128343	-0.735056	0.012279	-0.875025	0.483656	0.006668	-0.019057
50697	-0.039404	-8.317231	5.554502	-0.001665	0.139982	0.187826	-0.875697	0.482428	0.010111	-0.017772
50698	-0.223820	-8.132721	5.873327	-0.266224	0.477501	0.206695	-0.876072	0.481761	0.012462	-0.015781
50699	-0.307025	-8.061666	5.772180	-0.404750	0.415836	0.090130	-0.876285	0.481383	0.014516	-0.013560
50700	-0.339901	-8.233479	5.475112	-0.476707	0.067549	0.069143	-0.876303	0.481363	0.015985	-0.011238
50701	-0.496289	-7.935631	5.388644	-0.673177	0.148554	-0.232360	-0.876547	0.480934	0.016948	-0.008967
50702	-0.108206	-7.593605	5.127340	-0.308958	0.123652	-0.655540	-0.876616	0.480808	0.017802	-0.007114
50703	-0.172153	-7.593642	5.026293	-0.391822	0.039028	-0.713149	-0.876487	0.481066	0.017805	-0.005344
50704	-0.638361	-7.714727	5.238338	-0.877911	0.140176	-0.508155	-0.876619	0.480849	0.017559	-0.003890
50705	-0.613974	-7.367361	5.023505	-0.852934	0.145367	-0.916512	-0.876892	0.480347	0.017800	-0.003023
50706	-0.847306	-7.379578	4.976050	-1.091217	0.101386	-0.939351	-0.876304	0.481437	0.017466	-0.002178
50707	-1.163044	-7.639853	5.203948	-1.416973	0.172676	-0.605985	-0.875478	0.482956	0.016989	-0.001565
50708	-0.981825	-7.878326	5.103548	-1.232675	-0.002737	-0.455412	-0.874555	0.484641	0.016573	-0.001357
50709	-0.946486	-8.284938	5.073624	-1.191575	-0.217812	-0.127113	-0.874041	0.485597	0.015683	-0.001500
50710	-1.158710	-7.865036	5.326039	-1.389108	0.220865	-0.347507	-0.874429	0.484914	0.015064	-0.002166
50711	-0.742045	-7.404585	5.068797	-0.948407	0.264811	-0.862740	-0.873720	0.486190	0.014976	-0.003097
50712	-0.737754	-8.081849	4.969797	-0.936150	-0.138670	-0.343606	-0.872107	0.489095	0.014287	-0.003412
50713	-0.742466	-8.499626	4.929431	-0.934487	-0.329974	-0.009031	-0.870414	0.492101	0.014250	-0.003753
50714	-0.695052	-9.055434	5.038036	-0.887571	-0.470243	0.524462	-0.869241	0.494192	0.013482	-0.003424
50715	-0.533443	-9.544958	4.600534	-0.709268	-1.039532	0.721622	-0.867810	0.496726	0.012627	-0.003041
50716	-0.282605	-9.996932	5.671997	-0.473113	-0.309285	1.670801	-0.867323	0.497605	0.011544	-0.002658
50717	-0.292582	-9.255839	5.607360	-0.457633	0.037204	1.003401	-0.867002	0.498205	0.009820	-0.001697
50718	-0.165821	-8.967451	5.284376	-0.308979	-0.069540	0.592453	-0.866433	0.499218	0.008681	-0.000455
50719	0.067710	-9.083345	4.877479	-0.075026	-0.458515	0.487102	-0.866163	0.499691	0.008346	0.001465
50720	0.100582	-8.687970	4.673770	-0.057031	-0.420754	0.044022	-0.865901	0.500129	0.008368	0.003994
50721	0.442016	-8.412448	4.790221	0.259319	-0.165359	-0.126811	-0.865343	0.501064	0.008628	0.006493
50722	1.063283	-8.013632	4.966419	0.861082	0.211021	-0.366626	-0.864436	0.502589	0.008714	0.008863
50723	1.069714	-8.046532	5.100100	0.847258	0.337425	-0.269616	-0.863628	0.503937	0.008363	0.011179
50724	1.138392	-8.120428	5.075082	0.898819	0.302546	-0.216111	-0.862918	0.505113	0.008427	0.012752
50725	1.689834	-8.143268	5.267417	1.438948	0.471580	-0.085352	-0.862276	0.506185	0.008216	0.013782
50726	1.789637	-7.946305	4.996260	1.543556	0.363059	-0.389595	-0.861094	0.508175	0.007477	0.014816
50727	2.037238	-7.753214	5.119355	1.797152	0.605099	-0.492045	-0.859635	0.510615	0.007375	0.015664
50728	2.134198	-7.613619	5.021839	1.892784	0.637365	-0.661088	-0.858044	0.513252	0.007260	0.016720
50729	1.972095	-7.820490	5.223668	1.714831	0.763141	-0.388635	-0.856932	0.515075	0.007677	0.017524
50730	2.171868	-7.858424	5.310983	1.901242	0.846110	-0.307546	-0.856296	0.516096	0.007916	0.018427
50731	2.374185	-7.796081	5.143383	2.102493	0.753926	-0.438201	-0.854914	0.518341	0.006757	0.019992
50732	1.850959	-7.534126	5.140867	1.601269	0.939428	-0.692888	-0.852982	0.521448	0.004941	0.022109
50733	1.796021	-7.606131	4.136357	1.536880	0.086166	-1.105307	-0.850349	0.525638	0.003230	0.024514
50734	1.826959	-7.965753	3.400822	1.534153	-0.657432	-1.119571	-0.847740	0.529722	0.002103	0.026976
50735	2.115456	-8.251878	2.903041	1.782483	-1.180452	-1.070528	-0.845844	0.532608	0.001329	0.029562
50736	2.015131	-8.586442	3.192564	1.659443	-1.022015	-0.637621	-0.844451	0.534647	-0.000116	0.032463
50737	1.446230	-9.540252	3.904749	1.061666	-0.739791	0.515943	-0.843595	0.535839	-0.002145	0.034904
50738	1.211283	-9.489040	4.042386	0.849080	-0.557827	0.522582	-0.842838	0.536896	-0.004634	0.036672
50739	0.727430	-9.867636	3.101086	0.324959	-1.516967	0.439592	-0.842265	0.537646	-0.007922	0.038265
50740	-0.230601	-9.330637	3.487662	-0.547678	-0.875327	0.097480	-0.843115	0.536178	-0.010796	0.039412
50741	-0.824418	-8.865221	3.791730	-1.069568	-0.404416	-0.203262	-0.845074	0.532957	-0.012980	0.040463
50742	-0.723925	-9.223963	4.568043	-0.923035	0.044399	0.464371	-0.847367	0.529229	-0.014104	0.041086
50743	-0.596292	-8.929739	4.916367	-0.750189	0.387508	0.363407	-0.849605	0.525564	-0.014748	0.041675
50744	-0.629170	-8.610403	4.853688	-0.764149	0.408657	0.053516	-0.851103	0.523085	-0.015584	0.041987
50745	-0.595777	-8.371324	4.851781	-0.707436	0.467501	-0.155843	-0.852077	0.521502	-0.016202	0.041698
50746	-0.381770	-8.282564	4.693439	-0.487406	0.328766	-0.303254	-0.852225	0.521292	-0.016788	0.041056
50747	-0.408042	-8.717310	4.478021	-0.534708	-0.056264	-0.018733	-0.851831	0.521967	-0.017514	0.040349
50748	-0.383577	-9.070188	4.698416	-0.490856	-0.013810	0.397570	-0.851479	0.522546	-0.018481	0.039847
50749	-0.472781	-9.116595	4.960634	-0.541244	0.208125	0.560712	-0.851585	0.522381	-0.019292	0.039347
50750	-0.347100	-8.843202	4.932651	-0.387774	0.293960	0.307438	-0.851685	0.522238	-0.019853	0.038808
50751	-0.406605	-8.774535	4.696890	-0.447937	0.120593	0.137356	-0.851686	0.522234	-0.020428	0.038539
50752	-0.460631	-9.005043	4.402575	-0.523341	-0.247137	0.204830	-0.851987	0.521735	-0.020955	0.038364
50753	-0.712562	-8.923011	4.584482	-0.746874	-0.048622	0.216523	-0.852826	0.520363	-0.021407	0.038100
50754	-0.687325	-8.657362	4.344166	-0.720210	-0.169081	-0.130398	-0.853586	0.519113	-0.021847	0.037883
50755	-0.782076	-8.606153	4.284056	-0.807991	-0.213316	-0.203721	-0.854093	0.518254	-0.022493	0.037845
50756	-0.819301	-8.742855	4.158797	-0.855480	-0.405787	-0.142744	-0.854731	0.517209	-0.022514	0.037723
50757	-0.904105	-8.790259	4.131878	-0.948398	-0.474786	-0.115602	-0.855732	0.515574	-0.022027	0.037704
50758	-0.708418	-9.014828	4.672255	-0.736884	-0.179304	0.337355	-0.857482	0.512696	-0.020931	0.037803
50759	-0.474550	-9.449514	5.164915	-0.509571	-0.070952	0.954347	-0.860187	0.508109	-0.020320	0.038603
50760	-1.083059	-9.997815	5.026250	-1.181108	-0.544111	1.354189	-0.863898	0.501643	-0.020079	0.040384
50761	-1.422585	-9.724452	5.457303	-1.516806	-0.186046	1.324275	-0.868460	0.493533	-0.019142	0.042847
50762	-1.301502	-9.013810	5.719252	-1.401350	0.182316	0.848027	-0.873676	0.484083	-0.017097	0.045418
50763	-1.227553	-8.088817	5.476438	-1.359908	0.263914	-0.065643	-0.878354	0.475342	-0.014991	0.048159
50764	-1.276024	-7.156596	5.553428	-1.396611	0.696500	-0.798884	-0.881523	0.469174	-0.013592	0.051068
50765	-1.324282	-6.596118	5.489090	-1.453209	0.854828	-1.295118	-0.884419	0.463501	-0.011988	0.053161
50766	0.166874	-5.694519	5.352264	0.056958	1.014411	-2.062248	-0.886614	0.459227	-0.010489	0.054004
50767	1.406161	-5.549524	5.820604	1.315820	1.284667	-1.858317	-0.887899	0.456727	-0.010358	0.054119
50768	1.626722	-5.699601	6.108457	1.547483	1.360887	-1.554477	-0.889096	0.454481	-0.011245	0.053186
50769	1.322468	-5.550318	6.600481	1.317961	1.836889	-1.385949	-0.890141	0.452632	-0.012927	0.051053
50770	1.496829	-5.356240	6.825974	1.561274	2.094583	-1.404435	-0.890528	0.452206	-0.014609	0.047498
50771	2.159152	-6.410272	7.355044	2.229789	1.833960	-0.246368	-0.890228	0.453158	-0.016310	0.043306
50772	1.895047	-7.227231	7.528311	1.985043	1.553832	0.489940	-0.889320	0.455281	-0.017776	0.038910
50773	1.355208	-7.950211	6.804105	1.419554	0.661829	0.622075	-0.887786	0.458538	-0.019070	0.034860
50774	0.983172	-8.323167	5.778701	1.022897	-0.265909	0.312385	-0.885872	0.462474	-0.019966	0.030836
50775	0.930466	-8.346036	5.572952	1.011921	-0.365333	0.208384	-0.884668	0.464996	-0.020597	0.026784
50776	0.592412	-8.257590	4.945511	0.689877	-0.739344	-0.222395	-0.883270	0.467882	-0.020716	0.022156
50777	0.158163	-7.538935	4.887102	0.312175	-0.289225	-0.837008	-0.881911	0.470673	-0.020157	0.017146
50778	-0.402184	-7.325483	5.071260	-0.202802	0.076192	-0.896706	-0.879997	0.474485	-0.018579	0.011138
50779	-0.018988	-7.688196	4.524852	0.178573	-0.517856	-0.908623	-0.877952	0.478467	-0.015814	0.004459
50780	0.211452	-8.072004	4.504887	0.427910	-0.675339	-0.600938	-0.876227	0.481741	-0.012079	-0.002466
50781	0.766178	-7.699572	5.122576	0.996055	0.107475	-0.587328	-0.874982	0.483993	-0.008542	-0.009141
50782	0.314152	-7.490494	4.721128	0.540623	-0.074831	-0.969764	-0.874332	0.485051	-0.005609	-0.015419
50783	-0.564824	-7.378975	5.327931	-0.344631	0.494209	-0.713670	-0.873925	0.485509	-0.001119	-0.023112
50784	-0.686080	-7.543348	5.493568	-0.481915	0.546803	-0.484194	-0.873053	0.486479	0.005259	-0.032993
50785	-0.576954	-7.799350	5.436475	-0.386065	0.382910	-0.303627	-0.871745	0.487779	0.012725	-0.044389
50786	-0.539265	-8.094230	5.235901	-0.352573	0.088895	-0.164394	-0.869714	0.489767	0.021962	-0.056948
50787	-0.086656	-8.980932	4.439902	0.197746	-0.932114	0.160712	-0.866559	0.492959	0.033416	-0.070352
50788	1.194203	-9.558101	3.421665	1.601345	-1.784890	0.124088	-0.863186	0.495601	0.047156	-0.084060
50789	2.197089	-9.651012	3.218569	2.578440	-1.670812	0.131461	-0.859718	0.497659	0.061352	-0.097245
50790	2.315098	-10.555874	2.498730	2.883511	-2.525992	0.595541	-0.855414	0.500638	0.075208	-0.109419
50791	2.437216	-10.838979	3.364163	2.776581	-1.744081	1.322290	-0.851913	0.501995	0.087618	-0.120696
50792	1.692332	-10.191553	3.316030	1.928390	-1.555190	0.750858	-0.847650	0.503929	0.100678	-0.131942
50793	2.829068	-10.540026	1.617943	3.495091	-2.594334	0.324584	-0.843184	0.505506	0.114208	-0.143040
50794	4.586440	-10.014093	0.543795	5.401127	-2.423456	-0.508669	-0.839725	0.505717	0.124703	-0.153498
50795	5.124727	-10.946896	2.195730	5.448907	-1.152056	1.137169	-0.837874	0.505471	0.127956	-0.161533
50796	2.419987	-10.260767	4.113829	2.225544	-0.332198	1.277804	-0.838512	0.503169	0.126392	-0.166564
50797	1.002882	-9.371249	4.061952	0.892497	-0.577872	0.394883	-0.839385	0.499892	0.126768	-0.171670
50798	2.896928	-8.410452	5.838093	1.861225	1.965788	0.477158	-0.842398	0.493349	0.125176	-0.176925
50799	-1.545501	-3.925736	6.280704	-3.057847	2.408000	-3.324487	-0.845303	0.486900	0.122399	-0.182781
50800	0.949544	-5.919768	5.239345	0.007566	1.662443	-2.026028	-0.844753	0.483044	0.127161	-0.192071
50801	2.401004	-5.426811	5.344874	1.151629	2.588338	-2.345628	-0.844733	0.478749	0.129729	-0.200987
50802	4.007745	-6.382748	5.179819	2.839953	2.759508	-1.569405	-0.843777	0.475728	0.133163	-0.209739
50803	3.128311	-6.326745	5.348015	1.993040	2.507656	-1.557108	-0.843452	0.473052	0.132731	-0.217239
50804	1.865723	-7.907064	5.798867	1.120314	1.506899	-0.009453	-0.841482	0.472596	0.134266	-0.224798
50805	3.014291	-9.950391	5.571145	2.743867	1.031756	1.612730	-0.839213	0.472390	0.137219	-0.231819
50806	2.981255	-10.490204	5.344056	2.969086	0.658707	1.944934	-0.837823	0.471066	0.139353	-0.238180
50807	1.892012	-10.472626	5.516459	1.990552	0.239920	2.005389	-0.836707	0.469171	0.141353	-0.244579
50808	1.445393	-10.805191	5.653192	1.691135	-0.058041	2.350219	-0.836107	0.466012	0.143323	-0.251428
50809	0.115998	-9.732152	6.453337	-0.029983	0.194749	1.863505	-0.836768	0.460719	0.143916	-0.258545
50810	-1.852220	-8.208378	7.959054	-2.743018	0.706836	1.418028	-0.837343	0.455397	0.144451	-0.265716
50811	-2.500486	-8.464764	7.569333	-2.942258	-0.163064	1.435196	-0.836602	0.451560	0.147504	-0.272823
50812	-2.242439	-8.454793	6.096703	-1.997125	-1.090497	0.603816	-0.835291	0.448429	0.152468	-0.279202
50813	-1.856374	-8.433627	5.395260	-1.347915	-1.384611	0.184645	-0.833500	0.445954	0.158227	-0.285249
50814	-0.705401	-9.145637	4.985805	0.010903	-1.315635	0.544306	-0.831814	0.442816	0.163491	-0.292009
50815	-0.821437	-9.680723	5.257871	-0.005616	-1.507725	1.130919	-0.830760	0.438749	0.166980	-0.299091
50816	-1.560095	-9.280845	6.178269	-1.147619	-1.302070	1.310514	-0.829720	0.434302	0.170105	-0.306611
50817	-1.666350	-8.527211	6.341005	-1.533936	-1.020287	0.784656	-0.828415	0.430240	0.173128	-0.314084
50818	-1.913887	-7.506864	6.214356	-1.987829	-0.888150	-0.122829	-0.826733	0.426731	0.176463	-0.321363
50819	-2.106843	-6.608702	6.145278	-2.407064	-0.739948	-0.894380	-0.824702	0.423586	0.180159	-0.328609
50820	-1.904952	-6.225678	5.932248	-2.275389	-0.624573	-1.326719	-0.821938	0.420954	0.184788	-0.336258
50821	-1.957684	-6.381985	5.572684	-2.033953	-0.988601	-1.416108	-0.818256	0.418901	0.190270	-0.344641
50822	-2.084086	-6.707472	5.285460	-1.809167	-1.422245	-1.328959	-0.813842	0.417014	0.196450	-0.353790
50823	-2.508070	-6.726307	5.074502	-1.944103	-1.906875	-1.453969	-0.808623	0.414819	0.203813	-0.364024
50824	-2.858624	-7.014938	4.995988	-1.973443	-2.393608	-1.285287	-0.802476	0.411805	0.212661	-0.375799
50825	-2.826182	-7.233429	4.855999	-1.724136	-2.603660	-1.202348	-0.795308	0.407678	0.222937	-0.389336
50826	-2.595652	-7.328181	4.736765	-1.407631	-2.600129	-1.202609	-0.787044	0.402478	0.234419	-0.404502
50827	-2.363214	-7.129619	4.721906	-1.294238	-2.439622	-1.381516	-0.777602	0.396338	0.247002	-0.420999
50828	-2.521426	-7.046348	4.222007	-0.987328	-2.843507	-1.764564	-0.766569	0.389575	0.261113	-0.438661
50829	-2.602931	-7.352116	3.991368	-0.618951	-3.183654	-1.673914	-0.753251	0.381816	0.277688	-0.457950
50830	-2.538394	-7.782465	3.849428	-0.167221	-3.368663	-1.419175	-0.737372	0.373352	0.295907	-0.478884
50831	-2.473337	-8.324982	3.459643	0.561937	-3.590614	-1.199805	-0.719360	0.363572	0.314691	-0.501305
50832	-2.149942	-8.405346	3.909851	0.485719	-3.221357	-0.871553	-0.699696	0.351933	0.332838	-0.525155
50833	-1.276457	-8.703652	2.986813	1.743286	-2.514895	-1.041272	-0.678055	0.340358	0.349294	-0.549901
50834	-3.006027	-8.743734	4.343552	0.545041	-4.020730	-0.437913	-0.654296	0.329531	0.363594	-0.575418
50835	-3.752068	-10.231161	4.619515	1.240942	-4.812473	0.929277	-0.625955	0.322948	0.381199	-0.598809
50836	-3.803017	-11.601751	1.959573	4.359186	-4.514235	0.841069	-0.594995	0.317878	0.398645	-0.621302
50837	-2.519878	-10.493762	-0.235437	5.615617	-2.454495	-0.928097	-0.562254	0.313841	0.415547	-0.642414
50838	-0.719723	-8.783013	-3.393317	7.105427	0.435840	-3.611416	-0.528155	0.308509	0.432632	-0.662347
50839	0.343561	-8.307852	-3.537977	6.482100	2.081908	-3.874372	-0.493212	0.302579	0.448423	-0.681252
50840	1.425057	-8.490367	-2.026484	4.565224	3.185934	-2.942267	-0.459864	0.294827	0.458617	-0.700908
50841	3.218439	-8.771577	1.463217	0.674700	3.927570	-1.236980	-0.428320	0.285446	0.465318	-0.720098
50842	7.741839	-14.094132	7.056236	-4.536045	6.731531	5.758030	-0.400527	0.278362	0.471772	-0.734523
50843	13.076654	-21.629029	2.282656	-1.531079	15.507675	10.216061	-0.386048	0.270838	0.464698	-0.749446
50844	1.963662	-7.591782	12.745343	-8.087927	-2.117574	2.596585	-0.387479	0.270860	0.441895	-0.762381
50845	-5.367449	-8.388482	11.822825	-2.692592	-7.250149	3.571057	-0.377241	0.258998	0.441739	-0.771671
50846	-0.699334	-12.826420	4.926231	1.487207	1.335674	3.798984	-0.360379	0.244270	0.447040	-0.781418
50847	8.594061	-11.906933	4.689972	-4.639113	8.352762	2.283479	-0.339713	0.236747	0.452264	-0.789939
50848	13.295332	-9.909177	4.275827	-8.510044	11.271235	-0.129520	-0.326901	0.237680	0.450512	-0.796042
50849	3.430469	-7.003221	8.165661	-5.565370	0.798926	-0.021041	-0.326618	0.240587	0.442583	-0.799724
50850	-3.893081	-5.440672	8.098979	-1.091156	-5.082211	-0.684113	-0.326497	0.239784	0.441716	-0.800494
50851	3.294604	-5.969094	5.389159	-3.951914	1.846636	-2.296147	-0.322276	0.239486	0.447932	-0.798838
50852	4.384893	-6.579129	4.416966	-3.929929	3.355770	-2.375244	-0.319991	0.242911	0.451262	-0.796845
50853	2.966521	-8.084825	2.842903	-1.520965	3.772202	-1.706901	-0.319626	0.245425	0.452413	-0.795568
50854	1.963045	-7.566792	3.455586	-1.442131	2.489463	-1.764473	-0.320391	0.247597	0.452821	-0.794354
50855	1.081922	-7.257210	4.436316	-1.609562	1.185816	-1.474723	-0.322553	0.248102	0.451478	-0.794086
50856	1.620038	-6.169941	4.964403	-2.636529	0.870125	-2.221273	-0.324538	0.248174	0.451924	-0.793000
50857	3.048056	-6.386493	4.548970	-3.223728	2.231725	-2.369702	-0.326525	0.248243	0.452206	-0.792002
50858	3.174736	-5.930744	4.624800	-3.476649	2.121810	-2.737933	-0.329322	0.249294	0.450696	-0.791374
50859	2.814703	-5.973750	4.781203	-3.308635	1.820972	-2.587390	-0.332412	0.250638	0.448483	-0.790914
50860	2.139847	-5.466757	4.657078	-2.908527	1.235878	-3.018172	-0.336300	0.252087	0.444941	-0.790811
50861	2.530203	-5.385671	4.598399	-3.109719	1.584767	-3.151569	-0.340088	0.253299	0.441986	-0.790461
50862	2.778758	-6.270546	4.887991	-3.153620	2.021009	-2.269248	-0.344328	0.256259	0.438920	-0.789379
50863	2.805668	-6.537107	4.461041	-2.753656	2.423497	-2.259536	-0.348441	0.259262	0.435991	-0.788216
50864	4.007559	-7.740649	4.965998	-3.427295	3.615406	-1.105130	-0.352228	0.261727	0.434420	-0.786583
50865	5.001048	-9.232656	6.101847	-4.291198	4.458909	0.636604	-0.357798	0.264215	0.431730	-0.784717
50866	5.651816	-12.021156	7.974189	-4.978475	5.219827	3.898791	-0.365526	0.268242	0.428247	-0.781691
50867	5.407175	-15.610386	9.573363	-4.585281	5.772067	7.800455	-0.375240	0.273364	0.422425	-0.778476
50868	4.553069	-17.969397	9.274787	-2.802759	6.274385	9.742857	-0.386201	0.279074	0.415432	-0.774843
50869	3.981021	-20.152470	6.970858	0.384964	7.719286	10.455828	-0.399692	0.284360	0.406829	-0.770633
50870	3.733397	-18.665651	4.763856	2.125784	7.937180	8.005458	-0.418812	0.288879	0.393974	-0.765461
50871	0.408375	-14.044038	1.822529	4.620579	4.451351	2.817847	-0.445140	0.294954	0.376428	-0.757070
50872	-3.640157	-9.979078	0.926988	5.529140	-0.474232	-0.708664	-0.474978	0.301516	0.358094	-0.745153
50873	-6.200223	-6.948953	1.584980	4.406384	-4.211903	-2.596360	-0.503184	0.309784	0.343270	-0.730072
50874	-5.285745	-5.062243	2.867923	1.854553	-4.287650	-3.491466	-0.527123	0.321958	0.333720	-0.712121
50875	-2.734437	-6.711669	3.709225	1.210347	-1.675431	-1.938365	-0.547407	0.337570	0.327821	-0.692044
50876	-2.600350	-7.882413	4.303102	1.147264	-1.442293	-0.646867	-0.568121	0.351227	0.317526	-0.673094
50877	-3.570188	-6.377981	3.702107	0.702111	-2.646843	-2.090927	-0.587965	0.367166	0.307111	-0.652051
50878	-4.586025	-5.678403	2.990140	0.625122	-3.765345	-2.910764	-0.605823	0.385011	0.297058	-0.629683
50879	-4.646464	-6.659040	2.917037	0.855950	-3.747283	-2.088938	-0.622439	0.400625	0.287176	-0.607947
50880	-3.651688	-7.836410	2.843236	1.356303	-2.745313	-1.242559	-0.638787	0.411964	0.276903	-0.587845
50881	-2.353730	-8.669075	1.466250	2.962069	-1.844486	-1.406567	-0.654595	0.421408	0.266156	-0.568403
50882	-1.123659	-9.109159	0.955816	3.748705	-0.964032	-1.436149	-0.669811	0.432003	0.254744	-0.547569
50883	-1.739841	-9.342826	0.929207	3.582853	-1.767587	-1.140213	-0.685233	0.442606	0.242592	-0.525076
50884	-3.048161	-9.068969	1.255926	2.520302	-3.034256	-1.006582	-0.700460	0.453357	0.231039	-0.500444
50885	-4.137484	-9.289096	1.474541	1.704346	-4.093109	-0.543959	-0.714852	0.463060	0.221069	-0.475070
50886	-4.063238	-9.502069	1.950017	1.120813	-3.948111	-0.130401	-0.728346	0.471252	0.211943	-0.450016
50887	-3.764561	-9.055091	1.783679	0.840370	-3.796182	-0.635483	-0.741036	0.478671	0.202860	-0.424956
50888	-3.143937	-8.434495	1.697468	0.660141	-3.294394	-1.291522	-0.753151	0.485226	0.193601	-0.399797
50889	-2.853322	-8.327176	2.021447	0.297792	-2.921268	-1.272130	-0.764660	0.491075	0.184134	-0.374480
50890	-1.602185	-8.715583	1.578041	1.306299	-2.427891	-1.244611	-0.774877	0.496855	0.175120	-0.349333
50891	-0.501045	-9.711417	0.827137	2.666166	-2.534501	-0.773478	-0.783970	0.502600	0.165845	-0.324468
50892	0.101257	-11.472292	1.273299	3.222196	-2.533440	0.977836	-0.792740	0.507408	0.155824	-0.299699
50893	0.769037	-12.491137	1.417329	3.741075	-2.561555	1.937245	-0.801193	0.512127	0.144569	-0.273709
50894	0.517029	-12.954743	0.397161	3.903699	-3.871836	1.934922	-0.809417	0.517554	0.129440	-0.245412
50895	-1.629593	-12.745693	-0.957806	2.266787	-6.200929	1.251515	-0.817968	0.520882	0.112355	-0.216766
50896	-4.181779	-10.334013	-0.311846	-1.249359	-6.095106	-0.557869	-0.829493	0.518130	0.091933	-0.187165
50897	-4.668515	-8.952595	0.972923	-2.782988	-4.650517	-1.238895	-0.838830	0.515824	0.073007	-0.157988
50898	-3.408331	-8.484011	0.843180	-1.928304	-4.047732	-1.800332	-0.846488	0.514051	0.052544	-0.128257
50899	-3.638468	-7.901795	1.029056	-2.522524	-3.576114	-2.224662	-0.852468	0.512869	0.029236	-0.097001
50900	-3.352638	-7.254988	-0.443111	-2.370987	-4.322696	-3.507579	-0.856299	0.512381	0.004413	-0.064794
50901	-4.336316	-7.088489	1.141036	-3.691542	-2.738732	-2.797313	-0.858692	0.510983	-0.021563	-0.032864
50902	-3.573134	-8.283064	3.220782	-2.889952	-1.220091	-0.762546	-0.858746	0.510425	-0.044773	-0.004029
50903	-2.050337	-10.242905	2.346565	-1.371449	-2.838296	0.419088	-0.857840	0.509120	-0.066610	0.021688
50904	-2.412697	-11.159726	2.571695	-1.741946	-2.987251	1.368355	-0.858104	0.503778	-0.087898	0.046257
50905	-2.597279	-11.120406	5.557602	-1.312195	-0.393521	2.813424	-0.857963	0.497533	-0.107375	0.069499
50906	-1.412066	-11.062487	6.825926	0.270268	0.358576	3.254904	-0.856662	0.491640	-0.125845	0.092643
50907	-2.208593	-10.484591	6.438037	-0.494787	0.434604	2.669972	-0.857156	0.481416	-0.141625	0.116038
50908	-3.895542	-7.952293	8.118868	-1.183433	3.491976	1.621086	-0.857883	0.469820	-0.155428	0.138376
50909	-4.349296	-6.493401	8.436975	-1.156461	4.591328	0.667909	-0.856989	0.462522	-0.164797	0.156477
50910	-3.902876	-6.089290	6.670249	-1.345962	3.302920	-0.643019	-0.855600	0.457159	-0.171038	0.172339
50911	-3.729402	-6.548498	5.374740	-1.809660	2.073538	-0.975009	-0.853995	0.453128	-0.174895	0.186492
50912	-2.808762	-6.468531	4.888701	-1.246052	1.349150	-1.430716	-0.853318	0.447819	-0.177423	0.199568
50913	-2.795347	-5.703325	5.032426	-1.056346	1.816372	-1.986332	-0.853643	0.440120	-0.180266	0.212348
50914	-3.771445	-4.477703	5.461181	-1.423849	3.217044	-2.620941	-0.854339	0.432576	-0.182092	0.223216
50915	-5.278420	-5.467582	6.018350	-2.634327	3.834695	-1.307859	-0.854892	0.427707	-0.182255	0.230236
50916	-6.620590	-7.921539	6.305695	-4.235120	3.412681	0.992946	-0.856193	0.423842	-0.180989	0.233526
50917	-5.765313	-9.164504	5.361925	-4.382048	1.629919	1.328129	-0.857454	0.422468	-0.178596	0.233233
50918	-2.977367	-9.771976	3.710076	-3.121970	-1.325656	0.512832	-0.859249	0.421375	-0.174631	0.231597
50919	-0.813956	-9.138935	2.499290	-1.817040	-2.984647	-0.968555	-0.861350	0.417719	-0.172515	0.232003
50920	-2.159647	-8.329889	4.328428	-1.890616	-0.731574	-0.395921	-0.863590	0.411030	-0.172569	0.235557
50921	-3.881739	-8.129379	5.956023	-2.529563	1.246152	0.612112	-0.865021	0.404573	-0.173087	0.241039
50922	-4.177860	-7.330213	6.616630	-2.266918	2.204258	0.432724	-0.865153	0.399581	-0.174207	0.247985
50923	-4.242347	-6.674501	5.982329	-2.456071	2.222697	-0.465921	-0.863903	0.396476	-0.176199	0.255799
50924	-4.637473	-6.094658	5.619805	-2.769483	2.601894	-1.106767	-0.861819	0.395099	-0.178078	0.263539
50925	-4.450827	-5.759615	5.378872	-2.616593	2.606011	-1.549709	-0.859011	0.396161	-0.179380	0.270147
50926	-3.866199	-6.203550	5.313278	-2.311438	2.063890	-1.323926	-0.855649	0.399311	-0.180335	0.275491
50927	-3.631876	-6.904458	5.376376	-2.299069	1.685346	-0.777183	-0.852173	0.402473	-0.182041	0.280495
50928	-3.356747	-6.923691	5.704155	-1.879418	1.801731	-0.595151	-0.848475	0.406308	-0.183623	0.285107
50929	-2.722696	-7.420078	5.459230	-1.653090	1.119758	-0.416628	-0.844561	0.410658	-0.185283	0.289390
50930	-1.918184	-8.260114	6.102782	-0.933400	0.678866	0.570916	-0.840586	0.415399	-0.186771	0.293215
50931	-0.447406	-9.748164	6.782240	0.077754	-0.482604	2.061038	-0.837198	0.419594	-0.187510	0.296445
50932	1.079607	-9.751922	7.180100	1.467985	-1.151752	2.201362	-0.834428	0.422180	-0.188777	0.299761
50933	1.903295	-8.117861	5.801684	1.890201	-1.673299	0.026458	-0.831394	0.424327	-0.191389	0.303482
50934	1.961127	-7.649273	5.103882	1.727496	-1.856514	-0.758639	-0.827571	0.427383	-0.195295	0.307131
50935	2.485633	-8.376748	5.005301	1.844067	-2.553140	-0.248070	-0.823893	0.430141	-0.199557	0.310413
50936	3.078976	-9.548002	5.132051	1.988190	-3.379946	0.751653	-0.820468	0.431557	-0.204971	0.313972
50937	2.509573	-10.321679	4.537394	1.000495	-3.659455	1.097406	-0.816945	0.432023	-0.211814	0.317949
50938	2.150362	-11.034447	4.163298	0.317179	-3.926203	1.509870	-0.813411	0.432023	-0.218766	0.322274
50939	2.402849	-10.969737	3.694187	0.245174	-4.352770	1.175899	-0.809857	0.430456	-0.226560	0.327887
50940	1.896012	-11.150492	3.833267	-0.085188	-4.034845	1.427171	-0.806564	0.425865	-0.235174	0.335838
50941	0.153697	-10.800925	4.068591	-1.023537	-2.557678	1.396508	-0.804221	0.417482	-0.242758	0.346420
50942	-1.140594	-9.143190	4.087154	-1.309662	-0.951180	0.136342	-0.801148	0.409227	-0.249951	0.358076
50943	-1.086504	-8.636829	3.031488	-1.859308	-1.303382	-0.879085	-0.796274	0.403004	-0.257766	0.370259
50944	-0.151595	-9.151353	1.750272	-2.474746	-2.793713	-1.274329	-0.790061	0.397090	-0.266175	0.383763
50945	0.773844	-9.682629	1.377161	-2.565958	-3.856766	-1.164726	-0.782999	0.389353	-0.275078	0.399561
50946	0.430221	-9.632624	1.249459	-3.012663	-3.525706	-1.267382	-0.775095	0.378300	-0.284230	0.418725
50947	-1.135317	-9.634552	2.299122	-3.195917	-1.723470	-0.527715	-0.766687	0.364811	-0.291372	0.440688
50948	-1.658028	-8.951392	2.546465	-3.113443	-0.827579	-0.925756	-0.757327	0.351701	-0.295663	0.464053
50949	-0.497542	-8.302503	1.821124	-3.061905	-1.686760	-2.049324	-0.744144	0.342438	-0.302223	0.487491
50950	0.106911	-8.062237	1.515701	-3.080714	-2.020346	-2.482595	-0.726096	0.337288	-0.313820	0.510429
50951	0.132916	-9.203321	3.225258	-2.385608	-1.812380	-0.531500	-0.705349	0.331569	-0.326685	0.534623
50952	0.508285	-9.972364	2.199924	-3.583837	-2.159455	-0.483808	-0.680090	0.325897	-0.342707	0.560197
50953	-0.256189	-9.953217	2.133454	-3.702423	-1.032646	-0.384226	-0.651245	0.318599	-0.359985	0.587184
50954	-1.869720	-9.874534	2.993665	-2.816456	0.949123	0.242705	-0.617486	0.312035	-0.379086	0.614524
50955	-0.877615	-9.908439	1.249985	-4.000266	0.529231	-0.636913	-0.578812	0.307838	-0.401087	0.639798
50956	0.115754	-8.751171	1.370506	-3.112239	-0.047419	-1.520218	-0.536841	0.301770	-0.424117	0.663973
50957	-0.374019	-7.124182	3.675000	0.018677	-0.006983	-1.788189	-0.493177	0.293171	-0.445091	0.687547
50958	-2.786280	-4.512208	4.021048	2.535014	1.785973	-3.924831	-0.451550	0.280888	-0.458026	0.712332
50959	-3.185991	-1.635051	6.199929	5.813372	0.499561	-5.664890	-0.415442	0.273997	-0.465367	0.731961
50960	-0.557286	-4.992898	3.546699	1.336937	-0.004946	-3.810330	-0.381638	0.271261	-0.476995	0.743804
50961	-4.605862	-13.846672	0.844161	-0.780985	7.043161	2.969904	-0.347516	0.258807	-0.488862	0.757143
50962	-4.022855	-16.424783	0.429614	-1.617363	7.788878	5.115093	-0.325300	0.246052	-0.488581	0.771315
50963	-5.553551	-24.593275	5.921593	1.251431	8.433814	14.642169	-0.303774	0.223786	-0.492584	0.784221
50964	-9.878510	-16.132025	8.988556	8.530943	6.559127	8.154390	-0.284954	0.198633	-0.485153	0.802479
50965	-21.029194	-13.135950	7.734178	17.115022	13.122141	4.659413	-0.269959	0.177610	-0.479694	0.815764
50966	-10.908937	-0.671139	11.996185	14.872686	-1.102783	-3.416724	-0.276652	0.170603	-0.456500	0.828231
50967	-4.753937	-1.466001	8.995698	8.038650	-2.282216	-3.826115	-0.282355	0.169495	-0.447896	0.831226
50968	-1.862143	-5.391273	6.235243	3.013289	-0.424877	-1.929102	-0.284111	0.171624	-0.445197	0.831640
50969	0.894882	-13.073662	3.921557	-2.828080	2.825934	3.268420	-0.280159	0.172539	-0.446968	0.831842
50970	0.152365	-8.778765	5.590858	0.001398	0.368898	0.589599	-0.277427	0.168430	-0.438694	0.837982
50971	-2.932393	-3.250865	5.701830	4.199046	-0.290834	-3.985116	-0.277062	0.164726	-0.432647	0.841973
50972	-4.307742	-3.257572	5.721926	5.240766	0.574839	-3.972112	-0.278955	0.161725	-0.429667	0.843454
50973	-3.961883	-5.107160	5.421007	4.144574	1.467876	-2.613064	-0.282591	0.161217	-0.429242	0.842557
50974	-2.840969	-7.540421	4.911810	2.120803	2.280030	-0.904356	-0.286350	0.161104	-0.428433	0.841721
50975	-3.101727	-7.366094	5.069647	2.413003	2.288026	-0.951356	-0.289191	0.160335	-0.425524	0.842372
50976	-3.899356	-6.037831	5.564367	3.703869	1.899094	-1.732049	-0.291788	0.159489	-0.421711	0.843554
50977	-4.060240	-4.960604	5.289511	4.032678	1.713005	-2.750483	-0.294383	0.159553	-0.418172	0.844401
50978	-3.853678	-4.435581	5.145627	3.956622	1.480089	-3.243311	-0.297618	0.160405	-0.414644	0.844846
50979	-3.556026	-4.140470	4.878718	3.670956	1.371913	-3.629463	-0.301022	0.161698	-0.411334	0.845011
50980	-3.751400	-4.415702	4.885844	3.692660	1.683500	-3.411695	-0.303937	0.162661	-0.408678	0.845071
50981	-4.469228	-4.522734	5.494276	4.492181	1.891708	-2.967422	-0.306207	0.163918	-0.406437	0.845090
50982	-4.733605	-4.927955	6.112957	4.845394	1.951034	-2.277742	-0.308165	0.165908	-0.404971	0.844694
50983	-5.148471	-5.720833	6.689278	5.160019	2.320658	-1.329196	-0.309984	0.169337	-0.404926	0.843368
50984	-5.339070	-6.546175	6.224275	4.763268	3.156172	-1.012166	-0.312188	0.174156	-0.405191	0.841444
50985	-5.047409	-7.592865	6.956057	4.573039	3.093114	0.238892	-0.314739	0.179250	-0.405795	0.839130
50986	-5.608703	-9.992705	8.631174	5.032369	3.690396	3.104925	-0.317415	0.183810	-0.408106	0.836009
50987	-6.585655	-13.331875	9.951775	5.257704	5.163029	6.492124	-0.321283	0.188181	-0.410857	0.832203
50988	-7.398374	-14.970317	10.409808	5.478485	6.226944	8.031675	-0.328075	0.192646	-0.410815	0.828544
50989	-7.709444	-15.716910	10.749592	5.495091	6.695355	8.814768	-0.338682	0.198068	-0.408169	0.824294
50990	-7.697316	-15.835818	10.269269	4.898054	7.197137	8.617564	-0.353377	0.203731	-0.401978	0.819776
50991	-6.564745	-14.244773	8.279066	3.203703	6.967298	6.178534	-0.372332	0.211021	-0.391501	0.814596
50992	-3.810113	-11.510902	5.874614	0.754021	5.102292	2.633589	-0.394090	0.220277	-0.378320	0.808112
50993	-0.104560	-9.024501	3.660861	-1.989338	2.204863	-0.537380	-0.418229	0.231947	-0.362633	0.799864
50994	3.894414	-8.355971	2.077263	-4.991801	-0.880956	-1.837403	-0.442716	0.242525	-0.349186	0.789464
50995	4.620147	-8.369984	2.812710	-4.816858	-1.987267	-1.318216	-0.465328	0.251176	-0.340355	0.777521
50996	3.582450	-9.473476	3.731642	-4.265353	-1.217562	0.027199	-0.485928	0.258542	-0.335657	0.764437
50997	1.855163	-10.768325	5.077619	-3.368222	0.162806	1.754703	-0.506793	0.264469	-0.329450	0.751452
50998	2.272085	-10.918023	5.506374	-3.369498	-0.485922	2.149431	-0.529132	0.269791	-0.319185	0.738481
50999	2.806606	-8.692397	5.932887	-1.934833	-1.730327	0.765366	-0.552494	0.273350	-0.304857	0.726011
51000	3.725745	-5.686959	6.094562	-0.122414	-3.285643	-1.294728	-0.575356	0.277026	-0.291185	0.712344
51001	4.129315	-5.390723	6.039877	0.056503	-3.720058	-1.521264	-0.596345	0.281676	-0.281183	0.697113
51002	2.793899	-5.230019	6.283024	0.641172	-2.433802	-1.548318	-0.614598	0.287219	-0.274791	0.681369
51003	2.754242	-6.682654	5.063730	-1.109213	-2.268228	-1.356461	-0.631302	0.294152	-0.269406	0.665096
51004	2.385737	-6.354760	4.505706	-1.157116	-2.003197	-2.000960	-0.646224	0.299316	-0.264295	0.650348
51005	1.296575	-5.235864	3.994466	-0.696479	-1.024940	-3.216080	-0.659642	0.303888	-0.259070	0.636716
51006	1.159049	-4.491766	3.777456	-0.306319	-0.931675	-3.911285	-0.672356	0.308332	-0.253405	0.623422
51007	1.153487	-3.692653	3.898203	0.374393	-0.890926	-4.406389	-0.683927	0.314057	-0.248348	0.609865
51008	1.819052	-3.681077	4.139986	0.719364	-1.494146	-4.222715	-0.693572	0.321863	-0.245017	0.596095
51009	2.296161	-4.413180	3.752976	0.146625	-2.055802	-3.931878	-0.701438	0.330283	-0.242995	0.582967
51010	3.161696	-5.302661	1.999758	-1.375545	-3.306847	-4.401261	-0.707982	0.339150	-0.241714	0.570363
51011	3.199874	-4.933636	1.666063	-1.203613	-3.390898	-4.872358	-0.714059	0.346215	-0.240912	0.558763
51012	2.647146	-4.935904	2.369666	-0.689502	-2.725819	-4.420238	-0.719406	0.353023	-0.241855	0.547116
51013	1.689721	-6.189124	4.505199	-0.041748	-1.518686	-2.121975	-0.724966	0.358536	-0.244036	0.535091
51014	0.819066	-9.173547	4.876044	-1.670130	-1.173552	0.406374	-0.730255	0.365215	-0.247339	0.521698
51015	0.534333	-11.071765	6.501912	-1.480889	-0.922854	2.918994	-0.737169	0.370643	-0.247711	0.507784
51016	0.962358	-11.339552	6.558146	-1.267229	-1.453077	3.179660	-0.744773	0.375490	-0.245479	0.494025
51017	1.512680	-10.809100	6.473539	-0.691448	-1.933539	2.709841	-0.752883	0.378936	-0.241304	0.480985
51018	1.437098	-8.475795	5.527246	-0.036945	-1.639456	0.275179	-0.760137	0.381341	-0.237765	0.469296
51019	0.873432	-6.990026	4.275123	-0.299474	-1.201461	-1.666144	-0.766214	0.385443	-0.235250	0.457173
51020	-0.140660	-5.923965	4.746900	0.185988	0.169819	-2.224367	-0.772645	0.390820	-0.231438	0.443526
51021	0.744591	-6.598201	4.599938	0.262060	-0.838567	-1.782941	-0.778431	0.398895	-0.228055	0.427690
51022	0.808375	-9.040678	4.448612	-0.851450	-1.709020	0.113461	-0.783797	0.408315	-0.224255	0.410671
51023	0.358316	-10.554374	4.944254	-1.290887	-1.613829	1.663178	-0.789845	0.415810	-0.219405	0.393837
51024	-0.135539	-11.952113	4.393949	-2.421902	-2.002578	2.528313	-0.796244	0.422279	-0.212511	0.377511
51025	-0.118744	-12.040039	4.535646	-2.248554	-2.036657	2.691068	-0.803101	0.427002	-0.203791	0.362171
51026	-0.485222	-11.787415	4.615393	-2.274191	-1.699761	2.533099	-0.810275	0.430374	-0.194686	0.346884
51027	-0.632083	-10.852096	4.808748	-1.862113	-1.213413	1.864246	-0.818005	0.432277	-0.184750	0.331470
51028	-0.728614	-8.432178	4.900590	-0.956341	-0.163172	-0.080946	-0.824761	0.434857	-0.174391	0.316633
51029	0.411145	-8.925396	4.779479	-0.375938	-1.217713	0.239716	-0.829338	0.439818	-0.165095	0.302494
51030	1.300075	-10.699389	5.542045	0.119479	-2.058227	2.130101	-0.832527	0.443464	-0.159551	0.291174
51031	-0.286729	-10.829291	3.611165	-2.077502	-2.365266	1.163858	-0.834698	0.444240	-0.159521	0.283697
51032	-0.269267	-10.913705	2.851237	-2.407123	-2.972083	0.802527	-0.837570	0.444014	-0.156941	0.276944
51033	0.657152	-9.553693	5.818712	0.289143	-1.086089	1.336180	-0.842152	0.438685	-0.154623	0.272813
51034	-3.421932	-5.197578	7.202263	-0.919295	4.158286	-1.300495	-0.847517	0.430689	-0.152859	0.269920
51035	-1.563849	-4.217443	6.363797	0.422535	2.908559	-2.595231	-0.850953	0.429233	-0.149383	0.263293
51036	1.573279	-6.078202	4.523640	1.475515	-1.048784	-2.288998	-0.853933	0.428060	-0.147311	0.256636
51037	3.058964	-7.574177	3.964097	2.001248	-3.036655	-1.493263	-0.856050	0.427006	-0.147386	0.251239
51038	1.529884	-7.819689	5.137862	1.260073	-1.599746	-0.553210	-0.858026	0.424118	-0.149952	0.247848
51039	1.353484	-7.859606	5.196502	1.182455	-1.550327	-0.495674	-0.859282	0.422399	-0.152280	0.244999
51040	1.471670	-7.476572	5.319850	1.501691	-1.390455	-0.747548	-0.860357	0.420012	-0.155282	0.243439
51041	0.954718	-6.625800	5.469217	1.434056	-0.613585	-1.310239	-0.861249	0.417702	-0.158261	0.242338
51042	0.545805	-6.554449	5.603095	1.217423	-0.306109	-1.264158	-0.861639	0.416945	-0.160466	0.240804
51043	0.739552	-7.002438	5.736973	1.352416	-0.579622	-0.850053	-0.861640	0.417992	-0.161337	0.238389
51044	1.013249	-7.397220	5.661760	1.467543	-0.972771	-0.609375	-0.861671	0.419705	-0.160993	0.235481
51045	0.409018	-7.241855	5.990209	1.183846	-0.316970	-0.485723	-0.861698	0.421829	-0.159777	0.232395
51046	-0.317592	-7.033460	6.154152	0.714849	0.332159	-0.494826	-0.861984	0.424226	-0.157440	0.228535
51047	-1.034115	-6.772943	7.025741	0.570842	1.469971	-0.126810	-0.862469	0.427420	-0.153809	0.223163
51048	-0.927885	-7.419792	7.051561	0.480264	1.154963	0.388953	-0.862871	0.432322	-0.148590	0.215574
51049	-1.389114	-7.560275	6.624375	-0.172907	1.114805	0.271768	-0.863273	0.437997	-0.142116	0.206694
51050	-1.227302	-8.396688	6.012936	-0.526628	0.260170	0.570958	-0.863640	0.444222	-0.134161	0.196962
51051	-1.777374	-8.562795	6.659304	-0.840026	0.969577	1.104285	-0.864369	0.449389	-0.125883	0.187268
51052	-2.522466	-9.617338	6.970778	-1.691080	1.027862	2.167737	-0.864997	0.454579	-0.116980	0.177351
51053	-3.227551	-10.130102	7.201434	-2.460050	1.268929	2.726575	-0.865928	0.459362	-0.106348	0.166872
51054	-3.747029	-9.196588	7.008908	-2.970682	1.833710	1.830004	-0.867382	0.462953	-0.094530	0.156167
51055	-4.699814	-7.482413	6.471634	-3.887230	2.634318	0.081892	-0.868980	0.466344	-0.081454	0.144088
51056	-4.494890	-7.518665	5.584757	-4.122823	1.771119	-0.443259	-0.870404	0.470285	-0.067470	0.129139
51057	-3.572108	-8.279459	4.634487	-3.712777	0.235656	-0.381576	-0.872021	0.473641	-0.053167	0.111426
51058	-2.617192	-8.966997	5.075783	-2.870328	-0.122738	0.422801	-0.873871	0.475735	-0.039017	0.092214
51059	-1.247899	-9.332685	5.601178	-1.538705	-0.263961	1.031267	-0.876312	0.475678	-0.025529	0.071801
51060	-1.892146	-8.831169	5.960180	-2.115150	0.278260	0.795800	-0.879105	0.473669	-0.013706	0.051228
51061	-3.218485	-8.528308	5.177773	-3.490470	-0.254984	0.068966	-0.881490	0.471266	-0.000738	0.029727
51062	-3.339245	-8.525896	4.486588	-3.632465	-1.059893	-0.344464	-0.883388	0.468383	0.014008	0.006833
51063	-2.804907	-8.527818	4.328802	-3.068895	-1.429100	-0.439055	-0.884343	0.465593	0.029348	-0.017307
51064	-1.922397	-8.836487	3.537445	-2.067066	-2.392654	-0.631610	-0.884313	0.462805	0.045132	-0.042002
51065	-1.234681	-9.248545	2.162187	-1.068777	-3.790319	-1.082136	-0.883491	0.459703	0.060423	-0.066825
51066	-0.743735	-9.275468	2.668788	-0.484036	-3.400918	-0.762483	-0.882180	0.455699	0.075010	-0.092037
51067	-0.558585	-9.108647	3.770640	-0.397708	-2.467050	-0.260160	-0.880251	0.451435	0.088207	-0.116552
51068	-0.581117	-9.003062	4.737974	-0.545573	-1.763085	0.208903	-0.879117	0.444659	0.098681	-0.140333
51069	-0.498640	-8.268785	4.718519	-0.426160	-1.450458	-0.400111	-0.878550	0.436584	0.104943	-0.162883
51070	-0.822474	-8.658708	3.249746	0.027608	-2.938715	-1.005351	-0.876107	0.431879	0.109390	-0.184255
51071	-1.251667	-9.285627	4.972150	-0.602044	-2.268384	0.531431	-0.871790	0.429178	0.115444	-0.206062
51072	-0.436104	-8.821244	4.432354	0.350138	-1.975748	-0.136813	-0.865672	0.429498	0.123022	-0.225852
51073	-0.531893	-9.190204	2.639074	1.204673	-3.343319	-0.920211	-0.859483	0.430888	0.130474	-0.242078
51074	-0.967887	-8.253060	2.313530	0.779084	-3.176449	-1.831261	-0.851425	0.434804	0.139352	-0.258074
51075	-2.360834	-6.935755	2.911621	-1.002287	-2.795201	-2.509469	-0.841296	0.439778	0.149876	-0.276323
51076	-2.711286	-5.839244	2.604298	-1.441288	-2.623018	-3.545949	-0.828277	0.446156	0.163501	-0.296933
51077	-2.144911	-6.198785	3.087464	-1.103800	-2.032406	-2.941873	-0.812301	0.453602	0.180280	-0.319236
51078	-0.428700	-6.756439	2.601511	0.618568	-1.238119	-2.693534	-0.795791	0.459000	0.196947	-0.342414
51079	0.772955	-6.211743	1.552454	1.870206	-0.596115	-3.669687	-0.780863	0.461586	0.210312	-0.364637
51080	1.223127	-6.305327	2.076389	1.831071	0.222685	-3.319717	-0.766877	0.462571	0.220200	-0.386576
51081	1.472849	-7.196606	-0.643702	4.228061	-1.032783	-3.860939	-0.753213	0.463642	0.227614	-0.407306
51082	0.310469	-6.122828	2.716721	0.761399	0.218902	-3.154107	-0.741144	0.464314	0.232625	-0.425445
51083	0.586815	-12.445721	4.505322	2.271433	0.183638	3.238727	-0.728074	0.463363	0.241302	-0.443821
51084	1.321062	-14.109374	5.056222	2.993092	1.004607	4.898257	-0.720335	0.459235	0.243089	-0.459487
51085	1.248096	-13.170302	6.493749	1.495941	1.898880	4.724777	-0.712694	0.458287	0.246737	-0.470277
51086	3.005554	-15.024951	6.598213	2.955201	3.378047	6.255061	-0.706750	0.457209	0.251995	-0.477455
51087	3.834888	-14.675935	5.801587	3.686566	3.911143	5.512449	-0.704702	0.456015	0.254584	-0.480241
51088	2.509852	-14.580387	5.939642	2.960655	2.773442	5.605123	-0.704782	0.455380	0.255328	-0.480333
51089	1.613940	-13.536472	6.545744	1.653626	2.314908	5.039727	-0.705926	0.455019	0.254151	-0.479618
51090	1.182612	-11.178997	6.088319	0.811444	2.032906	2.782734	-0.708815	0.455187	0.250895	-0.476904
51091	1.683636	-9.973596	5.290205	1.144667	2.288730	1.311367	-0.711935	0.454422	0.249505	-0.473705
51092	1.517415	-7.867122	5.354038	0.114842	2.413016	-0.484059	-0.716710	0.452896	0.246218	-0.469669
51093	1.093827	-6.886840	5.514629	-0.570183	2.204073	-1.218944	-0.721419	0.450829	0.242849	-0.466189
51094	0.411146	-6.248822	5.534729	-1.105535	1.668439	-1.698297	-0.726327	0.447858	0.238763	-0.463535
51095	0.471777	-6.233041	5.613526	-1.061159	1.720703	-1.658088	-0.730712	0.445067	0.235204	-0.461144
51096	0.859638	-6.306515	5.523482	-0.700033	1.973125	-1.649597	-0.734933	0.442561	0.231676	-0.458628
51097	0.647433	-6.733447	5.811188	-0.723953	1.791736	-1.106766	-0.739595	0.439861	0.227441	-0.455843
51098	0.048064	-6.564784	6.502716	-1.503974	1.576278	-0.832905	-0.744211	0.437356	0.222652	-0.453095
51099	0.021944	-5.542192	6.311081	-1.782841	1.662041	-1.775000	-0.748434	0.434505	0.218105	-0.451090
51100	0.257551	-5.110139	6.731291	-2.091349	2.128415	-1.901584	-0.752021	0.431522	0.214587	-0.449672
51101	-0.177817	-5.100605	6.853775	-2.327216	1.789050	-1.787421	-0.754875	0.428882	0.211562	-0.448848
51102	-0.670314	-5.693511	6.486070	-1.965326	1.039125	-1.446566	-0.756581	0.426893	0.209800	-0.448700
51103	-0.443478	-6.858587	5.732762	-0.695278	0.587325	-0.909154	-0.757852	0.424877	0.208929	-0.448875
51104	-0.295102	-7.608506	4.442457	0.694425	-0.091052	-1.025138	-0.759549	0.421882	0.208076	-0.449229
51105	-0.413284	-7.209654	3.547007	1.096701	-0.553678	-1.861512	-0.762148	0.417217	0.206755	-0.449793
51106	-0.515782	-6.532858	2.952344	1.152122	-0.792472	-2.762524	-0.764781	0.413492	0.204883	-0.449619
51107	-1.312808	-6.554808	3.008929	0.764475	-1.501644	-2.678062	-0.767797	0.409964	0.202328	-0.448865
51108	-1.496020	-6.784520	3.128163	0.761920	-1.717310	-2.428719	-0.771479	0.405975	0.199387	-0.447492
51109	-2.165618	-6.724418	3.036569	0.496242	-2.375114	-2.516095	-0.776104	0.400898	0.195744	-0.445677
51110	-2.703136	-6.998175	4.007843	-0.213875	-2.552826	-1.702164	-0.780992	0.395358	0.192557	-0.443469
51111	-2.643291	-7.343733	4.936826	-0.519775	-2.277744	-0.877914	-0.786324	0.389725	0.188352	-0.440832
51112	-2.598017	-7.760606	5.231102	-0.378432	-2.306384	-0.385176	-0.791404	0.386605	0.182885	-0.436772
51113	-3.041741	-8.702017	5.513235	-0.229461	-2.885821	0.531024	-0.796459	0.385877	0.176715	-0.430724
51114	-3.155752	-9.918626	6.564192	-0.255635	-2.897243	2.144193	-0.801099	0.388105	0.170705	-0.422463
51115	-3.163771	-10.559570	6.511659	0.079014	-3.100288	2.608944	-0.805957	0.392335	0.163200	-0.412155
51116	-3.580937	-10.825659	5.955145	0.202520	-3.728077	2.497491	-0.810527	0.397535	0.156347	-0.400708
51117	-2.691542	-12.492021	5.297597	1.875934	-3.933390	3.316138	-0.815117	0.404126	0.149409	-0.387225
51118	-1.613315	-11.775854	5.380471	2.012504	-2.770631	2.776784	-0.821022	0.410915	0.140215	-0.370691
51119	-0.491681	-10.414958	6.223876	1.531546	-0.892967	2.200018	-0.826444	0.420338	0.130754	-0.351013
51120	1.550968	-11.452848	5.496760	3.754601	-0.306443	2.418244	-0.831514	0.431500	0.119837	-0.328682
51121	1.224601	-11.638540	5.248215	3.631785	-0.779512	2.463350	-0.837751	0.440147	0.105572	-0.305448
51122	-0.562905	-10.279980	5.050511	1.650980	-1.372636	1.451899	-0.842361	0.450867	0.090292	-0.281059
51123	0.746792	-10.163018	3.449097	3.201860	-1.664775	0.322175	-0.845739	0.463053	0.074984	-0.254332
51124	2.243489	-10.695324	2.471797	4.869027	-1.960417	0.085653	-0.849887	0.472981	0.058680	-0.224808
51125	2.116133	-9.944297	2.372552	4.368742	-1.956672	-0.535081	-0.855751	0.478578	0.040487	-0.192389
51126	0.823752	-8.407900	3.172119	2.393444	-1.252681	-1.202610	-0.861264	0.482422	0.020946	-0.158284
51127	-0.823903	-7.649775	4.041083	0.400480	-0.702017	-1.159665	-0.865326	0.485619	0.000735	-0.124035
51128	-2.106296	-7.657113	4.605640	-0.942948	-0.427545	-0.690940	-0.867662	0.488320	-0.018616	-0.091433
51129	-3.122751	-9.068069	4.884233	-1.746724	-0.904859	0.768640	-0.869032	0.489649	-0.036149	-0.061000
51130	-2.923110	-9.486646	6.242646	-1.535469	0.182773	1.811407	-0.870445	0.488727	-0.048722	-0.033122
51131	-1.900295	-9.376111	6.994268	-0.557866	0.947071	1.987041	-0.871469	0.487118	-0.056615	-0.007283
51132	-1.258462	-9.186274	4.963344	-0.251693	-0.667585	0.679918	-0.871322	0.486109	-0.064232	0.019235
51133	-2.552562	-8.507456	4.290728	-1.813141	-0.706838	-0.142479	-0.872467	0.481164	-0.071565	0.046492
51134	-2.612200	-7.726961	4.498936	-1.978174	-0.068993	-0.710465	-0.873393	0.475306	-0.077977	0.072028
51135	-2.643583	-8.067679	3.409864	-2.398944	-1.116002	-1.054811	-0.874879	0.466456	-0.086201	0.097856
51136	-2.963071	-8.808949	3.238607	-2.990794	-1.568257	-0.568302	-0.875875	0.456281	-0.095861	0.124347
51137	-2.989739	-9.184216	3.467427	-3.178754	-1.571042	-0.182733	-0.876023	0.446065	-0.105584	0.149873
51138	-2.382393	-8.889744	3.771687	-2.624757	-1.392496	-0.320662	-0.875850	0.435183	-0.115197	0.173876
51139	-2.152504	-7.943953	3.832448	-2.313731	-0.910211	-1.080860	-0.874168	0.426078	-0.125331	0.196419
51140	-1.848785	-8.273141	2.871496	-2.579566	-1.846174	-1.443425	-0.870048	0.421544	-0.135674	0.216586
51141	-1.529554	-7.936152	2.149839	-2.598495	-2.197623	-2.173274	-0.865352	0.418451	-0.144991	0.234610
51142	-0.519299	-5.622802	3.202469	-0.652419	-0.703836	-3.392398	-0.859827	0.417688	-0.153027	0.250634
51143	0.480564	-4.793524	2.665587	0.169843	-1.107830	-4.422162	-0.852290	0.420849	-0.161931	0.265079
51144	-0.638746	-3.444766	1.814819	-0.705195	-0.217042	-5.936746	-0.843975	0.426322	-0.170562	0.277244
51145	-0.345096	-4.355064	4.317652	0.599498	0.789038	-3.750983	-0.834818	0.433110	-0.179731	0.288429
51146	-0.180668	-6.346172	8.209828	2.344310	2.159896	0.063712	-0.827771	0.432983	-0.192031	0.300742
51147	-2.231248	-4.045459	6.024416	0.511120	3.223932	-2.958421	-0.822723	0.430007	-0.201787	0.312255
51148	-4.796813	-4.308846	4.977838	-1.925780	4.288119	-3.160145	-0.818113	0.428526	-0.207735	0.322340
51149	-1.326694	-3.537033	3.842287	0.166242	1.594760	-4.668504	-0.812893	0.431674	-0.208244	0.330902
51150	1.490829	-5.963581	6.060130	2.667907	-0.109433	-1.604147	-0.802898	0.440472	-0.214682	0.339486
51151	-1.498404	-10.807858	8.435853	0.553808	1.676371	3.865621	-0.794539	0.445310	-0.221954	0.348056
51152	-6.303884	-15.280246	9.470510	-3.327988	4.393177	8.422763	-0.788564	0.447477	-0.228761	0.354400
51153	-8.232987	-17.256717	10.425346	-4.562328	5.745714	10.691824	-0.789388	0.444577	-0.227882	0.356775
51154	-7.856959	-11.927429	9.654437	-3.034169	6.830509	5.722262	-0.793901	0.438811	-0.223954	0.356385
51155	-7.382923	-9.029683	7.573672	-3.177280	6.322850	2.159311	-0.796354	0.440930	-0.220326	0.350512
51156	-4.198983	-10.967725	5.310409	-3.363982	1.945997	2.476310	-0.799330	0.445346	-0.214748	0.341500
51157	-2.209445	-9.614261	4.666371	-2.007336	0.563938	0.899072	-0.804890	0.444392	-0.208225	0.333631
51158	-1.325284	-6.649682	5.267811	-0.047801	1.325419	-1.329542	-0.811603	0.440576	-0.201610	0.326414
51159	-1.408059	-5.330504	5.493165	0.405703	1.975026	-2.295680	-0.817374	0.437799	-0.195761	0.319232
51160	-1.291118	-5.407933	5.344984	0.291521	1.734099	-2.303426	-0.821707	0.437228	-0.190162	0.312197
51161	-0.892598	-5.745993	4.628653	-0.012564	0.877851	-2.432536	-0.825182	0.438099	-0.184464	0.305151
51162	-0.668465	-5.723355	5.129611	0.401113	1.052946	-2.180735	-0.827968	0.440670	-0.178151	0.297559
51163	-0.470414	-5.887309	5.977701	0.912392	1.420509	-1.580818	-0.830531	0.444240	-0.170963	0.289207
51164	0.044931	-6.307117	6.173753	1.216781	1.112022	-1.142122	-0.832683	0.449250	-0.162663	0.279919
51165	0.152723	-6.375895	6.197700	1.227404	1.150484	-1.080294	-0.834330	0.455855	-0.152683	0.269771
51166	0.829873	-6.807051	5.958467	1.453439	0.561094	-0.862973	-0.835064	0.464297	-0.141512	0.258979
51167	1.310228	-7.580929	5.725296	1.454220	-0.007176	-0.333923	-0.834763	0.473950	-0.130139	0.248205
51168	0.814283	-7.972921	6.004400	1.006345	0.519491	0.136995	-0.833760	0.483907	-0.119341	0.237562
51169	0.065554	-8.898551	5.647409	-0.094405	0.470488	0.715707	-0.832292	0.494524	-0.107985	0.225998
51170	0.311664	-9.689081	5.543807	-0.183368	0.178705	1.351464	-0.830573	0.505365	-0.095137	0.213786
51171	1.146536	-10.837858	5.205889	0.083077	-0.674388	2.245791	-0.828629	0.515605	-0.081812	0.202070
51172	1.247326	-11.122848	5.140046	0.015518	-0.636052	2.487077	-0.827612	0.523475	-0.067728	0.190909
51173	1.190528	-10.336733	4.627138	-0.092733	-0.562448	1.560470	-0.827963	0.528164	-0.053820	0.180623
51174	0.442668	-8.315781	4.228192	-0.506084	0.222167	-0.489634	-0.829896	0.529531	-0.040946	0.170859
51175	0.183242	-6.941627	4.598168	-0.424415	1.169292	-1.577715	-0.832272	0.529594	-0.030247	0.161053
51176	0.096617	-7.092858	5.512929	-0.432563	1.905289	-1.043858	-0.835197	0.528481	-0.021535	0.150633
51177	0.529803	-7.926346	6.268334	-0.140842	2.056317	0.094418	-0.838630	0.526322	-0.014516	0.139548
51178	0.570277	-8.264696	6.415748	-0.208722	1.938410	0.482435	-0.843669	0.521400	-0.008158	0.127667
51179	0.261786	-7.877738	5.023224	-0.656558	0.819427	-0.525303	-0.849198	0.515444	-0.002542	0.114774
51180	0.106086	-8.182267	5.517018	-0.796320	0.986908	-0.025551	-0.854139	0.509927	0.001460	0.102076
51181	0.410991	-7.818483	5.196766	-0.434109	0.695699	-0.451577	-0.857973	0.505685	0.004416	0.090253
51182	0.226569	-7.324241	5.122361	-0.491537	0.800811	-0.921649	-0.861069	0.502367	0.005880	0.078444
51183	-0.055799	-7.285120	5.554582	-0.666015	1.156567	-0.749164	-0.863123	0.500692	0.006660	0.065440
51184	-0.721588	-7.973460	5.358797	-1.326147	0.673967	-0.294312	-0.863686	0.501397	0.007401	0.050929
51185	-0.659465	-8.496966	4.641420	-1.219453	-0.228742	-0.187974	-0.863675	0.502739	0.008743	0.035253
51186	-0.636494	-8.706580	4.532208	-1.068539	-0.441797	-0.044801	-0.863783	0.503375	0.009143	0.020197
51187	-0.862880	-8.406800	6.011895	-1.139886	0.979149	0.449017	-0.863608	0.504035	0.009896	0.005692
51188	-0.043576	-9.797634	5.531406	-0.216040	-0.128039	1.435740	-0.862872	0.505273	0.010091	-0.007038
51189	0.675880	-10.426030	4.548969	0.683288	-1.297710	1.487677	-0.864620	0.502091	0.007934	-0.016565
51190	1.150023	-9.392756	4.112953	1.310246	-1.218497	0.348927	-0.867248	0.497335	0.003402	-0.022981
51191	0.852494	-7.164274	2.760428	1.095955	-1.306129	-2.278405	-0.868303	0.495292	-0.002054	-0.027034
51192	0.630292	-7.139894	3.096760	0.969529	-1.049558	-2.136575	-0.869456	0.493010	-0.007715	-0.030446
51193	-0.068775	-7.656520	2.029791	0.422906	-2.272762	-2.236290	-0.869120	0.493274	-0.014909	-0.032998
51194	-0.395108	-7.865091	2.141424	0.229421	-2.300673	-1.986170	-0.869301	0.492446	-0.023463	-0.035525
51195	-0.695502	-6.724328	2.943596	-0.031026	-1.040956	-2.513434	-0.869370	0.491584	-0.031776	-0.039131
51196	-1.581241	-6.452955	3.682540	-0.794240	-0.289312	-2.263779	-0.867905	0.493223	-0.038596	-0.044521
51197	-3.692192	-6.025912	6.838583	-2.728187	2.595428	-0.728130	-0.865254	0.496833	-0.044023	-0.050544
51198	-4.767492	-7.701702	6.211168	-3.493038	1.239982	0.525761	-0.860989	0.503275	-0.044932	-0.058244
51199	-4.630978	-8.655199	6.698789	-3.169111	1.290279	1.568153	-0.857191	0.508987	-0.041638	-0.066498
51200	-4.160449	-9.638824	6.521600	-2.585686	0.742590	2.250060	-0.854834	0.512286	-0.034047	-0.075246
51201	-2.947369	-9.547452	7.039969	-1.502375	1.336139	2.243778	-0.854316	0.512446	-0.025398	-0.083057
51202	-1.721197	-9.414992	6.068120	-0.394983	0.653769	1.494038	-0.853806	0.512489	-0.015813	-0.090113
51203	-1.562689	-8.798203	5.748964	-0.434102	0.652901	0.783786	-0.853901	0.511564	-0.007628	-0.095379
51204	-2.901800	-7.757149	5.936140	-2.037887	1.042616	0.116584	-0.854073	0.510359	-0.000162	-0.100464
51205	-3.562516	-8.096313	5.576961	-2.691587	0.411746	0.283301	-0.852130	0.512164	0.009494	-0.107111
51206	-1.504402	-9.717437	4.251190	-0.347098	-1.070589	0.840776	-0.848712	0.516029	0.020568	-0.113927
51207	1.174472	-10.852397	3.950175	2.387217	-1.182832	1.485878	-0.846001	0.519007	0.030186	-0.118336
51208	2.069158	-10.415527	4.941259	2.909875	0.117661	1.531860	-0.846466	0.517566	0.035641	-0.119792
51209	0.449847	-8.604753	4.994322	0.971092	0.535317	0.084647	-0.848389	0.514155	0.037906	-0.120185
51210	-1.159873	-7.588331	5.786380	-0.933281	1.215797	-0.322658	-0.849575	0.511561	0.040955	-0.121863
51211	-0.192351	-7.864551	4.836051	0.196345	0.467459	-0.592151	-0.850015	0.509963	0.044523	-0.124218
51212	0.153786	-8.469335	3.826906	0.813879	-0.624867	-0.574431	-0.851194	0.507111	0.047084	-0.126848
51213	0.982942	-8.121202	3.334274	1.652929	-0.693289	-1.162563	-0.851305	0.506305	0.048532	-0.128763
51214	0.837462	-8.973613	3.867230	1.552603	-0.689331	-0.153663	-0.851749	0.505607	0.048191	-0.128699
51215	-0.150996	-8.488547	4.173049	0.468411	-0.491486	-0.377038	-0.852830	0.504218	0.046296	-0.127679
51216	-1.199963	-8.687538	4.519552	-0.553724	-0.589020	0.020214	-0.853325	0.503572	0.044693	-0.127490
51217	-0.929639	-9.401506	4.395712	-0.116377	-0.958653	0.562388	-0.853073	0.503874	0.043595	-0.128361
51218	-0.255214	-9.821459	3.272809	0.864397	-1.906959	0.328990	-0.852512	0.504873	0.041456	-0.128871
51219	0.171573	-9.502197	2.725332	1.353797	-2.078874	-0.242211	-0.851850	0.506560	0.038516	-0.127533
51220	0.546312	-8.915837	2.311434	1.689942	-2.045836	-0.975721	-0.851999	0.507358	0.036221	-0.123993
51221	0.231980	-8.065713	1.874214	1.286604	-2.102483	-1.904067	-0.852346	0.508266	0.034016	-0.118382
51222	0.177245	-8.204647	2.369808	1.123991	-1.749200	-1.527742	-0.851961	0.510535	0.031757	-0.111842
51223	-0.482642	-9.864904	3.228969	0.566843	-1.923736	0.383065	-0.852856	0.510732	0.027523	-0.105029
51224	-1.238934	-9.623460	4.012366	-0.339613	-1.298811	0.600898	-0.853963	0.510468	0.022246	-0.098364
51225	-1.866162	-9.682580	3.867564	-0.923599	-1.581146	0.619948	-0.855883	0.508934	0.015847	-0.090555
51226	-2.155099	-8.263454	3.636940	-1.387297	-1.169474	-0.709712	-0.857765	0.507213	0.011140	-0.082770
51227	-1.497943	-8.711357	3.255905	-0.680552	-1.621911	-0.558583	-0.858636	0.506929	0.009066	-0.075405
51228	-0.246613	-10.134468	3.164634	0.659193	-2.222944	0.551017	-0.858974	0.507414	0.008423	-0.067999
51229	-0.134047	-10.647576	3.191535	0.721567	-2.466143	1.002622	-0.860542	0.505890	0.006945	-0.059110
51230	-1.418038	-9.664752	3.755284	-0.789269	-1.690571	0.484805	-0.862857	0.503028	0.004936	-0.049160
51231	-2.567626	-8.526649	3.594544	-2.116206	-1.412736	-0.552994	-0.865454	0.499422	0.004291	-0.039353
51232	-2.557284	-7.927424	3.903817	-2.264465	-0.875898	-0.939841	-0.867073	0.497155	0.006256	-0.031326
51233	-1.045408	-8.171795	4.633762	-0.892317	-0.313418	-0.408065	-0.867952	0.495898	0.010614	-0.025145
51234	0.608710	-8.952079	4.671720	0.653290	-0.634725	0.262227	-0.868989	0.494213	0.014928	-0.019714
51235	0.603835	-8.146858	4.853247	0.512000	-0.134697	-0.325432	-0.871524	0.489813	0.017757	-0.014609
51236	-1.072280	-6.122013	4.651653	-1.240307	0.595780	-2.172512	-0.875028	0.483549	0.019543	-0.011159
51237	-2.847746	-4.474096	5.377253	-3.086065	1.939493	-3.197861	-0.877620	0.478707	0.022148	-0.011502
51238	-3.361182	-4.440322	6.018825	-3.677853	2.389185	-2.884158	-0.878561	0.476554	0.027446	-0.016554
51239	-2.179310	-5.829721	6.164786	-2.570185	1.729121	-1.618595	-0.878282	0.476171	0.034760	-0.025949
51240	-1.934916	-7.377816	6.080174	-2.357092	0.760489	-0.378179	-0.877257	0.476503	0.043017	-0.038916
51241	-2.630016	-6.163812	6.045010	-3.130568	1.265950	-1.443227	-0.874973	0.478111	0.052542	-0.055417
51242	-5.568906	-5.314641	5.543898	-6.057244	0.730849	-2.548850	-0.871894	0.479420	0.064233	-0.076365
51243	-7.243123	-4.690810	5.710551	-7.819829	0.563527	-3.060144	-0.865944	0.483015	0.079036	-0.102908
51244	-7.719090	-6.164742	4.294229	-7.749454	-1.904224	-2.578774	-0.858266	0.485900	0.095572	-0.134708
51245	-7.773019	-7.215853	4.644542	-7.569406	-2.622117	-1.454029	-0.847370	0.489910	0.113069	-0.170783
51246	-4.363689	-12.602599	1.620352	-1.988211	-6.329569	1.868324	-0.831727	0.496660	0.132560	-0.209733
51247	0.039498	-14.089287	0.971585	2.989465	-4.954883	3.068060	-0.814276	0.501953	0.151705	-0.248965
51248	3.741393	-14.800059	-0.922317	7.606890	-3.773928	2.903284	-0.797467	0.503923	0.167444	-0.286479
51249	2.633972	-10.919606	0.108210	5.341030	-1.679598	-0.075681	-0.783122	0.502970	0.178208	-0.319348
51250	2.769838	-8.502226	2.603235	3.281441	1.268036	-1.190035	-0.768880	0.501175	0.188391	-0.349508
51251	5.059745	-9.524192	4.040443	4.200159	3.966562	0.149364	-0.753833	0.500074	0.200213	-0.376266
51252	9.213724	-15.265075	1.935644	10.249954	5.096808	3.992818	-0.743708	0.496637	0.207350	-0.396555
51253	6.482424	-14.615501	7.080869	4.947711	6.230696	5.758120	-0.748004	0.483481	0.199451	-0.408603
51254	-3.841480	-9.340121	12.115696	-6.288235	1.631991	4.558602	-0.754031	0.467569	0.188603	-0.421005
51255	-9.933302	-9.652133	10.139330	-7.724776	-4.928915	4.699607	-0.751728	0.449472	0.194265	-0.441748
51256	4.654738	-11.748216	4.153606	5.279433	3.658760	1.834326	-0.733859	0.440297	0.220496	-0.467944
51257	14.790717	-9.200179	4.171349	8.277606	13.362710	-1.227577	-0.725651	0.434509	0.223885	-0.484260
51258	6.081002	-4.281205	9.715438	-2.183933	8.783606	-1.580564	-0.730881	0.426383	0.212721	-0.488631
51259	-5.061885	-5.813937	9.501697	-5.813325	-1.613048	0.831851	-0.735779	0.417655	0.211151	-0.489499
51260	0.350794	-5.099475	5.458100	-0.953274	1.593451	-2.569098	-0.733135	0.414120	0.219625	-0.492729
51261	3.013127	-5.395795	4.861773	0.688358	3.665571	-2.890273	-0.730295	0.412167	0.223559	-0.496799
51262	0.177965	-4.274575	5.005327	-1.217784	1.322887	-3.478343	-0.728576	0.410366	0.224592	-0.500336
51263	-1.463941	-4.193942	4.241876	-1.372809	-0.474010	-3.844748	-0.725864	0.408920	0.229893	-0.503046
51264	-0.538674	-4.272955	3.308949	-0.323587	-0.017164	-4.391248	-0.723031	0.407747	0.238147	-0.504236
51265	1.579533	-5.952527	2.808100	1.679682	1.447473	-3.417769	-0.719909	0.407041	0.248672	-0.504193
51266	1.741061	-7.547408	3.680525	1.819747	1.582943	-1.583303	-0.718852	0.406340	0.255196	-0.503005
51267	1.531859	-10.298245	3.542735	3.181432	0.834305	0.681693	-0.717071	0.406682	0.262188	-0.501672
51268	3.113386	-11.359370	2.322732	5.143419	1.694858	0.901579	-0.716548	0.405944	0.266444	-0.500776
51269	2.945817	-11.245466	4.126583	3.583577	2.083135	1.805634	-0.718210	0.405783	0.266065	-0.498722
51270	0.319152	-10.506708	5.763282	1.023441	0.263091	2.128458	-0.722083	0.406122	0.260871	-0.495588
51271	-1.780520	-7.531737	6.442742	-1.750770	-0.901339	0.062957	-0.725360	0.406633	0.256216	-0.492803
51272	-1.407159	-6.180047	5.872877	-1.869266	-0.462002	-1.389156	-0.725286	0.409648	0.256400	-0.490314
51273	0.989485	-7.605138	4.654317	0.652068	1.092866	-0.932407	-0.723034	0.413754	0.259617	-0.488496
51274	2.319646	-9.906509	4.707009	2.182538	1.950427	1.008909	-0.721280	0.418091	0.261522	-0.486375
51275	2.475436	-11.220773	4.306360	3.134388	1.747114	1.921934	-0.721337	0.420506	0.261282	-0.484334
51276	2.300311	-9.173008	4.257298	2.099410	1.948787	0.154997	-0.723103	0.421760	0.258722	-0.481979
51277	2.739246	-8.097463	4.405373	1.669367	2.601535	-0.706382	-0.724902	0.422922	0.256052	-0.479678
51278	2.661747	-7.666930	5.321441	0.777743	2.953742	-0.601039	-0.727564	0.423844	0.251583	-0.477193
51279	2.232193	-6.604367	5.745049	-0.176184	2.947198	-1.275215	-0.729938	0.425550	0.246927	-0.474474
51280	1.869763	-5.710926	5.391805	-0.437099	2.688586	-2.212542	-0.732296	0.427103	0.241911	-0.472023
51281	2.190675	-4.938182	4.962602	-0.295910	2.989804	-3.120507	-0.733933	0.428923	0.237469	-0.470081
51282	2.740395	-4.695830	4.516747	0.216032	3.380266	-3.608792	-0.735170	0.430978	0.232727	-0.468638
51283	2.991074	-5.210130	5.055557	0.242388	3.770751	-2.929903	-0.735782	0.434270	0.227781	-0.467065
51284	2.885198	-6.091947	5.771383	0.168019	3.877123	-1.832477	-0.736403	0.438094	0.222139	-0.465231
51285	2.920514	-7.544260	6.567912	0.410557	4.048815	-0.219974	-0.737509	0.439738	0.216579	-0.464547
51286	3.610887	-7.624773	6.113123	1.192458	4.487396	-0.486034	-0.738350	0.441743	0.211830	-0.463498
51287	3.673297	-8.967810	7.365440	1.064137	4.915149	1.272116	-0.738718	0.444502	0.208824	-0.461635
51288	4.567374	-12.139881	8.713816	2.169194	5.782666	4.540824	-0.739143	0.447390	0.206935	-0.459007
51289	5.794495	-15.624919	9.925501	3.726320	6.802055	7.965820	-0.741150	0.449310	0.203074	-0.455608
51290	5.306683	-18.167243	11.027062	4.151966	6.435299	10.709226	-0.745036	0.450511	0.196436	-0.450970
51291	4.594264	-19.336949	11.121499	4.568325	5.590888	11.787707	-0.750473	0.450552	0.188907	-0.445093
51292	3.890522	-18.510377	9.806734	4.975690	4.344053	10.443191	-0.758323	0.449095	0.179724	-0.436988
51293	2.787262	-15.856130	6.852900	5.250081	2.204865	6.731454	-0.768473	0.445855	0.170198	-0.426258
51294	1.790041	-12.446409	3.126414	5.496073	-0.136969	1.919756	-0.781590	0.440381	0.159276	-0.412083
51295	-0.417314	-8.486717	1.393109	3.243805	-2.074295	-2.111612	-0.797321	0.435848	0.143937	-0.391915
51296	-4.280477	-4.964061	2.708203	-1.878928	-3.183636	-3.760378	-0.813228	0.435070	0.124780	-0.365793
51297	-7.039903	-3.294003	2.443794	-4.707873	-4.506750	-4.924261	-0.825654	0.435537	0.110951	-0.341018
51298	-4.969773	-6.575457	3.157092	-2.200197	-3.805790	-2.159437	-0.831523	0.440085	0.105956	-0.321974
51299	-2.762586	-9.452701	3.073620	0.628326	-3.617406	-0.171637	-0.837797	0.443478	0.096282	-0.303569
51300	-4.132985	-8.121673	5.217514	-2.087708	-2.272074	0.224151	-0.842812	0.451596	0.081610	-0.281191
51301	-5.531346	-8.695250	6.790687	-3.744089	-1.858727	1.798966	-0.846761	0.460077	0.068269	-0.258193
51302	-5.908947	-6.944562	6.224804	-4.611330	-1.340041	0.128307	-0.852754	0.462841	0.053029	-0.236172
51303	-4.859186	-5.043621	5.208645	-4.072387	-0.511104	-2.109991	-0.857258	0.464155	0.042662	-0.218744
51304	-2.722033	-4.430803	3.238366	-1.839397	-0.727585	-4.014825	-0.860458	0.465634	0.034502	-0.203975
51305	-2.140491	-3.107120	2.734786	-1.632741	-0.175305	-5.451730	-0.862401	0.468291	0.028193	-0.190192
51306	-1.940168	-3.519819	1.485641	-1.088558	-1.226051	-5.853969	-0.861284	0.475233	0.025782	-0.177983
51307	-1.529779	-5.525148	1.187521	-0.161642	-2.233004	-4.403141	-0.858510	0.484467	0.024360	-0.166309
51308	-1.723403	-7.834195	1.076199	0.164963	-3.398375	-2.469390	-0.856542	0.491961	0.020514	-0.154562
51309	-1.949223	-8.452834	1.388851	-0.077344	-3.407671	-1.715834	-0.856348	0.496083	0.014556	-0.142677
51310	-1.747517	-7.735103	0.950706	-0.085836	-3.315733	-2.547232	-0.856458	0.499574	0.006631	-0.129853
51311	-2.749599	-7.906888	1.482378	-1.188030	-3.090731	-1.982568	-0.856026	0.503570	-0.001407	-0.116769
51312	-2.337169	-8.849127	3.000610	-0.852793	-2.045945	-0.439415	-0.854826	0.508010	-0.006501	-0.105622
51313	-1.111692	-11.230550	4.365791	0.605292	-1.658209	2.158261	-0.853031	0.513040	-0.013551	-0.094572
51314	-1.989356	-11.443634	3.318939	-0.165973	-2.717182	1.956719	-0.853691	0.513456	-0.024653	-0.083469
51315	-4.276567	-9.987400	3.481233	-2.647964	-2.113755	1.081170	-0.855419	0.511450	-0.036115	-0.073297
51316	-4.949647	-9.317551	3.240082	-3.384885	-2.000786	0.500056	-0.856125	0.510650	-0.045179	-0.065154
51317	-4.416230	-8.332927	3.962031	-2.974185	-0.796916	-0.057828	-0.856595	0.510047	-0.051656	-0.058553
51318	-3.579354	-7.547144	3.886270	-2.251564	-0.385617	-0.887686	-0.855892	0.511377	-0.055748	-0.053233
51319	-3.270099	-8.056064	3.221717	-1.902523	-1.134768	-0.809052	-0.854579	0.513711	-0.058051	-0.049263
51320	-3.234050	-9.280454	2.958952	-1.720278	-1.890422	0.127535	-0.853689	0.515304	-0.059093	-0.046751
51321	-3.878730	-9.989037	2.817946	-2.283751	-2.337741	0.774364	-0.854020	0.514838	-0.059822	-0.044859
51322	-3.288916	-9.052473	3.858579	-1.787325	-0.986700	0.360051	-0.855317	0.512846	-0.060187	-0.042430
51323	-2.750476	-7.719930	3.859540	-1.455615	-0.365919	-0.879283	-0.856230	0.511501	-0.060724	-0.039362
51324	-3.174548	-7.120778	4.304644	-1.945066	0.311138	-1.127467	-0.856302	0.511590	-0.060819	-0.036388
51325	-3.381581	-7.913826	3.370888	-2.146122	-0.864854	-0.864357	-0.855540	0.513100	-0.059872	-0.034562
51326	-2.853214	-9.956461	3.269819	-1.417604	-1.912602	0.784289	-0.855085	0.514073	-0.058162	-0.034281
51327	-1.413722	-10.685951	3.616967	0.094879	-1.971365	1.384418	-0.855973	0.512676	-0.057640	-0.033929
51328	-1.268646	-8.963184	4.615509	0.090512	-0.325404	0.342921	-0.858176	0.509061	-0.058225	-0.031642
51329	-1.811482	-7.343891	5.155586	-0.614895	0.888754	-0.722794	-0.859203	0.507560	-0.057899	-0.028296
51330	-2.015052	-6.888575	5.023142	-0.911837	1.000331	-1.157484	-0.858838	0.508483	-0.056880	-0.024648
51331	-1.783065	-7.327522	4.164889	-0.748186	0.071179	-1.230558	-0.857591	0.510880	-0.055411	-0.021646
51332	-1.234554	-8.352758	3.751350	-0.186531	-0.760454	-0.606604	-0.856880	0.512318	-0.053944	-0.019407
51333	-0.502670	-9.205177	4.070285	0.599555	-0.898770	0.206685	-0.857038	0.512200	-0.053157	-0.017633
51334	-0.489978	-8.883724	4.569829	0.595100	-0.326143	0.166456	-0.857985	0.510670	-0.053318	-0.015334
51335	-0.657339	-8.086466	5.599280	0.426936	0.950471	-0.010174	-0.857907	0.510852	-0.053404	-0.013183
51336	-0.493536	-8.047989	6.230473	0.617862	1.529924	0.242658	-0.857261	0.512033	-0.052888	-0.011293
51337	-0.783019	-8.553352	5.603202	0.278950	0.774311	0.409406	-0.856708	0.513199	-0.050713	-0.010322
51338	0.175061	-8.955157	4.311656	1.111204	-0.551029	0.050232	-0.855877	0.514848	-0.047907	-0.010540
51339	0.032779	-9.330515	4.118153	0.941294	-0.867329	0.305630	-0.855550	0.515601	-0.045510	-0.010888
51340	0.142688	-9.212979	4.025366	1.002990	-0.871779	0.154096	-0.854925	0.516821	-0.043317	-0.011125
51341	0.696455	-9.119957	4.263875	1.534897	-0.606658	0.142977	-0.854424	0.517780	-0.041718	-0.011084
51342	0.821829	-8.656934	4.528149	1.625592	-0.140011	-0.145224	-0.854186	0.518258	-0.040680	-0.010952
51343	0.291876	-8.162519	4.557808	1.054726	0.137298	-0.519991	-0.854355	0.518036	-0.039928	-0.011016
51344	0.068735	-8.035089	4.861082	0.829124	0.473738	-0.470011	-0.854095	0.518546	-0.038756	-0.011375
51345	0.056109	-8.018782	4.774217	0.799732	0.422553	-0.524039	-0.853475	0.519594	-0.038367	-0.011429
51346	0.082591	-8.354650	4.741694	0.842159	0.266824	-0.246597	-0.852373	0.521392	-0.038458	-0.011443
51347	0.228874	-8.373037	4.704130	0.993244	0.263799	-0.261107	-0.851118	0.523381	-0.039402	-0.010877
51348	0.736115	-8.539285	4.240786	1.490326	-0.188930	-0.368719	-0.849605	0.525775	-0.040399	-0.009969
51349	0.325940	-8.645360	4.257039	1.098155	-0.166331	-0.234738	-0.848385	0.527649	-0.041893	-0.008688
51350	0.184949	-8.398249	4.365178	0.957838	0.084209	-0.394889	-0.847329	0.529287	-0.042807	-0.007505
51351	-0.037277	-8.373974	4.491990	0.745258	0.252889	-0.342560	-0.846205	0.531050	-0.043377	-0.006431
51352	0.042821	-8.591394	4.245700	0.816485	-0.026213	-0.264265	-0.844990	0.532994	-0.043319	-0.005770
51353	0.386293	-9.003185	3.977811	1.156740	-0.422400	-0.039613	-0.844029	0.534524	-0.043229	-0.005415
51354	0.374638	-9.001399	4.036547	1.146145	-0.348046	-0.013480	-0.843869	0.534777	-0.043257	-0.005250
51355	0.440830	-8.840378	3.804741	1.186321	-0.486194	-0.263922	-0.843966	0.534647	-0.042906	-0.005739
51356	0.235826	-8.584133	3.932744	0.980560	-0.251066	-0.422007	-0.843927	0.534698	-0.042949	-0.006380
51357	0.566829	-8.531085	4.230310	1.334447	0.037031	-0.367367	-0.843452	0.535449	-0.042800	-0.007200
51358	0.232579	-8.447051	4.244925	1.005590	0.113225	-0.410448	-0.843150	0.535897	-0.043037	-0.007777
51359	0.328786	-8.906468	4.044672	1.122679	-0.258152	-0.093347	-0.842796	0.536470	-0.042606	-0.008957
51360	0.501295	-9.183350	4.006754	1.317270	-0.415080	0.123699	-0.843065	0.536040	-0.042399	-0.010254
51361	0.728828	-9.144702	4.225009	1.568072	-0.222348	0.162237	-0.843644	0.535108	-0.042246	-0.011801
51362	0.858450	-8.899866	4.050040	1.688968	-0.293598	-0.147880	-0.844109	0.534298	-0.042846	-0.013010
51363	0.402073	-9.049276	4.110853	1.270094	-0.305210	0.048541	-0.844325	0.533889	-0.043258	-0.014337
51364	0.366283	-9.248018	4.190008	1.274501	-0.326273	0.261305	-0.844422	0.533674	-0.043454	-0.015954
51365	0.125881	-9.053933	4.197289	1.043118	-0.233767	0.110215	-0.844596	0.533325	-0.043809	-0.017404
51366	-0.150557	-8.541554	4.450400	0.764136	0.218001	-0.212926	-0.844773	0.532973	-0.044173	-0.018652
51367	-0.363683	-8.489540	4.414104	0.563305	0.209722	-0.256142	-0.844683	0.533048	-0.044465	-0.019851
51368	-0.829189	-8.592431	4.269027	0.117687	0.043056	-0.183238	-0.844600	0.533102	-0.044769	-0.021197
51369	-1.041091	-8.901898	4.079402	-0.062719	-0.253640	0.031137	-0.844157	0.533769	-0.044175	-0.023190
51370	-0.960361	-9.646807	4.059090	0.088545	-0.588320	0.680425	-0.843822	0.534305	-0.042985	-0.025197
51371	-0.914264	-9.975531	4.511402	0.184455	-0.321064	1.167419	-0.843814	0.534352	-0.041666	-0.026651
51372	-0.678913	-9.816262	4.333522	0.390543	-0.410073	0.924103	-0.843744	0.534487	-0.041037	-0.027103
51373	-1.113254	-9.264200	4.416982	-0.092563	-0.093944	0.509961	-0.843901	0.534262	-0.041126	-0.026511
51374	-1.427140	-8.856307	4.187365	-0.460857	-0.127243	0.075504	-0.844184	0.533881	-0.040949	-0.025442
51375	-1.629074	-8.674067	3.738109	-0.716661	-0.457079	-0.265740	-0.844448	0.533568	-0.040251	-0.024334
51376	-1.664100	-8.606830	3.675296	-0.789169	-0.499381	-0.353183	-0.845223	0.532502	-0.038617	-0.023432
51377	-1.776802	-8.476136	3.895404	-0.939257	-0.272886	-0.367096	-0.846226	0.531076	-0.036766	-0.022528
51378	-1.752269	-8.363618	3.907988	-0.960342	-0.242241	-0.468609	-0.847085	0.529859	-0.035012	-0.021676
51379	-1.527984	-8.543994	4.095723	-0.749438	-0.177244	-0.246270	-0.847539	0.529254	-0.033658	-0.020857
51380	-1.488922	-9.014518	4.458078	-0.689128	-0.082328	0.329853	-0.848101	0.528428	-0.033021	-0.019939
51381	-1.386587	-9.275347	4.508072	-0.584606	-0.176273	0.575022	-0.848709	0.527496	-0.032887	-0.018951
51382	-1.323621	-9.253786	4.325335	-0.543076	-0.355564	0.466982	-0.849548	0.526180	-0.032868	-0.017944
51383	-1.354856	-8.876543	4.212224	-0.615508	-0.310912	0.081548	-0.850267	0.525056	-0.032953	-0.016649
51384	-1.548322	-8.372688	4.055087	-0.859667	-0.236151	-0.423965	-0.850765	0.524282	-0.033240	-0.014887
51385	-1.612018	-7.996028	3.824285	-0.969639	-0.274870	-0.860344	-0.851007	0.523921	-0.033506	-0.013063
51386	-1.529975	-7.985090	3.540626	-0.916032	-0.523116	-1.007817	-0.851049	0.523889	-0.033503	-0.011595
51387	-1.541907	-8.350627	3.714615	-0.913961	-0.537946	-0.604860	-0.851226	0.523628	-0.033443	-0.010412
51388	-1.342853	-8.355198	3.687986	-0.728084	-0.578870	-0.628539	-0.851847	0.522632	-0.033538	-0.009377
51389	-1.528855	-7.995647	3.959313	-0.920731	-0.192460	-0.809407	-0.852811	0.521005	-0.034639	-0.008168
51390	-1.677899	-7.636007	4.156749	-1.069735	0.130281	-1.023992	-0.853383	0.520008	-0.035665	-0.007479
51391	-1.703826	-7.892687	4.052795	-1.078868	-0.101693	-0.843388	-0.854073	0.518823	-0.036412	-0.007433
51392	-1.540422	-7.693436	4.337803	-0.898723	0.212056	-0.894973	-0.854919	0.517396	-0.036732	-0.008146
51393	-1.316710	-7.841754	4.686421	-0.633886	0.418493	-0.614189	-0.855332	0.516656	-0.037274	-0.009154
51394	-0.833912	-8.960329	5.142510	-0.047227	0.265544	0.548564	-0.855263	0.516724	-0.037451	-0.010919
51395	-0.397937	-10.202461	5.215836	0.489683	-0.283995	1.638640	-0.855783	0.515776	-0.038016	-0.012830
51396	-0.524608	-10.288928	5.349881	0.407174	-0.238127	1.786268	-0.856643	0.514257	-0.038907	-0.013718
51397	-0.615952	-9.493931	5.322598	0.281431	0.077399	1.084962	-0.857801	0.512296	-0.039342	-0.013508
51398	-0.597777	-8.696507	4.936921	0.225774	0.087944	0.202350	-0.858563	0.511045	-0.039229	-0.012827
51399	-0.747067	-8.126357	4.485131	0.005056	-0.042046	-0.500847	-0.858741	0.510790	-0.038907	-0.012011
51400	-0.634729	-8.141051	4.039671	0.081010	-0.433126	-0.712999	-0.858224	0.511688	-0.038704	-0.011352
51401	-0.527079	-8.469109	3.621686	0.177723	-0.944943	-0.636865	-0.857911	0.512215	-0.038758	-0.011110
51402	-0.390087	-8.767257	3.313172	0.315489	-1.363398	-0.537146	-0.858264	0.511599	-0.039035	-0.011242
51403	-0.532640	-8.869373	3.228759	0.180629	-1.510380	-0.482075	-0.859352	0.509738	-0.039366	-0.011474
51404	-0.759625	-9.431227	3.543160	0.014353	-1.561171	0.169356	-0.861050	0.506822	-0.039838	-0.011716
51405	-0.781622	-9.442390	3.720162	0.014405	-1.496920	0.255450	-0.863559	0.502495	-0.040122	-0.012438
51406	-0.713683	-9.403290	4.151122	0.119700	-1.215339	0.418171	-0.866359	0.497602	-0.040390	-0.013534
51407	-0.705596	-9.282803	4.335758	0.147425	-1.115078	0.395183	-0.869328	0.492347	-0.040574	-0.014748
51408	-0.644389	-9.118788	4.161711	0.204579	-1.306132	0.144119	-0.872548	0.486552	-0.040913	-0.015926
51409	-0.553210	-9.068193	4.069891	0.304821	-1.496200	0.024426	-0.876060	0.480124	-0.041363	-0.017003
51410	-0.400554	-8.914229	3.959181	0.461018	-1.658354	-0.203626	-0.879981	0.472783	-0.042228	-0.018073
51411	-0.329976	-9.026235	3.909422	0.567102	-1.924274	-0.177414	-0.883834	0.465336	-0.044007	-0.019079
51412	-0.595374	-9.607676	3.881097	0.386937	-2.470898	0.260309	-0.888736	0.455624	-0.046345	-0.020168
51413	-0.720461	-9.336483	3.745418	0.279663	-2.659310	-0.088464	-0.894707	0.443494	-0.048433	-0.021614
51414	-0.514275	-8.596921	3.412757	0.446990	-2.726697	-0.970880	-0.900879	0.430478	-0.050742	-0.023051
51415	-0.525047	-8.175982	3.807431	0.476584	-2.413825	-1.120240	-0.907161	0.416667	-0.053424	-0.024352
51416	-0.291800	-7.613180	3.874328	0.710289	-2.268083	-1.602959	-0.914147	0.400659	-0.056146	-0.025584
51417	-0.655877	-7.218966	3.703517	0.343665	-2.413261	-2.046769	-0.921422	0.383081	-0.059333	-0.026651
51418	-0.841681	-6.681359	3.557777	0.137520	-2.430175	-2.596491	-0.929043	0.363663	-0.062022	-0.027948
51419	-0.721834	-5.854593	3.850364	0.247648	-1.910064	-3.037319	-0.936139	0.344255	-0.065268	-0.029523
51420	-1.228337	-5.096626	4.683594	-0.192051	-1.075715	-2.868643	-0.942513	0.325547	-0.068666	-0.031184
51421	-1.235330	-5.083250	5.006642	-0.110838	-1.145133	-2.664167	-0.948457	0.306833	-0.072233	-0.032627
51422	-1.463639	-5.297384	4.937486	-0.271638	-1.654698	-2.618023	-0.954487	0.286592	-0.075169	-0.034181
51423	-1.562563	-4.569041	4.853845	-0.416443	-1.397474	-3.123699	-0.960737	0.264036	-0.077317	-0.035936
51424	-1.174644	-3.270461	5.209360	-0.091082	-0.384364	-3.563676	-0.966293	0.241901	-0.079536	-0.037880
51425	-1.138382	-2.517854	5.419133	-0.073084	0.100719	-3.731524	-0.971306	0.219831	-0.081531	-0.039892
51426	-1.004136	-2.314536	5.733268	0.115975	0.141900	-3.552087	-0.975886	0.197363	-0.083337	-0.041824
51427	-1.033651	-2.183810	6.007485	0.149568	0.066399	-3.340262	-0.980131	0.173658	-0.085369	-0.043565
51428	-1.242265	-1.166589	6.743193	-0.012220	0.937118	-2.921619	-0.983779	0.149757	-0.087771	-0.045244
51429	-1.553514	-0.553186	7.379450	-0.229738	1.350972	-2.377147	-0.986681	0.126736	-0.090559	-0.046871
51430	-1.495320	-0.500073	7.636183	-0.074827	1.118329	-2.097139	-0.989062	0.103429	-0.093366	-0.048396
51431	-1.382172	0.091902	8.027158	0.108376	1.420902	-1.793257	-0.990772	0.080492	-0.096955	-0.049918
51432	-1.604020	0.916298	8.359351	-0.053390	1.906030	-1.467410	-0.991787	0.059111	-0.101173	-0.051264
51433	-2.012791	0.846149	8.816903	-0.261273	1.496250	-0.858016	-0.992334	0.038765	-0.105041	-0.052311
51434	-2.101625	1.308715	9.062163	-0.258742	1.589893	-0.558297	-0.992547	0.017331	-0.108290	-0.053142
51435	-2.121968	2.150818	9.485771	-0.189088	2.046798	-0.072606	-0.992287	-0.003126	-0.111489	-0.054104
51436	-2.483237	2.874492	9.956069	-0.417544	2.325197	0.577519	-0.991640	-0.022865	-0.114520	-0.054892
51437	-2.452157	3.286980	10.185798	-0.286479	2.338173	0.911382	-0.990722	-0.040564	-0.117200	-0.055578
51438	-2.830443	3.717237	10.600356	-0.510903	2.304083	1.528087	-0.989552	-0.057914	-0.119473	-0.056204
51439	-2.937859	4.216405	10.888591	-0.509846	2.353284	1.983825	-0.988099	-0.075271	-0.121525	-0.056799
51440	-2.979635	4.508708	11.138382	-0.440980	2.203826	2.361294	-0.986535	-0.091081	-0.123024	-0.057597
51441	-2.615947	5.016800	11.510366	0.032840	2.308740	2.803037	-0.984758	-0.105589	-0.125197	-0.058544
51442	-2.869724	5.424156	11.852382	-0.077408	2.241248	3.343895	-0.982956	-0.118775	-0.127143	-0.059367
51443	-3.310691	6.139960	12.121818	-0.410360	2.469722	3.946706	-0.981170	-0.130413	-0.129159	-0.060135
51444	-3.689988	6.181252	11.878217	-0.782334	2.227092	3.874470	-0.979727	-0.139526	-0.130147	-0.061063
51445	-3.679571	6.203865	11.921468	-0.727004	2.002326	3.957078	-0.978461	-0.147468	-0.130563	-0.061810
51446	-3.371122	6.396635	12.305853	-0.317578	1.926076	4.325986	-0.977439	-0.153622	-0.130809	-0.062472
51447	-3.102847	6.664641	12.310830	-0.066910	2.066607	4.376209	-0.976677	-0.158162	-0.130808	-0.063057
51448	-3.402267	6.482977	12.322942	-0.329558	1.735571	4.411865	-0.976189	-0.161032	-0.130777	-0.063416
51449	-3.537522	6.623600	12.360462	-0.460000	1.773096	4.533447	-0.976019	-0.162291	-0.130465	-0.063455
51450	-3.170092	6.587065	11.928815	-0.233560	1.937927	4.041022	-0.976300	-0.160714	-0.130267	-0.063555
51451	-2.995688	6.132712	11.436455	-0.176453	1.757176	3.387972	-0.976828	-0.157545	-0.130267	-0.063377
51452	-3.039080	5.477476	11.166907	-0.245162	1.310192	2.921557	-0.977478	-0.153619	-0.130417	-0.062692
51453	-3.080417	5.543522	11.281530	-0.256980	1.443989	3.045779	-0.978206	-0.149067	-0.130746	-0.061631
51454	-3.067583	5.585744	11.385371	-0.217668	1.593698	3.135210	-0.979108	-0.143319	-0.130964	-0.060466
51455	-3.242712	5.634024	11.221761	-0.437717	1.829686	3.018637	-0.980187	-0.136022	-0.131161	-0.059405
51456	-3.460694	5.244474	11.060231	-0.672087	1.679835	2.778240	-0.981474	-0.126868	-0.131123	-0.058487
51457	-3.695467	4.849255	11.151370	-0.863720	1.488717	2.779251	-0.982848	-0.116750	-0.130649	-0.057534
51458	-3.632910	4.683908	11.196345	-0.817832	1.594012	2.728400	-0.984324	-0.105841	-0.129323	-0.056389
51459	-3.460291	4.509062	11.229277	-0.687253	1.725301	2.635017	-0.985840	-0.094151	-0.127356	-0.055094
51460	-3.370696	4.467145	11.192463	-0.679423	2.012461	2.518855	-0.987381	-0.080869	-0.125021	-0.053940
51461	-3.279065	3.929146	11.227825	-0.617334	1.842410	2.371991	-0.988877	-0.065385	-0.122665	-0.052914
51462	-3.066966	3.546826	10.975576	-0.524741	1.915550	1.955492	-0.990208	-0.047912	-0.120425	-0.051872
51463	-2.766806	3.008804	9.761707	-0.559790	1.929089	0.577266	-0.991218	-0.029202	-0.118501	-0.050912
51464	-2.879093	2.450894	9.452963	-0.753989	1.744635	0.188910	-0.991870	-0.011987	-0.116595	-0.049562
51465	-2.803732	1.898305	10.225891	-0.510427	1.538816	0.835924	-0.992272	0.005361	-0.114347	-0.047885
