// General information: 
//  MT Manager version: 2021.0.0 
//  XDA version: 2021.0.0 build 5908 rev 109668 built on 2021-04-19
// Device information: 
//  DeviceId: 00B43DF4
//  ProductCode: MTW2-3A7G6
//  Firmware Version: 4.3.5
//  Hardware Version: 1.1.0
// Device settings: 
//  Filter Profile: human(46.1)
//  Option Flags: Orientation Smoother Disabled, Position/Velocity Smoother Disabled, Continuous Zero Rotation Update Disabled, AHS Disabled, ICC Disabled
// Coordinate system: ENU
PacketCounter	Acc_X	Acc_Y	Acc_Z	FreeAcc_E	FreeAcc_N	FreeAcc_U	Quat_q0	Quat_q1	Quat_q2	Quat_q3
50291	9.314531	0.115457	4.100221	0.112082	-0.203966	0.362354	-0.587565	-0.401548	0.386215	-0.586826
50292	9.259812	0.058904	3.996160	0.167762	-0.124798	0.270623	-0.587680	-0.401573	0.386222	-0.586688
50293	9.234968	0.160225	4.035696	0.068410	-0.175275	0.265097	-0.587721	-0.401627	0.386424	-0.586478
50294	9.335630	0.214505	4.282747	0.018666	-0.371056	0.453952	-0.587756	-0.401445	0.386985	-0.586198
50295	9.234179	-0.020032	3.999557	0.238547	-0.151436	0.246491	-0.587725	-0.401357	0.387518	-0.585937
50296	9.281499	-0.010054	3.999026	0.226838	-0.141651	0.290134	-0.587699	-0.401567	0.387863	-0.585591
50297	9.315915	0.200163	3.971076	0.017433	-0.114356	0.315610	-0.587652	-0.401748	0.388072	-0.585375
50298	9.341415	0.092422	3.889446	0.123351	-0.032622	0.305716	-0.587644	-0.401753	0.388284	-0.585239
50299	9.403571	0.137944	3.940646	0.079042	-0.060345	0.383634	-0.587783	-0.401701	0.388512	-0.584983
50300	9.337987	0.120983	3.896750	0.093927	-0.047252	0.305921	-0.587889	-0.401661	0.388691	-0.584786
50301	9.273993	0.033566	3.935643	0.180880	-0.107716	0.259703	-0.587952	-0.401599	0.388782	-0.584704
50302	9.241058	0.016179	3.958554	0.197270	-0.142211	0.237608	-0.588043	-0.401510	0.388961	-0.584555
50303	9.282637	0.085571	3.909403	0.125553	-0.083838	0.258822	-0.588146	-0.401379	0.389224	-0.584366
50304	9.324587	0.061160	3.994993	0.150163	-0.149230	0.329641	-0.588193	-0.401312	0.389450	-0.584214
50305	9.297366	0.002790	4.029695	0.208278	-0.194644	0.316390	-0.588238	-0.401389	0.389642	-0.583988
50306	9.369980	0.104885	4.103062	0.108263	-0.242465	0.413364	-0.588210	-0.401472	0.390003	-0.583717
50307	9.374644	0.031061	3.843496	0.175109	-0.005290	0.317795	-0.588249	-0.401394	0.390290	-0.583540
50308	9.389803	0.027993	3.968857	0.178933	-0.118350	0.379220	-0.588342	-0.401323	0.390473	-0.583373
50309	9.393903	0.129627	3.915773	0.075856	-0.070834	0.364971	-0.588377	-0.401329	0.390586	-0.583258
50310	9.340106	0.104328	3.965039	0.100938	-0.138781	0.333275	-0.588416	-0.401318	0.390740	-0.583123
50311	9.330954	0.112921	3.918049	0.090379	-0.102219	0.307191	-0.588422	-0.401322	0.390983	-0.582951
50312	9.321004	0.108942	3.897596	0.091932	-0.090743	0.290161	-0.588445	-0.401258	0.391235	-0.582803
50313	9.306766	0.135438	3.939427	0.063562	-0.137721	0.293267	-0.588504	-0.401157	0.391455	-0.582666
50314	9.358832	0.056193	3.937511	0.141486	-0.117939	0.339207	-0.588526	-0.401112	0.391655	-0.582540
50315	9.355952	0.085408	3.996574	0.111528	-0.176579	0.359339	-0.588595	-0.401047	0.391865	-0.582373
50316	9.389386	0.110642	3.894831	0.083491	-0.073100	0.352459	-0.588647	-0.400984	0.392140	-0.582179
50317	9.350977	0.077411	3.797466	0.113124	0.000210	0.279622	-0.588726	-0.400908	0.392317	-0.582033
50318	9.374008	0.080409	3.831108	0.110078	-0.023406	0.313675	-0.588815	-0.400833	0.392417	-0.581927
50319	9.385054	0.081818	3.849079	0.108466	-0.035273	0.330701	-0.589003	-0.400654	0.392498	-0.581805
50320	9.336057	0.038194	3.862969	0.150864	-0.063957	0.289743	-0.589162	-0.400468	0.392507	-0.581766
50321	9.349368	0.058075	3.891248	0.130713	-0.082503	0.313120	-0.589295	-0.400301	0.392529	-0.581731
50322	9.322379	0.067111	4.008997	0.121544	-0.199703	0.332689	-0.589361	-0.400169	0.392564	-0.581731
50323	9.322804	0.077240	3.983338	0.109446	-0.174811	0.323637	-0.589394	-0.400063	0.392647	-0.581716
50324	9.314271	0.031286	3.931893	0.153034	-0.129925	0.295533	-0.589486	-0.399945	0.392764	-0.581623
50325	9.307719	0.048138	3.971677	0.135503	-0.169354	0.304779	-0.589556	-0.399874	0.392838	-0.581552
50326	9.334151	0.088407	3.975916	0.095626	-0.161920	0.331609	-0.589648	-0.399784	0.392742	-0.581587
50327	9.246128	0.120292	4.069819	0.064175	-0.279083	0.286163	-0.589746	-0.399703	0.392642	-0.581610
50328	9.297820	0.016274	3.898828	0.166777	-0.099641	0.267632	-0.589805	-0.399624	0.392774	-0.581515
50329	9.311700	0.188168	4.117137	-0.005043	-0.300956	0.365888	-0.589733	-0.399621	0.393144	-0.581340
50330	9.344244	0.108938	4.061023	0.069957	-0.245341	0.373262	-0.589558	-0.399732	0.393694	-0.581068
50331	9.286887	-0.122587	3.867139	0.296217	-0.098023	0.243092	-0.589498	-0.399941	0.394158	-0.580672
50332	9.380862	0.128353	3.858241	0.048805	-0.065971	0.331095	-0.589398	-0.400363	0.394293	-0.580390
50333	9.369681	0.177935	3.855772	0.002169	-0.075296	0.320618	-0.589332	-0.400543	0.394394	-0.580264
50334	9.346751	0.102167	3.802787	0.077921	-0.037175	0.278197	-0.589397	-0.400517	0.394449	-0.580178
50335	9.301126	0.150420	3.790220	0.029436	-0.043126	0.232043	-0.589451	-0.400527	0.394460	-0.580109
50336	9.357132	0.177212	3.788102	0.003994	-0.019894	0.283679	-0.589502	-0.400471	0.394446	-0.580105
50337	9.355226	0.069046	3.901543	0.112528	-0.124874	0.322341	-0.589466	-0.400444	0.394460	-0.580151
50338	9.317746	0.038010	3.854457	0.141709	-0.095876	0.269446	-0.589489	-0.400435	0.394572	-0.580058
50339	9.312336	0.061169	3.879457	0.118139	-0.122784	0.274160	-0.589489	-0.400436	0.394659	-0.579998
50340	9.311763	0.049100	3.905693	0.130204	-0.148106	0.283198	-0.589490	-0.400439	0.394658	-0.579996
50341	9.389899	0.066678	3.964434	0.113777	-0.173439	0.377915	-0.589506	-0.400375	0.394713	-0.579986
50342	9.345570	0.041037	3.983102	0.137599	-0.208827	0.343292	-0.589462	-0.400405	0.394875	-0.579901
50343	9.335458	-0.017666	3.906619	0.193648	-0.144764	0.304342	-0.589424	-0.400379	0.395083	-0.579815
50344	9.426178	0.023768	3.876779	0.151922	-0.087228	0.378099	-0.589371	-0.400464	0.395262	-0.579688
50345	9.416372	0.087820	3.887192	0.086769	-0.103194	0.373964	-0.589337	-0.400432	0.395323	-0.579704
50346	9.333048	0.020197	3.887185	0.151958	-0.134468	0.295489	-0.589405	-0.400356	0.395411	-0.579627
50347	9.307248	0.003610	3.831590	0.167591	-0.092079	0.250582	-0.589506	-0.400293	0.395415	-0.579565
50348	9.387582	0.141396	3.751364	0.030592	0.012490	0.297620	-0.589538	-0.400263	0.395464	-0.579519
50349	9.489277	0.010399	3.648813	0.162702	0.146539	0.351582	-0.589588	-0.400235	0.395370	-0.579552
50350	9.326106	-0.019931	3.937690	0.194616	-0.178975	0.307201	-0.589677	-0.400236	0.395105	-0.579642
50351	9.206590	0.009982	4.028167	0.167276	-0.305322	0.230536	-0.589735	-0.400386	0.394965	-0.579574
50352	9.266369	0.087896	3.917445	0.093539	-0.181627	0.246038	-0.589702	-0.400596	0.394887	-0.579516
50353	9.362844	0.122098	3.836745	0.063241	-0.072270	0.306065	-0.589699	-0.400704	0.394812	-0.579495
50354	9.289137	0.079578	3.989219	0.108478	-0.243157	0.293616	-0.589620	-0.400938	0.394773	-0.579441
50355	9.308372	0.061253	3.975666	0.130431	-0.228413	0.305922	-0.589530	-0.401260	0.394834	-0.579267
50356	9.386116	0.064642	4.019645	0.132555	-0.247096	0.394284	-0.589414	-0.401603	0.394880	-0.579117
50357	9.410198	0.082082	3.972703	0.117799	-0.201297	0.399391	-0.589298	-0.401848	0.395011	-0.578976
50358	9.477504	0.038584	3.915717	0.163986	-0.130609	0.439798	-0.589206	-0.402137	0.395173	-0.578758
50359	9.572703	0.068983	4.019152	0.139537	-0.199432	0.566895	-0.589152	-0.402456	0.395287	-0.578512
50360	9.543187	0.184780	4.109708	0.028457	-0.301381	0.575027	-0.589163	-0.402730	0.395325	-0.578285
50361	9.196740	0.212879	4.183440	0.000928	-0.506144	0.280395	-0.589087	-0.403289	0.395423	-0.577905
50362	9.124287	0.335515	3.882616	-0.120825	-0.269279	0.104608	-0.588887	-0.403865	0.396071	-0.577263
50363	9.211234	0.588476	3.829705	-0.372666	-0.212799	0.171077	-0.588483	-0.404470	0.397106	-0.576541
50364	9.408072	0.605631	3.687859	-0.390391	-0.037484	0.302896	-0.587946	-0.405119	0.398128	-0.575927
50365	9.384887	0.659125	3.707184	-0.446826	-0.086911	0.289121	-0.587910	-0.405357	0.398915	-0.575251
50366	9.212187	1.239435	3.904245	-1.028948	-0.343736	0.210626	-0.588356	-0.405271	0.399459	-0.574478
50367	9.039389	1.193189	3.682890	-0.987539	-0.205930	-0.031057	-0.588759	-0.405085	0.400264	-0.573636
50368	8.784166	1.204602	3.483363	-1.007825	-0.122180	-0.340846	-0.589007	-0.405045	0.401400	-0.572615
50369	8.894461	1.378255	3.160043	-1.183767	0.200010	-0.349309	-0.589152	-0.405135	0.403130	-0.571185
50370	9.222096	1.499131	2.887184	-1.303192	0.543485	-0.136092	-0.589141	-0.405270	0.405131	-0.569683
50371	9.058469	1.224126	3.588196	-1.046144	-0.190758	-0.050583	-0.589553	-0.404552	0.406122	-0.569061
50372	8.676623	1.080518	4.179949	-0.929886	-0.891817	-0.207313	-0.589465	-0.404390	0.407662	-0.568165
50373	8.939857	0.800012	3.011633	-0.647038	0.260959	-0.371073	-0.588801	-0.404583	0.409874	-0.567123
50374	9.438339	0.632234	2.764841	-0.486437	0.628523	0.010477	-0.588260	-0.404300	0.411689	-0.566572
50375	9.944672	1.130639	3.311742	-1.010202	0.274442	0.677620	-0.587839	-0.403703	0.413549	-0.566080
50376	9.990646	0.668426	3.440820	-0.580267	0.150731	0.758005	-0.587657	-0.402427	0.414475	-0.566500
50377	9.885950	-0.160537	3.819348	0.206375	-0.248959	0.781675	-0.587052	-0.401266	0.414679	-0.567800
50378	9.842313	-0.080877	3.829978	0.090333	-0.249753	0.745517	-0.586261	-0.399869	0.414729	-0.569564
50379	9.905857	-0.002458	3.362975	-0.020892	0.224361	0.646024	-0.585062	-0.398781	0.415962	-0.570660
50380	10.119600	0.183040	3.182072	-0.247402	0.471867	0.783603	-0.584210	-0.397564	0.417050	-0.571585
50381	9.868090	0.272354	4.155366	-0.396577	-0.505552	0.878775	-0.584363	-0.395652	0.416862	-0.572892
50382	9.262953	0.052474	4.408348	-0.206260	-0.909569	0.403400	-0.585115	-0.393450	0.415960	-0.574296
50383	8.865394	-0.648284	3.929051	0.493439	-0.557340	-0.122564	-0.585995	-0.391383	0.414375	-0.575954
50384	8.940112	-1.169146	2.929352	1.025799	0.436258	-0.398286	-0.585982	-0.390210	0.413926	-0.577084
50385	9.318742	-1.251129	2.753266	1.090680	0.759756	-0.106099	-0.585604	-0.389282	0.413603	-0.578325
50386	8.993396	-0.837195	3.691797	0.635358	-0.200844	-0.077837	-0.585511	-0.387921	0.413495	-0.579410
50387	8.913121	-0.396133	3.995113	0.168294	-0.484215	-0.050580	-0.585472	-0.386996	0.413534	-0.580040
50388	9.031615	-0.461862	3.833059	0.224603	-0.267359	0.003305	-0.585994	-0.385755	0.412806	-0.580857
50389	9.655440	-0.841739	3.424579	0.595220	0.375267	0.442481	-0.586707	-0.383960	0.411851	-0.582003
50390	9.835613	-1.349157	3.811847	1.073584	0.123186	0.766617	-0.587566	-0.381830	0.411060	-0.583096
50391	10.143389	-1.432991	3.592943	1.141287	0.485178	0.972162	-0.588354	-0.380008	0.410706	-0.583742
50392	9.784102	-1.178185	3.893678	0.871241	0.120601	0.746842	-0.589478	-0.378008	0.409778	-0.584557
50393	9.518674	-0.780650	4.637981	0.447093	-0.601782	0.778019	-0.590940	-0.375761	0.408412	-0.585485
50394	8.970322	-0.636589	4.195339	0.319142	-0.343083	0.099574	-0.592669	-0.373049	0.407462	-0.586134
50395	9.112720	-1.044573	4.095277	0.713850	-0.149875	0.205885	-0.594402	-0.370290	0.407000	-0.586449
50396	9.370709	-1.256483	3.995242	0.907854	0.084666	0.410784	-0.595859	-0.367777	0.406942	-0.586592
50397	9.366961	-1.555269	3.963933	1.189671	0.132872	0.406830	-0.596831	-0.365894	0.407312	-0.586525
50398	9.324267	-1.468382	3.812590	1.093496	0.271788	0.304837	-0.597464	-0.364502	0.407987	-0.586278
50399	9.328041	-1.212860	4.248144	0.799424	-0.098367	0.477176	-0.598383	-0.362764	0.408236	-0.586245
50400	9.217317	-1.023911	4.435413	0.587978	-0.279434	0.446762	-0.599624	-0.360799	0.408205	-0.586212
50401	9.387971	-1.162415	4.018325	0.737152	0.198036	0.436675	-0.601175	-0.358794	0.407917	-0.586054
50402	9.329523	-1.165611	4.068134	0.736431	0.168515	0.403841	-0.602897	-0.356837	0.407071	-0.586069
50403	9.214906	-1.170282	4.048012	0.749490	0.185095	0.290493	-0.604473	-0.355201	0.405685	-0.586400
50404	8.898752	-1.332117	4.174020	0.918676	-0.020119	0.063553	-0.605925	-0.353764	0.403781	-0.587083
50405	9.152733	-1.472438	4.342391	1.056198	-0.015636	0.369694	-0.607222	-0.352396	0.401952	-0.587820
50406	9.450704	-1.206598	4.884864	0.761816	-0.305346	0.862505	-0.608410	-0.351002	0.400278	-0.588568
50407	9.351462	-0.893764	5.134426	0.443838	-0.506196	0.871767	-0.609248	-0.350010	0.398692	-0.589368
50408	9.084218	-0.623452	4.956427	0.196347	-0.418101	0.544169	-0.609530	-0.349667	0.397832	-0.589861
50409	9.258267	-0.632364	4.470468	0.240861	0.110783	0.484408	-0.609552	-0.349752	0.396976	-0.590365
50410	9.288806	-0.413493	4.530429	0.031059	0.094325	0.529836	-0.609634	-0.350217	0.395892	-0.590732
50411	9.149236	-0.323627	4.542934	-0.035913	0.035146	0.407338	-0.609875	-0.351000	0.394565	-0.590906
50412	8.861986	-0.532977	4.524538	0.205336	-0.078235	0.149338	-0.610165	-0.351945	0.393116	-0.591010
50413	8.552246	-0.605245	4.656449	0.302788	-0.330852	-0.066482	-0.610334	-0.353005	0.391693	-0.591149
50414	8.630231	-0.605876	4.689407	0.328467	-0.323068	0.017176	-0.610163	-0.354198	0.390701	-0.591268
50415	8.988622	-0.472926	4.441312	0.226765	0.059403	0.221716	-0.609712	-0.355384	0.390100	-0.591419
50416	9.270145	-0.299425	4.500919	0.063839	0.130069	0.495683	-0.609192	-0.356398	0.389697	-0.591610
50417	9.439634	-0.135866	4.443278	-0.088977	0.253728	0.617824	-0.608721	-0.357129	0.389550	-0.591750
50418	9.483943	-0.208798	4.371128	-0.008924	0.329202	0.627000	-0.608487	-0.357455	0.389372	-0.591911
50419	9.320945	-0.199633	4.520438	-0.020583	0.124298	0.547736	-0.608409	-0.357562	0.389007	-0.592167
50420	9.118246	-0.235166	4.614458	0.015585	-0.044674	0.409283	-0.608361	-0.357593	0.388435	-0.592573
50421	8.968547	-0.268365	4.669336	0.051461	-0.151847	0.300860	-0.608295	-0.357616	0.387789	-0.593049
50422	8.900868	-0.161320	4.590514	-0.047502	-0.098040	0.202921	-0.608257	-0.357660	0.387157	-0.593475
50423	8.985718	-0.038102	4.688142	-0.168825	-0.131643	0.320299	-0.608373	-0.357614	0.386439	-0.593851
50424	9.006007	0.004235	4.921585	-0.212105	-0.313523	0.443377	-0.608695	-0.357403	0.385541	-0.594232
50425	8.972821	-0.104718	4.579698	-0.082513	-0.009499	0.261496	-0.609062	-0.357205	0.384741	-0.594493
50426	9.045925	-0.167692	4.637298	-0.015197	-0.012798	0.353974	-0.609498	-0.356811	0.384148	-0.594667
50427	9.040535	-0.156350	4.839305	-0.030774	-0.177140	0.441202	-0.609970	-0.356203	0.383673	-0.594854
50428	9.000010	-0.228306	4.618163	0.049712	0.017421	0.305461	-0.610487	-0.355536	0.383186	-0.595037
50429	8.943576	-0.098808	4.560222	-0.075388	0.065464	0.226383	-0.610942	-0.355056	0.382589	-0.595240
50430	8.994640	-0.006152	4.728295	-0.169999	-0.039313	0.347523	-0.611371	-0.354626	0.381952	-0.595465
50431	9.067867	-0.003002	4.772632	-0.168891	-0.025642	0.433044	-0.611845	-0.354247	0.381142	-0.595723
50432	8.984906	-0.095220	4.846503	-0.070219	-0.111496	0.395583	-0.612366	-0.353948	0.380148	-0.596001
50433	8.913946	-0.122244	4.887894	-0.032790	-0.160312	0.352845	-0.612874	-0.353743	0.379060	-0.596292
50434	8.837547	-0.094966	4.987258	-0.050033	-0.261646	0.331917	-0.613339	-0.353616	0.377925	-0.596610
50435	8.822463	-0.161463	5.046537	0.028234	-0.304104	0.347832	-0.613725	-0.353600	0.376939	-0.596847
50436	8.988199	-0.132821	5.028700	0.012873	-0.194395	0.485624	-0.614032	-0.353584	0.376168	-0.597026
50437	8.977034	-0.058799	5.119722	-0.054334	-0.266425	0.518247	-0.614245	-0.353614	0.375591	-0.597152
50438	8.983468	0.068732	5.254732	-0.178831	-0.370099	0.586864	-0.614396	-0.353586	0.375163	-0.597283
50439	8.909323	-0.114653	5.075332	0.014745	-0.245331	0.438545	-0.614465	-0.353628	0.374730	-0.597459
50440	8.781235	-0.197978	5.149843	0.101595	-0.367816	0.362015	-0.614563	-0.353756	0.374264	-0.597575
50441	8.700908	-0.175919	5.099891	0.088483	-0.356898	0.267512	-0.614613	-0.354006	0.373814	-0.597657
50442	8.657390	-0.154912	5.134376	0.075139	-0.405560	0.245448	-0.614571	-0.354396	0.373414	-0.597719
50443	8.782718	-0.164945	4.977641	0.098748	-0.211268	0.281165	-0.614462	-0.354910	0.373256	-0.597625
50444	8.996832	-0.140398	4.863381	0.086309	-0.016304	0.415091	-0.614341	-0.355465	0.373276	-0.597407
50445	9.094205	-0.048850	4.779089	0.003696	0.096472	0.460449	-0.614199	-0.355945	0.373385	-0.597198
50446	9.055499	-0.032640	4.804571	-0.009638	0.047813	0.438393	-0.614096	-0.356244	0.373475	-0.597070
50447	8.874356	-0.061884	4.953253	0.016721	-0.176364	0.349072	-0.613971	-0.356529	0.373615	-0.596941
50448	8.825684	-0.000761	4.934126	-0.042683	-0.189601	0.296740	-0.613786	-0.356905	0.373847	-0.596760
50449	8.857565	0.040420	4.932172	-0.082412	-0.182283	0.323603	-0.613549	-0.357286	0.374107	-0.596615
50450	8.866661	-0.018306	4.878161	-0.021678	-0.142653	0.306287	-0.613326	-0.357665	0.374385	-0.596442
50451	8.870393	-0.012059	4.904142	-0.028191	-0.174738	0.321576	-0.613114	-0.358007	0.374707	-0.596253
50452	8.960415	0.005268	4.930997	-0.045644	-0.167743	0.413435	-0.612876	-0.358378	0.375080	-0.596040
50453	8.986068	-0.028697	5.006909	-0.013688	-0.234428	0.471486	-0.612625	-0.358681	0.375302	-0.595976
50454	8.951436	-0.035436	5.090888	-0.010558	-0.332587	0.479828	-0.612354	-0.358871	0.375485	-0.596025
50455	8.940436	-0.089243	4.861001	0.043921	-0.143775	0.363072	-0.612058	-0.358976	0.375981	-0.595953
50456	8.999309	0.040568	5.025077	-0.098909	-0.269270	0.490627	-0.611822	-0.358832	0.376802	-0.595763
50457	8.977972	-0.027180	5.313809	-0.052915	-0.547755	0.605490	-0.611624	-0.358524	0.377757	-0.595547
50458	8.880913	-0.111424	4.728600	0.031427	-0.089011	0.248811	-0.611367	-0.358447	0.378698	-0.595259
50459	9.289111	-0.129960	4.668077	0.041725	0.136843	0.583221	-0.611240	-0.358388	0.379743	-0.594761
50460	9.354726	-0.179392	4.458060	0.086353	0.332103	0.545863	-0.610967	-0.358519	0.380929	-0.594203
50461	9.410769	-0.307094	4.583983	0.198380	0.219674	0.655461	-0.610658	-0.358589	0.382133	-0.593704
50462	9.529827	-0.249570	4.511537	0.131285	0.315555	0.728516	-0.610267	-0.358849	0.383394	-0.593137
50463	9.481491	-0.214330	4.597117	0.082834	0.188410	0.724658	-0.609757	-0.359410	0.384732	-0.592454
50464	9.181834	-0.167885	4.734964	0.023403	-0.100944	0.518979	-0.609179	-0.360111	0.385889	-0.591871
50465	8.989740	-0.179526	4.595082	0.033511	-0.094551	0.284455	-0.608544	-0.360880	0.387033	-0.591309
50466	9.056470	-0.243939	4.576899	0.092986	-0.081967	0.336781	-0.607901	-0.361632	0.388091	-0.590816
50467	8.981610	-0.386934	4.617312	0.229753	-0.187266	0.289326	-0.607228	-0.362503	0.389131	-0.590291
50468	9.336086	-0.260760	4.510004	0.103487	0.035234	0.558358	-0.606592	-0.363367	0.390317	-0.589630
50469	9.394989	-0.209486	4.725553	0.039844	-0.165145	0.704518	-0.606091	-0.364070	0.391457	-0.588956
50470	9.416702	-0.321851	4.495819	0.156436	0.015695	0.625964	-0.605592	-0.364805	0.392486	-0.588329
50471	9.482598	-0.336332	4.320423	0.175979	0.172521	0.610270	-0.605172	-0.365581	0.393283	-0.587746
50472	9.381589	-0.371799	4.268931	0.214663	0.150727	0.497860	-0.604753	-0.366303	0.393720	-0.587436
50473	9.231626	-0.398611	4.501672	0.237161	-0.141340	0.462069	-0.604408	-0.367034	0.393800	-0.587281
50474	9.146367	-0.382820	4.433029	0.231648	-0.131159	0.355077	-0.604013	-0.368014	0.393910	-0.587000
50475	9.306338	-0.339842	4.400453	0.200456	-0.049066	0.485117	-0.603587	-0.369040	0.393769	-0.586888
50476	9.121454	-0.328607	4.499802	0.199167	-0.231108	0.359039	-0.603067	-0.370251	0.393376	-0.586924
50477	9.187138	-0.336376	4.514026	0.221482	-0.231802	0.424024	-0.602485	-0.371528	0.393130	-0.586879
50478	9.231819	-0.405806	4.638855	0.305437	-0.346639	0.516718	-0.601935	-0.373105	0.392739	-0.586705
50479	9.095176	-0.254584	4.649514	0.179169	-0.433553	0.394409	-0.601240	-0.375244	0.392236	-0.586390
50480	9.204507	-0.148264	4.539474	0.107684	-0.313304	0.446057	-0.600654	-0.377484	0.391607	-0.585974
50481	9.243080	-0.277645	4.296655	0.275925	-0.103526	0.379754	-0.600141	-0.379616	0.390764	-0.585684
50482	9.141710	-0.258220	4.446961	0.287730	-0.296879	0.348118	-0.599741	-0.381441	0.389470	-0.585769
50483	8.973908	-0.094546	4.764484	0.154605	-0.658366	0.325498	-0.599476	-0.383125	0.387945	-0.585954
50484	8.833814	0.003411	4.447875	0.092480	-0.438977	0.067519	-0.598976	-0.385261	0.387196	-0.585560
50485	9.066318	-0.034141	3.958256	0.166505	0.076977	0.078384	-0.598405	-0.387375	0.386753	-0.585042
50486	9.135978	0.004477	4.500316	0.157928	-0.406065	0.362235	-0.598252	-0.388719	0.385671	-0.585021
50487	8.828677	-0.014373	4.625845	0.202174	-0.654704	0.130882	-0.597869	-0.390512	0.384704	-0.584856
50488	9.104157	-0.238881	4.046798	0.458770	-0.034433	0.142590	-0.597327	-0.392516	0.384299	-0.584334
50489	9.287059	0.130490	4.030593	0.122000	0.034981	0.311343	-0.596723	-0.394326	0.383162	-0.584479
50490	9.273196	0.316615	3.973660	-0.038341	0.066702	0.280696	-0.595856	-0.396195	0.382249	-0.584698
50491	9.317005	0.235784	3.786789	0.061653	0.237425	0.244237	-0.594914	-0.397938	0.381662	-0.584856
50492	9.327348	0.357504	3.927501	-0.037394	0.095282	0.313613	-0.593952	-0.399622	0.380621	-0.585364
50493	9.183261	0.507148	4.028017	-0.170873	-0.067678	0.226266	-0.593112	-0.400905	0.379933	-0.585785
50494	9.257512	0.505185	3.840230	-0.159786	0.122650	0.220433	-0.592326	-0.402094	0.379379	-0.586125
50495	9.168356	0.310937	3.757239	0.040410	0.157743	0.099213	-0.591536	-0.403183	0.378703	-0.586611
50496	9.092244	0.268539	3.928324	0.097144	-0.038460	0.094976	-0.590516	-0.404486	0.378113	-0.587122
50497	9.271334	0.259179	3.760296	0.112826	0.173917	0.193393	-0.589471	-0.405654	0.377685	-0.587642
50498	9.321706	0.285853	3.676934	0.089746	0.253134	0.208470	-0.588262	-0.407018	0.377461	-0.588055
50499	9.498379	0.538177	3.566894	-0.161033	0.400883	0.338418	-0.587131	-0.407873	0.377053	-0.588853
50500	9.220955	0.482023	3.799802	-0.103616	0.079218	0.171292	-0.586380	-0.408019	0.376458	-0.589880
50501	9.086988	0.515449	3.899545	-0.142344	-0.054168	0.087932	-0.586201	-0.407446	0.375981	-0.590758
50502	9.033338	0.469084	3.964092	-0.106574	-0.114702	0.062063	-0.586357	-0.406364	0.375936	-0.591376
50503	9.023394	0.218100	4.029976	0.129172	-0.153222	0.070111	-0.586559	-0.405173	0.376310	-0.591755
50504	9.002870	0.223578	4.095098	0.106617	-0.212747	0.077450	-0.586728	-0.404191	0.377098	-0.591757
50505	9.267251	0.147663	4.023434	0.164499	-0.042188	0.289931	-0.586790	-0.403554	0.378209	-0.591422
50506	9.440352	0.089370	3.918435	0.204235	0.119744	0.406231	-0.586903	-0.402870	0.378967	-0.591291
50507	9.335822	0.140430	4.048733	0.143734	-0.043807	0.363115	-0.587049	-0.402311	0.379570	-0.591139
50508	9.265600	0.089478	4.013790	0.183259	-0.036411	0.283597	-0.587262	-0.401842	0.379833	-0.591078
50509	9.206330	-0.009267	3.994450	0.275378	-0.032767	0.219028	-0.587400	-0.401459	0.379684	-0.591297
50510	9.174320	0.069446	4.193615	0.198392	-0.221773	0.270508	-0.587415	-0.400995	0.379639	-0.591626
50511	9.229400	0.162225	4.260840	0.099785	-0.257795	0.350308	-0.587399	-0.400496	0.379868	-0.591832
50512	9.284075	0.108203	4.296392	0.146701	-0.264540	0.413418	-0.587353	-0.400221	0.380112	-0.591907
50513	9.097428	0.049456	4.469458	0.204750	-0.495414	0.309286	-0.587182	-0.400208	0.380132	-0.592073
50514	9.187174	0.135428	4.570890	0.119981	-0.560177	0.433646	-0.586863	-0.400392	0.380480	-0.592042
50515	9.218700	-0.032827	4.257256	0.271100	-0.268315	0.334441	-0.586376	-0.400687	0.381220	-0.591848
50516	9.319440	0.015117	4.285630	0.216548	-0.274651	0.438968	-0.585767	-0.400991	0.382016	-0.591732
50517	9.288196	0.074157	4.467978	0.153093	-0.477076	0.482352	-0.585207	-0.401222	0.383057	-0.591457
50518	9.257907	-0.170986	4.207287	0.378073	-0.264940	0.347340	-0.584673	-0.401585	0.384092	-0.591068
50519	9.380050	-0.054533	3.923104	0.245895	0.014024	0.351875	-0.584115	-0.402236	0.385126	-0.590503
50520	9.418400	0.130936	3.872485	0.055315	0.049171	0.371322	-0.583753	-0.402537	0.385544	-0.590384
50521	9.334482	-0.036255	3.964771	0.222501	-0.074886	0.326255	-0.583521	-0.402773	0.385927	-0.590201
50522	9.298405	0.057612	3.770776	0.120809	0.077408	0.220349	-0.583377	-0.403019	0.386245	-0.589968
50523	9.319415	0.096921	3.795472	0.082111	0.052135	0.249967	-0.583226	-0.403230	0.386561	-0.589766
50524	9.354620	0.091065	3.867140	0.089381	-0.008708	0.309758	-0.583037	-0.403402	0.386821	-0.589664
50525	9.363808	-0.000437	3.855055	0.179216	0.000420	0.312046	-0.582904	-0.403595	0.387147	-0.589450
50526	9.278110	0.026731	3.901253	0.153866	-0.084635	0.250760	-0.582771	-0.403917	0.387348	-0.589228
50527	9.372072	0.012933	3.810878	0.167362	0.025060	0.303144	-0.582600	-0.404295	0.387602	-0.588972
50528	9.375563	0.015664	3.802268	0.167439	0.024763	0.303143	-0.582389	-0.404724	0.387644	-0.588858
50529	9.239573	0.148729	4.142226	0.049219	-0.353470	0.307713	-0.582316	-0.405067	0.387796	-0.588594
50530	9.303783	0.034427	3.896127	0.158494	-0.110167	0.272157	-0.582207	-0.405486	0.388289	-0.588088
50531	9.358197	-0.027748	3.747293	0.219922	0.035476	0.265467	-0.582099	-0.405997	0.388547	-0.587672
50532	9.367143	0.055627	3.848662	0.145930	-0.068241	0.313156	-0.582140	-0.406348	0.388668	-0.587309
50533	9.388140	0.049603	3.806384	0.156045	-0.028473	0.316628	-0.582135	-0.406651	0.388757	-0.587045
50534	9.388932	0.122484	3.717294	0.084595	0.045487	0.285634	-0.582135	-0.406932	0.388883	-0.586768
50535	9.335145	0.092840	3.790920	0.121251	-0.047721	0.262412	-0.582275	-0.407154	0.388922	-0.586448
50536	9.435090	0.185362	3.810518	0.036135	-0.035462	0.364383	-0.582480	-0.407309	0.388988	-0.586093
50537	9.441867	0.109235	3.727320	0.114634	0.043272	0.338109	-0.582697	-0.407394	0.389043	-0.585781
50538	9.351155	0.062777	3.781641	0.168029	-0.039775	0.272898	-0.582931	-0.407526	0.388798	-0.585620
50539	9.325506	0.080708	3.960963	0.163668	-0.214185	0.315893	-0.583196	-0.407660	0.388545	-0.585430
50540	9.313480	0.182673	3.795488	0.063895	-0.065365	0.245725	-0.583468	-0.407748	0.388299	-0.585261
50541	9.313953	0.248051	3.901307	0.008487	-0.162480	0.287064	-0.583715	-0.407770	0.388137	-0.585106
50542	9.312649	0.191639	3.861970	0.069356	-0.122971	0.269824	-0.583969	-0.407843	0.387974	-0.584911
50543	9.400832	0.096040	3.856011	0.172985	-0.080984	0.346899	-0.584224	-0.407980	0.387792	-0.584681
50544	9.330553	0.110475	3.951978	0.169003	-0.195615	0.317600	-0.584538	-0.408130	0.387580	-0.584403
50545	9.362766	0.067185	3.900813	0.219763	-0.134468	0.327128	-0.584924	-0.408222	0.387477	-0.584021
50546	9.391267	0.076238	3.807673	0.216990	-0.036868	0.319026	-0.585240	-0.408374	0.387242	-0.583754
50547	9.387497	0.195975	3.871688	0.108019	-0.097529	0.342719	-0.585587	-0.408407	0.386950	-0.583576
50548	9.375835	0.202364	3.907515	0.109021	-0.130451	0.345413	-0.586014	-0.408247	0.386818	-0.583347
50549	9.403488	0.136074	3.852780	0.178400	-0.062721	0.348624	-0.586359	-0.408097	0.386670	-0.583203
50550	9.432798	0.133463	3.887689	0.186296	-0.079208	0.388717	-0.586678	-0.407951	0.386554	-0.583062
50551	9.370088	0.151173	3.879808	0.170032	-0.091543	0.328171	-0.587039	-0.407764	0.386519	-0.582852
50552	9.369220	0.103747	3.816242	0.218951	-0.026823	0.302059	-0.587393	-0.407606	0.386302	-0.582749
50553	9.383487	0.147809	3.856332	0.180215	-0.052081	0.331660	-0.587747	-0.407373	0.386051	-0.582723
50554	9.348789	0.151513	3.846691	0.178408	-0.048786	0.296004	-0.588125	-0.407132	0.385910	-0.582603
50555	9.409511	0.100238	3.769690	0.231719	0.053190	0.321561	-0.588488	-0.406908	0.385723	-0.582516
50556	9.400254	0.118572	3.878929	0.219440	-0.043371	0.354656	-0.588814	-0.406659	0.385409	-0.582569
50557	9.271437	0.184219	3.972493	0.155897	-0.170583	0.272984	-0.589101	-0.406409	0.385147	-0.582626
50558	9.247761	0.115459	3.964743	0.225274	-0.164542	0.245930	-0.589329	-0.406234	0.385064	-0.582574
50559	9.337693	0.175602	3.900275	0.166067	-0.069443	0.306754	-0.589413	-0.406173	0.385104	-0.582504
50560	9.327125	0.160577	4.021510	0.184323	-0.184656	0.342386	-0.589451	-0.406133	0.385083	-0.582507
50561	9.255415	0.163858	4.067064	0.180898	-0.254829	0.293396	-0.589417	-0.406224	0.385143	-0.582438
50562	9.298157	0.164048	4.049909	0.181867	-0.226071	0.326356	-0.589330	-0.406366	0.385233	-0.582368
50563	9.321935	0.183612	3.992677	0.161465	-0.167689	0.327306	-0.589245	-0.406456	0.385286	-0.582357
50564	9.357008	0.210223	3.940121	0.133492	-0.108496	0.340773	-0.589179	-0.406476	0.385385	-0.582344
50565	9.399312	0.141189	3.896070	0.201291	-0.052601	0.360959	-0.589163	-0.406496	0.385485	-0.582280
50566	9.423035	0.157119	3.902807	0.186208	-0.051269	0.385983	-0.589178	-0.406517	0.385474	-0.582257
50567	9.318593	0.164621	3.870205	0.175636	-0.060790	0.277269	-0.589184	-0.406519	0.385469	-0.582252
50568	9.338315	0.169681	3.795420	0.167848	0.016801	0.267475	-0.589138	-0.406422	0.385453	-0.582377
50569	9.305463	0.153479	3.870015	0.183278	-0.062183	0.264750	-0.589084	-0.406342	0.385392	-0.582529
50570	9.340204	0.181152	3.870015	0.154632	-0.047411	0.297856	-0.589049	-0.406263	0.385370	-0.582633
50571	9.326106	0.163637	3.832673	0.168902	-0.016694	0.270150	-0.588942	-0.406247	0.385349	-0.582767
50572	9.327171	0.169494	3.869623	0.162300	-0.048810	0.285338	-0.588829	-0.406200	0.385226	-0.582995
50573	9.291080	0.134440	3.936779	0.196312	-0.121218	0.276279	-0.588724	-0.406126	0.385151	-0.583202
50574	9.298292	0.106776	4.024572	0.224615	-0.196420	0.315381	-0.588598	-0.406087	0.385022	-0.583441
50575	9.229520	0.118351	4.153944	0.213856	-0.342847	0.301166	-0.588383	-0.406233	0.385097	-0.583508
50576	9.263818	0.146654	3.924645	0.175991	-0.125078	0.246937	-0.588137	-0.406321	0.385582	-0.583373
50577	9.348208	0.230832	4.099248	0.091365	-0.266977	0.393510	-0.587767	-0.406351	0.386210	-0.583310
50578	9.258684	-0.052566	4.050764	0.363683	-0.262053	0.283536	-0.587498	-0.406487	0.386762	-0.583121
50579	9.371530	0.062151	3.852824	0.243218	-0.052559	0.317059	-0.587202	-0.406970	0.387225	-0.582775
50580	9.471792	0.143264	3.830165	0.164785	-0.008499	0.403882	-0.586805	-0.407453	0.387288	-0.582795
50581	9.397463	0.054353	3.798977	0.253400	-0.013119	0.320580	-0.586574	-0.407808	0.387251	-0.582803
50582	9.367520	0.139935	3.716983	0.167547	0.045391	0.264805	-0.586462	-0.408058	0.387216	-0.582765
50583	9.417978	0.187654	3.750739	0.124665	0.029154	0.325615	-0.586301	-0.408306	0.387070	-0.582850
50584	9.381863	0.135721	3.868414	0.182535	-0.093736	0.334248	-0.586192	-0.408532	0.386898	-0.582916
50585	9.289813	0.097442	3.784620	0.219270	-0.050019	0.216415	-0.586152	-0.408678	0.386759	-0.582946
50586	9.321708	0.161317	3.841863	0.160296	-0.093646	0.269263	-0.586058	-0.408847	0.386698	-0.582962
50587	9.313030	0.162972	3.870692	0.161225	-0.126566	0.271921	-0.585945	-0.409056	0.386715	-0.582918
50588	9.373081	0.142227	3.844801	0.184276	-0.083065	0.317293	-0.585863	-0.409238	0.386694	-0.582886
50589	9.465360	0.075885	3.756212	0.252154	0.034427	0.367841	-0.585891	-0.409323	0.386514	-0.582918
50590	9.434919	0.085710	3.841224	0.248932	-0.051147	0.371391	-0.586027	-0.409343	0.386030	-0.583088
50591	9.369434	0.207075	3.971089	0.134730	-0.193348	0.362929	-0.586113	-0.409339	0.385861	-0.583116
50592	9.316427	0.108359	3.773430	0.228023	-0.023782	0.236878	-0.586222	-0.409315	0.385631	-0.583175
50593	9.350646	0.119149	3.940789	0.227791	-0.161037	0.331314	-0.586362	-0.409337	0.385236	-0.583280
50594	9.385927	0.175644	3.889370	0.175295	-0.095773	0.346731	-0.586449	-0.409393	0.384887	-0.583384
50595	9.328692	0.164854	3.870039	0.188610	-0.094042	0.286048	-0.586517	-0.409453	0.384542	-0.583501
50596	9.330614	0.193376	3.867772	0.164060	-0.088266	0.287941	-0.586570	-0.409529	0.384325	-0.583538
50597	9.323053	0.230110	3.819307	0.129172	-0.045414	0.264050	-0.586584	-0.409667	0.384128	-0.583556
50598	9.309629	0.209268	3.856664	0.154637	-0.084369	0.264803	-0.586524	-0.409851	0.383979	-0.583585
50599	9.328270	0.182265	3.922400	0.187943	-0.139595	0.305626	-0.586397	-0.410135	0.383888	-0.583573
50600	9.376272	0.211872	3.946569	0.163637	-0.149272	0.360105	-0.586231	-0.410447	0.383900	-0.583513
50601	9.374658	0.204064	3.858574	0.171059	-0.073270	0.325350	-0.586124	-0.410722	0.383893	-0.583431
50602	9.323396	0.267167	3.892164	0.110839	-0.130445	0.292595	-0.586015	-0.410979	0.383963	-0.583314
50603	9.367861	0.211824	3.817808	0.166779	-0.049387	0.303986	-0.585890	-0.411264	0.384040	-0.583188
50604	9.354990	0.230915	3.944082	0.155208	-0.178571	0.339601	-0.585755	-0.411600	0.384122	-0.583033
50605	9.347605	0.254781	3.802528	0.127767	-0.059431	0.280973	-0.585589	-0.411910	0.384406	-0.582793
50606	9.378674	0.244491	3.728259	0.137056	0.012939	0.281879	-0.585380	-0.412205	0.384485	-0.582743
50607	9.350155	0.232490	3.793641	0.152370	-0.066036	0.279071	-0.585138	-0.412578	0.384665	-0.582602
50608	9.310629	0.177888	3.632669	0.201815	0.058588	0.180888	-0.584851	-0.413115	0.384941	-0.582327
50609	9.339830	0.303246	3.809073	0.088042	-0.114452	0.277533	-0.584497	-0.413810	0.385331	-0.581932
50610	9.345657	0.210586	3.830435	0.184727	-0.150823	0.286865	-0.584001	-0.414589	0.385921	-0.581484
50611	9.452511	0.242414	3.775530	0.154600	-0.086240	0.367291	-0.583457	-0.415343	0.386621	-0.581027
50612	9.495412	0.305450	3.859329	0.094887	-0.174332	0.439685	-0.582916	-0.415920	0.387297	-0.580707
50613	9.374090	0.239217	3.987686	0.158234	-0.356089	0.369677	-0.582505	-0.416179	0.388097	-0.580399
50614	9.462102	0.190543	3.784021	0.192077	-0.151069	0.376854	-0.582140	-0.416260	0.389013	-0.580094
50615	9.384584	0.079218	3.667113	0.288107	-0.079414	0.258811	-0.582085	-0.416128	0.389633	-0.579828
50616	9.256790	0.207675	3.605190	0.147735	-0.074764	0.122164	-0.582277	-0.415734	0.390020	-0.579657
50617	9.411989	0.246914	3.657780	0.109563	-0.069301	0.287266	-0.582318	-0.415576	0.390156	-0.579638
50618	9.492229	0.336907	3.727512	0.020301	-0.109682	0.390147	-0.582389	-0.415392	0.390545	-0.579436
50619	9.308535	0.219629	3.435596	0.118967	0.093672	0.110893	-0.582242	-0.415523	0.391023	-0.579168
50620	9.131928	0.137982	3.608337	0.200723	-0.143128	0.004157	-0.581882	-0.416029	0.391644	-0.578747
50621	9.134904	0.230799	3.829086	0.114777	-0.375668	0.087174	-0.581232	-0.416874	0.392595	-0.578147
50622	9.276187	0.210257	3.902330	0.140083	-0.428448	0.242994	-0.580507	-0.417900	0.393745	-0.577353
50623	9.665761	0.161103	4.133578	0.205672	-0.549181	0.684707	-0.579933	-0.418891	0.395107	-0.576280
50624	9.662087	0.253674	3.343808	0.086639	0.148718	0.413338	-0.579331	-0.419882	0.396258	-0.575373
50625	9.663131	0.092693	3.216692	0.245721	0.240910	0.366376	-0.578801	-0.420772	0.396789	-0.574891
50626	9.605352	0.147825	3.374599	0.198326	0.048786	0.367235	-0.578510	-0.421407	0.397307	-0.574360
50627	9.466968	0.203949	3.425844	0.143627	-0.067083	0.255893	-0.578257	-0.421964	0.397862	-0.573822
50628	9.569582	0.247034	3.346181	0.101619	0.022771	0.327528	-0.578098	-0.422312	0.398510	-0.573276
50629	9.361281	0.175116	3.151967	0.159750	0.127791	0.064422	-0.578071	-0.422202	0.398846	-0.573150
50630	9.383263	0.112070	3.285437	0.222733	0.009307	0.127261	-0.578043	-0.421967	0.399007	-0.573240
50631	9.541087	0.101844	3.315865	0.232781	0.035211	0.285938	-0.578257	-0.421589	0.399226	-0.573149
50632	9.416852	0.248863	3.333643	0.078960	-0.023646	0.179580	-0.578348	-0.421307	0.399414	-0.573134
50633	9.447199	0.163146	3.490537	0.164892	-0.160064	0.257428	-0.578321	-0.421113	0.399742	-0.573075
50634	9.505431	0.101960	3.547345	0.223698	-0.192495	0.329313	-0.578422	-0.420789	0.399867	-0.573124
50635	9.527487	0.173880	3.406518	0.143149	-0.052112	0.305830	-0.578505	-0.420513	0.400156	-0.573041
50636	9.451601	0.152194	3.398067	0.158915	-0.071144	0.230841	-0.578548	-0.420432	0.400482	-0.572829
50637	9.433840	0.136681	3.433656	0.173298	-0.117507	0.225348	-0.578501	-0.420577	0.400918	-0.572465
50638	9.339359	0.153767	3.478358	0.155159	-0.203083	0.151294	-0.578264	-0.420961	0.401317	-0.572143
50639	9.415615	0.275107	3.910961	0.046751	-0.602932	0.368637	-0.578084	-0.421244	0.401902	-0.571706
50640	9.563557	0.190083	3.150286	0.111822	0.152071	0.256395	-0.578019	-0.421234	0.402581	-0.571301
50641	9.689294	0.128581	3.230209	0.174346	0.112294	0.399570	-0.578056	-0.421107	0.402771	-0.571223
50642	9.642091	0.181452	3.476107	0.124473	-0.136108	0.436807	-0.578251	-0.420892	0.402900	-0.571094
50643	9.560984	0.149232	3.451021	0.152921	-0.135961	0.351089	-0.578589	-0.420561	0.403040	-0.570896
50644	9.446225	0.123908	3.399923	0.173551	-0.119485	0.225320	-0.578952	-0.420182	0.402995	-0.570839
50645	9.454986	0.022162	3.349872	0.275204	-0.058853	0.214261	-0.579381	-0.419823	0.402730	-0.570854
50646	9.456505	0.094733	3.437089	0.207553	-0.130591	0.246532	-0.579839	-0.419494	0.402409	-0.570858
50647	9.363717	0.094681	3.383554	0.207097	-0.099828	0.141394	-0.580284	-0.419129	0.402170	-0.570842
50648	9.442931	0.180079	3.347976	0.124456	-0.031256	0.206986	-0.580656	-0.418767	0.402002	-0.570847
50649	9.470540	0.222074	3.405666	0.083982	-0.068291	0.253458	-0.580913	-0.418408	0.401899	-0.570922
50650	9.470153	0.251253	3.521724	0.052727	-0.171404	0.292623	-0.581097	-0.417897	0.402109	-0.570961
50651	9.531079	0.181892	3.642779	0.116629	-0.260994	0.388423	-0.581262	-0.417300	0.402616	-0.570873
50652	9.503298	-0.008250	3.329390	0.291643	0.028172	0.252686	-0.581574	-0.416783	0.403072	-0.570611
50653	9.527800	-0.198808	3.045331	0.477951	0.309167	0.175731	-0.581917	-0.416707	0.402771	-0.570529
50654	9.397041	-0.119434	3.217276	0.408066	0.117902	0.111477	-0.582473	-0.416563	0.401542	-0.570933
50655	9.190909	0.221875	3.613531	0.079571	-0.308921	0.060400	-0.583036	-0.416357	0.400996	-0.570892
50656	9.497143	0.254269	3.158570	0.050291	0.233391	0.196306	-0.583717	-0.415595	0.401244	-0.570577
50657	9.467147	0.185462	3.221099	0.113750	0.174815	0.186975	-0.584202	-0.414745	0.401465	-0.570544
50658	9.438143	0.051478	3.485768	0.241704	-0.067384	0.245581	-0.584803	-0.413599	0.401389	-0.570813
50659	9.284986	-0.040168	3.952518	0.328500	-0.531130	0.259298	-0.585483	-0.412511	0.400592	-0.571464
50660	8.962947	-0.192455	4.387468	0.472879	-1.026593	0.104158	-0.585752	-0.411863	0.400417	-0.571777
50661	9.034082	-0.028791	4.115703	0.296931	-0.743779	0.082416	-0.585647	-0.411380	0.401309	-0.571608
50662	9.261637	0.090271	3.467509	0.159720	-0.064358	0.075689	-0.585947	-0.410470	0.402674	-0.570994
50663	9.192013	0.510793	3.528989	-0.273432	-0.143825	0.041870	-0.586819	-0.409552	0.403045	-0.570495
50664	8.735580	0.359239	3.990966	-0.130647	-0.714266	-0.229375	-0.588408	-0.408250	0.402403	-0.570246
50665	8.629876	0.146576	4.205748	0.084935	-0.928272	-0.256767	-0.589711	-0.407378	0.402110	-0.569729
50666	9.232329	0.406171	3.450853	-0.158771	-0.003019	0.050580	-0.590515	-0.406619	0.403491	-0.568461
50667	9.716226	0.324624	3.046717	-0.070042	0.536278	0.360828	-0.591552	-0.405476	0.404922	-0.567181
50668	9.811486	0.782411	3.104146	-0.524351	0.534301	0.480644	-0.593615	-0.404024	0.405157	-0.565891
50669	9.332607	0.733501	3.989369	-0.486742	-0.429124	0.342576	-0.596512	-0.402347	0.404406	-0.564576
50670	9.041121	-0.188949	4.247543	0.446987	-0.757694	0.139450	-0.598644	-0.401595	0.402547	-0.564183
50671	9.193340	-0.434075	3.897126	0.733228	-0.349224	0.148930	-0.599868	-0.401352	0.401145	-0.564055
50672	9.833103	-0.192055	3.293579	0.550118	0.478407	0.533466	-0.600834	-0.400909	0.400079	-0.564099
50673	9.550227	0.783119	3.910329	-0.434559	-0.138192	0.526691	-0.601962	-0.400124	0.399224	-0.564059
50674	9.136739	0.843394	4.246747	-0.509448	-0.568215	0.269161	-0.603181	-0.399186	0.398191	-0.564151
50675	9.013178	0.333128	4.179419	0.002355	-0.535396	0.113497	-0.604172	-0.398074	0.397288	-0.564514
50676	9.385315	0.178955	3.831083	0.177065	-0.041419	0.324380	-0.605214	-0.396190	0.396722	-0.565121
50677	9.607297	0.215815	3.832085	0.135973	0.078865	0.531722	-0.606229	-0.394240	0.396962	-0.565227
50678	9.594935	0.500435	3.954038	-0.168088	0.002388	0.575733	-0.607469	-0.392368	0.397322	-0.564946
50679	9.312071	0.562777	4.528022	-0.269529	-0.601636	0.536209	-0.608975	-0.390694	0.397107	-0.564636
50680	9.335754	0.753370	4.197628	-0.450553	-0.245875	0.438186	-0.610518	-0.389094	0.397005	-0.564146
50681	9.250975	0.394411	4.663818	-0.115676	-0.684210	0.531661	-0.612207	-0.386970	0.396066	-0.564437
50682	9.580916	-0.202031	4.037562	0.512123	0.030715	0.573523	-0.613192	-0.385201	0.395943	-0.564664
50683	9.879657	-0.327967	3.991493	0.638273	0.211146	0.826634	-0.613605	-0.383745	0.396102	-0.565095
50684	9.594986	-0.224384	3.923358	0.504710	0.185141	0.541915	-0.613581	-0.382750	0.396421	-0.565572
50685	9.284791	0.221802	4.364585	0.008419	-0.301475	0.444756	-0.613508	-0.381913	0.396363	-0.566257
50686	8.995889	0.597592	4.457490	-0.399693	-0.466849	0.225969	-0.613195	-0.381248	0.396540	-0.566919
50687	9.323992	0.721741	4.095898	-0.513148	0.009330	0.383913	-0.612721	-0.380547	0.396952	-0.567615
50688	9.743616	0.391618	3.902595	-0.180644	0.336493	0.683777	-0.612063	-0.380113	0.397542	-0.568202
50689	9.638733	0.109584	4.006091	0.072887	0.179788	0.624184	-0.611342	-0.380102	0.397950	-0.568699
50690	9.358176	0.003879	3.933284	0.157804	0.119447	0.336550	-0.610527	-0.380411	0.398420	-0.569040
50691	8.953238	0.128605	3.979044	0.008220	-0.089536	-0.014642	-0.609570	-0.381054	0.398620	-0.569495
50692	8.663387	0.618164	4.109377	-0.501627	-0.315533	-0.222476	-0.608283	-0.382036	0.398906	-0.570012
50693	8.933919	0.831165	3.897737	-0.705986	-0.031480	-0.055711	-0.606443	-0.383317	0.399548	-0.570663
50694	9.287163	1.056404	3.869111	-0.935480	0.105887	0.259596	-0.604112	-0.384769	0.400368	-0.571583
50695	9.520614	1.227061	3.804285	-1.118976	0.221338	0.449821	-0.601817	-0.386064	0.401291	-0.572482
50696	9.609830	0.971918	3.837968	-0.887355	0.174558	0.541318	-0.599881	-0.386965	0.402494	-0.573062
50697	9.663823	0.636555	3.903629	-0.579734	0.088539	0.612711	-0.598474	-0.387278	0.403859	-0.573361
50698	9.753826	0.426034	3.940526	-0.397180	0.053994	0.708035	-0.597424	-0.387225	0.405334	-0.573451
50699	9.957239	0.223446	3.942940	-0.222455	0.098864	0.896371	-0.596524	-0.386876	0.406832	-0.573562
50700	9.879653	0.164748	4.058302	-0.201770	-0.054451	0.867234	-0.595744	-0.386191	0.408120	-0.573920
50701	9.520896	0.187484	3.949481	-0.257734	-0.092067	0.492943	-0.595128	-0.385227	0.409104	-0.574506
50702	9.289399	0.114951	3.858261	-0.215600	-0.091216	0.244023	-0.594745	-0.383986	0.409761	-0.575265
50703	9.107055	0.139079	3.970189	-0.273327	-0.247519	0.116266	-0.594480	-0.382686	0.409950	-0.576269
50704	8.884538	0.281071	3.945285	-0.438707	-0.282037	-0.101499	-0.594168	-0.381507	0.409710	-0.577542
50705	8.880134	0.372489	3.811060	-0.545216	-0.131663	-0.158413	-0.593930	-0.380397	0.409225	-0.578861
50706	8.984871	0.591950	3.812116	-0.781692	-0.058137	-0.066097	-0.593811	-0.379309	0.408540	-0.580179
50707	8.994541	0.800703	3.950249	-1.008529	-0.144902	-0.009161	-0.593706	-0.378295	0.407547	-0.581646
50708	9.062399	0.716232	3.934923	-0.933363	-0.073302	0.048704	-0.593545	-0.377471	0.406187	-0.583294
50709	9.219379	0.668925	3.963013	-0.894178	-0.001440	0.204807	-0.593413	-0.376675	0.404518	-0.585100
50710	9.189276	0.754841	4.322446	-0.994306	-0.297649	0.317400	-0.593451	-0.375647	0.402669	-0.586996
50711	9.405075	0.594983	3.755593	-0.825785	0.348238	0.292291	-0.593473	-0.374761	0.401174	-0.588560
50712	9.549166	0.592647	3.842741	-0.834180	0.367204	0.457348	-0.593700	-0.373595	0.399883	-0.589950
50713	9.501634	0.786335	4.532630	-1.053146	-0.231479	0.688796	-0.594155	-0.371977	0.398452	-0.591480
50714	8.978320	0.891731	4.895134	-1.166099	-0.720128	0.360272	-0.594682	-0.370344	0.396627	-0.593199
50715	9.472200	0.732992	4.915308	-1.025052	-0.477183	0.824106	-0.595253	-0.368559	0.395200	-0.594689
50716	10.135814	0.301157	4.966697	-0.622951	-0.188440	1.459825	-0.596063	-0.366268	0.394089	-0.596028
50717	10.436241	-0.087410	4.772322	-0.254933	0.170632	1.659166	-0.596883	-0.364205	0.393268	-0.597015
50718	10.186712	-0.180100	4.559048	-0.167033	0.305557	1.343700	-0.597624	-0.362426	0.392497	-0.597863
50719	9.440575	-0.158156	4.457560	-0.182805	0.117597	0.626273	-0.598210	-0.360744	0.391713	-0.598806
50720	8.759664	-0.424784	4.482281	0.084691	-0.165625	0.034558	-0.598726	-0.358988	0.390993	-0.599816
50721	8.525714	-0.794439	4.450130	0.442822	-0.206675	-0.175072	-0.599095	-0.357122	0.390511	-0.600875
50722	8.593637	-1.182107	4.451023	0.805182	-0.146427	-0.097253	-0.599469	-0.355075	0.390326	-0.601834
50723	8.687384	-1.548072	4.645089	1.135418	-0.249224	0.091482	-0.599763	-0.353082	0.390270	-0.602749
50724	8.781653	-1.929818	4.565457	1.490334	-0.111062	0.159849	-0.599925	-0.351368	0.390214	-0.603626
50725	8.842663	-2.130448	4.446897	1.670520	0.044998	0.172985	-0.600040	-0.349997	0.390133	-0.604360
50726	8.882985	-2.153554	4.271954	1.681128	0.238953	0.132738	-0.600253	-0.348864	0.390144	-0.604796
50727	8.894501	-2.222074	4.111095	1.743227	0.399833	0.074280	-0.600609	-0.347996	0.390233	-0.604885
50728	9.091590	-2.419109	3.962199	1.932627	0.629842	0.191130	-0.601217	-0.347171	0.390202	-0.604775
50729	9.188196	-2.376960	4.012977	1.883268	0.643148	0.297531	-0.602034	-0.346236	0.390000	-0.604628
50730	9.225058	-2.322642	4.179443	1.819959	0.531211	0.403458	-0.603112	-0.344992	0.389778	-0.604408
50731	9.352926	-2.284566	4.326238	1.769906	0.484334	0.581811	-0.604521	-0.343401	0.389485	-0.604095
50732	9.237492	-2.086983	4.435936	1.570193	0.369377	0.519894	-0.606235	-0.341426	0.388948	-0.603843
50733	8.587576	-2.033771	4.984562	1.506128	-0.379941	0.203081	-0.608327	-0.338917	0.388376	-0.603521
50734	7.799415	-1.891247	5.037445	1.376223	-0.757267	-0.468386	-0.610648	-0.336227	0.388048	-0.602891
50735	7.085817	-1.695164	4.974900	1.192548	-1.003514	-1.129214	-0.613083	-0.333428	0.387970	-0.602025
50736	7.524781	-1.381858	5.287741	0.834978	-1.024291	-0.606947	-0.615134	-0.331208	0.388393	-0.600885
50737	9.000675	-1.145627	5.743528	0.516480	-0.672989	0.892125	-0.616943	-0.329100	0.389270	-0.599619
50738	9.705079	-0.996076	5.379286	0.364122	0.013580	1.322151	-0.618893	-0.326958	0.390133	-0.598219
50739	9.973803	-0.703524	5.167677	0.079541	0.376926	1.435781	-0.621425	-0.324563	0.390080	-0.596932
50740	9.342420	-0.468191	5.386502	-0.152923	-0.058228	0.980241	-0.624480	-0.322220	0.388892	-0.595787
50741	8.800628	-0.524734	5.424283	-0.067052	-0.307897	0.533790	-0.627519	-0.320601	0.387051	-0.594665
50742	8.350449	-0.622955	5.454103	0.068443	-0.524009	0.166582	-0.630081	-0.320079	0.385352	-0.593339
50743	8.055153	-0.787823	5.592749	0.260626	-0.783230	-0.009450	-0.632050	-0.320376	0.383994	-0.591963
50744	8.079611	-0.829217	5.408305	0.359948	-0.609291	-0.080445	-0.633407	-0.321195	0.382954	-0.590742
50745	8.357131	-0.601886	5.321325	0.179489	-0.376035	0.104304	-0.634302	-0.322032	0.382289	-0.589756
50746	8.465279	-0.431583	4.975338	0.070156	-0.017616	0.015635	-0.634905	-0.322764	0.382191	-0.588770
50747	8.711219	-0.254985	4.672506	-0.057009	0.364474	0.068938	-0.635267	-0.323500	0.382897	-0.587515
50748	9.008332	-0.250170	4.664265	-0.049408	0.489012	0.322710	-0.635330	-0.324344	0.384448	-0.585966
50749	8.975266	-0.325129	5.047107	-0.014507	0.088245	0.489068	-0.635002	-0.325496	0.386467	-0.584353
50750	9.001244	-0.238155	4.940727	-0.090741	0.142869	0.456729	-0.634332	-0.327303	0.388346	-0.582823
50751	9.009889	-0.095105	5.012398	-0.236690	0.037067	0.495250	-0.633448	-0.329322	0.389940	-0.581582
50752	8.971005	-0.023620	5.259046	-0.328038	-0.248110	0.578060	-0.632436	-0.331373	0.391191	-0.580677
50753	8.887045	0.112109	5.022116	-0.435300	-0.127582	0.385730	-0.631178	-0.333621	0.392575	-0.579824
50754	8.917500	0.274666	4.853308	-0.576644	-0.010677	0.327278	-0.629752	-0.335832	0.393974	-0.579150
50755	8.900962	0.400069	4.811877	-0.698069	-0.029742	0.289435	-0.628236	-0.337908	0.395380	-0.578629
50756	8.856402	0.566469	4.842531	-0.872263	-0.121735	0.258602	-0.626682	-0.339825	0.397118	-0.578002
50757	8.747203	0.471290	4.578839	-0.765314	-0.011349	0.042019	-0.625047	-0.341608	0.399368	-0.577170
50758	8.742143	0.268874	4.230204	-0.548362	0.204656	-0.114808	-0.623125	-0.343583	0.402294	-0.576044
50759	9.244170	0.687094	4.562899	-1.012767	0.087535	0.468984	-0.621054	-0.345648	0.405472	-0.574814
50760	9.481830	1.053174	4.230338	-1.367770	0.431856	0.524236	-0.618896	-0.347751	0.408759	-0.573544
50761	9.792215	0.556885	4.357689	-0.911676	0.291280	0.877001	-0.615795	-0.351107	0.413021	-0.571782
50762	9.522000	0.725346	4.189853	-1.081305	0.203608	0.557318	-0.611815	-0.356287	0.416042	-0.570658
50763	8.974379	0.845977	3.989393	-1.186462	0.038028	-0.026984	-0.608008	-0.361167	0.418405	-0.569932
50764	9.253035	-0.256605	4.212664	-0.107444	-0.277278	0.352990	-0.603260	-0.366893	0.420950	-0.569445
50765	8.802394	-1.535923	3.906038	1.190960	-0.385136	-0.141561	-0.598344	-0.372096	0.423021	-0.569722
50766	7.293679	-1.633879	3.025501	1.357742	-0.224357	-1.867449	-0.593301	-0.377043	0.424245	-0.570832
50767	7.421020	-2.078206	2.446672	1.827126	0.273005	-1.941000	-0.588689	-0.381283	0.425744	-0.571674
50768	8.992460	-2.192659	2.600257	1.903028	0.614680	-0.408771	-0.583027	-0.387668	0.425707	-0.573207
50769	10.092677	-3.111322	3.418797	2.774309	0.144563	0.935004	-0.578098	-0.392935	0.424217	-0.575713
50770	10.198087	-3.021709	3.295392	2.703248	0.297558	0.985235	-0.573287	-0.397710	0.420770	-0.579759
50771	10.411748	-2.594366	3.264805	2.292953	0.419577	1.158202	-0.568383	-0.402874	0.417083	-0.583674
50772	11.458932	-2.746393	3.439814	2.449890	0.646382	2.198216	-0.564300	-0.407557	0.411511	-0.588321
50773	11.114189	-2.666388	4.144609	2.459976	-0.045247	2.093506	-0.560748	-0.412173	0.403877	-0.593767
50774	10.099351	-1.927747	4.714029	1.874057	-0.841003	1.309966	-0.556954	-0.416984	0.394511	-0.600239
50775	9.118539	-1.696318	5.057266	1.813474	-1.383872	0.502086	-0.552882	-0.421956	0.384166	-0.607200
50776	8.676516	-1.794306	4.941569	2.028506	-1.289544	0.043302	-0.548840	-0.426562	0.374603	-0.613589
50777	8.427525	-1.768595	4.687553	2.078054	-1.024697	-0.286192	-0.544901	-0.430729	0.365615	-0.619581
50778	8.521210	-1.301541	4.060307	1.599090	-0.382456	-0.427228	-0.540216	-0.435230	0.357655	-0.625160
50779	8.938529	-0.755001	3.961889	1.084373	-0.143210	-0.067606	-0.535263	-0.438877	0.349205	-0.631614
50780	8.750111	-1.020783	4.404377	1.475954	-0.458363	-0.085655	-0.530586	-0.440969	0.340968	-0.638565
50781	8.022868	-1.575457	4.533336	2.105820	-0.605196	-0.724386	-0.525840	-0.442256	0.332618	-0.645963
50782	7.912579	-2.154200	4.412713	2.658080	-0.271115	-0.891857	-0.520587	-0.443568	0.325298	-0.653007
50783	8.562740	-1.852308	4.282190	2.289205	0.137415	-0.334892	-0.514007	-0.445984	0.318812	-0.659737
50784	9.137958	-1.817294	4.253423	2.186661	0.469794	0.181993	-0.506731	-0.448268	0.313165	-0.666489
50785	9.301219	-1.819268	4.633865	2.251745	0.283935	0.489911	-0.498285	-0.450772	0.307556	-0.673740
50786	9.512515	-1.557584	5.332883	2.166134	-0.245803	0.985492	-0.489160	-0.453373	0.302302	-0.681020
50787	9.574747	-1.681070	5.501591	2.295523	-0.259769	1.115805	-0.480058	-0.455622	0.297576	-0.688042
50788	9.121430	-1.461358	5.406378	2.074256	-0.376602	0.681124	-0.471506	-0.457019	0.292771	-0.695055
50789	8.320554	-1.154476	5.324488	1.835290	-0.674775	-0.061253	-0.463147	-0.457997	0.287604	-0.702152
50790	8.591975	-0.319519	5.372589	1.023220	-0.899999	0.233790	-0.454783	-0.459436	0.282951	-0.708540
50791	9.329771	-0.169541	6.014318	1.001990	-1.177296	1.180736	-0.446568	-0.461240	0.279428	-0.713971
50792	9.947652	0.560203	6.126837	0.276401	-1.369488	1.800055	-0.438623	-0.463565	0.276555	-0.718494
50793	10.300792	1.267904	5.865276	-0.537666	-1.403645	2.013374	-0.431939	-0.465462	0.275482	-0.721723
50794	8.926543	2.297338	6.636901	-0.846559	-3.063676	1.091741	-0.426869	-0.465459	0.274181	-0.725228
50795	8.665203	4.074812	7.347078	-2.034190	-4.567829	1.172114	-0.425789	-0.463427	0.270388	-0.728581
50796	7.893442	-1.041244	4.477481	1.269301	-0.064946	-0.767103	-0.428179	-0.463958	0.275185	-0.725037
50797	3.193568	-4.269603	4.034375	4.891084	0.059429	-5.254465	-0.425031	-0.472922	0.276841	-0.720453
50798	7.130782	-4.976653	1.705752	3.758466	3.578446	-2.629935	-0.425569	-0.477333	0.280736	-0.715704
50799	9.294761	-5.130776	3.581686	4.392818	2.844449	0.094789	-0.420277	-0.482860	0.278337	-0.716060
50800	8.151563	-2.452342	0.689688	0.944957	3.406212	-2.038230	-0.413445	-0.488481	0.276066	-0.717103
50801	8.756243	-2.685624	3.045353	2.142690	1.838826	-0.583057	-0.406298	-0.491876	0.272617	-0.720181
50802	9.731269	-3.324724	2.931788	2.421248	2.598588	0.273518	-0.398907	-0.496117	0.267719	-0.723234
50803	10.111916	-3.025321	3.857581	2.558309	1.884200	0.966405	-0.392337	-0.499786	0.261526	-0.726560
50804	9.833535	-3.030332	4.428808	2.922277	1.439873	0.905617	-0.386007	-0.503241	0.254718	-0.729976
50805	9.848339	-2.896818	5.054815	3.173198	0.975900	1.137671	-0.379566	-0.507373	0.248442	-0.732652
50806	10.006316	-2.491399	5.127301	2.893409	0.785528	1.306373	-0.373350	-0.511528	0.243396	-0.734647
50807	10.100652	-1.773334	4.778379	2.147828	0.649661	1.276288	-0.367009	-0.516101	0.239510	-0.735921
50808	10.150481	-0.958526	4.604396	1.454176	0.260932	1.276420	-0.360458	-0.521317	0.236370	-0.736497
50809	10.164968	-0.376427	3.633844	0.483493	0.533169	0.964798	-0.354122	-0.526956	0.234214	-0.736246
50810	11.336461	0.076982	3.054470	-0.391320	0.900457	1.887157	-0.347689	-0.531732	0.231810	-0.736640
50811	12.471098	0.305078	3.473364	-0.489756	0.681657	3.109408	-0.340884	-0.535221	0.229490	-0.738018
50812	11.135495	0.856833	3.839545	-0.390339	-0.367146	1.985106	-0.333790	-0.537808	0.227517	-0.739989
50813	9.233961	1.668668	3.657745	-0.706819	-1.346834	0.142993	-0.327018	-0.540424	0.226017	-0.741564
50814	8.795879	1.370115	3.272401	-0.624738	-1.058272	-0.408302	-0.320479	-0.544100	0.224581	-0.742166
50815	9.520690	0.726130	3.344700	-0.216360	-0.564273	0.286409	-0.313470	-0.548861	0.222684	-0.742226
50816	10.428438	0.644740	3.545706	-0.135150	-0.532835	1.207122	-0.305659	-0.554792	0.220849	-0.741623
50817	11.206502	0.619192	3.175985	-0.443217	-0.221829	1.841000	-0.297638	-0.560750	0.218835	-0.741001
50818	11.235066	0.512549	3.189048	-0.283099	-0.255912	1.871168	-0.290118	-0.566089	0.216251	-0.740682
50819	10.668827	0.377833	2.965368	-0.175593	-0.194466	1.263905	-0.283078	-0.570282	0.212479	-0.741281
50820	9.925973	-0.114094	2.558124	0.031728	0.259625	0.434920	-0.275682	-0.573567	0.207714	-0.742883
50821	9.240301	-0.370239	2.453203	0.262082	0.382847	-0.256372	-0.267364	-0.576281	0.202121	-0.745362
50822	8.542328	-0.697537	2.963704	0.989292	0.211375	-0.800580	-0.257566	-0.579184	0.195629	-0.748288
50823	8.209540	-0.799710	3.164772	1.271221	0.130697	-1.070904	-0.245933	-0.582375	0.188300	-0.751598
50824	8.028573	-0.742264	2.873088	1.039403	0.225692	-1.319615	-0.232342	-0.585789	0.180244	-0.755235
50825	8.129574	-0.720721	2.955344	1.062634	0.175967	-1.199714	-0.216521	-0.589537	0.171158	-0.759124
50826	8.485487	-1.098585	3.492138	1.616599	0.275396	-0.717845	-0.199245	-0.593651	0.161409	-0.762776
50827	9.035698	-1.438430	3.315663	1.490328	0.724112	-0.223056	-0.181105	-0.597442	0.151397	-0.766383
50828	9.448621	-1.749091	3.111962	1.308920	1.135456	0.138047	-0.160786	-0.600815	0.139261	-0.770568
50829	9.570343	-1.928909	3.166105	1.311036	1.304061	0.282653	-0.138443	-0.603117	0.125201	-0.775505
50830	9.866042	-2.127350	3.939886	1.878676	1.280065	0.780558	-0.114230	-0.603947	0.109908	-0.781102
50831	9.808376	-1.767500	4.373064	2.026998	0.880268	0.844026	-0.088273	-0.603402	0.092995	-0.787062
50832	9.874621	-2.088198	3.794098	1.368202	1.402552	0.790205	-0.061314	-0.602304	0.075502	-0.792319
50833	10.492433	-2.558449	3.457485	0.733240	1.970101	1.330290	-0.031844	-0.600122	0.055079	-0.797374
50834	10.686106	-2.491373	4.364047	1.266967	1.862927	1.778777	-0.000986	-0.597515	0.031710	-0.801230
50835	10.299588	-2.301264	3.077947	-0.093598	1.807398	1.030376	0.029588	-0.595877	0.007194	-0.802498
50836	9.983552	-1.281833	2.678528	-0.497440	0.818331	0.558933	0.060062	-0.593632	-0.019401	-0.802258
50837	8.981470	0.616948	2.095489	-0.555097	-1.020898	-0.642744	0.089529	-0.590572	-0.047439	-0.800599
50838	8.155627	2.847416	-0.194338	-1.833190	-3.563603	-2.158060	0.117518	-0.588139	-0.076960	-0.796467
50839	8.556289	4.256888	-1.333600	-2.286399	-5.321375	-2.095468	0.142611	-0.582734	-0.102531	-0.793455
50840	8.053701	4.989206	0.392348	-0.094412	-5.399475	-2.018955	0.163151	-0.573294	-0.121583	-0.793683
50841	6.445543	1.568349	3.402567	1.621801	-0.903241	-2.592239	0.175110	-0.562954	-0.128154	-0.797493
50842	4.047035	-0.751063	0.068333	-1.501022	0.163117	-5.982886	0.180019	-0.567243	-0.139505	-0.791433
50843	12.955324	2.668930	-0.097125	-2.710240	-4.048313	2.485192	0.187380	-0.563060	-0.154769	-0.789873
50844	20.231913	-1.611176	9.432691	0.886381	3.155899	12.326685	0.190788	-0.560421	-0.151944	-0.791480
50845	11.969668	-11.757315	4.116788	-6.004072	10.520820	2.504473	0.197955	-0.556673	-0.154392	-0.791891
50846	10.575000	-4.746532	5.523292	-1.118639	5.207413	1.870552	0.207313	-0.557027	-0.161412	-0.787838
50847	12.468288	-3.584507	3.480422	-2.694392	2.901005	3.022533	0.215601	-0.561388	-0.165451	-0.781656
50848	8.668840	-2.493982	-0.065454	-3.784276	0.746441	-1.658258	0.220882	-0.564422	-0.173133	-0.776314
50849	12.312246	2.010414	0.337686	-1.855272	-3.244225	2.094086	0.222980	-0.569930	-0.185970	-0.768684
50850	10.351526	1.170754	1.966355	-0.433435	-1.293357	0.700665	0.223596	-0.570308	-0.184534	-0.768571
50851	9.508644	-2.659085	2.778849	-1.716141	2.390357	0.013187	0.226938	-0.570222	-0.183754	-0.767841
50852	8.589860	-2.874100	3.068258	-1.391362	2.809684	-0.777761	0.229865	-0.568469	-0.184245	-0.768153
50853	6.643925	-1.219152	3.954100	0.698410	2.222816	-2.340470	0.231336	-0.567053	-0.188350	-0.767762
50854	6.155468	-1.346501	3.068168	0.041606	1.938444	-3.077919	0.229973	-0.567700	-0.190367	-0.767196
50855	6.793759	-1.912719	2.896942	-0.573183	2.244336	-2.543555	0.229084	-0.568715	-0.191249	-0.766490
50856	7.584214	-2.438965	1.750381	-1.940157	1.942805	-2.131944	0.228665	-0.571019	-0.191082	-0.764942
50857	7.478334	-3.544395	2.177035	-2.174966	3.114218	-2.144657	0.228171	-0.573190	-0.190547	-0.763599
50858	7.313223	-3.455874	2.239425	-2.001929	3.113864	-2.280265	0.227157	-0.574485	-0.190412	-0.762961
50859	7.244333	-2.930076	1.769706	-2.028885	2.449587	-2.458733	0.225170	-0.575736	-0.189697	-0.762786
50860	7.079073	-2.615285	1.965362	-1.634630	2.344215	-2.556780	0.222911	-0.576943	-0.189175	-0.762667
50861	7.052384	-2.712365	1.810356	-1.783006	2.369091	-2.630863	0.219970	-0.578353	-0.188272	-0.762676
50862	7.586474	-2.889923	2.199226	-1.677917	2.693485	-2.023434	0.216414	-0.579390	-0.186645	-0.763306
50863	7.885386	-2.855000	2.601484	-1.380273	2.879815	-1.633485	0.211602	-0.580872	-0.184487	-0.764053
50864	9.055399	-2.799082	2.556472	-1.630171	2.723844	-0.523259	0.205765	-0.582618	-0.182261	-0.764852
50865	10.444118	-2.733191	3.115904	-1.438313	2.879506	0.952903	0.198782	-0.584279	-0.179827	-0.766006
50866	12.862475	-2.582397	3.384993	-1.686700	2.742851	3.347894	0.190033	-0.586267	-0.176701	-0.767434
50867	16.552204	-3.249518	4.344440	-2.070942	3.601430	7.103206	0.178710	-0.588907	-0.171415	-0.769330
50868	19.892815	-3.892862	5.949772	-1.750271	4.839461	10.676102	0.165965	-0.591777	-0.165158	-0.771349
50869	19.465061	-2.965600	6.566021	-0.525984	4.494784	10.443440	0.150674	-0.595915	-0.157612	-0.772878
50870	14.843630	-0.287099	5.365111	0.916866	1.920029	5.829230	0.131280	-0.602097	-0.147671	-0.773588
50871	11.107863	2.196169	4.104529	1.793216	-0.704005	2.076109	0.109503	-0.608986	-0.134484	-0.773989
50872	8.162728	4.855359	3.918307	3.198471	-3.297746	-0.623026	0.088687	-0.613978	-0.120757	-0.774973
50873	7.341154	4.835658	4.260749	3.568249	-3.307010	-1.341662	0.069511	-0.617431	-0.107827	-0.776093
50874	6.719192	3.064343	3.066257	2.059422	-2.017078	-2.354166	0.051993	-0.622189	-0.096587	-0.775144
50875	8.563843	0.953216	2.223460	0.463058	-0.082121	-0.926284	0.032507	-0.631907	-0.084154	-0.769776
50876	10.759907	-0.634624	0.705529	-1.499996	1.428397	0.788154	0.013637	-0.640943	-0.073752	-0.763915
50877	9.573199	1.224415	0.877456	-0.696122	-0.331726	-0.152536	-0.004168	-0.647303	-0.064009	-0.759529
50878	9.253430	2.139929	1.790422	0.386500	-1.107095	-0.219159	-0.023436	-0.650528	-0.050263	-0.757455
50879	10.014525	2.363752	2.511983	0.909133	-1.221062	0.669133	-0.044290	-0.648543	-0.033088	-0.759168
50880	9.085579	2.068280	3.153528	1.522321	-1.069986	-0.153263	-0.065225	-0.643527	-0.017311	-0.762443
50881	9.097473	1.798575	3.572281	1.766120	-0.862643	-0.071327	-0.086768	-0.638585	-0.002357	-0.764640
50882	9.240708	1.744098	3.152038	1.169381	-0.755039	0.007093	-0.108973	-0.633206	0.011188	-0.766192
50883	8.960992	2.359425	3.041447	0.834726	-1.347445	-0.189729	-0.130771	-0.627673	0.023982	-0.767040
50884	8.820773	2.203365	2.970822	0.631418	-1.171955	-0.341115	-0.152603	-0.620349	0.039237	-0.768336
50885	8.234321	1.487532	2.879250	0.647514	-0.565468	-1.005615	-0.174601	-0.611362	0.056117	-0.769807
50886	7.744414	1.799134	3.198318	0.724046	-1.049739	-1.338514	-0.195813	-0.601567	0.072602	-0.771041
50887	7.564852	2.068643	2.944429	0.210144	-1.250562	-1.532343	-0.217180	-0.592468	0.090443	-0.770477
50888	8.090854	2.303024	2.362732	-0.710907	-1.093846	-1.173044	-0.237812	-0.584142	0.108572	-0.768398
50889	8.338481	2.239847	2.274662	-1.003754	-0.893952	-0.985982	-0.259097	-0.573985	0.127710	-0.766224
50890	8.691369	1.065935	3.150094	0.060136	-0.209648	-0.509565	-0.280556	-0.561770	0.146400	-0.764375
50891	8.523632	0.772633	4.183226	0.862852	-0.578442	-0.343506	-0.302516	-0.549423	0.165464	-0.761079
50892	9.243294	1.330295	4.883429	0.622917	-1.230899	0.634635	-0.326118	-0.536184	0.184829	-0.756302
50893	9.356215	1.163420	4.293294	0.043984	-0.690519	0.523702	-0.353235	-0.521283	0.205429	-0.749192
50894	9.595503	1.811678	2.836040	-1.583783	0.016332	0.231623	-0.378933	-0.510041	0.224182	-0.738925
50895	9.837359	2.523634	2.154226	-2.650211	0.300334	0.220575	-0.405451	-0.499624	0.244815	-0.725294
50896	9.302285	2.558105	2.870936	-2.276233	-0.283284	-0.011955	-0.435459	-0.485904	0.271826	-0.707378
50897	9.064664	1.299078	3.925788	-0.797073	-0.494091	0.106235	-0.466731	-0.467931	0.296533	-0.689399
50898	8.390659	1.845145	3.432251	-1.527383	-0.429271	-0.698497	-0.495334	-0.452438	0.317171	-0.670333
50899	8.560823	2.109907	2.040724	-2.225312	0.922596	-1.089286	-0.523299	-0.438220	0.337409	-0.648287
50900	8.894330	1.471136	2.423513	-1.455564	1.020469	-0.648404	-0.551253	-0.423495	0.354589	-0.625331
50901	8.693061	0.338005	3.469554	-0.104739	0.254771	-0.450784	-0.578706	-0.407149	0.371054	-0.601372
50902	8.700033	-1.163291	3.538863	1.438694	0.264578	-0.462467	-0.605085	-0.390716	0.386427	-0.576096
50903	9.593374	-2.722275	3.980042	3.059602	0.045375	0.478976	-0.631345	-0.371518	0.400288	-0.550588
50904	8.436965	-2.663301	4.329821	2.843067	-0.920873	-0.427172	-0.655392	-0.351193	0.415236	-0.524122
50905	8.238334	-2.429697	2.300621	2.889054	0.613451	-1.426050	-0.672780	-0.337059	0.432225	-0.496930
50906	10.598855	-2.804335	1.385087	3.832382	1.880900	0.379506	-0.686288	-0.325011	0.447898	-0.471978
50907	11.070973	-3.836177	2.754945	4.472842	0.163776	1.360065	-0.699461	-0.309047	0.461383	-0.449856
50908	11.933527	-4.540441	2.677830	5.190344	-0.114270	2.155052	-0.708238	-0.296310	0.476068	-0.428904
50909	13.011808	-3.386250	2.998853	4.087743	0.141097	3.341354	-0.715074	-0.284683	0.488390	-0.411218
50910	10.735248	-1.773698	3.098043	2.084630	-0.070226	1.306496	-0.721118	-0.272350	0.499087	-0.395886
50911	7.841619	-0.785873	1.840873	1.214557	0.468478	-1.825090	-0.725303	-0.261170	0.509679	-0.382039
50912	7.203341	0.080228	1.063469	0.731456	1.302540	-2.685732	-0.727980	-0.252359	0.518835	-0.370365
50913	7.635308	-0.637063	1.797974	0.930230	0.377107	-2.007042	-0.729194	-0.246693	0.526671	-0.360605
50914	7.970547	-1.515454	3.384633	0.686235	-1.330184	-1.150104	-0.729133	-0.243628	0.533250	-0.353066
50915	8.523431	-0.603579	4.549641	-0.715811	-1.556438	-0.285036	-0.727356	-0.242769	0.539333	-0.348047
50916	8.652169	0.590302	5.364581	-2.211162	-1.437037	0.037780	-0.724716	-0.242561	0.544522	-0.345610
50917	8.983568	1.630003	5.547002	-3.172522	-0.909674	0.347836	-0.720121	-0.244606	0.549835	-0.345361
50918	10.333480	2.449324	4.642955	-3.157598	0.477538	1.328927	-0.715083	-0.246807	0.555941	-0.344488
50919	10.800487	3.824394	4.290242	-4.064062	1.595316	1.616167	-0.711306	-0.247596	0.562630	-0.340861
50920	10.283851	4.817768	2.878597	-4.111505	3.071031	0.719088	-0.709126	-0.247200	0.568977	-0.335108
50921	10.089945	4.527976	1.973472	-3.386535	3.452781	0.327018	-0.708252	-0.245368	0.574393	-0.329007
50922	10.653342	3.551572	2.154846	-2.722894	2.752691	0.946455	-0.708029	-0.242290	0.579324	-0.323069
50923	10.826595	3.114147	2.454418	-2.602932	2.265956	1.188555	-0.708330	-0.238040	0.583791	-0.317478
50924	10.369612	2.477852	2.960140	-2.561086	1.413498	0.858474	-0.709250	-0.232833	0.587437	-0.312524
50925	9.612490	1.982116	3.256278	-2.524602	0.778541	0.184912	-0.710469	-0.227341	0.590121	-0.308720
50926	9.320059	2.264518	3.022107	-2.622860	1.150599	-0.173136	-0.711596	-0.222234	0.591756	-0.306705
50927	9.732066	2.435648	2.866997	-2.603130	1.530052	0.174659	-0.713023	-0.216633	0.592790	-0.305399
50928	9.936978	1.945722	2.873196	-2.250999	1.306421	0.385846	-0.714585	-0.211136	0.593229	-0.304744
50929	9.903717	1.662339	2.836367	-2.040312	1.220022	0.348007	-0.716317	-0.205041	0.593720	-0.303884
50930	9.729227	0.676464	2.837630	-1.396329	0.562854	0.232234	-0.717685	-0.199903	0.594040	-0.303452
50931	10.313677	-0.104587	2.332518	-0.451736	0.508535	0.740064	-0.718442	-0.195672	0.595012	-0.302513
50932	11.408849	-1.748271	1.965379	1.019968	-0.195378	1.849316	-0.719219	-0.191642	0.596300	-0.300706
50933	11.772533	-2.078778	1.773985	1.406127	-0.224007	2.188708	-0.720054	-0.189857	0.596539	-0.299361
50934	11.222739	-1.692695	1.812703	1.066284	-0.081021	1.630975	-0.721279	-0.188584	0.596739	-0.296809
50935	10.610826	-2.253279	2.559869	0.833041	-1.112806	1.245679	-0.723552	-0.186661	0.596375	-0.293200
50936	9.989225	-2.500101	3.485126	0.257939	-2.012242	0.867457	-0.726664	-0.184087	0.595557	-0.288762
50937	10.058792	-2.441263	4.537540	-0.542513	-2.596148	1.173394	-0.730413	-0.179731	0.595224	-0.282669
50938	10.325332	-1.296681	4.332351	-1.064315	-1.525740	1.304977	-0.733973	-0.175209	0.595680	-0.275229
50939	10.907284	-0.285731	3.830034	-1.192167	-0.325135	1.684813	-0.737727	-0.170877	0.596258	-0.266527
50940	10.868499	-0.193168	3.542185	-0.980404	-0.113255	1.577410	-0.741829	-0.166357	0.596958	-0.256237
50941	10.578654	-0.120223	3.298229	-0.821652	-0.004574	1.238339	-0.746088	-0.161273	0.597866	-0.244745
50942	10.035921	0.053555	3.638640	-1.238901	-0.163581	0.789222	-0.750371	-0.155041	0.598922	-0.232803
50943	9.505257	0.335321	4.060968	-1.794977	-0.224219	0.369719	-0.754858	-0.147350	0.599914	-0.220410
50944	8.741059	1.331306	4.307394	-2.617249	0.438265	-0.342242	-0.759489	-0.138009	0.601058	-0.207024
50945	8.225763	1.800990	3.433346	-2.140190	1.254199	-1.063965	-0.764366	-0.127052	0.602303	-0.191921
50946	8.024029	1.964671	3.879749	-2.547390	1.260759	-1.139916	-0.770050	-0.116397	0.602043	-0.176121
50947	7.767348	1.728853	4.387636	-2.846751	0.906818	-1.231086	-0.775615	-0.105005	0.601783	-0.158909
50948	7.507672	1.718090	4.378332	-2.802021	0.982039	-1.465883	-0.780491	-0.091611	0.602360	-0.140008
50949	8.398433	2.040857	4.085114	-2.319578	1.605063	-0.678835	-0.785619	-0.075478	0.602443	-0.119029
50950	8.965102	3.149508	3.226775	-1.509415	3.072047	-0.379624	-0.791079	-0.058025	0.601217	-0.096774
50951	9.275616	2.218077	2.378138	-0.159783	2.437416	-0.292184	-0.797448	-0.040409	0.597557	-0.073277
50952	9.912820	1.545966	3.237257	-0.376326	1.707668	0.582832	-0.805777	-0.022171	0.589851	-0.048042
50953	11.181754	0.828023	3.929473	-0.253952	1.004535	2.022749	-0.812350	-0.003753	0.582790	-0.020732
50954	11.103656	1.649992	3.538278	0.305307	1.780137	1.817697	-0.815469	0.009876	0.578689	0.005527
50955	7.672664	1.722923	1.429403	1.289286	1.704538	-2.111245	-0.814078	0.025262	0.579378	0.030987
50956	6.282810	-1.166398	-1.009582	2.898827	-1.460976	-4.216984	-0.812113	0.049798	0.578262	0.060038
50957	7.051292	-3.642028	-1.381665	2.932277	-4.180969	-3.583308	-0.810003	0.073568	0.574970	0.088839
50958	5.597292	-3.791561	-1.204430	1.964597	-4.356502	-4.882259	-0.807392	0.096002	0.570317	0.116789
50959	4.158792	-3.448201	-1.576691	1.647806	-4.126235	-6.359603	-0.805461	0.120678	0.562038	0.144165
50960	6.689872	-3.775027	0.348656	0.439950	-4.018219	-3.271922	-0.802800	0.156615	0.547991	0.175183
50961	7.254411	-4.960142	5.446877	-4.232357	-2.636750	-0.756679	-0.800083	0.187258	0.532767	0.202389
50962	10.701067	0.341870	4.532856	0.473213	1.317844	1.729089	-0.791700	0.210116	0.529325	0.221084
50963	15.307426	6.118310	12.059766	0.008342	9.836111	8.087340	-0.784823	0.228347	0.524129	0.239164
50964	17.593176	8.137733	8.372615	4.976134	8.972848	8.641816	-0.773440	0.242411	0.526948	0.255641
50965	16.802560	8.358752	2.410257	9.061701	5.299636	5.928823	-0.764874	0.251910	0.527265	0.271109
50966	11.716239	-1.156005	1.890299	1.466295	-1.411851	1.936196	-0.761008	0.261233	0.521625	0.283780
50967	8.416926	-9.639643	-1.130688	-3.539526	-8.937521	-1.289993	-0.759532	0.268177	0.517450	0.288856
50968	8.645664	2.212478	0.706588	3.717046	0.658426	-1.695372	-0.760866	0.265751	0.521064	0.280984
50969	12.510210	5.062428	4.082278	4.664360	4.519760	2.701812	-0.759446	0.268474	0.523194	0.278265
50970	10.816654	1.126728	3.681779	1.645255	1.808741	1.405421	-0.757157	0.272434	0.524620	0.277968
50971	9.266164	-0.367702	3.538641	0.206604	0.934007	0.066775	-0.756012	0.273432	0.526021	0.277457
50972	8.871078	-0.402408	2.436431	0.752734	0.202808	-0.637377	-0.756073	0.271056	0.527499	0.276815
50973	7.634520	0.771107	1.926536	1.503466	0.827640	-2.089578	-0.756892	0.265750	0.530095	0.274754
50974	6.919387	3.381095	2.386002	2.727609	3.102551	-2.889085	-0.757295	0.259903	0.534158	0.271349
50975	8.264778	4.220872	2.353907	3.619205	3.530145	-1.682381	-0.757103	0.256380	0.537705	0.268212
50976	8.983983	2.917887	2.363576	2.870285	2.524491	-0.857207	-0.756997	0.254725	0.540019	0.265424
50977	8.425872	2.168161	2.100184	2.355265	1.906180	-1.390926	-0.757163	0.253407	0.541855	0.262454
50978	7.646133	2.136716	1.924384	2.213220	1.893376	-2.180593	-0.757821	0.251421	0.543272	0.259519
50979	6.998851	2.430965	1.263523	2.664311	1.782043	-3.014477	-0.758673	0.248727	0.544864	0.256268
50980	6.813371	2.883400	0.922548	3.121159	1.950385	-3.328759	-0.759654	0.245631	0.546651	0.252516
50981	7.450421	3.134910	1.002447	3.375632	2.153924	-2.719956	-0.760912	0.242609	0.548324	0.247980
50982	8.543333	2.812957	1.137865	3.360469	1.914959	-1.612935	-0.762816	0.239827	0.549277	0.242671
50983	9.499737	2.361404	1.359946	3.182968	1.653162	-0.603662	-0.765207	0.236548	0.550100	0.236418
50984	9.808405	2.823071	1.684655	3.305301	2.241909	-0.270097	-0.767594	0.232108	0.551671	0.229312
50985	10.385480	3.605067	1.605010	3.968598	2.826847	0.171764	-0.770432	0.226370	0.553356	0.221332
50986	12.546311	4.102975	2.636375	4.067388	3.715548	2.469202	-0.773393	0.220775	0.554986	0.212395
50987	15.133203	4.253881	4.256576	3.610277	4.656340	5.369862	-0.776030	0.215584	0.557310	0.201758
50988	16.787738	4.129943	5.103107	3.256796	5.055956	7.180014	-0.777778	0.209836	0.561288	0.189701
50989	18.236618	4.154562	5.724800	3.002523	5.477317	8.723350	-0.779510	0.200829	0.566492	0.176405
50990	18.598249	3.236387	6.227100	1.992137	5.000317	9.322853	-0.782353	0.188132	0.571154	0.162215
50991	16.109614	1.445875	6.461889	0.012130	3.594195	7.229748	-0.786245	0.172689	0.574993	0.146218
50992	12.484421	-0.533084	6.831146	-2.363479	1.927989	4.097792	-0.790628	0.154380	0.578763	0.126917
50993	8.521836	-2.802294	6.239920	-3.951994	-0.560679	0.359380	-0.792758	0.134130	0.585141	0.105614
50994	7.097658	-4.026233	5.870807	-4.416954	-2.135759	-1.039248	-0.793562	0.112892	0.592117	0.083140
50995	7.033654	-2.253914	5.445877	-3.559104	-0.841850	-1.396747	-0.794159	0.091693	0.597793	0.059572
50996	7.753760	-1.156394	5.980026	-3.684490	0.103650	-0.667877	-0.793031	0.073293	0.603613	0.037155
50997	8.012115	-2.379988	4.393113	-2.340149	-1.534838	-0.794743	-0.788947	0.053283	0.612007	0.013085
50998	8.842304	-2.856529	2.276315	-0.171279	-2.260726	-0.518212	-0.782582	0.032323	0.621601	-0.011579
50999	10.386853	-2.722316	2.050406	0.358113	-2.060263	0.917117	-0.776346	0.011496	0.629198	-0.035549
51000	11.150955	-2.313504	2.340708	0.182940	-1.625609	1.698129	-0.771921	-0.009000	0.632971	-0.058355
51001	11.717424	-1.858893	2.128523	0.449524	-1.125949	2.179571	-0.768552	-0.027057	0.634377	-0.078499
51002	10.478771	-1.344854	1.551842	0.722682	-0.636802	0.821848	-0.767249	-0.043302	0.632555	-0.096575
51003	8.972742	-0.721200	1.362716	0.550406	-0.126764	-0.726000	-0.766594	-0.059464	0.629267	-0.113227
51004	8.057406	0.054273	1.801440	-0.179274	0.402687	-1.567978	-0.766637	-0.075134	0.624603	-0.128428
51005	7.459084	0.261539	1.480870	-0.001826	0.596512	-2.226964	-0.767084	-0.088743	0.619448	-0.141390
51006	7.223715	0.236083	1.359459	0.139575	0.573553	-2.482141	-0.768901	-0.099831	0.612734	-0.152910
51007	7.191641	-0.738990	1.924493	0.085250	-0.516741	-2.349877	-0.771806	-0.107989	0.604732	-0.164174
51008	6.926474	-1.326214	2.820848	-0.396267	-1.392354	-2.356540	-0.774439	-0.115949	0.596469	-0.176137
51009	6.139477	-1.343029	3.057705	-0.617250	-1.585421	-3.034078	-0.777104	-0.124363	0.587464	-0.188491
51010	5.270674	-0.488950	2.854178	-0.878523	-0.860270	-3.926126	-0.779966	-0.134841	0.576945	-0.201506
51011	4.924408	-0.034834	3.055121	-1.213182	-0.626526	-4.180739	-0.782455	-0.145333	0.566837	-0.212928
51012	6.039481	-0.109241	3.593760	-1.184751	-0.783436	-2.929119	-0.783975	-0.154124	0.558702	-0.222443
51013	7.527370	-0.625368	4.224731	-0.890988	-1.300626	-1.303019	-0.782860	-0.162548	0.554396	-0.230985
51014	8.968193	-0.518333	4.930937	-1.026132	-1.366940	0.291230	-0.779558	-0.172250	0.551956	-0.240756
51015	9.372349	-0.443883	5.435726	-1.302331	-1.561311	0.838654	-0.776275	-0.179385	0.550193	-0.250009
51016	9.636296	-1.496721	4.488390	0.130778	-1.850710	0.760949	-0.772357	-0.185481	0.549452	-0.259159
51017	10.151207	-1.305675	3.579193	0.858681	-1.043581	0.945355	-0.769548	-0.192202	0.545569	-0.270571
51018	9.550546	-0.952651	4.910759	-0.395457	-1.627604	0.837588	-0.768702	-0.198300	0.538279	-0.282894
51019	8.318219	-1.368316	5.499347	-0.728592	-2.526387	-0.097097	-0.767136	-0.204260	0.532113	-0.294341
51020	8.921035	-0.842285	4.745293	-0.311620	-1.499041	0.210667	-0.762923	-0.212060	0.528497	-0.306056
51021	9.440625	-0.589334	4.255281	0.028045	-0.840060	0.525255	-0.759540	-0.218286	0.523276	-0.318799
51022	9.542286	-0.719914	4.646540	-0.044019	-1.077207	0.770312	-0.756773	-0.222386	0.516797	-0.332806
51023	9.148008	-0.768790	5.747531	-0.731813	-1.852397	0.833561	-0.753179	-0.224992	0.511031	-0.347773
51024	8.636829	-0.338200	6.296449	-1.470131	-1.997253	0.589390	-0.748469	-0.227131	0.506282	-0.363160
51025	7.762568	0.080408	6.260889	-1.972250	-1.924570	-0.227866	-0.741894	-0.229618	0.504453	-0.377353
51026	9.426186	1.037548	4.709049	-1.592277	0.331569	0.649508	-0.733217	-0.233865	0.505483	-0.390112
51027	11.249756	2.006818	5.250451	-2.496714	1.065739	2.466533	-0.724763	-0.238393	0.506488	-0.401693
51028	11.688831	2.054965	5.956862	-3.004905	0.630028	3.106552	-0.717020	-0.242886	0.507889	-0.411021
51029	10.548506	1.634572	4.905898	-2.401813	0.737702	1.663227	-0.710885	-0.246770	0.508395	-0.418668
51030	9.409298	1.770499	3.807509	-2.187434	1.212827	0.182838	-0.706336	-0.251161	0.507124	-0.425245
51031	9.746454	3.603035	5.624870	-4.636438	0.731023	1.030831	-0.701772	-0.258435	0.504020	-0.432077
51032	7.149902	0.693726	3.593571	-1.482113	-0.076194	-1.918854	-0.696714	-0.261387	0.508486	-0.433255
51033	8.736818	-0.593824	4.370570	-0.605592	-0.888147	-0.084925	-0.691073	-0.267946	0.511452	-0.434786
51034	9.627501	-1.441459	1.595778	1.462461	1.162799	-0.126567	-0.685323	-0.273229	0.514760	-0.436692
51035	8.433344	-1.923556	1.772153	1.624261	0.328153	-1.140019	-0.678236	-0.279727	0.517429	-0.440472
51036	10.748178	0.190053	2.620122	-0.523589	1.203752	1.173675	-0.672113	-0.286053	0.518233	-0.444827
51037	9.872969	0.932432	3.252152	-1.559383	0.629052	0.487482	-0.668463	-0.291770	0.517402	-0.447574
51038	9.991351	1.215880	4.211417	-2.189606	-0.112917	0.875335	-0.666998	-0.296401	0.515861	-0.448495
51039	9.134225	-0.895665	3.357675	0.072296	-0.567086	-0.056510	-0.666415	-0.300649	0.514485	-0.448115
51040	8.816516	-1.708400	3.316004	0.867285	-1.008041	-0.332364	-0.666163	-0.305293	0.512899	-0.447167
51041	8.826684	-2.063586	3.416159	1.216650	-1.291632	-0.289573	-0.665820	-0.309843	0.511812	-0.445791
51042	9.065365	-2.213742	3.484070	1.396423	-1.401876	-0.050280	-0.665347	-0.313184	0.511650	-0.444347
51043	9.260226	-2.406668	3.833429	1.485088	-1.773361	0.231643	-0.664918	-0.315414	0.511190	-0.443942
51044	9.455901	-2.575447	3.857131	1.676089	-1.827248	0.423340	-0.664331	-0.317435	0.510198	-0.444520
51045	9.262810	-2.805830	3.939661	1.870738	-2.045836	0.262433	-0.663537	-0.319593	0.508688	-0.445887
51046	9.370322	-3.192953	3.710830	2.362636	-1.946900	0.306374	-0.662281	-0.322126	0.506077	-0.448892
51047	9.702383	-3.300120	3.591969	2.583556	-1.739132	0.590641	-0.660795	-0.324783	0.502188	-0.453513
51048	10.429053	-2.565182	3.585864	2.018653	-1.184226	1.265471	-0.658717	-0.327910	0.497647	-0.459253
51049	9.881217	-1.190178	3.562699	0.739808	-0.768011	0.704457	-0.655562	-0.331946	0.493180	-0.465643
51050	8.976671	-0.272962	2.796694	0.073797	-0.007747	-0.406778	-0.651208	-0.336543	0.489909	-0.471865
51051	9.433880	-0.130379	3.016071	-0.098913	-0.022239	0.091932	-0.646271	-0.340964	0.486623	-0.478827
51052	10.618802	-0.026103	3.587859	-0.301881	-0.155908	1.390744	-0.640455	-0.345304	0.483300	-0.486830
51053	11.062788	-0.006660	2.968115	-0.175132	0.546471	1.626948	-0.632853	-0.350230	0.480737	-0.495709
51054	10.669149	-0.262778	2.747789	0.016434	0.555580	1.193683	-0.623626	-0.355148	0.478875	-0.505608
51055	9.819707	-0.444390	2.741219	0.060664	0.259890	0.388601	-0.612844	-0.360781	0.476048	-0.517337
51056	9.366626	-0.231352	3.784421	-0.437251	-0.811870	0.250045	-0.600958	-0.367798	0.470738	-0.531017
51057	9.651315	0.584564	3.334375	-1.212044	-0.207343	0.340892	-0.587334	-0.377226	0.463890	-0.545477
51058	10.271990	0.705329	2.415980	-1.300745	0.791901	0.652875	-0.572372	-0.387490	0.456424	-0.560284
51059	10.125435	0.294131	2.056237	-0.948790	0.992388	0.431966	-0.556370	-0.398580	0.447944	-0.575267
51060	10.727532	-0.163916	1.868710	-0.627890	1.281374	0.983676	-0.539583	-0.409551	0.438787	-0.590410
51061	11.449481	-0.110627	1.942221	-0.849851	1.362184	1.689318	-0.522152	-0.421027	0.427977	-0.605747
51062	10.958726	0.189984	2.495609	-1.139601	0.636306	1.352168	-0.504599	-0.431814	0.414007	-0.622506
51063	9.648522	-0.080985	3.638208	-0.577157	-0.746550	0.456016	-0.486607	-0.442255	0.397788	-0.639836
51064	9.202588	-0.681488	3.900618	0.179537	-0.925832	0.161103	-0.465057	-0.455391	0.379655	-0.657422
51065	9.511463	-0.093148	3.721821	-0.376690	-0.824447	0.361093	-0.440791	-0.471028	0.360554	-0.673674
51066	9.018894	0.262101	3.842017	-0.439075	-1.218767	-0.092126	-0.415545	-0.487707	0.340281	-0.688239
51067	8.473887	0.596634	3.407403	-0.612978	-1.179609	-0.757238	-0.388664	-0.506740	0.318217	-0.700637
51068	8.835401	1.366011	2.756948	-1.413560	-1.058257	-0.625421	-0.360630	-0.526481	0.294454	-0.711379
51069	9.857525	1.075303	1.387080	-1.933078	0.255040	0.008019	-0.334653	-0.542219	0.271493	-0.721316
51070	10.555256	1.976502	1.812134	-2.406927	-0.621114	0.790307	-0.314559	-0.550901	0.252133	-0.730746
51071	9.839014	2.136273	3.378807	-1.318163	-1.994560	0.534786	-0.302046	-0.551416	0.239425	-0.739854
51072	9.444891	0.968019	3.677117	-0.230392	-1.380333	0.272208	-0.291148	-0.550789	0.228319	-0.748154
51073	9.475907	2.199815	3.011612	-1.543783	-1.806542	0.089577	-0.278486	-0.552937	0.217195	-0.754674
51074	10.100794	2.623430	2.598198	-2.262419	-1.757877	0.553138	-0.269590	-0.552331	0.208868	-0.760674
51075	9.518442	0.351211	3.091767	-0.401480	-0.365934	0.186594	-0.264605	-0.546864	0.203315	-0.767845
51076	8.887276	-0.741286	3.309952	0.447104	0.331217	-0.316577	-0.260055	-0.540229	0.198155	-0.775408
51077	7.979865	-1.457339	3.643029	1.236256	0.616306	-1.028407	-0.253590	-0.535635	0.192902	-0.782033
51078	8.073298	-1.862060	2.766228	0.668507	1.516454	-1.236591	-0.245387	-0.532969	0.187022	-0.787878
51079	7.919273	-0.677883	3.505386	0.499468	0.167348	-1.141804	-0.234016	-0.533099	0.177939	-0.793334
51080	7.006381	-0.347301	3.577617	0.617096	-0.249991	-1.966332	-0.223376	-0.531744	0.167879	-0.799480
51081	6.031920	1.688215	3.996510	0.196664	-2.278134	-2.743271	-0.212211	-0.531629	0.154193	-0.805333
51082	6.305329	3.089828	3.193937	-1.159027	-2.999039	-2.800791	-0.201968	-0.532685	0.140037	-0.809843
51083	7.920381	1.751739	2.831044	-1.335067	-1.327712	-1.429940	-0.194812	-0.533475	0.131180	-0.812554
51084	10.864450	0.014261	4.682427	-0.076070	0.050106	2.017469	-0.189436	-0.534552	0.122905	-0.814409
51085	12.320294	1.918100	4.799600	-1.290906	-1.372736	3.414307	-0.186673	-0.535971	0.117079	-0.814973
51086	14.447158	0.328785	5.807583	-0.493645	0.091471	5.753436	-0.186514	-0.537459	0.117305	-0.813996
51087	12.805445	-2.124610	7.527311	2.554872	1.353066	4.911282	-0.186363	-0.535615	0.117752	-0.815181
51088	9.697095	-1.217143	6.103777	2.070558	0.484669	1.512008	-0.186752	-0.535050	0.120965	-0.814992
51089	10.021269	-1.202118	5.917069	1.796573	0.519098	1.736537	-0.187883	-0.536154	0.125903	-0.813257
51090	11.930960	-1.614483	5.153978	0.699656	1.422637	3.187441	-0.190122	-0.537502	0.131159	-0.811013
51091	10.717339	-1.775406	3.281470	-0.279291	2.029123	1.349079	-0.192662	-0.539248	0.137153	-0.808259
51092	8.669047	-1.908467	2.190808	-0.328573	2.182763	-0.940208	-0.195054	-0.541568	0.143233	-0.805073
51093	8.320420	-2.138653	2.064668	-0.125366	2.310515	-1.285628	-0.197606	-0.544631	0.148956	-0.801337
51094	8.259694	-1.918062	2.212467	0.005989	1.970744	-1.273869	-0.200147	-0.548421	0.153863	-0.797184
51095	8.043875	-1.752181	1.923386	-0.138047	1.861185	-1.567130	-0.202556	-0.552615	0.158190	-0.792820
51096	8.125938	-1.989614	1.915335	0.050960	2.024863	-1.472783	-0.205018	-0.556819	0.162445	-0.788373
51097	8.343619	-1.830690	1.767728	-0.103735	1.926101	-1.305619	-0.207242	-0.561310	0.166821	-0.783679
51098	8.712143	-2.159050	1.543173	-0.117195	2.301699	-1.001821	-0.208755	-0.565507	0.171115	-0.779323
51099	8.660666	-2.553193	1.008208	-0.228287	2.828046	-1.181867	-0.209876	-0.569872	0.174932	-0.774982
51100	9.100067	-2.399456	0.877999	-0.422390	2.753851	-0.780741	-0.210679	-0.574255	0.177953	-0.770829
51101	9.672923	-2.341201	1.514160	0.022560	2.389390	-0.033707	-0.211257	-0.578126	0.180653	-0.767141
51102	9.740069	-2.092571	2.179529	0.511826	1.782890	0.215100	-0.211372	-0.581708	0.182812	-0.763884
51103	9.354950	-1.531330	2.669352	0.786458	0.951076	-0.042234	-0.211215	-0.584783	0.184887	-0.761074
51104	8.620676	-0.742713	2.870191	0.760287	0.048162	-0.728360	-0.210919	-0.587023	0.186646	-0.759000
51105	7.693382	0.028276	3.161283	0.843562	-0.894968	-1.586524	-0.210903	-0.589510	0.188409	-0.756637
51106	7.285876	0.746669	3.022570	0.478493	-1.507483	-2.048942	-0.211327	-0.591727	0.190422	-0.754281
51107	7.270867	1.618354	3.045540	0.070203	-2.289443	-2.098207	-0.212257	-0.594056	0.192520	-0.751651
51108	7.752820	2.137393	2.880531	-0.410175	-2.622589	-1.693220	-0.213891	-0.596120	0.195033	-0.748901
51109	8.301178	2.080529	3.074048	-0.303137	-2.659060	-1.122159	-0.216246	-0.597804	0.198265	-0.746029
51110	8.921037	1.903638	3.306585	-0.118189	-2.618546	-0.470774	-0.218862	-0.598896	0.202173	-0.743336
51111	9.279520	2.075926	3.588325	-0.041355	-2.926908	-0.079940	-0.221496	-0.600047	0.206164	-0.740527
51112	10.047972	2.741398	3.661824	-0.490970	-3.492651	0.648963	-0.224230	-0.601098	0.210238	-0.737700
51113	11.276950	4.069216	3.438450	-1.639656	-4.381523	1.748660	-0.227821	-0.602659	0.214183	-0.734183
51114	13.388005	4.355408	3.590174	-2.052251	-4.544052	3.834196	-0.232273	-0.602547	0.218321	-0.731657
51115	15.195193	3.667538	4.634096	-1.182545	-4.435301	5.831750	-0.237856	-0.600198	0.221655	-0.730791
51116	14.558031	3.652732	5.238503	-0.696424	-4.763741	5.337902	-0.244464	-0.596687	0.224174	-0.730717
51117	13.037236	4.353788	4.095015	-1.864471	-4.645274	3.627428	-0.252275	-0.592700	0.227048	-0.730420
51118	12.115981	3.754608	3.308738	-2.045121	-3.668466	2.605014	-0.261142	-0.588145	0.231845	-0.729478
51119	12.509768	2.358344	3.355653	-1.312691	-2.483915	3.048916	-0.270701	-0.582144	0.237726	-0.728914
51120	12.281931	1.256724	2.573248	-1.226714	-1.057389	2.694174	-0.280608	-0.576229	0.241679	-0.728568
51121	12.467044	-0.572906	3.032194	0.239942	0.148941	3.027387	-0.292111	-0.570170	0.244061	-0.728019
51122	12.460788	-0.865384	4.104380	1.121946	-0.196042	3.285601	-0.307105	-0.561747	0.247098	-0.727372
51123	10.063774	-0.943263	4.293782	1.645307	-0.539842	1.031908	-0.325452	-0.550815	0.254136	-0.725326
51124	7.104149	0.054359	2.906582	0.458914	-0.713504	-2.183818	-0.346466	-0.540027	0.266910	-0.719090
51125	6.144892	0.062849	2.107573	0.080884	-0.295682	-3.323362	-0.371364	-0.528534	0.284680	-0.708306
51126	7.445859	-1.524885	1.752156	0.979408	1.175749	-2.164544	-0.395914	-0.516735	0.302141	-0.696382
51127	9.134005	-3.202215	1.482147	2.149447	2.545446	-0.605344	-0.419557	-0.506555	0.322457	-0.680732
51128	10.433426	-4.238510	0.349108	2.663782	4.036017	0.362782	-0.441646	-0.497025	0.345841	-0.662049
51129	11.236585	-2.885690	0.154083	1.521822	3.635007	1.099461	-0.463323	-0.484965	0.366135	-0.645047
51130	9.717738	-0.698464	1.722384	0.207848	1.054843	0.022592	-0.483952	-0.472178	0.380622	-0.630846
51131	10.185934	-0.852952	2.437047	0.535910	0.571995	0.666115	-0.500524	-0.462113	0.389422	-0.619902
51132	10.339136	-2.104489	2.406667	1.794508	0.926516	0.819323	-0.514763	-0.452928	0.395152	-0.611334
51133	9.717284	-2.192515	2.218297	1.953188	0.999178	0.154220	-0.529003	-0.443604	0.397149	-0.604685
51134	9.167919	-0.972411	3.140955	0.971185	-0.074545	-0.121968	-0.542196	-0.437077	0.393530	-0.600101
51135	9.886975	0.005183	4.978742	0.297101	-1.533394	1.146183	-0.556115	-0.433209	0.389980	-0.592438
51136	9.750090	1.619807	4.473697	-1.221439	-1.180722	0.902474	-0.567778	-0.432690	0.395313	-0.578045
51137	9.485984	2.138773	3.264990	-1.691896	-0.179367	0.302754	-0.579815	-0.431412	0.402818	-0.561636
51138	9.311594	2.428088	4.502017	-1.881517	-1.402422	0.548895	-0.594796	-0.424562	0.412414	-0.543949
51139	9.071936	2.123950	4.541565	-1.613338	-1.457297	0.321889	-0.612100	-0.412963	0.425016	-0.523599
51140	8.397986	2.048142	4.215876	-1.626314	-1.284883	-0.421291	-0.628242	-0.401440	0.438377	-0.501980
51141	7.491409	-1.409720	4.036198	1.562065	-1.999759	-1.569277	-0.641115	-0.385978	0.457004	-0.480770
51142	7.434294	0.322681	1.592719	0.252285	0.597658	-2.230557	-0.656821	-0.366108	0.471551	-0.460643
51143	7.164952	0.672981	3.032228	-0.557180	-0.601616	-2.046799	-0.673550	-0.344119	0.481664	-0.442620
51144	5.587313	-1.418417	3.041254	1.041077	-1.700412	-3.607712	-0.690083	-0.319878	0.491387	-0.424267
51145	4.089639	-1.228036	2.184234	0.833228	-1.273565	-5.264435	-0.700795	-0.299829	0.501482	-0.409274
51146	4.947968	-3.136369	3.248735	2.020790	-2.823344	-4.084225	-0.714712	-0.276289	0.506501	-0.395356
51147	3.113070	-4.419619	-0.275027	4.405612	-1.290005	-6.945024	-0.721861	-0.261313	0.513503	-0.383336
51148	10.896928	-1.073548	-0.729573	3.277627	3.095885	0.192321	-0.726614	-0.251290	0.517957	-0.374974
51149	10.955723	1.076322	2.335497	-0.111168	2.137755	1.235126	-0.734019	-0.236943	0.517872	-0.369977
51150	6.141911	-1.431384	3.156317	0.500294	-1.256840	-2.891539	-0.742319	-0.222311	0.514984	-0.366512
51151	8.358936	-2.993281	4.344017	1.451078	-2.219949	-0.290807	-0.748406	-0.210823	0.512843	-0.363915
51152	11.913744	-3.159500	5.139342	1.818605	-1.543941	3.326542	-0.750562	-0.203473	0.512342	-0.364364
51153	17.046185	-0.053352	8.327717	-1.497339	0.155631	9.099158	-0.749153	-0.200560	0.514401	-0.365974
51154	19.894629	1.500882	7.531807	-1.729949	2.721642	11.267535	-0.746661	-0.201356	0.515427	-0.369172
51155	15.634311	1.233912	5.837682	-1.395138	2.189457	6.718863	-0.744285	-0.206676	0.513760	-0.373331
51156	9.539398	0.956912	4.500267	-1.544808	0.749618	0.638104	-0.741638	-0.214894	0.509927	-0.379167
51157	6.229883	0.411371	3.650078	-1.224308	-0.213673	-2.688188	-0.736887	-0.224696	0.507378	-0.386105
51158	6.758721	0.556835	2.018119	-0.325745	1.151582	-2.839166	-0.729734	-0.235441	0.507608	-0.392925
51159	8.977546	1.409178	1.812547	-0.583443	2.433442	-0.890626	-0.722293	-0.245668	0.508595	-0.399088
51160	10.106862	0.914676	2.849490	-0.612147	1.627437	0.583489	-0.716465	-0.253143	0.508797	-0.404627
51161	9.525684	-0.300369	3.452320	-0.026827	0.248586	0.320662	-0.711975	-0.259320	0.507131	-0.410685
51162	8.400985	-1.367444	3.217765	0.835161	-0.506181	-0.765769	-0.707624	-0.265322	0.504429	-0.417640
51163	8.240789	-2.369618	2.825300	1.882517	-0.725466	-1.012821	-0.702978	-0.270702	0.501520	-0.425464
51164	9.276246	-2.940689	3.281556	2.324280	-0.959330	0.144303	-0.698425	-0.274660	0.497905	-0.434574
51165	9.918412	-2.911173	3.782908	2.163623	-1.027039	0.930810	-0.693733	-0.277555	0.493736	-0.444885
51166	10.242935	-2.551795	3.882557	1.831886	-0.699121	1.262384	-0.689074	-0.279436	0.489318	-0.455697
51167	10.315967	-2.146592	4.182866	1.333993	-0.597339	1.429412	-0.684686	-0.280446	0.484285	-0.466930
51168	10.670607	-1.843007	4.339087	1.014417	-0.299884	1.804726	-0.680827	-0.280729	0.478339	-0.478391
51169	10.720350	-1.830815	4.543947	0.921253	-0.248616	1.935119	-0.677106	-0.280628	0.471416	-0.490451
51170	10.200028	-1.489576	4.258105	0.658292	0.105246	1.320297	-0.672918	-0.281157	0.464033	-0.502798
51171	10.270517	-0.976269	4.144165	0.200922	0.578065	1.288389	-0.668179	-0.281962	0.457194	-0.514788
51172	10.065863	-0.973831	4.442719	0.060787	0.396321	1.225644	-0.662981	-0.282302	0.450918	-0.526720
51173	9.051344	-0.597858	3.938061	-0.240323	0.604288	0.054860	-0.657164	-0.282951	0.445883	-0.537832
51174	8.126767	0.290547	2.913900	-0.894023	1.356116	-1.328542	-0.651365	-0.284631	0.440857	-0.548046
51175	8.136508	0.544764	2.549029	-1.096491	1.770588	-1.526580	-0.645615	-0.287780	0.435797	-0.557176
51176	8.608721	0.465913	2.787084	-1.112992	1.783073	-0.999243	-0.639204	-0.292908	0.431011	-0.565555
51177	9.811643	0.498790	2.659558	-1.165510	2.447985	-0.002535	-0.632179	-0.299527	0.426520	-0.573335
51178	10.992077	-0.172027	2.088512	-0.470081	3.361594	0.850126	-0.624872	-0.306814	0.422095	-0.580719
51179	11.761156	-0.182309	3.452308	-0.731326	2.517996	2.162341	-0.619024	-0.312918	0.416086	-0.588017
51180	10.499947	-0.058102	4.101070	-0.872998	1.373575	1.341774	-0.614050	-0.319069	0.409420	-0.594570
51181	8.983695	-0.254375	3.483217	-0.481949	1.179594	-0.258627	-0.609154	-0.327122	0.402172	-0.600150
51182	8.121519	0.032653	3.437854	-0.639425	0.803953	-1.053529	-0.603614	-0.337120	0.394489	-0.605293
51183	8.262227	0.066147	3.379918	-0.577782	0.881090	-0.948067	-0.597373	-0.347653	0.386601	-0.610592
51184	8.817538	0.473106	3.672511	-0.920661	0.828786	-0.329833	-0.590537	-0.357985	0.379232	-0.615870
51185	9.500605	0.721689	4.438382	-1.102038	0.407587	0.632407	-0.584208	-0.366424	0.371679	-0.621521
51186	9.396158	0.963028	4.927569	-1.222731	-0.118970	0.769656	-0.578109	-0.373891	0.364172	-0.627196
51187	9.240109	0.554842	5.149610	-0.696435	-0.378537	0.750308	-0.571964	-0.380802	0.357267	-0.632619
51188	9.607457	0.834152	4.441914	-0.968758	0.353010	0.754519	-0.564858	-0.388484	0.351056	-0.637789
51189	9.205114	1.731553	4.397797	-1.768202	0.032015	0.382630	-0.557104	-0.396162	0.345187	-0.643068
51190	9.209468	1.679461	4.320489	-1.662793	0.037707	0.362507	-0.550148	-0.402719	0.339680	-0.647898
51191	9.486390	2.689838	4.663456	-2.557656	-0.370279	0.784259	-0.545184	-0.407890	0.334272	-0.651661
51192	8.948875	3.153983	4.812766	-2.874491	-0.851652	0.395359	-0.543311	-0.410877	0.329379	-0.653837
51193	7.594676	2.726340	4.800489	-2.281806	-1.344392	-0.804800	-0.543325	-0.413367	0.324230	-0.654828
51194	6.276043	1.993110	4.968629	-1.364865	-1.894743	-1.900990	-0.544987	-0.414830	0.319456	-0.654869
51195	6.050449	1.487208	4.163591	-0.949701	-1.144916	-2.468183	-0.547804	-0.416092	0.314249	-0.654237
51196	7.536996	1.259552	4.579006	-0.643510	-0.709594	-0.955971	-0.550749	-0.417156	0.308932	-0.653619
51197	9.145008	0.257055	4.405671	0.307164	0.467730	0.326008	-0.552655	-0.418480	0.304208	-0.653379
51198	9.370396	-0.346824	4.070313	0.879938	1.048739	0.317339	-0.553332	-0.419344	0.300243	-0.654086
51199	8.735801	0.078083	3.925700	0.493248	0.819424	-0.282914	-0.552463	-0.420373	0.297471	-0.655425
51200	8.753564	1.301115	4.839458	-0.469783	-0.212821	0.260650	-0.550292	-0.421915	0.296426	-0.656733
51201	9.538208	1.075289	5.154273	-0.209290	-0.087020	1.079907	-0.547043	-0.423659	0.296847	-0.658133
51202	10.621351	0.851020	5.276563	-0.038663	0.321646	2.073190	-0.543295	-0.424782	0.297932	-0.660020
51203	11.251952	0.905945	5.144725	-0.212600	0.671071	2.572760	-0.539288	-0.424996	0.298476	-0.662917
51204	11.216219	1.028705	5.045215	-0.431881	0.684781	2.502340	-0.534685	-0.424613	0.298200	-0.667003
51205	10.610964	1.040207	5.460773	-0.384369	0.045099	2.159953	-0.530160	-0.423382	0.297705	-0.671603
51206	8.781806	1.780800	4.602677	-1.258968	-0.272989	0.178106	-0.526608	-0.421369	0.297503	-0.675740
51207	8.078263	2.425381	4.733017	-1.848272	-0.887604	-0.360810	-0.524134	-0.419688	0.298313	-0.678347
51208	9.599143	0.280837	5.082141	0.090359	0.112523	1.051447	-0.521774	-0.419000	0.299839	-0.679917
51209	9.541417	-0.905848	5.009529	1.154631	0.455910	0.930364	-0.519492	-0.418182	0.301820	-0.681290
51210	9.136150	-0.693208	4.724162	0.862177	0.423722	0.451050	-0.516777	-0.417659	0.303091	-0.683109
51211	9.122259	0.181089	5.496695	0.187798	-0.502743	0.825636	-0.514126	-0.417654	0.303349	-0.684995
51212	9.289982	0.435891	5.202385	-0.185935	-0.263178	0.838823	-0.512214	-0.417461	0.303231	-0.686596
51213	8.802475	1.265250	5.929016	-0.727093	-1.340632	0.766145	-0.510803	-0.418002	0.301809	-0.687943
51214	8.431566	0.932723	5.206100	-0.547172	-0.794060	0.093613	-0.510422	-0.418621	0.300395	-0.688468
51215	8.392699	0.321159	5.697956	0.202744	-1.022362	0.282896	-0.510401	-0.419686	0.298629	-0.688603
51216	8.539265	0.368873	5.859343	0.222807	-1.098345	0.489295	-0.510135	-0.421472	0.297202	-0.688327
51217	8.706431	0.750534	5.987313	-0.077396	-1.261713	0.704679	-0.509426	-0.424031	0.296418	-0.687618
51218	9.190101	1.182651	6.761886	-0.274571	-1.842916	1.505784	-0.509571	-0.425778	0.295616	-0.686776
51219	8.618073	1.435939	7.138715	-0.297502	-2.487864	1.188051	-0.511217	-0.425985	0.294306	-0.685987
51220	7.517680	1.226441	6.199636	-0.226380	-2.107212	-0.222931	-0.514085	-0.424795	0.293626	-0.684872
51221	6.223192	0.905556	6.085905	0.187414	-2.474564	-1.420566	-0.517090	-0.423016	0.293619	-0.683713
51222	5.406361	0.837584	4.904729	-0.006429	-1.833789	-2.697645	-0.519818	-0.421913	0.295331	-0.681585
51223	6.641780	1.313270	5.083851	-0.549784	-1.559942	-1.509209	-0.521854	-0.421934	0.297648	-0.679004
51224	7.408602	1.537506	5.642151	-0.693827	-1.773154	-0.568257	-0.524058	-0.422600	0.301351	-0.675249
51225	8.386068	1.250028	5.438963	-0.562923	-1.127350	0.181459	-0.526178	-0.423343	0.305016	-0.671478
51226	8.642194	1.235704	6.134112	-0.402807	-1.651874	0.720621	-0.528446	-0.422938	0.309084	-0.668083
51227	8.107200	1.065651	5.561030	-0.370165	-1.411024	-0.032151	-0.530301	-0.421702	0.314268	-0.664969
51228	7.737170	1.350298	5.224277	-0.753128	-1.416720	-0.517253	-0.531721	-0.420058	0.320965	-0.661668
51229	7.878561	1.455352	5.709372	-0.841483	-1.867657	-0.190357	-0.533229	-0.417668	0.328554	-0.658234
51230	8.383773	1.082061	6.080088	-0.549337	-1.968980	0.397379	-0.534753	-0.414918	0.337102	-0.654403
51231	8.148453	0.346635	6.227743	0.095079	-2.142366	0.222307	-0.535879	-0.411948	0.346144	-0.650628
51232	7.851120	-0.721329	5.758465	0.956044	-1.751036	-0.255616	-0.536092	-0.408672	0.355368	-0.647538
51233	7.377792	-1.087497	5.095862	1.125149	-1.401894	-0.961222	-0.534937	-0.405792	0.364940	-0.644976
51234	7.050356	-1.898593	4.280229	1.722553	-0.782338	-1.563386	-0.532616	-0.403843	0.374263	-0.642774
51235	7.693318	-1.796013	4.449526	1.472062	-0.831864	-0.904832	-0.529585	-0.403251	0.382549	-0.640769
51236	9.582178	-1.792621	5.583323	1.293605	-1.281944	1.272731	-0.526517	-0.402922	0.388305	-0.640041
51237	11.274201	-2.756670	5.896058	1.979595	-0.872858	3.024322	-0.523445	-0.401802	0.390544	-0.641900
51238	10.878236	-3.434708	5.771570	2.595587	-0.778684	2.681307	-0.519700	-0.400471	0.389472	-0.646410
51239	10.101456	-3.557304	5.096236	2.670016	-0.329856	1.738332	-0.514401	-0.400055	0.385483	-0.653262
51240	9.021215	-3.997114	5.686722	3.299872	-1.026310	1.038682	-0.506503	-0.401131	0.377947	-0.663102
51241	9.515731	-4.003800	6.817777	3.411139	-1.630561	1.967000	-0.496136	-0.404584	0.366959	-0.674909
51242	9.675259	-3.732522	6.408225	3.084950	-0.964644	1.941032	-0.484144	-0.408365	0.351661	-0.689330
51243	8.582584	-3.776328	5.336773	3.131747	-0.066907	0.510963	-0.468949	-0.413936	0.332453	-0.705846
51244	5.837778	-3.588600	3.985609	3.198520	0.313636	-2.566760	-0.449098	-0.422338	0.310452	-0.723575
51245	5.946495	-3.856932	1.607838	2.534727	2.733962	-3.574566	-0.424607	-0.434232	0.287990	-0.740415
51246	8.824664	-2.576985	0.301811	-0.097131	4.401671	-1.737048	-0.394847	-0.450185	0.264217	-0.756055
51247	10.602899	0.068546	-0.297855	-3.320906	3.910345	-0.528991	-0.366180	-0.465708	0.242964	-0.768113
51248	12.609613	2.778663	-1.011304	-6.518433	3.051954	0.954014	-0.341959	-0.482174	0.223843	-0.774898
51249	11.553340	3.613536	0.193557	-6.015827	0.942994	0.650721	-0.323531	-0.494876	0.211017	-0.778394
51250	10.105622	3.582947	-0.965766	-6.165944	0.953845	-1.040265	-0.308948	-0.506999	0.201440	-0.779054
51251	10.316469	3.927789	2.872435	-3.716045	-1.812087	0.817926	-0.296826	-0.515854	0.188236	-0.781253
51252	8.074909	1.848405	6.562609	1.100937	-3.015999	0.255828	-0.289361	-0.522084	0.175165	-0.782953
51253	9.596702	-0.138779	6.170304	1.789877	-0.790487	1.428256	-0.286679	-0.527067	0.174086	-0.780839
51254	11.507826	-12.185181	1.847012	5.645254	11.515219	1.134892	-0.280689	-0.530523	0.175041	-0.780461
51255	13.784284	-6.198444	5.421469	3.837837	5.342313	4.834808	-0.264682	-0.537097	0.169043	-0.782876
51256	12.379719	-1.048045	2.018338	-1.338337	2.514637	2.447140	-0.249324	-0.549568	0.168751	-0.779318
51257	9.561478	-1.883933	-2.639564	-3.620570	4.818455	-1.712825	-0.236991	-0.559351	0.164973	-0.777011
51258	12.117555	3.617662	0.653964	-4.570754	-1.213178	1.933716	-0.227962	-0.568993	0.162058	-0.773316
51259	13.443197	-0.775120	1.352750	-1.857489	2.162664	3.416731	-0.220955	-0.574426	0.165549	-0.770589
51260	9.198634	-1.803561	2.685928	0.847640	1.550076	-0.223128	-0.210913	-0.577220	0.165637	-0.771295
51261	7.484013	-1.774024	1.246617	0.070592	1.893717	-2.254930	-0.201338	-0.582340	0.165118	-0.770116
51262	8.010667	-0.403338	1.929937	-0.132036	0.356865	-1.571769	-0.191273	-0.587777	0.160984	-0.769427
51263	8.687680	0.982991	0.606034	-2.035938	-0.253844	-1.292176	-0.182862	-0.590622	0.158185	-0.769873
51264	7.427926	0.349198	2.069022	-0.203849	-0.548853	-2.116352	-0.175799	-0.589408	0.158399	-0.772401
51265	5.316572	-1.118113	3.234928	1.931034	0.016565	-3.791773	-0.169366	-0.587454	0.159131	-0.775171
51266	5.717417	-1.210954	3.634770	2.161364	-0.069274	-3.278911	-0.163913	-0.585575	0.160113	-0.777559
51267	8.880108	-1.071604	4.344542	1.830528	-0.332296	-0.044481	-0.159999	-0.585182	0.162844	-0.778103
51268	10.161232	-0.367098	5.126293	1.832623	-1.303017	1.350082	-0.158906	-0.585186	0.166088	-0.777638
51269	10.222576	0.224752	4.582321	1.101816	-1.649359	1.215217	-0.160032	-0.586438	0.168040	-0.776043
51270	11.095871	-0.955563	3.801465	0.763222	-0.221433	1.928296	-0.162238	-0.588194	0.169136	-0.774015
51271	11.062924	-2.419495	3.409360	1.135010	1.261406	1.891433	-0.164090	-0.589059	0.169344	-0.772921
51272	10.148662	-2.547945	3.538317	1.557437	1.276807	1.047846	-0.164706	-0.588777	0.169220	-0.773032
51273	10.346267	-2.192338	4.020951	1.740395	0.766891	1.340894	-0.164565	-0.587341	0.168935	-0.774215
51274	10.077633	-1.549470	4.422378	1.826486	0.010496	1.150006	-0.165381	-0.585552	0.169277	-0.775321
51275	9.438663	-2.330479	3.740182	1.737369	0.984752	0.410827	-0.167587	-0.584640	0.170003	-0.775377
51276	8.127590	-2.641082	3.402347	1.953076	1.336347	-0.924012	-0.170667	-0.585259	0.170869	-0.774046
51277	8.323909	-2.786817	2.876110	1.566024	1.716107	-0.872434	-0.174601	-0.586123	0.172783	-0.772088
51278	8.870623	-3.139406	2.304369	1.157459	2.328085	-0.480270	-0.178747	-0.586515	0.174567	-0.770439
51279	8.899876	-3.783783	2.292152	1.498569	2.909542	-0.428268	-0.183056	-0.586858	0.175777	-0.768889
51280	8.281243	-3.582462	1.797533	1.193965	2.937456	-1.176156	-0.187073	-0.587289	0.176110	-0.767516
51281	7.614307	-3.422372	1.151209	0.791077	3.078839	-2.008190	-0.191336	-0.588005	0.176038	-0.765932
51282	7.293778	-3.638166	1.053685	0.945816	3.318947	-2.353777	-0.195477	-0.588647	0.174897	-0.764654
51283	6.922732	-3.315675	1.779378	1.528228	2.689363	-2.565926	-0.200048	-0.589249	0.173416	-0.763344
51284	8.346110	-3.575294	1.612729	1.255395	3.187373	-1.250851	-0.205443	-0.590347	0.172600	-0.761244
51285	9.304315	-4.073739	1.403684	1.196842	3.881495	-0.397983	-0.211187	-0.590493	0.171625	-0.759778
51286	9.981059	-4.835362	1.173647	1.327472	4.799353	0.166419	-0.217406	-0.590213	0.170614	-0.758468
51287	11.480885	-4.081692	1.885713	1.267467	4.077473	1.754223	-0.224717	-0.588435	0.170401	-0.757766
51288	14.433455	-3.297979	2.923178	1.124657	3.397634	4.848026	-0.233553	-0.585617	0.172778	-0.756738
51289	17.773212	-3.856869	3.054043	0.886304	4.414089	8.070783	-0.243960	-0.581890	0.176774	-0.755406
51290	19.756770	-5.355251	3.947812	2.149415	5.590567	10.155191	-0.255618	-0.579372	0.181317	-0.752404
51291	18.817242	-5.937413	4.073861	3.021497	5.871674	9.222112	-0.267185	-0.579614	0.185757	-0.747097
51292	17.201924	-4.658444	4.086955	2.861485	4.524287	7.670040	-0.278516	-0.580490	0.191868	-0.740707
51293	15.115151	-2.935646	4.334893	2.596937	2.537712	5.765723	-0.289770	-0.581738	0.200634	-0.733048
51294	11.372919	-0.360704	3.608583	1.168239	0.174921	2.065724	-0.300374	-0.583851	0.211352	-0.724033
51295	6.745063	2.602039	2.087584	-1.204101	-1.988924	-2.655959	-0.310471	-0.584946	0.222872	-0.715384
51296	5.076040	5.417962	2.279891	-2.873663	-4.426850	-4.115112	-0.319768	-0.583921	0.231793	-0.709265
51297	7.548403	5.371610	3.444799	-2.464219	-4.694568	-1.470899	-0.332481	-0.581468	0.245978	-0.700604
51298	10.042737	2.621794	2.314475	-1.519852	-1.568844	0.594803	-0.347192	-0.578107	0.260959	-0.690761
51299	9.571482	2.947573	2.356035	-1.707810	-1.872889	0.158665	-0.359851	-0.576816	0.270715	-0.681545
51300	8.666263	2.605140	1.728582	-1.684693	-1.335141	-0.854038	-0.371941	-0.578469	0.281537	-0.669156
51301	9.894151	1.447818	1.311159	-0.942650	-0.156609	0.226982	-0.383100	-0.579152	0.292469	-0.657479
51302	10.962601	0.551838	1.875856	0.166923	-0.011626	1.321643	-0.392663	-0.577437	0.302004	-0.648980
51303	10.486037	-0.361163	2.453309	1.300767	-0.156502	0.882614	-0.401563	-0.574045	0.309708	-0.642884
51304	8.561244	-0.947022	2.461571	1.856825	-0.225396	-1.051840	-0.410900	-0.569033	0.316353	-0.638188
51305	6.377989	-0.335585	2.353244	1.286380	-0.794109	-3.176147	-0.419120	-0.563950	0.320912	-0.635070
51306	5.500922	0.923720	2.405028	0.172104	-1.536384	-3.938402	-0.425843	-0.559407	0.323432	-0.633335
51307	5.664969	2.793547	2.506826	-1.513443	-2.353535	-3.619997	-0.433778	-0.553477	0.327274	-0.631183
51308	6.102018	2.805222	2.354009	-1.661666	-2.055559	-3.205288	-0.443671	-0.546992	0.332755	-0.627080
51309	6.927759	2.386832	3.089552	-1.050136	-2.294848	-2.271732	-0.453952	-0.541154	0.336102	-0.622989
51310	7.058362	2.269476	4.270414	-0.570251	-3.161527	-1.882777	-0.466880	-0.531616	0.337654	-0.620803
51311	6.560678	2.080313	5.163310	-0.201035	-3.858961	-2.125455	-0.480239	-0.520551	0.340115	-0.618643
51312	7.373140	2.031464	4.498501	-0.492150	-2.908195	-1.444583	-0.492042	-0.512756	0.345434	-0.612904
51313	8.658203	2.210098	2.953854	-1.175838	-1.111186	-0.541437	-0.503221	-0.505827	0.351447	-0.606129
51314	10.913158	1.783260	3.293626	-0.663265	-0.621764	1.689360	-0.514280	-0.498204	0.356015	-0.600468
51315	11.366538	2.006876	5.284884	-0.465840	-2.239215	2.674058	-0.526763	-0.486796	0.359817	-0.596726
51316	10.897985	1.888419	6.175720	-0.293422	-2.967872	2.498793	-0.537112	-0.477339	0.361329	-0.594222
51317	10.287731	1.727939	3.995465	-0.635339	-0.916112	1.302297	-0.543848	-0.471434	0.363059	-0.591749
51318	9.096031	0.987721	3.916993	-0.001539	-0.970290	0.092510	-0.550623	-0.464130	0.363052	-0.591263
51319	7.861400	0.952723	4.681383	0.056847	-1.946394	-0.822060	-0.556574	-0.457009	0.362882	-0.591342
51320	7.299988	1.229741	5.044889	-0.247797	-2.409867	-1.188114	-0.561520	-0.451118	0.364622	-0.590118
51321	7.734214	2.624871	4.265243	-1.776438	-1.627772	-0.919180	-0.565755	-0.446725	0.367766	-0.587458
51322	7.348310	3.116540	3.628293	-2.411249	-1.142897	-1.460819	-0.570771	-0.440598	0.371141	-0.585105
51323	8.668369	1.228787	4.280919	-0.482139	-1.071026	-0.138153	-0.574609	-0.435085	0.374162	-0.583548
51324	9.588649	0.878533	5.103164	-0.096416	-1.448968	0.987635	-0.577389	-0.430728	0.377119	-0.582131
51325	9.371261	1.665555	4.560057	-1.000282	-1.036179	0.642648	-0.579731	-0.426717	0.380749	-0.580391
51326	8.497212	1.341351	4.699891	-0.766902	-1.448213	-0.148061	-0.581445	-0.423482	0.384499	-0.578572
51327	8.017046	1.636710	4.466982	-1.151295	-1.413355	-0.670344	-0.582568	-0.420968	0.388298	-0.576736
51328	8.883045	0.903914	3.724370	-0.475413	-0.411959	-0.158647	-0.582995	-0.419183	0.392122	-0.575015
51329	9.613344	0.544505	3.077315	-0.162491	0.427206	0.285510	-0.583323	-0.417418	0.395708	-0.573509
51330	9.875175	0.715565	3.416132	-0.363736	0.171824	0.653402	-0.583784	-0.415386	0.399105	-0.572159
51331	9.466106	0.469286	3.931979	-0.168198	-0.459376	0.436621	-0.584524	-0.412880	0.401541	-0.571513
51332	8.671109	0.394863	4.116339	-0.154854	-0.900966	-0.249610	-0.584874	-0.411019	0.403272	-0.571277
51333	8.761242	0.206045	3.886117	-0.000780	-0.651298	-0.248198	-0.584801	-0.409675	0.404536	-0.571424
51334	9.562381	-0.224127	3.802902	0.411402	-0.298879	0.468011	-0.584421	-0.408500	0.405698	-0.571830
51335	10.028636	-1.002650	4.733505	1.163873	-1.018849	1.214195	-0.583866	-0.407524	0.406922	-0.572223
51336	10.261765	-2.007177	4.559715	2.130066	-0.784856	1.366321	-0.583565	-0.406049	0.408454	-0.572487
51337	10.079740	-2.038344	4.146766	2.109419	-0.456840	1.063573	-0.583378	-0.403795	0.409998	-0.573168
51338	9.575005	-1.588785	4.223313	1.600540	-0.680993	0.628363	-0.583151	-0.401343	0.410980	-0.574416
51339	8.988176	-0.888376	4.615283	0.843363	-1.220080	0.221117	-0.582748	-0.399147	0.411738	-0.575811
51340	8.869857	-0.797353	4.672645	0.705068	-1.290097	0.136285	-0.582177	-0.397241	0.412334	-0.577278
51341	9.373503	-0.882690	4.327970	0.750224	-0.777351	0.492932	-0.581320	-0.396161	0.413132	-0.578313
51342	9.566793	-1.041950	3.944434	0.882787	-0.355127	0.544063	-0.580552	-0.395976	0.414040	-0.578561
51343	9.482810	-0.876648	3.632811	0.707687	-0.108315	0.354756	-0.579916	-0.396385	0.414876	-0.578320
51344	9.512515	-0.731061	3.473071	0.559044	0.033660	0.324912	-0.579424	-0.396935	0.415311	-0.578124
51345	9.526891	-0.736189	3.441459	0.564154	0.053240	0.327635	-0.579049	-0.397433	0.415580	-0.577964
51346	9.446677	-0.654802	3.961817	0.476255	-0.467816	0.430300	-0.579195	-0.397190	0.415689	-0.577906
51347	9.247875	-0.604760	4.234858	0.420347	-0.786767	0.337547	-0.579696	-0.396437	0.415885	-0.577780
51348	9.408356	-0.859016	3.628427	0.674370	-0.145253	0.284075	-0.580663	-0.394990	0.415533	-0.578054
51349	9.248831	-1.047469	3.685939	0.856044	-0.221644	0.159380	-0.581935	-0.393081	0.414964	-0.578485
51350	9.019199	-1.347237	4.042945	1.143564	-0.603884	0.078414	-0.583021	-0.391455	0.414512	-0.578817
51351	8.885019	-1.505789	3.865516	1.300965	-0.459828	-0.104486	-0.583677	-0.390386	0.414080	-0.579188
51352	8.587958	-1.421932	4.076936	1.212025	-0.743985	-0.306174	-0.583808	-0.389900	0.413790	-0.579589
51353	8.521754	-1.408431	4.026331	1.198475	-0.708057	-0.385195	-0.583778	-0.389709	0.413327	-0.580078
51354	8.631840	-1.234678	4.069660	1.024110	-0.697899	-0.270185	-0.583471	-0.390009	0.412841	-0.580531
51355	8.870508	-1.250302	4.463468	1.034344	-0.978300	0.094117	-0.582907	-0.390752	0.412427	-0.580893
51356	9.009136	-1.263276	4.485146	1.056359	-0.959735	0.229219	-0.581980	-0.392287	0.412176	-0.580967
51357	9.263464	-1.357020	4.340599	1.165896	-0.755148	0.412988	-0.580844	-0.394219	0.411775	-0.581079
51358	9.581571	-1.421894	4.059220	1.247841	-0.392874	0.608160	-0.580124	-0.395524	0.410965	-0.581485
51359	9.678393	-1.402300	4.309853	1.241769	-0.589045	0.785594	-0.579781	-0.396249	0.409787	-0.582165
51360	9.335729	-1.465716	4.249300	1.327674	-0.641809	0.443337	-0.579526	-0.397011	0.408503	-0.582801
51361	9.099850	-1.400081	4.708855	1.286663	-1.142721	0.384343	-0.579221	-0.398047	0.407010	-0.583442
51362	9.032778	-1.393317	3.926930	1.304164	-0.428789	0.039644	-0.578775	-0.399388	0.405749	-0.583845
51363	9.568344	-1.244251	4.039182	1.170053	-0.335711	0.576470	-0.578821	-0.399841	0.404684	-0.584230
51364	9.185406	-1.065757	4.224781	1.016021	-0.643379	0.282361	-0.578509	-0.401032	0.403828	-0.584315
51365	9.129180	-0.799701	3.763931	0.771324	-0.253539	0.060977	-0.577742	-0.403301	0.403459	-0.583766
51366	9.463090	-0.554695	4.330646	0.562278	-0.699519	0.570308	-0.577004	-0.405528	0.403063	-0.583227
51367	9.991922	-0.491929	3.540343	0.514516	0.194092	0.785047	-0.576179	-0.407823	0.402527	-0.582812
51368	10.071468	-0.161994	3.812852	0.219799	-0.062726	0.955145	-0.575883	-0.409365	0.401773	-0.582544
51369	9.862926	0.079893	4.488317	0.021515	-0.783249	0.995396	-0.575788	-0.410483	0.400908	-0.582447
51370	9.501856	0.324447	4.581069	-0.198350	-1.006315	0.690868	-0.575612	-0.411361	0.400295	-0.582423
51371	9.523105	0.471420	4.456027	-0.336162	-0.889705	0.668885	-0.575417	-0.411785	0.400041	-0.582490
51372	9.618761	0.507517	3.954334	-0.384444	-0.388362	0.585210	-0.575299	-0.411732	0.400035	-0.582648
51373	9.741521	0.711059	3.810471	-0.596358	-0.209489	0.652635	-0.575435	-0.411211	0.399847	-0.583012
51374	9.837918	0.890876	3.856141	-0.782060	-0.205893	0.760584	-0.575834	-0.410285	0.399553	-0.583471
51375	9.719853	0.918762	3.969555	-0.819354	-0.326844	0.689634	-0.576625	-0.408654	0.399498	-0.583873
51376	9.344408	1.118283	4.109882	-1.033387	-0.562768	0.389025	-0.577595	-0.406744	0.399680	-0.584123
51377	9.028141	1.298129	4.215787	-1.230148	-0.744354	0.132054	-0.578699	-0.404772	0.399857	-0.584279
51378	8.897097	1.264833	4.250735	-1.214164	-0.787861	0.022546	-0.579887	-0.402794	0.399872	-0.584458
51379	9.068866	1.109478	4.279553	-1.077361	-0.707981	0.193694	-0.581287	-0.400395	0.399673	-0.584851
51380	9.489901	0.977859	4.431510	-0.969032	-0.636670	0.642355	-0.583036	-0.397224	0.399315	-0.585516
51381	9.921395	0.864930	4.451949	-0.886704	-0.422831	1.051770	-0.584948	-0.393740	0.398840	-0.586286
51382	9.610554	0.709792	4.519925	-0.757124	-0.530923	0.791121	-0.586827	-0.390581	0.398520	-0.586739
51383	9.147462	0.764805	4.181698	-0.829088	-0.337260	0.234512	-0.588469	-0.388111	0.398122	-0.587004
51384	8.810373	0.882348	3.961276	-0.953933	-0.216028	-0.161983	-0.589952	-0.386138	0.397463	-0.587262
51385	8.618064	0.793342	4.121116	-0.869328	-0.397010	-0.274839	-0.591158	-0.384586	0.396755	-0.587547
51386	8.308611	0.771754	4.368193	-0.851281	-0.712440	-0.459751	-0.592135	-0.383315	0.396213	-0.587760
51387	7.831403	0.869091	4.365271	-0.948811	-0.874733	-0.897736	-0.592775	-0.382512	0.395847	-0.587883
51388	7.574651	0.816956	3.925103	-0.892145	-0.563129	-1.307621	-0.592987	-0.382284	0.395844	-0.587821
51389	7.817909	0.742671	4.323848	-0.824944	-0.829006	-0.924542	-0.593024	-0.382099	0.395902	-0.587864
51390	7.939048	0.588642	4.140438	-0.669848	-0.616738	-0.885810	-0.592477	-0.382650	0.395830	-0.588105
51391	8.044642	0.359787	3.894620	-0.436897	-0.366362	-0.885839	-0.591380	-0.383885	0.396070	-0.588244
51392	8.601821	0.275319	3.995435	-0.356003	-0.258107	-0.334436	-0.590180	-0.384863	0.396112	-0.588782
51393	9.188980	0.064680	4.372380	-0.153959	-0.386250	0.355220	-0.588936	-0.385672	0.395895	-0.589642
51394	10.078616	-0.140536	4.530393	0.040776	-0.191882	1.236485	-0.587584	-0.386694	0.395598	-0.590521
51395	10.692335	-0.147624	4.773650	0.040245	-0.184399	1.896281	-0.586231	-0.387627	0.395076	-0.591602
51396	10.440888	-0.226693	4.500580	0.118438	-0.040222	1.558464	-0.584765	-0.388605	0.394658	-0.592690
51397	10.202214	-0.395765	4.349552	0.285554	-0.004669	1.281402	-0.583198	-0.389706	0.394373	-0.593700
51398	10.157172	-0.247858	4.695718	0.136384	-0.355372	1.373663	-0.581860	-0.390391	0.394233	-0.594655
51399	9.867201	-0.081168	4.872805	-0.030969	-0.639406	1.173789	-0.580804	-0.390650	0.393928	-0.595718
51400	9.363828	0.045668	4.801337	-0.156968	-0.764733	0.681441	-0.580205	-0.390435	0.393262	-0.596881
51401	8.881135	0.265934	4.759943	-0.371946	-0.902294	0.219751	-0.580007	-0.390034	0.392311	-0.597962
51402	8.204354	0.319497	4.862407	-0.404089	-1.247218	-0.360828	-0.579781	-0.390287	0.391314	-0.598668
51403	7.254941	0.302044	5.013149	-0.346052	-1.758609	-1.172979	-0.579190	-0.391648	0.390567	-0.598839
51404	7.148382	0.107085	4.959077	-0.128695	-1.768980	-1.294633	-0.577963	-0.394077	0.390854	-0.598244
51405	7.670824	-0.086730	4.221382	0.052664	-0.934104	-1.106749	-0.576114	-0.397343	0.392271	-0.596938
51406	8.305386	-0.117104	4.303610	0.088766	-0.843012	-0.496300	-0.574039	-0.400695	0.394179	-0.595437
51407	8.554701	0.033554	4.528604	-0.044810	-1.053589	-0.190867	-0.571787	-0.404260	0.396388	-0.593725
51408	8.419499	0.315466	4.457883	-0.309807	-1.152895	-0.355736	-0.569208	-0.408539	0.399090	-0.591459
51409	8.297391	0.439147	4.531569	-0.406929	-1.393264	-0.460343	-0.566311	-0.413549	0.402264	-0.588602
51410	8.255384	0.384034	4.390519	-0.330654	-1.410083	-0.567363	-0.563261	-0.419014	0.405663	-0.585322
51411	7.923387	0.182449	4.366295	-0.096227	-1.632792	-0.913218	-0.559943	-0.424962	0.409453	-0.581567
51412	7.693221	0.212251	4.517133	-0.086473	-2.007996	-1.118257	-0.556157	-0.431484	0.413919	-0.577219
51413	6.850489	0.185311	4.302466	-0.034440	-2.222212	-2.032441	-0.551491	-0.439017	0.419742	-0.571785
51414	6.769982	0.004877	3.829314	0.146233	-1.976113	-2.291651	-0.545945	-0.447401	0.426893	-0.565278
51415	6.802531	0.128056	3.533512	0.026640	-1.908029	-2.387701	-0.539605	-0.456353	0.435242	-0.557792
51416	6.917428	0.151817	2.218699	-0.044223	-0.841292	-2.595935	-0.532288	-0.466240	0.444109	-0.549598
51417	6.892720	0.128961	2.308264	0.001983	-1.183541	-2.639963	-0.524610	-0.476308	0.453054	-0.540978
51418	6.499743	0.033853	2.354167	0.117698	-1.535124	-3.073724	-0.515960	-0.487112	0.462363	-0.531721
51419	6.860721	0.086396	1.763727	0.059785	-1.183967	-2.828753	-0.506334	-0.498621	0.471999	-0.521748
51420	7.192633	0.284122	0.976369	-0.150988	-0.682507	-2.582783	-0.495945	-0.510519	0.481505	-0.511431
51421	7.556235	0.320484	0.400175	-0.190315	-0.412834	-2.253300	-0.485099	-0.522143	0.490836	-0.501124
51422	7.341101	0.322272	0.704513	-0.159154	-1.025968	-2.504755	-0.474062	-0.533179	0.500372	-0.490524
51423	6.965117	0.192398	0.352920	-0.040991	-0.949856	-2.901628	-0.462377	-0.544262	0.510103	-0.479355
51424	7.065019	0.190902	-0.950246	-0.101360	0.023421	-2.682846	-0.450216	-0.555266	0.519779	-0.467777
51425	7.077050	0.116892	-1.613270	-0.055973	0.363543	-2.563050	-0.438029	-0.565703	0.529100	-0.456249
51426	6.855099	0.049798	-1.684385	0.010816	0.166041	-2.756047	-0.425436	-0.575885	0.538420	-0.444370
51427	6.903192	0.134139	-2.521761	-0.117600	0.642670	-2.491784	-0.412514	-0.585783	0.547469	-0.432399
51428	7.056292	0.215689	-3.511001	-0.252360	1.213009	-2.026784	-0.399879	-0.595032	0.556036	-0.420544
51429	7.363110	0.272408	-4.145187	-0.334803	1.367535	-1.477262	-0.387364	-0.603810	0.564275	-0.408603
51430	7.339045	0.220441	-4.272614	-0.283219	1.148526	-1.401044	-0.374992	-0.612167	0.572135	-0.396602
51431	7.904421	0.102694	-4.930054	-0.181657	1.171427	-0.572633	-0.362610	-0.620256	0.579483	-0.384703
51432	8.197527	0.026257	-5.301304	-0.109863	1.001985	-0.103139	-0.350317	-0.627990	0.586337	-0.372983
51433	7.900137	-0.149514	-5.610117	0.046117	1.045756	-0.179399	-0.338134	-0.635408	0.592779	-0.361297
51434	7.598139	-0.106754	-5.811738	-0.008192	1.001530	-0.299251	-0.326342	-0.642366	0.598728	-0.349846
51435	7.843170	-0.021426	-6.842510	-0.142201	1.363474	0.504503	-0.314688	-0.648863	0.604319	-0.338741
51436	8.174746	0.026613	-7.543943	-0.211760	1.361522	1.224810	-0.303393	-0.654784	0.609918	-0.327428
51437	8.288845	0.014457	-7.947370	-0.199310	1.220749	1.603201	-0.292901	-0.660046	0.615489	-0.315787
51438	8.327590	-0.073864	-8.327926	-0.104281	1.110093	1.911347	-0.283039	-0.664809	0.620534	-0.304721
51439	8.227241	-0.394490	-8.656367	0.221294	1.073330	2.085351	-0.273662	-0.669213	0.625110	-0.294110
51440	7.997033	-0.233774	-8.834697	0.074316	0.986909	2.064559	-0.264835	-0.673283	0.629375	-0.283617
51441	8.175273	-0.159771	-9.339029	0.013594	0.870836	2.569133	-0.256332	-0.676915	0.633299	-0.273882
51442	8.783685	-0.204756	-10.402923	0.054009	0.837778	3.777790	-0.248266	-0.680206	0.636644	-0.265269
51443	9.096071	-0.296020	-10.479843	0.168754	0.345791	4.061665	-0.240907	-0.683090	0.639240	-0.258309
51444	8.831611	-0.049645	-9.749066	-0.045350	-0.223461	3.339796	-0.235101	-0.685278	0.641301	-0.252695
51445	8.384772	0.077228	-9.761192	-0.185819	-0.091819	3.053760	-0.230587	-0.686905	0.643135	-0.247729
51446	8.389018	0.131038	-10.615473	-0.274209	0.277249	3.712362	-0.226863	-0.688142	0.644665	-0.243723
51447	8.548040	-0.267158	-11.144976	0.108320	0.373430	4.230042	-0.223710	-0.689238	0.645728	-0.240706
51448	8.400822	-0.061613	-10.662941	-0.073259	0.064273	3.761766	-0.221680	-0.690109	0.646347	-0.238418
51449	8.824923	0.486228	-10.396350	-0.581477	-0.538871	3.809761	-0.220378	-0.690573	0.646653	-0.237450
51450	8.653494	0.235382	-10.443453	-0.349386	-0.376642	3.742390	-0.220254	-0.690601	0.646472	-0.237975
51451	8.109025	-0.000416	-10.127151	-0.127476	-0.098879	3.159947	-0.221609	-0.690451	0.645743	-0.239131
51452	7.585688	0.238123	-9.454944	-0.346763	-0.064175	2.306329	-0.223868	-0.690153	0.644715	-0.240654
51453	7.658277	0.457952	-9.662942	-0.559625	0.075105	2.512562	-0.226906	-0.689398	0.643662	-0.242781
51454	7.865525	0.244489	-10.083746	-0.344912	0.312255	2.969727	-0.230972	-0.688122	0.642411	-0.245862
51455	7.882133	0.107022	-9.633900	-0.172853	0.180641	2.632647	-0.236225	-0.686329	0.640784	-0.250091
51456	7.837126	0.126161	-9.120807	-0.158013	0.070961	2.211959	-0.242414	-0.684136	0.638857	-0.255058
51457	7.816781	0.283723	-9.032320	-0.304495	0.230852	2.129469	-0.249084	-0.681566	0.636681	-0.260887
51458	7.949238	0.295994	-9.065446	-0.315716	0.392951	2.237252	-0.255827	-0.678713	0.634192	-0.267772
51459	7.919000	0.215463	-8.917527	-0.248690	0.577549	2.098558	-0.262793	-0.675528	0.631360	-0.275657
51460	7.977363	0.118164	-8.747987	-0.169468	0.698550	2.004935	-0.269868	-0.672092	0.628279	-0.284128
51461	8.139945	0.167921	-8.634455	-0.239714	0.791026	2.025807	-0.277315	-0.668389	0.624846	-0.293123
51462	8.307356	0.473988	-8.383889	-0.562077	0.780278	1.959866	-0.285122	-0.664357	0.620978	-0.302855
51463	8.206965	0.581999	-7.781995	-0.682437	0.706179	1.469097	-0.293508	-0.659866	0.616604	-0.313416
51464	7.848338	0.243878	-7.142349	-0.362320	0.788761	0.765897	-0.302541	-0.654905	0.611923	-0.324219
51465	8.145535	0.081376	-6.921013	-0.210367	0.779733	0.845401	-0.311921	-0.649407	0.607287	-0.334930
51466	8.426098	0.010180	-6.907533	-0.167773	0.958724	1.038822	-0.321192	-0.643589	0.602346	-0.346133
51467	8.610079	0.063477	-6.576922	-0.236927	0.942635	0.977897	-0.331080	-0.637156	0.596953	-0.357863
51468	8.366808	0.015528	-5.538388	-0.167445	0.561961	0.203391	-0.341674	-0.630027	0.590983	-0.370220
51469	8.154969	0.010320	-4.682730	-0.146204	0.292749	-0.415193	-0.353072	-0.622072	0.584620	-0.382866
51470	7.906959	-0.172030	-4.642456	-0.004202	0.754275	-0.673688	-0.364651	-0.613668	0.577750	-0.395784
51471	7.945384	-0.177113	-4.144905	0.002281	0.660359	-0.874407	-0.376447	-0.604814	0.570411	-0.408802
51472	7.971042	-0.191811	-3.324820	0.045312	0.266983	-1.178813	-0.388743	-0.595264	0.562765	-0.421705
51473	7.961207	-0.129013	-2.824117	-0.010442	0.166771	-1.366763	-0.401333	-0.585044	0.554907	-0.434435
