// General information: 
//  MT Manager version: 2021.0.0 
//  XDA version: 2021.0.0 build 5908 rev 109668 built on 2021-04-19
// Device information: 
//  DeviceId: 00B43DFA
//  ProductCode: MTW2-3A7G6
//  Firmware Version: 4.3.5
//  Hardware Version: 1.1.0
// Device settings: 
//  Filter Profile: human(46.1)
//  Option Flags: Orientation Smoother Disabled, Position/Velocity Smoother Disabled, Continuous Zero Rotation Update Disabled, AHS Disabled, ICC Disabled
// Coordinate system: ENU
PacketCounter	Acc_X	Acc_Y	Acc_Z	FreeAcc_E	FreeAcc_N	FreeAcc_U	Quat_q0	Quat_q1	Quat_q2	Quat_q3
50291	0.736070	0.269494	9.759462	0.002834	0.073459	-0.022074	0.974511	-0.000303	-0.041355	-0.220495
50292	0.781142	0.120704	9.753830	-0.015893	-0.075403	-0.027188	0.974466	-0.000424	-0.041192	-0.220726
50293	0.714161	0.228698	9.787178	-0.029552	0.049035	0.003009	0.974417	-0.000149	-0.041025	-0.220970
50294	0.705133	0.339729	9.798939	0.010543	0.147121	0.016355	0.974363	0.000137	-0.040925	-0.221228
50295	0.864282	0.430776	9.777884	0.196159	0.155595	0.009577	0.974324	0.000266	-0.040760	-0.221432
50296	0.780535	0.297690	9.857362	0.060549	0.070632	0.079571	0.974292	0.000259	-0.040558	-0.221607
50297	0.711407	0.271346	9.953150	-0.016541	0.076234	0.169238	0.974275	0.000347	-0.040343	-0.221720
50298	0.759576	0.302523	9.864455	0.050101	0.078907	0.085151	0.974269	0.000523	-0.040188	-0.221775
50299	0.807790	0.395027	9.861889	0.136626	0.139755	0.088183	0.974285	0.000443	-0.040003	-0.221741
50300	0.768912	0.244367	9.801506	0.046027	0.022187	0.021836	0.974311	0.000192	-0.039770	-0.221667
50301	0.796874	0.172507	9.810221	0.044777	-0.051164	0.031122	0.974344	-0.000007	-0.039554	-0.221560
50302	0.733226	0.132300	9.888172	-0.031294	-0.056633	0.103304	0.974368	-0.000117	-0.039387	-0.221487
50303	0.693170	0.164275	9.822321	-0.045787	-0.009743	0.035321	0.974371	-0.000234	-0.039321	-0.221482
50304	0.789491	0.097117	9.688912	0.023269	-0.113063	-0.091863	0.974372	-0.000224	-0.039266	-0.221491
50305	0.767635	0.102123	9.815986	-0.003379	-0.100460	0.033285	0.974352	0.000069	-0.039207	-0.221589
50306	0.764825	0.294925	9.978603	0.064179	0.069849	0.199078	0.974322	0.000476	-0.039199	-0.221722
50307	0.817272	0.391543	9.879844	0.159041	0.127169	0.106541	0.974308	0.000664	-0.039219	-0.221776
50308	0.835260	0.342874	9.851930	0.155474	0.072745	0.079040	0.974329	0.000733	-0.039223	-0.221684
50309	0.759053	0.335287	9.946667	0.076155	0.098943	0.167752	0.974369	0.000793	-0.039233	-0.221505
50310	0.697498	0.310456	9.981645	0.007341	0.102794	0.197583	0.974423	0.000828	-0.039214	-0.221271
50311	0.661640	0.254433	9.782965	-0.033293	0.068000	-0.004366	0.974476	0.000519	-0.039216	-0.221041
50312	0.661544	0.099991	9.756199	-0.096572	-0.065742	-0.034272	0.974519	0.000223	-0.039218	-0.220850
50313	0.751890	-0.053244	9.838322	-0.087033	-0.238825	0.051193	0.974545	0.000223	-0.039253	-0.220728
50314	0.719576	0.088724	9.873604	-0.059512	-0.099461	0.086822	0.974548	0.000581	-0.039326	-0.220702
50315	0.704866	0.194890	9.838185	-0.027698	-0.004472	0.052601	0.974539	0.000959	-0.039428	-0.220724
50316	0.764884	0.308753	9.803912	0.074665	0.066926	0.025351	0.974543	0.001162	-0.039525	-0.220685
50317	0.847934	0.334089	9.773638	0.160424	0.053320	0.001895	0.974568	0.001054	-0.039632	-0.220555
50318	0.825024	0.219008	9.841912	0.084493	-0.035859	0.065745	0.974602	0.000793	-0.039681	-0.220397
50319	0.826314	0.088255	9.765551	0.035758	-0.149338	-0.013046	0.974642	0.000455	-0.039731	-0.220212
50320	0.761211	-0.011311	9.606941	-0.053166	-0.208202	-0.178026	0.974678	0.000281	-0.039776	-0.220047
50321	0.683536	0.033470	9.620348	-0.104313	-0.130394	-0.169474	0.974699	0.000060	-0.039762	-0.219956
50322	0.650109	-0.030807	9.631667	-0.160485	-0.167802	-0.161849	0.974682	-0.000394	-0.039681	-0.220045
50323	0.765967	-0.114148	9.641421	-0.089260	-0.285351	-0.144836	0.974629	-0.000763	-0.039575	-0.220299
50324	0.760553	-0.060271	9.656291	-0.069859	-0.231173	-0.129314	0.974553	-0.000770	-0.039502	-0.220646
50325	0.823462	0.114660	9.684607	0.060913	-0.102021	-0.093185	0.974474	-0.000604	-0.039401	-0.221016
50326	0.761601	0.261355	9.697614	0.069669	0.055093	-0.082108	0.974404	-0.000642	-0.039232	-0.221352
50327	0.771304	0.112469	9.831738	0.007405	-0.081768	0.049558	0.974335	-0.000667	-0.039069	-0.221685
50328	0.687378	0.198102	9.849527	-0.030028	0.028965	0.062694	0.974291	-0.000419	-0.038928	-0.221906
50329	0.647770	0.328734	9.988225	-0.017964	0.160580	0.200613	0.974248	-0.000196	-0.038806	-0.222116
50330	0.771760	0.284288	9.864139	0.084645	0.061293	0.085128	0.974220	-0.000086	-0.038728	-0.222250
50331	0.785140	0.293390	9.755002	0.109358	0.058521	-0.022529	0.974213	0.000142	-0.038660	-0.222294
50332	0.651594	0.303609	9.899762	-0.016289	0.123707	0.112355	0.974215	0.000277	-0.038578	-0.222298
50333	0.674752	0.207768	9.850200	-0.032508	0.025440	0.062696	0.974212	0.000242	-0.038556	-0.222317
50334	0.618874	0.143434	9.688988	-0.098228	-0.009921	-0.103396	0.974201	0.000211	-0.038550	-0.222364
50335	0.587336	0.159325	9.683704	-0.118732	0.018289	-0.110624	0.974169	0.000193	-0.038505	-0.222513
50336	0.663805	0.087158	9.719866	-0.083393	-0.081226	-0.070487	0.974127	0.000371	-0.038450	-0.222708
50337	0.715444	0.271427	9.790344	0.038088	0.058914	0.007264	0.974085	0.000602	-0.038363	-0.222906
50338	0.761307	0.388871	9.799029	0.131202	0.141345	0.021670	0.974061	0.000674	-0.038214	-0.223035
50339	0.742308	0.386467	9.734204	0.121215	0.147314	-0.044438	0.974069	0.000453	-0.038045	-0.223030
50340	0.789225	0.263936	9.714836	0.116531	0.020321	-0.062991	0.974095	0.000163	-0.037811	-0.222955
50341	0.749669	0.203901	9.822344	0.051906	-0.013799	0.040187	0.974124	0.000217	-0.037604	-0.222863
50342	0.699402	0.238867	9.877050	0.020929	0.036715	0.091885	0.974156	0.000452	-0.037440	-0.222751
50343	0.764014	0.416306	9.845515	0.160409	0.163861	0.068538	0.974195	0.000598	-0.037287	-0.222606
50344	0.703513	0.398513	9.777669	0.107368	0.175587	-0.003804	0.974263	0.000144	-0.037071	-0.222346
50345	0.752987	0.213137	9.839477	0.074142	-0.003001	0.057581	0.974325	-0.000441	-0.036798	-0.222117
50346	0.782221	0.018251	9.938508	0.015614	-0.182655	0.154887	0.974382	-0.000702	-0.036603	-0.221900
50347	0.700900	0.110397	9.817511	-0.005763	-0.065688	0.030210	0.974440	-0.000541	-0.036474	-0.221667
50348	0.719081	0.243022	9.725371	0.075928	0.042387	-0.058128	0.974505	-0.000481	-0.036383	-0.221395
50349	0.609257	0.125451	9.737298	-0.071911	-0.014780	-0.055818	0.974574	-0.000711	-0.036252	-0.221110
50350	0.638763	0.088616	9.785463	-0.059881	-0.053808	-0.006329	0.974624	-0.001193	-0.036062	-0.220921
50351	0.649566	-0.119681	9.789628	-0.135324	-0.239101	-0.004651	0.974624	-0.001537	-0.035941	-0.220939
50352	0.676284	0.049895	9.713162	-0.031435	-0.096836	-0.076415	0.974591	-0.001426	-0.035944	-0.221083
50353	0.676406	0.148321	9.576194	0.018785	-0.014722	-0.211518	0.974557	-0.001050	-0.035998	-0.221226
50354	0.651908	0.248310	9.494336	0.042696	0.077411	-0.293169	0.974542	-0.000610	-0.036051	-0.221287
50355	0.618347	0.229411	9.281353	0.017131	0.065272	-0.508176	0.974542	-0.000322	-0.036034	-0.221288
50356	0.608395	0.176618	9.140996	-0.004340	0.014977	-0.649778	0.974550	-0.000083	-0.035865	-0.221283
50357	0.772204	0.055327	8.852079	0.114954	-0.172819	-0.929244	0.974563	0.000006	-0.035457	-0.221292
50358	0.712494	0.008088	8.624136	0.065240	-0.198430	-1.161688	0.974588	0.000358	-0.034720	-0.221299
50359	0.628381	-0.034974	8.427299	-0.002337	-0.214136	-1.364636	0.974629	0.000905	-0.033623	-0.221286
50360	0.444251	-0.027773	8.177856	-0.129591	-0.144336	-1.625028	0.974678	0.001455	-0.032096	-0.221295
50361	0.315755	-0.195581	7.868972	-0.272983	-0.255601	-1.943841	0.974698	0.001757	-0.030160	-0.221476
50362	0.095002	-0.197310	7.486698	-0.418949	-0.172149	-2.336501	0.974666	0.001539	-0.027872	-0.221916
50363	-0.311929	-0.497718	7.015282	-0.853386	-0.267261	-2.829896	0.974551	0.000351	-0.025250	-0.222740
50364	-0.684459	-1.069170	6.201381	-1.357478	-0.612131	-3.660362	0.974309	-0.001639	-0.022139	-0.224117
50365	-0.837989	-1.583036	5.993618	-1.668937	-0.995479	-3.866666	0.973883	-0.002714	-0.018208	-0.226302
50366	-0.753037	-1.711896	6.553715	-1.618981	-1.144377	-3.292115	0.973286	-0.002222	-0.013270	-0.229203
50367	-0.994524	-1.332916	7.109157	-1.617802	-0.715294	-2.729155	0.972569	-0.000536	-0.007557	-0.232493
50368	-1.324237	-1.122339	6.970841	-1.742202	-0.410101	-2.855545	0.971806	0.001133	-0.001261	-0.235778
50369	-1.924455	-0.505418	6.415001	-1.908505	0.395478	-3.385272	0.971081	0.001104	0.005762	-0.238676
50370	-2.392891	-0.869092	5.778791	-2.402450	0.301596	-3.980719	0.970308	-0.001621	0.014134	-0.241454
50371	-1.974459	-1.651051	6.331834	-2.264592	-0.567132	-3.388916	0.969300	-0.004721	0.024314	-0.244631
50372	-1.869950	-2.314369	7.109149	-2.303163	-1.193520	-2.555848	0.968014	-0.006311	0.035677	-0.248265
50373	-2.487640	-1.933762	7.299434	-2.482611	-0.575173	-2.281910	0.966486	-0.006244	0.047710	-0.252168
50374	-3.172050	-1.393453	7.222902	-2.644090	0.201708	-2.253668	0.964733	-0.005187	0.060323	-0.256174
50375	-3.336215	-0.375255	7.656235	-2.028335	1.124883	-1.781179	0.962773	-0.005664	0.073771	-0.259988
50376	-3.593144	-0.739713	7.459596	-2.222592	0.936024	-1.857706	0.960558	-0.008964	0.088644	-0.263421
50377	-4.082508	-0.787312	7.267744	-2.424643	1.175491	-1.885611	0.957984	-0.014944	0.105216	-0.266409
50378	-4.667691	-1.239615	7.051918	-2.881317	1.153153	-1.849556	0.954912	-0.023653	0.123521	-0.268934
50379	-5.240134	-1.547770	7.285893	-3.103696	1.266373	-1.345757	0.951339	-0.033749	0.142732	-0.271002
50380	-4.888126	-2.133767	7.057171	-2.809592	0.686770	-1.453791	0.947244	-0.044971	0.162399	-0.272640
50381	-4.795698	-2.739863	7.028767	-2.670214	0.217766	-1.285226	0.942527	-0.054548	0.182665	-0.274410
50382	-5.027552	-3.370163	7.469530	-2.600832	-0.131491	-0.558986	0.937219	-0.060956	0.203666	-0.276451
50383	-5.772747	-4.019065	7.689733	-2.976476	-0.273863	0.170205	0.931404	-0.062733	0.225183	-0.279004
50384	-6.660558	-3.509087	8.272112	-2.689197	0.549125	1.029523	0.925412	-0.059596	0.245729	-0.282272
50385	-7.011190	-3.025756	7.635457	-2.608266	1.019804	0.615814	0.919193	-0.053372	0.265180	-0.286208
50386	-7.148581	-1.902813	7.963141	-1.589455	1.823254	0.782935	0.912601	-0.045477	0.284070	-0.290508
50387	-7.307221	-2.203204	7.915066	-1.485453	1.456296	0.983301	0.905424	-0.037602	0.303065	-0.294863
50388	-7.374994	-1.808295	8.448403	-0.617005	1.537303	1.424431	0.897737	-0.030423	0.322203	-0.298877
50389	-8.392853	-1.470162	9.389171	-0.056085	2.007573	2.705305	0.889660	-0.024028	0.341259	-0.302440
50390	-8.484640	-1.310479	9.911083	0.775431	1.855521	3.143700	0.881676	-0.019080	0.359565	-0.304952
50391	-8.450232	-2.050274	8.417915	-0.098707	1.297115	2.218911	0.873433	-0.014954	0.377805	-0.306847
50392	-8.566943	-2.605201	6.986823	-0.966285	1.027270	1.456176	0.864289	-0.011716	0.396976	-0.308671
50393	-9.135173	-1.769451	9.054209	1.113203	1.353767	3.050533	0.854336	-0.008910	0.416374	-0.310908
50394	-9.340503	-2.100120	10.303421	2.274874	0.693241	4.048503	0.844754	-0.007882	0.434641	-0.312114
50395	-9.993115	-2.520924	9.242506	1.516717	0.803416	3.923088	0.835648	-0.007276	0.451773	-0.312314
50396	-9.556822	-2.903142	7.368096	0.553940	0.626009	2.570023	0.826647	-0.007946	0.469073	-0.310744
50397	-9.140417	-3.457988	6.070129	-0.120156	0.193379	1.688598	0.817085	-0.009912	0.487687	-0.307304
50398	-9.024884	-4.062106	6.356894	0.344505	-0.574626	1.929816	0.806457	-0.012073	0.507405	-0.303351
50399	-9.558143	-4.396639	8.163725	2.052745	-1.262542	3.283047	0.795203	-0.012965	0.526353	-0.300727
50400	-9.377644	-4.067561	10.115743	4.419536	-1.840827	3.747104	0.784582	-0.012183	0.542402	-0.300139
50401	-8.589786	-3.965488	8.671615	3.831979	-1.861557	2.292759	0.774438	-0.010388	0.556433	-0.300867
50402	-8.309344	-3.542108	6.265450	2.338672	-1.018890	0.879807	0.764317	-0.008524	0.569935	-0.301532
50403	-8.393498	-4.170274	4.728130	1.020793	-1.103397	0.576112	0.753685	-0.007138	0.584024	-0.301371
50404	-8.920637	-4.949558	5.574636	1.687152	-1.927421	1.526561	0.742361	-0.003889	0.597993	-0.302139
50405	-10.215020	-4.209944	7.556509	3.990228	-1.633460	2.858794	0.731668	0.000540	0.610272	-0.303695
50406	-10.305914	-3.496697	6.908007	4.044547	-0.959603	2.388495	0.722057	0.003771	0.621216	-0.304483
50407	-9.864393	-3.406405	5.216555	2.876454	-0.575356	1.479317	0.713338	0.006013	0.631327	-0.304202
50408	-9.744852	-4.043322	4.059954	1.820035	-0.816188	1.314225	0.705032	0.007990	0.641136	-0.303003
50409	-10.693091	-5.166677	5.106080	2.511644	-1.899544	2.724683	0.696982	0.012225	0.649428	-0.303825
50410	-11.515897	-5.095956	6.564712	4.043702	-2.269436	3.610230	0.690423	0.018583	0.654253	-0.308097
50411	-10.410952	-4.064450	5.258432	3.367347	-1.441624	1.983097	0.685067	0.025618	0.656280	-0.315156
50412	-9.782085	-3.078229	3.861864	2.590474	-0.343407	0.829208	0.680292	0.032080	0.656937	-0.323429
50413	-9.506349	-2.896094	3.279279	2.181235	-0.064648	0.422039	0.675784	0.037491	0.657193	-0.331673
50414	-9.420116	-2.883879	3.251952	2.191805	-0.087487	0.327270	0.671282	0.042054	0.657558	-0.339454
50415	-9.499991	-3.084106	3.417168	2.271853	-0.301171	0.491995	0.666709	0.046996	0.657668	-0.347510
50416	-9.748941	-2.896545	3.462489	2.457421	-0.099349	0.645411	0.662408	0.052946	0.657020	-0.356001
50417	-9.652691	-2.960332	3.020868	2.045519	0.035073	0.525506	0.658705	0.059736	0.655486	-0.364523
50418	-9.309999	-2.917841	2.305409	1.423987	0.314251	0.105893	0.655458	0.067197	0.653389	-0.372749
50419	-8.910644	-2.684604	1.792853	1.073060	0.603924	-0.415625	0.652615	0.074335	0.651418	-0.379767
50420	-8.661364	-2.953132	1.612699	0.717305	0.409474	-0.557486	0.650079	0.080896	0.649817	-0.385475
50421	-8.637440	-3.091741	1.611898	0.610093	0.287397	-0.522501	0.647746	0.086874	0.648572	-0.390170
50422	-8.793819	-3.122851	1.809128	0.747858	0.184111	-0.338346	0.645740	0.092073	0.647511	-0.394046
50423	-9.036093	-3.136785	1.886588	0.815106	0.201573	-0.099577	0.644453	0.096079	0.646385	-0.397034
50424	-8.973910	-3.066963	1.557553	0.581933	0.425188	-0.229169	0.643974	0.098452	0.645400	-0.398828
50425	-8.765117	-2.840634	1.292286	0.482794	0.663621	-0.544840	0.644347	0.098477	0.645130	-0.398655
50426	-8.516457	-3.090910	1.162680	0.184976	0.484749	-0.693127	0.645395	0.096236	0.645840	-0.396352
50427	-8.479858	-3.379827	1.129029	-0.017633	0.293118	-0.619230	0.646816	0.092301	0.647450	-0.392324
50428	-8.752470	-3.842681	1.022300	-0.324574	0.137888	-0.205786	0.648401	0.087649	0.649509	-0.387340
50429	-8.833463	-4.115263	1.024392	-0.451576	-0.041917	-0.024478	0.650095	0.083368	0.651321	-0.382371
50430	-8.644687	-4.291679	1.010849	-0.576402	-0.254768	-0.129005	0.651765	0.080170	0.652535	-0.378119
50431	-8.498841	-4.358025	1.004427	-0.633086	-0.378194	-0.237319	0.653211	0.078136	0.653205	-0.374878
50432	-8.438150	-4.387627	1.004853	-0.660929	-0.444125	-0.282249	0.654346	0.077390	0.653378	-0.372745
50433	-8.583460	-4.149517	1.225854	-0.336265	-0.368449	-0.213306	0.655158	0.077632	0.653236	-0.371515
50434	-9.039558	-3.958023	1.542242	0.071365	-0.260820	0.171544	0.655974	0.078174	0.652932	-0.370495
50435	-9.481245	-3.824133	1.497957	0.149441	0.012680	0.518784	0.656973	0.078719	0.652479	-0.369405
50436	-9.613861	-3.533598	1.397914	0.232541	0.312896	0.517595	0.658271	0.078619	0.652139	-0.367713
50437	-9.534214	-3.586243	1.253151	0.054014	0.315219	0.445501	0.659759	0.077600	0.652033	-0.365444
50438	-9.335298	-3.810772	1.157653	-0.191683	0.122233	0.334146	0.661143	0.075953	0.652173	-0.363031
50439	-9.097882	-3.921439	1.148656	-0.295127	-0.050264	0.156210	0.662201	0.074139	0.652455	-0.360966
50440	-8.994178	-3.909144	1.198435	-0.255581	-0.112177	0.063292	0.662846	0.072395	0.652869	-0.359383
50441	-8.992607	-3.997699	1.262312	-0.246086	-0.212522	0.103778	0.663120	0.071113	0.653198	-0.358535
50442	-9.171353	-3.819953	1.436733	0.025240	-0.108296	0.225120	0.663186	0.070339	0.653344	-0.358301
50443	-9.261082	-3.698126	1.267104	-0.029066	0.117510	0.238913	0.663303	0.069749	0.653333	-0.358218
50444	-9.129262	-3.579261	1.011848	-0.182342	0.303808	0.038851	0.663466	0.069152	0.653355	-0.357991
50445	-9.012599	-3.527425	1.075610	-0.110976	0.264403	-0.079015	0.663635	0.068410	0.653548	-0.357468
50446	-8.971551	-3.599067	1.201772	-0.047182	0.125798	-0.072656	0.663834	0.067443	0.653910	-0.356620
50447	-8.905983	-3.740070	1.154333	-0.164959	0.021833	-0.085949	0.664024	0.066487	0.654325	-0.355684
50448	-8.892117	-3.730185	1.084089	-0.210698	0.059217	-0.111586	0.664148	0.065769	0.654734	-0.354831
50449	-8.861909	-3.697022	1.176387	-0.113243	0.015801	-0.139415	0.664195	0.065386	0.655067	-0.354199
50450	-8.851224	-3.689114	1.299309	-0.004592	-0.056421	-0.135977	0.664219	0.065262	0.655321	-0.353708
50451	-8.887268	-3.531546	1.382723	0.158364	0.021158	-0.151334	0.664295	0.065178	0.655541	-0.353171
50452	-8.970863	-3.605725	1.427276	0.163981	-0.034682	-0.040960	0.664444	0.065158	0.655754	-0.352497
50453	-9.283146	-3.589290	1.787226	0.503523	-0.112750	0.286209	0.664569	0.065386	0.655938	-0.351878
50454	-9.627188	-3.677054	2.671847	1.215277	-0.546476	0.749826	0.664678	0.066243	0.655726	-0.351907
50455	-9.773031	-3.678826	3.904300	2.216153	-1.180356	1.049389	0.665148	0.068165	0.654200	-0.353489
50456	-9.617004	-3.469653	4.277622	2.556821	-1.291217	0.893295	0.666080	0.071264	0.651134	-0.356768
50457	-10.226855	-2.992148	5.278632	3.600799	-1.263921	1.449669	0.667589	0.075227	0.646518	-0.361497
50458	-10.440204	-2.753307	6.044316	4.228346	-1.432939	1.727559	0.669902	0.079626	0.640515	-0.366921
50459	-10.880407	-2.106490	7.291738	5.450976	-1.508734	2.187124	0.673211	0.084691	0.632969	-0.372780
50460	-10.994874	-1.661947	8.593035	6.498332	-1.909198	2.500199	0.677715	0.090503	0.623676	-0.378867
50461	-11.113148	-1.143793	9.488235	7.206124	-2.029126	2.788024	0.683651	0.096472	0.612833	-0.384382
50462	-11.164520	-0.554342	9.697336	7.380982	-1.705540	2.899014	0.691167	0.102010	0.600702	-0.388637
50463	-11.170850	-0.158815	9.701032	7.241354	-1.378666	3.015597	0.700367	0.106626	0.587520	-0.391073
50464	-11.552824	-0.231261	9.554443	6.638045	-1.071672	3.587753	0.711245	0.109948	0.573349	-0.391551
50465	-12.083246	-0.421176	9.391274	5.869880	-0.720153	4.307288	0.723502	0.112366	0.558014	-0.390562
50466	-12.450527	-0.564271	9.269123	5.094259	-0.387679	4.854012	0.737050	0.113625	0.541388	-0.388258
50467	-12.892333	-0.783261	8.963497	4.052069	0.076242	5.376178	0.751572	0.113854	0.523480	-0.384897
50468	-12.934538	-0.590735	8.760935	3.366975	0.612763	5.440023	0.766995	0.112322	0.504548	-0.380176
50469	-13.023477	-0.773766	8.458315	2.312882	1.003212	5.528294	0.783000	0.108884	0.484885	-0.374087
50470	-13.056860	-1.011339	8.176422	1.229772	1.334446	5.517405	0.799357	0.103473	0.464554	-0.366758
50471	-12.930715	-1.428309	7.636343	-0.102040	1.586767	5.186530	0.815684	0.096552	0.443633	-0.358506
50472	-12.760808	-1.906206	7.151802	-1.396551	1.703221	4.772194	0.831564	0.088883	0.422167	-0.349823
50473	-12.577771	-2.213549	7.030739	-2.308625	1.724042	4.476490	0.846746	0.081209	0.400097	-0.341100
50474	-12.164958	-2.475472	6.901667	-3.066227	1.622975	3.959213	0.861073	0.074219	0.377361	-0.332631
50475	-11.755748	-2.403815	6.993145	-3.444558	1.653699	3.537798	0.874435	0.068348	0.353943	-0.324677
50476	-11.460082	-2.472282	6.605440	-4.213304	1.772089	2.842080	0.886786	0.063467	0.330104	-0.317196
50477	-11.042153	-2.327715	6.456932	-4.598321	1.874851	2.201495	0.898169	0.059138	0.306007	-0.310088
50478	-10.463778	-2.137143	6.846331	-4.538074	1.752071	1.901799	0.908596	0.055620	0.281585	-0.303429
50479	-9.976892	-1.957134	7.179811	-4.550687	1.687418	1.647096	0.918095	0.052707	0.256917	-0.297180
50480	-9.174601	-1.784497	6.838343	-4.607695	1.626146	0.685680	0.926664	0.049477	0.232451	-0.291225
50481	-8.527561	-1.673156	6.653575	-4.653883	1.546448	-0.029337	0.934250	0.045863	0.208601	-0.285586
50482	-8.411764	-1.393679	6.901536	-4.786255	1.791914	-0.107617	0.940948	0.041403	0.185250	-0.280329
50483	-7.891325	-1.077630	7.326071	-4.520584	1.854691	-0.158291	0.946867	0.035986	0.162094	-0.275452
50484	-6.639496	-1.188294	6.974023	-4.095934	1.335274	-1.120461	0.952014	0.029670	0.139135	-0.270982
50485	-5.864091	-1.247425	6.757722	-3.913446	1.071441	-1.742201	0.956380	0.023614	0.116359	-0.266909
50486	-5.556146	-1.113527	6.979680	-3.886291	1.144640	-1.787780	0.960076	0.018361	0.093880	-0.262875
50487	-4.825662	-0.809433	6.986808	-3.447809	1.167608	-2.099408	0.963236	0.013399	0.071740	-0.258554
50488	-3.945282	-0.841322	6.228041	-3.109931	0.865912	-3.132013	0.965917	0.008423	0.050173	-0.253805
50489	-2.862791	-0.743792	6.101206	-2.393949	0.525175	-3.491275	0.968111	0.003574	0.029714	-0.248727
50490	-2.306893	-0.941764	6.026796	-2.237183	0.175104	-3.689760	0.969889	-0.000801	0.010495	-0.243320
50491	-1.891769	-1.043870	5.731648	-2.127034	-0.031575	-4.068880	0.971293	-0.005081	-0.007187	-0.237722
50492	-1.260989	-1.024120	5.539920	-1.728079	-0.238040	-4.309592	0.972371	-0.009209	-0.023322	-0.232091
50493	-0.660413	-1.304575	5.558848	-1.468648	-0.694296	-4.299258	0.973180	-0.012922	-0.037923	-0.226530
50494	-0.239899	-1.734271	5.586150	-1.416503	-1.208748	-4.262804	0.973774	-0.015450	-0.051560	-0.221058
50495	0.113458	-2.094266	5.355927	-1.353119	-1.661272	-4.474813	0.974226	-0.015856	-0.064349	-0.215616
50496	0.797146	-2.130855	4.655932	-0.773272	-2.005993	-5.097708	0.974561	-0.014207	-0.076418	-0.210210
50497	1.368279	-1.913227	3.610965	-0.096547	-2.097936	-6.049611	0.974799	-0.011525	-0.087171	-0.205027
50498	1.540565	-1.792373	2.265251	0.285918	-2.126959	-7.340534	0.974923	-0.009985	-0.096029	-0.200509
50499	1.686671	-1.651522	1.777232	0.543693	-2.074013	-7.779518	0.974971	-0.009268	-0.102624	-0.197015
50500	2.085154	-1.771446	2.346969	0.732875	-2.298150	-7.133971	0.974934	-0.008819	-0.107190	-0.194771
50501	2.136507	-2.194153	3.142420	0.441551	-2.660831	-6.351652	0.974822	-0.007910	-0.109946	-0.193834
50502	1.959681	-1.959523	4.165862	0.142278	-2.328778	-5.386515	0.974644	-0.006080	-0.111071	-0.194154
50503	1.984194	-1.141046	5.278839	0.228866	-1.540917	-4.273887	0.974383	-0.004494	-0.110750	-0.195684
50504	2.315654	-0.708456	6.223987	0.492611	-1.242851	-3.269386	0.973998	-0.003490	-0.109404	-0.198359
50505	2.557976	-0.642730	6.820663	0.622690	-1.275624	-2.638936	0.973574	-0.002205	-0.107249	-0.201611
50506	2.216778	-0.528246	7.814941	0.178762	-1.042674	-1.741325	0.973219	0.001061	-0.104438	-0.204785
50507	2.065509	-0.482076	9.238814	-0.199589	-0.980553	-0.386563	0.972932	0.006773	-0.101537	-0.207477
50508	2.091619	-0.076733	10.408414	-0.228107	-0.741968	0.775538	0.972674	0.014940	-0.099241	-0.209363
50509	1.726054	1.028527	10.811237	-0.182779	0.226948	1.179657	0.972431	0.023903	-0.097263	-0.210587
50510	1.393724	2.088229	11.190365	-0.123705	1.135194	1.598747	0.972199	0.031430	-0.095483	-0.211481
50511	1.493729	2.858101	11.846484	0.157071	1.630201	2.355130	0.972007	0.035901	-0.093917	-0.212350
50512	1.353050	2.711463	11.865189	-0.009017	1.479556	2.343634	0.971874	0.037015	-0.092550	-0.213367
50513	1.426946	2.352015	11.812760	-0.047147	1.117997	2.264446	0.971781	0.035717	-0.091503	-0.214461
50514	1.471831	1.719315	11.348780	-0.146650	0.574824	1.744344	0.971700	0.033558	-0.090874	-0.215440
50515	1.558188	1.443517	10.816072	-0.060487	0.348104	1.204303	0.971621	0.031373	-0.090628	-0.216228
50516	1.448675	1.318864	10.568244	-0.152674	0.326904	0.929546	0.971534	0.029781	-0.090832	-0.216760
50517	1.593584	1.223260	10.408247	-0.033575	0.214946	0.785429	0.971443	0.028300	-0.091386	-0.217134
50518	1.755228	1.168570	9.958825	0.167385	0.138697	0.364602	0.971367	0.026623	-0.092035	-0.217409
50519	1.687406	1.058506	9.506640	0.143385	0.114518	-0.101347	0.971321	0.024405	-0.092609	-0.217630
50520	1.752182	1.043277	9.558481	0.184836	0.119952	-0.041590	0.971286	0.021797	-0.093125	-0.217845
50521	1.793838	0.721638	9.353047	0.129096	-0.134901	-0.263709	0.971282	0.018941	-0.093512	-0.217965
50522	1.745269	0.494871	9.086156	0.046441	-0.270071	-0.551271	0.971293	0.016517	-0.093726	-0.218017
50523	1.768750	0.433668	9.214789	0.022724	-0.298156	-0.424430	0.971309	0.014955	-0.093810	-0.218024
50524	1.726953	0.578427	9.397872	0.016231	-0.124563	-0.240794	0.971320	0.014007	-0.093839	-0.218027
50525	1.776146	0.599564	9.295802	0.091094	-0.112779	-0.330858	0.971343	0.013377	-0.093819	-0.217974
50526	1.826050	0.657755	9.384803	0.146623	-0.073148	-0.230685	0.971389	0.013205	-0.093660	-0.217848
50527	1.631327	0.653763	9.555003	-0.055962	0.009100	-0.097570	0.971455	0.013227	-0.093460	-0.217636
50528	1.527226	0.629432	9.530999	-0.151554	0.029772	-0.140837	0.971501	0.013311	-0.093361	-0.217467
50529	1.667707	0.653929	9.561689	-0.021608	-0.009725	-0.084676	0.971512	0.013466	-0.093349	-0.217413
50530	1.673352	0.637883	9.587101	-0.028949	-0.030733	-0.059856	0.971488	0.013767	-0.093354	-0.217502
50531	1.726691	0.769194	9.576830	0.073302	0.060537	-0.051552	0.971433	0.013968	-0.093460	-0.217690
50532	1.746746	0.931751	9.452282	0.180271	0.198980	-0.159044	0.971381	0.013659	-0.093622	-0.217869
50533	1.670824	0.852797	9.137547	0.139944	0.169817	-0.487172	0.971367	0.012500	-0.093621	-0.218005
50534	1.559003	0.688417	9.293287	-0.049875	0.096644	-0.365060	0.971357	0.010752	-0.093454	-0.218211
50535	1.675044	0.291083	9.388034	-0.121526	-0.280461	-0.276852	0.971315	0.009099	-0.093259	-0.218558
50536	1.673167	0.299027	9.416062	-0.116285	-0.248245	-0.248382	0.971256	0.008060	-0.093090	-0.218932
50537	1.742414	0.382667	9.365724	-0.002866	-0.189113	-0.280456	0.971202	0.007408	-0.092821	-0.219308
50538	1.723814	0.494523	9.399801	0.029333	-0.071124	-0.243653	0.971141	0.006971	-0.092514	-0.219722
50539	1.615514	0.472154	9.393923	-0.067147	-0.039202	-0.269494	0.971087	0.006540	-0.092144	-0.220131
50540	1.584725	0.530118	9.277350	-0.039258	0.030015	-0.386175	0.971019	0.005997	-0.091702	-0.220629
50541	1.638770	0.517929	9.433961	-0.012740	0.007481	-0.223464	0.970950	0.005374	-0.091114	-0.221192
50542	1.666389	0.525985	9.623061	-0.005755	0.015805	-0.032272	0.970879	0.004803	-0.090613	-0.221720
50543	1.655172	0.299787	9.657251	-0.109341	-0.179630	-0.012292	0.970822	0.004800	-0.090235	-0.222124
50544	1.712556	0.429564	9.704234	-0.006455	-0.096439	0.050384	0.970806	0.005669	-0.089925	-0.222298
50545	1.826736	0.631537	9.773002	0.170465	0.015041	0.148137	0.970830	0.007024	-0.089618	-0.222280
50546	1.694629	0.699847	9.665496	0.103218	0.107456	0.024036	0.970874	0.008008	-0.089238	-0.222207
50547	1.549235	0.803005	9.859395	-0.010997	0.250740	0.196789	0.970915	0.008584	-0.088817	-0.222175
50548	1.638695	0.759336	9.966240	0.037519	0.165452	0.314457	0.970943	0.008762	-0.088384	-0.222220
50549	1.646728	0.648368	9.927464	0.011805	0.056742	0.271125	0.970955	0.008828	-0.087945	-0.222337
50550	1.624893	0.664945	10.014099	-0.007682	0.078857	0.353843	0.970955	0.008945	-0.087557	-0.222485
50551	1.670256	0.697218	10.077522	0.041985	0.085223	0.425637	0.970947	0.009060	-0.087235	-0.222644
50552	1.601698	0.731589	10.071862	0.002841	0.143109	0.410941	0.970933	0.009049	-0.086950	-0.222818
50553	1.595411	0.723992	9.952113	0.019819	0.138534	0.291494	0.970908	0.008751	-0.086777	-0.223004
50554	1.651896	0.651090	9.853876	0.060122	0.053820	0.199556	0.970869	0.008192	-0.086651	-0.223245
50555	1.666927	0.538616	9.831630	0.033433	-0.043769	0.173636	0.970816	0.007555	-0.086560	-0.223531
50556	1.603256	0.487374	9.844785	-0.042982	-0.050589	0.173470	0.970753	0.006932	-0.086482	-0.223857
50557	1.609349	0.563413	9.878917	-0.007346	0.025997	0.212267	0.970664	0.006437	-0.086488	-0.224253
50558	1.616614	0.470400	9.649433	-0.000830	-0.056909	-0.017636	0.970561	0.005917	-0.086546	-0.224693
50559	1.657532	0.448702	9.602762	0.035050	-0.087711	-0.058055	0.970449	0.005551	-0.086543	-0.225186
50560	1.595942	0.334219	9.669871	-0.078892	-0.157691	-0.007890	0.970333	0.005359	-0.086463	-0.225719
50561	1.661218	0.411508	9.841809	-0.015517	-0.114295	0.176151	0.970213	0.005599	-0.086397	-0.226254
50562	1.578020	0.477727	9.817617	-0.056954	-0.026137	0.142213	0.970089	0.006006	-0.086395	-0.226774
50563	1.558949	0.679820	9.711484	0.030367	0.152704	0.045363	0.969967	0.006387	-0.086453	-0.227265
50564	1.570520	0.726845	9.699622	0.061167	0.185309	0.038172	0.969850	0.006381	-0.086527	-0.227737
50565	1.652030	0.614487	9.667917	0.088246	0.050503	0.014065	0.969729	0.006040	-0.086607	-0.228227
50566	1.646815	0.566192	9.654512	0.064963	0.016047	-0.002606	0.969603	0.005595	-0.086663	-0.228754
50567	1.625850	0.519847	9.673378	0.023817	-0.008159	0.010104	0.969476	0.005170	-0.086690	-0.229292
50568	1.655088	0.625820	9.756636	0.083663	0.082920	0.102404	0.969357	0.004768	-0.086718	-0.229791
50569	1.614855	0.615976	9.690180	0.056658	0.097809	0.029771	0.969251	0.004298	-0.086731	-0.230241
50570	1.617393	0.619248	9.683223	0.063782	0.107778	0.023397	0.969163	0.003805	-0.086706	-0.230630
50571	1.606406	0.564485	9.634596	0.040707	0.071848	-0.029141	0.969085	0.003217	-0.086690	-0.230975
50572	1.637841	0.342764	9.533264	-0.011269	-0.134928	-0.134630	0.968996	0.002831	-0.086671	-0.231359
50573	1.562116	0.473668	9.672265	-0.041631	0.023476	-0.003763	0.968883	0.002799	-0.086668	-0.231831
50574	1.525929	0.583187	9.625802	-0.017016	0.137124	-0.050232	0.968742	0.002650	-0.086759	-0.232387
50575	1.624727	0.649126	9.672853	0.090829	0.157942	0.015435	0.968575	0.002201	-0.086867	-0.233047
50576	1.639770	0.478047	9.623857	0.034441	0.005016	-0.038498	0.968408	0.001748	-0.087038	-0.233684
50577	1.619494	0.447552	9.719937	-0.016499	-0.006300	0.051385	0.968245	0.001825	-0.087269	-0.234271
50578	1.780484	0.516306	9.636901	0.162765	-0.026483	-0.000483	0.968097	0.002352	-0.087581	-0.234761
50579	1.775737	0.717957	9.584642	0.250860	0.144211	-0.042819	0.967985	0.002842	-0.087858	-0.235114
50580	1.777799	0.665951	9.449297	0.246798	0.085565	-0.178112	0.967928	0.003127	-0.087946	-0.235312
50581	1.682595	0.490043	9.477911	0.077135	-0.032075	-0.174478	0.967922	0.003416	-0.087887	-0.235354
50582	1.699667	0.543380	9.683392	0.081177	0.007303	0.033406	0.967931	0.003797	-0.087792	-0.235344
50583	1.673830	0.571448	9.691005	0.069751	0.037082	0.038078	0.967939	0.004140	-0.087743	-0.235327
50584	1.608760	0.574003	9.621438	0.025188	0.060869	-0.041029	0.967941	0.004423	-0.087714	-0.235323
50585	1.584807	0.552175	9.632950	-0.008351	0.047437	-0.034757	0.967931	0.004681	-0.087686	-0.235368
50586	1.574775	0.563603	9.615362	-0.009576	0.056272	-0.053103	0.967909	0.004965	-0.087649	-0.235466
50587	1.600565	0.619959	9.564464	0.046823	0.089312	-0.095951	0.967864	0.005052	-0.087642	-0.235654
50588	1.647578	0.649109	9.591638	0.096606	0.093871	-0.059881	0.967806	0.004985	-0.087634	-0.235895
50589	1.570288	0.574165	9.633307	-0.012172	0.065034	-0.035587	0.967747	0.004885	-0.087679	-0.236123
50590	1.593149	0.599821	9.621746	0.020255	0.076928	-0.041834	0.967700	0.004990	-0.087756	-0.236285
50591	1.632280	0.771663	9.686121	0.119270	0.211716	0.037271	0.967653	0.005093	-0.087889	-0.236425
50592	1.720473	0.666608	9.482591	0.180986	0.072746	-0.154226	0.967605	0.004958	-0.087998	-0.236583
50593	1.755784	0.576871	9.479241	0.170662	-0.022433	-0.156501	0.967571	0.004997	-0.087989	-0.236725
50594	1.639663	0.629700	9.673159	0.059715	0.079434	0.018138	0.967558	0.005334	-0.087951	-0.236787
50595	1.597096	0.757455	9.704576	0.074787	0.205840	0.049122	0.967562	0.005747	-0.087882	-0.236787
50596	1.636341	0.787702	9.696467	0.124824	0.208889	0.049378	0.967581	0.005874	-0.087759	-0.236752
50597	1.668664	0.723040	9.679494	0.129860	0.135140	0.034379	0.967615	0.005775	-0.087517	-0.236704
50598	1.645026	0.573777	9.835423	0.018726	0.017315	0.175818	0.967655	0.005815	-0.087328	-0.236607
50599	1.603764	0.598978	9.875463	-0.010554	0.057300	0.209897	0.967711	0.005986	-0.087256	-0.236404
50600	1.623128	0.747272	9.780986	0.090559	0.175244	0.128225	0.967788	0.006087	-0.087216	-0.236098
50601	1.615670	0.727500	9.692819	0.091476	0.160596	0.039025	0.967891	0.005841	-0.087144	-0.235708
50602	1.617719	0.525161	9.709965	0.002106	-0.012957	0.045104	0.967993	0.005394	-0.086996	-0.235356
50603	1.630564	0.354120	9.783171	-0.072460	-0.162246	0.110165	0.968071	0.005133	-0.086881	-0.235081
50604	1.510400	0.337717	9.746714	-0.177690	-0.121128	0.053799	0.968126	0.005221	-0.086935	-0.234832
50605	1.559253	0.467323	9.619783	-0.057074	-0.034037	-0.056383	0.968170	0.005478	-0.087063	-0.234600
50606	1.686451	0.524667	9.609236	0.078732	-0.044885	-0.042907	0.968214	0.005712	-0.087171	-0.234370
50607	1.788518	0.468362	9.636214	0.136160	-0.143713	-0.002713	0.968262	0.005866	-0.087176	-0.234170
50608	1.644569	0.441917	9.749682	-0.020825	-0.100771	0.084060	0.968319	0.005933	-0.087094	-0.233961
50609	1.575117	0.556368	9.767687	-0.031545	0.033314	0.096709	0.968367	0.005850	-0.087033	-0.233786
50610	1.629706	0.509736	9.557761	0.033231	-0.032840	-0.103703	0.968420	0.005350	-0.087000	-0.233593
50611	1.697029	0.247793	9.364002	0.010594	-0.292297	-0.297421	0.968472	0.004817	-0.086906	-0.233423
50612	1.593275	0.117170	9.431542	-0.146768	-0.354964	-0.254513	0.968505	0.004779	-0.086729	-0.233353
50613	1.567016	0.359969	9.675629	-0.098135	-0.124085	-0.005656	0.968508	0.005148	-0.086461	-0.233431
50614	1.737770	0.485514	9.732583	0.102161	-0.096093	0.084740	0.968493	0.005468	-0.086180	-0.233592
50615	1.781727	0.520318	9.736098	0.160511	-0.092051	0.097037	0.968486	0.005708	-0.085831	-0.233743
50616	1.576824	0.497430	9.730197	-0.022963	-0.024722	0.056933	0.968499	0.005823	-0.085525	-0.233797
50617	1.555673	0.452356	9.767365	-0.063695	-0.058435	0.087751	0.968532	0.006010	-0.085306	-0.233734
50618	1.527815	0.414522	9.786614	-0.105034	-0.082502	0.100235	0.968565	0.006098	-0.085114	-0.233667
50619	1.661973	0.316616	9.722251	-0.017861	-0.234549	0.052871	0.968571	0.006177	-0.084957	-0.233697
50620	1.497648	0.378632	9.866666	-0.155931	-0.105678	0.172398	0.968540	0.006470	-0.084809	-0.233871
50621	1.371053	0.466015	9.906866	-0.234082	0.023933	0.196687	0.968478	0.006796	-0.084795	-0.234126
50622	1.518202	0.513799	9.761993	-0.061856	-0.010234	0.079810	0.968406	0.007123	-0.084895	-0.234377
50623	1.567165	0.584902	9.646425	0.029029	0.022958	-0.022372	0.968319	0.007344	-0.085012	-0.234686
50624	1.749076	0.505508	9.640941	0.150058	-0.134503	-0.003409	0.968233	0.007518	-0.085130	-0.234992
50625	1.687096	0.495445	9.638208	0.089051	-0.119389	-0.016533	0.968168	0.007765	-0.085171	-0.235238
50626	1.652265	0.598460	9.573438	0.115268	-0.016687	-0.079996	0.968124	0.007837	-0.085135	-0.235427
50627	1.576599	0.599642	9.510878	0.061773	0.017488	-0.153603	0.968094	0.007699	-0.085000	-0.235605
50628	1.653403	0.557719	9.546515	0.108241	-0.050902	-0.108749	0.968064	0.007369	-0.084791	-0.235815
50629	1.578697	0.470320	9.545840	0.008871	-0.090650	-0.126189	0.968025	0.007142	-0.084530	-0.236074
50630	1.570238	0.561660	9.623913	0.035275	-0.003258	-0.045418	0.967976	0.007135	-0.084293	-0.236359
50631	1.468169	0.599796	9.501214	-0.012170	0.070667	-0.180284	0.967930	0.007397	-0.084025	-0.236635
50632	1.439893	0.737312	9.553885	0.019946	0.199073	-0.124881	0.967877	0.007814	-0.083834	-0.236905
50633	1.449566	0.837931	9.574302	0.072958	0.275960	-0.097280	0.967812	0.008144	-0.083642	-0.237230
50634	1.451718	0.894218	9.520784	0.112094	0.317787	-0.146308	0.967749	0.008297	-0.083441	-0.237553
50635	1.488344	0.787765	9.604087	0.085221	0.203870	-0.064590	0.967691	0.008429	-0.083205	-0.237865
50636	1.553078	0.749063	9.629475	0.123306	0.134350	-0.031753	0.967648	0.008742	-0.082972	-0.238108
50637	1.520093	0.849554	9.582787	0.150250	0.227391	-0.076777	0.967637	0.009388	-0.082761	-0.238206
50638	1.455405	1.016888	9.588512	0.171511	0.394660	-0.070683	0.967664	0.009800	-0.082511	-0.238164
50639	1.541420	0.855864	9.434657	0.202680	0.203590	-0.219008	0.967741	0.009889	-0.082119	-0.237982
50640	1.495746	0.684706	9.431829	0.093119	0.069586	-0.239185	0.967871	0.009982	-0.081569	-0.237639
50641	1.472019	0.687276	9.440978	0.083332	0.078750	-0.233643	0.968033	0.010110	-0.080860	-0.237218
50642	1.465291	0.565642	9.416654	0.039874	-0.030181	-0.266071	0.968211	0.010090	-0.080031	-0.236770
50643	1.432135	0.752519	9.434841	0.110894	0.151670	-0.241993	0.968401	0.009711	-0.079068	-0.236333
50644	1.458539	0.588138	9.337229	0.096400	0.000675	-0.344439	0.968599	0.008737	-0.077989	-0.235920
50645	1.401233	0.389939	9.300033	-0.012864	-0.134533	-0.400580	0.968795	0.007569	-0.076831	-0.235533
50646	1.230672	0.098044	9.077176	-0.236676	-0.306014	-0.660115	0.968955	0.006689	-0.075754	-0.235249
50647	1.187989	0.074065	8.702730	-0.208729	-0.308031	-1.036821	0.969061	0.006302	-0.074801	-0.235132
50648	0.919230	0.014924	8.248607	-0.387892	-0.245552	-1.525713	0.969075	0.006080	-0.073829	-0.235383
50649	0.560729	0.238787	7.746006	-0.511041	0.110256	-2.060352	0.968979	0.005442	-0.072786	-0.236120
50650	0.210434	0.439290	6.984415	-0.596856	0.449113	-2.851276	0.968744	0.003266	-0.071514	-0.237507
50651	0.872220	0.285537	6.155808	0.057902	0.021185	-3.589165	0.968348	-0.000781	-0.069698	-0.239673
50652	1.831039	-0.196796	6.026847	0.727073	-0.816132	-3.606290	0.967819	-0.005021	-0.067092	-0.242488
50653	1.838822	-0.746075	5.890873	0.531678	-1.282392	-3.753570	0.967229	-0.007979	-0.063709	-0.245655
50654	0.924880	-0.780532	5.602622	-0.205872	-0.881204	-4.152746	0.966669	-0.009359	-0.059469	-0.248849
50655	0.177280	-0.588512	5.033559	-0.651850	-0.374760	-4.797822	0.966150	-0.011188	-0.053953	-0.252026
50656	-0.460888	-0.798195	4.544465	-1.198534	-0.255925	-5.340635	0.965565	-0.014700	-0.046693	-0.255515
50657	-1.053753	-1.296963	4.361823	-1.867187	-0.372348	-5.547473	0.964620	-0.020724	-0.037474	-0.260145
50658	-1.556426	-1.535758	5.148202	-2.368031	-0.222930	-4.750487	0.963133	-0.027985	-0.027029	-0.266198
50659	-2.492978	-2.402875	5.294037	-3.502997	-0.388448	-4.559985	0.961092	-0.035929	-0.016355	-0.273392
50660	-2.407895	-2.757630	4.180553	-3.497379	-0.714226	-5.554122	0.958581	-0.043824	-0.005133	-0.281381
50661	-1.824508	-3.070569	3.507724	-3.099223	-1.256085	-6.087553	0.955677	-0.050595	0.007678	-0.289934
50662	-2.237248	-3.407951	4.106779	-3.509939	-1.175519	-5.365076	0.952343	-0.054594	0.022361	-0.299268
50663	-2.607873	-2.742109	6.054836	-3.137635	-0.196945	-3.402253	0.948654	-0.056378	0.038475	-0.308864
50664	-3.162378	-2.736410	6.473953	-3.322338	0.194033	-2.861466	0.944661	-0.057143	0.055979	-0.318147
50665	-3.306413	-2.101530	5.898607	-2.898678	0.755012	-3.396794	0.940477	-0.058539	0.075182	-0.326228
50666	-3.799207	-1.765769	4.763581	-3.027291	1.272377	-4.385633	0.936040	-0.062718	0.097113	-0.332363
50667	-4.555450	-1.977007	4.922343	-3.402668	1.616450	-3.923089	0.931087	-0.068216	0.122529	-0.336764
50668	-4.645140	-2.992880	6.614804	-3.231878	0.962955	-1.881912	0.925481	-0.073241	0.150600	-0.339764
50669	-5.337925	-4.313006	7.231351	-3.830184	0.374885	-0.617721	0.919175	-0.075642	0.180511	-0.341777
50670	-6.191411	-4.408771	7.062563	-3.993936	0.740108	-0.267156	0.912194	-0.074945	0.211436	-0.342899
50671	-8.318493	-4.454798	6.098152	-5.290047	1.946580	-0.096129	0.904228	-0.072250	0.243518	-0.343294
50672	-10.755195	-4.434147	6.753364	-5.849127	3.307281	1.837352	0.895188	-0.067715	0.276366	-0.343037
50673	-11.843159	-4.474300	7.922191	-5.095870	3.582804	3.757432	0.885115	-0.061778	0.309105	-0.342357
50674	-11.559579	-4.606376	8.507385	-3.796555	2.845603	4.491913	0.874434	-0.055279	0.340597	-0.341032
50675	-11.548577	-4.750261	7.463936	-3.689140	2.463499	4.039749	0.862988	-0.048484	0.371152	-0.339335
50676	-12.546985	-4.799072	6.469044	-4.043986	2.811456	4.257341	0.850481	-0.042064	0.401734	-0.336931
50677	-13.654839	-4.140424	8.200755	-2.042251	3.192259	6.199405	0.837042	-0.036047	0.431854	-0.334011
50678	-13.202125	-4.422316	8.789194	-0.595834	2.095813	6.504701	0.822949	-0.031959	0.461209	-0.330183
50679	-13.110208	-4.713492	8.722914	0.207842	1.383490	6.562081	0.808103	-0.028734	0.489463	-0.326451
50680	-12.976966	-4.490389	8.946858	1.490654	0.999316	6.475483	0.792850	-0.026034	0.516214	-0.322854
50681	-13.345682	-4.191838	8.890308	2.411973	1.053511	6.549090	0.777783	-0.024633	0.541474	-0.318202
50682	-13.199001	-4.197344	8.237887	2.764000	0.820362	6.040049	0.763134	-0.025491	0.565710	-0.311365
50683	-12.542522	-4.689920	7.149203	2.530797	0.129569	5.151813	0.748692	-0.027871	0.589295	-0.302349
50684	-12.210996	-5.650579	6.831036	2.677201	-1.008207	5.001354	0.734179	-0.029672	0.611848	-0.292818
50685	-11.682806	-6.674528	6.999151	3.217933	-2.464264	4.800400	0.719177	-0.028706	0.632908	-0.285287
50686	-11.216806	-7.568485	7.051533	3.588371	-3.778364	4.527044	0.703676	-0.022613	0.651540	-0.282532
50687	-10.749695	-8.016807	6.970967	3.791086	-4.716596	4.035517	0.687273	-0.009163	0.667111	-0.287288
50688	-11.214007	-7.751141	6.603444	3.809409	-4.608144	4.103890	0.669651	0.011764	0.679041	-0.300555
50689	-11.611773	-6.658411	5.112236	3.051586	-3.360160	3.777177	0.649951	0.038851	0.687422	-0.321723
50690	-15.733537	-0.731436	20.815654	20.015579	-5.933550	5.850651	0.633878	0.063087	0.689970	-0.343743
50691	-12.838783	6.380589	27.973737	28.980852	-6.554950	0.443859	0.628582	0.067288	0.691241	-0.350061
50692	-14.127371	7.177015	13.183551	17.486272	2.762560	0.746401	0.631291	0.065119	0.690122	-0.347797
50693	-5.920169	-9.051989	1.468053	-2.405363	-5.550593	-0.727153	0.635044	0.059622	0.689196	-0.343762
50694	-10.102135	-5.509359	1.900733	0.528917	-1.630848	1.723209	0.636198	0.067185	0.684025	-0.350496
50695	-9.368700	-3.383070	2.150502	1.596314	-0.429367	0.242580	0.638016	0.072911	0.679133	-0.355526
50696	-9.385996	-5.012024	0.864848	-0.499802	-0.845742	0.817340	0.640269	0.079926	0.672980	-0.361615
50697	-9.158536	-3.926036	-0.434271	-1.129243	0.686600	0.073252	0.643054	0.088365	0.665510	-0.368469
50698	-8.711190	-3.824683	-1.277184	-1.970649	1.172850	-0.491605	0.646493	0.096797	0.657902	-0.373956
50699	-8.315481	-3.932635	-1.582074	-2.494611	1.197481	-0.898869	0.650345	0.105281	0.650417	-0.378054
50700	-8.474159	-3.385468	-1.287810	-2.063048	1.474284	-0.952701	0.654605	0.112620	0.643698	-0.380081
50701	-8.488734	-3.567762	-0.687168	-1.878449	0.973006	-0.824781	0.659395	0.117337	0.638236	-0.379585
50702	-8.556767	-3.845351	-0.148404	-1.786221	0.448060	-0.613000	0.664359	0.119112	0.634202	-0.377129
50703	-8.746094	-4.274864	0.338483	-1.794927	-0.108489	-0.239346	0.669208	0.118118	0.631391	-0.373569
50704	-8.845239	-4.499090	0.492819	-1.891503	-0.335405	-0.064231	0.673609	0.114525	0.629668	-0.369666
50705	-9.053403	-4.720810	0.072225	-2.379366	-0.151208	0.115609	0.677297	0.108915	0.628805	-0.366075
50706	-8.942843	-4.736487	-0.280950	-2.678034	0.032225	-0.049761	0.680088	0.102270	0.628455	-0.363408
50707	-8.664343	-5.063571	-0.440813	-3.010691	-0.171454	-0.230879	0.681844	0.095715	0.628210	-0.362325
50708	-8.364813	-5.175839	-0.308551	-2.969727	-0.383119	-0.437823	0.682569	0.090338	0.627542	-0.363496
50709	-8.199305	-5.044033	0.113392	-2.544910	-0.514183	-0.542195	0.682556	0.086363	0.626280	-0.366649
50710	-8.641752	-5.254939	0.209368	-2.561540	-0.442509	-0.036200	0.682066	0.083607	0.624421	-0.371340
50711	-9.161591	-4.900534	0.124687	-2.375538	0.186320	0.300986	0.681353	0.081627	0.622229	-0.376731
50712	-9.215206	-4.732499	0.053637	-2.318316	0.491482	0.272056	0.680503	0.079663	0.620109	-0.382146
50713	-9.042606	-4.475667	0.127191	-2.099026	0.674228	0.033879	0.679528	0.077189	0.618353	-0.387200
50714	-8.865557	-4.561209	0.556776	-1.809516	0.401890	-0.000664	0.678469	0.074486	0.616817	-0.392005
50715	-8.750580	-4.659327	1.067883	-1.459125	0.095186	0.050539	0.677356	0.071656	0.615404	-0.396650
50716	-8.785662	-4.746555	1.195747	-1.390778	0.083815	0.147496	0.676095	0.069570	0.613906	-0.401466
50717	-9.454801	-4.779328	1.553466	-1.067320	0.257515	0.838238	0.674891	0.068273	0.612282	-0.406167
50718	-9.424262	-5.233531	1.666348	-1.270122	-0.027374	1.020992	0.673800	0.068359	0.610135	-0.411165
50719	-9.224158	-5.411573	1.724567	-1.377638	-0.181911	0.930341	0.672727	0.069823	0.607424	-0.416652
50720	-8.899550	-5.532238	1.410192	-1.750762	-0.133779	0.613840	0.671170	0.071597	0.604797	-0.422641
50721	-8.598541	-5.314237	1.723412	-1.419626	-0.236623	0.339852	0.668830	0.073350	0.602338	-0.429505
50722	-8.770921	-5.641084	2.631328	-0.954041	-0.807964	0.869569	0.665557	0.074347	0.600030	-0.437572
50723	-8.836353	-6.158796	3.360009	-0.757514	-1.408400	1.356115	0.661148	0.074799	0.597624	-0.447363
50724	-9.231987	-6.464831	3.651095	-0.684977	-1.400183	1.931293	0.655400	0.074375	0.595299	-0.458845
50725	-9.814184	-6.638158	3.611184	-0.682851	-0.949152	2.518187	0.648030	0.072025	0.593328	-0.472050
50726	-10.269998	-6.351742	3.836504	-0.115972	-0.420746	2.849676	0.639111	0.067552	0.591411	-0.487038
50727	-10.294005	-6.063896	3.977455	0.385957	-0.027218	2.772779	0.629084	0.061068	0.589349	-0.503182
50728	-9.373040	-5.605274	3.779195	0.610983	0.153646	1.726156	0.618296	0.053757	0.586767	-0.520121
50729	-8.173866	-4.464456	3.920078	1.433110	0.185500	0.187983	0.607190	0.047379	0.583012	-0.537747
50730	-7.026105	-3.311927	3.825614	2.039255	0.284265	-1.402799	0.596624	0.042225	0.578128	-0.555000
50731	-6.326629	-2.318438	3.438021	2.404711	0.671476	-2.672273	0.586822	0.038741	0.572680	-0.571119
50732	-6.178979	-1.782834	3.370558	2.782172	0.924565	-3.170223	0.578250	0.036260	0.567660	-0.584871
50733	-6.126108	-1.537441	3.832585	3.287614	0.715097	-3.235359	0.570837	0.034829	0.563403	-0.596246
50734	-5.852006	-1.110844	4.485771	3.929536	0.236559	-3.479855	0.564711	0.034779	0.559159	-0.605997
50735	-5.196210	0.611226	4.899925	5.192214	-0.032872	-4.870701	0.560142	0.036193	0.554818	-0.614091
50736	-4.378185	2.286602	4.481163	5.863311	0.112191	-6.636734	0.557678	0.038333	0.551611	-0.619073
50737	-4.278425	2.231683	3.573528	5.263496	0.662135	-6.999769	0.557672	0.041092	0.550796	-0.619627
50738	-4.721563	1.220901	3.193635	4.451535	0.968104	-6.175471	0.560042	0.046056	0.551746	-0.616286
50739	-6.070858	-0.574483	4.115014	4.074000	0.673533	-3.724503	0.564659	0.053766	0.553119	-0.610187
50740	-8.117837	-2.637741	4.940741	3.587370	0.710483	-0.653634	0.570674	0.064039	0.554055	-0.602705
50741	-9.419959	-4.490121	4.982880	2.434206	0.791525	1.464013	0.577364	0.075436	0.554369	-0.594672
50742	-9.860516	-5.941643	4.480215	0.920236	0.783701	2.480905	0.583602	0.087066	0.554380	-0.586933
50743	-10.755297	-7.283710	4.181498	-0.296956	0.880154	3.801219	0.588752	0.098454	0.553977	-0.580333
50744	-11.558325	-8.585196	4.157940	-1.388179	0.723843	5.091272	0.592712	0.108312	0.552624	-0.575819
50745	-10.537893	-7.967133	3.852649	-1.573998	0.422384	3.851311	0.595473	0.116074	0.550082	-0.573890
50746	-9.836299	-6.453563	3.805528	-0.721639	0.471286	2.521775	0.597574	0.120515	0.547978	-0.572801
50747	-8.853407	-5.391871	3.211650	-0.497211	0.691510	1.006008	0.599525	0.121203	0.547422	-0.571147
50748	-8.309860	-5.186570	2.663068	-0.774325	0.862314	0.272104	0.601390	0.119685	0.548298	-0.568661
50749	-8.230554	-5.574883	2.609952	-1.138363	0.710570	0.377128	0.603217	0.117753	0.549604	-0.565861
50750	-8.229868	-5.875939	2.452347	-1.468903	0.705590	0.464268	0.604787	0.116989	0.550187	-0.563774
50751	-7.946216	-5.800889	2.599796	-1.417454	0.441038	0.254478	0.605836	0.117796	0.549862	-0.562794
50752	-7.881376	-5.179582	2.943957	-0.774102	0.336381	0.031020	0.606269	0.119454	0.549286	-0.562543
50753	-7.878017	-4.819016	3.047877	-0.452668	0.361252	-0.104951	0.606511	0.120953	0.548974	-0.562266
50754	-7.929159	-4.286998	3.321976	0.117129	0.339935	-0.212891	0.606935	0.122157	0.548968	-0.561553
50755	-7.961547	-4.350179	3.443123	0.115469	0.220349	-0.111997	0.607852	0.123224	0.549072	-0.560225
50756	-8.007932	-4.489491	3.297095	-0.091841	0.283490	-0.062591	0.609121	0.124374	0.549059	-0.558602
50757	-7.919645	-4.481454	3.223230	-0.174656	0.264487	-0.164227	0.610693	0.125289	0.549304	-0.556437
50758	-7.665885	-5.001910	2.866993	-0.871912	0.177580	-0.262163	0.612521	0.125878	0.550318	-0.553284
50759	-6.959787	-6.042220	1.943557	-2.387670	0.068349	-0.701256	0.614221	0.126964	0.552344	-0.549116
50760	-5.882395	-8.180093	0.421668	-5.197653	-0.213054	-1.173689	0.614905	0.130180	0.554753	-0.545155
50761	-5.037620	-11.115997	-0.821880	-8.489642	-0.849667	-1.047898	0.612985	0.139563	0.555204	-0.544536
50762	-4.930940	-12.635127	0.050275	-9.454808	-2.057275	-0.308592	0.607392	0.157300	0.551597	-0.549612
50763	-5.361293	-12.925608	1.926709	-8.984933	-3.192090	0.607607	0.598357	0.180761	0.544097	-0.559690
50764	-6.304335	-12.401027	4.008318	-7.834776	-3.956671	1.699134	0.586811	0.205364	0.533860	-0.573125
50765	-6.718067	-11.518885	5.706436	-6.780640	-4.609866	2.150559	0.574033	0.226410	0.522690	-0.588234
50766	-7.231340	-10.574995	6.632942	-5.908544	-4.613196	2.512196	0.560836	0.241307	0.512127	-0.604119
50767	-8.295008	-9.710417	7.198369	-4.940357	-4.132502	3.356032	0.547783	0.248885	0.502949	-0.620510
50768	-9.128754	-8.324956	7.864406	-3.324091	-3.833440	3.925183	0.535193	0.248686	0.495789	-0.637116
50769	-10.835205	-6.984647	8.734627	-1.211525	-3.395032	5.335422	0.523165	0.240804	0.491221	-0.653463
50770	-12.394726	-5.991326	9.310061	0.764118	-2.765459	6.555850	0.512157	0.225440	0.489651	-0.668666
50771	-13.414507	-5.892485	9.041986	1.837880	-1.590196	7.230029	0.502045	0.204435	0.490350	-0.682432
50772	-13.700949	-5.057033	8.999255	3.488844	-0.932523	6.954915	0.492227	0.179758	0.492444	-0.694909
50773	-14.164849	-4.431752	9.564436	5.255129	-0.678534	7.027223	0.482462	0.151966	0.494946	-0.706516
50774	-14.801054	-4.219628	10.082389	6.829442	-0.199878	7.267295	0.472343	0.122137	0.496460	-0.717985
50775	-14.915195	-3.555962	10.311169	8.457767	0.282707	6.609196	0.461469	0.090709	0.496470	-0.729614
50776	-14.678144	-3.203283	10.201749	9.477921	0.892227	5.647774	0.449815	0.059353	0.493120	-0.742278
50777	-14.181578	-2.443848	10.369008	10.582364	1.087086	4.376251	0.437930	0.029870	0.484142	-0.756922
50778	-13.477434	-1.323829	10.756457	11.667061	0.897865	2.918561	0.426745	0.003302	0.468573	-0.773510
50779	-12.744074	0.060752	10.476455	12.403153	1.041134	1.012780	0.417579	-0.020255	0.446512	-0.791103
50780	-12.294861	1.696413	9.968978	13.182392	1.316825	-0.988277	0.411500	-0.041803	0.420295	-0.807634
50781	-12.244081	3.149876	9.258366	13.884361	1.886850	-2.799429	0.409154	-0.062180	0.392244	-0.821506
50782	-11.616459	4.616760	8.585285	14.146512	1.866525	-4.681712	0.410535	-0.082081	0.364900	-0.831608
50783	-11.100027	5.011051	7.790484	13.710691	2.295603	-5.846491	0.415557	-0.101554	0.339974	-0.837507
50784	-11.249161	4.686432	7.024676	13.203963	3.474212	-6.435592	0.424238	-0.119530	0.317235	-0.839700
50785	-12.009201	4.507321	6.487599	13.169742	4.975782	-6.916716	0.436817	-0.134754	0.295509	-0.838872
50786	-12.883321	4.446237	5.775166	13.052405	6.618568	-7.602515	0.453426	-0.146522	0.274529	-0.835207
50787	-13.649814	4.767150	4.904701	12.896834	8.077906	-8.603258	0.474060	-0.154469	0.254210	-0.828724
50788	-14.640859	6.237234	4.286654	13.651005	9.229512	-9.959580	0.498895	-0.159008	0.235389	-0.818787
50789	-15.647601	8.201099	2.889587	14.273388	10.554250	-12.096478	0.528362	-0.161008	0.219718	-0.804135
50790	-14.587253	11.907948	1.067686	15.195673	9.737853	-15.272886	0.563080	-0.159557	0.208998	-0.783455
50791	-13.387381	15.508864	-1.203806	15.963407	9.457154	-18.564074	0.604909	-0.154375	0.205141	-0.753771
50792	-12.782081	13.740337	-1.441626	13.297790	11.105980	-17.132520	0.656038	-0.138983	0.204124	-0.713184
50793	-15.397905	12.560338	3.551478	13.244450	15.181736	-10.594328	0.714460	-0.110244	0.204994	-0.659827
50794	-21.537155	9.757031	6.478071	8.739423	22.016038	-3.642432	0.774636	-0.074850	0.210573	-0.591604
50795	-26.096759	0.664276	-0.689132	-7.476300	24.062192	-3.143183	0.830895	-0.038829	0.222422	-0.508561
50796	-33.127973	-10.666191	-6.709979	-26.378665	21.620836	-0.430908	0.875627	-0.011166	0.246979	-0.414914
50797	-41.415282	-33.009094	1.461702	-45.217141	3.167486	17.442721	0.905288	-0.007432	0.276724	-0.322215
50798	-32.535307	-56.251446	1.429671	-50.420673	-29.963963	18.060155	0.921825	-0.004808	0.294674	-0.251758
50799	-12.758338	-47.172257	3.038269	-28.092225	-37.048237	5.478255	0.927936	0.023664	0.303595	-0.214953
50800	-7.150078	-23.553479	8.540738	-9.924299	-20.507960	2.821861	0.928589	0.039986	0.311455	-0.197788
50801	-3.956540	-15.754717	11.497560	-2.308780	-15.391251	2.589220	0.928766	0.030216	0.318070	-0.187915
50802	-2.693606	-11.783298	12.390780	1.080748	-12.113002	2.504579	0.929634	0.015854	0.320799	-0.180605
50803	-2.396464	-5.362261	11.820947	3.468310	-5.870235	1.489343	0.930840	0.005718	0.321401	-0.173796
50804	-3.968263	-0.878373	12.365035	4.235622	-0.975674	2.455717	0.932032	-0.004860	0.322337	-0.165505
50805	-5.278790	-0.564186	12.818734	3.712855	-0.019487	3.555520	0.933293	-0.017444	0.323047	-0.155889
50806	-5.431731	0.234963	12.965436	3.953267	1.107931	3.633351	0.934616	-0.030106	0.323007	-0.145786
50807	-5.603260	0.869837	12.966026	3.980836	2.125012	3.599834	0.935921	-0.044301	0.322330	-0.134878
50808	-6.253933	0.263609	12.674989	3.138453	2.129527	3.804823	0.937134	-0.060640	0.320893	-0.123007
50809	-7.519907	-1.363513	12.617642	1.781363	1.331410	4.769870	0.938251	-0.078350	0.318351	-0.110452
50810	-9.381892	-2.304289	12.459792	0.039635	1.330240	5.896811	0.939206	-0.097078	0.314477	-0.097839
50811	-10.035223	-2.699844	11.742845	-1.053442	1.482771	5.761674	0.939734	-0.118340	0.309170	-0.085497
50812	-8.842088	-3.515918	11.683034	-0.333651	0.935750	5.221338	0.939594	-0.142269	0.302459	-0.073764
50813	-7.724964	-4.344739	12.277295	0.730823	0.622422	5.297852	0.939240	-0.165908	0.293934	-0.062501
50814	-7.067092	-5.439032	10.701799	0.171011	-0.407799	4.109777	0.939034	-0.188082	0.283167	-0.051546
50815	-7.125155	-5.762637	8.950633	-1.025451	-0.786124	2.931019	0.938591	-0.209701	0.270835	-0.041486
50816	-7.496337	-6.583609	7.809611	-2.097920	-1.440394	2.598314	0.936960	-0.234183	0.257325	-0.032369
50817	-7.613045	-7.349500	6.632449	-2.913673	-2.117458	2.144188	0.933737	-0.261660	0.243008	-0.024828
50818	-7.105615	-8.548657	4.939275	-3.312268	-3.546219	1.340595	0.929158	-0.290375	0.227977	-0.019368
50819	-6.441003	-9.351585	3.329564	-3.470496	-4.705377	0.474185	0.924085	-0.317210	0.212530	-0.016618
50820	-6.136767	-9.842334	2.390092	-3.666788	-5.271019	0.137096	0.919300	-0.340210	0.197109	-0.017109
50821	-6.039800	-9.022023	1.743170	-4.086957	-4.689778	-0.746041	0.914675	-0.360386	0.181812	-0.020864
50822	-5.613774	-8.716185	0.085454	-4.497562	-5.282490	-2.108917	0.908910	-0.381046	0.167080	-0.027749
50823	-5.556875	-8.267216	-1.099102	-5.062129	-5.450685	-3.098177	0.901497	-0.402785	0.153742	-0.037820
50824	-5.806005	-8.634570	-1.133412	-5.508896	-5.298001	-2.663362	0.892640	-0.424831	0.141784	-0.051092
50825	-6.446737	-9.553481	-1.431155	-6.465053	-5.520373	-1.902033	0.883955	-0.443758	0.130795	-0.067790
50826	-6.899308	-9.061714	-2.101412	-7.425633	-5.154513	-2.574368	0.875409	-0.459904	0.120363	-0.087521
50827	-6.445899	-7.851148	-3.518139	-7.686741	-5.231544	-4.419509	0.865115	-0.476692	0.110937	-0.109701
50828	-6.205571	-6.415774	-4.110624	-7.804567	-4.560376	-5.960907	0.851719	-0.495897	0.103402	-0.134053
50829	-6.077712	-6.169891	-3.794232	-7.806633	-3.720445	-5.993389	0.833754	-0.519260	0.098268	-0.159895
50830	-6.378947	-7.587757	-3.420374	-8.444815	-3.238569	-4.510796	0.812705	-0.543577	0.095139	-0.187037
50831	-6.363237	-7.856828	-3.325607	-8.699728	-2.500745	-4.219273	0.791175	-0.564787	0.093335	-0.215283
50832	-6.875622	-6.548834	-1.816986	-8.427685	0.101027	-5.081609	0.770354	-0.581837	0.091916	-0.244073
50833	-6.859657	-4.857343	-0.431869	-7.403247	2.228551	-6.491539	0.749644	-0.596714	0.090365	-0.271662
50834	-8.287465	-2.897794	1.342869	-7.067977	5.207050	-8.477882	0.727384	-0.612419	0.089182	-0.296483
50835	-10.835377	-1.217698	2.222428	-7.881663	7.771079	-10.942682	0.701474	-0.632556	0.088656	-0.316143
50836	-13.657793	0.647510	3.014350	-8.743489	10.108599	-13.978844	0.671139	-0.658513	0.088707	-0.328731
50837	-15.720501	0.923334	2.988061	-10.025417	11.065381	-15.635657	0.635599	-0.690608	0.089812	-0.333179
50838	-17.465123	0.884156	4.661924	-10.379781	12.978089	-16.973833	0.596077	-0.727351	0.090488	-0.327817
50839	-17.977514	0.579647	6.328564	-10.180951	13.930728	-17.917927	0.552446	-0.768569	0.088866	-0.310174
50840	-15.080872	1.168601	5.507277	-8.956437	10.619120	-17.932942	0.504530	-0.813551	0.084819	-0.276388
50841	-13.605652	2.059618	0.983880	-10.997182	4.811406	-16.592745	0.451839	-0.860219	0.078367	-0.222988
50842	-8.843143	8.002785	-9.542327	-11.625227	-9.360361	-12.917282	0.390905	-0.905990	0.067576	-0.147679
50843	2.470803	16.376012	-32.437568	-5.905241	-33.367681	3.305276	0.309022	-0.947713	0.052267	-0.060108
50844	15.056099	8.082363	-54.736489	11.291377	-35.784406	33.334322	0.212378	-0.976506	0.026921	0.024633
50845	19.775678	-18.239753	-59.421929	26.974979	-3.412877	49.334295	0.133914	-0.986431	-0.003298	0.094922
50846	18.837114	-30.506117	-45.551184	29.092247	18.610282	36.729651	0.131620	-0.980935	-0.023832	0.140977
50847	26.883924	-5.124717	-36.413047	36.773179	-3.161826	16.862605	0.177519	-0.968989	-0.031770	0.168931
50848	3.207922	-10.814114	-30.719544	13.279470	0.933192	20.079029	0.161448	-0.969403	-0.062896	0.173886
50849	21.956581	-7.329296	-10.585456	23.516221	8.389457	-4.886090	0.141680	-0.970297	-0.087566	0.175451
50850	8.387048	-4.905879	-10.314869	10.783859	4.156618	-1.614365	0.130867	-0.971028	-0.103191	0.171263
50851	3.303108	-10.704094	-6.528336	3.746200	9.316520	-1.611461	0.146910	-0.969641	-0.101770	0.166903
50852	-2.642674	-6.957453	-3.115405	-2.310437	4.984470	-3.904576	0.167884	-0.967907	-0.092382	0.162596
50853	-5.906204	-5.636669	-0.977438	-5.824986	3.552371	-5.223582	0.182503	-0.966595	-0.084692	0.158786
50854	-6.327057	-5.899837	-1.915245	-5.890779	3.399947	-4.134051	0.185080	-0.966618	-0.081678	0.157236
50855	-5.242695	-4.368085	-4.744552	-3.765410	1.290965	-2.516671	0.186356	-0.966481	-0.079588	0.157645
50856	-4.738766	-3.558764	-5.771010	-2.845757	0.300961	-2.051491	0.189188	-0.965896	-0.076632	0.159312
50857	-3.690561	-2.957659	-5.553813	-1.838461	0.010842	-2.753481	0.194439	-0.964852	-0.072226	0.161363
50858	-3.206444	-2.412607	-5.366730	-1.362237	-0.371530	-3.262140	0.200442	-0.963690	-0.067149	0.163145
50859	-3.172100	-1.692733	-5.065444	-1.358052	-0.937254	-3.824073	0.202490	-0.963344	-0.063052	0.164290
50860	-2.860717	-5.507218	-5.207903	-1.205728	2.557730	-2.220626	0.199845	-0.963899	-0.061241	0.164958
50861	-1.902960	-8.681658	-5.659732	-0.300148	5.481781	-0.819079	0.200393	-0.963842	-0.060427	0.164925
50862	-1.397868	-10.030719	-6.712804	0.490121	6.331399	0.545947	0.208128	-0.962430	-0.059082	0.164075
50863	-0.760223	-10.421671	-8.186412	1.635928	5.934754	1.946920	0.226416	-0.958835	-0.055424	0.162172
50864	0.337220	-8.791739	-9.210118	3.155614	3.690300	1.960865	0.252835	-0.953326	-0.047977	0.157930
50865	2.862975	-7.247501	-10.222052	5.928167	1.585753	1.479178	0.279104	-0.947786	-0.036984	0.149783
50866	6.180880	-7.852920	-12.207635	9.615733	0.767492	2.668668	0.298791	-0.944249	-0.022775	0.136376
50867	9.405297	-10.279408	-14.832613	13.268155	0.770773	5.594900	0.311953	-0.942862	-0.004945	0.116926
50868	10.750624	-13.750608	-18.548031	15.108426	0.363973	10.683590	0.323059	-0.941810	0.016883	0.091330
50869	10.164480	-16.178897	-21.008798	14.270244	-0.702750	14.722102	0.338788	-0.937964	0.042500	0.060334
50870	8.351427	-15.727793	-20.430266	11.165532	-2.388977	14.756840	0.361277	-0.929469	0.070071	0.025641
50871	6.501052	-15.543804	-19.988428	7.765349	-3.955160	14.822386	0.388963	-0.916034	0.096921	-0.014018
50872	4.802069	-12.378365	-20.629254	3.456052	-8.068103	13.080764	0.419129	-0.897733	0.121297	-0.060769
50873	4.393666	-8.272273	-19.768448	0.119234	-11.201577	8.959531	0.444478	-0.877268	0.141670	-0.112998
50874	5.251460	-6.189830	-19.311399	-1.768084	-13.064501	6.448591	0.462128	-0.856416	0.157311	-0.168055
50875	5.909034	-5.459077	-17.867527	-3.061179	-12.957730	4.547371	0.473295	-0.835304	0.167932	-0.223737
50876	6.160575	-7.321757	-18.080236	-5.188993	-12.353502	5.627640	0.481415	-0.812546	0.172614	-0.279666
50877	3.875383	-7.560706	-19.287831	-10.022573	-11.581686	4.646771	0.486714	-0.788296	0.171226	-0.335232
50878	0.777580	-7.591615	-19.914595	-14.678114	-9.527687	2.356421	0.485675	-0.764884	0.165964	-0.389267
50879	-1.380239	-7.520835	-18.189918	-16.265007	-6.252762	-0.577733	0.478021	-0.743001	0.158623	-0.440776
50880	-2.639551	-8.303772	-14.470104	-15.119600	-1.955473	-2.559928	0.464302	-0.723380	0.150000	-0.488513
50881	-4.347478	-9.716456	-11.243631	-14.119557	2.513011	-3.995798	0.448139	-0.704397	0.138426	-0.532761
50882	-3.928293	-8.978884	-10.207636	-13.158804	3.056265	-5.619209	0.431019	-0.685858	0.123040	-0.573309
50883	-3.254522	-7.074647	-10.015513	-12.320074	2.139507	-7.697035	0.411741	-0.668961	0.106486	-0.609608
50884	-3.241948	-4.662641	-9.055511	-10.581224	1.452731	-10.156406	0.388652	-0.654984	0.092621	-0.641379
50885	-3.021423	-3.449305	-7.006067	-8.103231	1.651587	-11.112946	0.361247	-0.644075	0.083976	-0.669041
50886	-1.925629	-2.886580	-5.378332	-6.160749	1.486712	-10.698632	0.330547	-0.635521	0.080961	-0.693035
50887	-1.721427	-3.625159	-4.508007	-5.463869	2.520548	-10.263721	0.298970	-0.627328	0.082563	-0.714324
50888	-1.156528	-3.912035	-3.846251	-4.775588	2.934421	-9.754337	0.267988	-0.618522	0.087796	-0.733420
50889	-0.613635	-3.449569	-3.339188	-4.034557	2.661531	-9.579219	0.238510	-0.608787	0.096162	-0.750496
50890	-0.336786	-2.708257	-2.629940	-3.060503	2.225945	-9.620055	0.210335	-0.598422	0.108168	-0.765473
50891	-0.580486	-2.090237	-2.168788	-2.304513	2.010085	-10.045754	0.182477	-0.587925	0.124825	-0.778116
50892	-0.325163	-1.904921	-2.031089	-2.063235	1.895135	-9.898674	0.154188	-0.577477	0.147146	-0.788096
50893	-0.828338	-2.554531	-1.457175	-1.233259	2.793121	-9.899637	0.126211	-0.566869	0.174007	-0.795268
50894	-0.944606	-2.457800	-1.203535	-0.725025	2.799591	-9.926958	0.098959	-0.556165	0.205107	-0.799262
50895	-0.478708	-2.104875	-1.160143	-0.662104	2.350176	-9.612682	0.073536	-0.544730	0.240172	-0.800112
50896	0.232591	-1.816423	-0.693754	-0.390329	1.710784	-8.944692	0.050391	-0.532517	0.279858	-0.797224
50897	0.418274	-2.146399	-0.530113	-0.098372	1.820773	-8.495641	0.029200	-0.519764	0.325036	-0.789522
50898	0.903744	-4.063519	-1.008114	0.069306	3.248641	-7.024902	0.010896	-0.506422	0.374274	-0.776747
50899	0.895492	-6.158130	-1.518734	0.775205	4.767054	-5.609195	-0.001900	-0.491613	0.423362	-0.760971
50900	1.053911	-6.535778	-1.892760	0.935288	4.766469	-4.936561	-0.008873	-0.474618	0.470990	-0.743524
50901	0.884422	-7.232407	-1.927892	1.621797	4.727192	-4.175308	-0.011227	-0.455345	0.518097	-0.723954
50902	0.564649	-7.334360	-1.049585	2.649392	3.585036	-3.872825	-0.010731	-0.434415	0.566666	-0.700042
50903	-0.345301	-8.702413	-0.548490	4.369625	3.226073	-2.990012	-0.007479	-0.412130	0.617578	-0.669843
50904	-1.728403	-11.726265	-1.954590	6.251674	4.565794	-0.638316	-0.000812	-0.388104	0.668440	-0.634478
50905	-2.253544	-15.125051	-4.489960	7.264010	5.655699	3.182801	0.010468	-0.362232	0.715317	-0.597494
50906	-3.205568	-18.743812	-5.899142	9.124368	5.096365	7.117600	0.024360	-0.334810	0.757379	-0.560077
50907	-3.891122	-21.113186	-4.868951	10.880626	1.786707	9.225726	0.040580	-0.306297	0.792921	-0.525178
50908	-5.016279	-19.566228	-2.430145	11.487895	-1.558619	6.892543	0.056991	-0.277829	0.824407	-0.489812
50909	-6.303380	-20.776405	-3.226612	12.136202	-2.952622	8.224383	0.073889	-0.251653	0.851929	-0.453242
50910	-5.899718	-20.650408	-5.493696	10.247289	-3.537850	9.514302	0.091847	-0.228250	0.873050	-0.421011
50911	-4.862086	-17.598948	-7.129203	7.080459	-2.968502	8.215766	0.109656	-0.207582	0.888685	-0.393859
50912	-3.815072	-14.264453	-8.849035	3.977130	-1.588752	6.856633	0.126445	-0.189324	0.900365	-0.370824
50913	-3.073587	-9.576365	-10.099877	1.226932	0.971574	4.352203	0.141126	-0.173011	0.910078	-0.349153
50914	-1.650402	-5.923208	-10.812415	-1.398419	2.592411	2.270188	0.152428	-0.158620	0.919811	-0.324891
50915	1.672089	-6.242613	-11.591183	-4.785923	0.749124	2.540518	0.160056	-0.147561	0.930446	-0.294752
50916	2.217702	-12.428910	-11.399410	-4.165478	-5.280337	5.808339	0.165595	-0.141782	0.939259	-0.265081
50917	1.667129	-11.566635	-9.074006	-2.975086	-6.214364	3.279340	0.171957	-0.139034	0.943870	-0.245378
50918	0.880968	-7.238888	-9.363080	-3.215956	-2.644988	1.300115	0.179731	-0.139856	0.945828	-0.231399
50919	0.588948	-3.795464	-12.565100	-4.986917	1.330269	2.269809	0.188058	-0.142570	0.945848	-0.222891
50920	0.835951	0.305136	-13.580684	-6.560919	4.900289	1.057537	0.195978	-0.144636	0.945443	-0.216360
50921	1.450119	1.551605	-13.217575	-7.338460	5.396701	-0.002975	0.202755	-0.145042	0.946070	-0.206895
50922	1.961386	-0.379451	-13.085382	-7.465503	3.228472	0.630253	0.207759	-0.142409	0.947799	-0.195535
50923	1.335937	-5.126312	-12.210116	-5.695522	-1.279610	2.148429	0.210602	-0.137484	0.950031	-0.184896
50924	1.602732	-11.419757	-10.908082	-4.284765	-7.541518	3.481288	0.212024	-0.131295	0.951113	-0.182187
50925	1.128760	-11.772229	-9.662131	-3.408112	-7.992655	2.745603	0.212146	-0.124856	0.950299	-0.190624
50926	0.435761	-8.606369	-9.077024	-3.193300	-4.819325	1.287487	0.211001	-0.118902	0.947973	-0.206609
50927	-0.336024	-4.627112	-9.090765	-3.165676	-0.647567	-0.132352	0.209021	-0.112492	0.944606	-0.226660
50928	-0.858666	-1.318701	-9.464656	-3.269096	2.947442	-1.288168	0.206327	-0.104994	0.940991	-0.246862
50929	-1.419428	-0.917755	-9.898389	-2.943917	4.005563	-1.088420	0.202891	-0.097069	0.938010	-0.263724
50930	-1.409907	-2.267511	-10.082819	-2.858947	3.279709	-0.333603	0.198660	-0.088698	0.935440	-0.278603
50931	-1.684793	-3.824741	-10.232681	-2.517292	2.466655	0.663181	0.193705	-0.080166	0.932806	-0.293131
50932	-2.215018	-5.202685	-10.380130	-1.979755	1.925970	1.679871	0.188235	-0.071535	0.929312	-0.309564
50933	-2.847407	-6.102823	-9.874133	-1.127079	1.514458	1.988537	0.182181	-0.062977	0.924528	-0.328775
50934	-3.139913	-6.153170	-8.807679	-0.396755	1.378272	1.287779	0.175460	-0.054795	0.918585	-0.349874
50935	-2.676202	-5.419425	-7.346324	-0.218918	1.326859	-0.395680	0.167701	-0.047427	0.912646	-0.369736
50936	-1.805483	-5.796986	-6.054111	-0.538435	0.351306	-1.263059	0.159139	-0.040943	0.907552	-0.386455
50937	-1.706480	-6.321493	-4.928722	-0.232686	-0.552616	-1.639457	0.150377	-0.035232	0.903436	-0.399937
50938	-1.468490	-6.197384	-5.229324	-0.469637	-0.116765	-1.586294	0.141917	-0.030341	0.901260	-0.408251
50939	-0.795142	-7.269267	-6.083884	-1.331669	-0.211966	-0.396280	0.133719	-0.025108	0.901126	-0.411655
50940	0.993049	-7.788184	-6.767881	-3.171379	-0.246410	0.052728	0.124736	-0.017867	0.901702	-0.413587
50941	2.198798	-7.622193	-7.186454	-4.325099	0.107554	-0.022000	0.114283	-0.007725	0.902725	-0.414689
50942	2.782718	-9.195290	-7.358120	-4.955064	-0.730700	1.203192	0.102192	0.005386	0.903860	-0.415409
50943	2.838254	-11.166175	-7.677322	-5.156710	-1.580192	2.938195	0.087916	0.021203	0.903400	-0.419154
50944	2.788209	-11.497250	-7.697603	-5.038820	-1.430364	3.293069	0.071437	0.039062	0.900168	-0.427865
50945	2.927653	-11.738730	-6.972833	-5.013731	-1.613945	3.118336	0.053119	0.058013	0.893274	-0.442576
50946	3.680121	-12.079240	-6.635393	-5.622099	-1.312055	3.229024	0.032414	0.076485	0.882770	-0.462402
50947	5.200711	-12.341649	-6.675918	-6.875571	-0.304701	3.470885	0.008600	0.093740	0.868283	-0.487056
50948	6.551347	-12.496950	-5.979573	-7.849581	0.347114	3.339435	-0.018382	0.108618	0.852063	-0.511716
50949	8.371124	-14.824600	-6.458965	-9.302863	1.276232	5.782317	-0.048370	0.119449	0.835774	-0.533736
50950	10.882631	-15.829477	-5.507591	-11.189478	1.921632	6.625098	-0.081762	0.125738	0.819049	-0.553772
50951	13.399915	-16.367937	-4.185657	-12.893495	2.536632	7.275819	-0.118940	0.127022	0.802866	-0.570197
50952	15.533746	-18.759940	-2.820123	-14.049771	2.545989	10.108197	-0.160163	0.122502	0.784159	-0.586886
50953	17.529644	-19.467735	-1.596271	-14.401310	3.441338	11.840295	-0.206582	0.112147	0.759619	-0.606404
50954	18.875145	-20.519095	-0.990518	-13.201307	4.859080	14.256226	-0.256392	0.094810	0.727729	-0.629035
50955	18.416643	-20.825230	1.165584	-10.625906	4.594556	15.461303	-0.306897	0.068841	0.685145	-0.657002
50956	17.639689	-20.161900	1.840741	-6.922014	5.832537	15.435877	-0.352909	0.031473	0.630054	-0.691011
50957	18.969079	-12.828501	-0.184669	-6.958029	10.597145	9.235093	-0.388480	-0.016022	0.561033	-0.730800
50958	20.317015	-4.446110	-3.447807	-9.682515	14.779051	1.682890	-0.408131	-0.062946	0.487666	-0.769187
50959	16.847450	3.975163	-3.500254	-13.003605	11.343331	-6.059799	-0.407642	-0.098444	0.416277	-0.806753
50960	10.110989	7.076184	-1.703058	-11.690847	4.285706	-10.029664	-0.384474	-0.112982	0.356144	-0.844142
50961	-9.077656	3.743223	-1.271334	3.940479	-6.174725	-16.465488	-0.339977	-0.100628	0.305941	-0.883566
50962	-49.695390	-4.379161	-0.925371	42.137655	-22.290548	-24.360644	-0.279886	-0.057956	0.262278	-0.921691
50963	-90.544563	-22.844802	0.914539	90.088918	-23.279177	-16.477396	-0.214360	-0.020545	0.195897	-0.956688
50964	-65.272864	-28.550987	-5.230423	71.269016	2.814723	-13.231559	-0.169876	-0.029653	0.130733	-0.976305
50965	-15.679032	6.355727	-9.049425	12.300503	-8.824181	-21.598366	-0.168836	-0.042958	0.095311	-0.980084
50966	-9.055420	8.500825	-2.837457	5.199933	-10.267408	-15.273028	-0.192790	-0.048782	0.112615	-0.973535
50967	2.133790	0.550301	-2.636043	-2.303147	0.918621	-12.190955	-0.199274	-0.047889	0.113412	-0.972180
50968	7.086312	7.694285	3.167969	-9.361710	-5.021688	-7.245233	-0.187331	-0.038022	0.090018	-0.977424
50969	-3.357950	-1.560267	12.316033	4.049375	-1.897927	2.244536	-0.176449	-0.024769	0.080185	-0.980726
50970	-5.655139	-7.817145	13.943444	8.207636	3.240639	4.665686	-0.171738	-0.018271	0.069023	-0.982552
50971	-4.703565	-3.625380	13.733793	5.771728	-0.086399	3.991778	-0.172045	-0.015984	0.067990	-0.982610
50972	-3.507719	-5.162278	11.619648	5.097336	1.935961	2.197035	-0.175303	-0.014008	0.076586	-0.981431
50973	-2.290109	-5.820839	10.574399	4.139037	2.919207	1.380545	-0.178198	-0.012881	0.083419	-0.980368
50974	-2.139485	-3.723125	9.355364	3.246201	1.099322	-0.106264	-0.180565	-0.012342	0.087898	-0.979550
50975	-2.531920	-3.490056	7.901326	3.527468	0.898068	-1.580336	-0.183083	-0.011770	0.093012	-0.978617
50976	-2.790919	-3.655410	6.907834	3.822922	1.035502	-2.520129	-0.185633	-0.010769	0.099045	-0.977555
50977	-2.880562	-4.369068	6.943579	4.140081	1.531706	-2.321908	-0.188731	-0.008838	0.105808	-0.976272
50978	-4.035114	-5.987274	7.946530	5.759217	2.221788	-1.028079	-0.192822	-0.007135	0.112770	-0.974706
50979	-4.449284	-7.121341	9.310187	6.531909	2.606233	0.566500	-0.198671	-0.007574	0.118353	-0.972864
50980	-4.811459	-7.848125	10.531589	7.183153	2.596624	1.905231	-0.207866	-0.010828	0.123965	-0.970210
50981	-5.413464	-8.695038	11.421970	8.224891	2.560709	2.881717	-0.220756	-0.017031	0.129157	-0.966590
50982	-4.897913	-7.793057	11.851970	7.615656	1.492605	3.030309	-0.236463	-0.025420	0.134101	-0.962006
50983	-4.674041	-7.653335	12.530749	7.625973	0.822342	3.550553	-0.254409	-0.034683	0.141655	-0.956037
50984	-3.763879	-9.048117	13.760640	7.867375	1.523708	5.057798	-0.273150	-0.045700	0.147778	-0.949454
50985	-4.210676	-8.505174	14.387295	8.407127	0.181454	5.230858	-0.291882	-0.059422	0.148237	-0.943027
50986	-5.564036	-6.375202	14.772233	8.771573	-2.784369	4.508062	-0.310767	-0.075361	0.149371	-0.935646
50987	-5.969958	-5.852989	14.577045	9.122724	-3.935203	3.737833	-0.330871	-0.091596	0.157331	-0.925949
50988	-5.626043	-6.467743	14.029600	9.447259	-3.908959	3.059562	-0.352965	-0.106685	0.172257	-0.913434
50989	-4.790985	-7.660038	13.529241	9.766160	-3.365822	2.751515	-0.376178	-0.120893	0.190029	-0.898757
50990	-3.483526	-7.103038	12.560163	8.522666	-3.452658	1.836756	-0.398723	-0.135187	0.206076	-0.883333
50991	-1.705245	-4.975810	12.159693	5.841061	-4.174074	1.319933	-0.419687	-0.149444	0.220096	-0.867806
50992	0.970295	-2.429207	11.582594	2.248794	-4.112280	1.096250	-0.439315	-0.162684	0.234596	-0.851763
50993	4.474494	-1.464911	11.265258	-0.412700	-2.530696	2.123843	-0.457948	-0.175536	0.248251	-0.835369
50994	6.803738	-0.657781	11.277244	-2.067034	-1.671786	3.103082	-0.476140	-0.189163	0.256834	-0.819478
50995	5.126463	-0.516704	9.863569	-1.162698	-2.263227	1.020183	-0.492774	-0.205163	0.259081	-0.804959
50996	4.239608	1.758408	8.410040	-2.621265	-2.971988	-1.090133	-0.507209	-0.222978	0.257688	-0.791591
50997	2.903936	3.364456	8.030946	-3.378652	-4.287451	-2.433807	-0.520013	-0.239735	0.258350	-0.778055
50998	3.044940	3.643657	7.492679	-3.600136	-3.993327	-2.757269	-0.531576	-0.254342	0.262222	-0.764184
50999	3.199163	2.473738	5.674617	-2.637122	-2.391192	-3.822547	-0.541614	-0.267207	0.267128	-0.750931
51000	3.652117	0.964666	3.643924	-1.428000	-0.354006	-4.774846	-0.548172	-0.281562	0.268660	-0.740305
51001	5.299759	1.244155	2.581356	-2.065121	1.327508	-4.311089	-0.550358	-0.298133	0.266054	-0.733102
51002	6.595393	2.542271	1.980328	-3.502141	2.169067	-3.737474	-0.548837	-0.315787	0.258339	-0.729601
51003	6.669627	4.478903	1.722804	-5.251819	1.768132	-3.746539	-0.545748	-0.331427	0.249408	-0.728087
51004	7.004580	5.193464	1.695603	-5.853970	1.672411	-3.344273	-0.542216	-0.343822	0.241179	-0.727751
51005	7.434925	6.021833	2.049470	-6.512347	1.319622	-2.630388	-0.538244	-0.352805	0.234380	-0.728621
51006	8.306143	6.135946	1.677963	-6.795153	1.975896	-2.107006	-0.533492	-0.358221	0.229836	-0.730917
51007	7.534599	5.815351	2.140939	-6.213653	1.164728	-2.382671	-0.527681	-0.360542	0.226898	-0.734901
51008	6.492065	4.206759	2.637144	-4.390564	0.627409	-2.947789	-0.520291	-0.361501	0.224681	-0.740360
51009	5.245066	3.529897	4.064802	-3.095568	-0.974871	-3.033292	-0.511032	-0.362801	0.220475	-0.747404
51010	4.565195	3.334756	4.816552	-2.509252	-1.899068	-3.085312	-0.500888	-0.364505	0.215531	-0.754847
51011	4.249490	2.993665	4.476233	-2.198928	-1.770415	-3.560743	-0.490127	-0.366621	0.209855	-0.762447
51012	4.166330	3.917552	3.841526	-3.189423	-1.859418	-3.996146	-0.478649	-0.368742	0.203842	-0.770307
51013	3.144057	4.798334	3.464982	-3.781465	-2.713735	-4.990854	-0.466529	-0.369391	0.198805	-0.778702
51014	1.675904	4.145586	4.205157	-2.430488	-3.825269	-5.673010	-0.453326	-0.368083	0.196603	-0.787628
51015	0.963299	3.818118	5.448339	-1.353036	-4.935791	-5.454193	-0.437844	-0.365067	0.197770	-0.797437
51016	0.360403	4.326116	6.047437	-1.239327	-6.005956	-5.592878	-0.419001	-0.360321	0.201868	-0.808614
51017	-0.867409	5.714503	7.552895	-1.137183	-8.498327	-5.697794	-0.396609	-0.353768	0.209330	-0.820811
51018	0.245082	0.014791	2.134311	0.761228	-1.210292	-8.209169	-0.370340	-0.344931	0.217828	-0.834519
51019	-2.951865	5.698408	4.552070	-0.839308	-7.820003	-9.629729	-0.339706	-0.332571	0.224804	-0.850564
51020	-2.599719	2.063606	4.476530	1.904602	-5.163749	-8.941763	-0.305267	-0.317171	0.232207	-0.867349
51021	-4.329665	2.982834	6.239675	3.413649	-7.368752	-9.035667	-0.265962	-0.298489	0.237403	-0.885329
51022	-5.618526	2.910736	6.723696	5.022416	-7.730114	-9.333830	-0.221824	-0.276489	0.242994	-0.902941
51023	-7.411236	2.886202	6.879562	7.026475	-7.817737	-9.962737	-0.172846	-0.250241	0.250080	-0.919219
51024	-9.445634	3.046253	7.484569	9.512169	-7.987791	-10.128361	-0.118538	-0.219507	0.260091	-0.932801
51025	-12.219592	2.545415	7.678101	12.869315	-6.981254	-10.199184	-0.058515	-0.184235	0.274531	-0.941948
51026	-15.168198	1.095231	8.197663	16.589571	-4.677592	-8.843355	0.008479	-0.146004	0.291636	-0.945283
51027	-17.171798	-0.483053	8.219609	18.697792	-1.393434	-6.587582	0.083569	-0.104829	0.307103	-0.942186
51028	-21.134728	-4.416470	9.617944	21.566311	4.007511	-1.090945	0.166307	-0.060052	0.316310	-0.932032
51029	-24.272388	-8.590226	9.206839	20.699598	10.770054	4.358098	0.253061	-0.010799	0.317177	-0.913916
51030	-27.778765	-12.583802	8.997467	17.513872	17.020828	10.463941	0.337258	0.039262	0.321840	-0.883818
51031	-31.935631	-25.436354	12.303732	6.980276	24.545075	24.276742	0.412597	0.077921	0.338761	-0.841982
51032	-25.618787	-42.636552	11.375228	-16.735477	25.186864	31.224782	0.473093	0.100306	0.357065	-0.799141
51033	-11.746954	-49.482748	5.175654	-35.667101	17.194913	22.477302	0.515675	0.121333	0.362077	-0.766979
51034	-4.018200	-39.110235	4.246872	-32.706382	6.895904	11.296259	0.543035	0.145555	0.361440	-0.743833
51035	-0.461195	-31.173046	5.087467	-27.747548	0.738787	5.256477	0.560535	0.162488	0.365285	-0.725234
51036	-1.225227	-23.237704	7.546162	-20.127977	-2.484978	3.863351	0.570683	0.175282	0.370540	-0.711545
51037	-2.911131	-14.390021	9.280752	-11.209484	-3.921182	2.861216	0.576691	0.184112	0.375637	-0.701732
51038	-5.313969	-5.936183	10.146941	-2.472624	-3.775044	2.273073	0.582358	0.188461	0.381741	-0.692543
51039	-6.827546	-1.038156	10.609407	2.689645	-3.472142	2.059989	0.589677	0.187982	0.389835	-0.681889
51040	-7.251901	2.433775	10.367147	6.158505	-3.060561	1.082028	0.598398	0.184868	0.398660	-0.669936
51041	-7.730905	5.005321	10.841662	8.957377	-2.911248	0.847809	0.608694	0.180014	0.408038	-0.656195
51042	-8.958388	6.731180	11.613997	11.184241	-2.297364	1.592036	0.621538	0.173230	0.417641	-0.639733
51043	-9.481423	7.689126	11.949396	12.443949	-1.614877	1.776714	0.637548	0.161979	0.428946	-0.619113
51044	-10.201280	5.991383	12.497023	11.373946	-1.210937	3.042558	0.656005	0.145552	0.441851	-0.594340
51045	-10.363046	3.320224	14.076272	9.928873	-2.200266	4.784388	0.675768	0.124820	0.454284	-0.566907
51046	-10.973940	0.363482	14.800802	8.124777	-2.563439	6.526964	0.695854	0.101861	0.464164	-0.538482
51047	-11.971730	-1.869627	15.219590	6.891207	-2.388242	8.220838	0.716081	0.077182	0.470181	-0.510099
51048	-12.611797	-4.126289	14.273230	4.847852	-1.773017	8.978695	0.735972	0.049487	0.472771	-0.482062
51049	-13.053492	-5.310907	13.034523	3.430568	-0.718422	9.059351	0.754725	0.015473	0.473415	-0.453904
51050	-12.555349	-7.712197	10.420091	0.362145	-0.515671	8.221619	0.771051	-0.026879	0.472894	-0.425593
51051	-13.257695	-10.453440	7.920124	-2.896026	-0.172897	8.607125	0.783424	-0.076231	0.470655	-0.398648
51052	-14.341269	-13.320373	5.505732	-6.090899	-0.027430	9.584230	0.790881	-0.130478	0.465488	-0.375239
51053	-15.109896	-13.479024	3.873498	-7.170138	1.450546	9.458824	0.792894	-0.188398	0.457469	-0.355736
51054	-14.195102	-13.521812	0.665473	-9.115855	1.714811	7.468983	0.788272	-0.250681	0.447631	-0.339725
51055	-12.414443	-13.119224	-4.068586	-11.968834	0.919039	4.280773	0.776934	-0.313324	0.436310	-0.328381
51056	-10.822341	-13.567231	-8.341359	-14.734538	-0.902691	2.547880	0.760962	-0.369656	0.423177	-0.324365
51057	-10.087689	-13.782205	-10.645272	-16.133333	-1.677071	2.098367	0.742887	-0.415738	0.408072	-0.329785
51058	-10.195320	-13.315705	-11.249512	-16.547181	-0.793982	1.732687	0.726589	-0.447236	0.389819	-0.346540
51059	-11.043582	-11.596018	-13.267870	-18.608966	0.720164	-0.563887	0.712735	-0.466339	0.368381	-0.372602
51060	-11.373146	-9.090016	-15.829420	-20.748597	1.702137	-4.429465	0.698249	-0.477604	0.346343	-0.405450
51061	-11.954324	-7.394401	-14.587508	-19.585745	4.073869	-6.651882	0.679198	-0.486459	0.327081	-0.441663
51062	-11.888176	-8.346196	-12.775654	-18.140931	5.663750	-6.231031	0.654793	-0.495095	0.311802	-0.478441
51063	-10.915403	-8.431272	-11.672403	-16.629233	6.335626	-6.714286	0.626356	-0.501804	0.299412	-0.515967
51064	-9.552607	-7.969710	-9.954823	-14.210510	6.745642	-7.314136	0.595476	-0.504966	0.289174	-0.553892
51065	-8.406489	-7.115859	-7.259736	-10.786615	7.317976	-7.822182	0.563561	-0.503288	0.280136	-0.592135
51066	-7.953983	-4.942728	-4.402247	-6.746221	7.830847	-9.425110	0.530301	-0.497990	0.272647	-0.629643
51067	-6.686911	-3.184794	-3.081792	-4.175746	6.795270	-10.641073	0.495257	-0.489596	0.267727	-0.665836
51068	-6.230587	-1.527111	0.396209	0.245391	6.322819	-10.924252	0.458308	-0.479034	0.266278	-0.699697
51069	-6.750053	-2.826504	4.183553	3.851519	7.428195	-8.810999	0.422444	-0.467233	0.265080	-0.730046
51070	-5.667092	-2.691023	3.710194	3.759128	6.157050	-8.782640	0.389723	-0.453823	0.262529	-0.757125
51071	-7.655924	-2.821418	8.401109	8.860901	7.314694	-7.553703	0.362928	-0.439452	0.256149	-0.780739
51072	-9.452454	0.508704	14.213794	15.969910	5.715775	-7.840197	0.343118	-0.427681	0.246234	-0.799204
51073	-9.290490	3.585787	15.314563	18.012388	2.939832	-9.043830	0.326959	-0.422359	0.239155	-0.810873
51074	-8.135198	4.867131	13.543858	16.500052	0.972742	-10.122130	0.315306	-0.420812	0.239680	-0.816121
51075	-7.022567	5.168095	15.207166	17.498951	-0.596234	-8.976320	0.308164	-0.423663	0.249984	-0.814281
51076	-5.748096	3.621602	14.121608	15.578417	-0.502667	-8.194406	0.309010	-0.430001	0.266745	-0.805269
51077	-5.112297	2.659093	11.913841	13.188023	0.055402	-8.716558	0.320177	-0.438013	0.286983	-0.789476
51078	-5.355963	1.413503	9.827789	11.150880	1.617465	-9.272215	0.340812	-0.448126	0.312194	-0.765222
51079	-6.276715	-2.767474	6.697238	7.549795	5.570471	-7.845070	0.370850	-0.460457	0.340099	-0.731288
51080	-6.454047	-9.247892	2.515353	1.925368	9.493621	-3.520334	0.410469	-0.474592	0.363559	-0.688551
51081	-3.620517	-13.315927	-1.498395	-3.778674	8.109483	0.789016	0.456807	-0.489029	0.380177	-0.638470
51082	1.994728	-16.624610	-6.936084	-10.296040	2.046169	4.942979	0.502925	-0.503480	0.391001	-0.583689
51083	8.562368	-20.095747	-9.971989	-12.861951	-6.571288	9.346245	0.544460	-0.516762	0.397150	-0.528007
51084	15.169812	-26.351764	-12.152418	-13.192286	-15.842736	15.600898	0.581470	-0.525904	0.397374	-0.476877
51085	17.725959	-27.207556	-10.108824	-8.611770	-20.623968	15.803919	0.618074	-0.523227	0.390957	-0.437459
51086	16.911378	-24.275259	-6.876272	-3.920060	-20.669330	12.085262	0.649720	-0.515191	0.383066	-0.407065
51087	14.404263	-19.634977	-3.449091	0.002563	-17.614454	7.347860	0.669113	-0.512513	0.379392	-0.381680
51088	11.850433	-19.260365	-0.780709	2.341223	-14.614628	7.300224	0.675630	-0.519092	0.379943	-0.360154
51089	8.462529	-18.500357	1.714013	3.922087	-10.456907	7.276651	0.676140	-0.527542	0.381703	-0.344727
51090	5.103655	-17.473818	2.341107	3.434353	-7.016848	6.795316	0.677847	-0.530431	0.381802	-0.336741
51091	1.236048	-15.304578	2.650468	2.017942	-3.188680	5.304776	0.684045	-0.524553	0.379640	-0.335858
51092	-1.740712	-10.561441	3.475283	1.400714	0.599709	1.337221	0.692402	-0.512838	0.376913	-0.339873
51093	-3.792984	-7.266295	4.124493	1.090821	3.289030	-1.316360	0.696687	-0.504752	0.376015	-0.344189
51094	-4.296801	-7.451198	3.360246	0.121585	3.279955	-1.181280	0.695701	-0.502341	0.377651	-0.347898
51095	-4.424194	-8.156190	2.535302	-0.708304	2.865997	-0.657974	0.692699	-0.501193	0.380648	-0.352251
51096	-4.796103	-8.227198	1.720185	-1.571313	2.851293	-0.699540	0.690683	-0.497706	0.383722	-0.357777
51097	-4.530398	-7.927344	1.328669	-1.772860	2.525078	-1.117091	0.691088	-0.490241	0.386073	-0.364704
51098	-4.593278	-6.925202	1.876878	-1.228172	3.002046	-1.935000	0.693122	-0.480226	0.387855	-0.372201
51099	-5.235229	-6.355968	2.230000	-1.127859	3.798666	-2.257775	0.693834	-0.472649	0.390162	-0.378114
51100	-4.808619	-6.915685	1.676366	-1.536163	3.040670	-1.928894	0.692951	-0.468334	0.392798	-0.382350
51101	-4.596511	-8.124448	1.469428	-1.819104	2.450093	-0.869442	0.691308	-0.465597	0.395426	-0.385942
51102	-4.452670	-9.279482	1.058449	-2.329157	1.872819	0.093013	0.690662	-0.461526	0.397140	-0.390204
51103	-3.985276	-9.639169	0.807400	-2.520095	1.240929	0.264781	0.693012	-0.453017	0.396763	-0.396345
51104	-3.768224	-7.471008	2.232111	-0.883475	1.997813	-1.432822	0.698403	-0.439499	0.394589	-0.404194
51105	-3.070412	-4.913758	3.633334	1.061304	2.393504	-3.494754	0.703198	-0.427802	0.393163	-0.409781
51106	-2.135980	-4.801622	2.638086	0.436276	1.201854	-4.073204	0.706987	-0.418294	0.393329	-0.412906
51107	-1.287575	-4.267498	1.973743	0.216548	0.333924	-4.954089	0.710801	-0.409539	0.394922	-0.413613
51108	0.289700	-4.775232	1.084656	-0.226195	-1.584162	-5.175743	0.716402	-0.398487	0.396614	-0.413128
51109	1.725605	-5.147859	0.870345	-0.119744	-3.189148	-5.335308	0.724361	-0.381033	0.398182	-0.414205
51110	2.590045	-4.909835	2.962380	1.970392	-3.602375	-5.045689	0.733458	-0.359210	0.400173	-0.415776
51111	4.540691	-6.272606	3.008241	2.024175	-6.114703	-4.567337	0.740750	-0.336603	0.403889	-0.418164
51112	5.857020	-8.611692	2.164664	0.644863	-8.652252	-3.659919	0.744562	-0.316390	0.410221	-0.421003
51113	7.741615	-13.209343	1.120568	-1.754585	-12.723845	-1.406504	0.745190	-0.296365	0.417725	-0.427041
51114	9.494917	-16.165037	1.364627	-2.812349	-15.805523	-0.038812	0.742715	-0.274349	0.425807	-0.437945
51115	9.768604	-17.640386	3.153482	-2.710051	-16.836659	1.395487	0.736729	-0.250329	0.434054	-0.454052
51116	9.122302	-20.589166	3.851981	-4.701724	-17.687966	3.857327	0.726730	-0.229044	0.441621	-0.473680
51117	10.104865	-23.666777	3.730513	-7.489867	-19.697260	5.414350	0.712881	-0.209028	0.447842	-0.497540
51118	9.423809	-25.341987	2.816791	-10.765576	-19.049678	6.308588	0.695704	-0.188570	0.452258	-0.525262
51119	7.247961	-26.722058	2.978152	-13.159374	-16.633220	8.222590	0.675188	-0.166531	0.453681	-0.557281
51120	2.666523	-26.496876	3.959632	-13.688805	-11.280612	10.431649	0.650319	-0.143322	0.450840	-0.594380
51121	0.017728	-25.402435	6.069472	-12.470689	-7.627026	11.821043	0.621481	-0.121320	0.443074	-0.634609
51122	-4.073851	-26.587399	5.583048	-14.029453	-1.790075	13.724134	0.589250	-0.092642	0.425819	-0.680353
51123	-7.872235	-25.749444	7.459638	-12.103521	3.309794	15.137494	0.552829	-0.064025	0.400793	-0.727768
51124	-12.555701	-20.863753	11.637133	-4.899642	7.217987	15.718989	0.515004	-0.039653	0.370163	-0.772126
51125	-14.566745	-18.684102	12.592816	-1.838678	9.940437	15.033101	0.476963	-0.026544	0.337086	-0.811279
51126	-14.061867	-14.554122	10.457765	0.697578	11.099589	10.060252	0.439304	-0.019353	0.297740	-0.847342
51127	-13.826647	-9.654908	8.549398	4.204239	11.003765	4.970451	0.404406	-0.018037	0.254395	-0.878302
51128	-12.890684	-5.714430	8.974014	6.977987	8.832514	2.538708	0.374213	-0.021735	0.210807	-0.902803
51129	-12.295069	-3.558219	9.012386	8.374717	7.639987	0.980169	0.350485	-0.029850	0.170259	-0.920479
51130	-12.140709	-1.686194	8.367784	9.626397	6.865796	-0.845442	0.333707	-0.041955	0.136122	-0.931853
51131	-11.871698	-0.822528	7.245769	9.994129	6.623896	-2.718845	0.322720	-0.057094	0.109065	-0.938455
51132	-11.409762	0.562084	6.136013	10.431219	5.685379	-4.617188	0.316472	-0.072713	0.087384	-0.941766
51133	-11.090520	1.861512	5.812651	10.978522	4.693701	-5.608280	0.314128	-0.087774	0.069986	-0.942720
51134	-10.659128	3.342008	5.961564	11.586604	3.444146	-6.044110	0.314726	-0.101798	0.054681	-0.942122
51135	-10.149302	5.342381	6.121466	12.426816	1.772758	-6.430075	0.317933	-0.114976	0.040614	-0.940239
51136	-9.485655	5.282684	5.457236	11.743797	1.681650	-7.183831	0.323136	-0.127204	0.027189	-0.937370
51137	-9.505533	5.224578	5.280027	11.674073	2.024875	-7.546547	0.330357	-0.136766	0.011372	-0.933826
51138	-10.123521	6.133507	5.601694	12.739602	2.083002	-7.614236	0.339858	-0.143452	-0.007365	-0.929443
51139	-10.285591	6.829899	5.648089	13.248580	2.109543	-7.728100	0.351587	-0.147975	-0.028379	-0.923951
51140	-9.778546	6.515728	5.699426	12.603344	2.548954	-7.534303	0.364811	-0.151164	-0.051249	-0.917298
51141	-8.308384	6.579582	5.543919	11.495640	2.048457	-7.227249	0.378787	-0.154004	-0.073633	-0.909605
51142	-7.430611	5.530587	5.030007	9.948791	2.566581	-7.463641	0.393025	-0.157367	-0.092933	-0.901183
51143	-6.217733	3.162420	4.234597	7.132679	3.501581	-7.956663	0.408139	-0.160347	-0.110281	-0.891936
51144	-4.334935	0.768567	4.069546	3.951192	3.959692	-7.657474	0.424745	-0.161316	-0.126317	-0.881824
51145	-1.699070	-2.610964	4.102629	-0.451763	4.282824	-6.986935	0.442513	-0.161822	-0.139363	-0.870961
51146	5.013011	-7.518718	2.453427	-8.570827	1.387537	-6.307836	0.462766	-0.162681	-0.144885	-0.859297
51147	7.083174	-12.283825	3.656337	-13.510789	2.302916	-4.661088	0.485334	-0.166926	-0.139601	-0.846816
51148	9.516649	-17.282621	4.173076	-18.838719	2.337073	-3.014972	0.503812	-0.176420	-0.125428	-0.836252
51149	12.291947	-17.843215	4.261951	-20.256283	-0.239079	-1.027437	0.515443	-0.186582	-0.110436	-0.829041
51150	13.074503	-17.003350	7.378739	-18.958545	-0.535168	2.627957	0.523308	-0.189857	-0.106120	-0.823918
51151	12.716106	-14.049667	11.344839	-15.286638	-0.300998	6.125425	0.527792	-0.188682	-0.107470	-0.821148
51152	10.204173	-8.997819	13.772089	-9.336739	0.475407	7.138866	0.526899	-0.186618	-0.107303	-0.822215
51153	5.824706	-4.458759	16.432253	-3.104704	3.138318	7.632601	0.521512	-0.184493	-0.104333	-0.826500
51154	1.152648	-0.322338	18.628724	2.838036	5.886227	7.673226	0.515602	-0.180584	-0.102006	-0.831348
51155	-2.557667	2.196606	17.548447	6.308098	7.290311	5.232947	0.510777	-0.175178	-0.103082	-0.835341
51156	-3.078066	5.187516	13.882495	8.406327	4.977997	1.748436	0.506697	-0.170460	-0.105439	-0.838501
51157	-1.572391	7.941159	11.321307	9.670732	1.517877	0.080668	0.504376	-0.167603	-0.106245	-0.840373
51158	-0.804802	9.896407	10.307280	10.864933	-0.405626	-0.505955	0.506004	-0.166660	-0.104518	-0.839798
51159	0.149863	11.095739	9.282015	11.404218	-2.085209	-1.159022	0.511721	-0.168523	-0.098025	-0.836739
51160	1.021208	11.508496	9.102352	11.580880	-3.054132	-1.275951	0.519812	-0.175178	-0.083150	-0.831982
51161	0.793953	9.459187	11.690075	10.761999	-1.228887	0.645978	0.528610	-0.187228	-0.060008	-0.825782
51162	0.915320	5.441021	14.961106	8.523292	1.171303	3.610989	0.538512	-0.202196	-0.035874	-0.817211
51163	0.903159	2.319921	18.364821	7.436163	3.232440	6.850606	0.550170	-0.216404	-0.017711	-0.806330
51164	0.992605	0.281485	20.894551	7.122046	4.583855	9.314871	0.562421	-0.231418	-0.005774	-0.793785
51165	1.231889	-2.676870	21.893936	5.428464	5.884868	10.775731	0.574408	-0.248292	-0.000206	-0.780004
51166	2.051258	-5.120666	22.072026	3.683907	6.423740	11.698240	0.585913	-0.266341	-0.002051	-0.765352
51167	2.529295	-7.053028	21.856621	2.189369	7.168393	12.041623	0.596700	-0.285974	-0.010749	-0.749701
51168	2.526088	-8.543395	20.204059	0.452692	7.842244	10.821864	0.605712	-0.308689	-0.024541	-0.732954
51169	2.161729	-8.892236	16.971256	-0.952672	7.828750	7.779607	0.611427	-0.334962	-0.040358	-0.715772
51170	1.925930	-8.528925	12.542730	-2.204662	6.696320	3.752062	0.611225	-0.367167	-0.053680	-0.699078
51171	1.679598	-9.514293	8.521390	-4.426338	5.760183	0.823055	0.602635	-0.406672	-0.062278	-0.683791
51172	2.392716	-13.456140	3.657332	-9.629912	4.166853	-0.326077	0.587888	-0.448848	-0.070798	-0.669262
51173	3.294880	-14.778242	0.802208	-11.670947	2.854857	-0.567573	0.571506	-0.485354	-0.083750	-0.656352
51174	2.711717	-14.484625	-1.508181	-12.422663	2.286389	-2.077029	0.552771	-0.517368	-0.099711	-0.645626
51175	1.952027	-13.216583	-4.118306	-12.757637	1.046878	-4.194359	0.530389	-0.546171	-0.116748	-0.637773
51176	0.546057	-11.325704	-7.853517	-13.515049	-1.129442	-7.306352	0.500929	-0.574578	-0.131172	-0.633817
51177	-0.693317	-7.949874	-12.160243	-13.729623	-4.728247	-10.606874	0.462781	-0.602624	-0.139907	-0.634905
51178	-1.707720	-7.381397	-17.573705	-17.249129	-7.892851	-12.318627	0.420413	-0.627330	-0.145024	-0.639280
51179	-0.211521	-7.428030	-18.734272	-18.283403	-8.443359	-10.556187	0.385744	-0.639963	-0.153549	-0.646585
51180	-0.427651	-5.042102	-17.978758	-16.397233	-8.831411	-11.212734	0.359757	-0.641845	-0.164006	-0.657047
51181	-1.059123	-3.621501	-15.528452	-13.855259	-7.641901	-12.046078	0.339410	-0.635841	-0.173138	-0.671216
51182	-2.031590	-3.247008	-12.052946	-11.122872	-5.109888	-12.989377	0.321045	-0.624230	-0.177902	-0.689651
51183	-2.644661	-1.627325	-9.207116	-7.873377	-4.041972	-13.820686	0.301476	-0.609096	-0.175897	-0.712162
51184	-3.098655	-1.259366	-7.353998	-6.102202	-2.749417	-14.334685	0.279379	-0.591194	-0.165579	-0.738255
51185	-3.498742	-2.181636	-5.845107	-5.240509	-0.682691	-14.630095	0.257690	-0.569491	-0.149525	-0.766106
51186	-3.963353	-0.972253	-4.822898	-3.349684	-0.641035	-15.128378	0.238390	-0.543374	-0.127759	-0.794728
51187	-4.816642	-0.031802	-3.647596	-1.318954	-0.317065	-15.698429	0.220664	-0.514500	-0.098965	-0.822681
51188	-6.042250	-3.142911	-1.275545	0.082236	4.021195	-15.451171	0.205751	-0.484777	-0.065819	-0.847541
51189	-5.658114	-7.174381	1.931706	1.394377	8.773464	-12.682984	0.196351	-0.454611	-0.035367	-0.868057
51190	-4.463014	-5.177889	7.030157	5.895487	7.677109	-8.266828	0.190965	-0.424038	-0.005383	-0.885266
51191	-4.152920	-2.263757	12.373770	10.826903	5.180241	-4.218116	0.186117	-0.398129	0.032497	-0.897662
51192	-2.969582	-3.050076	14.756252	11.574410	4.605785	-0.839940	0.182533	-0.377799	0.077269	-0.904422
51193	-2.187322	-5.895198	15.643836	10.947282	5.547937	1.738679	0.181786	-0.362081	0.123648	-0.905849
51194	-2.167291	-8.606683	17.022179	11.336261	6.350156	4.310142	0.183799	-0.349499	0.167743	-0.903289
51195	-2.219256	-10.607968	18.623371	12.169604	6.263450	6.822157	0.188410	-0.340166	0.207866	-0.897542
51196	-1.072370	-10.233554	20.745330	13.044102	3.284948	9.031205	0.194778	-0.334280	0.244225	-0.889198
51197	0.615263	-10.662811	19.145888	10.912086	1.688983	9.121552	0.201062	-0.332239	0.281044	-0.877614
51198	1.688006	-10.775811	16.237009	8.452062	0.732311	7.806738	0.207639	-0.331373	0.318963	-0.863331
51199	2.749532	-12.767056	14.470626	6.552309	0.764347	8.523776	0.215512	-0.331093	0.357489	-0.846247
51200	3.746331	-14.549407	13.101509	4.994949	0.424452	9.475674	0.226417	-0.328456	0.392093	-0.828924
51201	4.403334	-14.549152	11.300678	3.413542	-0.503905	8.807834	0.240714	-0.322875	0.420590	-0.812965
51202	4.403950	-13.901616	9.446541	2.154898	-1.076326	7.391448	0.256187	-0.315759	0.444999	-0.797898
51203	4.873396	-12.912038	7.855813	0.781188	-2.032256	5.915175	0.270693	-0.309305	0.467462	-0.782646
51204	5.661351	-13.210101	7.364971	-0.117240	-3.129223	6.027854	0.284105	-0.304946	0.487958	-0.766935
51205	6.121707	-14.800543	6.321812	-1.362186	-3.166829	7.055927	0.298100	-0.301847	0.503933	-0.752381
51206	6.613863	-15.152011	5.387837	-2.465275	-3.639888	7.009604	0.315047	-0.297848	0.512149	-0.741441
51207	6.407203	-14.082037	5.308983	-2.395328	-4.277521	5.791308	0.334654	-0.292775	0.512829	-0.734368
51208	6.843639	-11.810415	5.700453	-2.124209	-5.763069	3.643939	0.354667	-0.288438	0.509657	-0.728879
51209	7.359416	-10.918848	5.913284	-2.155038	-6.754410	2.760181	0.372349	-0.287242	0.506721	-0.722552
51210	7.831443	-10.964580	5.939392	-2.361125	-7.370222	2.714448	0.386078	-0.289670	0.505312	-0.715329
51211	7.974544	-12.318509	5.389810	-3.093499	-7.141799	3.744945	0.396209	-0.294234	0.503712	-0.709027
51212	7.380220	-13.006465	5.741363	-2.554645	-6.770292	4.478397	0.403811	-0.298865	0.499325	-0.705897
51213	6.752137	-12.198936	6.984633	-0.922352	-6.892422	4.145549	0.409570	-0.303499	0.492092	-0.705682
51214	6.281315	-11.005186	7.584389	0.213205	-6.805725	3.291666	0.412780	-0.310044	0.484664	-0.706106
51215	6.337820	-10.934666	6.520931	-0.561815	-6.208808	2.969569	0.413291	-0.318395	0.477614	-0.706895
51216	5.923406	-10.971250	5.240164	-1.320682	-5.080329	2.651397	0.411980	-0.327408	0.470504	-0.708309
51217	5.793494	-10.442080	4.606420	-1.532188	-4.592522	2.035327	0.410219	-0.335634	0.462679	-0.710632
51218	5.283578	-10.940621	4.543500	-1.416568	-3.747380	2.524287	0.408932	-0.342881	0.453986	-0.713515
51219	4.319283	-11.665527	4.668024	-1.064154	-2.471339	3.198230	0.408598	-0.348842	0.443656	-0.717305
51220	3.861549	-10.184431	5.277789	0.062684	-2.396589	2.050498	0.408345	-0.354830	0.433178	-0.720907
51221	3.363893	-8.735905	6.359827	1.649060	-2.472539	1.107042	0.406910	-0.362928	0.424494	-0.722850
51222	3.946947	-7.434802	6.957796	2.433287	-3.357224	0.290129	0.402667	-0.374534	0.419752	-0.722075
51223	4.624785	-7.501435	6.381340	1.893664	-3.577887	0.286036	0.395835	-0.389106	0.418727	-0.718735
51224	4.916787	-8.581769	4.506323	0.200409	-2.771337	0.694144	0.387568	-0.405628	0.420351	-0.713135
51225	4.263113	-11.413698	2.540236	-1.532895	-0.505930	2.527397	0.380728	-0.421316	0.420829	-0.707419
51226	2.757594	-13.718347	2.581494	-1.106784	1.823302	4.255246	0.380068	-0.431913	0.414236	-0.705272
51227	1.268522	-12.897732	3.856277	0.706092	2.773043	3.402206	0.385648	-0.437429	0.400165	-0.706965
51228	1.190364	-10.938662	3.269662	0.355429	2.500748	1.384227	0.393665	-0.441072	0.383131	-0.709714
51229	2.130972	-9.979702	1.347460	-1.734269	1.873453	0.158608	0.401056	-0.444102	0.366262	-0.712587
51230	3.084659	-8.213543	0.428167	-2.579405	0.589140	-1.436628	0.405681	-0.447576	0.352972	-0.714499
51231	2.816181	-7.902037	1.236409	-1.726142	0.685826	-1.539170	0.406660	-0.453082	0.345316	-0.714213
51232	1.918522	-11.612053	0.796738	-2.894622	3.244779	1.153026	0.406946	-0.459147	0.339170	-0.713121
51233	1.677914	-13.227518	-0.471003	-4.522701	4.427147	1.932343	0.409569	-0.462004	0.328468	-0.714783
51234	1.618501	-12.457629	-2.550246	-6.422980	4.444585	0.350831	0.413232	-0.462186	0.313954	-0.719066
51235	1.739330	-11.034353	-4.159765	-7.751234	3.894623	-1.638112	0.416250	-0.460204	0.297411	-0.725599
51236	0.053094	-10.645427	-4.365221	-7.624499	5.311188	-3.028081	0.415195	-0.458898	0.282866	-0.732811
51237	-1.681421	-10.686523	-4.675614	-7.594763	7.013800	-4.155147	0.408020	-0.459907	0.272760	-0.740005
51238	-2.585874	-11.476288	-5.904960	-8.701763	8.475807	-4.744505	0.395901	-0.461520	0.265838	-0.748058
51239	-4.222790	-10.877253	-5.881147	-7.873088	9.809137	-6.275801	0.381219	-0.461076	0.259236	-0.758207
51240	-6.133604	-9.216539	-5.152912	-5.858778	10.633279	-8.507582	0.365385	-0.457548	0.252153	-0.770430
51241	-8.314561	-6.711537	-3.763173	-2.756707	10.902240	-11.175527	0.347872	-0.452206	0.246812	-0.783313
51242	-10.194914	-4.271497	-1.559898	1.057752	10.606392	-13.126006	0.328013	-0.447434	0.246165	-0.794741
51243	-11.646288	-2.468652	1.685452	5.441477	9.962059	-13.774210	0.306859	-0.444948	0.251018	-0.803025
51244	-13.568959	-0.784343	3.731341	8.856749	9.567142	-15.165966	0.286840	-0.446267	0.260532	-0.806654
51245	-15.542006	0.105123	4.014772	10.416717	9.894641	-16.971889	0.269842	-0.451875	0.272868	-0.805318
51246	-17.542396	1.482955	3.815255	11.427804	10.016276	-19.484833	0.252002	-0.464115	0.293639	-0.796786
51247	-21.033794	0.251013	4.135353	12.886052	12.962267	-21.014526	0.233122	-0.483315	0.325491	-0.778535
51248	-20.413005	0.289805	5.534635	13.370910	12.138910	-20.821314	0.216534	-0.509914	0.366347	-0.747590
51249	-19.747970	2.348344	8.698797	14.870126	9.750029	-22.249083	0.204072	-0.544274	0.417837	-0.698236
51250	-22.572987	2.506778	5.916696	11.160799	14.005206	-24.954812	0.196577	-0.589191	0.478629	-0.620585
51251	-31.425874	-1.765864	-15.129033	-7.821443	32.457851	-19.809822	0.190903	-0.647553	0.537738	-0.505043
51252	-23.467504	1.616346	-43.300795	-35.676436	30.962310	3.517393	0.186703	-0.711371	0.571355	-0.364208
51253	4.734239	10.929041	-64.869889	-48.360692	-2.967901	34.482753	0.164501	-0.772742	0.576068	-0.209656
51254	20.635405	-5.580764	-72.230416	-16.653909	-23.133629	59.575809	0.127023	-0.820206	0.553913	-0.065631
51255	21.779924	-28.305449	-62.825053	21.983079	-20.648070	55.792275	0.142602	-0.844690	0.515844	0.008254
51256	19.539497	-4.553964	-50.808560	5.060489	-30.603021	35.104806	0.219049	-0.844762	0.488092	0.012695
51257	21.170768	18.780062	-34.326826	-11.418746	-39.411071	7.325645	0.272937	-0.838010	0.472333	0.012096
51258	20.812369	14.204740	-20.906971	-4.271726	-31.986532	-4.288361	0.270929	-0.843233	0.463133	0.032609
51259	17.021826	-10.622707	-15.550854	15.560698	-15.795304	2.542515	0.251382	-0.849836	0.460138	0.053478
51260	9.759335	-23.094123	-9.300834	22.805268	-1.646704	4.053553	0.259320	-0.846090	0.463117	0.049074
51261	4.381851	-21.658413	-2.382080	19.376985	4.626437	0.031237	0.285404	-0.838932	0.462507	0.028727
51262	-0.772176	-7.942228	1.401154	6.081980	4.522344	-6.952019	0.302920	-0.837866	0.453945	0.012407
51263	-2.049586	-1.343678	-3.863640	-1.212789	0.084013	-5.401867	0.305574	-0.843285	0.442107	0.006093
51264	-2.992915	-3.350452	-6.194341	-0.978772	0.446177	-2.236730	0.302674	-0.849558	0.432005	0.003483
51265	-1.622962	-4.539136	-6.684147	0.521481	-0.244241	-1.591838	0.305508	-0.851835	0.425480	-0.002833
51266	-1.192288	-2.449839	-7.244329	-1.041588	-1.813046	-2.361040	0.315757	-0.849705	0.422049	-0.013196
51267	-1.780605	0.167016	-7.117579	-3.425424	-2.538989	-3.839841	0.325870	-0.846410	0.420603	-0.022174
51268	-1.776630	0.558604	-7.731692	-4.012830	-3.075553	-3.673904	0.331083	-0.844471	0.420179	-0.026504
51269	-0.479988	-1.096284	-8.303073	-2.258953	-3.627169	-2.593684	0.330167	-0.844324	0.421204	-0.026351
51270	0.437259	-3.718123	-9.430741	-0.190642	-3.756820	-0.389095	0.326846	-0.844198	0.424128	-0.024848
51271	0.111924	-5.876778	-10.365716	0.847972	-3.063275	1.671837	0.324497	-0.842684	0.428905	-0.025029
51272	-1.131807	-6.795118	-9.825275	0.874126	-1.462037	2.065392	0.324527	-0.839633	0.434600	-0.028667
51273	-2.855221	-6.781070	-8.394663	0.211892	0.572578	1.333271	0.325184	-0.836397	0.439892	-0.034512
51274	-3.450737	-8.400798	-6.088614	1.747210	2.870449	0.592112	0.325146	-0.834523	0.443021	-0.039802
51275	-3.346256	-7.954195	-5.454833	1.684891	2.965217	-0.190304	0.323746	-0.834726	0.443390	-0.042739
51276	-2.999604	-7.108720	-5.633370	1.227308	2.337928	-0.631538	0.319425	-0.836910	0.442418	-0.042613
51277	-2.958506	-6.770940	-6.203451	0.840845	1.971842	-0.406030	0.314664	-0.838923	0.442055	-0.042222
51278	-2.643969	-5.800368	-5.922719	0.469147	1.536009	-1.260860	0.311703	-0.839070	0.443782	-0.043139
51279	-2.828075	-5.065073	-5.525482	-0.000063	1.605795	-1.963790	0.309539	-0.837499	0.448112	-0.044462
51280	-3.250288	-5.677452	-4.929343	0.446298	2.486729	-2.020833	0.307823	-0.834625	0.454426	-0.046294
51281	-3.226425	-6.469361	-4.329634	1.306129	3.066176	-2.073144	0.306551	-0.831295	0.461061	-0.048971
51282	-2.802367	-6.992063	-4.135389	2.043540	3.012460	-2.028562	0.305502	-0.828412	0.466528	-0.052481
51283	-2.407406	-7.284053	-4.088436	2.508445	2.820573	-1.981952	0.304985	-0.826249	0.470177	-0.056832
51284	-2.634568	-7.863223	-4.681115	2.553761	2.948978	-1.125593	0.306214	-0.824131	0.472364	-0.062552
51285	-2.542493	-8.634561	-5.742773	2.650790	2.655978	0.183122	0.310977	-0.820962	0.473620	-0.070707
51286	-2.030222	-9.779367	-6.504844	3.255318	2.238177	1.432680	0.318138	-0.816921	0.474249	-0.080725
51287	-1.541055	-11.135985	-6.930076	4.029625	2.009993	2.601895	0.326819	-0.812002	0.474654	-0.092445
51288	-0.373909	-12.321060	-6.928333	5.154953	1.305909	3.289139	0.334858	-0.806612	0.475689	-0.104722
51289	1.538197	-15.265270	-8.002884	7.274976	0.003508	5.887324	0.342980	-0.799801	0.478213	-0.118302
51290	3.547438	-17.942483	-10.612815	8.154499	-2.311020	9.558501	0.353863	-0.789699	0.482504	-0.135450
51291	4.950317	-19.514757	-13.555685	7.172434	-4.829699	12.861549	0.370100	-0.774016	0.488483	-0.159093
51292	6.242003	-18.105478	-14.794829	4.494186	-7.446882	12.763316	0.388988	-0.752606	0.496250	-0.189761
51293	6.081644	-15.438604	-14.268692	1.276666	-8.111866	10.464941	0.404659	-0.727405	0.506405	-0.225137
51294	4.888185	-13.670364	-12.367123	-0.516621	-6.750793	8.010552	0.412132	-0.701887	0.518502	-0.262023
51295	4.065145	-12.119376	-8.796570	-0.092368	-4.952912	4.888805	0.411376	-0.678029	0.530923	-0.298608
51296	5.240450	-14.121107	-7.492152	1.100585	-5.341567	6.097503	0.405361	-0.655557	0.541338	-0.335977
51297	7.581080	-13.745670	-8.895894	-1.269610	-7.473958	6.552799	0.401366	-0.630143	0.545236	-0.380188
51298	7.524198	-11.530125	-11.687622	-6.389530	-7.069540	5.517240	0.399729	-0.601952	0.541728	-0.429421
51299	6.564554	-9.231017	-13.738164	-10.752184	-5.266197	3.352710	0.398954	-0.572312	0.531785	-0.480104
51300	4.672861	-7.623018	-14.299142	-12.921618	-2.366382	0.748632	0.396957	-0.544288	0.517592	-0.527517
51301	2.735308	-7.960511	-13.006656	-12.334974	0.506925	-0.464165	0.393769	-0.518895	0.500384	-0.570359
51302	0.338737	-9.016049	-11.536807	-11.098950	3.702387	-1.013193	0.389440	-0.496147	0.480191	-0.609583
51303	-1.547461	-8.690554	-10.583498	-10.234271	5.993799	-2.804819	0.385436	-0.474602	0.455681	-0.646952
51304	-2.896654	-6.705343	-9.963751	-9.388437	7.090252	-6.056684	0.381087	-0.455669	0.430037	-0.679858
51305	-3.456212	-4.978745	-8.446839	-7.581650	6.971065	-8.416649	0.375822	-0.439468	0.406717	-0.707253
51306	-4.430124	-4.853820	-6.583930	-5.408201	7.518728	-8.959717	0.366932	-0.427858	0.389735	-0.728289
51307	-4.430820	-6.273433	-5.839184	-4.869172	8.113832	-7.936434	0.354538	-0.419632	0.376887	-0.745767
51308	-4.177078	-5.681277	-3.805279	-2.864544	7.255500	-7.983905	0.340061	-0.413408	0.365486	-0.761493
51309	-3.819422	-5.363409	-2.014800	-1.219516	6.436118	-7.692608	0.324420	-0.408537	0.355271	-0.775649
51310	-3.458765	-3.983419	-0.983373	-0.054237	5.189158	-8.447575	0.308617	-0.404809	0.347299	-0.787571
51311	-2.337257	-2.503469	-0.545072	0.196455	3.384585	-9.083345	0.293076	-0.402211	0.343135	-0.796612
51312	-1.494222	-1.582476	-0.130334	0.373821	2.086778	-9.303635	0.278145	-0.400529	0.344225	-0.802322
51313	-0.950913	-2.046170	0.255981	0.389996	1.844414	-8.546860	0.265370	-0.398859	0.349297	-0.805283
51314	-0.629311	-2.447083	0.815355	0.667968	1.652776	-7.845203	0.256461	-0.395263	0.355964	-0.807022
51315	-0.290336	-2.356383	1.026244	0.692608	1.252440	-7.658262	0.252061	-0.389031	0.363656	-0.808006
51316	-0.231335	-2.377978	1.654260	1.166343	0.928432	-7.318272	0.252094	-0.380177	0.372768	-0.808058
51317	-0.424525	-1.913962	2.909518	2.320873	0.185990	-7.188445	0.255511	-0.369075	0.385006	-0.806392
51318	-0.911315	-2.013225	3.947102	3.388075	-0.001188	-6.815740	0.260892	-0.357341	0.402782	-0.801255
51319	-1.271292	-3.532931	4.140796	3.531638	0.769869	-5.549768	0.267815	-0.345241	0.425121	-0.792689
51320	-1.337974	-5.504406	4.208089	3.327093	1.438957	-3.759346	0.276963	-0.331646	0.448317	-0.782505
51321	-1.280718	-7.215356	4.196164	2.950872	1.746120	-2.097015	0.289178	-0.315096	0.468713	-0.772916
51322	-1.564583	-8.249263	4.327011	2.847995	1.836407	-0.997392	0.305360	-0.294044	0.483474	-0.765863
51323	-1.613474	-7.217401	4.575950	2.888482	0.964728	-1.668368	0.325431	-0.267479	0.492255	-0.761731
51324	-2.476437	-5.470316	6.109549	4.540084	-0.143010	-2.551773	0.347179	-0.237881	0.499607	-0.757148
51325	-5.050712	-5.793229	8.689308	7.488202	-0.015082	-0.955214	0.368403	-0.209814	0.510728	-0.747940
51326	-5.249384	-6.545888	9.329536	7.391980	-0.619648	0.305401	0.387819	-0.186642	0.527128	-0.732733
51327	-4.803585	-7.888212	6.361502	4.259873	0.477455	0.548126	0.406801	-0.166259	0.545364	-0.713757
51328	-5.216436	-8.773788	3.844308	2.108274	1.807338	0.732598	0.427180	-0.144757	0.561302	-0.693904
51329	-5.822671	-9.140398	3.664445	1.732104	1.691399	1.365440	0.449706	-0.119589	0.572543	-0.675024
51330	-6.487858	-8.364410	5.006874	2.789925	0.655489	1.537914	0.474066	-0.090674	0.579298	-0.656851
51331	-8.337752	-8.652434	6.616949	3.976443	0.176172	3.310560	0.499210	-0.060740	0.583556	-0.637623
51332	-10.423950	-10.666328	6.684800	3.032146	0.437365	6.236826	0.523444	-0.032540	0.586217	-0.617493
51333	-9.871715	-9.872169	5.163011	1.412448	0.466962	4.994495	0.545181	-0.008174	0.589014	-0.596468
51334	-10.276361	-9.909979	2.862550	-0.642873	1.532369	4.649592	0.564423	0.011720	0.593381	-0.573750
51335	-10.864287	-10.805973	2.091162	-2.128943	1.310559	5.446310	0.581772	0.028639	0.598348	-0.550183
51336	-11.878925	-11.949329	2.723734	-2.733221	0.164208	7.031349	0.597447	0.045558	0.601770	-0.528067
51337	-12.827102	-13.393790	3.860969	-3.311092	-1.572358	8.769682	0.611401	0.062600	0.602281	-0.509439
51338	-11.564029	-13.291909	3.785269	-4.197508	-2.882314	7.471484	0.622605	0.078396	0.600518	-0.495575
51339	-10.481630	-12.285276	2.966979	-4.722469	-2.872472	5.647450	0.630281	0.090575	0.598516	-0.486128
51340	-9.885224	-10.677086	3.437676	-3.638120	-2.988942	4.377376	0.635083	0.096862	0.598056	-0.479184
51341	-9.084876	-9.442459	4.098340	-2.534650	-3.384776	3.249036	0.638143	0.097078	0.599531	-0.473193
51342	-7.902878	-8.473814	3.646130	-2.302302	-3.234760	1.667298	0.640294	0.093566	0.601976	-0.467861
51343	-6.677192	-7.791568	3.337738	-2.147368	-3.306059	0.231812	0.641980	0.089294	0.604234	-0.463454
51344	-6.060681	-7.165733	3.152978	-1.867254	-3.170190	-0.621179	0.643438	0.086335	0.605621	-0.460170
51345	-6.530462	-6.502137	3.294150	-1.201049	-2.688893	-0.479765	0.644815	0.085248	0.605975	-0.457974
51346	-7.226266	-5.766636	3.509882	-0.427011	-2.094695	-0.157524	0.646316	0.084392	0.605909	-0.456101
51347	-7.500401	-5.265112	3.535799	-0.015372	-1.697775	-0.138154	0.648015	0.082118	0.606120	-0.453819
51348	-7.531543	-5.108837	3.440798	0.054234	-1.521819	-0.203086	0.649741	0.077967	0.606941	-0.450978
51349	-7.754676	-5.207211	3.321702	-0.017950	-1.373212	0.005530	0.651259	0.072594	0.608239	-0.447926
51350	-7.619407	-5.121890	3.207182	0.000425	-1.291726	-0.173905	0.652373	0.066794	0.609842	-0.445017
51351	-7.747948	-5.287697	3.189683	-0.038180	-1.288760	0.010844	0.652961	0.061868	0.611253	-0.442927
51352	-7.931154	-5.244146	3.379461	0.209974	-1.261181	0.196815	0.652989	0.058653	0.611932	-0.442384
51353	-8.161598	-4.479010	3.640019	0.969769	-0.814300	0.102920	0.652617	0.056520	0.612035	-0.443069
51354	-8.200526	-3.713917	3.834024	1.644035	-0.417315	-0.176073	0.652222	0.054112	0.612095	-0.443867
51355	-8.260455	-2.845499	4.130621	2.470301	-0.003836	-0.469708	0.652143	0.050295	0.612707	-0.443588
51356	-8.545619	-3.046643	4.044681	2.362343	0.130008	-0.165354	0.652715	0.045034	0.613754	-0.441861
51357	-8.837452	-3.497694	4.023451	2.149424	0.082793	0.281629	0.653836	0.039412	0.614630	-0.439516
51358	-8.756581	-3.879684	3.921754	1.858416	-0.069111	0.368222	0.655237	0.034238	0.614803	-0.437618
51359	-8.602193	-3.763979	3.761304	1.806551	0.077896	0.139329	0.656647	0.029717	0.614374	-0.436436
51360	-8.571717	-3.467315	3.671399	1.924845	0.360308	-0.058683	0.657967	0.025621	0.613681	-0.435682
51361	-8.620165	-3.094400	3.684440	2.175702	0.673736	-0.206975	0.659245	0.021317	0.613145	-0.434736
51362	-8.517545	-2.650633	3.539561	2.327898	1.038962	-0.560444	0.660590	0.016056	0.613316	-0.432674
51363	-8.395245	-2.844268	3.356824	2.076500	1.012621	-0.620263	0.662086	0.009724	0.614386	-0.429043
51364	-8.338513	-3.124227	3.264851	1.868093	0.904340	-0.558339	0.663737	0.003032	0.616103	-0.424100
51365	-8.454833	-3.658116	3.250292	1.606781	0.671368	-0.200314	0.665740	-0.003515	0.617900	-0.418303
51366	-8.362705	-4.128093	3.074215	1.225490	0.424416	-0.078996	0.667909	-0.008901	0.619333	-0.412608
51367	-8.240513	-4.334964	2.829852	0.916821	0.344124	-0.130382	0.670266	-0.012911	0.620203	-0.407339
51368	-8.240149	-4.353487	2.708070	0.804714	0.379853	-0.148596	0.672750	-0.015314	0.620442	-0.402770
51369	-8.461045	-4.094473	2.736831	0.967233	0.642607	-0.091800	0.675450	-0.016750	0.620370	-0.398282
51370	-8.909181	-4.280877	2.114752	0.353783	1.025533	0.236913	0.678312	-0.018415	0.620676	-0.392830
51371	-9.012686	-4.410815	1.612034	-0.163752	1.171951	0.280960	0.681416	-0.020059	0.621277	-0.386374
51372	-9.223090	-4.972857	1.254077	-0.767272	0.977586	0.666923	0.684421	-0.021350	0.622300	-0.379282
51373	-9.065384	-5.290494	1.064727	-1.124331	0.648865	0.657172	0.687165	-0.021211	0.623277	-0.372667
51374	-8.866972	-5.321682	0.901292	-1.323319	0.479983	0.471917	0.689585	-0.019609	0.624063	-0.366926
51375	-8.607510	-4.882955	0.969585	-1.102395	0.520292	0.055717	0.691882	-0.016776	0.624573	-0.361836
51376	-8.493844	-4.382326	1.111790	-0.779285	0.657742	-0.244760	0.694159	-0.014704	0.625463	-0.355981
51377	-8.338784	-4.545096	0.852780	-1.114200	0.457248	-0.353889	0.696504	-0.014291	0.626863	-0.348884
51378	-8.161478	-4.770591	0.415630	-1.618142	0.267280	-0.493351	0.698718	-0.015034	0.628730	-0.340978
51379	-7.980575	-4.999848	-0.124187	-2.198877	0.103200	-0.655371	0.700711	-0.016474	0.630944	-0.332628
51380	-7.924864	-5.223070	-0.733377	-2.828391	0.017333	-0.723124	0.702439	-0.017436	0.633206	-0.324540
51381	-8.163401	-4.899050	-0.634422	-2.578288	0.214191	-0.628499	0.704019	-0.018095	0.635527	-0.316440
51382	-8.397532	-5.007102	-0.592640	-2.562718	0.081343	-0.359390	0.705550	-0.019421	0.638211	-0.307424
51383	-8.619743	-4.899749	-0.645524	-2.535906	0.137291	-0.206837	0.706965	-0.020782	0.641147	-0.297823
51384	-8.541856	-4.660103	-0.551189	-2.318433	0.105567	-0.347222	0.708322	-0.022730	0.644379	-0.287296
51385	-8.025703	-5.423451	-1.149695	-3.109836	-0.719850	-0.595565	0.709262	-0.024648	0.647909	-0.276684
51386	-7.809263	-5.558629	-1.402975	-3.327527	-1.013638	-0.771190	0.709562	-0.025981	0.651568	-0.267031
51387	-7.805348	-5.778793	-1.202529	-3.141442	-1.421297	-0.654468	0.709272	-0.027129	0.655209	-0.258647
51388	-8.040197	-5.372749	-0.851840	-2.603775	-1.209638	-0.539469	0.708613	-0.027599	0.658386	-0.252255
51389	-7.981303	-4.375884	-0.480174	-1.860917	-0.570104	-0.908130	0.707579	-0.029437	0.661665	-0.246303
51390	-7.961476	-4.216985	-0.988589	-2.213683	-0.366404	-1.031479	0.705981	-0.033366	0.665472	-0.240052
51391	-8.043801	-4.219524	-1.297892	-2.403487	-0.316537	-0.963219	0.703571	-0.039468	0.670086	-0.233269
51392	-8.251585	-4.957524	-1.718205	-2.873299	-0.840491	-0.503910	0.700363	-0.046150	0.675118	-0.227107
51393	-8.363427	-5.366235	-1.776350	-2.880704	-1.190457	-0.211591	0.696480	-0.050893	0.680035	-0.223336
51394	-9.292186	-4.507763	-0.990419	-1.737621	-0.275338	0.412222	0.692238	-0.053543	0.684710	-0.221613
51395	-9.953597	-3.249888	-0.774761	-1.066309	1.039036	0.580478	0.687930	-0.055748	0.689479	-0.219690
51396	-10.639199	-3.150422	-1.055790	-1.133293	1.419325	1.184186	0.683481	-0.058765	0.694989	-0.215386
51397	-10.592533	-4.041178	-1.399645	-1.491393	0.607982	1.496358	0.678841	-0.061557	0.701091	-0.209421
51398	-10.303617	-4.380218	-1.308738	-1.309006	0.077449	1.382865	0.673878	-0.061896	0.707389	-0.204102
51399	-9.977673	-4.353974	-0.519657	-0.383746	-0.290035	1.075208	0.668438	-0.059567	0.713756	-0.200487
51400	-9.319246	-4.186918	0.044354	0.286338	-0.596675	0.382412	0.662705	-0.054149	0.719758	-0.199596
51401	-8.879614	-3.672508	0.428012	0.832124	-0.466463	-0.241584	0.656807	-0.046711	0.725304	-0.200890
51402	-8.901375	-3.656321	0.602456	1.110662	-0.589278	-0.253206	0.651062	-0.037795	0.730115	-0.204018
51403	-9.430139	-4.184588	1.386733	1.904373	-1.210667	0.349380	0.646065	-0.027639	0.733619	-0.208898
51404	-9.924203	-3.741432	2.834345	3.492160	-1.186508	0.527361	0.642269	-0.015385	0.735073	-0.216612
51405	-10.539396	-2.011200	4.836613	5.925717	-0.217448	0.353518	0.640114	-0.003742	0.734776	-0.224375
51406	-10.509091	0.349821	5.512342	7.206642	1.507355	-0.499261	0.639730	0.002722	0.734267	-0.227136
51407	-10.121697	-0.198647	3.585033	5.151189	1.468257	-0.504098	0.640602	0.004744	0.734171	-0.224941
51408	-9.832401	-1.857493	1.524339	2.650819	0.541750	-0.059261	0.641835	0.005745	0.734274	-0.221037
51409	-9.305722	-1.963848	0.141260	1.204450	0.699610	-0.403518	0.642887	0.007511	0.734491	-0.217170
51410	-8.564526	-2.140991	-1.473204	-0.514495	0.800503	-0.913294	0.643605	0.010314	0.734868	-0.213626
51411	-8.465334	-2.082704	-2.311874	-1.319751	1.022910	-0.949528	0.644003	0.014879	0.735199	-0.211000
51412	-8.563498	-1.633803	-2.682485	-1.536095	1.493118	-0.946525	0.644549	0.020308	0.735310	-0.208481
51413	-8.621740	-1.243350	-2.872644	-1.610022	1.832055	-0.970580	0.645393	0.025842	0.735340	-0.205122
51414	-8.814453	-0.707974	-3.031107	-1.591112	2.308158	-0.895129	0.646458	0.031151	0.735469	-0.200518
51415	-8.502962	-0.492258	-2.748302	-1.340097	2.217681	-1.246461	0.647384	0.035591	0.736152	-0.194183
51416	-8.290254	-0.585923	-2.158118	-0.872343	1.753338	-1.452538	0.647952	0.039599	0.737386	-0.186685
51417	-8.305926	-1.165945	-1.733572	-0.659317	0.931086	-1.324490	0.648144	0.043605	0.738984	-0.178637
51418	-8.467864	-1.793196	-2.095355	-1.164918	0.333896	-0.989983	0.648000	0.047999	0.740661	-0.170916
51419	-8.568770	-1.512908	-2.586978	-1.526739	0.608190	-0.885078	0.647322	0.053703	0.742348	-0.164343
51420	-8.576110	-1.360954	-2.537567	-1.422768	0.580877	-0.897675	0.645810	0.061186	0.744172	-0.159353
51421	-9.077468	-1.343852	-1.240001	-0.103782	0.084954	-0.553969	0.644021	0.071071	0.745396	-0.156751
51422	-9.682312	-0.778030	-0.645496	0.730681	0.314870	-0.110435	0.642351	0.082498	0.745834	-0.155917
51423	-9.545862	0.640187	-0.452039	1.350946	1.397003	-0.434067	0.641255	0.092870	0.745927	-0.154142
51424	-9.602342	1.258797	-0.598504	1.431390	1.861454	-0.398260	0.640707	0.100991	0.746167	-0.150100
51425	-9.324263	2.116320	-0.438815	1.812738	2.432457	-0.734797	0.640854	0.105699	0.746916	-0.142303
51426	-9.416217	1.228193	-0.466252	1.463216	1.456281	-0.532226	0.641600	0.107829	0.747895	-0.131811
51427	-9.284218	1.357138	-0.499752	1.408103	1.434844	-0.634204	0.642778	0.108656	0.748737	-0.120099
51428	-9.266088	2.085006	-0.457505	1.605321	1.962246	-0.648256	0.644961	0.107316	0.749247	-0.105533
51429	-9.108824	1.262516	-0.598915	1.106131	1.070345	-0.726925	0.648119	0.103819	0.749284	-0.087960
51430	-9.382729	0.413443	-0.449908	0.960297	0.035469	-0.459485	0.651816	0.099281	0.748676	-0.069021
51431	-10.628240	0.589830	-0.146621	1.352037	-0.106862	0.745998	0.656591	0.091835	0.747095	-0.047993
51432	-10.542987	-0.443891	-2.212606	-0.994487	-0.914174	0.883874	0.661765	0.082830	0.744646	-0.026609
51433	-10.184752	-0.586643	-3.060979	-1.992657	-1.148384	0.586675	0.666296	0.074743	0.741902	-0.006704
51434	-10.483559	-0.773139	-2.480334	-1.490233	-1.674649	0.752570	0.669753	0.068800	0.739314	0.010611
51435	-11.068648	-1.685565	-2.731468	-1.812831	-2.846618	1.206537	0.672435	0.064695	0.736906	0.024781
51436	-10.703072	1.103902	-0.667324	0.333532	-0.330638	0.957482	0.674421	0.065501	0.734633	0.034366
51437	-12.122178	-0.226321	-2.495010	-1.507255	-1.948871	2.317857	0.677291	0.058481	0.731750	0.048981
51438	-10.979509	-0.081206	-2.870719	-2.020107	-1.792668	1.210057	0.678543	0.057407	0.730079	0.057167
51439	-11.098305	0.692125	-2.591336	-1.755322	-1.181615	1.407279	0.679164	0.056153	0.728965	0.064756
51440	-11.348685	0.330924	-1.804209	-0.964744	-1.679014	1.518981	0.679243	0.055775	0.728394	0.070429
51441	-11.561848	0.496376	-1.666757	-0.819035	-1.633081	1.735586	0.679414	0.054497	0.727848	0.075258
51442	-11.589431	0.823145	-1.363831	-0.526803	-1.365296	1.793809	0.679484	0.052410	0.727457	0.079754
51443	-11.156268	0.778439	-1.100121	-0.295020	-1.361803	1.337956	0.679320	0.050572	0.727295	0.083721
51444	-10.873495	0.149129	-0.660112	0.156566	-1.940036	0.906571	0.678785	0.049403	0.727490	0.086999
51445	-10.803575	-0.377829	-0.137119	0.717942	-2.443177	0.694172	0.677812	0.049934	0.728199	0.088341
51446	-10.553946	-0.065146	0.064198	0.911335	-2.097450	0.490916	0.676859	0.050789	0.729009	0.088475
51447	-10.474647	0.374336	-0.318973	0.528661	-1.682982	0.524050	0.676021	0.051145	0.729769	0.088417
51448	-10.172018	0.890337	-0.543180	0.280720	-1.134997	0.345592	0.675238	0.050956	0.730459	0.088804
51449	-9.965867	0.422462	-0.916754	-0.065683	-1.576547	0.079105	0.674344	0.050761	0.731268	0.089050
51450	-9.926888	0.283633	-0.965273	-0.083535	-1.705979	0.017770	0.673117	0.052221	0.732481	0.087506
51451	-10.150312	1.001891	-0.831135	0.073945	-1.033434	0.368170	0.672023	0.054442	0.733607	0.085101
51452	-10.353795	1.287308	-1.114158	-0.171033	-0.799654	0.648232	0.671357	0.056126	0.734328	0.083022
51453	-10.197167	1.224473	-1.470803	-0.521502	-0.834270	0.515759	0.670947	0.056887	0.734821	0.081443
51454	-10.086125	1.230427	-1.573182	-0.622093	-0.792935	0.419760	0.670646	0.056956	0.735241	0.080069
51455	-10.217808	0.921165	-1.393817	-0.415170	-1.090061	0.474888	0.670442	0.056862	0.735611	0.078428
51456	-10.671395	0.912041	-1.136912	-0.108881	-1.143432	0.896359	0.670365	0.056543	0.735911	0.076480
51457	-10.799676	0.640169	-1.215256	-0.167093	-1.396635	0.982729	0.670441	0.056166	0.736117	0.074067
51458	-10.817875	0.501437	-1.349050	-0.298086	-1.492750	0.993812	0.670633	0.056086	0.736246	0.071045
51459	-10.780256	0.491369	-1.325571	-0.282000	-1.440917	0.960264	0.670829	0.056464	0.736401	0.067184
51460	-10.877702	0.500044	-1.215528	-0.167477	-1.384260	1.055034	0.671069	0.056843	0.736546	0.062730
51461	-11.083798	0.529322	-0.974470	0.088115	-1.313160	1.248402	0.671298	0.056917	0.736737	0.057783
51462	-11.135171	0.069825	-0.940041	0.122005	-1.685386	1.233777	0.671326	0.056385	0.737171	0.052167
51463	-11.286849	-0.078458	-0.702624	0.376429	-1.745357	1.354390	0.670972	0.056031	0.737993	0.044976
