// General information: 
//  MT Manager version: 2021.0.0 
//  XDA version: 2021.0.0 build 5908 rev 109668 built on 2021-04-19
// Device information: 
//  DeviceId: 00B43DF0
//  ProductCode: MTW2-3A7G6
//  Firmware Version: 4.3.5
//  Hardware Version: 1.1.0
// Device settings: 
//  Filter Profile: human(46.1)
//  Option Flags: Orientation Smoother Disabled, Position/Velocity Smoother Disabled, Continuous Zero Rotation Update Disabled, AHS Disabled, ICC Disabled
// Coordinate system: ENU
PacketCounter	Acc_X	Acc_Y	Acc_Z	FreeAcc_E	FreeAcc_N	FreeAcc_U	Quat_q0	Quat_q1	Quat_q2	Quat_q3
50291	0.927464	0.901998	9.604434	-0.055459	0.012477	-0.121675	0.208593	-0.035651	-0.056842	-0.975698
50292	0.944276	0.927699	9.601811	-0.061569	-0.012549	-0.120262	0.208712	-0.035634	-0.057105	-0.975658
50293	1.027321	0.953323	9.589337	-0.128086	-0.066617	-0.122551	0.208773	-0.035639	-0.057297	-0.975634
50294	0.946753	0.967401	9.635280	-0.047228	-0.040961	-0.082995	0.208743	-0.035607	-0.057122	-0.975651
50295	0.908072	0.897507	9.659488	-0.039122	0.035877	-0.069330	0.208655	-0.035596	-0.056761	-0.975692
50296	0.875191	0.850618	9.664188	-0.027181	0.084671	-0.072147	0.208547	-0.035565	-0.056333	-0.975741
50297	0.941593	0.830185	9.733644	-0.092826	0.078290	0.000818	0.208424	-0.035483	-0.056069	-0.975785
50298	1.021635	0.851293	9.638132	-0.162321	0.011470	-0.084607	0.208277	-0.035391	-0.055988	-0.975825
50299	0.913172	0.900811	9.623947	-0.045924	0.007633	-0.103747	0.208050	-0.035273	-0.056011	-0.975876
50300	0.849301	0.824038	9.631500	-0.021950	0.105644	-0.109364	0.207789	-0.035144	-0.056211	-0.975925
50301	0.910687	0.944963	9.657515	-0.031583	-0.020798	-0.066485	0.207576	-0.034961	-0.056559	-0.975956
50302	0.872236	1.004733	9.704376	0.025240	-0.049797	-0.017685	0.207375	-0.034785	-0.056691	-0.975998
50303	0.902817	0.965567	9.662735	-0.023642	-0.031987	-0.060033	0.207237	-0.034652	-0.056589	-0.976038
50304	0.865395	0.902211	9.638387	-0.018101	0.034055	-0.093639	0.207020	-0.034564	-0.056370	-0.976100
50305	0.897326	0.841496	9.639924	-0.072549	0.072992	-0.095134	0.206771	-0.034538	-0.056224	-0.976162
50306	0.912701	0.876544	9.715329	-0.069704	0.041484	-0.015627	0.206444	-0.034476	-0.056070	-0.976242
50307	0.867699	0.833811	9.834156	-0.042384	0.110337	0.094118	0.206094	-0.034385	-0.055964	-0.976325
50308	0.885473	0.908243	9.895414	-0.027578	0.040439	0.163574	0.205686	-0.034283	-0.055811	-0.976424
50309	0.954685	0.815112	9.842509	-0.132962	0.088763	0.108263	0.205217	-0.034163	-0.055750	-0.976530
50310	0.918873	0.941752	9.873970	-0.050073	-0.008161	0.148433	0.204720	-0.034102	-0.055834	-0.976632
50311	0.879587	0.960978	9.851079	-0.008192	-0.011517	0.124149	0.204151	-0.034170	-0.055862	-0.976747
50312	0.887023	0.971276	9.753998	-0.013399	-0.033491	0.029536	0.203590	-0.034363	-0.055988	-0.976850
50313	0.944496	1.046097	9.686503	-0.036238	-0.127364	-0.025083	0.203172	-0.034593	-0.056295	-0.976911
50314	0.947764	1.099446	9.724969	-0.013689	-0.165741	0.018609	0.202899	-0.034803	-0.056579	-0.976944
50315	0.956284	1.194098	9.701018	0.018272	-0.253252	0.004930	0.202713	-0.035020	-0.056720	-0.976967
50316	0.920232	1.058194	9.620132	-0.003088	-0.123134	-0.091660	0.202548	-0.035226	-0.056714	-0.976994
50317	0.935552	1.075892	9.546067	-0.010023	-0.151999	-0.161936	0.202439	-0.035419	-0.056897	-0.976999
50318	0.969523	1.036135	9.431787	-0.059723	-0.137986	-0.275940	0.202374	-0.035587	-0.057211	-0.976988
50319	0.928353	1.037919	9.343511	-0.024645	-0.125946	-0.366850	0.202391	-0.035662	-0.057778	-0.976948
50320	0.967945	1.180368	9.434397	-0.001342	-0.248075	-0.258815	0.202437	-0.035685	-0.058440	-0.976898
50321	0.976412	1.264278	9.488444	0.025455	-0.312557	-0.195827	0.202470	-0.035690	-0.058663	-0.976878
50322	0.968975	1.101252	9.492091	-0.033190	-0.159910	-0.209313	0.202537	-0.035648	-0.058529	-0.976874
50323	1.030142	1.012777	9.421625	-0.128708	-0.114941	-0.282517	0.202637	-0.035514	-0.058428	-0.976864
50324	0.973845	0.975892	9.487167	-0.091962	-0.051461	-0.226449	0.202760	-0.035326	-0.058538	-0.976839
50325	0.907594	1.015119	9.566774	-0.016734	-0.048543	-0.149628	0.202920	-0.035084	-0.058782	-0.976799
50326	0.911956	1.062431	9.623675	-0.004050	-0.083512	-0.088051	0.203065	-0.034883	-0.058901	-0.976769
50327	0.992145	0.967523	9.708500	-0.115925	-0.017181	-0.006480	0.203183	-0.034676	-0.058925	-0.976751
50328	0.975380	1.001094	9.821630	-0.086557	-0.027162	0.107481	0.203297	-0.034447	-0.058936	-0.976735
50329	0.947247	0.984196	9.890388	-0.067832	0.006251	0.171353	0.203380	-0.034325	-0.058810	-0.976729
50330	0.922512	0.934202	9.876868	-0.066172	0.056557	0.150681	0.203406	-0.034342	-0.058635	-0.976734
50331	0.913370	0.956605	9.732159	-0.053784	0.019029	0.008769	0.203398	-0.034373	-0.058579	-0.976738
50332	0.953188	0.956924	9.711807	-0.090287	0.000427	-0.007826	0.203347	-0.034408	-0.058616	-0.976745
50333	1.050793	1.001675	9.697423	-0.162818	-0.078254	-0.008866	0.203263	-0.034370	-0.058815	-0.976752
50334	0.979585	1.065009	9.751680	-0.071745	-0.097961	0.045018	0.203217	-0.034306	-0.058940	-0.976756
50335	0.931940	1.106607	9.787913	-0.011069	-0.111240	0.080939	0.203104	-0.034298	-0.058948	-0.976779
50336	0.960506	1.025080	9.725045	-0.072318	-0.056897	0.012861	0.202992	-0.034323	-0.058874	-0.976806
50337	0.973452	1.005223	9.737484	-0.090399	-0.043567	0.024315	0.202949	-0.034403	-0.058790	-0.976817
50338	0.914010	0.992385	9.693681	-0.040762	-0.015309	-0.025666	0.202975	-0.034517	-0.058714	-0.976812
50339	0.865262	0.959837	9.626358	-0.009515	0.024819	-0.100014	0.203062	-0.034642	-0.058743	-0.976788
50340	0.847752	1.017075	9.713934	0.035693	-0.007794	-0.008999	0.203160	-0.034796	-0.058801	-0.976759
50341	0.899037	0.959945	9.720149	-0.030764	0.025712	-0.004046	0.203265	-0.034960	-0.058770	-0.976733
50342	0.958822	0.997394	9.690376	-0.067287	-0.036677	-0.024345	0.203361	-0.035206	-0.058622	-0.976713
50343	0.939485	0.944170	9.676689	-0.065622	0.013651	-0.044990	0.203370	-0.035466	-0.058252	-0.976724
50344	0.934895	0.791646	9.637738	-0.118690	0.145247	-0.099215	0.203319	-0.035691	-0.058092	-0.976736
50345	0.916798	0.882673	9.639529	-0.062317	0.070513	-0.089967	0.203180	-0.035814	-0.058256	-0.976750
50346	0.933107	1.022497	9.708278	-0.017167	-0.049705	-0.006359	0.203022	-0.035901	-0.058529	-0.976764
50347	0.970742	1.121083	9.766127	-0.008390	-0.144315	0.064332	0.202841	-0.036004	-0.058467	-0.976801
50348	0.986358	0.986733	9.622914	-0.080668	-0.048368	-0.089614	0.202626	-0.036107	-0.058281	-0.976853
50349	0.919958	0.917645	9.480839	-0.052320	0.023019	-0.243391	0.202416	-0.036199	-0.058486	-0.976881
50350	0.866916	1.006086	9.448610	0.029796	-0.033879	-0.271307	0.202301	-0.036237	-0.059000	-0.976873
50351	0.941954	1.208469	9.599679	0.047834	-0.220822	-0.094124	0.202319	-0.036268	-0.059233	-0.976854
50352	0.991844	1.202482	9.596937	0.001475	-0.236019	-0.092851	0.202396	-0.036398	-0.058887	-0.976854
50353	0.994003	0.924678	9.469336	-0.113107	-0.007658	-0.247200	0.202483	-0.036529	-0.058407	-0.976860
50354	0.994466	0.922746	9.301573	-0.119067	-0.033147	-0.413516	0.202564	-0.036566	-0.058274	-0.976850
50355	0.981171	0.959866	9.162287	-0.098514	-0.080855	-0.549032	0.202626	-0.036479	-0.058293	-0.976839
50356	0.952563	1.113875	9.125379	-0.014308	-0.216481	-0.572906	0.202670	-0.036314	-0.058132	-0.976845
50357	1.019728	1.073467	8.895990	-0.105424	-0.241776	-0.798186	0.202744	-0.035990	-0.057683	-0.976869
50358	0.986114	1.040753	8.672782	-0.104010	-0.237484	-1.026021	0.202832	-0.035369	-0.057153	-0.976904
50359	0.950105	1.012715	8.401663	-0.105120	-0.243847	-1.301184	0.202943	-0.034440	-0.056610	-0.976946
50360	0.978707	1.074966	8.182290	-0.131621	-0.353757	-1.510834	0.203069	-0.033119	-0.055852	-0.977009
50361	1.007040	1.108358	7.953592	-0.174368	-0.442940	-1.733361	0.203180	-0.031399	-0.054810	-0.977102
50362	1.056562	0.956420	7.440946	-0.325082	-0.408590	-2.254513	0.203387	-0.029248	-0.053647	-0.977190
50363	1.164763	0.906661	6.843361	-0.494633	-0.495510	-2.847058	0.203842	-0.026584	-0.053111	-0.977200
50364	1.126273	0.931073	6.290836	-0.502759	-0.576061	-3.399791	0.204670	-0.023207	-0.053521	-0.977091
50365	0.926874	1.254408	6.092009	-0.241121	-0.815743	-3.582004	0.205970	-0.018874	-0.054589	-0.976852
50366	0.812123	1.237583	6.362535	-0.198136	-0.725351	-3.323676	0.207625	-0.013611	-0.055413	-0.976543
50367	1.146107	1.136321	6.453780	-0.613714	-0.767416	-3.233172	0.209653	-0.007537	-0.055844	-0.976151
50368	1.237491	1.129781	6.124086	-0.772342	-0.851653	-3.568502	0.211982	-0.000651	-0.056214	-0.975655
50369	0.976388	0.835873	5.298234	-0.715623	-0.581458	-4.439371	0.214452	0.007286	-0.057560	-0.975010
50370	0.504158	0.730403	4.849287	-0.398953	-0.335706	-4.910579	0.217187	0.016535	-0.060961	-0.974084
50371	0.125605	1.408792	6.250490	0.031820	-0.614372	-3.433882	0.220397	0.026958	-0.064409	-0.972908
50372	0.071523	1.613893	7.106651	-0.047119	-0.670115	-2.555899	0.223865	0.038045	-0.066685	-0.971592
50373	-0.015461	1.567375	6.639700	-0.086466	-0.659755	-3.023131	0.227469	0.049206	-0.066606	-0.970258
50374	-0.643760	0.745841	5.323420	0.153591	0.183506	-4.404276	0.230840	0.061013	-0.066917	-0.968769
50375	-1.507173	0.439797	4.179063	0.831680	0.726684	-5.487366	0.233590	0.074683	-0.070492	-0.966897
50376	-2.854884	1.053011	5.813982	1.824146	1.004485	-3.590076	0.235974	0.090211	-0.076737	-0.964515
50377	-2.585816	1.628355	7.202861	1.301081	0.574512	-2.119235	0.238042	0.107061	-0.084056	-0.961670
50378	-2.664192	3.170586	7.619542	1.652396	-0.645790	-1.324303	0.240045	0.124469	-0.088460	-0.958676
50379	-3.639863	2.791999	7.115971	2.173809	0.090661	-1.630981	0.242053	0.141748	-0.088695	-0.955746
50380	-4.002118	2.198076	5.411127	2.506341	0.569457	-3.215901	0.243517	0.159426	-0.087565	-0.952688
50381	-6.080535	1.948844	4.610092	4.158268	1.702069	-3.345273	0.244201	0.178964	-0.087934	-0.949002
50382	-7.051646	2.106844	5.749425	4.267462	2.116291	-1.780502	0.243794	0.200724	-0.091021	-0.944452
50383	-6.526324	3.752996	8.195111	3.067462	0.580256	0.867593	0.243041	0.223815	-0.093557	-0.939194
50384	-6.759394	4.260190	9.113659	2.510703	0.229208	2.041222	0.242943	0.246637	-0.092185	-0.933622
50385	-7.093715	4.463302	8.139272	2.851015	0.004423	1.516043	0.244117	0.268139	-0.085858	-0.927974
50386	-7.907841	3.073502	6.154723	3.547305	1.363608	-0.045335	0.245663	0.288625	-0.076997	-0.922180
50387	-9.256354	2.380155	5.655171	4.112319	2.459145	0.204652	0.246401	0.309542	-0.070408	-0.915703
50388	-10.106154	3.185941	6.595172	4.003073	1.979780	1.841097	0.246205	0.330594	-0.064853	-0.908782
50389	-10.129466	3.142118	7.422156	2.965125	1.796503	2.658034	0.245518	0.351925	-0.060507	-0.901226
50390	-10.460575	3.586837	8.370987	2.168517	1.293832	3.823800	0.245505	0.372712	-0.055376	-0.893166
50391	-9.924879	3.216456	7.624414	1.687798	1.198040	2.941588	0.246253	0.392085	-0.049321	-0.884984
50392	-9.702379	2.265503	6.133241	1.783054	1.887340	1.594488	0.246603	0.411134	-0.044740	-0.876444
50393	-10.065289	2.966201	5.692436	2.117809	1.339836	1.858228	0.245764	0.430495	-0.042030	-0.867472
50394	-11.149273	3.174171	6.264635	1.792802	1.417903	3.163213	0.244035	0.450481	-0.040052	-0.857852
50395	-11.957679	3.859910	8.495381	0.085151	0.641118	5.339963	0.242408	0.469508	-0.036724	-0.848205
50396	-11.659171	4.342730	8.698280	-0.592651	-0.213486	5.354040	0.242541	0.486412	-0.030105	-0.838851
50397	-10.889602	3.831803	6.810509	0.009980	-0.027006	3.589874	0.244664	0.501751	-0.021048	-0.829423
50398	-10.300062	3.378021	5.098851	0.674301	0.239917	2.144465	0.247797	0.516616	-0.011748	-0.819492
50399	-10.725659	2.963328	5.120216	0.261661	0.563609	2.419859	0.251436	0.531500	-0.003047	-0.808875
50400	-11.551217	2.607174	6.631552	-1.333868	0.590846	3.680205	0.254735	0.545475	0.004656	-0.798464
50401	-11.372707	2.255041	6.291467	-1.626688	0.700326	3.258435	0.256740	0.558343	0.010547	-0.788813
50402	-11.057971	1.855337	5.004612	-1.103692	1.135451	2.363017	0.256151	0.570772	0.013526	-0.780015
50403	-10.816614	2.378401	4.413730	-0.766527	0.636423	2.067242	0.252662	0.583676	0.013235	-0.771562
50404	-10.365989	3.832521	4.609594	-0.806833	-0.973887	2.094358	0.247870	0.596980	0.010892	-0.762926
50405	-10.151835	4.870435	5.629541	-1.745734	-2.375777	2.425254	0.244669	0.609709	0.009092	-0.753863
50406	-10.287501	4.647559	6.469159	-2.935323	-2.486536	2.616041	0.244805	0.620633	0.009986	-0.744839
50407	-10.832709	4.040022	6.544606	-3.463287	-1.891991	2.872741	0.247631	0.629400	0.013276	-0.736450
50408	-11.084808	3.589865	5.762928	-3.119841	-1.268152	2.742196	0.251585	0.636308	0.018032	-0.729035
50409	-10.852026	3.272942	4.973568	-2.713330	-0.914902	2.229415	0.255030	0.642352	0.023105	-0.722364
50410	-10.543169	3.518334	5.187731	-2.976670	-1.429730	2.000099	0.257783	0.647848	0.028329	-0.716267
50411	-9.987770	3.558833	5.713393	-3.576373	-1.971902	1.517905	0.260297	0.652720	0.033619	-0.710684
50412	-9.335744	3.974567	6.101589	-3.845543	-2.821550	1.023893	0.264157	0.656531	0.039882	-0.705406
50413	-9.052212	3.820958	6.102709	-3.941580	-2.913183	0.663999	0.270289	0.659023	0.047774	-0.700251
50414	-9.246211	3.520849	6.084422	-4.046034	-2.727894	0.727492	0.278695	0.659984	0.057221	-0.695324
50415	-9.308612	3.167131	5.417638	-3.567400	-2.250167	0.591174	0.289143	0.659277	0.068291	-0.690714
50416	-9.508372	2.630702	4.170574	-2.679005	-1.269275	0.479739	0.300626	0.657155	0.080277	-0.686533
50417	-9.554699	2.274263	3.120868	-1.899506	-0.518005	0.303005	0.312079	0.654022	0.092027	-0.682930
50418	-9.535243	1.575229	2.647363	-1.825165	0.225502	0.037604	0.322499	0.650365	0.102670	-0.680058
50419	-9.627718	1.144139	2.357392	-1.792630	0.711002	-0.022894	0.330735	0.646827	0.110790	-0.678199
50420	-9.621416	1.058196	2.016585	-1.530304	0.957336	-0.091596	0.336294	0.643839	0.115736	-0.677483
50421	-9.465887	1.348818	1.696605	-1.056412	0.888870	-0.200477	0.339352	0.641544	0.118016	-0.677742
50422	-9.266927	1.679771	1.591292	-0.727065	0.663644	-0.312129	0.340427	0.639878	0.118249	-0.678736
50423	-9.225183	2.140823	1.725114	-0.517905	0.252517	-0.203783	0.340373	0.638599	0.117304	-0.680130
50424	-9.416109	2.296189	1.851691	-0.501265	0.147869	0.040792	0.339984	0.637184	0.115960	-0.681880
50425	-9.333173	2.362803	1.712286	-0.310999	0.184535	-0.040691	0.339433	0.635580	0.114333	-0.683924
50426	-9.129338	2.375188	1.566199	-0.140125	0.227747	-0.254048	0.338872	0.633824	0.112697	-0.686099
50427	-8.983748	2.431612	1.513567	-0.018600	0.200067	-0.385557	0.338194	0.632106	0.111012	-0.688290
50428	-9.048717	2.549872	1.581016	0.036909	0.122312	-0.280415	0.337420	0.630449	0.109319	-0.690457
50429	-9.247816	2.598922	1.659047	0.038928	0.132942	-0.065403	0.336641	0.628814	0.107757	-0.692571
50430	-9.248103	2.551777	1.606805	0.092788	0.223161	-0.088378	0.335778	0.627193	0.106347	-0.694674
50431	-9.290919	2.492957	1.584925	0.114846	0.314562	-0.069192	0.334627	0.625740	0.104968	-0.696746
50432	-9.289838	2.583620	1.679994	0.131590	0.207998	-0.028116	0.333273	0.624414	0.103626	-0.698783
50433	-9.175931	2.590139	1.751843	0.114772	0.137461	-0.120252	0.331811	0.623197	0.102282	-0.700760
50434	-9.146444	2.700946	1.834031	0.147469	0.008416	-0.102162	0.330332	0.622121	0.100974	-0.702602
50435	-9.160572	2.894443	1.906814	0.233209	-0.165093	-0.022483	0.329054	0.621077	0.099853	-0.704284
50436	-9.173769	2.879355	1.992140	0.185208	-0.187108	0.003012	0.328157	0.619964	0.099120	-0.705785
50437	-9.263498	2.765277	1.926097	0.203216	-0.023974	0.042618	0.327486	0.618841	0.098510	-0.707167
50438	-9.267508	2.610661	1.803988	0.240238	0.172727	-0.021415	0.326774	0.617832	0.097711	-0.708487
50439	-9.274299	2.593662	1.658308	0.372406	0.278486	-0.051878	0.325941	0.617056	0.096560	-0.709705
50440	-9.173497	2.628752	1.585960	0.465990	0.267881	-0.154027	0.325006	0.616563	0.095129	-0.710754
50441	-9.095679	2.762458	1.690866	0.466331	0.092669	-0.169269	0.324254	0.616225	0.093912	-0.711552
50442	-9.137771	2.932596	1.807981	0.477933	-0.078737	-0.059065	0.323940	0.615890	0.093374	-0.712056
50443	-9.074769	2.894091	1.953888	0.344935	-0.144497	-0.096464	0.324280	0.615359	0.093849	-0.712298
50444	-9.039065	2.787361	2.013915	0.247720	-0.106255	-0.145358	0.325053	0.614689	0.094981	-0.712374
50445	-8.993657	2.504220	1.926988	0.169106	0.140677	-0.282637	0.325933	0.613996	0.096320	-0.712390
50446	-9.088605	2.348650	1.703396	0.276807	0.410619	-0.285085	0.326474	0.613502	0.097234	-0.712443
50447	-9.102943	2.340008	1.705677	0.278832	0.419317	-0.273559	0.326452	0.613299	0.097402	-0.712605
50448	-9.029430	2.439764	1.765694	0.288993	0.284551	-0.302890	0.326007	0.613357	0.096985	-0.712816
50449	-9.056527	2.551387	1.902724	0.241958	0.134709	-0.217171	0.325393	0.613579	0.096292	-0.712999
50450	-8.979003	2.597203	1.983760	0.195569	0.030329	-0.259463	0.324831	0.613835	0.095574	-0.713132
50451	-8.952679	2.576346	2.014388	0.151046	0.022308	-0.282605	0.324266	0.614195	0.094819	-0.713180
50452	-9.108835	2.468833	2.429006	-0.253178	-0.061062	-0.071114	0.323780	0.614647	0.094153	-0.713099
50453	-9.480687	2.566709	3.213242	-0.832260	-0.424477	0.479227	0.323824	0.614780	0.093967	-0.712989
50454	-9.464908	2.488932	4.008415	-1.517775	-0.792048	0.623578	0.325130	0.613855	0.095181	-0.713031
50455	-9.401316	2.413353	4.596356	-2.001123	-1.073352	0.683913	0.327702	0.611608	0.097896	-0.713417
50456	-9.607940	2.415752	5.422427	-2.575353	-1.463176	1.085783	0.331747	0.607787	0.102567	-0.714156
50457	-9.750166	2.181845	6.321839	-3.287459	-1.763059	1.406637	0.337170	0.602174	0.109377	-0.715360
50458	-10.312812	1.455270	7.205761	-4.203714	-1.580157	2.028831	0.343469	0.595005	0.117926	-0.717002
50459	-10.617129	0.597017	8.444411	-5.434116	-1.641927	2.522394	0.349630	0.586453	0.126785	-0.719554
50460	-10.946831	0.147575	9.558627	-6.235410	-1.955948	3.168203	0.355882	0.576244	0.136007	-0.723044
50461	-11.197695	-0.281928	9.749966	-6.274614	-1.762572	3.530341	0.361857	0.564506	0.144987	-0.727579
50462	-11.073004	-0.757933	9.527866	-6.047172	-1.395850	3.432362	0.366993	0.551383	0.153561	-0.733288
50463	-11.022286	-1.226279	9.372237	-5.838811	-1.018943	3.441871	0.370832	0.537171	0.161193	-0.740235
50464	-11.447205	-1.826263	9.505761	-5.835034	-0.512893	3.985850	0.372584	0.522392	0.166781	-0.748646
50465	-11.612836	-1.964941	9.631002	-5.495315	-0.339768	4.369511	0.372051	0.507062	0.169885	-0.758687
50466	-11.742809	-1.780305	9.322257	-4.614548	-0.045265	4.562371	0.369400	0.491326	0.170401	-0.770133
50467	-11.941087	-1.317443	9.056823	-3.519316	0.122388	4.813271	0.364947	0.475150	0.168568	-0.782708
50468	-12.072176	-0.932420	8.860290	-2.515522	0.307443	4.974267	0.359272	0.458202	0.165314	-0.796019
50469	-12.354976	-0.722287	8.723647	-1.589915	0.655579	5.229643	0.352808	0.440185	0.161225	-0.809796
50470	-12.482493	-0.494335	8.445717	-0.576409	1.012482	5.220159	0.345657	0.421094	0.156416	-0.823854
50471	-12.335820	-0.417030	7.998170	0.338243	1.442546	4.818711	0.337765	0.401287	0.150549	-0.837985
50472	-12.075944	-0.348918	7.576097	1.161220	1.800658	4.283908	0.328968	0.381216	0.143001	-0.852059
50473	-11.678730	0.009715	7.380141	1.939618	1.751601	3.751598	0.319515	0.361152	0.133755	-0.865788
50474	-11.523441	0.474101	7.515768	2.682209	1.556582	3.598000	0.310080	0.340860	0.123957	-0.878806
50475	-11.256131	0.605826	7.583559	3.158717	1.583652	3.304321	0.300913	0.320108	0.113977	-0.891062
50476	-10.860047	0.845014	7.410965	3.715061	1.542300	2.731739	0.292159	0.298852	0.104344	-0.902465
50477	-10.383593	0.913396	7.004567	4.179523	1.649626	1.913223	0.283822	0.277355	0.094825	-0.912977
50478	-9.764513	1.105300	6.649747	4.525654	1.530362	1.047176	0.275913	0.255774	0.085499	-0.922573
50479	-9.298599	1.168951	6.648845	4.688502	1.449365	0.576313	0.268530	0.234387	0.076440	-0.931188
50480	-8.629346	1.304768	6.814468	4.629647	1.155338	0.178088	0.261725	0.212950	0.068087	-0.938891
50481	-7.888882	1.085999	6.806232	4.356570	1.166779	-0.358647	0.255571	0.191436	0.060365	-0.945723
50482	-7.369232	1.021836	6.844286	4.284634	1.129921	-0.727406	0.250084	0.170104	0.053303	-0.951673
50483	-7.010379	0.826832	7.095728	4.192894	1.234476	-0.809467	0.245165	0.148933	0.047064	-0.956817
50484	-5.848695	0.613068	6.783226	3.551026	1.084108	-1.639714	0.240671	0.128018	0.040752	-0.961264
50485	-5.124883	0.819375	6.312119	3.445404	0.771720	-2.443656	0.236709	0.107694	0.034441	-0.964979
50486	-5.019165	0.645175	6.349175	3.541608	0.994108	-2.575279	0.233131	0.088050	0.028571	-0.968029
50487	-4.349601	0.524243	6.513287	3.136533	0.902940	-2.674361	0.229656	0.068976	0.022774	-0.970557
50488	-3.675664	0.585401	7.034138	2.760707	0.624859	-2.375440	0.226254	0.050249	0.017756	-0.972609
50489	-2.867382	0.522777	7.263039	2.253041	0.417595	-2.330095	0.222567	0.031683	0.014230	-0.974299
50490	-2.121176	0.139184	6.965286	1.686529	0.540260	-2.749270	0.218371	0.013752	0.011319	-0.975703
50491	-1.602929	0.053270	6.985718	1.416538	0.479909	-2.803378	0.213748	-0.003290	0.007852	-0.976852
50492	-1.464223	0.057288	6.868047	1.509093	0.509600	-2.973412	0.208823	-0.019420	0.003317	-0.977755
50493	-0.903930	0.117090	6.458158	1.199376	0.326068	-3.410338	0.203748	-0.034586	-0.002890	-0.978408
50494	-0.106587	0.685365	5.801765	0.809757	-0.414113	-4.041055	0.198958	-0.048421	-0.010721	-0.978752
50495	0.130948	1.177666	5.671175	0.897089	-0.850307	-4.152625	0.194482	-0.061109	-0.018842	-0.978819
50496	0.599542	1.527969	4.936535	0.622469	-1.288455	-4.811247	0.190558	-0.072788	-0.027046	-0.978600
50497	0.952682	1.860492	3.772908	0.347607	-1.729687	-5.876916	0.187372	-0.083545	-0.035417	-0.978089
50498	1.610049	2.021388	2.438777	-0.344615	-2.179557	-7.027721	0.185289	-0.092677	-0.044442	-0.977294
50499	2.008493	2.308191	1.770451	-0.681938	-2.611900	-7.530451	0.184688	-0.099736	-0.054438	-0.976207
50500	2.375182	2.331196	1.923759	-0.956222	-2.688147	-7.236705	0.185589	-0.104635	-0.064619	-0.974901
50501	2.820458	2.431687	2.814297	-1.138391	-2.731707	-6.203043	0.187819	-0.107581	-0.074206	-0.973470
50502	2.523259	2.373136	3.872450	-0.677274	-2.313373	-5.210126	0.191017	-0.108920	-0.082255	-0.972051
50503	2.425874	2.125518	4.569359	-0.545992	-1.850913	-4.563170	0.194738	-0.109070	-0.088514	-0.970745
50504	2.615686	1.577225	5.175759	-0.826699	-1.241261	-3.990866	0.198643	-0.108036	-0.093592	-0.969593
50505	2.898756	1.366960	6.088441	-1.025978	-0.912275	-3.070620	0.202296	-0.105960	-0.097449	-0.968686
50506	2.795733	1.562210	7.272567	-0.690951	-0.752681	-1.932156	0.205395	-0.103091	-0.099528	-0.968132
50507	2.319022	1.940957	8.713622	0.074526	-0.573777	-0.607396	0.207767	-0.099851	-0.099618	-0.967956
50508	2.059829	2.008553	10.078996	0.490537	-0.253410	0.654309	0.209268	-0.096885	-0.097292	-0.968171
50509	2.085655	1.366793	10.578190	0.228113	0.342617	1.047600	0.210066	-0.094451	-0.093141	-0.968646
50510	1.943330	1.024014	10.801642	0.215966	0.648291	1.188796	0.210558	-0.092559	-0.088477	-0.969159
50511	1.901285	0.731068	10.738170	0.105385	0.808600	1.086480	0.211147	-0.091103	-0.084143	-0.969555
50512	1.700992	0.557861	10.983104	0.237040	1.003400	1.267460	0.212037	-0.090147	-0.080827	-0.969732
50513	1.811559	0.558472	11.277205	0.180111	0.945320	1.582161	0.213088	-0.089843	-0.078071	-0.969756
50514	1.860486	0.594422	10.959301	0.119421	0.779444	1.291323	0.214237	-0.090134	-0.076082	-0.969634
50515	1.856678	0.690802	10.659999	0.141409	0.603050	1.012111	0.215377	-0.090800	-0.074661	-0.969430
50516	1.830026	0.619707	10.389381	0.120352	0.602625	0.736935	0.216364	-0.091781	-0.073434	-0.969211
50517	1.912490	0.469006	10.006272	-0.046624	0.615039	0.366828	0.217162	-0.092874	-0.072410	-0.969006
50518	2.182036	0.403776	9.649298	-0.342966	0.488025	0.070503	0.217802	-0.093816	-0.071982	-0.968803
50519	2.235316	0.476020	9.347678	-0.387464	0.345300	-0.203684	0.218127	-0.094397	-0.071967	-0.968675
50520	2.245624	0.529360	9.140857	-0.397180	0.259230	-0.397096	0.218057	-0.094591	-0.072178	-0.968656
50521	2.201525	0.584299	9.200463	-0.326202	0.244494	-0.343240	0.217560	-0.094442	-0.072497	-0.968758
50522	2.208421	0.741039	9.268582	-0.260433	0.119261	-0.260158	0.216721	-0.094117	-0.072731	-0.968960
50523	2.199807	0.729400	9.277291	-0.266576	0.137994	-0.255010	0.215625	-0.093598	-0.072830	-0.969248
50524	2.133820	0.688953	9.262153	-0.241115	0.199494	-0.288121	0.214391	-0.092883	-0.072904	-0.969585
50525	2.031235	0.746281	9.314304	-0.134183	0.201294	-0.253370	0.213124	-0.092070	-0.073199	-0.969919
50526	2.074044	1.040630	9.536878	-0.031895	-0.037358	0.002310	0.211882	-0.091341	-0.073311	-0.970252
50527	1.881064	1.160691	9.698079	0.200805	-0.043613	0.131964	0.210734	-0.090794	-0.072881	-0.970585
50528	1.869648	0.940496	9.672720	0.106784	0.141469	0.082271	0.209609	-0.090491	-0.072004	-0.970923
50529	1.923695	0.769575	9.388539	-0.057493	0.209974	-0.200710	0.208670	-0.090291	-0.071396	-0.971188
50530	1.959573	0.746378	9.225568	-0.127433	0.183904	-0.354461	0.207977	-0.090001	-0.071527	-0.971354
50531	2.004155	1.079285	9.268903	-0.030605	-0.122846	-0.269207	0.207444	-0.089611	-0.071841	-0.971481
50532	1.874961	1.107149	9.515174	0.124142	-0.053907	-0.052489	0.206931	-0.089297	-0.071629	-0.971635
50533	2.008709	0.985632	9.579077	-0.042455	0.006788	0.024143	0.206298	-0.089031	-0.071022	-0.971839
50534	2.091753	0.815166	9.430071	-0.213455	0.092410	-0.121864	0.205530	-0.088704	-0.070554	-0.972065
50535	2.111080	0.782673	9.325830	-0.266873	0.091112	-0.223068	0.204657	-0.088216	-0.070488	-0.972299
50536	1.981755	0.928784	9.412087	-0.090825	0.025958	-0.149953	0.203743	-0.087592	-0.070881	-0.972518
50537	1.915044	0.968809	9.329625	-0.041422	0.009300	-0.239492	0.202846	-0.086921	-0.071504	-0.972721
50538	1.920431	1.070108	9.370031	-0.016478	-0.064251	-0.188435	0.202089	-0.086257	-0.072465	-0.972866
50539	2.029732	1.256037	9.520100	-0.035974	-0.233651	-0.000765	0.201427	-0.085666	-0.073207	-0.973000
50540	1.988373	1.285729	9.585316	0.008779	-0.224507	0.058205	0.200817	-0.085215	-0.073514	-0.973143
50541	2.001576	1.269811	9.566067	-0.021689	-0.218507	0.040239	0.200143	-0.084845	-0.073282	-0.973331
50542	2.031181	1.190275	9.494520	-0.097147	-0.178284	-0.032753	0.199427	-0.084474	-0.072700	-0.973554
50543	1.922068	1.246646	9.570469	0.028186	-0.188449	0.026318	0.198656	-0.084097	-0.071948	-0.973800
50544	1.876202	1.050362	9.580633	-0.013202	-0.005788	0.006258	0.197829	-0.083715	-0.071184	-0.974058
50545	1.839973	1.018592	9.631904	0.007058	0.034412	0.046084	0.197085	-0.083316	-0.070846	-0.974267
50546	1.925797	1.134425	9.707216	-0.023580	-0.093005	0.148057	0.196392	-0.082936	-0.070968	-0.974431
50547	1.819283	1.303570	9.810101	0.144813	-0.189945	0.246643	0.195683	-0.082589	-0.070937	-0.974605
50548	1.831237	1.295927	9.681390	0.107368	-0.213548	0.122353	0.194968	-0.082335	-0.070579	-0.974796
50549	1.794386	1.209707	9.706021	0.106953	-0.126413	0.130281	0.194306	-0.082201	-0.069969	-0.974983
50550	1.808388	1.216802	9.752476	0.103402	-0.141033	0.178862	0.193834	-0.082266	-0.069421	-0.975111
50551	1.777872	1.120154	9.606438	0.077249	-0.073207	0.020313	0.193591	-0.082403	-0.069127	-0.975169
50552	1.835818	1.074235	9.581922	0.006477	-0.057521	0.002306	0.193567	-0.082583	-0.069235	-0.975151
50553	1.757132	1.130677	9.535922	0.096517	-0.082106	-0.051351	0.193624	-0.082755	-0.069675	-0.975093
50554	1.815173	1.118790	9.338418	0.014253	-0.115179	-0.234634	0.193737	-0.082908	-0.070287	-0.975014
50555	1.837570	1.228238	9.302095	0.032561	-0.216673	-0.254121	0.193918	-0.083072	-0.071016	-0.974911
50556	1.828875	1.347593	9.379371	0.098123	-0.298240	-0.167232	0.194165	-0.083172	-0.071452	-0.974822
50557	1.946018	1.278943	9.486110	-0.019698	-0.255948	-0.048310	0.194431	-0.083263	-0.071456	-0.974760
50558	1.932775	1.163861	9.399367	-0.061466	-0.164061	-0.147927	0.194680	-0.083327	-0.071112	-0.974730
50559	1.949165	1.064145	9.246006	-0.133808	-0.111147	-0.305321	0.194856	-0.083306	-0.070847	-0.974716
50560	1.870053	1.015764	9.207868	-0.086475	-0.047268	-0.362609	0.194987	-0.083171	-0.070849	-0.974701
50561	1.870115	1.105230	9.231985	-0.051657	-0.124051	-0.329525	0.195075	-0.082956	-0.071030	-0.974689
50562	1.884494	1.234586	9.360310	-0.001552	-0.225399	-0.187714	0.195157	-0.082706	-0.070983	-0.974697
50563	1.894349	1.082485	9.345304	-0.076994	-0.095907	-0.216859	0.195236	-0.082384	-0.070812	-0.974721
50564	1.928828	1.056303	9.311464	-0.129700	-0.093770	-0.246398	0.195293	-0.081953	-0.070799	-0.974747
50565	1.914106	1.040328	9.284737	-0.136205	-0.076639	-0.277070	0.195293	-0.081368	-0.071203	-0.974767
50566	1.813612	1.234905	9.462952	0.041029	-0.180694	-0.100464	0.195287	-0.080694	-0.071708	-0.974787
50567	1.858270	1.438549	9.598829	0.083653	-0.357606	0.062798	0.195239	-0.080029	-0.071718	-0.974851
50568	1.785811	1.324760	9.570620	0.090532	-0.240291	0.009477	0.195238	-0.079442	-0.071073	-0.974946
50569	1.724295	1.179689	9.567341	0.081435	-0.100624	-0.020747	0.195354	-0.078943	-0.070382	-0.975014
50570	1.679185	1.038084	9.566757	0.060353	0.033516	-0.044609	0.195581	-0.078527	-0.070047	-0.975026
50571	1.784767	1.135960	9.574099	-0.003141	-0.097900	-0.008118	0.195961	-0.078157	-0.070155	-0.974971
50572	1.672382	1.243586	9.662668	0.146646	-0.139157	0.070108	0.196438	-0.077884	-0.070274	-0.974889
50573	1.727113	1.153655	9.751658	0.068584	-0.064432	0.157258	0.196956	-0.077679	-0.070114	-0.974812
50574	1.728757	1.112170	9.687920	0.041580	-0.044085	0.090728	0.197480	-0.077547	-0.069765	-0.974741
50575	1.785042	1.013610	9.662334	-0.051590	0.011487	0.065150	0.197976	-0.077449	-0.069300	-0.974682
50576	1.719047	0.968584	9.566787	-0.020753	0.050746	-0.044695	0.198408	-0.077296	-0.068763	-0.974644
50577	1.763120	0.992307	9.662031	-0.039782	0.016317	0.058799	0.198718	-0.077176	-0.068171	-0.974632
50578	1.644962	1.042664	9.731759	0.097502	0.011654	0.111551	0.198885	-0.077110	-0.067314	-0.974663
50579	1.829156	0.920485	9.682305	-0.122280	0.027786	0.082988	0.198931	-0.077047	-0.066388	-0.974722
50580	1.747663	0.950092	9.620680	-0.042474	0.004892	0.011397	0.198892	-0.076917	-0.065611	-0.974793
50581	1.681028	0.961414	9.618448	0.021701	0.005950	-0.001256	0.198841	-0.076722	-0.065050	-0.974856
50582	1.684782	1.009035	9.682138	0.042614	-0.039769	0.066434	0.198786	-0.076478	-0.064568	-0.974919
50583	1.683853	1.054934	9.710333	0.063183	-0.087102	0.098277	0.198710	-0.076341	-0.064069	-0.974978
50584	1.676028	1.011059	9.678282	0.048513	-0.059589	0.061245	0.198698	-0.076233	-0.063529	-0.975024
50585	1.622054	0.956544	9.762591	0.086977	0.012386	0.129470	0.198792	-0.076197	-0.062950	-0.975045
50586	1.625660	0.921008	9.752347	0.070563	0.032754	0.116725	0.198961	-0.076257	-0.062600	-0.975028
50587	1.669388	0.872329	9.609520	-0.003320	0.034930	-0.020371	0.199200	-0.076352	-0.062538	-0.974976
50588	1.660283	0.965742	9.684347	0.054050	-0.036356	0.060079	0.199453	-0.076487	-0.062491	-0.974917
50589	1.631809	1.041480	9.781444	0.127570	-0.084613	0.157302	0.199676	-0.076779	-0.061990	-0.974880
50590	1.692835	0.929805	9.652009	0.021388	-0.039371	0.030557	0.199869	-0.077144	-0.060947	-0.974878
50591	1.701011	0.719339	9.565635	-0.068979	0.116431	-0.071337	0.199975	-0.077533	-0.059741	-0.974900
50592	1.656462	0.535734	9.442474	-0.107406	0.266520	-0.215365	0.200069	-0.077795	-0.059105	-0.974898
50593	1.698852	0.475639	9.475360	-0.161686	0.306899	-0.180738	0.200199	-0.077878	-0.059352	-0.974850
50594	1.705045	0.715220	9.468453	-0.074102	0.094679	-0.166142	0.200330	-0.077815	-0.060163	-0.974779
50595	1.710789	0.916257	9.523442	0.003750	-0.068981	-0.093764	0.200392	-0.077717	-0.060857	-0.974730
50596	1.725032	1.014408	9.618754	0.039228	-0.142625	0.010923	0.200296	-0.077682	-0.060929	-0.974749
50597	1.702172	0.879712	9.617216	0.006159	-0.014013	-0.006470	0.200157	-0.077704	-0.060558	-0.974799
50598	1.652679	0.778519	9.593758	0.009217	0.087453	-0.046936	0.200093	-0.077719	-0.060257	-0.974829
50599	1.712631	0.774839	9.542710	-0.051480	0.056228	-0.086898	0.200098	-0.077784	-0.060102	-0.974832
50600	1.666725	0.877811	9.580702	0.037677	-0.015982	-0.048636	0.200199	-0.077842	-0.060095	-0.974808
50601	1.627574	0.938468	9.716766	0.117433	-0.038058	0.083273	0.200341	-0.078020	-0.059878	-0.974777
50602	1.665852	0.786783	9.621876	0.015261	0.068475	-0.016276	0.200544	-0.078273	-0.059691	-0.974727
50603	1.711913	0.720968	9.484960	-0.064680	0.089831	-0.148183	0.200782	-0.078533	-0.059711	-0.974656
50604	1.706783	0.755866	9.514093	-0.038214	0.067112	-0.117511	0.201033	-0.078722	-0.059932	-0.974575
50605	1.756486	0.775963	9.565897	-0.065771	0.041345	-0.056269	0.201261	-0.078876	-0.060084	-0.974506
50606	1.793724	0.761853	9.500251	-0.110652	0.031568	-0.115297	0.201465	-0.079018	-0.060049	-0.974455
50607	1.804508	0.714441	9.313135	-0.160866	0.043334	-0.300936	0.201652	-0.079117	-0.060123	-0.974404
50608	1.743078	0.727946	9.267078	-0.105182	0.053184	-0.355782	0.201794	-0.079159	-0.060636	-0.974339
50609	1.737550	0.857015	9.436553	-0.028752	-0.027017	-0.179385	0.201893	-0.079084	-0.061202	-0.974289
50610	1.803191	0.903576	9.520718	-0.061879	-0.075871	-0.081170	0.201953	-0.078958	-0.061331	-0.974279
50611	1.849954	0.909773	9.452709	-0.112659	-0.110287	-0.139070	0.201999	-0.078835	-0.061208	-0.974287
50612	1.720432	0.717317	9.397963	-0.082457	0.104125	-0.232578	0.202079	-0.078636	-0.061156	-0.974290
50613	1.643219	0.631220	9.353707	-0.057490	0.207952	-0.297233	0.202184	-0.078398	-0.061574	-0.974261
50614	1.746297	0.775169	9.275582	-0.109503	0.035109	-0.343072	0.202224	-0.078120	-0.062325	-0.974227
50615	1.812672	0.908077	9.330426	-0.118314	-0.090192	-0.265694	0.202203	-0.077720	-0.063101	-0.974213
50616	1.765994	1.014678	9.627808	-0.006848	-0.112544	0.027550	0.202156	-0.077271	-0.063648	-0.974223
50617	1.776899	1.067893	9.719809	0.006224	-0.146443	0.124665	0.202107	-0.076845	-0.063741	-0.974261
50618	1.729064	0.991689	9.658976	0.003060	-0.071175	0.049556	0.202012	-0.076393	-0.063510	-0.974331
50619	1.771193	0.910336	9.603309	-0.082264	-0.027518	-0.005453	0.201865	-0.075998	-0.063322	-0.974405
50620	1.680528	0.989087	9.721490	0.039522	-0.052180	0.102228	0.201766	-0.075653	-0.063029	-0.974471
50621	1.669807	1.047363	9.835186	0.082973	-0.092556	0.217300	0.201715	-0.075503	-0.062511	-0.974527
50622	1.668256	0.954580	9.683951	0.030868	-0.044120	0.060017	0.201806	-0.075574	-0.061647	-0.974558
50623	1.703960	0.924249	9.505559	-0.029053	-0.072810	-0.111801	0.201963	-0.075783	-0.060826	-0.974561
50624	1.714450	0.855055	9.484120	-0.061768	-0.031693	-0.137247	0.202140	-0.075988	-0.060033	-0.974557
50625	1.719193	0.868136	9.465050	-0.057851	-0.059898	-0.154037	0.202378	-0.076050	-0.059567	-0.974531
50626	1.695870	0.863379	9.378273	-0.048682	-0.066557	-0.243643	0.202618	-0.075858	-0.059324	-0.974511
50627	1.634621	0.975591	9.502852	0.063360	-0.131799	-0.122147	0.202816	-0.075517	-0.059184	-0.974505
50628	1.655729	0.879301	9.583602	0.009238	-0.046178	-0.047554	0.202952	-0.075135	-0.058901	-0.974523
50629	1.570943	0.843769	9.700861	0.080145	0.027934	0.050340	0.203082	-0.074771	-0.058517	-0.974547
50630	1.541559	0.681321	9.755759	0.043417	0.185943	0.085745	0.203219	-0.074520	-0.058094	-0.974563
50631	1.535494	0.591400	9.616018	-0.006599	0.243168	-0.059938	0.203354	-0.074377	-0.057895	-0.974558
50632	1.531866	0.607773	9.724660	0.014444	0.242597	0.047634	0.203514	-0.074276	-0.057891	-0.974533
50633	1.512346	0.609228	9.787877	0.038987	0.256389	0.106669	0.203655	-0.074213	-0.057794	-0.974514
50634	1.541827	0.566495	9.743444	-0.009876	0.274488	0.064427	0.203830	-0.074251	-0.057607	-0.974485
50635	1.591687	0.550945	9.785514	-0.053759	0.269371	0.112928	0.204035	-0.074339	-0.057187	-0.974460
50636	1.673920	0.441954	9.676149	-0.181777	0.312428	0.010476	0.204187	-0.074440	-0.056701	-0.974449
50637	1.672701	0.438135	9.628104	-0.184264	0.301761	-0.036939	0.204198	-0.074542	-0.056337	-0.974460
50638	1.622108	0.492040	9.693318	-0.105190	0.276386	0.023282	0.204072	-0.074686	-0.056098	-0.974489
50639	1.662150	0.480365	9.615517	-0.152120	0.257914	-0.047340	0.203857	-0.074840	-0.055973	-0.974530
50640	1.766819	0.550797	9.458210	-0.235321	0.132234	-0.178898	0.203551	-0.074931	-0.056123	-0.974578
50641	1.757625	0.710592	9.361393	-0.175096	-0.016977	-0.262875	0.203151	-0.074885	-0.056574	-0.974639
50642	1.756708	0.844556	9.554678	-0.100454	-0.104648	-0.062296	0.202587	-0.074757	-0.056811	-0.974752
50643	1.681388	0.980013	9.516864	0.014285	-0.203958	-0.101025	0.201896	-0.074614	-0.056580	-0.974920
50644	1.641452	0.939995	9.325287	0.008268	-0.185697	-0.299308	0.201183	-0.074411	-0.056076	-0.975112
50645	1.545284	0.983149	9.361796	0.113079	-0.192786	-0.276035	0.200588	-0.074083	-0.055570	-0.975289
50646	1.471003	0.954457	9.386246	0.167190	-0.144814	-0.266614	0.200151	-0.073786	-0.055077	-0.975429
50647	1.494239	0.967945	9.171306	0.121221	-0.204358	-0.473198	0.199932	-0.073481	-0.054704	-0.975518
50648	1.469503	0.913104	8.875318	0.082101	-0.191320	-0.772714	0.199914	-0.073191	-0.054494	-0.975555
50649	1.378399	0.897818	8.544245	0.115087	-0.188708	-1.114336	0.200166	-0.072935	-0.054683	-0.975512
50650	1.306900	0.942826	7.874902	0.113386	-0.287945	-1.780551	0.200939	-0.072557	-0.055354	-0.975343
50651	1.166172	0.994125	6.917763	0.141257	-0.398531	-2.739861	0.202637	-0.071865	-0.056867	-0.974956
50652	1.339662	0.693357	6.205649	-0.232030	-0.270623	-3.436295	0.205377	-0.070817	-0.059237	-0.974318
50653	1.582925	0.329860	5.569071	-0.691320	-0.101221	-4.055889	0.209182	-0.069084	-0.062993	-0.973397
50654	1.606954	0.625029	5.094860	-0.669715	-0.413219	-4.491875	0.213344	-0.066220	-0.068613	-0.972312
50655	1.058084	0.901249	4.527691	-0.153830	-0.485853	-5.104003	0.217054	-0.061756	-0.074950	-0.971317
50656	0.694308	0.746741	4.086311	0.015372	-0.226778	-5.607279	0.220020	-0.055453	-0.082279	-0.970436
50657	0.553130	1.048478	3.924673	0.194140	-0.414877	-5.738652	0.222616	-0.047121	-0.090929	-0.969512
50658	0.006095	1.413545	3.869325	0.759291	-0.457007	-5.789834	0.225419	-0.036924	-0.100821	-0.968327
50659	-0.543831	1.535056	4.293225	1.212284	-0.164956	-5.387157	0.228758	-0.025192	-0.111401	-0.966760
50660	-0.422803	2.322570	5.120108	1.322386	-0.634086	-4.368853	0.232341	-0.012543	-0.120816	-0.965020
50661	-1.004178	2.639205	5.242904	1.832801	-0.547802	-4.173521	0.235852	0.000542	-0.127346	-0.963409
50662	-1.442029	2.167013	4.249828	1.931918	-0.139090	-5.221061	0.238947	0.014335	-0.132613	-0.961828
50663	-2.563110	1.955960	3.508702	2.769611	0.419708	-5.958177	0.241600	0.029705	-0.138836	-0.959933
50664	-2.109314	2.203730	4.479885	2.204532	0.289438	-4.870245	0.243508	0.047149	-0.145994	-0.957688
50665	-1.567971	3.556862	5.572567	1.945682	-0.783242	-3.350626	0.244750	0.066624	-0.151911	-0.955292
50666	-2.631558	3.860306	5.677908	2.721918	-0.475303	-2.999203	0.245312	0.087379	-0.154710	-0.953023
50667	-4.138585	3.409057	4.772776	3.775401	0.406812	-3.721581	0.245207	0.109465	-0.155990	-0.950557
50668	-6.003416	2.882745	3.474099	5.252818	1.457129	-4.646074	0.243992	0.133633	-0.159105	-0.947257
50669	-6.131739	3.405377	4.709300	4.848769	1.380525	-3.034956	0.241944	0.160655	-0.163169	-0.942883
50670	-5.807695	4.668802	5.906539	4.190496	0.421752	-1.289168	0.239671	0.189412	-0.165901	-0.937634
50671	-7.157883	6.094918	6.856186	4.877823	0.058518	0.749374	0.238067	0.218459	-0.163892	-0.932062
50672	-8.903326	4.789148	7.542579	4.831133	2.006652	1.662742	0.237008	0.246498	-0.156577	-0.926579
50673	-8.591607	3.868277	6.667645	4.140840	2.235127	0.725753	0.234736	0.273569	-0.149046	-0.920785
50674	-9.092464	4.592257	6.751241	4.144143	1.634934	1.565044	0.231828	0.300865	-0.140102	-0.914389
50675	-9.295083	5.078459	6.039899	4.297462	0.944503	1.556865	0.228883	0.328776	-0.129777	-0.907015
50676	-10.539172	6.056126	7.236062	4.019354	0.469786	3.739989	0.227009	0.357300	-0.117205	-0.898369
50677	-11.751776	4.650038	9.777287	1.817352	1.927074	5.942511	0.226523	0.383959	-0.101853	-0.889319
50678	-11.379206	3.986728	8.725012	1.413313	1.794608	4.892010	0.226056	0.408302	-0.087265	-0.880098
50679	-11.531762	2.615157	6.522456	2.071690	2.714172	3.250917	0.224062	0.432064	-0.076008	-0.870253
50680	-11.817661	3.131195	5.437822	2.589503	2.123345	3.139890	0.218948	0.457157	-0.070679	-0.859112
50681	-12.484606	4.818672	7.929047	0.627303	0.405240	5.721991	0.212791	0.483169	-0.067446	-0.846592
50682	-13.099271	6.052281	11.596660	-2.751746	-1.133257	8.456400	0.208554	0.507219	-0.062998	-0.833826
50683	-12.376801	6.750907	10.668686	-2.863332	-2.359847	7.471784	0.208841	0.528261	-0.054621	-0.821183
50684	-11.737496	5.349615	8.209064	-1.937021	-1.396572	5.288215	0.212955	0.546906	-0.044147	-0.808452
50685	-11.777632	4.067836	9.331722	-3.849911	-0.750269	5.251263	0.218815	0.563269	-0.033524	-0.796068
50686	-11.459256	3.187260	9.959314	-5.250411	-0.549961	4.773750	0.224263	0.577364	-0.024057	-0.784716
50687	-11.072562	2.702140	9.181411	-5.198840	-0.384481	3.862300	0.227243	0.590430	-0.017827	-0.774232
50688	-10.291451	4.052251	8.434053	-4.596601	-1.924899	3.172624	0.227800	0.602989	-0.013854	-0.764408
50689	-9.982739	5.005615	8.181121	-4.441984	-3.016422	2.946542	0.227890	0.615018	-0.009750	-0.754801
50690	-10.019158	6.467506	9.416885	-5.385828	-4.863685	3.537020	0.231002	0.625363	-0.002424	-0.745354
50691	-10.242572	6.502720	10.089875	-6.112855	-5.317631	3.727770	0.240153	0.632654	0.010543	-0.736183
50692	-9.935883	5.293983	8.829946	-5.391575	-4.314735	2.717970	0.254685	0.636889	0.027665	-0.727147
50693	-9.710685	4.506900	6.755940	-3.725796	-3.279496	1.832359	0.273308	0.638580	0.047614	-0.717810
50694	-9.768830	4.367674	7.515352	-4.277689	-3.760315	1.957423	0.294675	0.636966	0.069038	-0.708995
50695	-9.495036	2.500561	7.537439	-5.013941	-2.660133	1.186953	0.317805	0.633233	0.090911	-0.699822
50696	-10.171206	0.031530	7.444304	-6.174348	-0.783708	1.147541	0.337818	0.628872	0.107996	-0.691907
50697	-10.102024	0.061353	6.341362	-5.199990	-0.451808	0.912036	0.355754	0.623738	0.122297	-0.685152
50698	-10.010177	-0.225239	4.734106	-4.096265	0.553751	0.462483	0.371167	0.618347	0.133737	-0.679704
50699	-9.592484	0.461663	3.577533	-2.737135	0.620888	0.043791	0.383432	0.613629	0.141546	-0.675577
50700	-9.489530	1.289126	2.855950	-1.621628	0.520034	0.034610	0.393335	0.609524	0.146948	-0.672439
50701	-9.275607	1.710023	2.299135	-0.900837	0.592247	-0.164654	0.401686	0.605559	0.150955	-0.670194
50702	-8.774309	1.663079	1.736649	-0.498164	0.888188	-0.772061	0.408922	0.601690	0.153903	-0.668630
50703	-8.389485	1.813463	1.567158	-0.232487	0.835824	-1.130804	0.414989	0.598140	0.155697	-0.667662
50704	-8.184085	1.996741	1.554106	-0.057483	0.718446	-1.276781	0.420075	0.594939	0.156981	-0.667040
50705	-8.168974	2.063565	1.603238	-0.020783	0.693012	-1.264012	0.424045	0.592185	0.157606	-0.666830
50706	-8.382509	2.093545	1.866662	-0.167084	0.617642	-0.996554	0.426683	0.590035	0.157353	-0.667114
50707	-8.735065	1.971171	2.182419	-0.470269	0.644742	-0.630488	0.428071	0.588306	0.156203	-0.668021
50708	-8.701426	1.916211	2.310657	-0.572554	0.616314	-0.646556	0.428548	0.586661	0.154654	-0.669521
50709	-8.577882	1.529673	1.923469	-0.581879	1.109081	-0.978045	0.427863	0.585648	0.152252	-0.671393
50710	-8.557176	1.757470	1.717340	-0.264009	1.146231	-0.987746	0.425084	0.586347	0.147557	-0.673593
50711	-8.402776	2.766899	2.099409	0.223011	0.241203	-0.726332	0.421307	0.588386	0.141652	-0.675453
50712	-8.358333	2.997767	2.402157	0.139908	-0.108301	-0.615567	0.417523	0.591269	0.135467	-0.676553
50713	-8.452377	3.378602	2.732779	0.106832	-0.514104	-0.323257	0.414208	0.594772	0.129196	-0.676747
50714	-9.422103	3.801437	3.006366	0.073175	-0.554809	0.768013	0.412321	0.598020	0.124600	-0.675898
50715	-10.110576	3.715187	3.133825	-0.197214	-0.297937	1.399771	0.412531	0.599929	0.123156	-0.674341
50716	-10.699266	3.924244	3.221918	-0.196597	-0.244907	2.026063	0.414522	0.600467	0.123964	-0.672491
50717	-10.732986	4.340759	3.225225	0.076346	-0.484993	2.195651	0.418446	0.599747	0.126631	-0.670202
50718	-10.519442	3.918280	2.941120	-0.011428	-0.098528	1.791271	0.423412	0.598451	0.129597	-0.667670
50719	-10.258947	4.061906	2.784324	0.212941	-0.144000	1.564095	0.428986	0.597139	0.131413	-0.664926
50720	-10.068351	3.981363	2.509977	0.322362	0.088390	1.296328	0.435226	0.596324	0.130859	-0.661704
50721	-9.634591	3.663876	2.358778	0.152101	0.305823	0.755867	0.441901	0.596483	0.127328	-0.657814
50722	-9.736166	4.257094	2.646332	0.248371	-0.048525	1.134925	0.448685	0.597779	0.120224	-0.653367
50723	-10.218257	4.902196	2.856422	0.327540	-0.157288	1.869069	0.456110	0.599634	0.110689	-0.648190
50724	-10.377064	5.190415	2.747079	0.348257	0.065676	2.105099	0.463918	0.601669	0.098950	-0.642638
50725	-10.128184	5.680973	2.632849	0.551993	0.025256	2.081321	0.472318	0.603289	0.086261	-0.636803
50726	-9.780938	5.947336	2.689388	0.505443	-0.039379	1.934695	0.481643	0.603794	0.074192	-0.630831
50727	-9.160420	5.795257	2.515348	0.419246	0.128163	1.305904	0.491705	0.602981	0.063650	-0.624971
50728	-8.511516	5.479341	2.241338	0.357347	0.397133	0.541053	0.502182	0.600817	0.055127	-0.619511
50729	-7.755420	5.476958	2.166766	0.458286	0.276621	-0.089185	0.512673	0.597545	0.048323	-0.614631
50730	-6.997204	5.152831	1.866431	0.547364	0.418541	-0.951674	0.523078	0.593229	0.043499	-0.610391
50731	-6.601178	4.803709	1.658805	0.502978	0.674153	-1.524584	0.532763	0.588505	0.039878	-0.606824
50732	-6.445375	4.943381	1.833548	0.500026	0.570827	-1.520297	0.541464	0.583530	0.037124	-0.604096
50733	-6.310332	4.631188	1.965568	0.227823	0.676656	-1.774014	0.549146	0.578267	0.035138	-0.602337
50734	-6.141944	4.760629	2.240948	0.199758	0.467393	-1.741186	0.555791	0.572714	0.033545	-0.601639
50735	-5.820842	4.323877	2.346963	-0.051320	0.480693	-2.206679	0.561858	0.566293	0.032783	-0.602124
50736	-5.058278	3.232065	2.179982	-0.454646	0.608410	-3.471798	0.567075	0.558938	0.033003	-0.604090
50737	-4.476408	2.422442	1.993896	-0.692519	0.718545	-4.438171	0.570407	0.551424	0.034004	-0.607792
50738	-3.759153	0.954350	1.414323	-1.141631	1.190770	-6.028425	0.570597	0.544921	0.036072	-0.613334
50739	-4.169908	1.032742	1.302924	-1.043006	1.520037	-5.719598	0.565473	0.541738	0.037915	-0.620743
50740	-5.949977	2.313892	1.040045	-0.228935	2.367670	-3.797893	0.554842	0.542086	0.040312	-0.629816
50741	-8.225029	3.979480	1.629164	0.321500	2.692138	-0.936653	0.540291	0.544566	0.043780	-0.640013
50742	-9.982065	6.184655	3.239826	0.795460	1.612953	2.234775	0.525061	0.546677	0.048603	-0.650456
50743	-10.573640	7.817355	4.448451	1.345493	0.167882	4.002124	0.511838	0.547050	0.054600	-0.660134
50744	-10.656183	8.758118	4.354040	2.312784	-0.467122	4.457546	0.501291	0.546947	0.059233	-0.667868
50745	-9.302111	7.514764	3.662619	2.137717	-0.458408	2.501254	0.493300	0.547904	0.060287	-0.672920
50746	-8.502986	7.462130	4.416053	1.670505	-1.495225	2.122920	0.487895	0.550169	0.057756	-0.675231
50747	-8.348578	7.257116	4.930548	1.122134	-1.836250	2.105507	0.486125	0.551998	0.054767	-0.675263
50748	-8.220135	6.842391	4.920650	0.800622	-1.668670	1.813838	0.488573	0.551537	0.054285	-0.673911
50749	-7.913710	5.410538	4.202713	0.315230	-0.622563	0.631265	0.493907	0.548680	0.057221	-0.672110
50750	-7.592257	3.538747	3.372108	-0.396099	0.682698	-0.817524	0.499203	0.545175	0.061824	-0.670640
50751	-7.389729	2.998814	3.673952	-0.925342	0.647138	-1.105009	0.502465	0.542555	0.065865	-0.669944
50752	-7.487263	3.394171	4.120550	-0.887629	0.222416	-0.662775	0.503969	0.540788	0.068951	-0.669932
50753	-7.388442	3.724482	3.971720	-0.493774	0.086596	-0.648409	0.504299	0.539838	0.070888	-0.670249
50754	-7.192263	4.053787	3.936259	-0.183603	-0.178859	-0.669917	0.503860	0.539793	0.071567	-0.670542
50755	-7.157783	4.764571	4.084973	0.258359	-0.650548	-0.318899	0.503393	0.540454	0.071749	-0.670341
50756	-7.312075	5.701296	4.810918	0.464260	-1.489171	0.516057	0.503764	0.541154	0.072258	-0.669442
50757	-7.383342	6.496377	5.465591	0.623979	-2.254132	1.192714	0.505819	0.541221	0.073590	-0.667692
50758	-7.042987	7.548115	6.052442	1.086212	-3.317845	1.633780	0.509650	0.540389	0.075340	-0.665252
50759	-7.007303	8.761931	5.895870	2.144836	-3.746632	2.103550	0.515038	0.538893	0.076838	-0.662137
50760	-6.466860	10.003212	5.332505	3.526735	-4.161192	2.043331	0.520905	0.538029	0.076112	-0.658324
50761	-5.466784	11.812968	4.902239	5.265838	-5.137533	1.991410	0.526946	0.538357	0.072284	-0.653663
50762	-4.439920	14.440026	4.623396	7.494124	-6.518681	2.473029	0.534098	0.539272	0.066445	-0.647697
50763	-4.509023	16.535066	4.974989	8.785240	-7.263361	3.918067	0.545653	0.537711	0.062372	-0.639719
50764	-4.833397	16.357804	4.515931	8.883624	-6.163205	4.129782	0.562385	0.533401	0.059959	-0.628977
50765	-5.380921	15.203420	3.316868	8.617136	-3.902277	3.661972	0.583098	0.527771	0.057469	-0.614940
50766	-5.914925	14.486760	2.375262	8.373272	-1.903864	3.480030	0.605473	0.522880	0.052321	-0.597714
50767	-6.890078	14.988076	2.497622	8.165636	-0.599895	4.721130	0.629798	0.517152	0.046436	-0.577713
50768	-8.437831	15.131194	2.414694	7.451002	1.491900	5.939276	0.657156	0.508007	0.042282	-0.555236
50769	-9.908603	15.227190	2.624585	6.381623	3.479261	7.038509	0.686220	0.496235	0.038354	-0.530455
50770	-10.396665	13.854183	2.650307	4.508446	5.020947	6.354549	0.715539	0.482643	0.034205	-0.503874
50771	-10.931813	12.901401	3.034253	2.660138	6.127869	6.011271	0.743723	0.468484	0.028412	-0.476016
50772	-11.327311	12.178999	3.489056	0.941512	6.925994	5.673485	0.770983	0.453170	0.021205	-0.446959
50773	-11.802260	11.618567	3.697213	-0.688387	7.828447	5.222496	0.797127	0.436974	0.012175	-0.416527
50774	-11.561116	10.358435	3.263876	-2.161342	8.342395	3.499438	0.821780	0.420274	0.001244	-0.384767
50775	-11.263429	9.317889	3.356529	-3.581021	8.269606	2.171575	0.844806	0.403131	-0.011624	-0.351642
50776	-10.952901	7.728690	3.702469	-5.277779	7.555282	0.597208	0.866300	0.384588	-0.026092	-0.317703
50777	-10.415581	6.082764	4.152089	-6.654799	6.346585	-0.976701	0.885363	0.366254	-0.042770	-0.283127
50778	-9.334470	4.513646	3.954093	-7.114045	5.051278	-2.960528	0.901347	0.349766	-0.061420	-0.247921
50779	-7.868738	2.951549	4.085665	-7.033647	3.195718	-4.559416	0.914522	0.334484	-0.080952	-0.212641
50780	-6.928150	1.833313	4.214782	-6.975080	1.794846	-5.662412	0.925053	0.320166	-0.100616	-0.177898
50781	-6.654870	1.923521	4.599520	-7.107978	1.362358	-5.721301	0.933246	0.306601	-0.119836	-0.143831
50782	-6.252282	1.198128	4.520805	-7.081176	0.510115	-6.565696	0.939398	0.293578	-0.138101	-0.110776
50783	-5.548189	0.475719	4.354762	-6.600129	-0.400085	-7.314891	0.943604	0.281414	-0.155365	-0.079241
50784	-4.937943	0.493817	4.406329	-6.130008	-0.756622	-7.386854	0.945995	0.270495	-0.171721	-0.049375
50785	-5.741361	1.434962	4.514114	-7.010054	-0.061040	-7.314038	0.947140	0.259889	-0.186870	-0.021509
50786	-6.604148	0.804993	3.410870	-7.438188	-0.186036	-9.089276	0.947175	0.250387	-0.200376	0.003964
50787	-6.730921	0.073761	2.237671	-7.021736	-0.517350	-10.670057	0.945860	0.244394	-0.211882	0.026946
50788	-6.146097	-0.608335	1.731057	-6.124618	-1.147046	-11.331869	0.943307	0.243283	-0.220882	0.046864
50789	-5.902829	-0.625482	1.946178	-5.911199	-1.460994	-11.206037	0.940026	0.246697	-0.227075	0.062676
50790	-5.410347	-1.826283	2.249787	-5.240713	-2.781593	-11.382479	0.936126	0.255434	-0.230480	0.072804
50791	-4.175430	-3.688261	1.665507	-3.372534	-4.089295	-12.202883	0.931036	0.272449	-0.230485	0.076287
50792	-3.006761	-3.662742	0.585172	-1.894789	-3.374462	-12.608587	0.923393	0.300815	-0.227104	0.072656
50793	-1.753020	-2.498838	0.351872	-1.023380	-2.141549	-11.762735	0.911281	0.342529	-0.220193	0.061293
50794	0.057736	0.751422	1.324968	-0.600032	-0.376340	-8.463754	0.892571	0.396323	-0.211116	0.040939
50795	5.303261	4.672184	0.798807	3.535158	1.660840	-3.874663	0.865260	0.459255	-0.200660	0.012064
50796	12.145443	11.672946	1.322394	8.610962	2.483601	4.493197	0.829482	0.524198	-0.191544	-0.022064
50797	15.705135	17.730243	2.120993	11.265382	0.776332	11.092687	0.792885	0.577893	-0.184727	-0.056997
50798	17.032789	20.175158	2.268397	12.795577	-2.011938	13.291768	0.764042	0.613468	-0.179273	-0.088081
50799	18.725691	16.482203	2.628555	15.034487	-5.955400	9.356447	0.745686	0.633809	-0.173067	-0.110844
50800	15.982387	12.936305	2.276417	13.176210	-6.325891	4.825037	0.733704	0.647278	-0.165103	-0.124302
50801	13.012625	12.163386	1.604230	11.025440	-5.140650	3.296096	0.726766	0.656640	-0.154164	-0.129877
50802	8.243061	9.333410	-0.361368	7.699885	-1.928980	-0.211892	0.723107	0.663900	-0.139474	-0.130002
50803	3.574475	9.969781	-0.159481	3.480815	-0.430559	0.181928	0.716828	0.674367	-0.123456	-0.127067
50804	-0.436794	10.388331	-0.957473	0.130695	1.484908	0.521405	0.708877	0.686262	-0.106586	-0.123194
50805	-3.348736	12.085999	-2.251482	-2.077273	3.301448	2.316650	0.700022	0.698157	-0.090083	-0.120131
50806	-5.296089	12.907895	-2.081491	-3.847517	3.235104	3.366931	0.691402	0.708709	-0.074849	-0.118711
50807	-4.997658	9.748095	-2.397107	-3.543455	3.140869	0.351629	0.682632	0.718405	-0.061183	-0.119013
50808	-5.385209	7.326973	-4.401265	-3.514566	4.944189	-1.735582	0.667294	0.733082	-0.050632	-0.121432
50809	-4.973444	7.561074	-5.630497	-2.736513	5.532737	-1.125391	0.643584	0.753695	-0.043697	-0.125831
50810	-4.814413	9.041889	-6.512406	-2.148287	5.390090	0.845667	0.612097	0.778725	-0.040237	-0.131552
50811	-4.061772	9.808641	-5.984461	-1.409133	3.596030	1.741813	0.575081	0.805398	-0.039896	-0.137932
50812	-3.170523	10.667580	-5.039235	-0.694884	1.169117	2.323557	0.535507	0.831031	-0.041750	-0.144489
50813	-2.286488	11.743910	-5.067648	0.237998	-0.567044	3.162286	0.498641	0.852441	-0.043943	-0.150901
50814	-1.645634	12.415106	-5.073225	0.892689	-2.036012	3.512863	0.469156	0.867847	-0.044570	-0.157317
50815	-1.053685	12.378067	-6.161748	1.831913	-2.054271	3.777010	0.447805	0.878040	-0.043084	-0.163280
50816	0.780435	10.066093	-6.411576	3.540936	-1.470255	1.515240	0.428871	0.886456	-0.042640	-0.168662
50817	2.335046	18.877684	-3.642149	4.540227	-10.213232	5.999478	0.399439	0.898861	-0.049949	-0.173213
50818	-1.484492	23.459008	-0.753388	-0.150129	-15.162403	8.163777	0.390540	0.902865	-0.054551	-0.171281
50819	-0.306496	10.544864	-7.419140	2.617228	-2.194019	2.623730	0.384073	0.906039	-0.056919	-0.168349
50820	3.455857	6.873028	-5.624782	5.328261	-1.821321	-2.124309	0.380172	0.908635	-0.057079	-0.163075
50821	2.466615	4.334558	-8.703870	5.273529	2.146902	-1.554084	0.369258	0.914423	-0.057395	-0.155516
50822	2.681360	6.715360	-8.184268	5.170657	-0.121872	-0.194346	0.359935	0.919922	-0.054172	-0.145796
50823	2.756095	6.597779	-9.332007	5.389623	0.541513	0.621111	0.349844	0.925930	-0.048791	-0.133721
50824	3.287342	8.247069	-9.400698	5.675678	-0.895480	1.770495	0.340522	0.931665	-0.042362	-0.119374
50825	4.200072	8.691499	-9.149353	6.219265	-1.630934	1.829700	0.333500	0.936471	-0.035539	-0.102652
50826	5.329974	7.703442	-9.576947	7.089098	-0.780978	1.527056	0.326686	0.941000	-0.028949	-0.083404
50827	6.392045	7.711294	-9.772059	7.779308	-0.811750	1.789786	0.317098	0.946121	-0.022530	-0.061615
50828	7.105679	8.390317	-10.205730	8.073638	-1.216649	2.771061	0.306525	0.950986	-0.016426	-0.037393
50829	7.734559	8.566721	-9.914750	8.137632	-1.622523	2.939708	0.296965	0.954764	-0.010958	-0.010817
50830	8.470023	8.223379	-11.249122	8.265245	-0.631586	4.227841	0.288865	0.957177	-0.006255	0.018178
50831	9.874048	7.526363	-13.170465	8.784860	0.985430	5.978523	0.280002	0.958704	-0.001984	0.049821
50832	11.819414	7.842304	-14.663539	9.494358	1.529201	8.175808	0.270626	0.958961	0.002337	0.084555
50833	13.823596	7.457568	-16.333824	9.846393	2.805104	10.397274	0.262108	0.957170	0.006660	0.122803
50834	16.212771	7.832309	-18.326825	9.909871	3.685067	13.594667	0.254263	0.952882	0.011210	0.165046
50835	19.006867	9.700184	-20.377231	9.488276	3.446726	17.901225	0.249181	0.944927	0.015426	0.211620
50836	22.908250	12.618833	-22.132363	9.095497	2.580807	23.102690	0.250258	0.931680	0.017324	0.262759
50837	26.789692	15.185551	-21.117199	8.867285	1.316705	26.411562	0.261126	0.911285	0.013324	0.318112
50838	27.589856	15.103542	-20.874755	5.055765	2.886887	27.454370	0.286579	0.881041	-0.001600	0.376347
50839	23.804490	9.565032	-17.645697	1.303920	7.104630	20.448146	0.327636	0.841554	-0.027910	0.428559
50840	16.349580	10.204680	-14.809060	-4.642648	5.644588	13.344336	0.383900	0.795960	-0.064893	0.463527
50841	6.866904	12.553481	-13.777333	-11.858012	4.103861	5.538949	0.464065	0.741166	-0.113889	0.471536
50842	-0.292148	9.872244	-22.030807	-17.942222	14.672681	-3.346141	0.571918	0.667246	-0.165406	0.447586
50843	-6.672642	-4.011408	-35.993937	-11.681955	31.977312	-23.496056	0.696024	0.567989	-0.187552	0.397194
50844	-27.399798	-22.016867	-30.541573	-6.163680	12.981841	-53.977906	0.803843	0.464149	-0.152822	0.339185
50845	-77.945035	-13.804846	-5.940806	-51.209060	-34.490770	-59.500692	0.855198	0.411259	-0.083992	0.304053
50846	-85.489948	66.923379	28.706165	-106.232812	-19.600876	20.419748	0.902745	0.332243	-0.086355	0.259248
50847	-10.636191	41.559437	-24.462345	-27.092244	39.878351	-18.541409	0.962927	0.123222	-0.126736	0.203776
50848	16.794655	-71.499010	-27.738328	49.122657	-54.976287	-36.171723	0.973598	-0.003394	-0.144210	0.176913
50849	-0.791371	-42.908821	-13.121480	19.932945	-36.805115	-25.546026	0.955996	0.132872	-0.129776	0.227103
50850	-0.793767	39.741746	4.188319	-21.617392	29.873768	5.351168	0.923076	0.247972	-0.132706	0.262352
50851	12.910396	19.371547	14.759875	-1.338113	14.189527	13.733994	0.950489	0.154486	-0.129311	0.236608
50852	0.180345	-17.936434	-10.085073	10.290892	-12.450919	-22.539661	0.964343	0.098709	-0.124089	0.211898
50853	-4.736190	0.576232	5.764813	-5.477389	-2.859730	-5.592768	0.960233	0.119284	-0.120477	0.221833
50854	-1.318384	7.939206	16.201199	-7.590987	1.835277	6.504678	0.960168	0.118776	-0.118380	0.223508
50855	-1.219890	-0.497419	6.838536	-2.014280	-2.772293	-3.750004	0.961949	0.107870	-0.115576	0.222846
50856	0.238397	2.483826	10.499645	-2.703521	-0.500817	0.623197	0.961321	0.113450	-0.114810	0.223179
50857	-0.392054	1.902205	8.472371	-2.637713	-0.687364	-1.559171	0.963268	0.103881	-0.113792	0.219942
50858	-0.647631	1.731991	7.242296	-2.578064	-0.529042	-2.816711	0.964088	0.102734	-0.112963	0.217299
50859	-0.724935	3.007785	8.721930	-3.447618	0.248916	-1.228051	0.965010	0.100119	-0.111502	0.215172
50860	-1.106349	2.343517	8.343429	-3.407719	-0.355961	-1.775925	0.965599	0.099490	-0.110106	0.213534
50861	-1.054914	3.439899	9.738232	-4.053512	0.325266	-0.260613	0.966016	0.099262	-0.109446	0.212088
50862	-1.030040	3.715453	10.589283	-4.294287	0.418008	0.598002	0.966544	0.096621	-0.110137	0.210539
50863	-0.627962	2.189540	10.381235	-3.280976	-0.665749	0.274416	0.967141	0.092645	-0.111696	0.208756
50864	-0.521640	1.904088	11.339344	-3.277003	-1.042831	1.171479	0.967305	0.091476	-0.113434	0.207572
50865	-1.045342	3.133902	12.347122	-4.489361	-0.360588	2.148952	0.967108	0.091776	-0.115734	0.207088
50866	-1.229071	3.228477	12.303769	-4.747196	-0.340369	2.047503	0.966788	0.090948	-0.118724	0.207254
50867	-2.339007	2.856827	11.837420	-5.548964	-1.018816	1.229380	0.965899	0.092419	-0.121411	0.209183
50868	-2.944301	2.593131	11.374306	-5.909832	-1.477767	0.563084	0.964631	0.096888	-0.122650	0.212267
50869	-2.090730	2.466896	11.440499	-5.090545	-1.423636	0.836206	0.963481	0.103331	-0.121473	0.215109
50870	-0.410793	3.665370	14.250792	-4.595818	-0.535031	4.161564	0.963241	0.106524	-0.118833	0.216099
50871	1.314986	4.454959	17.189403	-3.898245	0.164605	7.560370	0.964497	0.100220	-0.116820	0.214603
50872	1.886306	4.293790	18.733534	-3.648477	0.268789	9.148569	0.966273	0.085611	-0.117439	0.212592
50873	0.855600	2.578604	17.029214	-3.686247	-0.744727	7.015886	0.967204	0.068262	-0.121402	0.212410
50874	-0.071822	0.376656	15.452777	-3.503663	-2.373500	5.053790	0.966436	0.056300	-0.128168	0.215418
50875	-0.045566	-1.635034	13.498197	-2.427000	-3.659174	3.055573	0.964478	0.050691	-0.136325	0.220517
50876	0.946521	-2.760350	11.399708	-0.730718	-3.974546	1.238733	0.961405	0.057442	-0.144410	0.227039
50877	2.304382	0.215390	11.990418	-1.160825	-1.154812	2.288147	0.957492	0.073280	-0.152139	0.233864
50878	2.184918	3.257196	11.808156	-2.770959	1.109602	2.265880	0.953611	0.086632	-0.160317	0.239622
50879	2.261486	4.417325	11.121228	-3.273659	2.007957	1.743759	0.950189	0.093773	-0.169831	0.243934
50880	2.348886	4.787222	10.977913	-3.586829	2.248943	1.633671	0.947240	0.093593	-0.180633	0.247686
50881	1.265584	4.184200	10.269623	-4.237414	1.438046	0.411880	0.944450	0.087226	-0.192902	0.251385
50882	0.885716	3.010272	9.135054	-3.875883	0.642086	-0.989379	0.941433	0.076834	-0.206657	0.255136
50883	1.330214	1.490865	7.219642	-2.357460	0.125978	-2.703913	0.937840	0.065050	-0.221554	0.259112
50884	2.051539	1.245428	6.571527	-1.685989	0.498206	-3.041607	0.933565	0.053838	-0.236960	0.263453
50885	1.888282	1.858780	7.135269	-2.626962	0.934012	-2.731039	0.929145	0.039541	-0.253117	0.266566
50886	0.783882	1.752903	6.862833	-3.538001	0.541159	-3.651271	0.924638	0.019783	-0.270670	0.267191
50887	0.411678	0.628478	5.737565	-2.954330	-0.192492	-4.842017	0.919665	-0.004941	-0.290122	0.264616
50888	0.010823	-1.036967	3.962526	-1.718030	-1.375254	-6.359065	0.914121	-0.032161	-0.310371	0.258878
50889	0.600781	-2.085682	2.178183	-0.002279	-1.690146	-7.244474	0.908073	-0.055492	-0.330044	0.251782
50890	0.673885	-2.236945	2.337376	-0.159049	-1.729521	-7.001603	0.901990	-0.073513	-0.348001	0.244753
50891	0.656882	-1.483398	3.840710	-1.632645	-1.060349	-6.126314	0.896139	-0.090268	-0.364386	0.236664
50892	-0.508763	-1.057139	3.759157	-2.624307	-1.135887	-7.106040	0.890637	-0.111681	-0.379410	0.224369
50893	-1.004461	-1.894214	2.567841	-1.958480	-2.004888	-7.987323	0.885577	-0.135358	-0.392698	0.207892
50894	-0.823476	-2.786235	1.478500	-0.973720	-2.680610	-8.234817	0.881557	-0.158204	-0.403455	0.187224
50895	-0.234744	-3.597229	0.745720	-0.094876	-3.167103	-7.939843	0.879471	-0.175428	-0.411084	0.163601
50896	1.327485	-3.547996	1.758016	-0.134835	-2.270308	-6.310408	0.880263	-0.184075	-0.414829	0.138454
50897	2.303980	-2.308412	3.471233	-1.099358	-0.435624	-5.198820	0.883624	-0.188294	-0.414498	0.109293
50898	2.306639	-0.700129	4.738500	-2.130182	1.345138	-5.131199	0.888090	-0.193806	-0.410295	0.073438
50899	2.678210	0.027685	5.039000	-1.951771	2.269509	-4.954615	0.892475	-0.203064	-0.401778	0.028761
50900	2.076437	-0.074329	4.885708	-2.034576	2.085763	-5.375198	0.896283	-0.212570	-0.388535	-0.023045
50901	1.330878	0.273958	5.317113	-2.487727	2.615656	-5.680510	0.898163	-0.220800	-0.371384	-0.081393
50902	0.484041	-0.049855	4.944692	-2.618232	2.320012	-6.286285	0.897489	-0.226149	-0.349741	-0.145089
50903	1.929841	-0.659905	6.065397	-2.124610	2.296759	-4.231640	0.893581	-0.224287	-0.326351	-0.211431
50904	2.301326	0.154478	6.711320	-1.358770	3.079523	-3.567114	0.885853	-0.215072	-0.301121	-0.279883
50905	0.434555	1.045642	6.111798	-1.298735	3.888938	-5.144772	0.873354	-0.200725	-0.272399	-0.350373
50906	-2.049331	0.271662	4.744798	-2.372814	3.830651	-7.273269	0.855964	-0.178785	-0.241278	-0.420887
50907	-0.928231	0.822680	6.096491	-1.204580	4.004478	-5.210412	0.833296	-0.144916	-0.214408	-0.488514
50908	-3.730168	3.795440	9.195897	0.181072	8.399471	-3.323361	0.804420	-0.103163	-0.188969	-0.553675
50909	-8.200385	5.056907	10.156859	0.882993	12.205568	-3.043502	0.767249	-0.058260	-0.163451	-0.617428
50910	-6.280581	5.192135	10.088505	2.540321	9.293140	-1.151080	0.721537	-0.012498	-0.138174	-0.678334
50911	-4.986855	5.158926	9.941463	3.305662	6.491943	0.032568	0.669224	0.035384	-0.111103	-0.733855
50912	-4.077519	4.872238	8.842920	3.427386	3.839077	-0.230698	0.611967	0.086083	-0.083112	-0.781779
50913	-5.791679	5.716733	7.509291	5.021705	3.510580	-0.607581	0.549288	0.136881	-0.050233	-0.822814
50914	-11.964143	5.445373	4.572255	8.170800	7.449189	-1.396786	0.486710	0.186112	-0.004631	-0.853496
50915	-29.880287	16.422852	14.556347	22.366906	11.063328	17.551229	0.426041	0.235423	0.012686	-0.873444
50916	-31.769606	31.684032	26.179121	29.095273	-6.156765	32.727371	0.370891	0.268655	0.038889	-0.888117
50917	-20.090667	21.390420	18.522405	17.546802	-9.579588	18.529042	0.330175	0.288447	0.074583	-0.895667
50918	-13.538262	16.080703	15.493638	11.025914	-10.964701	11.158077	0.302255	0.301425	0.099584	-0.898815
50919	-9.864475	8.064979	16.875847	2.788936	-8.152156	9.496593	0.286158	0.311281	0.110418	-0.899459
50920	-8.837812	5.626378	17.158565	0.212786	-7.133314	8.981963	0.274210	0.317110	0.106100	-0.901661
50921	-6.522617	3.705745	15.215393	-1.667195	-5.786468	6.046567	0.263857	0.320683	0.098930	-0.904298
50922	-5.933947	0.621783	12.354905	-2.401927	-2.270321	3.503196	0.253864	0.323431	0.088709	-0.907235
50923	-5.052103	1.328318	12.619185	-2.928693	-3.024850	3.179258	0.243432	0.325180	0.073086	-0.910855
50924	-4.324397	2.556828	13.333609	-3.362982	-4.285397	3.353266	0.234962	0.325176	0.063470	-0.913797
50925	-3.877884	0.974640	11.373281	-3.364462	-2.337339	1.525503	0.228293	0.323571	0.057026	-0.916478
50926	-3.611468	0.084960	10.513861	-3.460802	-1.267547	0.675632	0.223190	0.321154	0.049796	-0.919003
50927	-4.113761	-0.837467	9.552646	-2.951032	0.161881	0.194264	0.218531	0.318643	0.040270	-0.921460
50928	-4.183440	-0.624022	9.178951	-2.580797	0.326025	-0.046953	0.212667	0.316326	0.025493	-0.924154
50929	-4.180530	1.183251	9.699674	-2.155565	-1.099445	0.536044	0.206696	0.313933	0.009414	-0.926625
50930	-5.146518	2.472440	9.715738	-0.993779	-1.621501	1.294627	0.201834	0.311066	-0.003454	-0.928703
50931	-6.695380	2.707213	8.955963	0.662407	-0.941043	1.634550	0.197984	0.307765	-0.012990	-0.930545
50932	-7.948194	1.978343	8.045638	1.877647	0.456110	1.504747	0.194587	0.304656	-0.021654	-0.932122
50933	-8.925493	2.246621	7.909893	2.803603	0.764087	1.969948	0.190314	0.301898	-0.033971	-0.933533
50934	-8.926757	4.406454	10.181055	2.228038	-1.108396	4.207244	0.185920	0.298606	-0.046844	-0.934919
50935	-8.327912	5.557694	10.660181	1.907614	-2.186449	4.521159	0.183383	0.294114	-0.053907	-0.936462
50936	-7.589615	4.583896	9.863678	1.603800	-1.429009	3.275100	0.182495	0.288266	-0.056791	-0.938282
50937	-7.307887	4.815415	9.666055	1.729397	-1.682540	3.001419	0.182670	0.281065	-0.057764	-0.940371
50938	-7.298571	4.321707	9.161954	2.034997	-1.190474	2.448062	0.183502	0.273364	-0.057444	-0.942496
50939	-6.715766	3.938239	8.677803	1.910554	-1.028479	1.641765	0.184622	0.265451	-0.057096	-0.944558
50940	-5.860338	3.153918	7.885177	1.571359	-0.593531	0.367841	0.185744	0.257893	-0.058074	-0.946371
50941	-5.448104	3.717104	8.575673	1.215402	-1.180627	0.872219	0.186845	0.250720	-0.062008	-0.947831
50942	-4.892708	3.922636	8.820760	0.843844	-1.450147	0.879058	0.188455	0.243806	-0.067529	-0.948938
50943	-4.580598	4.573679	8.279073	1.178572	-2.012982	0.434159	0.190621	0.237210	-0.076547	-0.949492
50944	-4.926106	5.204823	7.723742	2.011692	-2.222815	0.287628	0.193808	0.231064	-0.090939	-0.949093
50945	-4.077515	3.879698	7.058978	1.252966	-1.096170	-0.939919	0.198389	0.225334	-0.108697	-0.947656
50946	-4.602306	2.592457	5.678781	1.930346	0.501040	-2.318776	0.204192	0.219934	-0.135364	-0.944252
50947	-5.670869	6.509278	5.362761	4.207810	-1.963392	-0.774727	0.211615	0.213653	-0.172746	-0.937939
50948	-6.641851	9.141566	5.426179	5.815244	-2.947325	0.890369	0.223392	0.205919	-0.207632	-0.929829
50949	-8.487892	9.013060	5.437208	7.338913	-0.999314	1.496902	0.238980	0.195223	-0.239760	-0.920484
50950	-11.022627	9.067601	6.479747	9.083526	1.680651	2.847012	0.258281	0.179909	-0.265430	-0.911302
50951	-13.140673	6.569876	4.875560	10.807930	5.039913	0.051017	0.281061	0.160402	-0.285211	-0.902181
50952	-14.827158	4.693007	1.628199	12.926018	6.783781	-4.218490	0.306264	0.138109	-0.304801	-0.891193
50953	-17.421348	4.957042	0.717046	15.389388	8.652142	-5.727291	0.332574	0.112833	-0.332115	-0.875422
50954	-21.293069	5.973146	2.525268	17.890628	12.470222	-5.399646	0.359408	0.083347	-0.360361	-0.856749
50955	-23.411717	4.825575	0.672743	19.266726	14.149123	-9.843366	0.383704	0.047682	-0.377666	-0.841348
50956	-20.361196	1.828075	-3.120528	16.276849	11.171212	-15.946154	0.401802	0.008126	-0.389011	-0.828951
50957	-16.430162	1.090162	-3.269426	12.698811	8.327417	-16.956029	0.412698	-0.032131	-0.404279	-0.815602
50958	-11.457901	1.188259	-2.454867	8.926780	5.122647	-15.531950	0.416601	-0.072062	-0.413944	-0.806165
50959	-6.037387	0.047303	-3.205653	4.532192	1.184581	-14.788729	0.412168	-0.110695	-0.415788	-0.803109
50960	0.106582	-1.947523	-4.843737	-0.912355	-3.137817	-13.883941	0.396440	-0.145424	-0.410978	-0.807951
50961	13.702062	-3.257381	-10.483953	-10.861276	-13.783400	-10.190340	0.366374	-0.172900	-0.411160	-0.816592
50962	33.586902	-3.275965	-11.937047	-25.718893	-22.398517	1.018450	0.325000	-0.184043	-0.436330	-0.818608
50963	40.120397	4.716315	-9.144369	-27.303041	-23.003204	11.148666	0.277088	-0.178983	-0.466847	-0.820513
50964	32.148795	12.337482	-3.064509	-19.013547	-15.745622	14.363229	0.226379	-0.173866	-0.489509	-0.823957
50965	24.854880	11.070116	-0.946528	-15.751645	-9.846942	10.078534	0.181017	-0.172757	-0.492466	-0.833586
50966	18.799376	5.933891	-0.326361	-14.062411	-4.964606	3.078810	0.149305	-0.169989	-0.502694	-0.834332
50967	17.739203	9.995847	4.884043	-11.365207	-1.006940	7.740998	0.133502	-0.163096	-0.528821	-0.822146
50968	16.092095	14.163629	12.306566	-7.878005	5.143049	13.043421	0.130715	-0.152300	-0.548680	-0.811584
50969	9.537499	16.996871	16.827692	-0.853723	8.957894	14.312702	0.136144	-0.141360	-0.548362	-0.812884
50970	3.966599	12.007419	13.173225	1.801511	7.222280	6.859498	0.143496	-0.132311	-0.527815	-0.826628
50971	0.226245	5.703692	8.528854	2.462137	5.227282	-1.332606	0.147817	-0.125021	-0.504999	-0.841128
50972	-1.419651	2.457105	5.451647	2.533076	3.853529	-5.750194	0.146976	-0.118255	-0.492829	-0.849431
50973	-1.955039	3.823518	4.085963	3.405078	2.041970	-5.411338	0.143463	-0.112652	-0.496116	-0.848880
50974	-0.836779	6.374329	4.029880	3.190573	0.715585	-2.965870	0.139582	-0.108219	-0.502928	-0.846090
50975	-0.696840	6.838856	3.684021	3.123516	0.266978	-2.671338	0.136401	-0.104310	-0.508074	-0.844023
50976	0.334412	6.276904	4.119054	1.903104	0.811462	-2.587926	0.133444	-0.100092	-0.508955	-0.844475
50977	0.967027	4.398815	3.535359	0.601986	1.038336	-4.214250	0.130807	-0.094648	-0.507583	-0.846339
50978	1.873218	3.302544	3.920454	-0.667282	1.732649	-4.680647	0.128784	-0.087751	-0.507236	-0.847600
50979	2.325363	2.787602	5.114136	-1.325791	2.955809	-4.442682	0.127901	-0.079900	-0.510186	-0.846740
50980	2.418900	5.527946	7.494806	-0.715136	3.878659	-1.036396	0.127646	-0.073063	-0.516032	-0.843848
50981	3.163336	9.029862	9.027863	-0.555601	3.650772	2.813057	0.128468	-0.068249	-0.516057	-0.844111
50982	4.375607	9.869816	9.139648	-1.545436	3.043190	3.914477	0.131102	-0.065448	-0.507155	-0.849307
50983	5.566966	9.148613	8.257188	-2.856954	2.026392	3.248059	0.135742	-0.063907	-0.492711	-0.857161
50984	6.569112	9.205861	7.133977	-3.684310	0.404379	3.034050	0.143531	-0.063042	-0.478462	-0.864002
50985	7.049085	11.273681	7.619366	-3.364854	-0.780325	5.116700	0.154883	-0.061969	-0.465812	-0.869017
50986	6.880350	12.666842	8.650937	-2.563144	-1.079701	6.766472	0.168577	-0.061153	-0.454872	-0.872315
50987	7.658745	15.336772	9.613228	-2.077507	-2.370218	9.586282	0.183803	-0.061224	-0.444092	-0.874786
50988	8.102010	15.827753	8.476171	-1.797768	-4.217518	9.342856	0.200266	-0.061344	-0.429978	-0.878208
50989	6.306739	15.780214	6.439274	0.441078	-5.755915	7.417909	0.217344	-0.061006	-0.417917	-0.879992
50990	4.981344	16.469278	4.913875	2.530077	-7.138110	6.399059	0.235929	-0.058660	-0.411122	-0.878564
50991	3.419514	14.794170	4.485622	3.591851	-5.926472	4.422570	0.256504	-0.052972	-0.413215	-0.872154
50992	3.137138	11.058728	3.502062	2.391484	-4.234065	1.175089	0.279118	-0.043001	-0.428893	-0.858076
50993	2.497137	13.129382	3.494920	4.148053	-4.196188	2.674231	0.302690	-0.031691	-0.457054	-0.835749
50994	3.552047	17.722180	5.149250	5.534654	-4.175155	7.652508	0.326041	-0.024287	-0.476719	-0.815994
50995	3.480870	14.936141	3.404693	4.828670	-3.754800	4.655946	0.350729	-0.020865	-0.483727	-0.801600
50996	3.465443	11.234393	1.536260	3.671569	-3.693481	0.837787	0.376819	-0.019245	-0.486999	-0.787699
50997	3.641717	7.899952	0.149590	2.362431	-3.737433	-2.320963	0.403730	-0.016746	-0.492468	-0.770841
50998	4.070285	7.144767	-0.964799	2.354481	-4.359718	-3.181711	0.430387	-0.010528	-0.506088	-0.747349
50999	3.347733	10.241046	-1.196930	5.211291	-3.818668	-1.111361	0.456035	0.000722	-0.526364	-0.717616
51000	1.719619	13.050712	0.430967	7.298908	-0.661780	1.126203	0.480027	0.012926	-0.544415	-0.687764
51001	0.429857	12.462075	2.230774	6.525862	2.433300	0.765535	0.502026	0.022211	-0.556473	-0.661676
51002	-0.663832	10.844627	2.224237	5.879602	3.672584	-1.157848	0.522086	0.027907	-0.563231	-0.639858
51003	-0.411119	9.714329	0.941455	5.744837	2.917598	-2.471780	0.540530	0.031909	-0.567510	-0.620275
51004	-0.326899	9.426074	0.803778	5.559950	3.121602	-2.817532	0.558255	0.035149	-0.569207	-0.602594
51005	0.212908	8.224878	0.179049	5.003109	2.348661	-3.715959	0.575744	0.037651	-0.567991	-0.586931
51006	0.371346	7.687431	0.408708	4.465199	2.477772	-4.040483	0.593082	0.039444	-0.564278	-0.572964
51007	0.394506	6.531509	0.918287	3.406234	2.556444	-4.761088	0.610685	0.038510	-0.556078	-0.562457
51008	0.423257	5.330406	0.998702	2.648374	2.248336	-5.627133	0.628267	0.035404	-0.544498	-0.554571
51009	1.319332	4.419887	0.700656	2.197297	1.128999	-5.855193	0.645176	0.030317	-0.530241	-0.549249
51010	1.893229	3.905461	0.521684	2.033455	0.431698	-5.967555	0.661442	0.024713	-0.514733	-0.544915
51011	1.711046	3.518605	0.768723	1.760106	0.559544	-6.279124	0.676944	0.019374	-0.499217	-0.540513
51012	2.093147	2.944479	1.290618	1.097197	0.310414	-6.150061	0.691693	0.014239	-0.484026	-0.535796
51013	2.673524	2.001528	1.704064	0.249382	-0.327382	-6.086231	0.705518	0.009853	-0.469690	-0.530603
51014	3.172090	1.560708	2.254412	-0.299061	-0.647945	-5.681214	0.718273	0.006419	-0.456581	-0.524954
51015	3.349700	1.696107	2.245469	-0.042977	-0.743641	-5.501883	0.729991	0.005265	-0.445842	-0.517987
51016	3.285457	1.794946	2.310100	0.105659	-0.633690	-5.460806	0.740699	0.006164	-0.436840	-0.510389
51017	3.545425	1.475849	2.358860	-0.039278	-0.982347	-5.414384	0.750051	0.009200	-0.429580	-0.502791
51018	3.731878	0.687927	3.466932	-1.243784	-1.098460	-4.947989	0.757661	0.014172	-0.423300	-0.496555
51019	4.772353	0.947530	1.345602	0.570299	-2.657656	-5.558894	0.764232	0.024527	-0.419754	-0.489034
51020	4.022502	2.242981	1.298101	1.456931	-1.460796	-5.495300	0.769895	0.040318	-0.417769	-0.480734
51021	3.373820	2.319619	0.487279	1.943153	-1.218096	-6.386159	0.774745	0.061490	-0.416360	-0.471841
51022	2.953925	2.114653	0.945196	1.371270	-0.906054	-6.437916	0.778225	0.088220	-0.415422	-0.462610
51023	1.914045	3.221638	3.010569	0.237460	0.919331	-5.101115	0.779440	0.119554	-0.415222	-0.453619
51024	1.041915	4.786327	5.669381	-1.265464	2.725739	-2.950692	0.778159	0.151014	-0.413211	-0.448240
51025	1.038263	5.354563	7.139421	-2.338391	2.820535	-1.610635	0.774806	0.179826	-0.407525	-0.448622
51026	0.808295	5.395214	7.759769	-3.049137	2.593232	-1.214508	0.769220	0.206651	-0.398662	-0.454604
51027	-0.375576	6.391013	9.454217	-4.314167	3.595036	0.127064	0.761878	0.232644	-0.386490	-0.464805
51028	-1.002998	8.700819	11.528622	-4.858179	4.534188	3.048148	0.753464	0.250799	-0.368341	-0.483442
51029	-0.664919	9.067215	11.687662	-4.245445	3.636773	3.895447	0.745963	0.259134	-0.340892	-0.510080
51030	-0.508809	7.182747	11.979257	-4.830386	2.107464	3.128771	0.738255	0.265054	-0.308314	-0.538208
51031	0.837078	3.698751	13.397272	-7.214942	-0.942674	2.056317	0.727398	0.279092	-0.280011	-0.560886
51032	3.720701	4.460582	15.593043	-7.558498	-4.579769	4.283468	0.712703	0.304030	-0.263881	-0.574445
51033	3.935707	13.106783	18.366127	-4.214287	-4.883535	12.160264	0.697786	0.331095	-0.257516	-0.580652
51034	5.687329	18.478642	18.158115	-0.635993	-7.140915	15.722098	0.690520	0.346557	-0.246660	-0.585013
51035	6.651026	18.728866	16.410703	1.347968	-8.515808	14.475341	0.693974	0.348329	-0.228702	-0.587165
51036	7.206079	14.284982	14.908620	0.607825	-9.329514	9.954206	0.706053	0.339114	-0.206307	-0.586454
51037	5.733821	9.272091	14.508052	-1.763720	-8.231894	6.260738	0.721844	0.324767	-0.184549	-0.582588
51038	2.471829	6.499159	14.442526	-3.565590	-5.315957	4.880643	0.737673	0.308804	-0.166029	-0.576986
51039	0.053977	4.461006	13.326666	-4.317041	-2.915259	3.238084	0.752185	0.291566	-0.149234	-0.571783
51040	-1.703708	2.193263	11.580673	-5.010886	-1.094462	0.933819	0.764440	0.272772	-0.132668	-0.568882
51041	-2.788339	-0.485032	10.401645	-6.397584	-0.229718	-1.141013	0.773142	0.252901	-0.116853	-0.569769
51042	-3.564983	-1.757712	8.082975	-6.227909	0.907469	-3.370215	0.777143	0.232746	-0.101593	-0.575810
51043	-3.263990	-2.851805	5.523674	-5.693663	1.122046	-5.861957	0.775993	0.213234	-0.085753	-0.587377
51044	-2.578545	-4.501898	1.966205	-5.434599	1.079340	-9.543624	0.769494	0.195912	-0.067178	-0.604139
51045	-2.367754	-6.353675	-2.761502	-5.459994	1.808428	-14.341091	0.755383	0.190109	-0.052966	-0.624860
51046	-2.908314	-3.941267	-5.708808	-2.303253	3.650802	-15.971731	0.732876	0.201467	-0.054952	-0.647521
51047	-3.483481	3.080648	-5.679412	4.488544	4.798698	-13.080113	0.703767	0.221091	-0.064261	-0.672087
51048	-3.239921	7.382820	-4.511232	8.401861	3.827970	-10.034978	0.669867	0.241108	-0.069751	-0.698771
51049	-3.615231	9.882605	-2.194097	9.890975	2.603629	-6.518422	0.634181	0.261595	-0.067398	-0.724459
51050	-2.735773	13.272409	-4.809407	14.141742	0.729664	-7.332245	0.601529	0.281278	-0.054284	-0.745721
51051	-0.349331	13.521378	-10.210001	16.707273	-0.953514	-12.482403	0.573574	0.306352	-0.034932	-0.758908
51052	-4.866409	19.147827	-9.735424	21.881935	0.317072	-7.356033	0.549719	0.340990	-0.027398	-0.762092
51053	-10.875214	28.550852	1.706468	23.892000	-3.227885	9.025198	0.535052	0.370890	-0.011584	-0.758964
51054	-10.950255	29.663962	2.491341	24.062874	-4.980156	10.242253	0.533905	0.392810	0.021330	-0.748459
51055	-8.062283	25.613196	0.910448	21.434501	-4.962649	5.607632	0.543291	0.411487	0.055315	-0.729695
51056	-9.050971	22.462692	1.759374	18.447417	-2.974280	5.692285	0.559520	0.431183	0.084118	-0.702810
51057	-10.068905	23.489643	5.626370	17.160565	-4.322157	9.463685	0.581571	0.449784	0.107221	-0.669308
51058	-10.926556	23.854259	7.616252	16.171323	-4.297324	11.781911	0.610765	0.463478	0.129502	-0.628796
51059	-11.839950	21.595491	8.115691	13.407522	-2.376998	12.251441	0.647036	0.469914	0.152145	-0.580842
51060	-13.827280	18.539734	7.969592	9.491465	0.609627	12.720847	0.687922	0.469101	0.173029	-0.526087
51061	-15.484136	16.147620	7.967202	5.629314	2.703909	13.094619	0.729964	0.462012	0.189816	-0.466548
51062	-17.235042	15.350581	8.207355	2.582191	4.254611	14.166438	0.770549	0.448821	0.202437	-0.404764
51063	-19.248336	14.380154	8.411022	-1.090789	5.507009	15.011031	0.809617	0.426917	0.213018	-0.341886
51064	-21.837976	11.881466	9.804104	-6.273846	4.872041	15.699106	0.847289	0.393759	0.221057	-0.279622
51065	-23.909695	7.642169	10.328525	-11.901758	3.072010	14.384553	0.881875	0.351556	0.223430	-0.220873
51066	-24.437383	4.613597	9.192925	-15.472351	1.990571	11.622135	0.911135	0.307836	0.215406	-0.169322
51067	-22.865620	1.949922	8.426705	-16.621049	0.014101	8.110366	0.934157	0.268724	0.197782	-0.126571
51068	-20.217359	-0.844469	7.721794	-16.290765	-2.485008	4.237407	0.951256	0.237811	0.173431	-0.092089
51069	-17.322224	-2.047072	7.117160	-14.762050	-3.756326	1.267852	0.963460	0.216643	0.143562	-0.064808
51070	-16.312022	-0.149761	8.896571	-13.687419	-3.029481	2.378171	0.972903	0.198254	0.111244	-0.042195
51071	-16.263063	-0.901441	10.143087	-14.231255	-4.124198	2.375319	0.981714	0.171610	0.079021	-0.023294
51072	-15.832165	-3.708331	8.445923	-14.865294	-5.963665	-0.916462	0.989035	0.139947	0.046332	-0.008870
51073	-15.264899	-4.473929	5.937383	-14.937266	-5.807839	-4.209785	0.994180	0.106823	0.013911	0.001465
51074	-15.699414	-4.581211	6.544738	-15.664760	-5.811359	-4.237057	0.997230	0.071806	-0.018080	0.006967
51075	-16.131169	-6.378049	6.885882	-16.420486	-7.231369	-4.680661	0.998330	0.031284	-0.048098	0.006754
51076	-15.363392	-9.470611	6.124342	-15.910947	-9.691126	-5.798884	0.997004	-0.012068	-0.076396	0.000734
51077	-14.596043	-12.663710	4.371727	-15.338993	-12.283655	-7.303655	0.992943	-0.054809	-0.104616	-0.010777
51078	-12.286957	-16.040716	2.055773	-13.331957	-15.254752	-8.416144	0.985929	-0.097052	-0.132904	-0.029348
51079	-9.409303	-17.490218	-0.778522	-10.758684	-16.707910	-9.613363	0.976907	-0.131389	-0.159946	-0.052988
51080	-6.110228	-15.769555	-1.538694	-8.097677	-14.913477	-9.280187	0.966677	-0.158420	-0.182679	-0.084066
51081	-2.493609	-15.146850	-1.989000	-5.611859	-14.335892	-8.252525	0.955441	-0.178430	-0.199307	-0.124786
51082	-0.323694	-11.876884	-1.948607	-3.847182	-11.294483	-8.235368	0.944750	-0.185061	-0.209850	-0.170774
51083	2.525994	-4.556457	-3.221908	1.139146	-6.004779	-10.188431	0.935135	-0.176083	-0.214781	-0.219968
51084	3.212270	3.867895	-2.828394	5.467088	0.833825	-11.449893	0.928084	-0.143753	-0.215789	-0.267265
51085	-3.249109	13.567902	2.856376	4.542141	13.483452	-10.130189	0.922391	-0.095074	-0.215281	-0.306283
51086	-9.127124	26.664347	10.045538	6.710501	28.676297	-4.624996	0.914625	-0.048673	-0.216235	-0.338133
51087	-8.248514	31.267269	11.079439	11.000367	30.962072	-0.424203	0.906261	-0.020962	-0.211256	-0.365545
51088	-6.418464	28.405902	12.470301	10.719589	26.958943	2.903149	0.900633	-0.004700	-0.205427	-0.382932
51089	-3.075477	21.984072	11.721773	9.151507	19.381100	3.254412	0.898686	0.002507	-0.199208	-0.390734
51090	0.472773	14.456092	11.684945	6.384267	11.400692	3.415922	0.899089	0.000404	-0.190301	-0.394240
51091	1.892054	7.857523	10.883355	3.206359	5.698859	2.061518	0.900449	-0.008471	-0.178424	-0.396592
51092	2.854222	3.943764	10.346935	1.514249	2.310471	1.283201	0.902138	-0.017571	-0.167434	-0.397245
51093	2.071460	1.839858	11.037119	-0.415215	1.604710	1.445251	0.903864	-0.024022	-0.158382	-0.396697
51094	1.194329	1.066149	11.142715	-1.366440	1.750303	1.223199	0.904973	-0.027309	-0.152880	-0.396114
51095	0.916874	1.311803	10.635668	-1.131998	2.041247	0.686380	0.905355	-0.028797	-0.150054	-0.396215
51096	0.359424	0.964365	10.060746	-1.561138	2.099674	-0.043757	0.905304	-0.028529	-0.149544	-0.396545
51097	0.571667	1.659700	9.769134	-0.869728	2.359961	-0.211059	0.905174	-0.026416	-0.151421	-0.396274
51098	1.129668	1.809501	8.969758	-0.242417	1.921905	-0.798563	0.905249	-0.025652	-0.152748	-0.395645
51099	1.793497	1.740021	8.615794	0.213319	1.356726	-0.947591	0.905611	-0.027049	-0.152701	-0.394741
51100	1.827593	1.378237	8.252082	0.096803	1.057628	-1.315149	0.906200	-0.030541	-0.150944	-0.393809
51101	1.580971	0.912744	8.559205	-0.417525	1.005868	-1.129025	0.906931	-0.034009	-0.148483	-0.392775
51102	0.944607	0.247344	8.816002	-1.321241	1.068916	-1.107118	0.907548	-0.035907	-0.146867	-0.391787
51103	1.159666	0.330021	9.220131	-1.196143	1.059678	-0.652400	0.907952	-0.036307	-0.146770	-0.390851
51104	1.266214	0.187796	9.354629	-1.262303	0.923839	-0.501365	0.907990	-0.037158	-0.147525	-0.390397
51105	2.228695	-0.048615	8.643451	-0.642663	-0.011678	-0.909575	0.907718	-0.038919	-0.148710	-0.390407
51106	2.903389	-0.463746	7.783097	-0.307185	-0.889206	-1.546121	0.907224	-0.040991	-0.150309	-0.390733
51107	3.969436	-0.540711	7.314398	0.423048	-1.735762	-1.666695	0.906591	-0.042604	-0.152434	-0.391204
51108	4.962606	-0.855601	7.196273	0.837391	-2.637860	-1.476851	0.905982	-0.043358	-0.154726	-0.391634
51109	5.812692	-1.054705	7.588280	1.100130	-3.274360	-0.837735	0.905364	-0.042557	-0.157660	-0.391980
51110	6.175995	-0.740691	8.513103	1.264833	-3.125011	0.177235	0.904655	-0.041283	-0.160683	-0.392524
51111	7.171940	-1.057770	8.621125	1.562929	-4.028851	0.589437	0.903814	-0.038645	-0.164268	-0.393245
51112	8.655119	0.126911	8.602968	3.240715	-4.300946	1.138805	0.902831	-0.032527	-0.169807	-0.393704
51113	10.342257	1.431499	9.350087	4.836579	-4.558997	2.526328	0.901798	-0.021690	-0.176519	-0.393868
51114	10.619027	2.223875	9.020249	5.376296	-4.490205	2.434349	0.900832	-0.001989	-0.185855	-0.392373
51115	9.672078	5.242360	9.920290	6.146509	-1.959639	3.520544	0.899677	0.027595	-0.198924	-0.387621
51116	9.138445	8.185335	10.343903	6.995002	0.023909	4.626517	0.897936	0.063083	-0.212475	-0.380245
51117	7.683086	8.823636	8.103781	6.646255	0.820479	2.740955	0.894786	0.111381	-0.228000	-0.367380
51118	4.663360	9.149232	4.262893	5.841734	2.746818	-0.770143	0.886871	0.183216	-0.249968	-0.342649
51119	1.853590	11.112665	-0.295008	6.304313	6.355280	-3.002853	0.866210	0.282151	-0.280111	-0.302669
51120	-0.610043	11.416019	-5.025741	6.056236	9.477582	-4.481213	0.824802	0.400705	-0.312494	-0.247961
51121	-4.714009	11.611326	-10.101411	4.373460	14.538096	-4.664110	0.755810	0.527830	-0.342706	-0.180832
51122	-7.370294	11.732557	-14.346100	1.877893	18.105123	-1.887127	0.654487	0.653101	-0.365208	-0.108304
51123	-8.229390	14.703383	-11.533133	-5.992272	13.867210	3.791422	0.532697	0.758703	-0.372641	-0.041738
51124	-7.373526	17.610180	-2.573370	-14.371813	1.677239	2.826110	0.430992	0.827985	-0.358640	0.008045
51125	-5.796568	16.400665	0.673578	-14.438413	-4.257280	-1.097805	0.380314	0.862103	-0.333231	0.033130
51126	-4.851107	16.562451	-1.785173	-13.165828	-4.716486	0.451857	0.376256	0.874472	-0.303442	0.040670
51127	-4.822736	19.611604	-4.532440	-13.761860	-4.732327	4.899641	0.413911	0.867419	-0.273585	0.037591
51128	-4.457330	21.186192	-1.860941	-13.673706	-6.603257	5.713239	0.475635	0.843000	-0.249004	0.033456
51129	-5.696832	18.030152	3.047065	-13.358962	-7.089807	1.915122	0.545223	0.804982	-0.231831	0.031478
51130	-5.888813	14.835759	4.668234	-12.067828	-5.810634	0.025015	0.611172	0.759214	-0.221494	0.031675
51131	-6.722436	15.124779	6.013730	-12.962074	-5.128149	0.930366	0.670397	0.708849	-0.216603	0.034426
51132	-7.524779	16.501423	8.553787	-14.662491	-5.283735	2.781908	0.726387	0.651003	-0.217034	0.038114
51133	-7.345255	14.117815	2.614169	-11.997765	2.378937	0.677771	0.782218	0.581263	-0.220709	0.039448
51134	-8.417367	13.171344	4.029698	-12.845127	3.313078	-0.642406	0.833559	0.501446	-0.229204	0.034582
51135	-7.711967	8.999562	4.183795	-10.777321	3.161413	-4.201096	0.879981	0.409920	-0.239083	0.020961
51136	-5.364651	3.451453	1.838353	-6.194712	2.159168	-8.823452	0.915160	0.317903	-0.247829	-0.000250
51137	-2.861769	-0.108055	-0.073646	-2.453916	0.414201	-11.231642	0.936032	0.240959	-0.255224	-0.025375
51138	-0.947405	-0.978504	0.308713	-0.933473	-0.832437	-10.433257	0.945176	0.188997	-0.261679	-0.049469
51139	-0.214655	0.535709	2.284291	-1.357659	-0.137284	-7.892677	0.947625	0.158929	-0.267065	-0.073658
51140	1.375985	3.467500	4.043805	-0.711131	1.951649	-4.718435	0.946639	0.141618	-0.271300	-0.101072
51141	1.468687	7.587919	5.363301	-0.595390	5.624401	-2.296392	0.943718	0.129554	-0.273673	-0.133099
51142	-0.963877	9.318290	4.506703	-1.197077	8.267972	-3.629953	0.939722	0.115612	-0.271668	-0.172490
51143	-0.342353	6.218108	1.791231	0.652500	5.545636	-6.528940	0.932435	0.106581	-0.267658	-0.218093
51144	2.129855	6.229397	1.995479	2.926555	4.121768	-5.150314	0.919496	0.109403	-0.266512	-0.267451
51145	7.913152	10.918959	1.177372	9.920653	3.960461	-1.509841	0.900159	0.120199	-0.270000	-0.319946
51146	15.826570	17.115180	-2.293290	20.365777	1.659813	1.609436	0.875813	0.130897	-0.274097	-0.375086
51147	19.092441	19.308026	-6.649286	25.961356	-2.257101	0.259191	0.850902	0.129903	-0.269333	-0.431915
51148	28.503618	15.395744	-7.082158	27.297885	-15.545996	0.752521	0.825798	0.126391	-0.263339	-0.482427
51149	33.305936	14.775766	-0.483949	23.468080	-22.387783	6.779146	0.806282	0.123544	-0.262865	-0.515313
51150	27.634404	12.630459	2.240609	17.263911	-19.444502	6.061494	0.796098	0.113446	-0.261389	-0.533885
51151	19.676150	8.893025	5.837082	9.618390	-13.722482	5.002360	0.792946	0.102873	-0.262979	-0.539904
51152	14.535485	4.970092	9.162543	3.219785	-10.062930	4.619842	0.793235	0.094355	-0.266315	-0.539399
51153	10.735598	1.799157	12.199006	-2.021128	-7.281599	4.685453	0.793054	0.092275	-0.272141	-0.537113
51154	8.233694	2.871796	15.904152	-4.032210	-3.968007	7.420130	0.790979	0.097046	-0.280147	-0.535212
51155	4.422266	5.876785	17.343014	-3.770716	0.876406	8.623152	0.789443	0.102609	-0.284801	-0.533984
51156	2.948004	5.612373	15.562453	-3.491468	1.781187	6.527934	0.790980	0.103578	-0.282612	-0.532684
51157	2.739091	2.765032	12.081422	-3.730390	0.262778	2.316642	0.796196	0.102140	-0.275580	-0.528862
51158	2.969297	0.668250	8.659881	-3.287020	-1.345449	-1.348665	0.803431	0.103700	-0.268810	-0.521043
51159	2.966815	1.240641	7.375465	-2.070764	-1.349630	-2.155808	0.810639	0.111326	-0.266102	-0.509569
51160	3.218068	4.188902	7.436744	0.221567	-0.316261	-0.699062	0.817319	0.121125	-0.265445	-0.496847
51161	2.574115	7.928290	8.390023	2.186837	2.070041	1.624471	0.823886	0.126362	-0.263209	-0.485762
51162	2.071963	7.621845	8.102609	1.948500	2.396872	1.072824	0.830547	0.123262	-0.257310	-0.478319
51163	2.012969	5.970048	7.686488	1.075479	1.689542	-0.078148	0.836410	0.116173	-0.251758	-0.472800
51164	2.564886	3.841482	6.619360	0.451187	0.168897	-1.755549	0.841180	0.108777	-0.248239	-0.467932
51165	3.070064	2.281428	5.614170	0.113752	-1.060499	-3.103648	0.844306	0.106578	-0.249725	-0.461982
51166	3.786248	3.229136	5.897847	0.937516	-1.070301	-2.228343	0.845961	0.109799	-0.255694	-0.454879
51167	3.861465	4.473188	6.343672	1.501052	-0.374406	-1.282324	0.846737	0.115022	-0.263080	-0.447879
51168	3.506116	6.306949	7.362631	1.904937	1.044956	0.264808	0.847102	0.118337	-0.269135	-0.442698
51169	3.152557	6.497187	7.795599	1.527986	1.510830	0.594309	0.847499	0.117364	-0.271926	-0.440485
51170	2.746517	5.631474	7.666049	0.796487	1.388450	-0.042187	0.847602	0.114750	-0.273450	-0.440032
51171	2.974090	4.637960	7.364552	0.385746	0.657988	-0.646957	0.847357	0.113045	-0.275221	-0.439842
51172	3.000567	4.298000	6.780457	0.456994	0.432618	-1.265497	0.846673	0.114532	-0.278447	-0.438742
51173	3.271363	5.032300	6.951738	0.899083	0.649328	-0.695581	0.845703	0.118376	-0.282419	-0.437050
51174	3.413216	5.437691	7.049182	1.065811	0.748727	-0.367506	0.844578	0.123938	-0.286542	-0.434996
51175	3.218325	6.257798	7.734273	0.982964	1.370043	0.506787	0.843596	0.129785	-0.290366	-0.432653
51176	2.861186	6.231288	7.966000	0.540526	1.600700	0.561173	0.843313	0.134681	-0.292800	-0.430060
51177	2.354763	6.348520	8.788076	-0.217521	2.051503	1.087863	0.843559	0.138943	-0.294547	-0.427019
51178	2.112807	6.257627	9.090890	-0.639785	2.160646	1.195866	0.844597	0.141259	-0.294483	-0.424243
51179	1.966263	6.245251	8.914241	-0.626024	2.242952	0.999816	0.846175	0.142789	-0.292971	-0.421625
51180	1.773167	6.568474	9.630830	-0.944528	2.560076	1.658822	0.848034	0.144468	-0.290253	-0.419191
51181	1.320752	6.119931	10.525459	-1.970728	2.584627	1.994879	0.849965	0.147050	-0.287094	-0.416549
51182	1.303694	5.492438	10.647785	-2.433251	2.133626	1.796280	0.851844	0.150281	-0.284413	-0.413384
51183	1.560362	4.681930	9.896864	-2.356237	1.366728	0.905648	0.853806	0.154171	-0.282450	-0.409229
51184	1.695245	4.521131	9.530563	-2.186073	1.095136	0.587666	0.855750	0.158152	-0.281227	-0.404465
51185	1.771256	4.687119	9.377210	-1.965940	1.089016	0.579016	0.857888	0.160116	-0.279374	-0.400427
51186	1.590145	4.362539	9.411424	-2.245855	1.001003	0.389717	0.860139	0.159449	-0.276434	-0.397895
51187	1.596203	3.093244	8.904176	-2.635362	0.217822	-0.625335	0.861882	0.158298	-0.273348	-0.396715
51188	1.976393	2.175575	7.735924	-2.243988	-0.608097	-1.870496	0.862459	0.159837	-0.271727	-0.395956
51189	2.336864	2.495325	6.849894	-1.355050	-0.690149	-2.309682	0.861412	0.167209	-0.272742	-0.394490
51190	2.416746	3.622142	6.885154	-0.760766	-0.163806	-1.703607	0.859124	0.178830	-0.274995	-0.392814
51191	1.808245	5.576727	7.676984	-0.594015	1.285602	-0.257873	0.855992	0.191540	-0.277883	-0.391625
51192	0.496204	7.612906	8.723438	-0.961351	3.266898	1.264320	0.853029	0.200458	-0.279859	-0.392220
51193	-0.510961	8.562652	8.937946	-1.177507	4.490079	1.672922	0.851041	0.202854	-0.280099	-0.395126
51194	-0.863689	7.635196	8.217528	-1.367927	4.281778	0.500599	0.850298	0.199118	-0.278507	-0.399725
51195	-0.597494	6.098031	6.733754	-1.036217	3.378888	-1.422592	0.850299	0.191905	-0.276161	-0.404845
51196	0.026666	4.873943	5.509608	-0.535739	2.350279	-2.862894	0.850576	0.184274	-0.273907	-0.409315
51197	0.668941	3.244025	4.720041	-0.611904	0.986604	-4.164509	0.850354	0.179972	-0.272872	-0.412370
51198	1.410062	3.095348	4.815674	-0.365628	0.307799	-3.936318	0.849033	0.180856	-0.273843	-0.414057
51199	2.180244	4.152963	5.364853	0.303451	0.242164	-2.697126	0.847138	0.184084	-0.274888	-0.415822
51200	2.696363	5.126369	6.151667	0.643485	0.274286	-1.392273	0.845242	0.186730	-0.274274	-0.418893
51201	2.974735	5.609506	6.486090	0.893043	0.234518	-0.783189	0.843824	0.186981	-0.271077	-0.423694
51202	3.262772	5.152906	6.062767	1.090955	-0.284794	-1.287255	0.842869	0.185815	-0.266053	-0.429256
51203	3.643355	4.673610	5.856435	1.185477	-0.913758	-1.616754	0.841861	0.186016	-0.261075	-0.434175
51204	3.982111	4.280117	6.087350	1.012919	-1.517400	-1.572358	0.840358	0.189280	-0.257193	-0.437976
51205	4.459034	4.699371	6.806585	1.079164	-1.878543	-0.669321	0.837974	0.196530	-0.255288	-0.440459
51206	4.803497	5.637499	7.782838	1.202438	-1.942404	0.685171	0.835178	0.205908	-0.254143	-0.442144
51207	4.406398	6.483983	8.450793	1.066655	-1.449771	1.572847	0.832621	0.215482	-0.252728	-0.443214
51208	3.448074	7.296717	8.590120	0.969257	-0.441184	1.925462	0.830908	0.223585	-0.250508	-0.443675
51209	2.238823	7.641846	8.268745	0.765062	0.638746	1.623529	0.830267	0.230116	-0.247613	-0.443160
51210	1.211414	7.327018	7.590289	0.452574	1.319326	0.714318	0.829958	0.237656	-0.245104	-0.441150
51211	0.788876	6.272262	6.782559	0.012129	1.140692	-0.611505	0.828957	0.249345	-0.244015	-0.437167
51212	0.922772	5.380245	6.062769	-0.179994	0.526009	-1.674039	0.825604	0.269256	-0.246425	-0.430295
51213	0.869326	6.253356	5.781151	0.195262	0.778533	-1.290990	0.819884	0.295652	-0.250867	-0.421244
51214	0.999793	6.781751	5.405369	0.452425	0.679850	-1.122372	0.812865	0.323803	-0.254545	-0.411836
51215	0.867428	6.786273	4.656658	0.565309	0.677893	-1.585088	0.805328	0.351298	-0.256321	-0.402910
51216	0.293432	8.069249	5.137334	0.207635	1.153015	-0.315523	0.797333	0.377264	-0.256714	-0.395006
51217	0.325201	8.749560	5.537374	-0.046015	0.828635	0.512738	0.789880	0.399989	-0.254594	-0.388948
51218	0.429139	8.806248	5.862289	-0.409620	0.210213	0.764277	0.782949	0.420023	-0.250636	-0.384387
51219	0.266195	8.601519	5.705829	-0.626747	-0.048850	0.492894	0.776258	0.438078	-0.245892	-0.380853
51220	0.155237	8.256256	4.817428	-0.303449	0.016463	-0.257822	0.769663	0.454549	-0.240999	-0.378053
51221	-0.067132	8.188345	4.418687	-0.273062	0.074795	-0.512655	0.763137	0.469174	-0.236867	-0.376022
51222	0.452209	7.463072	3.637508	0.259792	-0.375505	-1.510882	0.756687	0.482509	-0.233624	-0.374205
51223	-0.023495	6.237029	3.602736	-0.520668	-0.516253	-2.647631	0.748249	0.497514	-0.232955	-0.371934
51224	-0.131966	6.095150	3.251565	-0.529148	-0.495741	-2.941933	0.736066	0.515807	-0.235973	-0.369413
51225	-0.405357	6.498644	2.169027	0.002025	0.164245	-2.952459	0.720129	0.537077	-0.241795	-0.366738
51226	-1.234203	7.889355	1.797615	-0.147874	0.911014	-1.681125	0.700271	0.561100	-0.250075	-0.363661
51227	-1.212773	8.224375	2.429173	-0.895284	0.141897	-1.200842	0.678506	0.584787	-0.259423	-0.361044
51228	-1.230429	8.485825	2.445274	-1.284111	-0.267687	-0.995174	0.653728	0.609238	-0.271247	-0.357622
51229	-0.402628	8.336641	1.286849	-0.358512	-0.663932	-1.403569	0.626498	0.633356	-0.285325	-0.353483
51230	0.177733	8.891137	-0.921371	1.274803	-0.327913	-0.972513	0.594843	0.658537	-0.302630	-0.347717
51231	1.165403	10.082168	-2.068127	2.149186	-1.181771	0.246762	0.560239	0.682639	-0.321552	-0.341672
51232	1.778825	11.158309	-2.328629	1.852476	-2.389809	1.316002	0.523169	0.705395	-0.341754	-0.334539
51233	2.748971	10.226273	-3.009413	2.180903	-3.329063	0.446229	0.483113	0.726736	-0.363728	-0.325819
51234	3.900790	10.681597	-4.169520	2.629178	-4.591554	1.075380	0.438636	0.747398	-0.388236	-0.313476
51235	5.934136	13.705748	-4.769415	1.823163	-7.842033	3.629434	0.390172	0.766574	-0.415162	-0.296262
51236	4.366124	16.414688	-1.559232	-4.034426	-9.204042	3.961931	0.353903	0.777586	-0.436799	-0.281636
51237	6.802103	18.274967	-4.371984	-3.097946	-11.546816	6.194406	0.323629	0.784472	-0.456414	-0.267498
51238	9.965478	18.008910	-6.223086	-1.531982	-14.002433	6.429950	0.304893	0.786267	-0.473340	-0.254507
51239	12.837217	14.167803	-9.962457	3.311067	-14.389322	5.891517	0.287430	0.787747	-0.491134	-0.235853
51240	16.134333	12.721443	-13.261611	6.321633	-16.240647	7.335863	0.267224	0.791277	-0.508843	-0.208689
51241	18.241032	14.499520	-14.026858	4.709426	-18.582887	9.472830	0.248564	0.796089	-0.523728	-0.173690
51242	19.775479	17.169677	-13.929451	1.640429	-20.478910	11.577877	0.242184	0.798706	-0.533688	-0.136358
51243	21.208538	20.285754	-12.890073	-1.848481	-22.008711	13.411112	0.255215	0.796789	-0.538129	-0.102028
51244	23.254928	22.807692	-12.539800	-3.431815	-22.820899	16.355651	0.293628	0.786800	-0.537550	-0.075948
51245	25.346437	23.878831	-13.141201	-2.350548	-21.569430	20.394562	0.355650	0.764285	-0.534719	-0.058805
51246	25.897141	23.050955	-14.243996	0.786170	-16.781597	23.645123	0.434478	0.724330	-0.532951	-0.050381
51247	25.092870	22.608926	-17.560213	5.261268	-8.361270	26.892905	0.523706	0.660695	-0.535083	-0.053857
51248	21.522781	15.536312	-21.405338	14.378691	1.293337	21.030998	0.610538	0.575699	-0.539270	-0.070730
51249	18.147403	10.895587	-21.752161	19.250400	5.115265	13.052405	0.676419	0.489028	-0.542164	-0.096784
51250	11.204839	12.587934	-14.258163	12.578820	7.030203	6.879416	0.722848	0.409523	-0.539157	-0.138173
51251	1.657240	11.361591	-11.417474	9.572441	10.644433	-2.328111	0.762719	0.328336	-0.515357	-0.211806
51252	-4.983776	0.662347	-28.750786	24.089948	10.138904	-22.656831	0.797938	0.264722	-0.445622	-0.307633
51253	-32.517970	-16.313697	-29.908549	4.684298	19.325176	-52.430127	0.814239	0.262635	-0.353234	-0.378502
51254	-102.067873	12.124779	21.741383	-60.559827	85.203065	-19.500336	0.808272	0.311171	-0.306052	-0.395222
51255	-87.306324	99.002477	34.314334	-3.356932	116.435748	59.952608	0.833860	0.171496	-0.193695	-0.487594
51256	-3.307624	7.827087	-61.974768	22.324106	5.234324	-67.262234	0.820941	-0.040826	-0.051960	-0.567176
51257	29.869666	-100.909633	-43.910894	-84.397525	-67.503184	-46.129983	0.805391	-0.068740	-0.054362	-0.586229
51258	-0.765633	11.369580	-14.204389	12.962749	3.724693	-21.825564	0.838464	0.097953	-0.189830	-0.501345
51259	1.486851	54.521296	21.513331	34.535587	26.498992	29.454417	0.838897	0.086279	-0.220469	-0.490102
51260	6.750014	-25.650934	-21.609592	-11.527703	-20.176570	-34.794505	0.839526	0.002328	-0.123445	-0.529105
51261	-6.069806	-11.760493	-2.062024	-12.262721	-0.094330	-15.188451	0.839391	0.042333	-0.151470	-0.520277
51262	0.250544	15.208468	17.874306	7.376196	8.165266	10.916048	0.838065	0.057130	-0.167616	-0.516032
51263	-0.005381	1.368834	3.994119	-0.070972	0.936102	-5.696900	0.841205	0.040281	-0.141876	-0.520214
51264	-1.884634	-0.549114	4.641532	-2.631585	1.738122	-5.882212	0.843256	0.052762	-0.149790	-0.513515
51265	0.176384	4.278214	16.214263	-1.272012	2.858714	6.662938	0.845646	0.052936	-0.149854	-0.509533
51266	0.009316	-4.620804	8.016342	-6.284496	-1.706293	-3.239794	0.848039	0.044712	-0.140847	-0.508912
51267	0.380515	-2.957377	8.342653	-4.822119	-1.262318	-2.488923	0.848046	0.057156	-0.151086	-0.504703
51268	1.426140	2.793203	12.687559	-1.148638	0.716178	3.186123	0.847877	0.067235	-0.157939	-0.501637
51269	1.620433	3.083543	11.599618	-0.599131	0.560243	2.270865	0.848493	0.068430	-0.156803	-0.500790
51270	3.240835	3.108744	12.130648	0.040847	-0.824232	3.096129	0.849505	0.065220	-0.153124	-0.500641
51271	3.704178	0.950061	12.245631	-1.425017	-2.244855	2.737452	0.850069	0.059781	-0.147709	-0.501987
51272	2.057895	0.507199	10.962335	-1.981927	-1.045918	1.125379	0.849239	0.055371	-0.142577	-0.505370
51273	0.481954	1.690780	9.062331	-1.052883	0.812723	-0.677716	0.847545	0.056433	-0.141541	-0.508379
51274	0.271510	5.060310	9.884525	1.436836	2.600200	0.890500	0.846262	0.059649	-0.142874	-0.509775
51275	-0.058923	4.853800	9.751046	1.138787	2.750998	0.664949	0.846032	0.059954	-0.141890	-0.510395
51276	0.398618	4.514274	10.338496	0.908256	2.204197	1.220828	0.846169	0.058648	-0.140233	-0.510777
51277	0.162304	4.539409	10.504955	0.860583	2.450106	1.333690	0.846333	0.054479	-0.136783	-0.511901
51278	-0.120317	3.416792	9.714210	0.122373	2.173024	0.252931	0.846619	0.049959	-0.133491	-0.512757
51279	-0.865633	3.830680	10.935396	-0.118628	3.124287	1.377972	0.847316	0.047774	-0.132895	-0.511968
51280	-1.021995	4.446234	11.036463	0.340563	3.609749	1.565810	0.848287	0.044656	-0.133013	-0.510611
51281	-0.972792	3.771540	10.429369	-0.035915	3.287323	0.823764	0.849540	0.041217	-0.134429	-0.508441
51282	-0.868842	2.829254	9.586911	-0.587140	2.765799	-0.185983	0.850871	0.039275	-0.137426	-0.505559
51283	-1.601856	3.710565	10.369881	-0.438408	3.959988	0.579325	0.851958	0.037390	-0.141195	-0.502826
51284	-1.659485	3.793398	9.930030	-0.307908	4.105406	0.127086	0.852657	0.033285	-0.143506	-0.501272
51285	-1.937210	3.034192	10.562629	-1.268674	4.123512	0.478772	0.853009	0.029525	-0.146970	-0.499904
51286	-1.801840	3.553247	11.274998	-1.025354	4.438279	1.243812	0.853641	0.027098	-0.152122	-0.497415
51287	-2.063042	3.256196	10.190781	-1.178929	4.497228	0.040955	0.854579	0.025498	-0.157627	-0.494165
51288	-3.098026	3.930329	11.032179	-1.444367	5.902039	0.667388	0.855459	0.023762	-0.162758	-0.491056
51289	-3.456161	3.324015	9.711454	-1.807045	5.809450	-0.852201	0.856627	0.022206	-0.166411	-0.487858
51290	-2.901482	4.477982	9.951035	-0.772680	6.019953	-0.291386	0.858443	0.023122	-0.171045	-0.482996
51291	-2.263096	4.225199	10.389360	-0.956808	5.430725	0.212413	0.861247	0.024649	-0.174424	-0.476678
51292	-2.099848	3.900270	11.680973	-1.719993	5.274009	1.380625	0.864443	0.027646	-0.177984	-0.469357
51293	-1.774022	3.177139	11.775578	-2.360616	4.566529	1.388918	0.867402	0.033181	-0.181799	-0.462020
51294	0.215122	3.191338	11.598803	-1.544386	2.815894	1.782034	0.869247	0.045456	-0.189069	-0.454528
51295	3.719777	4.624668	12.762411	0.522382	0.714851	4.233391	0.869841	0.063661	-0.199600	-0.446635
51296	5.599921	7.755949	14.387390	2.666623	0.923064	7.231864	0.870356	0.079958	-0.208971	-0.438655
51297	3.556934	8.382035	11.746591	2.765574	2.692512	4.539576	0.872266	0.087500	-0.214416	-0.430722
51298	1.769257	7.907616	8.609254	2.635050	3.770031	1.078541	0.875778	0.089287	-0.219349	-0.420626
51299	2.501033	6.016491	6.191412	2.652527	2.081995	-1.481291	0.880575	0.091133	-0.225325	-0.406831
51300	3.492588	4.211094	5.118463	2.343237	0.264668	-2.701723	0.886208	0.097963	-0.233310	-0.388079
51301	3.279549	4.562945	5.184416	2.217177	0.772580	-2.537003	0.892263	0.109133	-0.242427	-0.364946
51302	1.272156	3.993628	5.897150	0.016269	1.823949	-2.811963	0.898266	0.119819	-0.251511	-0.339859
51303	0.228274	3.407662	6.036383	-1.321081	2.079758	-3.329951	0.903816	0.126623	-0.260341	-0.315128
51304	0.025418	1.737699	4.379068	-1.577973	1.022264	-5.492973	0.909137	0.128898	-0.268123	-0.291489
51305	0.409565	0.789441	2.554670	-0.824363	0.173773	-7.242263	0.913110	0.133477	-0.277534	-0.267188
51306	1.262169	1.047498	3.830193	-0.945286	-0.237420	-5.761819	0.915243	0.142522	-0.288927	-0.241950
51307	1.882224	1.738590	6.853233	-2.202369	-0.388492	-2.846497	0.916814	0.148545	-0.299575	-0.218268
51308	0.854866	1.103212	6.762889	-3.228870	-0.426127	-3.723659	0.919014	0.145359	-0.307821	-0.198821
51309	0.445958	-0.658000	5.890249	-3.536166	-1.613604	-5.316219	0.920751	0.136125	-0.316116	-0.183734
51310	1.321546	-2.360639	4.536077	-2.488726	-3.249855	-6.475235	0.921895	0.123419	-0.323962	-0.172988
51311	1.394182	-2.698247	4.888497	-2.759448	-3.543937	-6.214531	0.921646	0.113138	-0.332804	-0.164347
51312	1.455170	-2.085753	5.462517	-2.990109	-2.957269	-5.497725	0.921143	0.100713	-0.340050	-0.160372
51313	1.210717	-2.906250	4.705298	-2.909471	-3.440849	-6.385568	0.920708	0.086174	-0.344777	-0.161243
51314	1.092736	-4.884646	3.472987	-2.720222	-5.075784	-7.825173	0.920025	0.074362	-0.347163	-0.165836
51315	2.724749	-6.599846	2.589346	-1.506051	-7.192401	-7.892442	0.917880	0.074922	-0.350093	-0.171224
51316	3.052335	-5.787559	4.382976	-2.330123	-6.642158	-6.281448	0.914086	0.090115	-0.354215	-0.175663
51317	3.305119	-2.940801	4.737096	-1.714303	-4.278916	-5.256615	0.910140	0.109991	-0.354692	-0.183687
51318	2.581612	-2.113177	3.840484	-1.419324	-3.340902	-6.249114	0.906670	0.130534	-0.349620	-0.196661
51319	3.483855	-2.705851	2.892790	-0.336090	-4.344999	-6.841653	0.903005	0.154660	-0.339427	-0.213194
51320	5.458632	-2.896636	3.074954	0.813665	-5.736453	-6.064336	0.897413	0.185655	-0.326474	-0.231510
51321	5.139180	-1.360664	5.503412	-0.584040	-5.149590	-4.186787	0.888441	0.224438	-0.312437	-0.250367
51322	4.280115	2.306554	9.678938	-2.797287	-3.547008	0.027833	0.876704	0.264114	-0.296368	-0.271660
51323	2.343984	4.310178	9.147676	-2.916403	-1.572650	0.021727	0.867214	0.292164	-0.270919	-0.298634
51324	0.141483	3.633445	8.207487	-3.710073	-0.876671	-1.687881	0.856221	0.318642	-0.242700	-0.326266
51325	1.140526	5.825439	8.969535	-2.294802	-1.343287	0.605822	0.841222	0.347861	-0.216565	-0.352759
51326	0.921357	8.921041	10.174298	-1.438131	-1.154252	3.619454	0.823623	0.377101	-0.191547	-0.377824
51327	-0.989116	12.292556	11.798254	-1.528139	-0.288814	7.177893	0.805353	0.401364	-0.165922	-0.403464
51328	-2.505184	13.121121	12.396131	-1.575447	-0.387214	8.333133	0.790432	0.414034	-0.134570	-0.430912
51329	-2.358355	11.175283	10.261270	-0.329884	-0.915076	5.505317	0.777750	0.418699	-0.098910	-0.458271
51330	-3.811145	8.656038	7.963789	-0.552298	0.185530	2.533956	0.763668	0.424168	-0.064431	-0.482433
51331	-3.482583	6.746560	6.282927	-0.196280	-0.082225	0.037414	0.744706	0.436910	-0.036577	-0.503174
51332	-5.232031	8.590607	7.122608	0.234806	0.206990	2.505267	0.720762	0.456250	-0.016103	-0.521611
51333	-5.712769	10.824100	9.052603	1.049169	-1.555954	5.290878	0.696485	0.472767	0.004586	-0.539796
51334	-5.739643	10.989576	8.671195	1.876918	-2.283671	5.021516	0.675793	0.480289	0.032416	-0.558189
51335	-5.139259	8.152602	5.633379	2.064216	-1.177537	1.090645	0.658027	0.480662	0.069473	-0.575446
51336	-6.771302	5.369182	2.320358	1.413452	2.064348	-1.224852	0.639292	0.481842	0.109195	-0.589245
51337	-11.608757	5.244163	2.681088	0.361115	4.240075	2.485630	0.612643	0.493764	0.135762	-0.602026
51338	-13.850340	9.008757	7.672750	1.399363	-0.112540	8.346443	0.580081	0.511830	0.147750	-0.616202
51339	-15.288937	14.302349	10.255911	4.744374	-4.148124	12.628341	0.551360	0.525332	0.157897	-0.628567
51340	-13.370502	14.642686	7.513958	6.987805	-4.346250	9.727220	0.530467	0.530173	0.172956	-0.638442
51341	-12.052989	13.042561	5.216494	7.328760	-3.407379	6.837215	0.515782	0.531482	0.187768	-0.645166
51342	-11.043422	9.798532	4.662129	5.180627	-2.673155	4.529577	0.503782	0.534344	0.196086	-0.649793
51343	-10.342410	8.258668	5.518215	3.523960	-3.379609	3.669656	0.491608	0.540605	0.194478	-0.654406
51344	-9.432695	7.849997	5.706299	3.000615	-3.983429	2.768341	0.480520	0.547536	0.187915	-0.658782
51345	-8.430898	7.322503	4.584307	3.037610	-3.454095	1.347637	0.471053	0.553673	0.179682	-0.662774
51346	-7.812885	6.879001	4.171931	2.783077	-3.285294	0.542323	0.463904	0.557824	0.172735	-0.666174
51347	-7.497309	6.389750	3.447520	2.737814	-2.683359	-0.105597	0.459861	0.559419	0.169199	-0.668543
51348	-7.904273	6.025714	3.450397	2.406023	-2.344499	0.157586	0.458581	0.558949	0.168512	-0.669988
51349	-8.359610	4.972509	3.314661	1.644809	-1.497501	0.219654	0.459028	0.557501	0.169551	-0.670625
51350	-8.519309	4.145310	3.101740	1.129853	-0.824826	0.057775	0.459832	0.556084	0.169770	-0.671195
51351	-8.692219	3.855992	2.892617	1.024022	-0.416970	0.064964	0.460116	0.555475	0.167763	-0.672009
51352	-8.469215	3.594437	2.579061	0.995069	-0.107898	-0.310206	0.459674	0.555696	0.163931	-0.673074
51353	-8.412111	3.324798	2.313641	0.904637	0.244770	-0.523327	0.458169	0.557014	0.157855	-0.674462
51354	-8.102489	3.164687	2.178889	0.814633	0.332763	-0.888660	0.455228	0.559643	0.149666	-0.676142
51355	-8.168060	3.299576	2.269636	0.782336	0.259348	-0.753127	0.450761	0.563434	0.140122	-0.678028
51356	-8.518465	3.530129	2.632985	0.621355	0.061576	-0.243568	0.445548	0.567382	0.130972	-0.680008
51357	-8.784063	3.991152	2.891230	0.703399	-0.241648	0.231945	0.440644	0.570484	0.123710	-0.681965
51358	-8.861517	4.081673	2.888384	0.712298	-0.255046	0.334074	0.436865	0.572292	0.119421	-0.683645
51359	-8.978881	3.877554	2.772816	0.617342	-0.013216	0.334378	0.434164	0.572939	0.117677	-0.685123
51360	-9.038244	3.549790	2.720283	0.425091	0.225711	0.260001	0.432189	0.572722	0.117936	-0.686508
51361	-9.020663	3.150317	2.719452	0.171866	0.429334	0.110927	0.430461	0.571957	0.119677	-0.687929
51362	-9.047850	2.978989	2.831880	0.022923	0.431444	0.115572	0.428695	0.570836	0.122462	-0.689470
51363	-9.021270	2.919649	2.894641	0.008386	0.365168	0.094501	0.427146	0.569038	0.126453	-0.691196
51364	-9.114641	2.738956	2.580464	0.175390	0.668270	0.023926	0.425471	0.566843	0.131084	-0.693167
51365	-9.628895	2.528639	2.456897	0.197335	1.041933	0.386341	0.422980	0.564800	0.135363	-0.695533
51366	-9.692961	2.359742	2.336050	0.252379	1.186363	0.361134	0.419406	0.563183	0.138689	-0.698347
51367	-9.599836	2.621456	2.410499	0.488248	0.869899	0.377662	0.415008	0.562048	0.140953	-0.701429
51368	-9.384638	2.798194	2.671218	0.521181	0.431620	0.315390	0.410212	0.561263	0.142373	-0.704585
51369	-9.080686	2.485321	2.705760	0.329179	0.417006	-0.031385	0.405559	0.560611	0.143610	-0.707540
51370	-8.964820	1.996516	2.814221	-0.042352	0.553127	-0.222817	0.401027	0.559971	0.144581	-0.710426
51371	-8.634075	1.739802	2.310021	0.157500	0.864322	-0.749685	0.396120	0.559635	0.145080	-0.713337
51372	-8.988989	2.040096	2.302667	0.452762	0.768370	-0.353809	0.390059	0.560156	0.144079	-0.716463
51373	-9.009041	2.405646	2.407683	0.684812	0.414511	-0.215515	0.383399	0.561017	0.142571	-0.719679
51374	-8.887306	2.454146	2.290899	0.825608	0.348754	-0.354803	0.376404	0.562043	0.140889	-0.722895
51375	-8.817623	2.793656	2.403722	1.006474	-0.043013	-0.309130	0.369532	0.563102	0.139351	-0.725908
51376	-8.535757	2.506164	2.251220	0.912494	0.077972	-0.682030	0.363029	0.564319	0.138052	-0.728488
51377	-8.275340	2.332846	2.061234	0.917063	0.156948	-1.020295	0.356256	0.566207	0.135903	-0.730768
51378	-8.364598	2.634040	2.417017	0.860095	-0.294772	-0.761737	0.349443	0.568693	0.132767	-0.732701
51379	-8.208961	2.534261	2.331171	0.814603	-0.277839	-0.952504	0.343220	0.571461	0.129550	-0.734063
51380	-8.305654	2.799641	2.158578	1.089939	-0.383539	-0.860261	0.337446	0.574515	0.126160	-0.734947
51381	-8.659214	2.805234	2.154008	1.086933	-0.308508	-0.527535	0.332335	0.577889	0.123219	-0.735129
51382	-9.277881	2.798217	2.174873	1.072085	-0.151544	0.059811	0.327354	0.581782	0.120202	-0.734793
51383	-9.694451	2.708542	2.107937	1.037647	0.042004	0.418771	0.322192	0.586088	0.116910	-0.734183
51384	-9.466951	2.815702	2.111501	0.992184	-0.172902	0.236919	0.316866	0.590609	0.113414	-0.733426
51385	-8.698547	2.876638	2.220934	0.775317	-0.584725	-0.435671	0.311980	0.595239	0.110285	-0.732254
51386	-8.145323	2.941694	2.258226	0.635565	-0.882160	-0.929201	0.307585	0.600191	0.107289	-0.730514
51387	-7.721098	3.088543	2.301545	0.547708	-1.200077	-1.285646	0.304213	0.605198	0.105206	-0.728094
51388	-7.656878	2.861772	2.230236	0.370506	-1.044836	-1.412595	0.301652	0.610339	0.103638	-0.725087
51389	-7.703443	2.473113	2.086890	0.167946	-0.684945	-1.487062	0.299221	0.615785	0.101847	-0.721736
51390	-7.759148	2.198460	1.998509	-0.022284	-0.437033	-1.515766	0.296070	0.621802	0.098867	-0.718283
51391	-8.092008	2.178940	2.006867	-0.152359	-0.357119	-1.204347	0.291443	0.628491	0.094337	-0.714955
51392	-8.533993	2.640132	2.286376	-0.272508	-0.774825	-0.628455	0.285729	0.635464	0.089129	-0.711759
51393	-8.908335	2.946085	2.463774	-0.411281	-1.048308	-0.177453	0.279707	0.642104	0.084966	-0.708694
51394	-9.745792	3.289903	2.515181	-0.422734	-1.179609	0.701947	0.273934	0.648304	0.081917	-0.705657
51395	-10.347829	2.747928	1.753904	-0.173321	-0.271859	1.031605	0.267882	0.654442	0.078682	-0.702677
51396	-10.925714	3.355312	0.802782	0.789392	-0.280003	1.613982	0.259354	0.661461	0.073511	-0.699858
51397	-11.061172	4.408726	1.075071	0.838051	-1.378789	2.033582	0.250280	0.668571	0.068126	-0.696944
51398	-10.835952	5.004763	1.583120	0.451348	-2.281875	2.000753	0.243511	0.674652	0.065133	-0.693761
51399	-10.456807	4.713191	1.393776	0.350919	-2.136831	1.536778	0.240257	0.679490	0.065252	-0.690153
51400	-9.672436	3.731507	1.306238	-0.059737	-1.504584	0.527433	0.240130	0.683243	0.067960	-0.686220
51401	-9.281113	2.782499	1.073815	-0.312149	-0.728953	-0.096471	0.240870	0.686599	0.071290	-0.682262
51402	-9.206479	2.977908	1.741632	-0.904378	-1.258660	-0.104052	0.241135	0.689945	0.073749	-0.678522
51403	-9.269237	3.217398	2.324636	-1.404582	-1.755995	0.016727	0.242066	0.692940	0.076067	-0.674872
51404	-9.205271	2.809296	2.363658	-1.674606	-1.473154	-0.156542	0.244609	0.695378	0.079096	-0.671089
51405	-9.697951	2.120838	2.537226	-2.230616	-0.885775	0.148490	0.248295	0.697230	0.082994	-0.667332
51406	-9.939718	2.936859	4.721337	-3.838831	-2.607073	0.588258	0.256045	0.696968	0.091305	-0.663582
51407	-10.619815	0.322099	4.178627	-4.601393	-0.153928	0.634443	0.272063	0.692914	0.110594	-0.658499
51408	-9.918485	-3.387856	0.617972	-3.420967	4.400591	-0.915385	0.284094	0.689010	0.129077	-0.654136
51409	-10.240702	-2.897401	-0.964070	-1.967417	4.792170	-0.466067	0.285440	0.688467	0.137198	-0.652468
51410	-9.493748	-0.311952	-0.392328	-0.913709	2.158305	-0.599192	0.282497	0.688891	0.141551	-0.652371
51411	-9.301530	0.109605	-0.867036	-0.244030	1.968010	-0.683129	0.277511	0.690013	0.143518	-0.652895
51412	-8.823739	1.119677	-1.103176	0.590475	1.121194	-0.940114	0.270460	0.691782	0.142826	-0.654133
51413	-8.300796	1.851988	-1.061062	1.033550	0.329922	-1.310857	0.264191	0.693127	0.143269	-0.655174
51414	-8.134813	2.200617	-1.201871	1.374325	0.007729	-1.411921	0.259621	0.694010	0.145868	-0.655492
51415	-8.120268	1.724968	-1.157896	1.095965	0.285763	-1.507776	0.256938	0.694574	0.150883	-0.654816
51416	-8.143295	1.059865	-1.062403	0.662214	0.695164	-1.588164	0.255671	0.694793	0.158042	-0.653389
51417	-8.057645	0.341731	-1.448443	0.594784	1.396265	-1.760593	0.255219	0.694856	0.167175	-0.651222
51418	-8.008607	0.651753	-0.785967	0.230186	0.652839	-1.769057	0.255036	0.694874	0.177615	-0.648506
51419	-8.283347	0.107546	-1.126893	0.160115	1.192356	-1.539447	0.255324	0.694929	0.189185	-0.645053
51420	-8.641688	0.468713	-1.093874	0.300670	0.774260	-1.129167	0.254817	0.695309	0.200214	-0.641505
51421	-8.393210	0.102166	-1.252528	0.212352	1.010188	-1.389032	0.255184	0.695622	0.212430	-0.637075
51422	-8.525066	-0.993925	-1.570498	-0.268016	1.916267	-1.304768	0.255190	0.696088	0.225157	-0.632174
51423	-8.866397	-1.002304	-0.787597	-0.940845	1.250438	-0.993040	0.253703	0.696647	0.236984	-0.627819
51424	-8.845603	-1.437336	-0.616073	-1.367762	1.281315	-1.027784	0.251444	0.697160	0.248237	-0.623797
51425	-8.984221	-1.759619	-0.784911	-1.473766	1.445318	-0.859201	0.246699	0.698281	0.256518	-0.621082
51426	-9.088095	-2.149759	-0.871301	-1.661953	1.622133	-0.725413	0.238452	0.700379	0.260535	-0.620268
51427	-9.604106	-2.199568	-1.352762	-1.340653	1.790735	-0.122447	0.227301	0.703361	0.260690	-0.621014
51428	-9.119836	-0.910471	-1.273402	-0.453652	0.656773	-0.594086	0.213564	0.706239	0.258577	-0.623501
51429	-9.849859	-0.212235	-0.291916	-0.775264	-0.721426	-0.013392	0.202383	0.707933	0.259786	-0.624807
51430	-9.998403	-1.325314	-0.891374	-0.952080	0.336693	0.261863	0.192366	0.708897	0.262443	-0.625767
51431	-10.740304	-1.668597	-1.200807	-0.897399	0.527560	1.072786	0.179575	0.710440	0.261990	-0.628004
51432	-11.490332	-1.212242	-1.894351	-0.025692	0.281892	1.892098	0.164516	0.712504	0.258123	-0.631384
51433	-11.612266	-0.237205	-1.599725	0.380956	-0.866210	1.873286	0.148685	0.714641	0.251476	-0.635564
51434	-11.262305	0.334710	-1.261402	0.496723	-1.605545	1.399654	0.134149	0.716593	0.244209	-0.639422
51435	-11.506876	-0.081832	-0.312318	-0.507044	-1.877899	1.533160	0.121232	0.718111	0.237011	-0.642997
51436	-11.218744	-0.842138	-0.910415	-0.302534	-0.956061	1.429735	0.109009	0.719315	0.229514	-0.646550
51437	-11.127451	-0.951360	-1.981051	0.664039	-0.435749	1.501807	0.095697	0.720434	0.220553	-0.650518
51438	-11.536993	-0.611170	-2.193465	1.062762	-0.824391	1.869624	0.080811	0.721417	0.209994	-0.654928
51439	-11.046524	-0.377696	-1.903537	0.996603	-1.157124	1.298492	0.066589	0.721914	0.200549	-0.658928
51440	-10.643430	0.037366	-1.895815	1.223493	-1.563286	0.814454	0.054176	0.722102	0.193195	-0.662049
51441	-10.729305	-0.330168	-1.777954	1.024788	-1.384893	0.930637	0.043724	0.722050	0.187749	-0.664441
51442	-10.988866	-0.685061	-1.625138	0.798617	-1.253819	1.217035	0.033323	0.721875	0.182192	-0.666778
51443	-10.991257	-0.750135	-1.023432	0.257007	-1.452912	1.152717	0.022418	0.721471	0.176014	-0.669325
51444	-10.926381	0.094709	-0.706096	0.234274	-2.389817	0.870323	0.012045	0.720926	0.170154	-0.671691
51445	-10.969701	0.506864	-0.866992	0.514777	-2.818852	0.823645	0.003596	0.720471	0.165673	-0.673396
51446	-10.963131	0.402907	-0.663466	0.302500	-2.824102	0.804538	-0.003274	0.720107	0.161810	-0.674724
51447	-10.822837	0.295438	-0.615180	0.241334	-2.740504	0.676870	-0.008869	0.719937	0.158217	-0.675707
51448	-10.863722	1.121895	-0.219376	0.026744	-3.638411	0.487237	-0.012730	0.719891	0.155296	-0.676371
51449	-10.914305	1.351728	-0.415820	0.253499	-3.839304	0.498356	-0.013454	0.720132	0.154498	-0.676283
51450	-10.757149	0.772653	-0.734047	0.442616	-3.182145	0.508654	-0.010453	0.720667	0.156538	-0.675297
51451	-10.513516	-0.131417	-0.940493	0.446835	-2.200617	0.502026	-0.005365	0.721359	0.159879	-0.673833
51452	-10.374585	-0.568062	-0.842304	0.232079	-1.740726	0.462527	0.000925	0.722090	0.163879	-0.672108
51453	-10.266333	-1.035926	-0.806654	0.056022	-1.242700	0.462222	0.007921	0.722682	0.168179	-0.670361
51454	-10.234868	-1.122808	-0.915947	0.103889	-1.084752	0.466633	0.015315	0.723034	0.172503	-0.668753
51455	-10.407007	-1.209738	-0.820872	-0.052077	-1.019833	0.646762	0.023278	0.722961	0.177337	-0.667336
51456	-10.676928	-1.340200	-0.800695	-0.147554	-0.917013	0.937715	0.031376	0.722451	0.182345	-0.666206
51457	-10.559805	-1.220708	-0.868278	-0.058784	-0.935804	0.811538	0.039357	0.721633	0.187387	-0.665269
51458	-10.493556	-1.261788	-0.794699	-0.152267	-0.859134	0.750310	0.047073	0.720803	0.192076	-0.664329
51459	-10.470015	-0.905741	-0.434471	-0.381912	-1.251843	0.623654	0.054875	0.720054	0.196438	-0.663267
51460	-10.818996	-1.189970	-0.686674	-0.279065	-0.927334	1.050099	0.062509	0.719402	0.200186	-0.662178
51461	-10.892526	-0.824951	-0.910746	0.041540	-1.133249	1.090100	0.069395	0.718848	0.202732	-0.661318
51462	-10.769130	-0.267603	-1.065603	0.386809	-1.483917	0.903149	0.076444	0.718359	0.204903	-0.660403
51463	-11.092794	-0.182523	-0.979020	0.310222	-1.571851	1.208849	0.084625	0.717677	0.207687	-0.659276
51464	-11.198670	-0.637407	-1.173681	0.273622	-1.009532	1.416699	0.093538	0.716951	0.210465	-0.657979
51465	-11.161586	-0.779403	-0.887440	-0.074522	-0.886632	1.375848	0.102253	0.716250	0.212118	-0.656915
51466	-11.077495	-0.587388	-0.682207	-0.204424	-1.012757	1.253141	0.111548	0.715608	0.213251	-0.655733
51467	-10.937294	-0.173995	-1.127467	0.348156	-1.026766	1.130283	0.121345	0.714959	0.213932	-0.654478
51468	-10.824162	0.576256	-1.043931	0.588366	-1.556474	0.948976	0.132573	0.714288	0.215226	-0.652607
51469	-10.657158	0.527171	-1.089784	0.566769	-1.306681	0.817899	0.146018	0.713411	0.218025	-0.649761
51470	-10.453421	-0.069542	-0.881291	0.039168	-0.703213	0.654257	0.160831	0.712074	0.221504	-0.646545
51471	-10.244602	-0.875349	-0.828665	-0.488126	0.140788	0.489937	0.175420	0.710455	0.223978	-0.643673
51472	-10.264038	-1.007802	-1.083674	-0.426148	0.556993	0.533599	0.187788	0.708975	0.223499	-0.641980
51473	-10.355216	-0.309697	-1.046843	-0.143283	0.135770	0.597884	0.198949	0.707742	0.221219	-0.640767
