// General information: 
//  MT Manager version: 2021.0.0 
//  XDA version: 2021.0.0 build 5908 rev 109668 built on 2021-04-19
// Device information: 
//  DeviceId: 00B43DF2
//  ProductCode: MTW2-3A7G6
//  Firmware Version: 4.3.5
//  Hardware Version: 1.1.0
// Device settings: 
//  Filter Profile: human(46.1)
//  Option Flags: Orientation Smoother Disabled, Position/Velocity Smoother Disabled, Continuous Zero Rotation Update Disabled, AHS Disabled, ICC Disabled
// Coordinate system: ENU
PacketCounter	Acc_X	Acc_Y	Acc_Z	FreeAcc_E	FreeAcc_N	FreeAcc_U	Quat_q0	Quat_q1	Quat_q2	Quat_q3
50291	9.312593	0.230185	-3.057607	0.431230	-0.160768	-0.019093	-0.407185	0.595251	0.546435	0.425778
50292	9.502242	0.258962	-3.085732	0.457566	-0.115410	0.170233	-0.406781	0.595029	0.547313	0.425346
50293	9.506702	0.270156	-3.062462	0.463553	-0.080251	0.167679	-0.406369	0.595104	0.547609	0.425252
50294	9.374639	-0.080194	-3.164454	0.100922	-0.186935	0.079680	-0.406000	0.595523	0.547394	0.425295
50295	9.272019	-0.269429	-3.225616	-0.091728	-0.258828	0.004242	-0.405799	0.596114	0.546939	0.425245
50296	9.087575	-0.063768	-3.064907	0.121003	-0.170882	-0.224262	-0.405437	0.596755	0.546498	0.425259
50297	9.382433	-0.026930	-3.079409	0.171273	-0.092657	0.060287	-0.404827	0.597454	0.546015	0.425478
50298	9.510362	-0.126769	-3.145548	0.072659	-0.105674	0.204352	-0.404233	0.598136	0.545367	0.425916
50299	9.375004	-0.091284	-3.105325	0.104784	-0.110367	0.062479	-0.403705	0.598875	0.544530	0.426448
50300	9.397695	-0.171816	-3.081988	0.028716	-0.076157	0.078633	-0.403171	0.599741	0.543545	0.426992
50301	9.350189	-0.496560	-3.117781	-0.294670	-0.100778	0.051195	-0.402855	0.600623	0.542423	0.427477
50302	9.167972	-0.623951	-3.056767	-0.417281	-0.091005	-0.137853	-0.402842	0.601303	0.541465	0.427749
50303	9.172708	-0.123645	-2.945343	0.097617	-0.029606	-0.178452	-0.402699	0.601918	0.540681	0.428010
50304	9.415632	-0.151429	-3.000035	0.082548	-0.008496	0.070145	-0.402341	0.602581	0.539887	0.428415
50305	9.571751	-0.257201	-2.986377	-0.011159	0.057083	0.217249	-0.402008	0.603224	0.538933	0.429024
50306	9.468843	-0.415171	-3.024204	-0.174062	-0.003000	0.134516	-0.401820	0.603797	0.537842	0.429762
50307	9.307025	-0.576989	-3.032854	-0.341338	-0.054819	-0.013080	-0.401759	0.604260	0.536801	0.430470
50308	9.175718	-0.431988	-2.981911	-0.197004	-0.069232	-0.157191	-0.401689	0.604655	0.535953	0.431036
50309	9.327275	-0.248519	-2.954407	-0.003723	-0.023950	-0.025566	-0.401429	0.605000	0.535246	0.431672
50310	9.406286	-0.332514	-2.963925	-0.085929	-0.008339	0.054743	-0.401151	0.605350	0.534504	0.432360
50311	9.355277	-0.496189	-2.952896	-0.252069	-0.004220	0.006856	-0.400996	0.605656	0.533735	0.433024
50312	9.243868	-0.352787	-2.906613	-0.110933	-0.016422	-0.116845	-0.400947	0.605965	0.532998	0.433545
50313	9.219634	-0.223604	-2.844385	0.024034	0.015049	-0.161710	-0.400800	0.606381	0.532286	0.433974
50314	9.349949	-0.245466	-2.875361	0.009065	0.021571	-0.027548	-0.400531	0.606893	0.531560	0.434396
50315	9.452880	-0.215984	-2.880572	0.046097	0.039871	0.071521	-0.400210	0.607477	0.530742	0.434874
50316	9.391766	-0.244736	-2.890814	0.014872	0.011230	0.016942	-0.399846	0.608076	0.529837	0.435475
50317	9.458779	-0.138111	-2.885135	0.126733	0.018273	0.076457	-0.399424	0.608777	0.528771	0.436180
50318	9.510588	-0.144202	-2.895786	0.124728	0.016310	0.129235	-0.398985	0.609582	0.527477	0.437023
50319	9.354248	-0.442461	-2.896319	-0.177244	-0.003042	-0.011924	-0.398636	0.610451	0.525986	0.437925
50320	9.124920	-0.648095	-2.870811	-0.387326	-0.027717	-0.232763	-0.398327	0.611303	0.524661	0.438607
50321	9.278811	-0.669630	-2.895108	-0.395193	-0.008869	-0.077692	-0.398056	0.612065	0.523613	0.439041
50322	9.281225	-0.579696	-2.875167	-0.298136	-0.003749	-0.083614	-0.397842	0.612602	0.522870	0.439372
50323	9.249976	-0.313252	-2.828425	-0.028235	-0.004706	-0.134912	-0.397478	0.613078	0.522310	0.439703
50324	9.367850	-0.294845	-2.851309	-0.005019	0.005532	-0.016083	-0.396955	0.613610	0.521756	0.440091
50325	9.344334	-0.571106	-2.893141	-0.286061	-0.001719	-0.018242	-0.396469	0.614142	0.521177	0.440474
50326	9.218367	-0.788651	-2.964775	-0.518732	-0.073848	-0.111367	-0.396158	0.614530	0.520784	0.440677
50327	9.289319	-0.640214	-2.979491	-0.368171	-0.085765	-0.043563	-0.395983	0.614721	0.520688	0.440680
50328	9.276568	-0.482657	-2.988545	-0.214934	-0.116383	-0.057723	-0.395783	0.614781	0.520802	0.440642
50329	9.297585	-0.328214	-2.986832	-0.063239	-0.126210	-0.042628	-0.395596	0.614734	0.521017	0.440622
50330	9.429121	-0.215581	-3.032671	0.047845	-0.143771	0.093318	-0.395369	0.614747	0.521160	0.440638
50331	9.413417	-0.184217	-3.032474	0.074840	-0.150209	0.077414	-0.395208	0.614798	0.521110	0.440769
50332	9.382951	-0.140135	-3.014428	0.115572	-0.148507	0.041792	-0.394968	0.614914	0.520884	0.441091
50333	9.425352	-0.233461	-3.028097	0.020590	-0.139157	0.088896	-0.394736	0.615067	0.520481	0.441560
50334	9.467388	-0.300082	-3.021722	-0.044799	-0.117692	0.128963	-0.394593	0.615244	0.519901	0.442125
50335	9.414885	-0.356334	-2.966542	-0.097429	-0.081949	0.064113	-0.394666	0.615431	0.519150	0.442681
50336	9.395628	-0.241529	-2.925060	0.022094	-0.076855	0.030367	-0.394776	0.615647	0.518322	0.443253
50337	9.388528	-0.268772	-2.891258	0.001615	-0.055880	0.014465	-0.394845	0.615930	0.517383	0.443894
50338	9.286011	-0.418168	-2.879757	-0.149073	-0.064827	-0.082763	-0.394897	0.616238	0.516412	0.444551
50339	9.278710	-0.700591	-2.897629	-0.428382	-0.053875	-0.076409	-0.394995	0.616488	0.515540	0.445129
50340	9.270829	-0.547991	-2.890854	-0.275095	-0.084271	-0.090403	-0.395143	0.616587	0.514895	0.445607
50341	9.288677	-0.443849	-2.814951	-0.160889	-0.033473	-0.098088	-0.395159	0.616602	0.514408	0.446134
50342	9.443424	-0.489808	-2.807199	-0.197429	0.014698	0.049327	-0.395138	0.616534	0.514053	0.446656
50343	9.468566	-0.547378	-2.837602	-0.260846	-0.007436	0.083638	-0.395233	0.616378	0.513757	0.447127
50344	9.507912	-0.606907	-2.851186	-0.322577	-0.010945	0.126820	-0.395496	0.616057	0.513577	0.447543
50345	9.606678	-0.788031	-2.925350	-0.507651	-0.040261	0.247510	-0.396112	0.615503	0.513502	0.447847
50346	9.638429	-0.962288	-2.918223	-0.676515	-0.018044	0.281038	-0.397281	0.614594	0.513576	0.447975
50347	9.721935	-1.131542	-2.986051	-0.844123	-0.064175	0.385162	-0.399191	0.613112	0.513883	0.447955
50348	9.369626	-0.464322	-2.945257	-0.200848	-0.256323	0.014513	-0.401550	0.611000	0.514562	0.447954
50349	8.890824	-0.177046	-2.751634	0.073603	-0.273513	-0.508426	-0.403535	0.608813	0.515625	0.447925
50350	9.174693	-0.173720	-2.691712	0.097038	-0.167719	-0.251678	-0.405179	0.606819	0.516904	0.447673
50351	9.538976	-0.263197	-2.724516	0.022050	-0.114902	0.110547	-0.406930	0.604866	0.518072	0.447378
50352	9.324461	-0.189998	-2.643435	0.087400	-0.125926	-0.120119	-0.408842	0.602907	0.519113	0.447072
50353	9.139297	0.074386	-2.500274	0.352021	-0.088762	-0.344223	-0.410386	0.601217	0.520181	0.446691
50354	9.324681	0.073422	-2.491445	0.361121	-0.047132	-0.167496	-0.411602	0.599925	0.521051	0.446295
50355	9.517427	-0.220094	-2.520097	0.077966	-0.003275	0.034883	-0.412625	0.598934	0.521745	0.445871
50356	9.650138	-0.509830	-2.591572	-0.206856	-0.017520	0.190224	-0.413737	0.597992	0.522313	0.445440
50357	9.543738	-0.550787	-2.610756	-0.251907	-0.071126	0.093564	-0.414937	0.596937	0.522939	0.445004
50358	9.507182	-0.411906	-2.628230	-0.116050	-0.123917	0.058226	-0.415999	0.595799	0.523729	0.444608
50359	9.738241	-0.363141	-2.659047	-0.060832	-0.111619	0.287787	-0.416817	0.594620	0.524602	0.444391
50360	9.688215	-0.630123	-2.691741	-0.340163	-0.140744	0.255505	-0.417575	0.593329	0.525494	0.444351
50361	9.378185	-0.938559	-2.693500	-0.673856	-0.202965	-0.035628	-0.418428	0.591857	0.526585	0.444220
50362	9.351088	-1.133001	-2.751313	-0.884338	-0.261662	-0.043055	-0.419457	0.590098	0.528047	0.443854
50363	9.531586	-1.253953	-2.881736	-1.017425	-0.349702	0.165812	-0.420824	0.587919	0.529824	0.443335
50364	9.751398	-1.138969	-3.006655	-0.913777	-0.449649	0.404442	-0.422595	0.585269	0.531733	0.442869
50365	9.917026	-0.923124	-2.929253	-0.700670	-0.382586	0.538286	-0.424603	0.582320	0.533534	0.442670
50366	9.679858	-0.856085	-2.708758	-0.647231	-0.273472	0.250909	-0.426855	0.579129	0.534888	0.443057
50367	9.013066	-1.213241	-2.455276	-1.032472	-0.215914	-0.451982	-0.429161	0.575866	0.536038	0.443692
50368	8.654968	-1.374149	-2.324731	-1.216601	-0.215266	-0.830792	-0.431342	0.572673	0.537305	0.444176
50369	8.340098	-1.303981	-2.274152	-1.170094	-0.284355	-1.153632	-0.433273	0.569663	0.538879	0.444260
50370	8.655448	-1.091211	-2.220361	-0.964731	-0.198367	-0.864647	-0.434526	0.567161	0.540839	0.443856
50371	9.795933	-1.210568	-2.270660	-1.078246	-0.010178	0.258008	-0.435846	0.564873	0.542581	0.443354
50372	8.817499	-1.082005	-1.981818	-0.971585	0.029479	-0.762730	-0.437508	0.562734	0.543838	0.442897
50373	8.667207	-1.072329	-2.025749	-0.972318	-0.066054	-0.900660	-0.438689	0.560883	0.545264	0.442323
50374	9.109315	-0.881294	-2.163085	-0.787099	-0.116413	-0.442408	-0.439395	0.559259	0.546872	0.441692
50375	9.710228	-0.798166	-2.305196	-0.711571	-0.128692	0.173134	-0.439897	0.557781	0.548408	0.441158
50376	10.725132	-1.155813	-2.412546	-1.072490	-0.018085	1.188865	-0.440805	0.556247	0.549585	0.440722
50377	10.517148	-1.070019	-2.348496	-0.990821	-0.025072	0.971019	-0.442793	0.554348	0.550289	0.440245
50378	10.108086	-0.615083	-2.215016	-0.536015	-0.019658	0.539616	-0.445072	0.552063	0.550891	0.440064
50379	9.206754	-0.317101	-1.968366	-0.247561	-0.001421	-0.395788	-0.446857	0.549838	0.551844	0.439847
50380	9.916799	-0.012970	-2.049175	0.048204	0.049617	0.313386	-0.447837	0.547721	0.553300	0.439662
50381	10.471810	-0.009524	-2.086914	0.034493	0.110301	0.864424	-0.448895	0.545681	0.554523	0.439579
50382	9.737384	-0.156833	-1.799012	-0.126929	0.217940	0.087517	-0.450624	0.543873	0.555365	0.438988
50383	9.009765	-0.089041	-1.613540	-0.055823	0.235437	-0.662347	-0.452731	0.542293	0.556159	0.437767
50384	8.474241	0.299433	-1.409939	0.335985	0.334573	-1.229825	-0.454158	0.540975	0.557553	0.436145
50385	9.116472	0.680860	-1.424352	0.713875	0.474422	-0.600321	-0.454630	0.539661	0.559395	0.434920
50386	9.582545	1.168753	-1.430983	1.181815	0.597201	-0.143899	-0.454610	0.538259	0.561104	0.434476
50387	9.890564	1.047177	-1.563715	1.038428	0.531873	0.187500	-0.454233	0.537182	0.562270	0.434696
50388	9.426827	-0.039405	-1.778960	-0.047738	0.173329	-0.221077	-0.454597	0.536498	0.562790	0.434485
50389	9.150796	-0.003375	-1.749429	-0.009705	0.152100	-0.497413	-0.455092	0.536090	0.563694	0.433299
50390	9.807521	0.766758	-1.799501	0.756584	0.294728	0.154974	-0.455243	0.535591	0.564921	0.432158
50391	10.130203	1.322469	-1.748944	1.294537	0.460800	0.460605	-0.454758	0.535062	0.566076	0.431813
50392	10.359634	1.336549	-1.729530	1.283259	0.539796	0.683096	-0.454003	0.534637	0.566784	0.432205
50393	9.941305	0.878087	-1.769533	0.816244	0.389847	0.282539	-0.453504	0.534550	0.566923	0.432653
50394	9.353196	0.624148	-1.765401	0.568719	0.259613	-0.294409	-0.453420	0.534890	0.566855	0.432411
50395	8.868955	0.886034	-1.658836	0.839636	0.289290	-0.790136	-0.453178	0.535639	0.566930	0.431638
50396	9.341279	0.837224	-1.818824	0.801600	0.252548	-0.296273	-0.452421	0.536679	0.567269	0.430695
50397	9.909731	0.856642	-1.954640	0.826203	0.271604	0.286855	-0.451540	0.537688	0.567574	0.429958
50398	9.801127	1.004295	-1.895939	0.972496	0.339388	0.167508	-0.450516	0.538539	0.567784	0.429689
50399	10.020622	1.078641	-1.903909	1.038222	0.403583	0.383409	-0.449290	0.539337	0.567872	0.429855
50400	9.494020	0.975263	-1.818842	0.931621	0.378545	-0.149121	-0.448255	0.540244	0.567565	0.430203
50401	9.166548	0.731428	-1.842284	0.694085	0.283596	-0.464298	-0.447268	0.541513	0.567164	0.430163
50402	9.394692	0.586724	-1.956782	0.560178	0.234380	-0.217652	-0.446467	0.542983	0.566714	0.429734
50403	9.509358	0.418889	-2.022178	0.409550	0.209931	-0.092570	-0.445963	0.544436	0.566269	0.429006
50404	9.546886	0.390392	-2.045737	0.401688	0.214045	-0.051886	-0.445812	0.545647	0.565878	0.428139
50405	9.915579	0.485085	-2.380734	0.526628	-0.003495	0.382630	-0.445564	0.546608	0.565807	0.427263
50406	10.542091	0.963933	-2.684749	1.025712	-0.113907	1.059646	-0.445128	0.547280	0.565895	0.426742
50407	9.565230	0.716571	-2.450842	0.776953	-0.110056	0.056352	-0.444527	0.547992	0.565769	0.426620
50408	8.782565	0.145952	-2.412863	0.213024	-0.262889	-0.709824	-0.443836	0.549086	0.565756	0.425951
50409	9.310085	-0.100681	-2.578503	-0.016536	-0.278727	-0.155648	-0.443087	0.550515	0.565957	0.424618
50410	9.917582	-0.114436	-2.689339	-0.007410	-0.205908	0.461624	-0.442703	0.551863	0.565959	0.423263
50411	9.826372	-0.204263	-2.702310	-0.073334	-0.218418	0.377927	-0.442729	0.552976	0.565629	0.422222
50412	9.589096	-0.289610	-2.633614	-0.138561	-0.199979	0.132730	-0.442992	0.553873	0.565046	0.421550
50413	9.383982	-0.438462	-2.558198	-0.270204	-0.179364	-0.081782	-0.443390	0.554563	0.564294	0.421234
50414	9.028430	-0.588787	-2.486935	-0.408605	-0.204437	-0.440639	-0.443736	0.555108	0.563643	0.421024
50415	9.165590	-0.693377	-2.592469	-0.495406	-0.274819	-0.279128	-0.443783	0.555547	0.563404	0.420713
50416	9.450854	-0.788062	-2.556846	-0.581181	-0.166995	-0.009042	-0.443764	0.555731	0.563546	0.420301
50417	9.830667	-0.685477	-2.567648	-0.470324	-0.075891	0.359714	-0.444033	0.555478	0.563849	0.419944
50418	9.917007	-0.502843	-2.509174	-0.286788	0.004617	0.425162	-0.444655	0.554898	0.564076	0.419747
50419	10.022749	-0.252059	-2.410346	-0.037319	0.122407	0.498103	-0.445491	0.554106	0.564114	0.419857
50420	9.684000	-0.146566	-2.250831	0.057768	0.175855	0.128804	-0.446383	0.553276	0.563796	0.420430
50421	9.193983	-0.292655	-2.067552	-0.102753	0.204516	-0.387333	-0.447015	0.552660	0.563379	0.421128
50422	8.969580	-0.462633	-2.002489	-0.280944	0.189823	-0.616907	-0.447208	0.552312	0.563172	0.421655
50423	9.234830	-0.262318	-1.969169	-0.084967	0.287120	-0.371350	-0.446957	0.552241	0.563218	0.421953
50424	9.314135	-0.173351	-2.048854	0.000982	0.235232	-0.277195	-0.446347	0.552475	0.563309	0.422172
50425	9.475338	-0.143324	-2.143069	0.029167	0.193769	-0.098939	-0.445440	0.553052	0.563354	0.422315
50426	9.528712	-0.130095	-2.300202	0.042761	0.069396	-0.009752	-0.444350	0.553907	0.563221	0.422519
50427	9.459286	-0.000664	-2.345488	0.168408	0.029900	-0.068452	-0.443095	0.555074	0.562885	0.422752
50428	9.582747	0.180704	-2.449515	0.350680	-0.017737	0.073591	-0.441634	0.556529	0.562247	0.423217
50429	9.363026	0.191353	-2.421385	0.354693	-0.028283	-0.146284	-0.439955	0.558287	0.561261	0.423959
50430	9.677689	-0.026710	-2.598124	0.142232	-0.111147	0.206096	-0.438227	0.560305	0.559937	0.424837
50431	9.635137	-0.449297	-2.699561	-0.275496	-0.212986	0.197512	-0.436876	0.562440	0.558248	0.425628
50432	9.485554	-1.105968	-2.788461	-0.920757	-0.329606	0.087714	-0.436025	0.564487	0.556594	0.425958
50433	9.342143	-1.114597	-2.807523	-0.912415	-0.371282	-0.043873	-0.435778	0.566032	0.555397	0.425721
50434	9.174691	-0.702742	-2.688494	-0.486125	-0.286241	-0.243021	-0.435615	0.567051	0.554845	0.425254
50435	9.233410	-0.455320	-2.625704	-0.225897	-0.197020	-0.207084	-0.435240	0.567780	0.554804	0.424716
50436	9.548166	-0.330633	-2.679041	-0.087107	-0.151262	0.108177	-0.434768	0.568383	0.555014	0.424119
50437	9.722980	-0.152053	-2.673093	0.101791	-0.082692	0.271343	-0.434419	0.569005	0.555132	0.423487
50438	9.546448	-0.175123	-2.677858	0.083732	-0.116000	0.102743	-0.434114	0.569806	0.555019	0.422872
50439	9.205816	-0.710507	-2.724560	-0.446012	-0.230887	-0.199009	-0.433893	0.570834	0.554796	0.422003
50440	9.102127	-0.880973	-2.748545	-0.600584	-0.258215	-0.286311	-0.433668	0.571916	0.554861	0.420682
50441	9.159392	-0.805276	-2.811846	-0.504739	-0.276814	-0.214879	-0.433331	0.572832	0.555242	0.419278
50442	9.140765	-0.598169	-2.847038	-0.286542	-0.286923	-0.228716	-0.432759	0.573496	0.555902	0.418085
50443	9.432793	-0.507209	-3.048664	-0.182229	-0.373718	0.104785	-0.431996	0.573932	0.556669	0.417255
50444	9.711305	-0.452764	-3.216756	-0.122212	-0.435729	0.417519	-0.431282	0.574143	0.557292	0.416871
50445	9.810318	-0.523786	-3.343749	-0.196805	-0.516716	0.550305	-0.430848	0.574155	0.557599	0.416893
50446	9.535136	-0.718365	-3.267903	-0.406196	-0.517365	0.271032	-0.430872	0.573957	0.557629	0.417101
50447	9.253348	-0.742780	-3.077529	-0.442350	-0.418228	-0.051705	-0.431234	0.573611	0.557605	0.417234
50448	9.263525	-0.697715	-2.898626	-0.399133	-0.252512	-0.092675	-0.431644	0.573094	0.557744	0.417335
50449	9.210877	-0.492406	-2.773115	-0.200527	-0.154771	-0.184150	-0.431943	0.572432	0.558087	0.417475
50450	9.217357	-0.282194	-2.676385	0.001740	-0.065240	-0.210705	-0.432017	0.571899	0.558492	0.417587
50451	9.288940	-0.284507	-2.626008	-0.007443	0.000991	-0.155503	-0.431883	0.571559	0.558831	0.417738
50452	9.346307	-0.386672	-2.600154	-0.115970	0.042074	-0.104518	-0.431673	0.571407	0.559074	0.417837
50453	9.425466	-0.592299	-2.698352	-0.323867	-0.029013	0.003911	-0.431524	0.571314	0.559298	0.417820
50454	9.487332	-0.407497	-2.741473	-0.140465	-0.051303	0.070067	-0.431529	0.571140	0.559513	0.417765
50455	9.438868	-0.221309	-2.742109	0.041020	-0.063236	0.018625	-0.431396	0.571032	0.559700	0.417798
50456	9.295845	-0.353689	-2.787574	-0.098262	-0.144574	-0.103010	-0.431182	0.571072	0.559751	0.417898
50457	9.268526	-0.509289	-2.881064	-0.254836	-0.238393	-0.099619	-0.430948	0.571342	0.559740	0.417783
50458	9.167432	-0.545438	-2.921631	-0.292933	-0.298705	-0.184593	-0.430660	0.571575	0.559803	0.417678
50459	9.429728	-0.503633	-2.874521	-0.249237	-0.174261	0.053609	-0.430218	0.571606	0.560088	0.417709
50460	9.682444	-0.444297	-2.898753	-0.193572	-0.124337	0.301508	-0.429868	0.571366	0.560327	0.418077
50461	9.867378	-0.361035	-2.910845	-0.118332	-0.088845	0.480349	-0.429747	0.570960	0.560422	0.418629
50462	10.000581	-0.232771	-2.786507	0.000238	0.054537	0.571310	-0.429930	0.570407	0.560230	0.419451
50463	9.958571	-0.322795	-2.684644	-0.100000	0.116217	0.505309	-0.430573	0.569682	0.559679	0.420510
50464	9.171630	-0.350319	-2.383487	-0.149953	0.163387	-0.332536	-0.431393	0.568960	0.559057	0.421474
50465	8.698790	-0.299460	-2.210570	-0.112043	0.182012	-0.834962	-0.431823	0.568503	0.558848	0.421927
50466	9.322456	-0.283269	-2.277989	-0.085984	0.275453	-0.216105	-0.431833	0.568292	0.559068	0.421908
50467	9.543797	-0.018378	-2.354573	0.180984	0.262164	0.012124	-0.431821	0.568163	0.559286	0.421806
50468	9.439892	-0.074472	-2.457065	0.121513	0.139618	-0.059739	-0.431591	0.568213	0.559502	0.421689
50469	9.624090	-0.126147	-2.567865	0.072294	0.089678	0.148220	-0.431274	0.568403	0.559742	0.421437
50470	9.518258	-0.199882	-2.660258	-0.001448	-0.018464	0.072343	-0.431105	0.568684	0.559837	0.421106
50471	9.550063	-0.164632	-2.702255	0.038339	-0.041095	0.113532	-0.430931	0.568980	0.559953	0.420730
50472	9.756310	-0.147113	-2.770113	0.065065	-0.043030	0.330027	-0.430932	0.569201	0.559990	0.420380
50473	9.607798	-0.020577	-2.791029	0.195284	-0.100434	0.189903	-0.431174	0.569326	0.559794	0.420224
50474	9.425497	-0.199087	-2.780964	0.020562	-0.142860	0.015464	-0.431478	0.569439	0.559534	0.420104
50475	9.395052	-0.250199	-2.787066	-0.021880	-0.161787	-0.011123	-0.431996	0.569482	0.559220	0.419931
50476	9.071775	-0.319441	-2.729811	-0.087760	-0.197486	-0.336175	-0.432466	0.569577	0.559049	0.419548
50477	9.365681	-0.261136	-2.785559	-0.011100	-0.172195	-0.039575	-0.432885	0.569623	0.559066	0.419029
50478	9.157896	-0.225256	-2.735681	0.028922	-0.176199	-0.253929	-0.433133	0.569716	0.559217	0.418445
50479	9.422759	-0.067604	-2.823157	0.200832	-0.181404	0.020416	-0.433182	0.569791	0.559498	0.417916
50480	9.286146	0.035335	-2.805074	0.303865	-0.191201	-0.118705	-0.433045	0.569970	0.559737	0.417494
50481	9.390948	-0.135403	-2.857380	0.138287	-0.202562	0.001215	-0.432648	0.570320	0.559985	0.417094
50482	9.460038	-0.276379	-2.841219	0.001272	-0.155784	0.067441	-0.432348	0.570741	0.560111	0.416659
50483	9.427672	-0.338339	-2.889496	-0.056310	-0.201773	0.051428	-0.432310	0.570983	0.560146	0.416320
50484	9.097859	-0.368002	-2.897207	-0.089182	-0.291168	-0.262425	-0.432216	0.571246	0.560351	0.415781
50485	9.391154	-0.267745	-2.874463	0.023745	-0.176504	0.010564	-0.432140	0.571439	0.560692	0.415134
50486	9.165564	-0.127188	-2.796587	0.161393	-0.150811	-0.231673	-0.431996	0.571632	0.561022	0.414572
50487	9.405566	-0.213203	-2.910140	0.086769	-0.180306	0.033072	-0.431672	0.571966	0.561349	0.414008
50488	9.533009	-0.211960	-2.915933	0.094918	-0.136764	0.157174	-0.431440	0.572312	0.561494	0.413573
50489	9.530534	-0.469978	-2.921480	-0.160020	-0.134430	0.164452	-0.431184	0.572619	0.561561	0.413324
50490	9.633138	-0.737640	-2.930796	-0.422830	-0.111478	0.273928	-0.431190	0.572681	0.561544	0.413255
50491	9.667072	-1.194245	-2.924122	-0.875985	-0.102394	0.319003	-0.431685	0.572313	0.561611	0.413157
50492	9.728206	-1.210590	-2.876707	-0.886989	-0.054966	0.365188	-0.432869	0.571363	0.561737	0.413064
50493	9.416596	-1.035159	-2.803244	-0.717533	-0.095331	0.040129	-0.434426	0.569870	0.562057	0.413055
50494	9.271955	-0.784602	-2.604256	-0.475498	0.030637	-0.161791	-0.435893	0.568170	0.562628	0.413073
50495	9.167069	-0.650386	-2.518626	-0.350489	0.060474	-0.290341	-0.437186	0.566486	0.563284	0.413126
50496	9.054871	-0.662264	-2.476100	-0.373373	0.049831	-0.409580	-0.438073	0.565037	0.564027	0.413157
50497	9.479504	-0.853393	-2.521043	-0.562946	0.100069	0.016757	-0.438790	0.563655	0.564832	0.413184
50498	9.426397	-1.096895	-2.471833	-0.821305	0.110302	-0.041129	-0.439519	0.562089	0.565800	0.413219
50499	9.850616	-1.041263	-2.438260	-0.774647	0.238994	0.356222	-0.440445	0.560142	0.567039	0.413178
50500	9.575633	-0.520396	-2.145486	-0.288768	0.445807	-0.000222	-0.441486	0.558041	0.568272	0.413216
50501	9.500061	-0.082927	-1.953756	0.120143	0.608596	-0.133311	-0.442371	0.556163	0.569324	0.413353
50502	9.222312	0.002834	-1.842301	0.181334	0.631806	-0.431161	-0.442977	0.554764	0.570129	0.413475
50503	9.033422	0.086296	-1.845128	0.251016	0.576384	-0.613806	-0.443124	0.554002	0.570759	0.413470
50504	9.140246	0.109548	-1.999360	0.273396	0.460498	-0.471021	-0.442664	0.553894	0.571341	0.413304
50505	9.312092	0.153331	-2.238773	0.322994	0.290985	-0.243902	-0.441826	0.554322	0.571748	0.413064
50506	9.504569	0.147298	-2.483890	0.325093	0.125202	0.006011	-0.440734	0.555149	0.571916	0.412887
50507	9.499673	0.065837	-2.729113	0.250761	-0.095139	0.067809	-0.439544	0.556109	0.571869	0.412928
50508	9.558556	-0.195341	-3.018640	-0.001632	-0.352330	0.206902	-0.438467	0.557050	0.571597	0.413181
50509	9.231206	-0.555409	-3.133020	-0.363588	-0.552568	-0.070926	-0.437665	0.557689	0.571439	0.413387
50510	9.316955	-0.615725	-3.240272	-0.424405	-0.625783	0.041875	-0.437229	0.557823	0.571627	0.413408
50511	9.323889	-0.328539	-3.204124	-0.144638	-0.571488	0.034228	-0.437119	0.557538	0.572115	0.413234
50512	9.438738	-0.081216	-3.117393	0.094124	-0.442941	0.117542	-0.437208	0.557048	0.572719	0.412965
50513	9.318408	0.069163	-2.920661	0.231751	-0.278003	-0.053754	-0.437456	0.556553	0.573227	0.412664
50514	9.298218	0.086078	-2.867255	0.245545	-0.228193	-0.087820	-0.437580	0.556321	0.573672	0.412226
50515	9.207421	0.161739	-2.792420	0.319074	-0.169497	-0.196564	-0.437493	0.556434	0.574004	0.411705
50516	9.249939	0.075062	-2.753359	0.234121	-0.110316	-0.164839	-0.437093	0.556936	0.574277	0.411070
50517	9.496301	0.053146	-2.784628	0.219752	-0.054596	0.081018	-0.436547	0.557744	0.574353	0.410448
50518	9.389809	-0.115637	-2.833470	0.059989	-0.118412	-0.004895	-0.435917	0.558725	0.574236	0.409946
50519	9.473009	-0.230098	-2.835845	-0.047483	-0.082301	0.077904	-0.435198	0.559721	0.574124	0.409508
50520	9.652765	-0.332111	-2.910621	-0.140501	-0.089585	0.273446	-0.434582	0.560509	0.574006	0.409250
50521	9.598963	-0.306098	-2.936579	-0.110602	-0.116294	0.228803	-0.434238	0.561030	0.573838	0.409136
50522	9.558755	-0.261589	-2.912057	-0.064419	-0.097235	0.182546	-0.434139	0.561338	0.573604	0.409148
50523	9.492608	-0.222173	-2.912418	-0.020574	-0.115479	0.118444	-0.434322	0.561550	0.573247	0.409163
50524	9.391426	-0.153669	-2.907906	0.055264	-0.141642	0.018655	-0.434703	0.561754	0.572780	0.409131
50525	9.352601	-0.059056	-2.889708	0.159694	-0.138481	-0.025944	-0.435179	0.561975	0.572199	0.409136
50526	9.314273	0.020609	-2.855104	0.249751	-0.120949	-0.074581	-0.435587	0.562341	0.571495	0.409182
50527	9.274321	0.339845	-2.746339	0.575986	-0.024094	-0.151499	-0.435814	0.562919	0.570570	0.409436
50528	9.338382	0.707838	-2.594246	0.948635	0.143786	-0.142324	-0.435515	0.563958	0.569261	0.410146
50529	9.629496	0.534906	-2.587745	0.789553	0.214459	0.139214	-0.434812	0.565604	0.567260	0.411396
50530	9.459858	-0.105559	-2.628063	0.160526	0.099507	0.004190	-0.434016	0.567767	0.564643	0.412856
50531	9.303419	-0.809552	-2.688532	-0.526220	-0.022473	-0.109094	-0.433320	0.570171	0.561900	0.414013
50532	9.320887	-1.105959	-2.670712	-0.799304	-0.005092	-0.086649	-0.432852	0.572348	0.559480	0.414776
50533	9.123470	-0.990891	-2.604232	-0.669346	0.006713	-0.296728	-0.432405	0.574145	0.557597	0.415294
50534	9.396330	-0.954728	-2.578257	-0.608630	0.110850	-0.041955	-0.431860	0.575519	0.556313	0.415680
50535	9.463173	-0.802972	-2.581507	-0.444155	0.129281	0.018212	-0.431474	0.576517	0.555304	0.416049
50536	9.363776	-0.633448	-2.573427	-0.270311	0.110612	-0.085469	-0.431137	0.577377	0.554474	0.416311
50537	9.416405	-0.635482	-2.583406	-0.263142	0.118897	-0.031935	-0.430733	0.578224	0.553770	0.416490
50538	9.540341	-0.562807	-2.591395	-0.178304	0.148857	0.086618	-0.430406	0.579038	0.553074	0.416623
50539	9.466915	-0.489697	-2.560480	-0.100102	0.160145	0.004780	-0.430156	0.579817	0.552328	0.416788
50540	9.384645	-0.524317	-2.503370	-0.129309	0.194956	-0.088563	-0.429892	0.580630	0.551577	0.416923
50541	9.381228	-0.677333	-2.514655	-0.271972	0.188920	-0.082321	-0.429740	0.581454	0.550859	0.416880
50542	9.199750	-0.747357	-2.539618	-0.337832	0.121737	-0.246360	-0.429619	0.582265	0.550334	0.416567
50543	9.255989	-0.818275	-2.560419	-0.393784	0.129202	-0.183208	-0.429390	0.583021	0.550126	0.416020
50544	9.338593	-0.725063	-2.585031	-0.287132	0.140858	-0.101090	-0.429081	0.583623	0.550171	0.415434
50545	9.351145	-0.702179	-2.658769	-0.258738	0.089356	-0.069430	-0.428627	0.584105	0.550431	0.414881
50546	9.414896	-0.753775	-2.764198	-0.305787	0.024405	0.023730	-0.428182	0.584463	0.550802	0.414342
50547	9.405291	-0.720918	-2.790630	-0.273010	0.012346	0.020528	-0.427798	0.584687	0.551298	0.413764
50548	9.357853	-0.635010	-2.852943	-0.189499	-0.046676	-0.010962	-0.427494	0.584863	0.551809	0.413148
50549	9.388375	-0.598207	-2.901012	-0.149774	-0.069004	0.030488	-0.427243	0.585060	0.552303	0.412468
50550	9.501443	-0.713158	-3.006770	-0.257246	-0.120322	0.174605	-0.427083	0.585129	0.552860	0.411789
50551	9.493739	-0.711087	-3.042904	-0.253879	-0.145222	0.177830	-0.427132	0.584964	0.553467	0.411157
50552	9.527661	-0.703025	-3.096830	-0.243602	-0.180388	0.225691	-0.427378	0.584530	0.554108	0.410655
50553	9.668293	-0.911758	-3.121548	-0.446213	-0.160589	0.376835	-0.427949	0.583713	0.554787	0.410305
50554	9.666020	-1.206504	-3.222819	-0.741989	-0.266438	0.417298	-0.429115	0.582318	0.555562	0.410020
50555	9.324651	-1.129956	-3.193485	-0.680611	-0.360894	0.078254	-0.430898	0.580371	0.556584	0.409525
50556	9.133006	-0.811456	-3.083504	-0.369884	-0.337813	-0.152084	-0.432859	0.578084	0.557967	0.408807
50557	9.443935	-0.588366	-2.939273	-0.135962	-0.135687	0.093697	-0.434935	0.575514	0.559542	0.408078
50558	9.237810	-0.438490	-2.797903	-0.001159	-0.083979	-0.150878	-0.437047	0.572796	0.561104	0.407501
50559	8.814690	0.048179	-2.548062	0.454969	0.024407	-0.648295	-0.438608	0.570411	0.562783	0.406853
50560	8.931069	0.276923	-2.425480	0.672916	0.174720	-0.580121	-0.439263	0.568766	0.564454	0.406134
50561	9.103894	0.292407	-2.424824	0.682563	0.232802	-0.414494	-0.439214	0.567973	0.565820	0.405396
50562	9.371710	0.126624	-2.506463	0.520810	0.242661	-0.127793	-0.438718	0.567976	0.566748	0.404632
50563	9.496947	-0.039013	-2.605484	0.360267	0.200751	0.026618	-0.437973	0.568516	0.567236	0.403994
50564	9.477828	-0.228596	-2.755355	0.175839	0.069383	0.058365	-0.437051	0.569333	0.567428	0.403573
50565	9.471866	-0.543969	-2.907123	-0.134835	-0.063983	0.109066	-0.436007	0.570208	0.567530	0.403325
50566	9.457569	-0.649486	-3.010548	-0.240059	-0.148604	0.129702	-0.435050	0.570959	0.567607	0.403187
50567	9.358921	-0.728965	-3.076397	-0.325282	-0.224616	0.057912	-0.434212	0.571459	0.567778	0.403140
50568	9.420441	-0.714711	-3.151703	-0.313440	-0.263936	0.138234	-0.433535	0.571734	0.568032	0.403121
50569	9.487800	-0.575135	-3.179505	-0.178567	-0.257791	0.205299	-0.433133	0.571734	0.568294	0.403184
50570	9.516193	-0.482669	-3.244217	-0.090693	-0.306228	0.247821	-0.432987	0.571488	0.568520	0.403371
50571	9.570367	-0.440522	-3.234863	-0.054233	-0.285027	0.295039	-0.433151	0.571056	0.568598	0.403698
50572	9.381443	-0.410761	-3.188841	-0.036403	-0.307518	0.099577	-0.433562	0.570494	0.568550	0.404119
50573	9.269171	-0.423745	-3.036138	-0.061559	-0.210569	-0.052202	-0.434101	0.569864	0.568457	0.404559
50574	9.347621	-0.333561	-2.967513	0.025646	-0.136711	-0.000652	-0.434678	0.569256	0.568330	0.404973
50575	9.425666	-0.258620	-2.882960	0.098385	-0.048574	0.046798	-0.435281	0.568730	0.568099	0.405388
50576	9.105866	-0.223812	-2.741855	0.119840	-0.021183	-0.301124	-0.435803	0.568360	0.567769	0.405809
50577	9.241563	-0.462826	-2.775508	-0.113552	-0.033536	-0.152971	-0.436048	0.568170	0.567610	0.406035
50578	9.414461	-0.497453	-2.738684	-0.143340	0.042448	0.003502	-0.436408	0.568001	0.567470	0.406080
50579	9.235612	-0.415667	-2.702395	-0.066083	0.023042	-0.181107	-0.436648	0.567749	0.567534	0.406085
50580	9.295450	-0.442607	-2.696534	-0.092828	0.043191	-0.124441	-0.436667	0.567555	0.567779	0.405994
50581	9.480146	-0.486566	-2.749982	-0.132839	0.044383	0.069251	-0.436702	0.567259	0.568151	0.405849
50582	9.525124	-0.398295	-2.728136	-0.047783	0.080967	0.102983	-0.436887	0.566841	0.568515	0.405724
50583	9.606780	-0.316722	-2.735687	0.033921	0.096775	0.180511	-0.437211	0.566407	0.568766	0.405629
50584	9.500139	-0.357102	-2.683622	-0.011541	0.108388	0.065071	-0.437701	0.565913	0.568876	0.405636
50585	9.214610	-0.415208	-2.647108	-0.077102	0.051350	-0.216854	-0.438274	0.565377	0.568998	0.405593
50586	9.151936	-0.442585	-2.608486	-0.105577	0.063219	-0.286782	-0.438764	0.564931	0.569286	0.405280
50587	9.380680	-0.376104	-2.623023	-0.030376	0.114074	-0.065640	-0.439197	0.564515	0.569659	0.404867
50588	9.482446	-0.262929	-2.682554	0.090868	0.089179	0.044584	-0.439618	0.564152	0.569959	0.404495
50589	9.587719	-0.180456	-2.685289	0.178810	0.117574	0.143311	-0.439985	0.563864	0.570108	0.404287
50590	9.565247	-0.175782	-2.702201	0.186048	0.090709	0.126322	-0.440290	0.563651	0.570052	0.404330
50591	9.367853	-0.133380	-2.660512	0.223456	0.070724	-0.076269	-0.440479	0.563621	0.569800	0.404521
50592	9.471495	-0.161354	-2.715792	0.202924	0.039113	0.039625	-0.440533	0.563794	0.569359	0.404842
50593	9.366323	-0.093063	-2.675476	0.269875	0.044504	-0.075130	-0.440520	0.564200	0.568665	0.405267
50594	9.430718	-0.185501	-2.689992	0.184138	0.038643	-0.005878	-0.440310	0.564830	0.567815	0.405808
50595	9.487188	-0.413815	-2.756562	-0.034616	-0.023627	0.075429	-0.440082	0.565568	0.566825	0.406413
50596	9.376499	-0.571080	-2.763015	-0.188420	-0.072156	-0.022979	-0.439968	0.566279	0.565795	0.406979
50597	9.134638	-0.534035	-2.725507	-0.153296	-0.106664	-0.266991	-0.439796	0.566999	0.564919	0.407380
50598	9.292297	-0.733578	-2.739648	-0.341178	-0.083551	-0.103558	-0.439538	0.567711	0.564208	0.407652
50599	9.373071	-0.773861	-2.783307	-0.372395	-0.102990	-0.012135	-0.439356	0.568192	0.563764	0.407792
50600	9.527366	-0.939843	-2.855106	-0.527047	-0.133175	0.162789	-0.439350	0.568407	0.563507	0.407854
50601	9.375789	-0.841957	-2.808087	-0.433026	-0.129287	0.000336	-0.439563	0.568324	0.563447	0.407822
50602	9.335355	-0.733386	-2.817810	-0.323989	-0.150035	-0.040314	-0.439813	0.568051	0.563609	0.407710
50603	9.338385	-0.521530	-2.777013	-0.114233	-0.106624	-0.057442	-0.440025	0.567699	0.563892	0.407582
50604	9.445769	-0.364660	-2.742586	0.042441	-0.041504	0.029761	-0.440169	0.567360	0.564145	0.407547
50605	9.610183	-0.318069	-2.790333	0.093579	-0.044820	0.198904	-0.440347	0.567099	0.564151	0.407711
50606	9.508542	-0.318539	-2.758772	0.087387	-0.051153	0.092584	-0.440620	0.566881	0.563885	0.408085
50607	9.296956	-0.257405	-2.700224	0.139102	-0.062452	-0.129321	-0.440800	0.566821	0.563445	0.408581
50608	9.393048	-0.346177	-2.655249	0.050799	-0.006345	-0.045554	-0.440776	0.566932	0.562894	0.409213
50609	9.388038	-0.667285	-2.630766	-0.272687	-0.002645	-0.044009	-0.440708	0.567089	0.562309	0.409872
50610	9.453920	-0.970593	-2.657453	-0.573506	-0.027625	0.038761	-0.440810	0.567114	0.561859	0.410344
50611	9.324512	-1.046763	-2.623768	-0.654363	-0.041761	-0.091759	-0.441182	0.566850	0.561680	0.410554
50612	9.150694	-0.780181	-2.493808	-0.399237	0.036073	-0.304676	-0.441430	0.566382	0.561982	0.410521
50613	9.439621	-0.433394	-2.532973	-0.048528	0.082418	-0.029994	-0.441456	0.565812	0.562537	0.410519
50614	9.495525	-0.260800	-2.619644	0.118418	0.017398	0.040292	-0.441322	0.565335	0.562951	0.410752
50615	9.429623	-0.229028	-2.658143	0.137938	-0.038152	-0.013939	-0.441027	0.565046	0.563189	0.411140
50616	9.418517	-0.177977	-2.651044	0.175601	-0.033273	-0.028198	-0.440463	0.564984	0.563310	0.411664
50617	10.088621	0.030254	-2.777545	0.393536	0.024625	0.643911	-0.440189	0.564894	0.562944	0.412581
50618	9.166241	-0.129917	-2.603676	0.194925	-0.072119	-0.285214	-0.439989	0.565076	0.562093	0.413704
50619	9.340101	-0.473222	-2.648622	-0.144697	-0.089970	-0.094272	-0.439836	0.565501	0.561234	0.414451
50620	8.953995	-0.572475	-2.449998	-0.256093	-0.009219	-0.515452	-0.439827	0.566047	0.560487	0.414725
50621	8.754247	-0.523264	-2.366142	-0.207542	0.023014	-0.731627	-0.439532	0.566746	0.560226	0.414436
50622	8.721333	-0.607390	-2.315661	-0.287126	0.081318	-0.773676	-0.438683	0.567757	0.560617	0.413421
50623	9.316292	-0.557913	-2.417531	-0.213732	0.181795	-0.175773	-0.437345	0.568810	0.561608	0.412046
50624	10.052569	-0.419940	-2.743070	-0.047733	0.116319	0.615111	-0.436079	0.569506	0.562648	0.411006
50625	9.564991	-0.388943	-2.827550	-0.034652	-0.061272	0.168811	-0.434972	0.570094	0.563479	0.410223
50626	9.676876	-0.356052	-2.941258	-0.000978	-0.106284	0.307012	-0.433947	0.570669	0.564209	0.409506
50627	9.504379	-0.325011	-3.015645	0.023328	-0.198886	0.161921	-0.433155	0.571204	0.564638	0.409006
50628	9.478824	-0.462722	-3.081392	-0.115784	-0.249714	0.161349	-0.432394	0.571740	0.564989	0.408577
50629	9.965137	-0.442189	-3.265248	-0.078809	-0.270116	0.679317	-0.431968	0.572077	0.565072	0.408442
50630	9.841445	-0.367202	-3.267952	-0.007957	-0.307808	0.559080	-0.432196	0.571981	0.564678	0.408879
50631	9.527203	-0.478021	-3.149947	-0.131492	-0.304132	0.227653	-0.432673	0.571624	0.564073	0.409710
50632	9.639245	-0.418488	-3.049721	-0.072767	-0.205509	0.303801	-0.433579	0.570989	0.563136	0.410924
50633	9.297154	-0.597616	-2.892364	-0.266088	-0.193088	-0.063238	-0.434669	0.570198	0.562102	0.412286
50634	9.519539	-0.510594	-2.876188	-0.173733	-0.158056	0.142183	-0.435903	0.569277	0.561112	0.413601
50635	9.647209	-0.333203	-2.843883	0.006677	-0.137455	0.249528	-0.437315	0.568250	0.559985	0.415048
50636	9.372914	-0.219668	-2.684285	0.109726	-0.107871	-0.061727	-0.438839	0.567188	0.558684	0.416641
50637	9.011877	-0.184834	-2.478412	0.131016	-0.053146	-0.465471	-0.440130	0.566336	0.557449	0.418090
50638	9.033248	-0.287540	-2.362336	0.028966	0.023197	-0.471306	-0.441079	0.565859	0.556342	0.419208
50639	9.362213	-0.438743	-2.396877	-0.108204	0.042421	-0.139271	-0.441721	0.565590	0.555548	0.419948
50640	9.692812	-0.318711	-2.476297	0.027665	0.024564	0.196448	-0.442553	0.565208	0.554731	0.420666
50641	9.463133	-0.397761	-2.477906	-0.053599	-0.062149	-0.022778	-0.443368	0.564802	0.553964	0.421363
50642	9.587324	-0.299738	-2.473478	0.053438	-0.053534	0.092812	-0.444297	0.564366	0.553151	0.422037
50643	9.359692	-0.328883	-2.398313	0.022076	-0.064460	-0.145258	-0.445236	0.563970	0.552295	0.422697
50644	9.446368	-0.297020	-2.400519	0.063721	-0.071862	-0.062031	-0.446055	0.563684	0.551446	0.423323
50645	9.494785	-0.457091	-2.430833	-0.087236	-0.117061	-0.002108	-0.446824	0.563453	0.550518	0.424027
50646	9.398897	-0.581876	-2.398076	-0.210199	-0.134525	-0.098456	-0.447543	0.563164	0.549666	0.424757
50647	9.486632	-0.875975	-2.454721	-0.496226	-0.197622	0.010949	-0.448333	0.562683	0.548976	0.425454
50648	9.407501	-0.917638	-2.358223	-0.539506	-0.148958	-0.086896	-0.449332	0.561942	0.548521	0.425966
50649	9.331930	-0.916228	-2.308085	-0.539204	-0.142759	-0.172123	-0.450392	0.561011	0.548415	0.426209
50650	9.385349	-0.919699	-2.325896	-0.538335	-0.169827	-0.116207	-0.451481	0.559961	0.548648	0.426137
50651	9.746512	-0.941432	-2.418736	-0.543270	-0.199443	0.256877	-0.452700	0.558706	0.549138	0.425861
50652	9.791036	-0.736037	-2.385675	-0.337200	-0.175824	0.284486	-0.454080	0.557107	0.549737	0.425715
50653	9.714884	-0.612070	-2.300018	-0.224254	-0.133616	0.186086	-0.455454	0.555117	0.550478	0.425888
50654	9.814195	-0.348171	-2.169569	0.024404	-0.011457	0.244440	-0.456919	0.552709	0.551283	0.426409
50655	9.565180	-0.316361	-2.074742	0.026643	-0.011195	-0.020022	-0.458476	0.550084	0.551996	0.427208
50656	9.916837	-0.528162	-2.146705	-0.189498	-0.062730	0.345603	-0.460498	0.547348	0.552502	0.427894
50657	9.814934	-0.471884	-2.060474	-0.146575	-0.053353	0.226063	-0.463224	0.544489	0.552706	0.428336
50658	9.708353	-0.197085	-1.879277	0.117159	0.052903	0.076993	-0.466243	0.541533	0.552702	0.428813
50659	9.224224	0.000538	-1.647363	0.290976	0.136567	-0.448044	-0.468870	0.538733	0.552717	0.429456
50660	9.002091	-0.075597	-1.588613	0.201339	0.099166	-0.673949	-0.470710	0.536380	0.552939	0.430102
50661	9.004119	-0.214766	-1.590578	0.053113	0.055825	-0.666966	-0.471777	0.534654	0.553436	0.430442
50662	9.533473	0.059943	-1.558926	0.320763	0.180303	-0.159423	-0.472239	0.533275	0.554168	0.430704
50663	9.812730	0.469136	-1.532083	0.713918	0.269004	0.100685	-0.472455	0.532122	0.554618	0.431314
50664	9.580415	0.448609	-1.563283	0.677245	0.181224	-0.120530	-0.472522	0.531478	0.554610	0.432044
50665	8.847155	0.176158	-1.647461	0.397337	-0.057509	-0.820684	-0.472575	0.531562	0.554327	0.432245
50666	9.174643	-0.254052	-1.884005	-0.007455	-0.255200	-0.446638	-0.472186	0.532275	0.554377	0.431730
50667	9.892023	-0.081153	-1.876114	0.180723	-0.093579	0.253944	-0.471908	0.532895	0.554458	0.431163
50668	10.539951	0.397681	-1.864008	0.673459	0.070065	0.876783	-0.471989	0.533177	0.553968	0.431356
50669	10.550559	-0.136150	-1.787404	0.150312	0.097459	0.887567	-0.472729	0.533665	0.552402	0.431951
50670	9.558152	-0.792636	-1.720047	-0.491061	-0.078315	-0.081420	-0.474521	0.534462	0.550128	0.431902
50671	8.926587	-0.531617	-1.525388	-0.210072	-0.001717	-0.743562	-0.476095	0.535570	0.548172	0.431283
50672	9.183482	-0.094701	-1.380586	0.261270	0.199272	-0.531347	-0.476776	0.536494	0.546834	0.431082
50673	9.923314	-0.374338	-1.545637	0.036582	0.138309	0.236233	-0.476806	0.537278	0.545654	0.431567
50674	10.223669	-1.598552	-1.737136	-1.140870	-0.078797	0.617486	-0.477671	0.538029	0.544078	0.431664
50675	9.115008	-1.956434	-1.598716	-1.506216	-0.160230	-0.476075	-0.479455	0.538763	0.542703	0.430501
50676	9.225104	-1.131492	-1.418146	-0.645458	0.072427	-0.433351	-0.481114	0.539158	0.542040	0.428988
50677	9.271031	-0.346288	-1.320054	0.162419	0.218889	-0.445716	-0.481754	0.539372	0.541851	0.428240
50678	9.659038	-0.412148	-1.390118	0.128627	0.213226	-0.048605	-0.481537	0.539674	0.541716	0.428273
50679	9.265741	-0.925167	-1.335234	-0.401209	0.180221	-0.415918	-0.481094	0.540447	0.541396	0.428202
50680	9.046465	-1.414044	-1.320057	-0.889446	0.152199	-0.605831	-0.480458	0.541848	0.541387	0.427154
50681	9.138990	-1.552261	-1.483192	-0.994969	0.036978	-0.477861	-0.479759	0.543427	0.541868	0.425320
50682	9.526163	-1.077359	-1.648111	-0.477482	0.017636	-0.096918	-0.478534	0.544828	0.543094	0.423341
50683	9.690203	-0.445993	-1.717319	0.163248	0.066420	0.037025	-0.476835	0.545809	0.544469	0.422227
50684	9.529396	-0.509969	-1.805437	0.077213	-0.002256	-0.100694	-0.474367	0.546753	0.545970	0.421846
50685	9.768584	-0.637362	-1.887797	-0.064815	0.005698	0.156802	-0.471679	0.547682	0.547275	0.421963
50686	9.311659	-1.322868	-2.068271	-0.789334	-0.246659	-0.218387	-0.469266	0.548701	0.548424	0.421838
50687	9.477714	-1.636276	-2.334957	-1.102279	-0.438473	0.013244	-0.467178	0.549674	0.549958	0.420891
50688	9.603942	-1.321291	-2.410576	-0.794946	-0.417632	0.136472	-0.465516	0.550313	0.551793	0.419494
50689	9.740202	-0.875876	-2.384033	-0.364121	-0.289536	0.242443	-0.463827	0.550663	0.553753	0.418320
50690	9.620887	-0.536245	-2.286616	-0.060838	-0.158434	0.089264	-0.462016	0.550759	0.555498	0.417885
50691	9.063853	-0.529826	-2.109982	-0.117390	-0.072323	-0.492442	-0.459868	0.550821	0.557056	0.418098
50692	8.866446	-0.782456	-2.182501	-0.409954	-0.165671	-0.658798	-0.457387	0.551097	0.558505	0.418523
50693	9.098966	-1.270287	-2.415358	-0.915212	-0.323954	-0.363033	-0.454947	0.551649	0.559938	0.418539
50694	9.528929	-1.440649	-2.614148	-1.094230	-0.381840	0.105295	-0.452945	0.552266	0.561335	0.418027
50695	9.569201	-1.618727	-2.510539	-1.296987	-0.234651	0.124881	-0.451285	0.552840	0.562791	0.417104
50696	9.936349	-1.690795	-2.561755	-1.374930	-0.156858	0.494456	-0.450014	0.553116	0.564287	0.416089
50697	9.797546	-1.384903	-2.484043	-1.092262	-0.065569	0.330433	-0.448927	0.553048	0.565773	0.415335
50698	9.753213	-1.102944	-2.380537	-0.839761	0.066220	0.252048	-0.447614	0.552792	0.567259	0.415066
50699	9.919490	-1.034230	-2.406717	-0.799316	0.112621	0.415042	-0.446026	0.552480	0.568771	0.415122
50700	9.911994	-1.010460	-2.305457	-0.819064	0.234207	0.378382	-0.444394	0.552011	0.570245	0.415474
50701	9.525623	-0.998834	-2.215206	-0.854774	0.243924	-0.022284	-0.442822	0.551361	0.571786	0.415897
50702	9.393247	-0.754794	-2.255088	-0.650935	0.204504	-0.147155	-0.441156	0.550620	0.573615	0.416132
50703	9.371199	-0.320392	-2.236355	-0.261038	0.263898	-0.180174	-0.439408	0.549905	0.575541	0.416266
50704	8.988629	-0.179298	-2.141029	-0.164209	0.290138	-0.576873	-0.437548	0.549294	0.577471	0.416360
50705	8.986575	-0.202095	-2.200130	-0.223628	0.263354	-0.564966	-0.435489	0.549009	0.579465	0.416124
50706	9.198374	-0.185345	-2.307458	-0.240158	0.256206	-0.334013	-0.433513	0.548984	0.581333	0.415614
50707	9.202638	-0.450465	-2.440711	-0.524640	0.156129	-0.296978	-0.431776	0.549283	0.582977	0.414724
50708	9.359244	-0.876726	-2.696561	-0.955103	-0.025469	-0.080140	-0.430412	0.549822	0.584512	0.413265
50709	9.516697	-1.194364	-2.885389	-1.267663	-0.135101	0.121804	-0.429669	0.550332	0.585945	0.411324
50710	9.305342	-1.184272	-2.915435	-1.242248	-0.181893	-0.070242	-0.429373	0.550718	0.587335	0.409129
50711	9.400469	-0.987635	-2.934307	-1.037923	-0.121988	0.029168	-0.429077	0.550796	0.588884	0.407102
50712	9.688058	-0.826356	-2.979212	-0.879819	-0.036834	0.318528	-0.428706	0.550531	0.590399	0.405654
50713	9.762726	-1.212823	-3.026966	-1.268849	-0.063863	0.401528	-0.428529	0.550037	0.591692	0.404626
50714	9.495711	-1.928982	-3.238804	-1.961197	-0.384072	0.206571	-0.428948	0.549488	0.592779	0.403335
50715	9.677476	-2.109194	-3.601151	-2.107275	-0.677535	0.491236	-0.429787	0.548846	0.594195	0.401227
50716	10.033397	-1.659204	-3.807685	-1.633966	-0.717349	0.898801	-0.430774	0.547812	0.595972	0.398940
50717	9.973839	-0.966550	-3.858430	-0.927375	-0.711619	0.861240	-0.431536	0.546280	0.597997	0.397184
50718	10.049995	-0.494157	-3.870953	-0.464866	-0.649466	0.938728	-0.431972	0.544298	0.600092	0.396270
50719	9.739117	-0.208022	-3.700250	-0.203471	-0.559829	0.590710	-0.432674	0.542045	0.601721	0.396121
50720	9.427464	-0.142616	-3.602367	-0.153012	-0.576444	0.262960	-0.433905	0.539641	0.602851	0.396340
50721	9.068231	0.155694	-3.602978	0.149695	-0.686421	-0.078994	-0.435792	0.537093	0.603579	0.396621
50722	8.462270	0.896315	-3.529102	0.898295	-0.746205	-0.674628	-0.437403	0.534540	0.604452	0.396969
50723	8.607507	1.468715	-3.416472	1.432414	-0.552776	-0.562760	-0.438074	0.532180	0.605638	0.397590
50724	9.072656	1.814183	-3.384911	1.719652	-0.361616	-0.118675	-0.438069	0.530086	0.606858	0.398532
50725	9.367612	2.189617	-3.288967	2.029800	-0.154843	0.148221	-0.437980	0.528239	0.607742	0.399734
50726	9.185920	2.510132	-3.051041	2.297061	0.038963	-0.080647	-0.437866	0.526756	0.608159	0.401178
50727	9.490725	2.648963	-3.087813	2.391379	0.081141	0.232214	-0.437845	0.525578	0.608104	0.402826
50728	9.558781	2.745932	-2.998382	2.452028	0.159970	0.280009	-0.438253	0.524693	0.607314	0.404724
50729	9.377482	2.680031	-2.876168	2.375346	0.170413	0.072683	-0.438978	0.524171	0.605960	0.406639
50730	9.930439	2.587763	-2.946403	2.257769	0.186513	0.620854	-0.440097	0.523820	0.604104	0.408639
50731	10.242586	2.489164	-2.959928	2.155076	0.172402	0.920112	-0.441942	0.523468	0.601478	0.410965
50732	10.696884	2.322765	-2.992474	1.993530	0.139473	1.357747	-0.444750	0.522959	0.597841	0.413881
50733	10.350988	1.753873	-2.345259	1.426129	0.475821	0.838927	-0.449035	0.522046	0.592982	0.417383
50734	8.200844	1.618949	-1.049047	1.327041	1.059060	-1.560962	-0.454330	0.521014	0.587387	0.420839
50735	6.392304	1.517185	-0.182938	1.270148	1.379733	-3.513538	-0.458375	0.520822	0.582665	0.423247
50736	7.403284	1.263654	-0.695357	1.069303	1.018742	-2.416232	-0.459388	0.522046	0.580018	0.424274
50737	11.205460	0.775528	-1.941143	0.602871	0.546277	1.557005	-0.458474	0.523879	0.578752	0.424734
50738	10.863763	0.756546	-2.081079	0.622294	0.335999	1.251870	-0.457942	0.525389	0.577097	0.425692
50739	10.285943	0.521662	-2.159348	0.422841	0.112422	0.701308	-0.457059	0.527005	0.575698	0.426538
50740	9.930604	0.280319	-2.121947	0.203088	0.049461	0.343808	-0.456802	0.528636	0.573843	0.427294
50741	8.864964	-0.478935	-2.164094	-0.498299	-0.281874	-0.692796	-0.457115	0.530580	0.571768	0.427331
50742	8.849256	-0.597333	-2.344437	-0.564138	-0.464662	-0.667842	-0.457585	0.532681	0.570153	0.426372
50743	8.881956	-0.290149	-2.558379	-0.202711	-0.628565	-0.588681	-0.457776	0.534663	0.568987	0.425241
50744	8.860409	-0.174352	-2.804874	-0.038974	-0.844805	-0.555838	-0.457402	0.536512	0.568199	0.424367
50745	9.058371	-0.622157	-3.142206	-0.444320	-1.137298	-0.282541	-0.456659	0.538226	0.567650	0.423732
50746	9.676020	-1.491055	-3.273085	-1.287859	-1.159846	0.363646	-0.456218	0.539633	0.567432	0.422708
50747	10.210054	-1.587125	-3.160210	-1.366176	-0.917020	0.866433	-0.456908	0.540253	0.567346	0.421284
50748	9.925850	-1.123465	-2.733383	-0.901581	-0.531186	0.490756	-0.458445	0.539934	0.567392	0.419959
50749	10.029025	-0.576928	-2.376670	-0.355154	-0.138907	0.503185	-0.460327	0.538918	0.567357	0.419251
50750	9.269778	-0.417859	-1.997274	-0.211337	0.047931	-0.323460	-0.462167	0.537704	0.567125	0.419100
50751	9.560818	-0.640603	-1.851968	-0.431260	0.205386	-0.064808	-0.463749	0.536597	0.566850	0.419144
50752	9.605908	-1.072346	-1.764153	-0.855736	0.233587	-0.027564	-0.465654	0.535441	0.566372	0.419156
50753	9.471730	-1.053996	-1.807663	-0.818035	0.129273	-0.147998	-0.467755	0.534161	0.566132	0.418775
50754	9.539577	-0.912759	-1.933353	-0.646389	0.000364	-0.057864	-0.469915	0.532848	0.566044	0.418148
50755	9.376885	-1.534968	-2.109145	-1.230653	-0.290114	-0.162205	-0.472184	0.531347	0.566184	0.417311
50756	9.239198	-2.227462	-2.302921	-1.877552	-0.605840	-0.234829	-0.475050	0.529336	0.566805	0.415768
50757	9.353615	-2.638249	-2.566930	-2.222715	-0.925762	-0.053500	-0.478804	0.526451	0.568077	0.413381
50758	9.350203	-3.073326	-2.961985	-2.562945	-1.421625	0.038940	-0.483716	0.522208	0.570140	0.410193
50759	9.242645	-3.145124	-3.153387	-2.554511	-1.724227	-0.026853	-0.489684	0.516134	0.573294	0.406384
50760	9.866400	-4.026654	-3.489544	-3.303681	-2.182411	0.678129	-0.496754	0.507895	0.577755	0.401842
50761	10.198855	-4.463819	-3.837886	-3.575294	-2.711845	1.074458	-0.506290	0.496978	0.583317	0.395506
50762	10.003982	-3.266637	-3.763659	-2.284560	-2.639606	0.804466	-0.517648	0.483666	0.590044	0.387241
50763	9.729021	-2.207166	-3.485482	-1.175967	-2.347660	0.423298	-0.530098	0.468437	0.597302	0.377878
50764	8.753699	-2.176590	-3.067872	-1.117430	-2.258792	-0.624565	-0.543285	0.451482	0.604948	0.367481
50765	7.589617	-1.026701	-2.321786	-0.147281	-1.484693	-1.950173	-0.556717	0.432955	0.613158	0.355884
50766	7.122689	0.650976	-1.712568	1.249484	-0.414035	-2.576903	-0.569086	0.413645	0.621872	0.343967
50767	8.130183	1.432880	-1.645523	1.935101	0.096480	-1.620812	-0.579912	0.394346	0.630613	0.332446
50768	9.385324	1.942467	-1.678606	2.364284	0.455882	-0.385204	-0.590060	0.374989	0.638690	0.321384
50769	8.885927	3.228736	-1.167820	3.156685	1.539568	-0.957600	-0.599569	0.356125	0.645767	0.310928
50770	9.079341	4.231913	-1.005267	3.794489	2.311212	-0.778726	-0.607226	0.338629	0.652502	0.301410
50771	10.391952	4.660331	-1.150804	4.059903	2.610193	0.567001	-0.613419	0.322827	0.658435	0.293194
50772	10.726258	4.537696	-1.011893	3.739209	2.708896	0.927240	-0.618770	0.308605	0.663332	0.286143
50773	11.121257	4.197494	-0.937535	3.305937	2.585378	1.348226	-0.623531	0.295868	0.667374	0.279792
50774	10.384774	3.667965	-0.793244	2.765994	2.315378	0.623531	-0.628181	0.284687	0.670534	0.273359
50775	9.423471	2.941713	-0.723507	2.182646	1.849446	-0.336700	-0.632234	0.275231	0.673563	0.266160
50776	9.429849	2.396409	-0.880026	1.874959	1.391422	-0.326514	-0.635619	0.267222	0.676698	0.258186
50777	9.475674	2.204370	-1.085755	1.868845	1.170635	-0.275228	-0.638577	0.260394	0.679700	0.249845
50778	9.437705	1.483807	-1.222144	1.480637	0.612100	-0.315413	-0.641069	0.254653	0.682544	0.241487
50779	9.617139	0.674997	-1.292148	1.006441	0.030902	-0.137963	-0.643626	0.249396	0.685105	0.232762
50780	8.990812	0.330847	-1.057904	0.657455	-0.043548	-0.777822	-0.646425	0.244204	0.687317	0.223817
50781	7.849118	0.257634	-0.916168	0.567068	-0.004864	-1.926462	-0.648599	0.238865	0.689927	0.215089
50782	8.499322	0.102209	-1.330676	0.780832	-0.291856	-1.249719	-0.649757	0.233271	0.693277	0.206804
50783	9.102762	0.053231	-1.714396	1.028296	-0.465558	-0.618787	-0.650478	0.227431	0.696808	0.199029
50784	9.310714	0.060094	-1.930316	1.181074	-0.511026	-0.391292	-0.650691	0.221379	0.700634	0.191584
50785	10.107699	0.267628	-2.110188	1.373558	-0.333129	0.419226	-0.650623	0.215071	0.704503	0.184687
50786	10.201474	0.492191	-2.075777	1.422016	-0.069216	0.511748	-0.650831	0.208625	0.707876	0.178342
50787	9.556140	0.801332	-1.886953	1.423316	0.295154	-0.147838	-0.650958	0.202399	0.711030	0.172410
50788	9.198514	0.956808	-1.716087	1.334961	0.532735	-0.517159	-0.650700	0.196781	0.714177	0.166790
50789	9.179133	0.726211	-1.866944	1.303325	0.300504	-0.513227	-0.649831	0.191792	0.717594	0.161224
50790	10.249742	0.173285	-2.356824	1.323454	-0.294995	0.618160	-0.648090	0.187397	0.721552	0.155638
50791	11.925519	0.053143	-2.689557	1.351003	-0.378693	2.331659	-0.646634	0.183137	0.725112	0.150125
50792	12.106943	0.160997	-2.732509	1.362332	-0.230947	2.522663	-0.645700	0.179271	0.727812	0.145680
50793	11.467077	-0.434819	-2.535480	0.947574	-0.683135	1.881195	-0.645395	0.176013	0.729609	0.141968
50794	10.246109	-1.408324	-2.199521	0.331600	-1.468173	0.653373	-0.645137	0.173352	0.731256	0.137885
50795	9.253936	-1.403705	-1.974513	0.232378	-1.393955	-0.351874	-0.644928	0.171125	0.733023	0.132143
50796	8.734276	-0.560832	-2.046131	0.700329	-0.633770	-0.874219	-0.644458	0.168880	0.735028	0.126047
50797	6.544517	0.667363	-2.094787	1.465086	0.347522	-3.074982	-0.644016	0.166482	0.736898	0.120453
50798	4.949256	1.182946	-2.275683	1.975807	0.658979	-4.642118	-0.641000	0.164120	0.740684	0.116494
50799	7.989847	1.153640	-3.060166	2.247536	0.660085	-1.503354	-0.637268	0.161245	0.745060	0.113021
50800	8.852485	0.699063	-3.305332	2.096910	0.281714	-0.576717	-0.634312	0.157551	0.748952	0.109074
50801	10.767663	1.911372	-3.492928	2.368157	1.569572	1.310446	-0.633086	0.152568	0.751619	0.104846
50802	10.186021	2.688276	-3.101777	2.309084	2.409439	0.649882	-0.633376	0.147172	0.753004	0.100801
50803	10.003287	2.896902	-2.550044	1.853022	2.795957	0.371088	-0.634038	0.141641	0.754067	0.096527
50804	10.284884	2.577053	-2.282824	1.418875	2.628940	0.613560	-0.634936	0.136276	0.754914	0.091595
50805	10.697063	2.179040	-2.454870	1.360939	2.274760	1.058134	-0.635606	0.131506	0.755897	0.085621
50806	10.521930	2.093696	-2.552531	1.423324	2.212854	0.896507	-0.635887	0.127643	0.757027	0.079154
50807	10.465646	1.163188	-2.736101	1.300184	1.346259	0.904838	-0.635136	0.124767	0.758769	0.072837
50808	10.314094	0.506218	-2.734204	1.097065	0.786055	0.784032	-0.633812	0.122484	0.760790	0.066918
50809	10.225383	-0.651386	-2.462926	0.497299	-0.192930	0.711744	-0.631887	0.120351	0.763163	0.061782
50810	11.856935	-1.930880	-2.614568	-0.000101	-1.234837	2.419484	-0.630563	0.117450	0.765079	0.057012
50811	12.504890	-1.957779	-2.413531	-0.318642	-1.108018	3.020902	-0.630767	0.113523	0.765833	0.052393
50812	11.048514	-1.463601	-1.273305	-1.015740	-0.532431	1.346064	-0.632205	0.108836	0.765564	0.048823
50813	9.160208	-2.038697	-0.412866	-1.606401	-1.138301	-0.627938	-0.633836	0.103987	0.765061	0.046055
50814	9.065332	-2.796572	-0.590555	-1.543074	-1.953753	-0.639278	-0.634507	0.099176	0.765352	0.042442
50815	10.635004	-2.084016	-1.062394	-1.188739	-1.212829	0.943290	-0.634598	0.094216	0.766121	0.038316
50816	11.204562	-1.407474	-1.255408	-0.963571	-0.543031	1.495534	-0.634807	0.089452	0.766703	0.034422
50817	11.051002	-1.093534	-1.114059	-1.012022	-0.240260	1.299453	-0.635175	0.085042	0.767045	0.031015
50818	10.588598	-0.987889	-0.799434	-1.207975	-0.146606	0.782250	-0.635902	0.080792	0.767032	0.027620
50819	9.926592	-1.303046	-0.508195	-1.406160	-0.491355	0.100670	-0.636703	0.076446	0.766935	0.023992
50820	9.710277	-1.092902	-0.416113	-1.407635	-0.306382	-0.138923	-0.637465	0.071790	0.766870	0.019888
50821	9.293734	-0.792977	-0.262862	-1.429741	-0.039767	-0.591753	-0.638130	0.067180	0.766836	0.015508
50822	8.960757	-1.325129	-0.219784	-1.460976	-0.597786	-0.890377	-0.638645	0.062647	0.766874	0.010568
50823	8.614584	-2.005491	-0.396825	-1.276745	-1.316955	-1.150932	-0.638886	0.057595	0.767130	0.004438
50824	8.517923	-2.038969	-0.594043	-1.044000	-1.365841	-1.203984	-0.638766	0.051502	0.767670	-0.002797
50825	8.607107	-1.764457	-0.778239	-0.839258	-1.087404	-1.099799	-0.638304	0.044525	0.768425	-0.010436
50826	8.738610	-1.844052	-0.998328	-0.633905	-1.155777	-0.923210	-0.637749	0.037001	0.769137	-0.018304
50827	8.919467	-2.346324	-1.450293	-0.211643	-1.634746	-0.623119	-0.637160	0.028840	0.769727	-0.026734
50828	9.176694	-2.010372	-1.802795	0.121300	-1.254847	-0.330394	-0.636675	0.019821	0.770052	-0.035661
50829	9.626150	-1.295228	-2.154621	0.392055	-0.476617	0.117160	-0.636154	0.010034	0.770241	-0.044004
50830	10.406856	-0.840190	-2.486106	0.564399	0.056017	0.904943	-0.636033	0.000045	0.769974	-0.051011
50831	10.279975	-1.573667	-2.745138	0.922555	-0.667657	0.882780	-0.636565	-0.009881	0.769026	-0.057334
50832	9.604860	-2.269780	-2.918509	1.337372	-1.381863	0.297924	-0.637030	-0.020023	0.767926	-0.063877
50833	9.792455	-1.677454	-3.073504	1.442466	-0.759649	0.458363	-0.637294	-0.030590	0.766758	-0.070730
50834	9.879889	-1.173517	-3.101142	1.426473	-0.253672	0.507541	-0.637577	-0.041126	0.765448	-0.076767
50835	9.358541	-1.272421	-2.920251	1.404981	-0.414475	-0.036021	-0.638167	-0.051608	0.763789	-0.081887
50836	8.246401	-2.357640	-2.796968	1.750540	-1.549817	-1.099612	-0.639139	-0.062401	0.761660	-0.086496
50837	6.421437	-3.183713	-2.592466	2.128435	-2.433988	-2.910780	-0.639969	-0.074256	0.759256	-0.091958
50838	5.209819	-3.340227	-2.442931	2.320621	-2.613646	-4.151425	-0.640023	-0.087576	0.757050	-0.097862
50839	8.915265	-3.537736	-3.572609	2.953526	-2.512081	-0.340288	-0.638749	-0.102400	0.755407	-0.104277
50840	9.524819	-2.056429	-2.774972	1.773194	-1.322176	0.074584	-0.639146	-0.116111	0.751726	-0.113665
50841	10.141508	-1.525834	-2.021229	0.909297	-1.044038	0.548097	-0.639618	-0.129102	0.747462	-0.124592
50842	12.594601	-0.105585	-0.854298	-0.926042	-0.191315	2.775801	-0.640007	-0.142385	0.742571	-0.136769
50843	13.932619	2.945800	0.829516	-3.751081	1.870654	3.822294	-0.641399	-0.155411	0.736336	-0.149213
50844	13.408013	3.875721	1.362324	-4.484638	2.441607	3.247855	-0.643998	-0.166020	0.728995	-0.162081
50845	9.332588	4.047184	1.677516	-4.342762	2.515586	-0.806989	-0.645844	-0.176057	0.722401	-0.173282
50846	10.172523	4.642732	0.960985	-4.097730	3.243907	0.119191	-0.644997	-0.187877	0.718435	-0.180367
50847	14.349922	7.325355	1.005073	-5.915787	5.199684	4.278204	-0.644518	-0.199038	0.714597	-0.185288
50848	12.592080	9.321208	2.420829	-7.995856	6.058858	2.461684	-0.647891	-0.205027	0.708921	-0.188766
50849	11.196940	5.278582	2.612948	-5.761750	2.576425	1.151989	-0.653326	-0.206002	0.703320	-0.189918
50850	10.832553	-1.254677	2.129541	-1.642752	-2.555069	0.874821	-0.659037	-0.203918	0.697518	-0.193795
50851	8.351152	-2.717998	2.832450	-1.191760	-3.970372	-1.568622	-0.663277	-0.202900	0.691377	-0.202221
50852	7.912866	1.147908	3.594072	-3.836456	-1.078530	-2.004640	-0.667025	-0.204319	0.685137	-0.209566
50853	6.722652	3.554371	4.013171	-5.421902	0.690639	-3.175053	-0.671315	-0.206438	0.679341	-0.212638
50854	5.373553	3.611958	4.061865	-5.422277	0.693166	-4.470569	-0.673744	-0.207692	0.676526	-0.212712
50855	5.968780	2.108587	3.253793	-3.884552	-0.078776	-3.849158	-0.673213	-0.207844	0.677033	-0.212630
50856	6.993106	1.549507	2.471138	-2.948574	-0.087906	-2.833501	-0.671154	-0.207733	0.678984	-0.213025
50857	8.357127	1.752896	1.996143	-2.719340	0.350355	-1.483152	-0.669939	-0.207686	0.680365	-0.212491
50858	7.401845	1.924923	2.305285	-3.071084	0.298480	-2.444763	-0.670236	-0.207619	0.680688	-0.210573
50859	7.291273	2.561347	2.622029	-3.684047	0.629667	-2.558069	-0.670645	-0.207579	0.681230	-0.207541
50860	6.766399	3.500121	2.987288	-4.500301	1.190557	-3.082996	-0.671014	-0.206996	0.682136	-0.203921
50861	6.323911	3.711965	2.981963	-4.606165	1.374314	-3.523241	-0.670612	-0.205568	0.684231	-0.199622
50862	7.463574	3.834348	2.877219	-4.608370	1.530053	-2.389254	-0.669584	-0.203373	0.687326	-0.194626
50863	7.800780	4.328625	3.209517	-5.178555	1.774858	-2.071725	-0.668457	-0.200213	0.690923	-0.188959
50864	9.257821	5.106331	3.132375	-5.580330	2.478457	-0.630613	-0.666986	-0.195496	0.695488	-0.182229
50865	10.611721	5.562175	2.482051	-5.320219	3.225565	0.722849	-0.665609	-0.188671	0.700827	-0.173810
50866	13.988311	5.301198	0.793687	-3.874056	3.779995	4.155445	-0.664084	-0.180152	0.707159	-0.162677
50867	19.364112	5.673179	-1.229177	-2.525966	4.853747	9.648171	-0.663653	-0.169717	0.713074	-0.149285
50868	21.722277	6.359171	-2.359746	-1.813010	5.843041	12.106061	-0.666363	-0.155844	0.716772	-0.133829
50869	19.260463	6.310137	-2.130186	-1.509929	5.834769	9.654705	-0.672225	-0.137969	0.718182	-0.115290
50870	14.870752	5.279963	-1.370530	-1.150758	4.840428	5.224660	-0.679729	-0.116123	0.718235	-0.092859
50871	10.628179	2.128000	-0.914456	-0.081268	1.900474	0.897024	-0.687460	-0.090371	0.717369	-0.067924
50872	7.485937	-2.286599	-1.378003	1.570646	-2.221599	-2.345242	-0.692971	-0.062792	0.716940	-0.042949
50873	8.371203	-2.912463	-2.100328	2.221487	-2.869578	-1.458213	-0.695398	-0.036097	0.717466	-0.019010
50874	7.265412	-1.974313	-1.995261	1.907862	-2.049695	-2.544886	-0.696081	-0.010126	0.717868	0.005777
50875	8.872739	-1.114094	-2.680563	2.407933	-1.393779	-0.901687	-0.694102	0.014441	0.718981	0.032879
50876	8.567100	-0.228062	-2.302502	1.993270	-0.688716	-1.193089	-0.691722	0.039236	0.718500	0.061146
50877	9.645048	-1.042384	-2.408594	1.843645	-1.740010	-0.144013	-0.688482	0.064252	0.716866	0.089257
50878	10.678685	-1.932285	-2.279855	1.335362	-2.776538	0.839531	-0.686083	0.089395	0.712770	0.115142
50879	9.400044	-2.299953	-1.495052	0.373211	-2.950170	-0.483097	-0.684194	0.113694	0.706878	0.138841
50880	8.114105	-1.490461	-0.979705	0.096040	-2.005028	-1.751057	-0.681184	0.136484	0.700800	0.161987
50881	8.502127	-0.460090	-1.037269	0.476439	-1.147876	-1.325734	-0.675970	0.158198	0.695334	0.185871
50882	8.543123	-0.224189	-1.134932	0.590521	-1.059177	-1.277378	-0.668870	0.179616	0.690079	0.210099
50883	8.552053	0.168019	-1.404095	0.928617	-0.953264	-1.247367	-0.660257	0.201108	0.684681	0.234154
50884	8.956822	0.628658	-1.805579	1.402500	-0.935904	-0.810748	-0.650616	0.222809	0.678589	0.258015
50885	8.470919	1.189314	-1.997745	1.836753	-0.745622	-1.255245	-0.640327	0.244966	0.671176	0.281950
50886	7.701696	1.521065	-2.295377	2.237042	-0.849011	-1.991564	-0.628750	0.267899	0.662673	0.306215
50887	7.378488	1.352255	-2.730957	2.309923	-1.455275	-2.311302	-0.615472	0.291680	0.653290	0.330650
50888	7.964657	0.941411	-3.135299	2.022039	-2.210373	-1.739746	-0.600704	0.316219	0.643054	0.354460
50889	9.055169	0.883076	-3.443814	1.839333	-2.663548	-0.639248	-0.585018	0.340874	0.631686	0.377536
50890	10.140929	1.631573	-3.476681	2.184891	-2.490563	0.512259	-0.568540	0.365141	0.618845	0.400582
50891	9.703713	2.048471	-3.230025	2.273253	-2.268971	0.110430	-0.550974	0.388967	0.604201	0.424351
50892	10.261179	2.498329	-3.332504	2.444323	-2.431862	0.710630	-0.531783	0.412249	0.587863	0.449082
50893	10.267478	2.478302	-3.470465	2.185645	-2.813834	0.718229	-0.511419	0.434970	0.569408	0.474370
50894	11.023817	2.406089	-3.659038	1.760732	-3.246114	1.459025	-0.490248	0.457069	0.549195	0.499129
50895	11.586909	2.351733	-3.560829	1.323396	-3.366670	1.992795	-0.469494	0.478550	0.526904	0.522433
50896	10.324759	2.010712	-3.043593	0.848550	-3.047773	0.670231	-0.449818	0.499632	0.502499	0.543623
50897	8.525336	1.170139	-2.552197	0.042136	-2.622176	-1.228739	-0.430602	0.520503	0.476927	0.562316
50898	7.682572	0.289156	-2.385057	-0.854188	-2.342391	-2.159158	-0.411513	0.540930	0.451294	0.578261
50899	8.552236	-0.315110	-2.567292	-1.648938	-2.310352	-1.340786	-0.392700	0.560186	0.426245	0.591856
50900	9.221567	-0.671017	-2.554655	-2.088034	-2.086145	-0.685751	-0.375224	0.577562	0.401809	0.603472
50901	8.412888	-0.641179	-1.955918	-1.797917	-1.468379	-1.468565	-0.359596	0.593229	0.378229	0.612955
50902	9.215366	0.416685	-1.515776	-0.666629	-1.516114	-0.612084	-0.344503	0.607796	0.356295	0.620447
50903	10.689605	1.157063	-1.200335	0.123709	-1.643577	0.879844	-0.329935	0.620745	0.335084	0.627326
50904	8.386553	0.670807	-0.240986	0.334559	-0.625270	-1.425867	-0.316268	0.632656	0.314620	0.633037
50905	8.288141	0.774001	0.136341	0.720985	-0.427352	-1.529707	-0.302201	0.644571	0.296893	0.636442
50906	11.196716	1.085589	0.010635	0.994774	-0.759549	1.366668	-0.287821	0.655160	0.281475	0.639293
50907	11.327872	1.293191	0.193885	1.339905	-0.786210	1.484073	-0.274610	0.663543	0.266921	0.642692
50908	10.996193	1.370127	0.321332	1.518844	-0.789542	1.140221	-0.261945	0.671093	0.253166	0.645698
50909	11.692118	1.400555	0.505811	1.740059	-0.747111	1.820728	-0.250485	0.677797	0.239090	0.648602
50910	9.747366	0.201150	0.852542	1.201227	0.310471	-0.105070	-0.241136	0.683470	0.224059	0.651552
50911	6.541223	-1.900982	0.857814	-0.158696	1.923770	-3.224078	-0.233762	0.688955	0.209729	0.653230
50912	6.158104	-2.229592	0.402402	-0.619300	1.902161	-3.563511	-0.227015	0.695195	0.198306	0.652566
50913	9.213008	-1.194448	-0.347103	-0.314661	0.560162	-0.538384	-0.219608	0.701403	0.188611	0.651331
50914	10.263507	-1.468672	-1.131526	-0.934104	0.343424	0.569304	-0.212135	0.706200	0.178860	0.651375
50915	9.153798	-2.547396	-1.835331	-2.110760	0.939751	-0.415317	-0.204939	0.710142	0.169562	0.651880
50916	7.588844	-3.748207	-2.558269	-3.399189	1.703633	-1.829810	-0.198564	0.714074	0.162595	0.651332
50917	8.178582	-2.492889	-3.108828	-3.118701	0.421178	-1.276689	-0.191625	0.718565	0.159326	0.649276
50918	10.359338	-1.656151	-3.751351	-2.983330	-0.534565	0.908449	-0.184171	0.722872	0.158286	0.646902
50919	10.718112	-1.193124	-3.929055	-2.819128	-0.880258	1.278511	-0.177656	0.726503	0.157211	0.644916
50920	9.654125	-1.903184	-3.814614	-3.102896	-0.077922	0.273952	-0.172852	0.730131	0.155153	0.642619
50921	9.693246	-3.467465	-3.799971	-3.699947	1.392988	0.424043	-0.170428	0.734205	0.152295	0.639299
50922	10.748673	-4.164685	-3.573344	-3.546459	2.143571	1.521923	-0.170468	0.737909	0.148974	0.635797
50923	10.505097	-3.899691	-2.911134	-2.759990	2.182306	1.217197	-0.171199	0.740471	0.145439	0.633436
50924	9.035489	-3.681794	-2.190706	-2.163985	2.290415	-0.322396	-0.170568	0.742399	0.141952	0.632139
50925	7.542759	-4.041495	-1.973661	-2.294943	2.727335	-1.786682	-0.168094	0.744555	0.138828	0.630959
50926	8.146345	-4.249021	-2.532688	-2.712682	2.711024	-1.087869	-0.164529	0.747699	0.136651	0.628652
50927	10.055737	-3.960596	-3.230808	-2.814592	2.212880	0.884155	-0.160887	0.750623	0.135470	0.626361
50928	9.802103	-3.539377	-3.308116	-2.684434	1.868853	0.620559	-0.158031	0.752825	0.135223	0.624496
50929	9.443533	-2.949575	-3.272561	-2.425909	1.404253	0.223875	-0.156130	0.754639	0.136283	0.622551
50930	9.854004	-1.439703	-3.289441	-1.710982	0.077685	0.534326	-0.154966	0.756258	0.138372	0.620413
50931	10.840037	0.045116	-3.256302	-0.851107	-1.183182	1.411706	-0.153104	0.757798	0.140877	0.618430
50932	12.743237	1.084312	-2.878795	0.297639	-1.849149	3.162081	-0.150144	0.758700	0.142655	0.617641
50933	13.048528	1.501911	-1.942662	1.337410	-1.765870	3.278770	-0.146776	0.758130	0.142633	0.619154
50934	12.345204	1.076267	-1.391710	1.447724	-1.148654	2.519509	-0.143699	0.756352	0.140922	0.622433
50935	10.937035	1.202853	-1.143911	1.369341	-1.218926	1.096595	-0.141303	0.754298	0.138578	0.625991
50936	10.363138	2.240728	-0.754027	1.939562	-2.051994	0.434794	-0.138037	0.752908	0.136147	0.628919
50937	10.472754	3.348928	-0.548215	2.479480	-2.993658	0.487010	-0.132821	0.751927	0.133409	0.631797
50938	11.014807	3.558183	-1.108000	2.024082	-3.362746	1.132996	-0.125351	0.751384	0.129590	0.634756
50939	11.205936	2.401554	-1.870174	0.824912	-2.521024	1.492222	-0.117722	0.751133	0.124280	0.637570
50940	10.937462	1.800526	-2.165753	0.210735	-2.045485	1.292781	-0.110770	0.751113	0.117699	0.640083
50941	10.559441	1.146467	-2.121143	-0.087359	-1.421053	0.924541	-0.104701	0.751136	0.110547	0.642349
50942	10.233888	1.393547	-1.759061	0.214596	-1.569880	0.543840	-0.098992	0.750746	0.102914	0.644972
50943	9.461004	0.669577	-1.373911	0.194476	-0.812657	-0.265546	-0.093148	0.750040	0.094541	0.647939
50944	8.765212	-0.680646	-1.272124	-0.210797	0.472473	-0.944615	-0.087688	0.749384	0.085866	0.650662
50945	7.893463	-1.458352	-1.126329	-0.394320	1.223099	-1.809523	-0.083200	0.748990	0.077771	0.652720
50946	7.540507	-0.119756	-0.964042	0.021309	-0.071447	-2.210232	-0.079308	0.749301	0.070574	0.653665
50947	7.253702	1.914169	-0.843987	0.521077	-2.056944	-2.567696	-0.073944	0.750411	0.062963	0.653798
50948	7.770900	1.316518	-1.500185	-0.179468	-1.610846	-1.954976	-0.066494	0.752569	0.054319	0.652892
50949	8.261344	-0.138962	-2.071205	-0.905490	-0.273867	-1.347229	-0.059600	0.754694	0.044950	0.651816
50950	8.494090	-0.365610	-2.367235	-1.155765	-0.097390	-1.063884	-0.054337	0.756817	0.035780	0.650381
50951	9.879364	1.042346	-2.682559	-1.051852	-1.572476	0.301921	-0.049479	0.758378	0.026856	0.649379
50952	10.471586	1.732305	-2.734004	-0.944643	-2.295649	0.862862	-0.043783	0.759315	0.017520	0.649012
50953	9.957823	1.902849	-2.271000	-0.585865	-2.433790	0.270447	-0.038270	0.759713	0.006955	0.649094
50954	9.344996	1.101644	-1.898289	-0.405946	-1.639464	-0.363199	-0.033657	0.759547	-0.004983	0.649562
50955	8.003095	0.531983	-1.515173	-0.292674	-1.065483	-1.725262	-0.031047	0.758574	-0.017588	0.650609
50956	6.791602	1.673130	-1.240428	-0.235129	-2.198490	-3.061819	-0.028296	0.756890	-0.029817	0.652248
50957	4.461147	3.749267	-0.727758	-0.164031	-4.123375	-5.634427	-0.023094	0.754702	-0.041833	0.654326
50958	3.630391	3.733478	-0.486060	-0.163602	-4.052226	-6.510252	-0.014431	0.753475	-0.054880	0.655023
50959	7.585700	1.152737	-1.397784	-0.491563	-1.848602	-2.251851	-0.003888	0.752888	-0.068299	0.654583
50960	8.483614	-0.318463	-1.354449	-0.241990	-0.478933	-1.232502	0.007510	0.750847	-0.080482	0.655512
50961	9.713886	-2.009172	-1.308026	0.169419	1.065977	0.134278	0.019132	0.749654	-0.092358	0.655075
50962	12.077827	-4.245835	-2.109451	0.107127	3.121594	2.780706	0.029873	0.748885	-0.104280	0.653762
50963	18.645041	-5.230135	-4.939340	-1.537487	3.792857	9.748408	0.037824	0.748348	-0.117185	0.651776
50964	16.394185	-3.846185	-4.066325	-1.163462	2.451111	7.296785	0.044085	0.745413	-0.132526	0.651808
50965	13.339569	-8.450958	-2.008718	1.712033	6.641681	4.552141	0.049696	0.741852	-0.148211	0.652088
50966	12.571991	-11.496999	-1.045648	3.472892	9.168814	4.158470	0.050330	0.736132	-0.160292	0.655655
50967	8.512437	-7.379777	1.205138	3.989428	5.165318	-0.551120	0.050373	0.729663	-0.165437	0.661577
50968	7.777254	-5.332750	2.194877	4.156068	3.059051	-1.620635	0.052680	0.724913	-0.165078	0.666690
50969	10.621484	-5.715919	1.410334	3.544683	3.214162	1.348794	0.051832	0.720586	-0.163301	0.671864
50970	9.508806	-4.317954	1.360701	2.875944	2.126674	0.092739	0.048374	0.716169	-0.161207	0.677329
50971	7.700551	-1.918002	2.041986	2.658522	-0.002939	-2.061672	0.046759	0.712729	-0.157691	0.681883
50972	6.624329	-0.094976	2.517639	2.519182	-1.634444	-3.393102	0.048348	0.710548	-0.153927	0.684902
50973	7.812320	-0.071989	2.600884	2.572709	-1.797044	-2.199965	0.051171	0.709279	-0.151371	0.686580
50974	8.531385	-1.817513	2.767581	3.194640	-0.239806	-1.240411	0.052441	0.707592	-0.150250	0.688468
50975	8.074401	-4.326354	3.032751	4.099144	2.153089	-1.346777	0.049992	0.705604	-0.149619	0.690824
50976	7.840406	-5.674178	3.095088	4.449359	3.456584	-1.356799	0.043956	0.704055	-0.147579	0.693249
50977	6.620113	-5.244641	3.471849	4.613961	3.156357	-2.592334	0.036951	0.702992	-0.143031	0.695686
50978	5.451953	-4.884566	3.730085	4.705531	2.994671	-3.780687	0.030373	0.703246	-0.136165	0.697124
50979	5.267628	-4.496646	3.714592	4.538061	2.754853	-4.017741	0.023644	0.704787	-0.127716	0.697427
50980	5.731874	-4.817729	3.429074	4.258664	3.172378	-3.518110	0.015625	0.707099	-0.118153	0.696998
50981	6.433101	-4.817673	3.064149	3.822660	3.258971	-2.830685	0.005958	0.709527	-0.107159	0.696457
50982	7.122692	-5.125356	2.650897	3.370254	3.651682	-2.109859	-0.004865	0.712066	-0.094420	0.695718
50983	8.434981	-4.275631	2.261891	2.793668	2.814050	-0.934606	-0.016245	0.714286	-0.079785	0.695101
50984	8.763884	-3.947434	2.155388	2.570249	2.594370	-0.664232	-0.027971	0.715784	-0.064452	0.694779
50985	10.050934	-4.292994	1.628709	1.978113	2.915475	0.660552	-0.041205	0.716949	-0.049031	0.694177
50986	13.302747	-5.213213	0.770120	1.068742	3.500023	4.019844	-0.056149	0.717651	-0.032982	0.693352
50987	17.217826	-6.271853	-0.166396	-0.002565	4.045024	8.060450	-0.073142	0.716743	-0.015810	0.693311
50988	17.731065	-5.947274	-0.095188	-0.213239	3.636940	8.530837	-0.091813	0.713209	0.002389	0.694909
50989	18.141031	-6.287470	-0.233541	-0.806611	3.825293	8.985760	-0.112063	0.708048	0.021581	0.696882
50990	17.943529	-5.926673	-0.206327	-1.198320	3.370747	8.743099	-0.134151	0.701093	0.041598	0.699101
50991	15.581928	-4.960825	0.360568	-0.927536	2.736498	6.285972	-0.157453	0.692399	0.062530	0.701343
50992	11.553960	-2.447604	1.377244	0.423834	1.140465	2.014974	-0.180891	0.682800	0.084266	0.702824
50993	7.235283	0.811435	2.056611	2.130199	-0.951299	-2.615934	-0.202935	0.674211	0.106134	0.702134
50994	7.953657	1.585397	0.641736	1.208108	-2.245736	-2.087314	-0.222594	0.669906	0.127370	0.696745
50995	10.250289	1.335251	-0.914305	-0.135689	-3.051166	0.104751	-0.242358	0.667200	0.147086	0.688820
50996	9.338772	-0.231941	-1.882111	-1.584397	-2.163525	-0.668662	-0.262942	0.665846	0.165536	0.678313
50997	8.469688	-1.267606	-2.571289	-2.548730	-1.727646	-1.418221	-0.284533	0.665168	0.184314	0.665298
50998	9.937705	-2.435821	-3.432603	-3.652646	-1.748609	0.190587	-0.305822	0.664125	0.204530	0.650830
50999	11.059701	-1.476120	-3.384657	-2.636501	-2.729424	1.211972	-0.326649	0.660313	0.225517	0.637519
51000	10.399846	-0.396729	-2.707751	-1.209656	-2.979549	0.448964	-0.344744	0.654565	0.246496	0.626048
51001	10.722958	0.485574	-2.309399	-0.071580	-3.264607	0.669954	-0.360463	0.647387	0.267028	0.616159
51002	9.819156	1.565011	-1.593647	1.265412	-3.155993	-0.334240	-0.373846	0.639430	0.286628	0.607629
51003	9.439448	2.250038	-1.037477	2.195347	-2.899622	-0.756623	-0.385181	0.631301	0.304826	0.600147
51004	8.119571	2.448097	-0.128095	2.761971	-1.963423	-2.037624	-0.395348	0.623115	0.320743	0.593761
51005	6.918915	1.388718	0.468572	2.028945	-0.723456	-3.076317	-0.405066	0.615645	0.334671	0.587280
51006	6.854163	0.964827	0.546664	1.676864	-0.372104	-3.085251	-0.414868	0.609227	0.347389	0.579696
51007	7.008414	1.289608	0.500704	1.969137	-0.466980	-2.961755	-0.423614	0.603397	0.359643	0.571944
51008	6.286886	1.548531	0.378163	2.105853	-0.536328	-3.701819	-0.430771	0.598134	0.371507	0.564495
51009	5.310833	1.545984	0.358185	2.018285	-0.404731	-4.666313	-0.436191	0.593935	0.382912	0.557097
51010	4.832333	0.999386	0.090078	1.382839	-0.370430	-5.089530	-0.440630	0.590956	0.393913	0.549043
51011	5.381638	0.936614	-0.512377	1.214799	-0.845749	-4.529715	-0.444580	0.589358	0.404653	0.539686
51012	7.501623	0.724601	-1.552984	0.974823	-1.688769	-2.369113	-0.447846	0.588962	0.414910	0.529535
51013	9.754319	0.411882	-2.720191	0.691262	-2.569822	-0.033604	-0.450450	0.589147	0.424390	0.519513
51014	11.102407	0.036850	-3.419910	0.422109	-2.965123	1.411698	-0.452978	0.589225	0.432745	0.510251
51015	11.005458	-0.756805	-3.574155	-0.264905	-2.812256	1.433901	-0.456192	0.589040	0.439958	0.501355
51016	10.169193	-0.728075	-3.313646	-0.154456	-2.497103	0.611384	-0.459628	0.588701	0.446725	0.492554
51017	10.500134	-0.706148	-3.171336	0.041608	-2.234473	0.948925	-0.462644	0.588200	0.453218	0.484329
51018	8.895400	-0.352243	-2.608579	0.364174	-1.768680	-0.713504	-0.464934	0.587346	0.459126	0.477561
51019	8.471630	-0.841944	-2.742169	-0.131111	-1.788860	-1.050329	-0.466319	0.586660	0.465051	0.471278
51020	9.453108	-0.813232	-2.959468	0.040063	-1.825156	-0.042970	-0.467475	0.585993	0.470758	0.465260
51021	10.283466	-0.964042	-3.015615	0.028319	-1.685214	0.814238	-0.468471	0.584996	0.476125	0.460021
51022	10.973904	-0.778844	-2.958395	0.327260	-1.487020	1.477418	-0.469338	0.583710	0.480812	0.455877
51023	10.180805	-1.012755	-2.661375	0.034570	-1.210361	0.689263	-0.469825	0.582619	0.484714	0.452628
51024	9.474036	-1.484502	-2.513281	-0.501548	-1.064692	0.030702	-0.469740	0.582077	0.488375	0.449467
51025	8.721698	-2.497499	-2.580454	-1.590680	-1.101697	-0.581223	-0.469261	0.582107	0.492241	0.445696
51026	10.616157	-3.581976	-3.290707	-2.465498	-1.362934	1.519783	-0.468204	0.582517	0.497313	0.440612
51027	12.950954	-2.786957	-3.381040	-1.395601	-1.021920	3.749497	-0.467794	0.581980	0.502208	0.436182
51028	10.888222	-2.041457	-2.224866	-0.863943	-0.205178	1.451517	-0.467767	0.580330	0.505966	0.434062
51029	8.798145	-2.370136	-1.704344	-1.436714	-0.019680	-0.654900	-0.467749	0.578458	0.509278	0.432704
51030	9.103690	-2.303566	-2.116886	-1.364738	-0.355447	-0.290299	-0.468150	0.576986	0.512628	0.430272
51031	10.838653	-1.342280	-2.726978	-0.238995	-0.638662	1.423389	-0.468768	0.575720	0.515628	0.427704
51032	10.280080	-1.812970	-2.623328	-0.749024	-0.608339	0.907274	-0.470230	0.575043	0.516925	0.425439
51033	6.138337	-2.024886	-1.680467	-1.359139	-0.454154	-3.289675	-0.472086	0.575157	0.517469	0.422559
51034	6.422844	-2.617406	-1.955747	-1.888608	-0.635494	-2.887535	-0.471382	0.576278	0.520380	0.418219
51035	10.092282	-1.793332	-2.634952	-0.661736	-0.513898	0.737702	-0.470043	0.575810	0.524376	0.415370
51036	11.143523	-1.754330	-2.924522	-0.550020	-0.525331	1.816143	-0.469108	0.573331	0.528642	0.414447
51037	11.442431	-0.150590	-2.900189	1.008924	-0.423445	1.941691	-0.470040	0.569237	0.532117	0.414588
51038	10.210398	0.667365	-2.754315	1.662211	-0.554897	0.637808	-0.472474	0.565128	0.534351	0.414570
51039	9.218692	1.689027	-2.482758	2.572405	-0.500508	-0.478163	-0.475599	0.561658	0.535755	0.413899
51040	8.774245	1.630514	-2.250011	2.473442	-0.385325	-0.955935	-0.478480	0.559031	0.536659	0.412962
51041	9.297052	1.126033	-2.325331	2.038065	-0.392361	-0.389177	-0.481482	0.556857	0.537318	0.411551
51042	9.424627	1.032573	-2.222993	1.979417	-0.293367	-0.282358	-0.485081	0.554594	0.537621	0.409983
51043	9.118431	0.899343	-2.232822	1.859088	-0.393385	-0.575321	-0.488837	0.552394	0.537950	0.408055
51044	9.416222	1.080240	-2.211793	2.102736	-0.321412	-0.315360	-0.492252	0.550313	0.538654	0.405828
51045	9.363957	0.865421	-2.050275	1.902173	-0.198025	-0.379834	-0.495244	0.548032	0.539672	0.403916
51046	9.399259	0.257405	-2.006301	1.321532	-0.206005	-0.291730	-0.498229	0.545445	0.541141	0.401776
51047	9.851344	0.270013	-2.333775	1.433862	-0.453266	0.202646	-0.501659	0.542337	0.542951	0.399265
51048	11.016864	0.222612	-2.879053	1.585930	-0.790884	1.437603	-0.505218	0.538850	0.545067	0.396607
51049	10.566466	0.203156	-2.483754	1.503088	-0.511107	0.926951	-0.509400	0.534738	0.546865	0.394342
51050	8.757261	-0.606060	-1.760588	0.464777	-0.258595	-0.875488	-0.513885	0.530507	0.548746	0.391615
51051	9.499629	-1.597253	-1.838818	-0.398033	-0.371026	-0.020899	-0.518293	0.526472	0.551445	0.387438
51052	11.699575	-2.042211	-2.242480	-0.512567	-0.483287	2.253074	-0.523424	0.522097	0.554082	0.382669
51053	11.732013	-2.473794	-2.099172	-0.894571	-0.468917	2.317659	-0.529198	0.517037	0.556204	0.378497
51054	10.287987	-2.306283	-1.359566	-0.970449	-0.051182	0.773379	-0.534934	0.511223	0.558034	0.375625
51055	8.220706	-2.325802	-0.416882	-1.379083	0.427829	-1.381934	-0.539677	0.505163	0.560036	0.374058
51056	8.686003	-3.578687	-0.284051	-2.589941	0.274233	-0.782143	-0.543176	0.499555	0.562951	0.372143
51057	10.037409	-3.598324	-0.420716	-2.466230	0.261152	0.566303	-0.546952	0.493954	0.566091	0.369317
51058	9.742058	-3.251018	-0.495114	-2.151719	0.154194	0.240563	-0.550307	0.488270	0.569658	0.366394
51059	10.712612	-2.568581	-1.014752	-1.302123	-0.081389	1.172981	-0.552753	0.482366	0.574009	0.363733
51060	11.525757	-1.843925	-1.234656	-0.535047	-0.029558	1.912486	-0.555018	0.475800	0.578170	0.362340
51061	11.263487	-1.869223	-1.132121	-0.669716	-0.060789	1.641066	-0.557903	0.468625	0.581359	0.362155
51062	10.209512	-2.763162	-0.776596	-1.736766	-0.255826	0.646233	-0.562011	0.461266	0.583457	0.361877
51063	8.635184	-4.805490	-0.733434	-3.772236	-1.204176	-0.728898	-0.567424	0.453303	0.585865	0.359594
51064	8.025627	-4.061178	-0.694267	-3.101480	-1.135747	-1.417741	-0.573212	0.443834	0.590333	0.354890
51065	7.997544	-1.953571	-0.512938	-1.216032	-0.321147	-1.660520	-0.577549	0.433733	0.596449	0.350088
51066	8.676485	-1.496393	-0.890953	-0.662102	-0.483922	-1.001258	-0.580186	0.423976	0.603148	0.346180
51067	8.622536	-1.549318	-1.365431	-0.572244	-0.990667	-1.020437	-0.582281	0.414732	0.609607	0.342527
51068	9.020818	-1.052942	-1.800055	0.024634	-1.163421	-0.627391	-0.584013	0.406373	0.615617	0.338830
51069	10.260859	-1.467391	-2.348419	-0.118627	-1.738599	0.671425	-0.585898	0.398723	0.620779	0.335227
51070	10.481319	-2.059334	-2.699793	-0.489596	-2.340458	0.942316	-0.588703	0.391156	0.624851	0.331643
51071	8.711126	-2.328066	-2.437979	-0.840647	-2.455026	-0.839769	-0.591724	0.383382	0.629023	0.327431
51072	8.685060	-1.748545	-2.030084	-0.530962	-1.857892	-0.931520	-0.594094	0.375438	0.633866	0.322975
51073	10.070783	-1.470969	-2.064246	-0.295114	-1.658967	0.434563	-0.596491	0.367397	0.638418	0.318811
51074	10.512620	-2.133484	-2.253246	-0.755697	-2.183055	0.902108	-0.599921	0.359356	0.641923	0.314473
51075	9.148226	-2.446247	-1.926825	-1.132177	-2.257296	-0.484829	-0.604353	0.350593	0.645158	0.309214
51076	8.235956	-1.008358	-1.221045	-0.296805	-0.990874	-1.489915	-0.608627	0.340947	0.648943	0.303646
51077	7.840172	0.509798	-0.455015	0.478505	0.449333	-1.970231	-0.611797	0.331178	0.653069	0.299210
51078	8.041104	0.814922	-0.036043	0.409614	0.939926	-1.795644	-0.613918	0.321854	0.657107	0.296185
51079	8.692527	0.838446	0.094226	0.259741	1.042367	-1.145664	-0.616047	0.312837	0.660616	0.293608
51080	8.739221	1.279283	0.418649	0.334488	1.519023	-1.108320	-0.618969	0.304123	0.663253	0.290658
51081	7.200128	1.933323	1.211121	0.338307	2.437508	-2.671946	-0.622288	0.296297	0.665079	0.287464
51082	5.115109	1.594795	1.492867	-0.051500	2.330437	-4.762679	-0.624311	0.289981	0.667595	0.283659
51083	8.469580	1.491666	0.110108	0.569188	1.356189	-1.338802	-0.622481	0.285430	0.673308	0.278753
51084	11.916301	0.337520	-0.501032	-0.142256	0.312358	2.113921	-0.621154	0.282282	0.678601	0.272002
51085	13.744006	0.716318	-1.058698	0.328903	0.389593	3.981113	-0.620121	0.280498	0.683507	0.263796
51086	16.011827	0.010896	-1.629950	0.059211	-0.238234	6.279967	-0.620962	0.279360	0.685787	0.257023
51087	11.639342	-1.659239	-0.986853	-1.223603	-1.138742	1.866631	-0.622590	0.278698	0.686966	0.250574
51088	11.796146	-0.738332	-1.132997	-0.465508	-0.492921	2.041336	-0.622673	0.277066	0.689292	0.245740
51089	11.487368	1.336393	-1.107035	0.920513	1.060509	1.719817	-0.621368	0.275004	0.691917	0.243979
51090	12.229819	2.033689	-1.496678	1.545404	1.369441	2.503156	-0.618925	0.273556	0.694215	0.245287
51091	11.586591	1.851266	-1.432425	1.353499	1.212137	1.867493	-0.617240	0.273425	0.694965	0.247543
51092	10.384545	2.487364	-0.780482	1.395485	2.006793	0.611334	-0.616811	0.274755	0.693951	0.249973
51093	9.747675	3.315743	-0.240156	1.662252	2.896603	-0.070249	-0.617072	0.277679	0.691194	0.253707
51094	8.410601	3.162695	0.310286	1.342743	3.025551	-1.453304	-0.617537	0.282125	0.686971	0.259082
51095	7.475889	1.637796	1.020821	-0.082299	2.343536	-2.456471	-0.617135	0.287965	0.682648	0.264978
51096	8.653527	0.124256	1.392259	-1.434628	1.628093	-1.319862	-0.616493	0.294230	0.678804	0.269426
51097	8.752421	0.062429	1.847630	-1.723651	1.949263	-1.253991	-0.616607	0.299950	0.674964	0.272488
51098	8.330736	-0.233030	2.059054	-1.986325	1.909560	-1.682327	-0.616719	0.305065	0.671601	0.274856
51099	8.613591	-0.462714	2.051895	-2.101606	1.802471	-1.389371	-0.616880	0.309518	0.668656	0.276691
51100	9.428258	-0.580149	1.700804	-1.934572	1.547192	-0.539897	-0.617103	0.313418	0.665992	0.278223
51101	9.761203	-0.579368	1.447040	-1.720510	1.399626	-0.179869	-0.617892	0.316675	0.663119	0.279643
51102	9.298764	-0.377028	1.504189	-1.528019	1.551775	-0.640523	-0.618620	0.319614	0.660375	0.281176
51103	9.325593	-0.334451	1.237049	-1.270489	1.379349	-0.588163	-0.619223	0.322328	0.657614	0.283216
51104	8.179307	-0.613076	0.947662	-1.234395	0.898939	-1.698313	-0.619342	0.325040	0.655059	0.285768
51105	7.256309	-1.097172	0.639107	-1.376977	0.297192	-2.582068	-0.618603	0.327906	0.653242	0.288239
51106	6.917589	-1.108729	0.188179	-1.097762	-0.069558	-2.891144	-0.616775	0.330958	0.652416	0.290532
51107	7.447389	-0.959117	-0.427646	-0.626686	-0.402974	-2.328627	-0.613966	0.334375	0.652073	0.293325
51108	7.958372	-1.859273	-1.285015	-0.866570	-1.562532	-1.734873	-0.610467	0.338574	0.651769	0.296471
51109	8.478636	-2.926243	-1.961105	-1.380945	-2.659601	-1.134259	-0.607027	0.343031	0.651322	0.299377
51110	8.084992	-3.242523	-2.002017	-1.662635	-2.862528	-1.510266	-0.603656	0.347154	0.650937	0.302266
51111	8.323202	-2.837091	-2.046943	-1.385190	-2.603177	-1.279296	-0.599430	0.350698	0.651126	0.306151
51112	9.186549	-2.946902	-2.660634	-1.261415	-3.060927	-0.368436	-0.593957	0.353816	0.652038	0.311250
51113	11.159086	-3.621501	-3.874941	-1.379823	-4.230632	1.713392	-0.587887	0.356879	0.653477	0.316218
51114	13.733380	-3.733139	-4.978818	-1.179206	-4.923036	4.389458	-0.582675	0.360095	0.654684	0.319703
51115	14.937232	-2.775552	-4.978210	-0.589479	-4.239622	5.591340	-0.579153	0.363196	0.654612	0.322729
51116	13.949522	-2.414178	-4.482864	-0.580612	-3.708960	4.554619	-0.576565	0.366538	0.652951	0.326922
51117	11.827272	-3.351963	-3.967634	-1.587910	-3.965342	2.378142	-0.574093	0.370435	0.650618	0.331497
51118	12.947822	-3.056430	-3.819283	-1.551424	-3.568082	3.470241	-0.571306	0.374408	0.648575	0.335824
51119	13.502671	-2.569939	-3.749964	-1.250614	-3.224176	4.008650	-0.570111	0.377802	0.645018	0.340868
51120	13.514946	-0.919653	-3.214856	-0.079793	-2.016252	3.962747	-0.569760	0.380695	0.640840	0.346076
51121	14.289779	2.019953	-2.234058	2.031208	0.185644	4.647819	-0.569889	0.383877	0.635163	0.352751
51122	12.709514	3.701685	-0.724933	3.002424	1.975233	2.948125	-0.570482	0.387825	0.627271	0.361486
51123	9.089779	3.019253	0.808811	2.001881	2.595770	-0.776951	-0.571034	0.392663	0.617862	0.371460
51124	5.431040	1.457290	1.982631	0.343810	2.676406	-4.495921	-0.571346	0.398012	0.608921	0.379953
51125	4.766581	3.077578	2.608167	1.704232	3.804574	-5.163611	-0.570028	0.404263	0.602251	0.385919
51126	8.359346	4.034488	1.635216	2.985741	3.359210	-1.528389	-0.565798	0.412148	0.596961	0.391975
51127	10.849348	2.563697	0.394705	2.093572	1.724270	1.007659	-0.561485	0.420040	0.591072	0.398666
51128	9.807127	2.592743	0.145787	2.286035	1.395063	-0.027473	-0.557780	0.427600	0.584795	0.405037
51129	9.993895	2.240920	-0.187131	2.113059	0.921095	0.168335	-0.553748	0.435271	0.578818	0.410942
51130	10.290844	2.017377	-0.538858	2.058304	0.488734	0.472527	-0.550460	0.443099	0.572464	0.415864
51131	10.658287	1.376972	-0.943154	1.622050	-0.088100	0.852454	-0.547734	0.451356	0.565554	0.420016
51132	9.791575	0.807161	-0.858579	1.124494	-0.207181	-0.017000	-0.545721	0.459485	0.558184	0.423666
51133	8.885766	0.328783	-0.873883	0.715736	-0.380539	-0.914865	-0.542795	0.467385	0.551590	0.427403
51134	9.202319	-0.231756	-1.242209	0.290876	-0.828079	-0.565577	-0.538809	0.474886	0.546284	0.430978
51135	9.628722	0.462105	-1.548348	1.061666	-0.955883	-0.154412	-0.534247	0.482357	0.541646	0.434202
51136	10.481190	0.195913	-2.061426	0.934616	-1.426894	0.734041	-0.529679	0.490679	0.536361	0.437025
51137	9.994450	-0.969244	-2.327609	-0.163606	-1.833785	0.329117	-0.525987	0.499659	0.529991	0.439077
51138	9.386949	-2.294532	-2.513124	-1.431422	-2.142817	-0.166245	-0.523024	0.508728	0.523530	0.439952
51139	8.309345	-2.277364	-2.253065	-1.451278	-1.876731	-1.229052	-0.520717	0.516834	0.517662	0.440185
51140	7.632859	-1.750306	-2.073526	-0.946626	-1.635442	-1.935355	-0.517851	0.524128	0.512959	0.440446
51141	7.375997	-1.745145	-1.966762	-0.935362	-1.483234	-2.180936	-0.514600	0.531323	0.508711	0.440562
51142	7.537214	-1.819546	-1.694170	-0.975502	-1.136059	-2.018597	-0.511262	0.538310	0.504410	0.440913
51143	8.069345	-2.596843	-1.533937	-1.665432	-0.897207	-1.408411	-0.508379	0.544219	0.499922	0.442103
51144	6.242910	-1.846087	-0.759914	-1.111875	-0.235023	-3.357625	-0.506639	0.548706	0.495063	0.444017
51145	2.644869	-1.182792	0.245887	-0.865820	0.474047	-7.077658	-0.503839	0.553216	0.490656	0.446492
51146	3.117295	-1.127057	0.115202	-0.739989	0.412041	-6.605889	-0.498591	0.559355	0.488160	0.447469
51147	7.688709	-1.190174	-0.694667	-0.250200	0.099858	-2.006145	-0.491896	0.564977	0.487120	0.448947
51148	8.916032	-1.154006	-0.251323	-0.071577	0.734215	-0.849090	-0.487014	0.568342	0.485964	0.451269
51149	9.726043	-0.190338	0.424443	0.980002	1.469784	-0.237116	-0.483706	0.569611	0.484755	0.454515
51150	8.306192	1.718574	0.935437	2.706491	1.691985	-1.898573	-0.481010	0.570440	0.482344	0.458882
51151	8.543002	0.539350	0.325526	1.512657	1.180420	-1.464146	-0.475351	0.574187	0.480772	0.461745
51152	15.003485	-2.076709	-2.329374	-0.601498	-0.418746	5.494213	-0.466765	0.579471	0.481544	0.463097
51153	20.694703	-3.921020	-4.677794	-2.118278	-1.646056	11.595824	-0.460457	0.583077	0.482310	0.464088
51154	19.526004	-3.068382	-4.323993	-1.451644	-1.405144	10.319243	-0.458585	0.583508	0.482076	0.465640
51155	13.660490	-1.951318	-2.142602	-0.779351	-0.159137	4.129127	-0.459036	0.582021	0.481319	0.467834
51156	9.319942	-2.804601	-0.922026	-1.946658	0.537328	-0.247188	-0.461405	0.580451	0.480704	0.468086
51157	7.752361	-3.712318	-0.686724	-2.953665	0.632034	-1.736297	-0.465292	0.579332	0.481462	0.464837
51158	9.203141	-2.543885	-0.789991	-1.608869	0.551770	-0.384007	-0.470175	0.577239	0.483564	0.460321
51159	9.318651	-1.226519	-0.228931	-0.214049	0.969334	-0.463442	-0.475430	0.573779	0.485543	0.457156
51160	8.551850	-0.576154	0.591441	0.406273	1.599840	-1.381131	-0.480562	0.569917	0.486950	0.455120
51161	8.226106	-0.801769	0.872871	0.161363	1.805717	-1.701789	-0.485641	0.566267	0.487888	0.453276
51162	7.811345	-1.029695	0.875014	-0.106720	1.727059	-2.076490	-0.490654	0.562895	0.489123	0.450740
51163	8.409180	-0.868608	0.612710	0.116990	1.488990	-1.469225	-0.494761	0.559417	0.491634	0.447839
51164	8.992878	-0.255642	0.420860	0.777240	1.329695	-0.939013	-0.498194	0.555462	0.495220	0.444996
51165	9.271401	0.597479	0.278566	1.626922	1.217753	-0.742764	-0.500822	0.551430	0.499646	0.442105
51166	10.271707	1.247754	-0.083743	2.353156	0.994973	0.214492	-0.503083	0.547705	0.504178	0.439012
51167	11.145128	1.447694	-0.633116	2.628783	0.583805	1.117043	-0.505304	0.544050	0.508339	0.436197
51168	11.310961	1.301545	-1.057356	2.493412	0.210197	1.344753	-0.507352	0.540775	0.511979	0.433629
51169	10.591525	0.499473	-0.890084	1.597134	0.292194	0.703293	-0.509250	0.537863	0.515429	0.430931
51170	9.708699	0.143567	-0.574234	1.119115	0.523529	-0.164759	-0.510330	0.535581	0.519371	0.427750
51171	11.417476	-0.409409	-0.844606	0.737720	0.465987	1.610011	-0.510995	0.534097	0.523174	0.424163
51172	11.481846	-1.154180	-0.869701	0.001104	0.442668	1.751276	-0.511952	0.532819	0.525981	0.421132
51173	9.538901	-1.969847	-0.439332	-1.035097	0.584135	-0.135328	-0.512902	0.530963	0.528699	0.418912
51174	7.760255	-2.396752	-0.052299	-1.682880	0.708522	-1.898490	-0.513472	0.528182	0.532612	0.416768
51175	8.522865	-1.620114	0.024015	-0.900473	0.972420	-1.239016	-0.513498	0.525121	0.537846	0.413871
51176	10.118904	-1.157116	-0.111548	-0.358317	1.134256	0.303053	-0.513508	0.521849	0.543055	0.411187
51177	11.611028	-1.507321	-0.563463	-0.601983	0.883697	1.860434	-0.513713	0.518567	0.547688	0.408932
51178	12.560258	-2.436627	-0.824278	-1.482525	0.633665	2.906466	-0.515229	0.514272	0.551310	0.407579
51179	11.896738	-2.294900	-0.425667	-1.504276	0.883543	2.184627	-0.518423	0.508185	0.554304	0.407103
51180	9.868418	-0.922507	0.340967	-0.454080	1.478340	-0.016759	-0.522070	0.501240	0.557039	0.407319
51181	8.450830	-0.287172	0.706228	-0.034229	1.683993	-1.496443	-0.524433	0.494626	0.560081	0.408196
51182	8.886132	-0.459071	0.239275	-0.177382	1.189842	-0.993201	-0.525524	0.488694	0.563407	0.409359
51183	9.771107	-0.929685	-0.375082	-0.569933	0.548812	-0.022242	-0.526499	0.483412	0.566480	0.410137
51184	11.270935	-1.697448	-1.001534	-1.218364	-0.114283	1.563617	-0.528831	0.478163	0.568948	0.409873
51185	10.088755	-1.780742	-0.677720	-1.416853	-0.027528	0.356103	-0.533110	0.472194	0.570680	0.408841
51186	9.198063	-1.641999	-0.408546	-1.368165	0.087279	-0.561345	-0.537301	0.465908	0.573056	0.407240
51187	9.489926	-1.141311	-0.536373	-0.865945	0.031903	-0.278663	-0.541020	0.459596	0.575757	0.405675
51188	9.943471	-1.694284	-0.719249	-1.374450	-0.321559	0.200677	-0.544270	0.453370	0.578532	0.404383
51189	10.808327	-2.496600	-0.871942	-2.116554	-0.713281	1.087931	-0.548701	0.446703	0.580484	0.403017
51190	10.764900	-2.818738	-0.802642	-2.435787	-0.881119	1.039084	-0.554674	0.438957	0.581688	0.401612
51191	9.251278	-1.669939	-0.103855	-1.536936	-0.124741	-0.538758	-0.561316	0.430128	0.582328	0.401009
51192	7.948573	-0.339694	0.455540	-0.459339	0.627635	-1.881943	-0.566642	0.421798	0.583185	0.401122
51193	7.629162	-0.282646	0.599276	-0.474534	0.674464	-2.199380	-0.570568	0.415070	0.584224	0.401064
51194	7.040459	-1.458989	0.437022	-1.539050	0.041516	-2.775853	-0.573889	0.409907	0.585762	0.399388
51195	8.610735	-2.168170	-0.161172	-1.992576	-0.789234	-1.194202	-0.577284	0.405364	0.588382	0.395260
51196	9.637804	-1.432424	-0.336835	-1.221666	-0.710807	-0.166205	-0.581715	0.399947	0.590905	0.390490
51197	8.549885	-0.241020	-0.105346	-0.190948	-0.099268	-1.261473	-0.585833	0.393611	0.593527	0.386777
51198	8.240229	0.453540	0.001350	0.387144	0.232972	-1.572377	-0.588478	0.386963	0.596588	0.384754
51199	8.960991	0.538315	-0.006722	0.419360	0.221663	-0.848102	-0.590363	0.380389	0.599584	0.383763
51200	9.914993	0.172170	0.116717	-0.022424	0.125878	0.103643	-0.592576	0.374235	0.601999	0.382621
51201	10.713125	-0.379962	0.343934	-0.661264	0.022695	0.892242	-0.595400	0.368528	0.603706	0.381084
51202	10.647980	-0.664909	0.597883	-1.044301	0.046957	0.821486	-0.598663	0.362535	0.604936	0.379767
51203	10.130424	-0.225979	0.899523	-0.807193	0.440032	0.318443	-0.601061	0.356273	0.606573	0.379295
51204	11.770039	-0.224592	0.795675	-0.842444	0.210988	1.954304	-0.602763	0.350021	0.608457	0.379397
51205	12.182597	-0.097487	0.889154	-0.829315	0.229557	2.372305	-0.605713	0.343685	0.609118	0.379431
51206	8.563243	-0.550838	1.493882	-1.435644	0.604298	-1.243128	-0.609437	0.337668	0.609442	0.378349
51207	7.872358	0.117811	1.282473	-0.747955	0.727682	-1.904239	-0.611367	0.332769	0.611743	0.375853
51208	9.412034	0.920361	0.590333	0.209378	0.433810	-0.349619	-0.611584	0.328861	0.615247	0.373211
51209	10.409508	1.582904	0.222433	0.874998	0.408607	0.674447	-0.611245	0.325367	0.618369	0.371666
51210	10.397509	2.036981	0.514465	1.051623	0.890934	0.705022	-0.611041	0.322225	0.620395	0.371362
51211	10.013089	2.668324	1.103408	1.248764	1.722543	0.388913	-0.610873	0.319878	0.621266	0.372210
51212	10.698138	2.575735	1.325804	0.989598	1.787794	1.080735	-0.610450	0.318774	0.621232	0.373905
51213	10.200549	2.106007	1.268840	0.635378	1.490111	0.554191	-0.610510	0.318671	0.620051	0.375849
51214	9.338074	1.218201	0.878703	0.129106	0.730645	-0.383730	-0.610073	0.319311	0.619231	0.377366
51215	10.454163	1.322930	0.059721	0.590498	0.002054	0.708460	-0.609391	0.320434	0.618853	0.378135
51216	10.277352	1.808602	-0.625873	1.369261	-0.316047	0.546461	-0.608489	0.322187	0.618397	0.378843
51217	10.898183	1.871808	-1.083962	1.630227	-0.704251	1.155238	-0.607126	0.324911	0.617765	0.379733
51218	10.851290	1.427131	-0.929394	1.186482	-0.782838	1.079068	-0.606488	0.328114	0.615749	0.381270
51219	8.799050	0.144323	-0.324589	-0.096040	-0.767763	-1.040536	-0.606592	0.331708	0.612730	0.382855
51220	7.533332	-1.153782	-0.120319	-1.237294	-1.134111	-2.377666	-0.606315	0.335601	0.610456	0.383532
51221	7.746997	-1.072724	-0.250792	-1.087366	-1.191191	-2.155784	-0.605572	0.339150	0.609151	0.383660
51222	7.783506	-0.753271	-0.779167	-0.546888	-1.463964	-2.111061	-0.603772	0.342587	0.608960	0.383746
51223	10.581097	-0.288400	-1.810822	0.244998	-2.241536	0.686692	-0.601188	0.345986	0.609424	0.384016
51224	9.465461	0.075957	-1.649021	0.520055	-1.833353	-0.395242	-0.600172	0.349187	0.608326	0.384449
51225	7.620132	-0.416389	-1.246371	-0.037535	-1.594963	-2.246461	-0.598387	0.352985	0.607853	0.384512
51226	9.633997	-0.363604	-1.286561	-0.037443	-1.631580	-0.224276	-0.596395	0.356874	0.607508	0.384563
51227	9.996284	-1.023749	-1.298938	-0.627610	-1.903108	0.119336	-0.595016	0.360466	0.606537	0.384880
51228	10.115075	-1.688316	-1.329299	-1.195218	-2.186038	0.223479	-0.594449	0.363644	0.605503	0.384396
51229	9.691956	-1.670149	-1.267876	-1.163855	-2.070796	-0.185232	-0.594730	0.366199	0.604637	0.382896
51230	9.204444	-1.222862	-1.147247	-0.773780	-1.713849	-0.647693	-0.594625	0.368324	0.604563	0.381134
51231	8.456366	-1.174156	-0.852203	-0.825282	-1.375017	-1.383982	-0.594381	0.370075	0.605007	0.379106
51232	8.184823	-1.170304	-0.941226	-0.763835	-1.398148	-1.645177	-0.593578	0.371981	0.606612	0.375921
51233	8.648351	-0.928701	-1.272221	-0.394836	-1.516087	-1.162830	-0.592938	0.373628	0.608861	0.371638
51234	7.892211	-0.670538	-1.325899	-0.122716	-1.374304	-1.901286	-0.591641	0.374694	0.612292	0.366965
51235	9.616894	0.049457	-1.626428	0.609836	-1.192745	-0.151581	-0.589922	0.374491	0.616594	0.362711
51236	11.111549	0.829072	-1.812724	1.316154	-0.866146	1.365710	-0.588624	0.372955	0.620814	0.359189
51237	12.177535	1.554213	-1.890792	1.923911	-0.483732	2.448926	-0.588540	0.370725	0.624108	0.355911
51238	11.334026	0.728848	-1.733620	1.131583	-0.717876	1.597870	-0.589610	0.368349	0.626563	0.352275
51239	10.131015	-0.088517	-1.494418	0.344891	-0.915160	0.381526	-0.591324	0.365332	0.629385	0.347482
51240	10.095141	0.043431	-1.204135	0.318254	-0.559991	0.333675	-0.592699	0.361210	0.633403	0.342104
51241	10.956607	1.233705	-0.991991	1.182284	0.305453	1.190132	-0.594418	0.355790	0.637373	0.337395
51242	9.884246	1.544428	-0.806128	1.349194	0.594454	0.115029	-0.595912	0.350187	0.640802	0.334112
51243	8.181052	0.365965	-0.547225	0.250237	0.103182	-1.609660	-0.597412	0.344872	0.643854	0.331081
51244	5.068263	-0.362295	0.147979	-0.622689	0.143584	-4.769668	-0.598361	0.339916	0.647533	0.327294
51245	5.796391	-1.038739	-0.680749	-0.789957	-0.882003	-4.004210	-0.596775	0.335080	0.653781	0.322725
51246	12.316418	-0.957364	-2.100130	-0.385552	-1.653986	2.602450	-0.594981	0.328774	0.660762	0.318276
51247	10.651221	-0.598564	-1.541484	-0.388760	-1.072303	0.905596	-0.595745	0.320924	0.665477	0.315017
51248	11.793306	-0.808459	-1.208411	-0.898416	-0.921099	2.000017	-0.597621	0.312555	0.669762	0.310768
51249	12.512485	-1.069705	-0.522949	-1.569124	-0.582165	2.644352	-0.603517	0.304142	0.671301	0.304335
51250	11.136074	-0.812613	0.345676	-1.700641	0.114658	1.227446	-0.612296	0.295605	0.671237	0.295216
51251	10.689201	0.178798	1.465362	-1.539282	1.514200	0.759676	-0.621269	0.286610	0.671174	0.285315
51252	9.688045	1.445136	2.709144	-1.332420	3.188359	-0.255247	-0.629822	0.277424	0.671244	0.275302
51253	8.433820	2.939746	2.672307	-0.180837	4.143201	-1.463210	-0.637333	0.269266	0.671757	0.264658
51254	10.538973	4.433201	0.620302	2.189156	3.867974	0.739714	-0.640017	0.262085	0.675239	0.256402
51255	14.147119	1.814799	-0.840246	1.279765	1.078126	4.376752	-0.642545	0.254492	0.678162	0.249931
51256	10.355046	3.457509	1.628892	0.627487	3.864824	0.507376	-0.646719	0.246056	0.679644	0.243506
51257	10.829669	5.794264	3.057605	0.964413	6.526897	0.988817	-0.650839	0.238090	0.679449	0.240978
51258	11.937176	1.212655	2.805485	-1.792606	2.723119	2.070366	-0.655318	0.232266	0.677491	0.240036
51259	10.545333	-2.179488	3.536851	-4.357275	0.413515	0.642159	-0.662087	0.226935	0.674315	0.235457
51260	9.028706	-0.582715	3.968516	-3.588878	1.834455	-0.792763	-0.668962	0.220681	0.671351	0.230386
51261	7.220608	1.036511	4.202397	-2.752363	3.194334	-2.526292	-0.673761	0.214495	0.669508	0.227590
51262	7.381416	0.677553	3.822011	-2.658387	2.592009	-2.345018	-0.676229	0.208912	0.669310	0.226042
51263	7.311099	0.134356	3.093636	-2.389267	1.660409	-2.425202	-0.678784	0.203950	0.669097	0.223531
51264	5.572233	-1.041852	2.875891	-2.899373	0.581478	-4.185842	-0.680711	0.199927	0.669632	0.219668
51265	4.726079	-1.958695	2.152302	-2.828222	-0.588857	-5.073590	-0.681142	0.195728	0.671773	0.215538
51266	6.514247	-0.842183	0.656661	-0.978859	-0.566615	-3.309121	-0.679062	0.190712	0.676251	0.212577
51267	11.903291	0.716489	-0.910875	1.070471	-0.310282	2.094736	-0.675467	0.184812	0.681744	0.211692
51268	10.567831	2.869203	-0.596713	1.830472	1.692016	0.866855	-0.673424	0.179619	0.685101	0.211837
51269	10.745808	3.786491	-0.826038	2.383290	2.310952	1.117554	-0.670137	0.176589	0.688825	0.212725
51270	12.305771	4.220431	-1.198867	2.763535	2.396516	2.729248	-0.667520	0.175720	0.691206	0.213948
51271	11.071352	3.085968	-0.863851	1.879543	1.656253	1.437574	-0.666465	0.176578	0.691631	0.215154
51272	10.091493	2.348721	-0.525659	1.240224	1.256021	0.410585	-0.665891	0.178375	0.691441	0.216057
51273	11.309433	1.799434	-0.474179	0.864121	0.778837	1.589625	-0.665849	0.180562	0.690775	0.216500
51274	12.458582	1.392658	-0.661616	0.790486	0.302880	2.712355	-0.666780	0.182149	0.689439	0.216564
51275	9.788232	2.029891	0.410479	0.387261	1.529507	0.067027	-0.668721	0.183235	0.687270	0.216557
51276	7.123841	2.703017	1.372079	0.073243	2.718425	-2.564051	-0.669411	0.184411	0.685911	0.217734
51277	8.018394	3.281878	1.550740	0.227026	3.267099	-1.642947	-0.668105	0.186879	0.686035	0.219244
51278	9.916118	3.932922	1.660063	0.441545	3.819184	0.275513	-0.666532	0.190577	0.686100	0.220642
51279	9.397884	3.881569	1.954467	0.221154	3.989292	-0.260565	-0.665822	0.195039	0.684974	0.222377
51280	7.995161	2.795284	2.355456	-0.624631	3.392851	-1.726743	-0.664953	0.199569	0.683994	0.223967
51281	7.712736	2.881297	2.752016	-0.854011	3.734650	-2.022659	-0.664030	0.203687	0.683375	0.224888
51282	6.946295	3.438264	3.548667	-1.128225	4.709787	-2.797679	-0.662767	0.208037	0.683168	0.225260
51283	7.129374	3.359582	3.828263	-1.377366	4.862087	-2.654983	-0.660507	0.213018	0.683861	0.225143
51284	8.661180	3.961981	3.725288	-0.969102	5.355778	-1.154365	-0.657513	0.218754	0.685038	0.224825
51285	9.586254	3.957948	3.307466	-0.640600	5.201582	-0.271568	-0.654449	0.225331	0.685684	0.225301
51286	8.433569	4.436505	3.590889	-0.496139	5.838164	-1.483789	-0.650413	0.232985	0.686512	0.226675
51287	10.411797	4.372064	2.789829	0.048266	5.450544	0.463062	-0.644148	0.242151	0.688470	0.229009
51288	15.734547	4.379101	0.749123	1.353704	4.526552	5.839393	-0.636427	0.252179	0.691081	0.231891
51289	20.593413	4.756464	-1.271858	2.790703	3.942647	10.802722	-0.629991	0.262293	0.691804	0.236054
51290	20.356906	4.778976	-1.738100	3.166425	3.742460	10.589040	-0.625511	0.272584	0.689810	0.242065
51291	18.890223	4.588737	-1.965981	3.364676	3.341774	9.141808	-0.621463	0.282743	0.686452	0.250246
51292	17.892644	4.201477	-2.281632	3.463246	2.677817	8.182819	-0.617614	0.293010	0.681817	0.260429
51293	15.233626	3.094928	-1.938215	2.687999	1.804844	5.514168	-0.614854	0.303398	0.675104	0.272287
51294	10.393095	1.386790	-1.055219	1.208542	0.817705	0.623861	-0.613500	0.314205	0.665986	0.285229
51295	5.605465	-2.071962	-0.678663	-1.409422	-1.490543	-4.158781	-0.612379	0.325217	0.656115	0.297891
51296	8.434665	-4.477698	-2.296318	-2.456860	-4.051137	-1.209335	-0.609681	0.335720	0.648656	0.307940
51297	11.131607	-3.567105	-2.848849	-1.520664	-3.792395	1.503590	-0.608778	0.344480	0.640585	0.316819
51298	6.515071	-2.183216	-1.757255	-0.938198	-2.358169	-3.190055	-0.606930	0.352257	0.633429	0.326065
51299	7.920887	-1.450215	-1.975143	-0.279919	-2.087398	-1.793425	-0.601444	0.360375	0.628934	0.335913
51300	9.713725	-2.191901	-2.236238	-0.885397	-2.613404	0.013162	-0.596711	0.368735	0.623676	0.344961
51301	10.285309	-2.912750	-2.051747	-1.668757	-2.759897	0.583434	-0.593371	0.376884	0.618130	0.351830
51302	11.290195	-2.694935	-1.481663	-1.756497	-2.082234	1.567355	-0.592050	0.384106	0.611842	0.357196
51303	9.308733	-1.468559	-0.105046	-1.235177	-0.383752	-0.477442	-0.592007	0.390136	0.604648	0.362936
51304	6.060133	-0.370062	1.232690	-0.793572	1.156299	-3.778240	-0.590906	0.395809	0.597361	0.370573
51305	4.209988	-0.809386	1.480045	-1.278087	1.138923	-5.612820	-0.587074	0.402136	0.591480	0.379186
51306	5.448254	-1.517694	0.537084	-1.529541	0.054872	-4.341616	-0.581361	0.409390	0.587479	0.386377
51307	6.363001	-1.426631	-0.406950	-1.100752	-0.711942	-3.411921	-0.575567	0.416991	0.584452	0.391481
51308	7.446148	-1.306240	-1.361920	-0.671513	-1.463831	-2.301904	-0.569710	0.424534	0.582565	0.394740
51309	7.658418	-0.908502	-1.814385	-0.179073	-1.677249	-2.071695	-0.564398	0.431628	0.580952	0.397048
51310	7.256226	-0.571414	-1.987103	0.160681	-1.684013	-2.459749	-0.559148	0.438890	0.579471	0.398676
51311	6.906526	-0.902603	-2.415085	-0.059063	-2.135693	-2.757049	-0.553520	0.446726	0.578206	0.399661
51312	7.964377	-1.210648	-3.170574	-0.161599	-2.773216	-1.613226	-0.547114	0.454925	0.577735	0.399916
51313	9.840572	-0.980728	-3.769804	0.193517	-2.994996	0.336209	-0.539935	0.463140	0.577876	0.400038
51314	12.523251	-0.912772	-4.299213	0.361238	-3.067960	3.094772	-0.533166	0.470634	0.577425	0.401022
51315	12.152865	-0.859182	-3.923774	0.258343	-2.609060	2.715342	-0.528266	0.477102	0.575211	0.403041
51316	10.794313	-1.736153	-3.242252	-0.794586	-2.225423	1.343444	-0.524606	0.483369	0.572019	0.404893
51317	9.908342	-2.570329	-2.786299	-1.711998	-1.999046	0.464361	-0.522586	0.489145	0.568278	0.405835
51318	8.533431	-2.750201	-2.404640	-1.971826	-1.778249	-0.918041	-0.521064	0.494058	0.565239	0.406083
51319	8.219989	-2.437461	-2.290802	-1.682677	-1.595549	-1.246488	-0.518712	0.497869	0.563782	0.406466
51320	7.184638	-1.862498	-2.227232	-1.177874	-1.518037	-2.305597	-0.515437	0.500815	0.563680	0.407153
51321	6.681074	-1.962186	-2.348427	-1.301895	-1.662009	-2.773920	-0.510806	0.504149	0.565034	0.406998
51322	7.964463	-2.259350	-2.814295	-1.502533	-1.882924	-1.407126	-0.506373	0.508273	0.566806	0.404940
51323	10.963267	-2.171504	-3.560515	-1.211284	-1.990040	1.683258	-0.502825	0.512121	0.568387	0.402287
51324	10.776292	-1.755976	-3.387664	-0.833510	-1.684030	1.463706	-0.501092	0.514554	0.568714	0.400882
51325	8.046377	-1.594966	-2.817124	-0.856648	-1.535564	-1.319610	-0.499362	0.516219	0.569016	0.400471
51326	7.272912	-2.281090	-2.910124	-1.557435	-1.820113	-2.013415	-0.496464	0.518259	0.570553	0.399250
51327	8.800074	-2.362814	-3.262366	-1.546553	-1.805196	-0.431012	-0.493618	0.520738	0.572753	0.396393
51328	9.795919	-1.763492	-3.396809	-0.902605	-1.550728	0.550130	-0.491482	0.522841	0.574788	0.393321
51329	10.399300	-1.176273	-3.259803	-0.325948	-1.124712	1.086111	-0.489950	0.523907	0.576328	0.391556
51330	10.429825	-0.622162	-2.759549	0.128287	-0.513139	0.980996	-0.488982	0.523865	0.577083	0.391710
51331	9.285802	-0.533618	-2.156478	0.065165	-0.164824	-0.266495	-0.488411	0.523443	0.576970	0.393151
51332	9.555580	-1.079278	-2.068453	-0.497990	-0.115175	0.010305	-0.487967	0.523489	0.576542	0.394268
51333	9.830373	-1.513624	-2.397045	-0.869874	-0.447170	0.371440	-0.488389	0.523692	0.575867	0.394461
51334	10.274014	-1.133415	-2.458131	-0.461309	-0.364895	0.795631	-0.489055	0.523523	0.575708	0.394093
51335	9.750425	-0.271288	-2.107244	0.328510	-0.021626	0.161101	-0.489870	0.522674	0.575786	0.394095
51336	10.059633	1.027390	-1.672344	1.538809	0.637027	0.300406	-0.489923	0.521359	0.576190	0.395177
51337	10.242814	1.232703	-1.714313	1.719942	0.633842	0.483596	-0.489587	0.519952	0.576124	0.397537
51338	9.814236	0.691676	-1.864345	1.165342	0.279155	0.129005	-0.489617	0.518604	0.575767	0.399771
51339	8.638153	0.775085	-1.782235	1.186876	0.106436	-1.039162	-0.489335	0.517592	0.576083	0.400972
51340	9.193326	0.973566	-2.127715	1.421397	-0.092198	-0.433811	-0.488552	0.517083	0.577082	0.401147
51341	9.391184	1.364246	-2.317667	1.815424	-0.162317	-0.215559	-0.487347	0.516942	0.578344	0.400976
51342	9.816408	1.582371	-2.520456	2.038572	-0.216715	0.237964	-0.485694	0.517064	0.579487	0.401175
51343	10.091724	1.278194	-2.572672	1.717307	-0.238128	0.535713	-0.484167	0.517322	0.580033	0.401898
51344	10.221112	0.635785	-2.483656	1.046656	-0.215716	0.670721	-0.483468	0.517448	0.579915	0.402747
51345	9.944038	0.258229	-2.188560	0.622798	-0.052197	0.353420	-0.484006	0.517188	0.579420	0.403148
51346	9.693314	0.327387	-1.897516	0.655935	0.170149	0.046766	-0.485287	0.516486	0.579067	0.403014
51347	10.236953	0.361799	-1.888988	0.706608	0.268056	0.575919	-0.487151	0.515219	0.578818	0.402745
51348	10.281021	0.474885	-1.944499	0.845440	0.202436	0.625226	-0.489624	0.513479	0.578294	0.402720
51349	10.243459	0.483829	-2.035185	0.889776	0.052331	0.604109	-0.492732	0.511211	0.577322	0.403210
51350	9.917981	0.416242	-2.021063	0.844501	-0.079349	0.282074	-0.496526	0.508602	0.575926	0.403850
51351	8.442650	0.529032	-1.611432	0.899509	-0.000907	-1.248496	-0.500423	0.505891	0.574638	0.404280
51352	8.371740	1.007902	-1.384335	1.352997	0.231936	-1.378607	-0.503456	0.503471	0.574085	0.404322
51353	8.832190	1.088982	-1.338642	1.442248	0.328049	-0.935884	-0.505544	0.501386	0.574051	0.404355
51354	9.191474	1.264462	-1.394742	1.632711	0.332236	-0.579531	-0.507147	0.499533	0.574141	0.404512
51355	9.229844	1.177084	-1.463509	1.557832	0.233160	-0.526343	-0.508187	0.498074	0.574433	0.404592
51356	9.617161	1.073258	-1.582794	1.483340	0.144485	-0.121159	-0.509158	0.497115	0.574620	0.404285
51357	9.283439	1.095143	-1.606559	1.514173	0.065559	-0.449699	-0.510395	0.496453	0.574592	0.403578
51358	9.880224	1.124723	-1.546927	1.556765	0.220278	0.127370	-0.511218	0.496304	0.574744	0.402502
51359	9.701623	1.019404	-1.422358	1.444362	0.299578	-0.065493	-0.512076	0.496285	0.574673	0.401536
51360	9.519076	0.875791	-1.395247	1.311762	0.279146	-0.245668	-0.512548	0.496461	0.574872	0.400428
51361	9.626795	1.178445	-1.491023	1.643250	0.276104	-0.142604	-0.512712	0.496902	0.575079	0.399373
51362	9.682750	1.269039	-1.667282	1.779403	0.151918	-0.068123	-0.512338	0.497802	0.575244	0.398494
51363	9.502715	1.049603	-1.731956	1.581948	0.048436	-0.226348	-0.511308	0.499372	0.575499	0.397483
51364	10.159846	0.617927	-1.947512	1.226270	-0.096474	0.477303	-0.510335	0.501084	0.575691	0.396299
51365	9.222967	0.618843	-1.733543	1.175752	-0.004345	-0.481627	-0.509438	0.502808	0.575924	0.394930
51366	9.800028	0.378819	-1.789685	0.977804	0.040944	0.108452	-0.508137	0.504689	0.576441	0.393449
51367	10.701593	0.200324	-1.949902	0.868998	0.063029	1.031987	-0.506945	0.506575	0.576708	0.392170
51368	10.549910	-0.200006	-1.846982	0.469718	0.105268	0.888717	-0.506284	0.508424	0.576393	0.391090
51369	9.505551	-0.386467	-1.649221	0.242511	0.107732	-0.161047	-0.505641	0.510695	0.575850	0.389761
51370	9.230720	-0.869741	-1.699017	-0.202631	-0.030019	-0.388943	-0.504446	0.513638	0.575575	0.387845
51371	9.761966	-1.197021	-1.988914	-0.421059	-0.199262	0.210642	-0.502910	0.516748	0.575499	0.385816
51372	9.996558	-1.450121	-2.264921	-0.584879	-0.393218	0.515273	-0.501290	0.519632	0.575355	0.384262
51373	10.029929	-1.827438	-2.470831	-0.900245	-0.588106	0.622227	-0.499752	0.522076	0.575115	0.383311
51374	10.232433	-2.318844	-2.667701	-1.328505	-0.770580	0.903539	-0.498684	0.523837	0.574736	0.382867
51375	9.836105	-2.304354	-2.608109	-1.334648	-0.770844	0.506505	-0.498405	0.524751	0.574270	0.382678
51376	9.194615	-2.142505	-2.318167	-1.250614	-0.594661	-0.190447	-0.498292	0.525170	0.574027	0.382616
51377	9.146579	-2.109120	-2.247452	-1.230181	-0.528001	-0.254068	-0.498239	0.525239	0.574052	0.382553
51378	8.915409	-2.192846	-2.204466	-1.332951	-0.547462	-0.481220	-0.498132	0.525097	0.574374	0.382402
51379	9.564727	-2.280607	-2.418657	-1.355368	-0.623305	0.202777	-0.497981	0.524708	0.575084	0.382066
51380	10.180756	-2.248602	-2.586294	-1.272726	-0.645198	0.834228	-0.498187	0.523845	0.575891	0.381767
51381	10.030360	-2.007283	-2.570911	-1.054360	-0.631782	0.662810	-0.498600	0.522670	0.576641	0.381706
51382	9.076807	-1.882041	-2.225937	-1.050788	-0.498109	-0.350500	-0.498769	0.521214	0.577682	0.381901
51383	8.898438	-1.651383	-2.093419	-0.880835	-0.380153	-0.573033	-0.498422	0.519664	0.579105	0.382311
51384	8.967378	-1.608960	-2.037622	-0.879937	-0.312454	-0.523850	-0.497951	0.518015	0.580601	0.382894
51385	9.337201	-1.540568	-2.102967	-0.823346	-0.295774	-0.157966	-0.497752	0.516159	0.582001	0.383534
51386	8.874180	-1.270830	-1.849439	-0.650725	-0.119394	-0.683135	-0.497928	0.514264	0.583197	0.384033
51387	8.048021	-0.925689	-1.532687	-0.418986	0.059069	-1.578759	-0.497929	0.512582	0.584523	0.384265
51388	7.810248	-0.725152	-1.527880	-0.252883	0.050330	-1.825592	-0.497236	0.511485	0.586214	0.384048
51389	8.196983	-0.552023	-1.803770	-0.047915	-0.082210	-1.401999	-0.495847	0.511094	0.588129	0.383436
51390	8.668242	-0.580356	-2.032360	-0.045367	-0.174298	-0.892308	-0.494516	0.511351	0.589648	0.382478
51391	8.684878	-0.455987	-2.160723	0.088376	-0.233409	-0.854935	-0.493137	0.512073	0.590852	0.381433
51392	9.573864	-0.702467	-2.461093	-0.090541	-0.331546	0.091406	-0.492083	0.512915	0.591635	0.380448
51393	10.102884	-1.027106	-2.689784	-0.355443	-0.462084	0.676270	-0.491769	0.513567	0.591872	0.379604
51394	11.312384	-1.271221	-3.082740	-0.490138	-0.585704	1.956169	-0.491918	0.513942	0.592124	0.378509
51395	11.418550	-0.765577	-2.918302	-0.005593	-0.304215	1.993804	-0.493018	0.513675	0.591799	0.377948
51396	9.939978	-0.684085	-2.418246	-0.029153	-0.167281	0.438662	-0.494115	0.513163	0.591294	0.378002
51397	10.267310	-0.777941	-2.488809	-0.092868	-0.200978	0.778250	-0.494894	0.512498	0.590923	0.378465
51398	10.614356	-0.613177	-2.583223	0.096621	-0.215292	1.126131	-0.496043	0.511515	0.590120	0.379541
51399	10.476320	-0.692353	-2.597291	0.022958	-0.328954	0.997931	-0.497660	0.510087	0.588909	0.381224
51400	10.316076	-0.702468	-2.764001	0.049575	-0.601817	0.873251	-0.500073	0.508015	0.587252	0.383383
51401	10.095769	-0.706803	-2.991988	0.100066	-0.963270	0.696227	-0.503241	0.505489	0.585268	0.385605
51402	9.060639	-0.392060	-3.063483	0.424603	-1.279016	-0.335521	-0.507124	0.502610	0.582968	0.387759
51403	7.813224	-0.113500	-3.195649	0.724594	-1.679493	-1.571021	-0.511027	0.499833	0.580698	0.389626
51404	8.282613	-0.096187	-3.884296	0.924267	-2.340482	-1.016899	-0.514595	0.497351	0.578656	0.391141
51405	9.397158	-0.311794	-4.754141	0.961817	-3.131889	0.200833	-0.518775	0.494597	0.576094	0.392889
51406	9.895559	-0.672538	-5.312566	0.794958	-3.796098	0.749178	-0.524171	0.491110	0.572661	0.395114
51407	9.858414	-0.724923	-5.371507	0.825369	-4.037504	0.655371	-0.531083	0.486575	0.568226	0.397890
51408	9.617993	-0.382968	-5.188826	1.191636	-4.020653	0.286090	-0.539167	0.481062	0.562769	0.401459
51409	9.566406	-0.246048	-5.069580	1.386699	-4.118199	0.106352	-0.548425	0.474703	0.555942	0.405976
51410	9.047498	-0.541912	-4.788904	1.104447	-4.217129	-0.535194	-0.558617	0.467631	0.547865	0.411233
51411	8.890751	-0.744194	-4.513840	0.936950	-4.287029	-0.828952	-0.569676	0.459721	0.538771	0.416956
51412	8.271186	-0.450348	-4.023000	1.167083	-4.041881	-1.621785	-0.581551	0.450949	0.528656	0.423044
51413	6.962441	-0.410331	-3.226507	1.004514	-3.500799	-3.046437	-0.593587	0.441837	0.517903	0.429197
51414	6.861556	-0.183846	-2.746275	1.186870	-3.220081	-3.265008	-0.605370	0.432533	0.506733	0.435505
51415	6.784222	-0.522254	-2.625332	0.908213	-3.424987	-3.438670	-0.617088	0.423050	0.494855	0.441984
51416	6.433721	-0.738536	-2.193135	0.637484	-3.261938	-3.838208	-0.629062	0.413001	0.482169	0.448580
51417	6.185116	-0.441951	-1.342630	0.766243	-2.574125	-4.065180	-0.641083	0.402265	0.468761	0.455476
51418	5.802819	-0.164548	-0.467876	0.843939	-1.836346	-4.351151	-0.652846	0.391249	0.454356	0.462901
51419	5.402790	-0.496289	0.125792	0.393597	-1.507136	-4.614550	-0.664110	0.380156	0.439319	0.470572
51420	5.398000	-0.846859	0.593629	0.020861	-1.408637	-4.500661	-0.675370	0.368615	0.423565	0.478112
51421	5.034441	-0.997399	1.533789	-0.325572	-0.723184	-4.515668	-0.686583	0.356559	0.407465	0.485224
51422	4.351894	-0.608813	2.673214	-0.262473	0.411395	-4.692871	-0.697322	0.344309	0.391337	0.491984
51423	3.853426	-0.705034	3.422184	-0.545977	1.011701	-4.740122	-0.707125	0.332411	0.375563	0.498428
51424	3.713372	-0.932300	3.950672	-0.832427	1.233574	-4.516775	-0.716130	0.320833	0.360449	0.504283
51425	3.525406	-0.714088	4.841746	-0.774213	1.894253	-4.139252	-0.724494	0.309391	0.345729	0.509761
51426	3.403934	-0.657879	5.605228	-0.823915	2.350454	-3.711148	-0.732032	0.298362	0.331546	0.514962
51427	3.533761	-0.573254	6.077664	-0.723965	2.429006	-3.230613	-0.738933	0.287731	0.317836	0.519778
51428	3.524368	-0.691926	6.305220	-0.804639	2.326895	-2.987167	-0.745332	0.277364	0.304441	0.524276
51429	3.561996	-0.895940	6.753050	-0.988961	2.320666	-2.551541	-0.751419	0.267057	0.291513	0.528271
51430	3.618324	-0.723580	7.378915	-0.836767	2.517779	-2.001305	-0.757302	0.256602	0.278964	0.531816
51431	4.012290	-0.647970	8.060433	-0.684459	2.463470	-1.155689	-0.762766	0.246264	0.266695	0.535178
51432	4.424519	-0.787716	8.824650	-0.729612	2.328806	-0.215528	-0.768050	0.235599	0.254122	0.538529
51433	3.427657	-0.578429	9.772744	-0.869623	3.370690	-0.042268	-0.772965	0.224849	0.241613	0.541841
51434	2.947739	-0.371078	10.322588	-0.804746	3.796355	0.202931	-0.777239	0.214967	0.229848	0.544848
51435	3.076912	-0.721770	10.721921	-1.065187	3.513007	0.744925	-0.780978	0.206049	0.219162	0.547344
51436	3.565747	-0.549601	11.389078	-0.753125	3.260582	1.655531	-0.784462	0.197469	0.209125	0.549448
51437	4.149037	-0.438579	11.921765	-0.446146	2.812884	2.492378	-0.787504	0.189340	0.199343	0.551589
51438	4.198433	-0.556216	12.383014	-0.502407	2.653321	2.992505	-0.790235	0.181452	0.189523	0.553791
51439	3.395899	-0.619783	12.886939	-0.770827	3.217220	3.111544	-0.792650	0.174314	0.179989	0.555810
51440	3.293993	-1.121122	13.192959	-1.209059	2.994404	3.443474	-0.794777	0.168077	0.171450	0.557390
51441	4.175556	-1.113003	13.631205	-0.871563	2.195332	4.290445	-0.796562	0.162296	0.164044	0.558782
51442	5.225650	-0.709224	14.342437	-0.129999	1.485107	5.395415	-0.797919	0.156640	0.156653	0.560580
51443	4.931588	-0.605182	15.025391	-0.085780	1.773520	5.912731	-0.798874	0.151433	0.148846	0.562773
51444	4.130282	-1.234981	15.444874	-0.864353	2.161832	6.052430	-0.799709	0.147177	0.141796	0.564534
51445	3.646472	-1.223875	15.684977	-0.938962	2.459309	6.120918	-0.800567	0.143611	0.136667	0.565500
51446	4.452971	-0.599733	15.701958	-0.027426	1.799862	6.419932	-0.801000	0.141156	0.132789	0.566429
51447	4.800697	-1.266710	15.707634	-0.489572	1.158069	6.612868	-0.801088	0.139439	0.129380	0.567517
51448	4.168238	-1.727899	15.785927	-1.092393	1.495512	6.500646	-0.801305	0.137892	0.127243	0.568071
51449	4.475626	-1.122879	15.713769	-0.406785	1.330236	6.505384	-0.801287	0.136789	0.126604	0.568506
51450	4.751581	-1.096582	15.471872	-0.288373	0.982276	6.377149	-0.800800	0.136358	0.126531	0.569311
51451	3.503145	-1.284537	15.553301	-0.883590	2.054044	6.024842	-0.800202	0.136603	0.127318	0.569919
51452	3.177787	-1.084813	15.297624	-0.813039	2.372833	5.646940	-0.799390	0.138484	0.130142	0.569966
51453	3.907587	-1.104417	14.625570	-0.609526	1.609515	5.268160	-0.798139	0.141619	0.134363	0.569970
51454	4.198859	-0.949039	14.052846	-0.389787	1.358456	4.816502	-0.796545	0.145648	0.139249	0.570011
51455	4.146108	-1.090362	13.784616	-0.573609	1.452360	4.538359	-0.794671	0.150504	0.144572	0.570041
51456	3.863563	-1.420636	13.548011	-1.009337	1.723313	4.205170	-0.792682	0.156169	0.150788	0.569675
51457	4.284250	-1.570737	13.211212	-1.063945	1.426079	4.050438	-0.790506	0.162128	0.158149	0.569037
51458	4.157557	-1.651497	13.088398	-1.252717	1.722424	3.853908	-0.787989	0.168062	0.166360	0.568466
51459	3.587440	-1.445177	13.070008	-1.326655	2.537039	3.513166	-0.784928	0.174246	0.175756	0.568011
51460	3.873586	-1.372431	12.860829	-1.277394	2.532014	3.387137	-0.781350	0.181181	0.186643	0.567301
51461	4.717017	-1.477352	12.485412	-1.243251	1.963739	3.412435	-0.777545	0.188230	0.198561	0.566186
51462	4.647052	-1.066751	12.314833	-1.012181	2.404162	3.132212	-0.773590	0.195254	0.211202	0.564649
51463	4.104916	-0.488722	12.198323	-0.760075	3.301336	2.612974	-0.769110	0.202985	0.224698	0.562830
51464	3.768236	-0.515537	11.796633	-0.988167	3.714660	1.970091	-0.764073	0.212171	0.239294	0.560281
51465	3.952613	-0.744029	10.883522	-1.196109	3.382388	1.220812	-0.758594	0.222662	0.255297	0.556579
51466	4.862983	-0.560588	10.063898	-0.831395	2.689666	1.017823	-0.752507	0.233917	0.272074	0.552260
51467	4.876907	-0.771350	9.483598	-1.094982	2.678108	0.479444	-0.745734	0.245381	0.289108	0.547800
51468	4.517473	-0.661230	8.954733	-1.136984	3.015092	-0.292675	-0.738265	0.257122	0.306777	0.542901
51469	4.724984	-0.538448	8.146064	-0.978414	2.753734	-0.845198	-0.730009	0.269386	0.325223	0.537353
51470	4.785420	-0.212183	7.302652	-0.637128	2.585695	-1.496050	-0.721032	0.281856	0.343863	0.531439
51471	4.946530	0.086637	6.241341	-0.239405	2.142095	-2.146506	-0.711139	0.294756	0.362557	0.525312
51472	5.105845	0.265396	5.275856	0.044609	1.696564	-2.665469	-0.700620	0.307917	0.380723	0.519007
51473	5.092194	0.116917	4.338095	-0.001951	1.225567	-3.236108	-0.689496	0.321270	0.398413	0.512492
51474	5.558251	0.061416	3.368080	0.138833	0.492250	-3.334153	-0.678149	0.334296	0.415417	0.505756
51475	6.059807	0.258682	2.477600	0.512479	-0.130261	-3.282852	-0.666802	0.346831	0.431384	0.498990
51476	6.461461	0.138764	1.603744	0.565351	-0.794983	-3.226148	-0.655731	0.358643	0.445957	0.492457
51477	7.100946	-0.024182	0.865490	0.574077	-1.435817	-2.828815	-0.645228	0.369527	0.459064	0.486200
