// General information: 
//  MT Manager version: 2021.0.0 
//  XDA version: 2021.0.0 build 5908 rev 109668 built on 2021-04-19
// Device information: 
//  DeviceId: 00B43DEC
//  ProductCode: MTW2-3A7G6
//  Firmware Version: 4.3.5
//  Hardware Version: 1.1.0
// Device settings: 
//  Filter Profile: human(46.1)
//  Option Flags: Orientation Smoother Disabled, Position/Velocity Smoother Disabled, Continuous Zero Rotation Update Disabled, AHS Disabled, ICC Disabled
// Coordinate system: ENU
PacketCounter	Acc_X	Acc_Y	Acc_Z	FreeAcc_E	FreeAcc_N	FreeAcc_U	Quat_q0	Quat_q1	Quat_q2	Quat_q3
54636	-9.137098	1.004238	3.369699	0.012310	-0.044183	-0.022498	0.291700	0.555140	0.151052	-0.764143
54637	-9.134163	0.998101	3.397953	-0.013530	-0.054840	-0.016155	0.291734	0.555111	0.151021	-0.764157
54638	-9.151975	1.040897	3.378302	0.031688	-0.072010	-0.002037	0.291754	0.555071	0.150978	-0.764187
54639	-9.134019	0.997168	3.398616	-0.013279	-0.052139	-0.016140	0.291781	0.555007	0.150943	-0.764230
54640	-9.101158	1.027963	3.416592	-0.014774	-0.094332	-0.037629	0.291804	0.554960	0.150910	-0.764261
54641	-9.150039	1.035926	3.394277	0.019085	-0.073955	0.001162	0.291795	0.554888	0.150905	-0.764318
54642	-9.112764	1.028171	3.434532	-0.023159	-0.099707	-0.020591	0.291776	0.554837	0.150906	-0.764362
54643	-9.126549	0.973284	3.395995	-0.022345	-0.031473	-0.026346	0.291739	0.554799	0.150914	-0.764403
54644	-9.114679	1.027686	3.420290	-0.009923	-0.091002	-0.023739	0.291731	0.554768	0.150902	-0.764431
54645	-9.109248	0.980973	3.380837	-0.008222	-0.033917	-0.046954	0.291724	0.554740	0.150901	-0.764454
54646	-9.128338	1.030836	3.422594	-0.005337	-0.090356	-0.009874	0.291709	0.554705	0.150886	-0.764488
54647	-9.125552	0.994593	3.430456	-0.032982	-0.066575	-0.013329	0.291691	0.554679	0.150899	-0.764511
54648	-9.109625	1.035514	3.421450	-0.004192	-0.098826	-0.027285	0.291676	0.554654	0.150915	-0.764532
54649	-9.142633	1.031848	3.423851	-0.000634	-0.088374	0.004002	0.291649	0.554667	0.150941	-0.764527
54650	-9.143462	0.971382	3.381660	-0.004184	-0.018102	-0.015660	0.291627	0.554656	0.150973	-0.764537
54651	-9.139180	1.044359	3.410072	0.017819	-0.092861	-0.002746	0.291595	0.554615	0.150977	-0.764579
54652	-9.121617	0.969946	3.409228	-0.028998	-0.038607	-0.026718	0.291560	0.554579	0.150999	-0.764614
54653	-9.115910	0.981591	3.410994	-0.023646	-0.050474	-0.030300	0.291535	0.554550	0.150982	-0.764648
54654	-9.138351	1.007335	3.403571	0.003364	-0.060407	-0.009381	0.291531	0.554510	0.150998	-0.764675
54655	-9.125093	1.000475	3.401290	-0.000860	-0.057038	-0.023214	0.291538	0.554454	0.150975	-0.764717
54656	-9.123558	0.996632	3.415810	-0.013708	-0.061703	-0.020019	0.291541	0.554421	0.150977	-0.764740
54657	-9.092618	1.059024	3.439315	-0.000374	-0.132387	-0.034723	0.291514	0.554401	0.150961	-0.764768
54658	-9.129918	1.009799	3.433944	-0.016865	-0.080267	-0.006550	0.291490	0.554374	0.151012	-0.764787
54659	-9.159591	0.970922	3.445133	-0.041101	-0.047357	0.021223	0.291469	0.554316	0.151006	-0.764838
54660	-9.128942	0.969295	3.352579	0.023828	-0.003875	-0.039443	0.291482	0.554230	0.150971	-0.764902
54661	-9.116244	1.000295	3.433532	-0.020844	-0.074221	-0.020360	0.291509	0.554147	0.150919	-0.764962
54662	-9.105609	0.999840	3.403791	0.000882	-0.058837	-0.040578	0.291552	0.554057	0.150849	-0.765025
54663	-9.128582	1.005238	3.438831	-0.016252	-0.073572	-0.006496	0.291584	0.553978	0.150796	-0.765080
54664	-9.110479	1.015226	3.425255	-0.002263	-0.077421	-0.027092	0.291618	0.553882	0.150740	-0.765148
54665	-9.109995	1.014578	3.426733	-0.002149	-0.076081	-0.027082	0.291632	0.553794	0.150694	-0.765216
54666	-9.122963	1.019202	3.430464	0.002313	-0.076765	-0.013227	0.291656	0.553714	0.150677	-0.765267
54667	-9.112190	0.993875	3.455429	-0.033105	-0.072234	-0.017103	0.291668	0.553657	0.150661	-0.765307
54668	-9.101881	1.022242	3.445402	-0.009518	-0.091298	-0.027413	0.291677	0.553603	0.150626	-0.765350
54669	-9.122654	0.987051	3.411740	0.000809	-0.038315	-0.023123	0.291694	0.553547	0.150600	-0.765389
54670	-9.114917	1.026096	3.449182	-0.004928	-0.090630	-0.013544	0.291710	0.553477	0.150577	-0.765437
54671	-9.120697	1.011621	3.447979	-0.010057	-0.076089	-0.009976	0.291702	0.553419	0.150570	-0.765484
54672	-9.098413	0.983321	3.455536	-0.036849	-0.063558	-0.030899	0.291707	0.553389	0.150557	-0.765507
54673	-9.125274	0.993430	3.460303	-0.028036	-0.066216	-0.003200	0.291703	0.553380	0.150550	-0.765516
54674	-9.137804	1.019452	3.421277	0.020578	-0.062048	-0.002509	0.291705	0.553367	0.150541	-0.765527
54675	-9.125805	0.991382	3.459489	-0.027806	-0.063553	-0.003181	0.291709	0.553334	0.150545	-0.765548
54676	-9.115868	1.019396	3.448656	-0.004225	-0.082632	-0.013473	0.291708	0.553313	0.150556	-0.765561
54677	-9.111330	0.980649	3.470786	-0.044891	-0.064918	-0.013803	0.291711	0.553278	0.150547	-0.765587
54678	-9.107184	0.995658	3.458269	-0.026566	-0.070787	-0.020545	0.291726	0.553251	0.150540	-0.765602
54679	-9.128059	0.960379	3.424241	-0.016261	-0.017796	-0.016329	0.291742	0.553196	0.150513	-0.765642
54680	-9.081985	1.044508	3.480677	-0.018297	-0.126972	-0.031476	0.291765	0.553150	0.150481	-0.765672
54681	-9.116196	0.956211	3.408160	-0.007418	-0.007126	-0.033382	0.291783	0.553108	0.150452	-0.765701
54682	-9.129381	0.990909	3.431593	-0.001073	-0.042196	-0.009547	0.291824	0.553072	0.150385	-0.765725
54683	-9.110003	0.998902	3.431315	-0.000055	-0.052106	-0.026924	0.291875	0.553031	0.150319	-0.765748
54684	-9.136404	1.010008	3.437033	0.008748	-0.054743	0.000778	0.291918	0.552970	0.150270	-0.765785
54685	-9.076897	1.030348	3.450136	-0.001384	-0.093139	-0.048138	0.291966	0.552904	0.150220	-0.765824
54686	-9.106052	1.022399	3.482464	-0.023764	-0.094572	-0.010467	0.291992	0.552872	0.150187	-0.765844
54687	-9.111049	1.000352	3.418867	0.013339	-0.040795	-0.030114	0.291991	0.552849	0.150185	-0.765861
54688	-9.110514	0.975473	3.474386	-0.043658	-0.050314	-0.013711	0.292012	0.552799	0.150129	-0.765901
54689	-9.135930	1.007663	3.438980	0.009285	-0.048073	0.000813	0.292053	0.552749	0.150091	-0.765928
54690	-9.114947	1.012191	3.453210	-0.002660	-0.064008	-0.013333	0.292085	0.552685	0.150064	-0.765968
54691	-9.126487	0.985091	3.450202	-0.013047	-0.036263	-0.006282	0.292126	0.552626	0.150025	-0.766002
54692	-9.121963	1.030135	3.459012	0.007174	-0.076546	-0.002986	0.292170	0.552568	0.149988	-0.766034
54693	-9.105204	0.989551	3.465228	-0.024886	-0.050914	-0.020417	0.292229	0.552506	0.149945	-0.766065
54694	-9.103333	0.957535	3.459723	-0.039641	-0.021216	-0.027229	0.292292	0.552451	0.149881	-0.766093
54695	-9.122464	1.003932	3.427067	0.018567	-0.032187	-0.016227	0.292386	0.552345	0.149771	-0.766156
54696	-9.125897	0.988915	3.441421	0.000450	-0.023687	-0.009485	0.292503	0.552253	0.149681	-0.766195
54697	-9.110035	1.011151	3.475695	-0.014851	-0.060837	-0.010051	0.292620	0.552141	0.149575	-0.766251
54698	-9.101625	0.993520	3.473486	-0.024356	-0.044351	-0.020384	0.292754	0.552028	0.149472	-0.766301
54699	-9.119863	0.957546	3.456032	-0.027059	0.002638	-0.013085	0.292871	0.551899	0.149358	-0.766372
54700	-9.082174	1.089341	3.449688	0.050660	-0.104889	-0.037242	0.293011	0.551737	0.149224	-0.766461
54701	-9.074306	1.079609	3.510000	-0.001068	-0.127631	-0.024307	0.293124	0.551598	0.149119	-0.766538
54702	-9.081871	1.047917	3.537225	-0.037394	-0.111912	-0.010823	0.293206	0.551486	0.149076	-0.766596
54703	-9.094658	0.994957	3.500516	-0.036785	-0.043762	-0.017123	0.293317	0.551385	0.148991	-0.766643
54704	-9.091380	1.043476	3.495666	-0.003563	-0.078007	-0.016994	0.293392	0.551321	0.148951	-0.766668
54705	-9.071812	1.051262	3.495861	-0.002535	-0.087971	-0.034332	0.293473	0.551245	0.148906	-0.766701
54706	-9.096669	1.030219	3.495384	-0.008588	-0.062161	-0.013478	0.293537	0.551207	0.148880	-0.766709
54707	-9.095038	1.027422	3.509660	-0.021441	-0.066867	-0.010233	0.293594	0.551187	0.148852	-0.766706
54708	-9.077517	1.067125	3.514833	-0.005530	-0.105189	-0.020699	0.293628	0.551181	0.148827	-0.766703
54709	-9.080622	1.018549	3.520152	-0.038521	-0.068303	-0.020830	0.293649	0.551197	0.148831	-0.766682
54710	-9.078541	1.036434	3.492302	-0.007233	-0.068158	-0.030787	0.293677	0.551201	0.148857	-0.766663
54711	-9.083353	1.019383	3.503591	-0.025346	-0.059625	-0.024051	0.293669	0.551221	0.148868	-0.766650
54712	-9.092966	1.040100	3.492546	-0.002661	-0.067421	-0.016915	0.293696	0.551234	0.148868	-0.766630
54713	-9.095116	1.071344	3.497497	0.012340	-0.094466	-0.010018	0.293684	0.551266	0.148888	-0.766608
54714	-9.125327	1.032935	3.506945	-0.011946	-0.061429	0.017536	0.293642	0.551320	0.148924	-0.766579
54715	-9.106217	1.060260	3.462955	0.033208	-0.066584	-0.013001	0.293589	0.551373	0.148989	-0.766548
54716	-9.110032	1.009819	3.466847	0.000208	-0.029718	-0.013169	0.293525	0.551421	0.149065	-0.766523
54717	-9.078616	1.038903	3.481866	-0.001201	-0.072165	-0.034203	0.293457	0.551472	0.149147	-0.766496
54718	-9.103312	1.041437	3.513120	-0.018290	-0.086677	0.000010	0.293345	0.551528	0.149262	-0.766477
54719	-9.091518	1.032487	3.507605	-0.022537	-0.083460	-0.013833	0.293220	0.551618	0.149365	-0.766440
54720	-9.109802	1.039848	3.478148	0.007834	-0.071990	-0.006463	0.293071	0.551713	0.149492	-0.766404
54721	-9.103929	1.017244	3.470650	-0.001699	-0.055559	-0.016840	0.292943	0.551770	0.149603	-0.766390
54722	-9.106976	1.015972	3.453744	0.011373	-0.048221	-0.020083	0.292800	0.551819	0.149740	-0.766383
54723	-9.099225	0.961493	3.440383	-0.013043	-0.003447	-0.037391	0.292701	0.551888	0.149823	-0.766354
54724	-9.098916	0.956885	3.451791	-0.025895	-0.008150	-0.034139	0.292653	0.551990	0.149834	-0.766297
54725	-9.101892	1.047146	3.496371	-0.007001	-0.103868	-0.006836	0.292615	0.552085	0.149807	-0.766248
54726	-9.090469	1.093967	3.456103	0.047776	-0.124162	-0.026966	0.292504	0.552188	0.149849	-0.766208
54727	-9.038748	0.876900	3.435946	-0.080531	0.040762	-0.103646	0.292442	0.552297	0.149992	-0.766125
54728	-9.119925	0.729887	3.591015	-0.275510	0.096411	0.011566	0.292682	0.552632	0.149797	-0.765830
54729	-9.158897	1.041446	3.494357	-0.017010	-0.083841	0.044959	0.293031	0.553081	0.149539	-0.765423
54730	-9.157743	1.114050	3.362328	0.115495	-0.068061	0.005288	0.293314	0.553453	0.149467	-0.765060
54731	-9.121422	1.129441	3.278451	0.172549	-0.044237	-0.056024	0.293517	0.553660	0.149406	-0.764844
54732	-9.100036	0.896309	3.406650	-0.077509	0.068049	-0.055196	0.293889	0.553810	0.149248	-0.764623
54733	-9.140154	0.799683	3.252744	-0.017039	0.246286	-0.081229	0.294525	0.553977	0.148945	-0.764316
54734	-9.313426	0.453230	3.393751	-0.309396	0.507579	0.092334	0.295575	0.554226	0.148338	-0.763849
54735	-9.129159	1.113491	3.462282	-0.019833	-0.085371	0.013862	0.296587	0.554561	0.147482	-0.763379
54736	-8.919122	1.592772	3.806564	-0.057497	-0.693276	-0.009952	0.297271	0.555052	0.146701	-0.762906
54737	-9.108461	1.401701	3.253704	0.274521	-0.177208	-0.044953	0.297834	0.555493	0.146357	-0.762431
54738	-9.045493	1.430983	3.378071	0.170448	-0.279200	-0.057022	0.298172	0.555810	0.146009	-0.762135
54739	-9.073131	1.222432	3.379154	0.040361	-0.103324	-0.054490	0.298430	0.556023	0.145952	-0.761890
54740	-9.160012	1.103118	3.373485	-0.016559	0.020494	0.010876	0.298629	0.556282	0.145919	-0.761629
54741	-9.153880	1.169540	3.349128	0.034902	-0.020905	0.004458	0.298806	0.556458	0.146026	-0.761410
54742	-9.169699	1.206543	3.354485	0.054287	-0.049760	0.025314	0.298922	0.556434	0.146222	-0.761345
54743	-9.152536	1.357888	3.352557	0.146132	-0.174243	0.026048	0.299024	0.556271	0.146438	-0.761382
54744	-9.087999	1.249197	3.419438	0.021233	-0.144968	-0.023750	0.298999	0.555980	0.146627	-0.761568
54745	-9.087441	1.183152	3.383225	0.017368	-0.075031	-0.044284	0.298915	0.555632	0.146885	-0.761806
54746	-9.137175	1.109380	3.441303	-0.052018	-0.035326	0.013669	0.298787	0.555283	0.147056	-0.762077
54747	-9.079452	1.156159	3.451871	-0.034269	-0.096444	-0.031170	0.298605	0.554949	0.147238	-0.762357
54748	-9.098598	1.224412	3.430510	0.038880	-0.135510	-0.013087	0.298308	0.554512	0.147486	-0.762743
54749	-9.123887	1.164207	3.402708	0.043733	-0.069241	-0.005936	0.297934	0.553957	0.147791	-0.763233
54750	-9.115876	1.108747	3.450004	-0.009960	-0.057668	-0.003121	0.297547	0.553293	0.148160	-0.763794
54751	-9.135765	1.061537	3.412788	0.013119	0.001386	-0.002693	0.297141	0.552658	0.148489	-0.764348
54752	-9.095793	1.069343	3.485352	-0.027092	-0.059203	-0.013690	0.296796	0.551949	0.148816	-0.764930
54753	-9.108881	0.953651	3.464923	-0.059761	0.044427	-0.020789	0.296471	0.551293	0.149082	-0.765478
54754	-9.083836	1.025690	3.490770	-0.023635	-0.035463	-0.027405	0.296203	0.550661	0.149333	-0.765987
54755	-9.101016	0.955686	3.522908	-0.070591	0.006724	-0.007196	0.296009	0.550080	0.149494	-0.766447
54756	-9.097009	0.967950	3.492317	-0.026386	0.012851	-0.020451	0.295851	0.549558	0.149621	-0.766859
54757	-9.051759	1.050015	3.529275	-0.002280	-0.084463	-0.041019	0.295671	0.549097	0.149702	-0.767242
54758	-9.067038	1.031448	3.552333	-0.016045	-0.077765	-0.020455	0.295458	0.548690	0.149813	-0.767594
54759	-9.025449	1.065534	3.592353	-0.025073	-0.139594	-0.041353	0.295234	0.548364	0.149950	-0.767886
54760	-9.050452	0.956772	3.594556	-0.079294	-0.049867	-0.028100	0.295027	0.548190	0.150086	-0.768063
54761	-9.055458	0.988366	3.574268	-0.038370	-0.064811	-0.027602	0.294846	0.548064	0.150175	-0.768205
54762	-9.036908	1.019996	3.594444	-0.035376	-0.109216	-0.034501	0.294645	0.548041	0.150328	-0.768269
54763	-9.045673	1.004200	3.576500	-0.027625	-0.088669	-0.034377	0.294496	0.548078	0.150487	-0.768268
54764	-9.088729	0.960054	3.526090	-0.005486	-0.018203	-0.016788	0.294354	0.548131	0.150636	-0.768256
54765	-9.086626	1.059445	3.572961	0.018833	-0.126992	0.007636	0.294159	0.548204	0.150775	-0.768251
54766	-9.063885	0.966115	3.549692	-0.024959	-0.052280	-0.030850	0.293998	0.548274	0.150982	-0.768222
54767	-9.043288	0.934409	3.552922	-0.051836	-0.040170	-0.051892	0.293865	0.548397	0.151165	-0.768149
54768	-9.072261	0.941556	3.553390	-0.043009	-0.042508	-0.024155	0.293755	0.548563	0.151305	-0.768045
54769	-9.076260	0.941241	3.533937	-0.029970	-0.035198	-0.027443	0.293667	0.548729	0.151468	-0.767928
54770	-9.122023	0.959966	3.507914	0.009115	-0.027257	0.007570	0.293576	0.548898	0.151608	-0.767815
54771	-9.080742	0.935653	3.523893	-0.029782	-0.032618	-0.027433	0.293517	0.549037	0.151733	-0.767713
54772	-9.117930	0.987389	3.473831	0.045765	-0.039113	-0.005779	0.293478	0.549183	0.151843	-0.767602
54773	-9.078930	0.944788	3.516833	-0.024318	-0.043274	-0.030804	0.293450	0.549322	0.151973	-0.767487
54774	-9.077624	0.937285	3.540922	-0.050116	-0.054065	-0.024202	0.293430	0.549467	0.152089	-0.767368
54775	-9.137896	0.965393	3.503921	0.006251	-0.041879	0.021376	0.293407	0.549602	0.152185	-0.767261
54776	-9.116416	0.987686	3.486929	0.025495	-0.059249	-0.002536	0.293385	0.549717	0.152294	-0.767166
54777	-9.098206	0.969255	3.537906	-0.030558	-0.080233	-0.003191	0.293360	0.549815	0.152393	-0.767085
54778	-9.101470	0.890470	3.519632	-0.065676	-0.009186	-0.014060	0.293365	0.549926	0.152436	-0.766996
54779	-9.075933	1.039350	3.511709	0.021982	-0.131791	-0.026623	0.293364	0.550079	0.152518	-0.766869
54780	-9.150340	0.857501	3.420970	-0.004665	0.080652	-0.006539	0.293363	0.550163	0.152532	-0.766807
54781	-9.120251	0.976983	3.498605	0.000052	-0.064796	0.004110	0.293414	0.550213	0.152527	-0.766752
54782	-9.088368	0.979256	3.493995	-0.003313	-0.073171	-0.026983	0.293447	0.550228	0.152547	-0.766725
54783	-9.112660	0.903677	3.525929	-0.068515	-0.023765	-0.000240	0.293497	0.550241	0.152547	-0.766696
54784	-9.133149	0.949613	3.491007	-0.010290	-0.034463	0.010856	0.293580	0.550259	0.152516	-0.766658
54785	-9.085853	1.024897	3.499172	0.017189	-0.110822	-0.023164	0.293625	0.550295	0.152467	-0.766625
54786	-9.116468	0.960919	3.473785	0.003728	-0.037331	-0.009671	0.293654	0.550316	0.152477	-0.766597
54787	-9.084967	0.992289	3.490041	0.002390	-0.080002	-0.030293	0.293685	0.550351	0.152484	-0.766558
54788	-9.111043	0.919637	3.507126	-0.049904	-0.024552	-0.006890	0.293727	0.550395	0.152492	-0.766509
54789	-9.090108	0.946420	3.478061	-0.017716	-0.035927	-0.034084	0.293781	0.550452	0.152496	-0.766446
54790	-9.104272	0.952012	3.478510	-0.013261	-0.036388	-0.020210	0.293839	0.550517	0.152481	-0.766381
54791	-9.107477	1.013574	3.503558	0.003822	-0.097581	-0.002547	0.293891	0.550583	0.152486	-0.766312
54792	-9.120930	0.960120	3.462276	0.004217	-0.029570	-0.009644	0.293931	0.550644	0.152529	-0.766244
54793	-9.095282	0.978492	3.476172	-0.002391	-0.059018	-0.026887	0.293983	0.550679	0.152505	-0.766204
54794	-9.105181	0.919746	3.464518	-0.027882	-0.003021	-0.027374	0.294039	0.550691	0.152511	-0.766173
54795	-9.113657	0.967777	3.488832	-0.016099	-0.050946	-0.006341	0.294104	0.550701	0.152472	-0.766148
54796	-9.106186	0.949456	3.483662	-0.025712	-0.034653	-0.016865	0.294179	0.550702	0.152442	-0.766125
54797	-9.111335	0.987607	3.461214	0.015211	-0.049586	-0.016305	0.294262	0.550683	0.152386	-0.766118
54798	-9.120504	1.009357	3.451514	0.037884	-0.057280	-0.009084	0.294320	0.550643	0.152359	-0.766129
54799	-9.096257	0.979470	3.473345	-0.001974	-0.051290	-0.026843	0.294371	0.550607	0.152334	-0.766141
54800	-9.093273	0.973400	3.501775	-0.027745	-0.062054	-0.020194	0.294406	0.550593	0.152338	-0.766137
54801	-9.110024	0.983836	3.475165	0.002557	-0.050469	-0.012958	0.294447	0.550588	0.152323	-0.766128
54802	-9.109654	0.954517	3.454240	0.000583	-0.014927	-0.023487	0.294503	0.550555	0.152271	-0.766140
54803	-9.108460	0.981154	3.489473	-0.010211	-0.053915	-0.009621	0.294550	0.550528	0.152220	-0.766152
54804	-9.092959	0.943873	3.480770	-0.029455	-0.022695	-0.030705	0.294612	0.550484	0.152177	-0.766168
54805	-9.108650	1.010526	3.510845	-0.007967	-0.085600	0.000941	0.294659	0.550446	0.152139	-0.766185
54806	-9.093123	0.973040	3.502266	-0.027252	-0.054349	-0.020146	0.294720	0.550398	0.152097	-0.766204
54807	-9.102247	0.994466	3.492783	-0.004587	-0.062005	-0.012916	0.294783	0.550363	0.152070	-0.766211
54808	-9.101752	0.965131	3.472199	-0.006569	-0.026488	-0.023469	0.294833	0.550329	0.152029	-0.766223
54809	-9.100139	0.962375	3.486649	-0.019439	-0.031260	-0.020136	0.294891	0.550300	0.151990	-0.766230
54810	-9.104159	0.946950	3.499126	-0.037631	-0.022778	-0.013485	0.294998	0.550278	0.151908	-0.766221
54811	-9.101721	0.996276	3.493638	-0.004324	-0.056928	-0.012885	0.295091	0.550240	0.151831	-0.766228
54812	-9.099829	0.994239	3.508604	-0.017176	-0.061678	-0.009545	0.295170	0.550183	0.151763	-0.766252
54813	-9.102500	1.000541	3.480938	0.008769	-0.048385	-0.016203	0.295253	0.550125	0.151675	-0.766279
54814	-9.096326	1.014399	3.483973	0.014158	-0.060369	-0.019508	0.295329	0.550052	0.151624	-0.766312
54815	-9.100114	0.998057	3.497312	-0.004005	-0.051868	-0.012857	0.295372	0.549981	0.151594	-0.766352
54816	-9.096305	0.963036	3.505924	-0.031878	-0.028429	-0.016775	0.295431	0.549932	0.151538	-0.766375
54817	-9.092321	1.008571	3.514951	-0.011488	-0.068610	-0.012812	0.295484	0.549887	0.151486	-0.766398
54818	-9.080759	1.035070	3.519309	-0.000777	-0.093820	-0.019410	0.295504	0.549849	0.151449	-0.766425
54819	-9.080946	1.034069	3.519120	-0.000683	-0.092533	-0.019398	0.295492	0.549837	0.151473	-0.766433
54820	-9.098531	0.992708	3.512401	-0.016522	-0.051533	-0.009486	0.295485	0.549841	0.151483	-0.766431
54821	-9.079908	0.999427	3.510975	-0.015536	-0.061814	-0.026653	0.295452	0.549848	0.151489	-0.766437
54822	-9.079947	0.968874	3.489362	-0.017535	-0.026374	-0.037269	0.295440	0.549849	0.151499	-0.766439
54823	-9.084028	1.002495	3.480485	0.010456	-0.047252	-0.033321	0.295419	0.549872	0.151511	-0.766429
54824	-9.117069	0.998557	3.482493	0.013976	-0.036130	-0.002269	0.295405	0.549867	0.151526	-0.766435
54825	-9.095378	0.999469	3.509638	-0.010873	-0.058439	-0.012745	0.295365	0.549880	0.151546	-0.766437
54826	-9.076934	1.005675	3.507926	-0.009864	-0.068756	-0.029905	0.295316	0.549896	0.151584	-0.766437
54827	-9.102458	0.982473	3.505097	-0.016060	-0.042694	-0.009442	0.295278	0.549920	0.151621	-0.766427
54828	-9.101130	0.948759	3.497286	-0.030973	-0.013270	-0.016740	0.295245	0.549936	0.151647	-0.766423
54829	-9.093919	1.008676	3.492339	0.007688	-0.060657	-0.019349	0.295205	0.549939	0.151666	-0.766432
54830	-9.090876	0.972070	3.499268	-0.020194	-0.037213	-0.023304	0.295175	0.549936	0.151703	-0.766438
54831	-9.100538	0.992000	3.488874	0.002512	-0.044850	-0.016052	0.295142	0.549919	0.151684	-0.766467
54832	-9.090023	0.966587	3.512514	-0.032949	-0.040704	-0.019944	0.295131	0.549916	0.151685	-0.766473
54833	-9.114583	0.994861	3.490417	0.007026	-0.044020	-0.002162	0.295127	0.549889	0.151707	-0.766490
54834	-9.076113	0.980436	3.468403	0.006894	-0.031714	-0.047143	0.295123	0.549871	0.151690	-0.766508
54835	-9.105763	0.971138	3.499667	-0.015451	-0.032560	-0.009402	0.295102	0.549856	0.151681	-0.766528
54836	-9.083388	1.023224	3.507157	0.005908	-0.084269	-0.022492	0.295072	0.549844	0.151686	-0.766548
54837	-9.089465	1.008268	3.504584	0.000700	-0.069750	-0.019209	0.295046	0.549833	0.151712	-0.766561
54838	-9.099231	0.947550	3.493380	-0.024884	-0.013809	-0.019999	0.294989	0.549829	0.151750	-0.766578
54839	-9.101711	0.977967	3.499262	-0.009798	-0.040713	-0.012655	0.294972	0.549812	0.151733	-0.766600
54840	-9.090131	0.974075	3.482085	-0.001156	-0.031766	-0.029886	0.294928	0.549800	0.151741	-0.766624
54841	-9.108548	0.990862	3.517257	-0.012846	-0.059113	0.001328	0.294898	0.549773	0.151750	-0.766652
54842	-9.108843	0.989170	3.516970	-0.012775	-0.057894	0.001335	0.294867	0.549751	0.151770	-0.766676
54843	-9.098849	0.987655	3.485500	0.008783	-0.042912	-0.019256	0.294821	0.549734	0.151780	-0.766705
54844	-9.082200	0.945468	3.490288	-0.023456	-0.017867	-0.037130	0.294777	0.549719	0.151833	-0.766722
54845	-9.084839	0.975340	3.496008	-0.008372	-0.044769	-0.029764	0.294719	0.549715	0.151856	-0.766743
54846	-9.091631	0.989077	3.513942	-0.011514	-0.064427	-0.015773	0.294674	0.549709	0.151910	-0.766753
54847	-9.090813	0.984032	3.527008	-0.024335	-0.069198	-0.012402	0.294578	0.549740	0.151937	-0.766763
54848	-9.085025	1.016769	3.486500	0.025190	-0.076367	-0.028991	0.294500	0.549765	0.151990	-0.766764
54849	-9.110976	0.941955	3.503607	-0.027200	-0.020869	-0.005993	0.294428	0.549787	0.152039	-0.766766
54850	-9.087109	0.961185	3.503564	-0.020834	-0.044476	-0.026372	0.294380	0.549812	0.152094	-0.766756
54851	-9.094193	0.975030	3.520789	-0.023965	-0.064138	-0.012366	0.294333	0.549835	0.152138	-0.766749
54852	-9.071849	0.997260	3.506476	-0.004697	-0.081764	-0.036101	0.294286	0.549861	0.152193	-0.766737
54853	-9.111635	0.952574	3.470850	0.004297	-0.017070	-0.015964	0.294230	0.549886	0.152226	-0.766735
54854	-9.099442	0.975111	3.488036	0.002132	-0.048341	-0.019080	0.294189	0.549892	0.152200	-0.766751
54855	-9.090584	0.952150	3.497011	-0.020427	-0.038192	-0.026344	0.294163	0.549890	0.152254	-0.766751
54856	-9.116352	0.958359	3.515592	-0.024520	-0.046227	0.004796	0.294148	0.549873	0.152240	-0.766773
54857	-9.093465	0.981595	3.502452	-0.005253	-0.063821	-0.018929	0.294129	0.549864	0.152224	-0.766789
54858	-9.094548	0.953897	3.467077	0.005653	-0.022382	-0.033075	0.294097	0.549840	0.152216	-0.766820
54859	-9.066182	0.995063	3.532159	-0.024623	-0.098206	-0.032519	0.294080	0.549808	0.152205	-0.766852
54860	-9.129017	0.951110	3.455280	0.022159	-0.003821	-0.005445	0.294073	0.549797	0.152234	-0.766857
54861	-9.094506	0.976282	3.501233	-0.004882	-0.058791	-0.018897	0.294051	0.549776	0.152233	-0.766880
54862	-9.105974	0.947950	3.496981	-0.015459	-0.031017	-0.012429	0.294007	0.549750	0.152243	-0.766914
54863	-9.106312	0.946166	3.496586	-0.015388	-0.029800	-0.012426	0.293982	0.549735	0.152273	-0.766928
54864	-9.083586	0.968748	3.483274	0.003921	-0.047404	-0.036137	0.293937	0.549722	0.152279	-0.766953
54865	-9.107881	0.972005	3.516102	-0.013055	-0.061413	-0.001606	0.293892	0.549721	0.152299	-0.766967
54866	-9.092632	0.933013	3.506433	-0.032377	-0.030426	-0.022918	0.293845	0.549717	0.152309	-0.766986
54867	-9.077176	1.000730	3.532209	-0.014160	-0.103074	-0.021759	0.293796	0.549729	0.152337	-0.766991
54868	-9.107220	0.934822	3.506861	-0.027830	-0.029536	-0.009026	0.293760	0.549738	0.152355	-0.766995
54869	-9.104502	0.978631	3.514257	-0.007379	-0.069630	-0.004794	0.293711	0.549748	0.152369	-0.767004
54870	-9.104122	0.947818	3.492911	-0.009431	-0.034224	-0.015619	0.293681	0.549724	0.152362	-0.767033
54871	-9.118583	0.980868	3.515929	-0.002830	-0.068738	0.009108	0.293658	0.549694	0.152371	-0.767062
54872	-9.084027	0.950454	3.506306	-0.021198	-0.049459	-0.029324	0.293642	0.549683	0.152365	-0.767077
54873	-9.087313	0.954772	3.477407	0.004729	-0.036163	-0.036089	0.293620	0.549655	0.152360	-0.767107
54874	-9.107424	0.974523	3.498236	0.006003	-0.057383	-0.008138	0.293594	0.549648	0.152364	-0.767122
54875	-9.103935	0.938266	3.505568	-0.021864	-0.034046	-0.012211	0.293539	0.549637	0.152358	-0.767151
54876	-9.104218	0.936803	3.505224	-0.021791	-0.032808	-0.012206	0.293511	0.549614	0.152354	-0.767179
54877	-9.119362	0.943554	3.493287	-0.004397	-0.027127	-0.001706	0.293479	0.549585	0.152323	-0.767218
54878	-9.084484	0.964134	3.463801	0.023444	-0.037191	-0.042663	0.293432	0.549554	0.152310	-0.767261
54879	-9.092063	0.956858	3.523319	-0.023772	-0.061640	-0.015208	0.293403	0.549535	0.152313	-0.767285
54880	-9.101870	0.976634	3.512930	-0.001085	-0.069170	-0.007906	0.293341	0.549534	0.152313	-0.767309
54881	-9.092824	0.953444	3.522282	-0.023657	-0.059112	-0.015192	0.293295	0.549513	0.152331	-0.767339
54882	-9.110588	0.991538	3.516329	0.008778	-0.081569	0.002800	0.293242	0.549505	0.152351	-0.767361
54883	-9.095185	0.952384	3.506845	-0.010659	-0.050630	-0.018572	0.293187	0.549498	0.152368	-0.767383
54884	-9.064174	0.982596	3.523662	-0.011832	-0.093625	-0.038639	0.293122	0.549516	0.152416	-0.767386
54885	-9.101160	0.905335	3.481903	-0.017985	-0.000792	-0.026265	0.293048	0.549523	0.152453	-0.767402
54886	-9.095563	0.943260	3.517951	-0.023326	-0.052937	-0.015156	0.293007	0.549522	0.152476	-0.767413
54887	-9.111662	0.923232	3.470209	0.004822	-0.007143	-0.018964	0.292968	0.549532	0.152462	-0.767424
54888	-9.097880	0.943495	3.502253	-0.010176	-0.044503	-0.018541	0.292924	0.549516	0.152433	-0.767458
54889	-9.117021	0.934288	3.502614	-0.011078	-0.031530	-0.001462	0.292900	0.549490	0.152392	-0.767494
54890	-9.084578	0.936315	3.499895	-0.014421	-0.040406	-0.032418	0.292875	0.549451	0.152367	-0.767536
54891	-9.094171	0.956456	3.490030	0.008281	-0.047964	-0.025109	0.292837	0.549431	0.152348	-0.767569
54892	-9.096800	0.936194	3.516638	-0.022794	-0.045536	-0.015117	0.292805	0.549394	0.152341	-0.767609
54893	-9.118428	0.958577	3.523387	-0.008583	-0.060703	0.009486	0.292763	0.549377	0.152329	-0.767640
54894	-9.091673	0.946978	3.518315	-0.017246	-0.056329	-0.018283	0.292733	0.549355	0.152306	-0.767671
54895	-9.078421	0.940685	3.515583	-0.021559	-0.053546	-0.032165	0.292697	0.549348	0.152287	-0.767694
54896	-9.088284	0.960677	3.505097	0.001175	-0.061094	-0.024850	0.292649	0.549346	0.152291	-0.767713
54897	-9.100761	0.961458	3.520958	-0.007245	-0.067390	-0.007546	0.292600	0.549354	0.152310	-0.767722
54898	-9.093912	0.914385	3.480603	-0.006159	-0.011243	-0.032617	0.292559	0.549350	0.152353	-0.767732
54899	-9.112845	0.931085	3.515167	-0.017778	-0.038445	-0.001190	0.292532	0.549358	0.152354	-0.767736
54900	-9.113236	0.980961	3.494239	0.028568	-0.066480	-0.003618	0.292500	0.549352	0.152323	-0.767759
54901	-9.088070	0.920931	3.494909	-0.013516	-0.026845	-0.032370	0.292464	0.549332	0.152361	-0.767780
54902	-9.080789	0.956421	3.545955	-0.031706	-0.084991	-0.017738	0.292415	0.549301	0.152345	-0.767823
54903	-9.099594	0.890860	3.490398	-0.024063	0.002165	-0.026037	0.292371	0.549302	0.152335	-0.767842
54904	-9.113330	0.894937	3.492460	-0.019585	0.001860	-0.012147	0.292361	0.549277	0.152309	-0.767869
54905	-9.112904	0.920948	3.527341	-0.030278	-0.037052	0.002250	0.292361	0.549267	0.152260	-0.767886
54906	-9.100572	0.995636	3.525169	0.013922	-0.097654	-0.003060	0.292355	0.549248	0.152217	-0.767910
54907	-9.100793	0.994545	3.524906	0.014001	-0.096391	-0.003048	0.292303	0.549232	0.152219	-0.767940
54908	-9.090652	0.942053	3.513642	-0.010810	-0.052303	-0.021352	0.292231	0.549227	0.152231	-0.767969
54909	-9.098137	0.929191	3.496674	-0.003172	-0.031790	-0.021609	0.292136	0.549225	0.152245	-0.768004
54910	-9.074286	0.948721	3.497229	0.003260	-0.055573	-0.041800	0.292015	0.549247	0.152244	-0.768034
54911	-9.111438	0.927153	3.511153	-0.011534	-0.036904	-0.004292	0.291908	0.549272	0.152268	-0.768053
54912	-9.093666	0.906402	3.474482	0.000212	-0.007292	-0.035761	0.291813	0.549283	0.152306	-0.768073
54913	-9.058335	0.928329	3.534223	-0.039623	-0.068472	-0.045410	0.291713	0.549284	0.152327	-0.768106
54914	-9.075615	0.936304	3.506776	-0.009366	-0.056678	-0.038352	0.291590	0.549315	0.152369	-0.768123
54915	-9.112930	0.913951	3.520417	-0.024133	-0.038009	-0.000852	0.291436	0.549341	0.152414	-0.768153
54916	-9.096338	0.921974	3.504238	-0.010175	-0.042506	-0.021304	0.291286	0.549365	0.152436	-0.768189
54917	-9.107908	0.892463	3.499212	-0.020760	-0.014798	-0.015018	0.291186	0.549365	0.152459	-0.768222
54918	-9.097210	0.943604	3.537241	-0.020647	-0.080224	-0.006830	0.291072	0.549368	0.152474	-0.768260
54919	-9.099518	0.866727	3.507172	-0.043224	-0.003617	-0.022344	0.291001	0.549400	0.152484	-0.768262
54920	-9.078362	0.919026	3.513928	-0.021680	-0.055459	-0.034886	0.290941	0.549401	0.152474	-0.768286
54921	-9.100783	0.914459	3.484969	0.003240	-0.030421	-0.024707	0.290895	0.549401	0.152491	-0.768300
54922	-9.110594	0.883385	3.494522	-0.020278	-0.008684	-0.015010	0.290862	0.549408	0.152487	-0.768308
54923	-9.105139	0.922498	3.530864	-0.025518	-0.060813	-0.003650	0.290852	0.549392	0.152464	-0.768328
54924	-9.100259	0.908440	3.497588	-0.009378	-0.032706	-0.021266	0.290832	0.549380	0.152439	-0.768349
54925	-9.093482	0.918276	3.513713	-0.016848	-0.050711	-0.020958	0.290817	0.549351	0.152410	-0.768382
54926	-9.082598	0.893338	3.537644	-0.052343	-0.046763	-0.024856	0.290816	0.549352	0.152417	-0.768380
54927	-9.113251	0.958874	3.492869	0.028662	-0.065725	-0.006272	0.290798	0.549337	0.152385	-0.768404
54928	-9.083762	0.915776	3.481372	0.004827	-0.033487	-0.041700	0.290779	0.549337	0.152375	-0.768413
54929	-9.093115	0.911709	3.526090	-0.029427	-0.051848	-0.017499	0.290771	0.549329	0.152385	-0.768419
54930	-9.110987	0.899650	3.539955	-0.043188	-0.044868	0.002956	0.290772	0.549348	0.152386	-0.768405
54931	-9.095581	0.912406	3.509807	-0.016323	-0.043345	-0.020922	0.290758	0.549357	0.152399	-0.768401
54932	-9.105725	0.932513	3.498775	0.006455	-0.050853	-0.013575	0.290742	0.549372	0.152403	-0.768396
54933	-9.108625	0.912757	3.524398	-0.024615	-0.048393	-0.003578	0.290726	0.549390	0.152390	-0.768392
54934	-9.095613	0.906790	3.520912	-0.028895	-0.045696	-0.017467	0.290721	0.549407	0.152401	-0.768379
54935	-9.118050	0.903039	3.491572	-0.003965	-0.020620	-0.007334	0.290733	0.549424	0.152389	-0.768365
54936	-9.103150	0.921491	3.537526	-0.031855	-0.064015	-0.003229	0.290746	0.549434	0.152370	-0.768357
54937	-9.094485	0.923968	3.491355	0.002550	-0.043199	-0.027440	0.290764	0.549440	0.152361	-0.768348
54938	-9.104194	0.893747	3.500856	-0.021014	-0.021414	-0.017780	0.290777	0.549452	0.152355	-0.768336
54939	-9.127745	0.919465	3.492374	0.006132	-0.030418	0.003466	0.290789	0.549456	0.152345	-0.768330
54940	-9.095585	0.922331	3.488922	0.002791	-0.039486	-0.027425	0.290818	0.549456	0.152326	-0.768323
54941	-9.101077	0.935134	3.521105	-0.013155	-0.065035	-0.009736	0.290842	0.549467	0.152317	-0.768307
54942	-9.101530	0.934643	3.520064	-0.013049	-0.063805	-0.009728	0.290849	0.549488	0.152310	-0.768291
54943	-9.102217	0.907371	3.484125	-0.002302	-0.022526	-0.024312	0.290882	0.549492	0.152321	-0.768274
54944	-9.099611	0.901799	3.511854	-0.027992	-0.033354	-0.017414	0.290910	0.549513	0.152276	-0.768257
54945	-9.112307	0.954998	3.507331	0.009922	-0.068855	-0.002351	0.290943	0.549512	0.152265	-0.768248
54946	-9.120681	0.895485	3.496383	-0.015834	-0.013091	-0.003865	0.290946	0.549518	0.152258	-0.768243
54947	-9.089983	0.900812	3.478747	-0.006262	-0.016232	-0.038199	0.290982	0.549496	0.152262	-0.768244
54948	-9.098224	0.945466	3.517339	-0.007068	-0.069846	-0.012773	0.291004	0.549513	0.152259	-0.768224
54949	-9.102799	0.901955	3.493759	-0.014596	-0.021312	-0.020846	0.291017	0.549521	0.152273	-0.768211
54950	-9.099145	0.944265	3.515278	-0.006889	-0.067359	-0.012755	0.291041	0.549545	0.152249	-0.768190
54951	-9.087674	0.941373	3.497213	0.001691	-0.058623	-0.030097	0.291039	0.549585	0.152263	-0.768159
54952	-9.114084	0.921031	3.480000	0.008349	-0.026274	-0.013480	0.291029	0.549586	0.152289	-0.768157
54953	-9.098115	0.909388	3.505241	-0.021758	-0.035642	-0.020463	0.291028	0.549604	0.152304	-0.768142
54954	-9.091851	0.918940	3.520317	-0.029188	-0.053740	-0.020083	0.291016	0.549618	0.152341	-0.768129
54955	-9.085819	0.901791	3.500314	-0.025999	-0.031794	-0.034352	0.291015	0.549648	0.152369	-0.768102
54956	-9.102855	0.937945	3.507355	-0.006294	-0.059941	-0.012707	0.290994	0.549690	0.152362	-0.768082
54957	-9.114285	0.910091	3.501891	-0.016994	-0.032173	-0.006548	0.290995	0.549716	0.152382	-0.768058
54958	-9.114829	0.909185	3.500710	-0.016920	-0.030951	-0.006544	0.291001	0.549727	0.152384	-0.768048
54959	-9.103173	0.906058	3.483139	-0.008303	-0.022276	-0.023899	0.291008	0.549733	0.152380	-0.768042
54960	-9.110259	0.921102	3.501001	-0.011291	-0.041784	-0.009607	0.291007	0.549730	0.152380	-0.768044
54961	-9.091769	0.928618	3.499765	-0.010212	-0.052384	-0.026569	0.291004	0.549744	0.152383	-0.768035
54962	-9.099104	0.943324	3.517101	-0.013196	-0.071932	-0.012269	0.290972	0.549774	0.152410	-0.768020
54963	-9.087839	0.939280	3.498759	-0.004616	-0.063258	-0.029623	0.290922	0.549814	0.152459	-0.768001
54964	-9.111600	0.912683	3.509542	-0.023737	-0.042954	-0.006122	0.290868	0.549855	0.152519	-0.767980
54965	-9.115515	0.916309	3.478733	0.002148	-0.029704	-0.013048	0.290839	0.549918	0.152562	-0.767937
54966	-9.105306	0.890971	3.501122	-0.033298	-0.025855	-0.016948	0.290802	0.549951	0.152592	-0.767922
54967	-9.096778	0.919291	3.489196	-0.009483	-0.045163	-0.026533	0.290767	0.549982	0.152600	-0.767911
54968	-9.105793	0.936343	3.491771	0.000393	-0.058617	-0.015686	0.290717	0.550028	0.152643	-0.767889
54969	-9.103719	0.902331	3.483973	-0.014656	-0.029437	-0.023465	0.290687	0.550028	0.152707	-0.767887
54970	-9.108064	0.884396	3.495611	-0.032833	-0.021016	-0.016935	0.290676	0.550006	0.152720	-0.767905
54971	-9.119590	0.933673	3.505369	-0.007774	-0.062468	0.001706	0.290651	0.550030	0.152731	-0.767895
54972	-9.113444	0.916254	3.485523	-0.004587	-0.040541	-0.012606	0.290615	0.550038	0.152779	-0.767893
54973	-9.105823	0.896071	3.480087	-0.014307	-0.024631	-0.023451	0.290607	0.550050	0.152808	-0.767882
54974	-9.097200	0.924219	3.468528	0.009423	-0.043950	-0.033019	0.290590	0.550064	0.152853	-0.767869
54975	-9.113896	0.908927	3.496125	-0.017194	-0.042882	-0.009117	0.290562	0.550093	0.152870	-0.767856
54976	-9.113237	0.905011	3.508747	-0.029970	-0.047705	-0.005635	0.290538	0.550140	0.152898	-0.767825
54977	-9.084579	0.939122	3.510437	-0.018097	-0.084953	-0.028662	0.290508	0.550189	0.152943	-0.767792
54978	-9.096123	0.883875	3.469497	-0.018177	-0.017152	-0.037337	0.290482	0.550236	0.152995	-0.767758
54979	-9.106693	0.903389	3.457533	0.004661	-0.024576	-0.029954	0.290447	0.550270	0.153043	-0.767738
54980	-9.138464	0.895618	3.472944	-0.004752	-0.018854	0.004370	0.290436	0.550284	0.153079	-0.767725
54981	-9.104922	0.868626	3.448907	-0.010371	0.005829	-0.037773	0.290447	0.550274	0.153073	-0.767729
54982	-9.114886	0.915740	3.473464	0.001846	-0.041588	-0.015599	0.290468	0.550249	0.153065	-0.767741
54983	-9.115020	0.915174	3.473261	0.002001	-0.040369	-0.015594	0.290495	0.550229	0.153045	-0.767749
54984	-9.081321	0.915443	3.484654	-0.014255	-0.055730	-0.042942	0.290538	0.550216	0.153059	-0.767739
54985	-9.084819	0.946668	3.489696	0.000976	-0.082449	-0.035096	0.290531	0.550271	0.153077	-0.767698
54986	-9.119062	0.894173	3.496371	-0.029008	-0.035554	-0.005581	0.290535	0.550324	0.153096	-0.767655
54987	-9.115024	0.957805	3.476088	0.022885	-0.076800	-0.010758	0.290538	0.550368	0.153114	-0.767619
54988	-9.110002	0.919282	3.496784	-0.018008	-0.059696	-0.011625	0.290508	0.550401	0.153150	-0.767600
54989	-9.100112	0.917805	3.464076	0.003433	-0.045021	-0.032494	0.290472	0.550437	0.153219	-0.767573
54990	-9.115411	0.872930	3.470753	-0.025556	-0.009959	-0.019930	0.290468	0.550461	0.153250	-0.767552
54991	-9.104030	0.896096	3.487722	-0.027514	-0.041322	-0.022483	0.290454	0.550482	0.153262	-0.767539
54992	-9.119552	0.902914	3.474489	-0.010118	-0.035429	-0.012065	0.290452	0.550499	0.153249	-0.767531
54993	-9.113034	0.886512	3.455092	-0.006960	-0.013561	-0.026436	0.290489	0.550492	0.153250	-0.767522
54994	-9.113348	0.912697	3.489782	-0.017357	-0.052422	-0.011582	0.290511	0.550460	0.153227	-0.767541
54995	-9.105100	0.893714	3.485541	-0.027054	-0.036626	-0.022463	0.290533	0.550434	0.153210	-0.767555
54996	-9.112063	0.909046	3.504054	-0.030049	-0.056130	-0.008076	0.290562	0.550412	0.153194	-0.767563
54997	-9.109671	0.927073	3.477371	0.001168	-0.056134	-0.018070	0.290561	0.550375	0.153193	-0.767589
54998	-9.108341	0.923376	3.491776	-0.011583	-0.060942	-0.014568	0.290563	0.550343	0.153175	-0.767615
54999	-9.113664	0.908603	3.490026	-0.016922	-0.046427	-0.011551	0.290550	0.550286	0.153184	-0.767659
55000	-9.089541	0.929140	3.492039	-0.010446	-0.070460	-0.031464	0.290540	0.550248	0.153189	-0.767689
55001	-9.120482	0.894758	3.474157	-0.009238	-0.024719	-0.012031	0.290519	0.550199	0.153198	-0.767731
55002	-9.088397	0.923605	3.506442	-0.023095	-0.074060	-0.027948	0.290509	0.550187	0.153199	-0.767742
55003	-9.114008	0.876339	3.455118	-0.006017	-0.001574	-0.026426	0.290472	0.550167	0.153182	-0.767774
55004	-9.110549	0.917994	3.477480	0.001799	-0.047595	-0.018025	0.290462	0.550149	0.153176	-0.767792
55005	-9.102646	0.924918	3.507961	-0.018514	-0.071705	-0.014016	0.290426	0.550123	0.153166	-0.767826
55006	-9.128510	0.903881	3.491524	-0.011993	-0.039281	0.002390	0.290399	0.550113	0.153204	-0.767836
55007	-9.109724	0.884142	3.455951	-0.000301	-0.010090	-0.029422	0.290387	0.550081	0.153216	-0.767862
55008	-9.115385	0.896302	3.488712	-0.016144	-0.035600	-0.011505	0.290385	0.550065	0.153188	-0.767879
55009	-9.114002	0.893095	3.503113	-0.028999	-0.040412	-0.007996	0.290427	0.550023	0.153167	-0.767898
55010	-9.110105	0.908828	3.490990	-0.010619	-0.046397	-0.014487	0.290442	0.549994	0.153130	-0.767920
55011	-9.131770	0.905154	3.462763	0.014251	-0.021188	-0.004599	0.290464	0.549956	0.153099	-0.767945
55012	-9.108539	0.905373	3.505931	-0.023249	-0.050004	-0.010969	0.290499	0.549904	0.153055	-0.767978
55013	-9.106961	0.902628	3.520712	-0.036018	-0.054800	-0.007454	0.290551	0.549867	0.153010	-0.767994
55014	-9.111087	0.910613	3.478012	0.002683	-0.035499	-0.017974	0.290597	0.549830	0.152973	-0.768010
55015	-9.108012	0.905259	3.507328	-0.022989	-0.046411	-0.010951	0.290673	0.549761	0.152937	-0.768038
55016	-9.114258	0.894510	3.492114	-0.015445	-0.025869	-0.011473	0.290728	0.549688	0.152868	-0.768083
55017	-9.104669	0.924400	3.482940	0.008292	-0.045166	-0.020942	0.290800	0.549619	0.152813	-0.768116
55018	-9.111804	0.892371	3.509010	-0.028225	-0.029453	-0.007955	0.290879	0.549530	0.152733	-0.768166
55019	-9.107286	0.909089	3.498270	-0.009842	-0.035498	-0.014441	0.290967	0.549443	0.152660	-0.768209
55020	-9.110453	0.893375	3.512261	-0.028025	-0.027041	-0.007947	0.291042	0.549348	0.152584	-0.768264
55021	-9.096768	0.939590	3.491348	0.014087	-0.053558	-0.023895	0.291107	0.549248	0.152505	-0.768326
55022	-9.081121	0.932172	3.504972	-0.003125	-0.057052	-0.034279	0.291178	0.549169	0.152447	-0.768368
55023	-9.112884	0.902155	3.473902	0.010849	-0.005216	-0.018486	0.291246	0.549096	0.152377	-0.768408
55024	-9.073254	0.916917	3.488773	0.000068	-0.033992	-0.048720	0.291319	0.549030	0.152319	-0.768439
55025	-9.091898	0.935335	3.524928	-0.011396	-0.060755	-0.016834	0.291368	0.548977	0.152248	-0.768472
55026	-9.083979	0.967439	3.500925	0.025275	-0.074028	-0.029796	0.291381	0.548925	0.152225	-0.768509
55027	-9.110529	0.925441	3.526186	-0.012225	-0.046388	0.000052	0.291382	0.548889	0.152240	-0.768531
55028	-9.079649	0.930388	3.509257	-0.002632	-0.049817	-0.034239	0.291369	0.548855	0.152239	-0.768561
55029	-9.091856	0.904867	3.490668	-0.000529	-0.015994	-0.031832	0.291363	0.548849	0.152236	-0.768568
55030	-9.082566	0.909616	3.535095	-0.033677	-0.046184	-0.024223	0.291374	0.548846	0.152219	-0.768569
55031	-9.114404	0.926808	3.495966	0.013872	-0.029518	-0.006972	0.291374	0.548853	0.152224	-0.768563
55032	-9.098136	0.915596	3.522079	-0.016160	-0.039086	-0.013828	0.291374	0.548807	0.152208	-0.768599
55033	-9.098166	0.914754	3.522221	-0.016049	-0.037873	-0.013823	0.291374	0.548782	0.152181	-0.768622
55034	-9.077982	0.920070	3.536120	-0.027774	-0.054713	-0.027153	0.291384	0.548765	0.152155	-0.768636
55035	-9.105116	0.902791	3.505542	-0.008320	-0.016103	-0.014388	0.291389	0.548748	0.152123	-0.768653
55036	-9.106927	0.931645	3.525793	-0.005896	-0.048807	-0.002851	0.291408	0.548741	0.152105	-0.768654
55037	-9.084465	0.955760	3.512750	0.013501	-0.066823	-0.026179	0.291408	0.548727	0.152090	-0.768667
55038	-9.099048	0.911349	3.520824	-0.015528	-0.031814	-0.013801	0.291426	0.548695	0.152133	-0.768675
55039	-9.096357	0.878307	3.513832	-0.030712	-0.002748	-0.021814	0.291419	0.548723	0.152116	-0.768661
55040	-9.108356	0.928509	3.522929	-0.005469	-0.043940	-0.002828	0.291442	0.548766	0.152098	-0.768624
55041	-9.092415	0.918107	3.548013	-0.035526	-0.053542	-0.009667	0.291463	0.548784	0.152081	-0.768607
55042	-9.070177	0.942491	3.534346	-0.016103	-0.071643	-0.032983	0.291485	0.548799	0.152083	-0.768588
55043	-9.084242	0.947010	3.535537	-0.011632	-0.071699	-0.019066	0.291504	0.548822	0.152070	-0.768567
55044	-9.105676	0.892364	3.526648	-0.033299	-0.017355	-0.007307	0.291531	0.548824	0.152078	-0.768553
55045	-9.075159	0.925102	3.544049	-0.034250	-0.060762	-0.026486	0.291575	0.548824	0.152035	-0.768545
55046	-9.102280	0.908498	3.513200	-0.014900	-0.022114	-0.013773	0.291620	0.548824	0.151994	-0.768536
55047	-9.110584	0.927407	3.517453	-0.004956	-0.035439	-0.002793	0.291680	0.548788	0.151913	-0.768555
55048	-9.112437	0.882437	3.509879	-0.025570	0.006860	-0.007905	0.291773	0.548728	0.151868	-0.768571
55049	-9.090854	0.936944	3.519184	-0.003803	-0.045019	-0.019624	0.291877	0.548622	0.151807	-0.768620
55050	-9.085593	0.902835	3.529051	-0.031880	-0.021982	-0.024133	0.291986	0.548531	0.151732	-0.768658
55051	-9.082432	0.922534	3.504125	-0.000650	-0.021953	-0.034137	0.292102	0.548433	0.151646	-0.768701
55052	-9.100347	0.914978	3.506593	-0.001563	-0.008725	-0.017300	0.292233	0.548308	0.151552	-0.768759
55053	-9.097793	0.913753	3.523443	-0.014304	-0.013539	-0.013756	0.292372	0.548187	0.151420	-0.768818
55054	-9.086719	0.894704	3.536332	-0.036897	-0.003763	-0.021200	0.292542	0.548049	0.151257	-0.768884
55055	-9.104295	1.014179	3.547875	0.031771	-0.094502	0.010460	0.292698	0.547931	0.151109	-0.768938
55056	-9.076632	0.957817	3.552132	-0.010481	-0.055770	-0.018961	0.292832	0.547789	0.150999	-0.769010
55057	-9.074049	0.956118	3.569085	-0.023191	-0.060603	-0.015408	0.292931	0.547666	0.150914	-0.769076
55058	-9.064894	0.938380	3.566755	-0.032916	-0.044880	-0.026396	0.293042	0.547578	0.150839	-0.769111
55059	-9.067372	0.971283	3.574171	-0.017556	-0.071470	-0.018306	0.293153	0.547525	0.150775	-0.769119
55060	-9.049700	0.983429	3.559926	-0.003553	-0.076257	-0.038668	0.293244	0.547503	0.150712	-0.769113
55061	-9.065551	0.970538	3.588897	-0.030199	-0.075114	-0.014739	0.293336	0.547491	0.150650	-0.769098
55062	-9.090427	0.999794	3.566513	0.009932	-0.077619	0.003083	0.293382	0.547485	0.150631	-0.769089
55063	-9.073968	0.962545	3.557655	-0.009677	-0.047416	-0.018916	0.293450	0.547453	0.150641	-0.769084
55064	-9.061346	0.909473	3.561025	-0.047576	-0.009955	-0.034463	0.293526	0.547463	0.150607	-0.769054
55065	-9.072878	0.960448	3.570900	-0.022279	-0.051125	-0.015352	0.293601	0.547461	0.150588	-0.769031
55066	-9.091787	0.925654	3.535819	-0.012752	0.002075	-0.013745	0.293678	0.547453	0.150547	-0.769015
55067	-9.066152	0.945973	3.551625	-0.019097	-0.028143	-0.029904	0.293783	0.547439	0.150472	-0.768999
55068	-9.074338	0.965812	3.555826	-0.009139	-0.041479	-0.018888	0.293883	0.547434	0.150397	-0.768980
55069	-9.087903	0.971776	3.557907	-0.004584	-0.041491	-0.004972	0.293969	0.547421	0.150357	-0.768964
55070	-9.078129	0.951174	3.567878	-0.027255	-0.031832	-0.012425	0.294071	0.547391	0.150328	-0.768952
55071	-9.077109	0.973215	3.526945	0.016838	-0.025766	-0.025990	0.294151	0.547368	0.150280	-0.768947
55072	-9.074082	0.968471	3.555755	-0.008786	-0.036652	-0.018869	0.294216	0.547339	0.150212	-0.768956
55073	-9.068738	0.982217	3.557804	-0.003211	-0.048774	-0.021756	0.294270	0.547314	0.150199	-0.768956
55074	-9.074197	0.968668	3.555410	-0.008597	-0.034286	-0.018860	0.294326	0.547320	0.150176	-0.768934
55075	-9.069199	0.982466	3.556561	-0.003133	-0.046392	-0.021744	0.294400	0.547340	0.150153	-0.768896
55076	-9.064247	0.996197	3.557611	0.002430	-0.058456	-0.024625	0.294434	0.547354	0.150126	-0.768879
55077	-9.085058	0.990076	3.542424	0.014344	-0.039139	-0.011384	0.294458	0.547386	0.150137	-0.768845
55078	-9.046407	1.004065	3.554847	0.003697	-0.068164	-0.041408	0.294464	0.547407	0.150115	-0.768832
55079	-9.062951	0.989709	3.582539	-0.022946	-0.067005	-0.017475	0.294477	0.547439	0.150130	-0.768801
55080	-9.066746	0.993901	3.551881	0.002837	-0.053765	-0.024599	0.294446	0.547510	0.150193	-0.768750
55081	-9.058079	0.971007	3.559688	-0.019798	-0.044120	-0.032059	0.294403	0.547554	0.150246	-0.768725
55082	-9.089117	0.984350	3.533594	0.014858	-0.033226	-0.011363	0.294334	0.547604	0.150294	-0.768706
55083	-9.042868	1.004925	3.575831	-0.016136	-0.087648	-0.037108	0.294266	0.547663	0.150349	-0.768679
55084	-9.053867	1.023620	3.563286	0.006703	-0.094901	-0.029628	0.294145	0.547736	0.150428	-0.768658
55085	-9.070451	0.929061	3.575031	-0.056076	-0.024856	-0.019153	0.294031	0.547802	0.150537	-0.768634
55086	-9.094312	0.973226	3.523294	0.015156	-0.028451	-0.011348	0.293893	0.547889	0.150652	-0.768602
55087	-9.072836	0.970246	3.562789	-0.022219	-0.057461	-0.017413	0.293729	0.547980	0.150751	-0.768580
55088	-9.088677	0.923485	3.568265	-0.051298	-0.022342	-0.005228	0.293584	0.548037	0.150838	-0.768578
55089	-9.102513	0.946508	3.527237	-0.002767	-0.017429	-0.004899	0.293456	0.548077	0.150922	-0.768581
55090	-9.095274	0.924867	3.520925	-0.012568	-0.001713	-0.015946	0.293350	0.548120	0.150996	-0.768577
55091	-9.070700	0.941664	3.535349	-0.018885	-0.031899	-0.032010	0.293252	0.548138	0.151025	-0.768596
55092	-9.091821	0.933109	3.519715	-0.006975	-0.012605	-0.018807	0.293169	0.548171	0.151109	-0.768588
55093	-9.055907	1.001260	3.586958	-0.025663	-0.115318	-0.021656	0.293092	0.548236	0.151158	-0.768560
55094	-9.085624	0.984454	3.539235	0.006517	-0.070508	-0.012744	0.292968	0.548340	0.151265	-0.768513
55095	-9.089313	0.935832	3.527596	-0.014172	-0.028248	-0.018081	0.292840	0.548435	0.151352	-0.768477
55096	-9.083367	0.965136	3.499379	0.022605	-0.041573	-0.030946	0.292707	0.548550	0.151466	-0.768423
55097	-9.094613	0.959043	3.540829	-0.011463	-0.059655	-0.006285	0.292583	0.548667	0.151560	-0.768368
55098	-9.111382	0.963383	3.525046	0.005843	-0.053559	0.004055	0.292450	0.548770	0.151684	-0.768320
55099	-9.085905	0.949661	3.517091	-0.002843	-0.050049	-0.023768	0.292265	0.548861	0.151818	-0.768299
55100	-9.111075	0.896478	3.477181	0.001204	0.016365	-0.019533	0.292096	0.548930	0.151954	-0.768288
55101	-9.101337	0.943167	3.527791	-0.011042	-0.054928	-0.006257	0.291904	0.548976	0.152078	-0.768303
55102	-9.117091	0.918968	3.478712	0.016786	-0.008980	-0.011314	0.291647	0.548990	0.152190	-0.768368
55103	-9.069994	0.933856	3.536168	-0.027018	-0.069473	-0.033332	0.291362	0.548998	0.152278	-0.768453
55104	-9.082200	0.877408	3.481369	-0.014564	0.004154	-0.046629	0.291090	0.549025	0.152359	-0.768521
55105	-9.097147	0.877001	3.481492	-0.010041	0.004190	-0.032714	0.290763	0.549086	0.152440	-0.768585
55106	-9.097745	0.896260	3.528514	-0.033066	-0.040454	-0.013712	0.290453	0.549142	0.152445	-0.768662
55107	-9.117994	0.907785	3.471348	0.022914	-0.016192	-0.014149	0.290184	0.549201	0.152431	-0.768724
55108	-9.094722	0.950346	3.520015	0.006324	-0.086296	-0.014721	0.289914	0.549280	0.152490	-0.768758
55109	-9.077976	0.906236	3.522845	-0.026206	-0.062302	-0.033281	0.289614	0.549391	0.152593	-0.768771
55110	-9.077596	0.920125	3.492226	0.005115	-0.062318	-0.043291	0.289339	0.549523	0.152708	-0.768758
55111	-9.098975	0.857972	3.493794	-0.029450	-0.013931	-0.028364	0.289074	0.549691	0.152899	-0.768699
55112	-9.132249	0.894355	3.499217	-0.005125	-0.042742	0.007726	0.288871	0.549826	0.153071	-0.768644
55113	-9.121785	0.911796	3.526928	-0.019858	-0.080244	0.009264	0.288687	0.549999	0.153242	-0.768556
55114	-9.103385	0.887174	3.500708	-0.021230	-0.057474	-0.019328	0.288534	0.550191	0.153421	-0.768440
55115	-9.096880	0.814138	3.406574	0.002567	0.043796	-0.064925	0.288395	0.550394	0.153601	-0.768311
55116	-9.133859	0.812145	3.478855	-0.048269	0.011329	-0.005194	0.288292	0.550578	0.153759	-0.768186
55117	-9.172120	0.837729	3.481848	-0.029404	-0.004189	0.033731	0.288253	0.550750	0.153870	-0.768055
55118	-9.143855	0.917554	3.489103	0.003493	-0.082699	0.016808	0.288203	0.550895	0.153972	-0.767949
55119	-9.095170	0.832292	3.390338	0.013922	0.022015	-0.070586	0.288151	0.551036	0.154036	-0.767855
55120	-9.106524	0.875923	3.425239	0.013555	-0.031025	-0.044006	0.288145	0.551160	0.154141	-0.767747
55121	-9.126827	0.865736	3.421460	0.012621	-0.017697	-0.027270	0.288124	0.551283	0.154204	-0.767655
55122	-9.146882	0.831564	3.473537	-0.045253	-0.015186	0.006688	0.288119	0.551373	0.154282	-0.767576
55123	-9.139274	0.860430	3.460345	-0.021381	-0.034536	-0.002539	0.288165	0.551451	0.154329	-0.767493
55124	-9.141642	0.815095	3.449547	-0.042163	0.007710	-0.008018	0.288275	0.551536	0.154333	-0.767390
55125	-9.113651	0.852499	3.451124	-0.030104	-0.029798	-0.030364	0.288408	0.551616	0.154297	-0.767290
55126	-9.117996	0.862398	3.406020	0.008565	-0.010498	-0.041179	0.288582	0.551675	0.154247	-0.767192
55127	-9.105869	0.886960	3.436931	-0.006143	-0.048012	-0.039577	0.288764	0.551752	0.154183	-0.767080
55128	-9.118849	0.891778	3.451248	-0.014522	-0.053900	-0.022045	0.288906	0.551842	0.154101	-0.766979
55129	-9.124455	0.880384	3.447156	-0.019908	-0.039381	-0.019235	0.289059	0.551904	0.154067	-0.766883
55130	-9.142460	0.870908	3.459694	-0.033742	-0.032009	0.001098	0.289208	0.551966	0.154014	-0.766793
55131	-9.145166	0.926236	3.423125	0.025764	-0.053734	-0.004211	0.289334	0.552018	0.153967	-0.766718
55132	-9.115447	0.960822	3.440257	0.025002	-0.097387	-0.022906	0.289392	0.552043	0.153923	-0.766687
55133	-9.114653	0.957880	3.453541	0.012271	-0.102256	-0.019283	0.289374	0.552056	0.153946	-0.766680
55134	-9.129214	0.888764	3.411557	0.006332	-0.021240	-0.026438	0.289324	0.552053	0.153964	-0.766697
55135	-9.150823	0.835373	3.388935	-0.002521	0.039103	-0.018875	0.289305	0.551988	0.153957	-0.766752
55136	-9.128071	0.835396	3.433065	-0.040010	0.010007	-0.024746	0.289317	0.551909	0.153895	-0.766817
55137	-9.133582	0.848442	3.467662	-0.055691	-0.015283	-0.006388	0.289361	0.551802	0.153793	-0.766898
55138	-9.134938	0.902568	3.435017	0.003777	-0.036983	-0.011683	0.289437	0.551695	0.153666	-0.766971
55139	-9.128971	0.916645	3.439374	0.009370	-0.049100	-0.014466	0.289499	0.551572	0.153601	-0.767050
55140	-9.130701	0.898410	3.468078	-0.021686	-0.046699	-0.004438	0.289581	0.551491	0.153477	-0.767102
55141	-9.105091	0.919118	3.485697	-0.027883	-0.077010	-0.020300	0.289640	0.551439	0.153402	-0.767132
55142	-9.132421	0.904996	3.441065	0.004256	-0.032119	-0.011666	0.289678	0.551416	0.153329	-0.767149
55143	-9.109882	0.906410	3.484111	-0.033119	-0.061284	-0.017500	0.289737	0.551402	0.153280	-0.767146
55144	-9.106149	0.922997	3.471510	-0.014680	-0.067351	-0.023893	0.289811	0.551393	0.153255	-0.767130
55145	-9.092484	0.966889	3.462484	0.014668	-0.100039	-0.035842	0.289884	0.551421	0.153223	-0.767088
55146	-9.109181	1.001327	3.483206	0.021733	-0.133693	-0.009922	0.289908	0.551503	0.153231	-0.767019
55147	-9.132107	0.900882	3.463731	-0.020953	-0.038410	-0.004401	0.289914	0.551630	0.153305	-0.766911
55148	-9.108859	0.895350	3.426818	-0.004010	-0.022956	-0.039484	0.289898	0.551770	0.153408	-0.766795
55149	-9.106899	0.886628	3.465539	-0.042425	-0.039885	-0.028603	0.289911	0.551925	0.153454	-0.766670
55150	-9.128637	0.928259	3.439828	0.003164	-0.055392	-0.013554	0.289902	0.552148	0.153534	-0.766496
55151	-9.099983	0.958185	3.466023	-0.010460	-0.105118	-0.028518	0.289849	0.552422	0.153657	-0.766294
55152	-9.134418	0.949129	3.474629	-0.019809	-0.098829	0.005729	0.289710	0.552710	0.153874	-0.766096
55153	-9.159342	0.893838	3.443455	-0.028845	-0.038433	0.013174	0.289578	0.553031	0.154110	-0.765866
55154	-9.134139	0.902346	3.389423	0.006276	-0.030313	-0.028315	0.289451	0.553359	0.154343	-0.765631
55155	-9.129039	0.928299	3.370049	0.030164	-0.049678	-0.037467	0.289290	0.553680	0.154619	-0.765403
55156	-9.138098	0.862148	3.364783	-0.008891	-0.000273	-0.036706	0.289118	0.554011	0.154889	-0.765175
55157	-9.129398	0.855933	3.338935	-0.000421	0.007984	-0.054258	0.288969	0.554353	0.155150	-0.764930
55158	-9.132258	0.921829	3.387127	-0.002573	-0.077636	-0.029309	0.288840	0.554665	0.155402	-0.764702
55159	-9.146257	0.890320	3.373213	-0.013380	-0.049807	-0.023786	0.288669	0.555028	0.155727	-0.764436
55160	-9.143203	0.821851	3.349935	-0.044112	0.006696	-0.040601	0.288534	0.555438	0.156059	-0.764123
55161	-9.167200	0.860318	3.318228	0.001458	-0.008734	-0.025540	0.288424	0.555823	0.156292	-0.763836
55162	-9.202936	0.829122	3.260471	0.028069	0.049385	-0.014274	0.288321	0.556171	0.156552	-0.763568
55163	-9.192509	0.821844	3.249888	0.023797	0.051637	-0.028201	0.288256	0.556439	0.156712	-0.763364
55164	-9.172842	0.890580	3.344182	-0.015864	-0.064282	-0.008947	0.288203	0.556633	0.156836	-0.763218
55165	-9.195784	0.837109	3.315881	-0.024895	-0.003867	-0.001590	0.288200	0.556803	0.156955	-0.763070
55166	-9.173821	0.906596	3.307638	0.015522	-0.063120	-0.018957	0.288181	0.556934	0.157025	-0.762968
55167	-9.159656	0.847491	3.336683	-0.048266	-0.038133	-0.027637	0.288183	0.557066	0.157089	-0.762857
55168	-9.172839	0.825296	3.300173	-0.033429	0.001717	-0.029431	0.288239	0.557165	0.157108	-0.762760
55169	-9.197283	0.899720	3.282637	0.027596	-0.041291	-0.005917	0.288314	0.557255	0.157098	-0.762668
55170	-9.186394	0.874248	3.319057	-0.020739	-0.043913	-0.006163	0.288389	0.557349	0.157100	-0.762570
55171	-9.156973	0.836452	3.292067	-0.032210	-0.006978	-0.046090	0.288484	0.557456	0.157090	-0.762458
55172	-9.135391	0.884323	3.340240	-0.048748	-0.077061	-0.046098	0.288586	0.557618	0.157089	-0.762302
55173	-9.164474	0.874004	3.275608	-0.003823	-0.026127	-0.041282	0.288682	0.557813	0.157084	-0.762123
55174	-9.159128	0.932126	3.295307	0.009771	-0.085217	-0.034642	0.288779	0.558014	0.157113	-0.761934
55175	-9.206292	0.930837	3.307314	0.004864	-0.079932	0.013512	0.288828	0.558230	0.157191	-0.761741
55176	-9.189881	0.939512	3.301383	0.005951	-0.091022	-0.003130	0.288839	0.558474	0.157315	-0.761532
55177	-9.195406	0.850274	3.263926	-0.022966	-0.001917	-0.018243	0.288853	0.558692	0.157434	-0.761342
55178	-9.186645	0.853034	3.212927	0.011144	0.018428	-0.043115	0.288897	0.558909	0.157530	-0.761146
55179	-9.198257	0.873924	3.197126	0.034026	0.011313	-0.035571	0.288942	0.559071	0.157599	-0.760996
55180	-9.181260	0.904115	3.256926	-0.000760	-0.051606	-0.029137	0.288984	0.559202	0.157647	-0.760874
55181	-9.200278	0.940361	3.260986	0.019157	-0.079157	-0.006731	0.289022	0.559320	0.157736	-0.760754
55182	-9.201961	0.890953	3.263102	-0.014539	-0.043157	-0.008829	0.289016	0.559447	0.157853	-0.760639
55183	-9.233862	0.811056	3.231912	-0.034717	0.043916	0.003836	0.289069	0.559548	0.157889	-0.760537
55184	-9.173804	0.851775	3.232628	-0.025995	-0.005087	-0.048806	0.289150	0.559643	0.157882	-0.760437
55185	-9.204954	0.939885	3.247901	0.019403	-0.074493	-0.006695	0.289234	0.559732	0.157843	-0.760348
55186	-9.195117	0.917103	3.270373	-0.016114	-0.071064	-0.010581	0.289290	0.559800	0.157844	-0.760277
55187	-9.200603	0.951794	3.260042	0.012277	-0.091429	-0.005732	0.289337	0.559851	0.157855	-0.760219
55188	-9.205184	0.865666	3.212721	-0.003908	0.003674	-0.024616	0.289386	0.559892	0.157894	-0.760162
55189	-9.180539	0.834772	3.248603	-0.056773	0.001968	-0.038776	0.289466	0.559937	0.157866	-0.760104
55190	-9.200296	0.877488	3.226423	-0.011187	-0.013339	-0.023666	0.289552	0.559960	0.157839	-0.760060
55191	-9.182983	0.959480	3.268984	0.000634	-0.105094	-0.018659	0.289632	0.560002	0.157786	-0.760010
55192	-9.209644	0.945906	3.221686	0.032697	-0.060206	-0.010298	0.289700	0.560047	0.157759	-0.759956
55193	-9.185852	0.917836	3.243274	-0.007184	-0.055808	-0.028110	0.289746	0.560080	0.157765	-0.759913
55194	-9.179807	0.926052	3.272510	-0.027262	-0.080043	-0.023479	0.289792	0.560134	0.157774	-0.759854
55195	-9.216827	0.836243	3.226243	-0.040030	0.026328	-0.011894	0.289850	0.560194	0.157773	-0.759788
55196	-9.203460	0.880645	3.216525	-0.010745	-0.006321	-0.023658	0.289942	0.560270	0.157716	-0.759708
55197	-9.172404	1.006220	3.250710	0.030355	-0.131911	-0.030343	0.290006	0.560326	0.157695	-0.759647
55198	-9.184144	0.933459	3.235736	-0.001490	-0.063284	-0.030774	0.290022	0.560403	0.157729	-0.759577
55199	-9.190200	0.871080	3.237198	-0.040715	-0.013935	-0.030247	0.290056	0.560457	0.157764	-0.759517
55200	-9.208825	0.907029	3.242399	-0.020707	-0.041305	-0.007782	0.290052	0.560553	0.157810	-0.759438
55201	-9.193172	0.872392	3.217107	-0.027673	-0.005477	-0.033911	0.290066	0.560651	0.157840	-0.759354
55202	-9.193260	0.917563	3.222295	-0.006662	-0.045185	-0.028054	0.290074	0.560761	0.157866	-0.759265
55203	-9.221259	0.923944	3.236428	-0.010476	-0.051995	0.003470	0.290068	0.560893	0.157904	-0.759161
55204	-9.199112	0.945631	3.235211	-0.003819	-0.076462	-0.015821	0.290046	0.561030	0.157977	-0.759053
55205	-9.226985	0.881682	3.191138	-0.005628	0.003273	-0.009732	0.290035	0.561161	0.158070	-0.758942
55206	-9.194844	0.949072	3.272452	-0.036698	-0.105616	-0.007468	0.290005	0.561303	0.158100	-0.758842
55207	-9.225059	0.893257	3.185245	-0.000032	-0.007661	-0.012415	0.289965	0.561440	0.158181	-0.758739
55208	-9.214386	0.844556	3.157422	-0.012613	0.041362	-0.035897	0.289957	0.561526	0.158206	-0.758672
55209	-9.204429	0.916589	3.167851	0.019451	-0.024977	-0.035370	0.289935	0.561590	0.158217	-0.758631
55210	-9.228807	0.893172	3.163049	0.012972	0.001813	-0.016089	0.289922	0.561630	0.158239	-0.758602
55211	-9.222771	0.900672	3.192938	-0.007185	-0.022509	-0.011411	0.289943	0.561629	0.158236	-0.758596
55212	-9.179864	0.928977	3.210380	-0.012394	-0.065339	-0.043603	0.289954	0.561623	0.158198	-0.758603
55213	-9.210947	0.900556	3.161661	0.014021	-0.007064	-0.032687	0.289968	0.561630	0.158163	-0.758601
55214	-9.229471	0.958642	3.232927	-0.001817	-0.086143	0.013122	0.290009	0.561600	0.158088	-0.758623
55215	-9.184804	0.915434	3.208060	-0.017706	-0.048461	-0.040910	0.290023	0.561557	0.158016	-0.758664
55216	-9.225147	0.926454	3.228001	-0.017237	-0.056121	0.004552	0.290046	0.561500	0.157997	-0.758702
55217	-9.188442	0.946325	3.215324	-0.002326	-0.073570	-0.032305	0.290038	0.561478	0.157930	-0.758734
55218	-9.186239	0.985351	3.251800	-0.006928	-0.125336	-0.018998	0.289977	0.561502	0.157978	-0.758730
55219	-9.201187	0.939778	3.257269	-0.036304	-0.090294	-0.007313	0.289912	0.561588	0.158043	-0.758678
55220	-9.203377	0.987607	3.233287	0.010287	-0.117889	-0.008726	0.289792	0.561705	0.158221	-0.758600
55221	-9.188769	0.919559	3.290547	-0.079247	-0.105176	-0.010166	0.289612	0.561856	0.158436	-0.758512
55222	-9.265646	0.860421	3.204750	-0.034772	0.003295	0.029148	0.289450	0.562006	0.158627	-0.758423
55223	-9.218841	0.877180	3.156589	0.001435	-0.001196	-0.029001	0.289295	0.562122	0.158798	-0.758360
55224	-9.199101	0.919104	3.204101	-0.014963	-0.071383	-0.028560	0.289115	0.562270	0.159002	-0.758277
55225	-9.191323	0.874862	3.131607	0.010906	-0.004147	-0.063193	0.288943	0.562417	0.159171	-0.758197
55226	-9.166687	1.042481	3.260939	0.006170	-0.221086	-0.030064	0.288718	0.562601	0.159408	-0.758097
55227	-9.220617	0.906710	3.188311	-0.010549	-0.068607	-0.014607	0.288378	0.562813	0.159798	-0.757987
55228	-9.211733	0.850405	3.156323	-0.023163	-0.019593	-0.038197	0.288031	0.563041	0.160150	-0.757875
55229	-9.201241	0.837898	3.147190	-0.027600	-0.017500	-0.052122	0.287748	0.563263	0.160478	-0.757748
55230	-9.242523	0.863196	3.117840	0.016955	-0.020385	-0.020366	0.287411	0.563488	0.160789	-0.757643
55231	-9.230093	0.890712	3.145801	0.007932	-0.071273	-0.020910	0.287063	0.563717	0.161155	-0.757527
55232	-9.184629	0.964274	3.194828	0.003631	-0.180429	-0.042243	0.286647	0.563995	0.161607	-0.757381
55233	-9.227354	0.998464	3.268768	-0.026123	-0.253105	0.024033	0.286107	0.564365	0.162210	-0.757181
55234	-9.279013	0.671150	3.065814	-0.059973	0.113117	-0.018132	0.285535	0.564770	0.162918	-0.756943
55235	-9.252925	0.713401	3.031516	-0.016639	0.074036	-0.050010	0.285033	0.565170	0.163452	-0.756718
55236	-9.252961	0.855009	3.032782	0.064740	-0.054603	-0.038287	0.284566	0.565501	0.163953	-0.756538
55237	-9.251755	0.805929	3.044962	0.023582	-0.038013	-0.039548	0.284057	0.565784	0.164486	-0.756402
55238	-9.257535	0.718154	3.109803	-0.079811	-0.018958	-0.020761	0.283563	0.566113	0.165058	-0.756217
55239	-9.264985	0.719974	3.026922	-0.015712	0.012520	-0.039247	0.283171	0.566416	0.165543	-0.756031
55240	-9.282823	0.624050	3.001288	-0.053271	0.094440	-0.037402	0.282852	0.566722	0.165947	-0.755832
55241	-9.269118	0.677156	2.972223	-0.005453	0.054424	-0.055321	0.282628	0.567026	0.166270	-0.755617
55242	-9.252638	0.809527	3.032698	0.020344	-0.097424	-0.042632	0.282403	0.567308	0.166535	-0.755431
55243	-9.271335	0.724364	2.964963	0.021260	0.002633	-0.051904	0.282134	0.567589	0.166938	-0.755231
55244	-9.216805	0.598171	2.990907	-0.089888	0.064841	-0.104931	0.281901	0.567902	0.167253	-0.755014
55245	-9.273081	0.679093	2.953841	-0.007036	0.026412	-0.056888	0.281753	0.568294	0.167419	-0.754737
55246	-9.278924	0.871655	3.084163	0.002956	-0.205555	0.001996	0.281515	0.568667	0.167598	-0.754505
55247	-9.328968	0.732005	3.034891	-0.039458	-0.065208	0.024498	0.281193	0.569069	0.167946	-0.754245
55248	-9.334769	0.778862	2.989104	0.020039	-0.086703	0.019471	0.280879	0.569409	0.168257	-0.754036
55249	-9.323196	0.715776	2.998949	-0.031123	-0.055910	0.006880	0.280539	0.569642	0.168658	-0.753897
55250	-9.303908	0.646998	2.934619	-0.028126	0.019344	-0.035565	0.280203	0.569843	0.169006	-0.753792
55251	-9.257151	0.786849	2.967701	0.019874	-0.131914	-0.060589	0.279828	0.570090	0.169354	-0.753666
55252	-9.318052	0.677020	3.015803	-0.073976	-0.069609	0.004093	0.279416	0.570414	0.169775	-0.753479
55253	-9.318493	0.726287	3.015537	-0.047370	-0.122653	0.007595	0.278953	0.570775	0.170253	-0.753269
55254	-9.273237	0.568749	2.855115	-0.031232	0.066279	-0.093496	0.278430	0.571206	0.170813	-0.753010
55255	-9.291208	0.763641	2.849962	0.088572	-0.097948	-0.065148	0.277947	0.571668	0.171242	-0.752740
55256	-9.300260	0.854153	2.974352	0.043602	-0.254275	-0.014494	0.277350	0.572104	0.171789	-0.752504
55257	-9.316274	0.659374	2.941949	-0.048905	-0.096818	-0.021314	0.276670	0.572529	0.172473	-0.752275
55258	-9.336409	0.612910	2.861874	-0.014200	-0.031514	-0.028349	0.275980	0.572996	0.173189	-0.752008
55259	-9.385320	0.463539	2.808168	-0.056759	0.108763	-0.006066	0.275418	0.573416	0.173749	-0.751765
55260	-9.391953	0.545855	2.798571	-0.001920	0.034312	0.002482	0.274968	0.573733	0.174182	-0.751588
55261	-9.370420	0.468316	2.776259	-0.037399	0.091230	-0.028927	0.274583	0.573954	0.174579	-0.751467
55262	-9.341661	0.507530	2.792349	-0.032490	0.033884	-0.049531	0.274227	0.574109	0.174908	-0.751403
55263	-9.349552	0.534046	2.778169	-0.004194	0.013585	-0.044507	0.273910	0.574251	0.175141	-0.751355
55264	-9.358013	0.601175	2.802056	0.019655	-0.059671	-0.025891	0.273558	0.574354	0.175389	-0.751347
55265	-9.366774	0.550177	2.879297	-0.068233	-0.068191	0.001598	0.273201	0.574449	0.175556	-0.751365
55266	-9.391325	0.674808	2.870127	0.019592	-0.164875	0.029183	0.272845	0.574540	0.175812	-0.751366
55267	-9.389082	0.706185	2.977006	-0.043518	-0.260265	0.058811	0.272451	0.574638	0.176199	-0.751342
55268	-9.424395	0.724023	3.037371	-0.070304	-0.312428	0.110340	0.272027	0.574698	0.176653	-0.751344
55269	-9.423303	0.609066	3.072284	-0.163668	-0.253994	0.112897	0.271584	0.574793	0.177255	-0.751289
55270	-9.455557	0.583978	2.913250	-0.047683	-0.153236	0.097400	0.271102	0.575026	0.177904	-0.751132
55271	-9.410024	0.589529	2.875140	-0.024295	-0.164029	0.043021	0.270604	0.575320	0.178717	-0.750893
55272	-9.360157	0.457303	2.808477	-0.064210	-0.052574	-0.029934	0.270061	0.575765	0.179630	-0.750530
55273	-9.372040	0.466420	2.825100	-0.074236	-0.090992	-0.013707	0.269489	0.576318	0.180593	-0.750079
55274	-9.347557	0.363609	2.713864	-0.061296	0.023713	-0.072579	0.268940	0.576925	0.181620	-0.749562
55275	-9.312661	0.249558	2.569506	-0.032723	0.164596	-0.150283	0.268453	0.577560	0.182580	-0.749014
55276	-9.325403	0.374381	2.559517	0.043355	0.049423	-0.135392	0.268007	0.578216	0.183445	-0.748456
55277	-9.383393	0.272379	2.596484	-0.044990	0.098336	-0.073476	0.267591	0.578843	0.184283	-0.747914
55278	-9.357864	0.391132	2.496442	0.089040	0.035344	-0.120133	0.267109	0.579522	0.184866	-0.747416
55279	-9.381595	0.354551	2.561378	0.011059	0.012508	-0.081276	0.266589	0.580162	0.185459	-0.746959
55280	-9.374216	0.287136	2.502331	0.005606	0.080741	-0.106326	0.266147	0.580753	0.185953	-0.746534
55281	-9.404579	0.241295	2.478707	-0.006712	0.120977	-0.084707	0.265777	0.581272	0.186366	-0.746159
55282	-9.399456	0.322403	2.480733	0.031143	0.041414	-0.086175	0.265467	0.581773	0.186631	-0.745813
55283	-9.405751	0.360540	2.490484	0.039448	-0.004388	-0.076206	0.265178	0.582222	0.186891	-0.745499
55284	-9.406137	0.316287	2.441571	0.043869	0.049591	-0.089914	0.264931	0.582596	0.187093	-0.745245
55285	-9.410219	0.248597	2.449521	-0.008528	0.092681	-0.086151	0.264765	0.582925	0.187186	-0.745023
55286	-9.381902	0.312988	2.380459	0.073284	0.071642	-0.128984	0.264679	0.583152	0.187177	-0.744878
55287	-9.411468	0.315646	2.406400	0.056581	0.058983	-0.093663	0.264710	0.583244	0.187112	-0.744812
55288	-9.417016	0.405215	2.437110	0.085841	-0.027324	-0.077402	0.264788	0.583232	0.186972	-0.744828
55289	-9.425437	0.359689	2.533543	-0.014900	-0.042103	-0.046159	0.264867	0.583172	0.186887	-0.744869
55290	-9.458282	0.295684	2.522463	-0.038155	0.024617	-0.019460	0.264995	0.583102	0.186744	-0.744913
55291	-9.450205	0.318562	2.573636	-0.065481	-0.019191	-0.013361	0.265197	0.583001	0.186510	-0.744979
55292	-9.475276	0.440728	2.643695	-0.041602	-0.145984	0.033184	0.265384	0.582901	0.186284	-0.745048
55293	-9.453618	0.411157	2.625815	-0.048808	-0.110554	0.006694	0.265534	0.582799	0.186129	-0.745113
55294	-9.427907	0.402699	2.566870	-0.012137	-0.070173	-0.033559	0.265673	0.582717	0.185989	-0.745162
55295	-9.447527	0.445163	2.546656	0.033509	-0.085215	-0.018249	0.265770	0.582634	0.185883	-0.745219
55296	-9.434460	0.377368	2.565532	-0.023199	-0.041423	-0.028458	0.265837	0.582552	0.185813	-0.745277
55297	-9.444107	0.398182	2.556107	-0.000372	-0.048490	-0.020801	0.265902	0.582472	0.185740	-0.745334
55298	-9.433206	0.383868	2.540284	0.002336	-0.027228	-0.035928	0.265988	0.582394	0.185643	-0.745388
55299	-9.428754	0.396393	2.559716	-0.004915	-0.045477	-0.034724	0.266108	0.582284	0.185495	-0.745469
55300	-9.446256	0.379974	2.603717	-0.044502	-0.050035	-0.007026	0.266224	0.582179	0.185352	-0.745545
55301	-9.445367	0.381927	2.606655	-0.044438	-0.048963	-0.007020	0.266344	0.582067	0.185181	-0.745632
55302	-9.446638	0.437407	2.574904	0.015151	-0.070468	-0.011911	0.266474	0.581954	0.185065	-0.745702
55303	-9.423670	0.467940	2.553735	0.047328	-0.082974	-0.038387	0.266578	0.581822	0.184955	-0.745796
55304	-9.434624	0.418423	2.592669	-0.007917	-0.060175	-0.019554	0.266661	0.581640	0.184888	-0.745924
55305	-9.419463	0.411395	2.610621	-0.025166	-0.064368	-0.029738	0.266732	0.581444	0.184825	-0.746067
55306	-9.408738	0.353005	2.500249	0.027737	0.047331	-0.071168	0.266838	0.581208	0.184723	-0.746239
55307	-9.377336	0.407803	2.501832	0.058414	0.002014	-0.098961	0.266961	0.580925	0.184565	-0.746454
55308	-9.410020	0.439649	2.559934	0.044559	-0.044067	-0.050971	0.267088	0.580576	0.184379	-0.746726
55309	-9.425803	0.419435	2.624396	-0.007777	-0.054857	-0.019523	0.267208	0.580212	0.184185	-0.747014
55310	-9.417034	0.377874	2.685236	-0.074459	-0.050628	-0.013417	0.267299	0.579853	0.183935	-0.747322
55311	-9.407909	0.353174	2.660015	-0.064486	-0.010070	-0.029799	0.267463	0.579476	0.183674	-0.747619
55312	-9.403692	0.406590	2.723649	-0.076086	-0.081224	-0.014697	0.267653	0.579130	0.183428	-0.747880
55313	-9.403602	0.459688	2.711551	-0.029309	-0.108648	-0.015806	0.267800	0.578845	0.183184	-0.748108
55314	-9.393835	0.485748	2.737608	-0.030969	-0.140288	-0.017079	0.267868	0.578613	0.183068	-0.748292
55315	-9.390265	0.439777	2.733327	-0.052118	-0.098433	-0.023451	0.267884	0.578473	0.182999	-0.748411
55316	-9.383382	0.426218	2.629411	0.021790	-0.027408	-0.058607	0.267911	0.578347	0.182941	-0.748513
55317	-9.323777	0.367668	2.606463	-0.004558	0.023522	-0.124495	0.267974	0.578207	0.182855	-0.748619
55318	-9.379187	0.383674	2.613138	0.013211	0.021653	-0.068756	0.268090	0.578040	0.182702	-0.748744
55319	-9.368314	0.463934	2.677178	0.012702	-0.076058	-0.058618	0.268186	0.577840	0.182532	-0.748905
55320	-9.398962	0.455803	2.695482	0.003306	-0.069252	-0.024477	0.268264	0.577636	0.182403	-0.749066
55321	-9.415511	0.435280	2.755639	-0.048942	-0.079911	0.006991	0.268305	0.577472	0.182284	-0.749207
55322	-9.404116	0.418100	2.756329	-0.059057	-0.064716	-0.004432	0.268399	0.577306	0.182138	-0.749337
55323	-9.406807	0.408247	2.743610	-0.051815	-0.044289	-0.005678	0.268528	0.577135	0.181981	-0.749461
55324	-9.393984	0.464801	2.683891	0.028955	-0.052708	-0.031960	0.268648	0.576936	0.181818	-0.749610
55325	-9.408573	0.504598	2.755795	0.003441	-0.117394	0.003446	0.268750	0.576727	0.181667	-0.749771
55326	-9.384358	0.421387	2.759952	-0.050621	-0.053576	-0.022098	0.268809	0.576526	0.181556	-0.749932
55327	-9.366925	0.385987	2.683744	-0.012343	0.019360	-0.061266	0.268941	0.576302	0.181396	-0.750095
55328	-9.367538	0.441448	2.655677	0.047329	-0.001858	-0.066097	0.269116	0.575997	0.181129	-0.750331
55329	-9.344280	0.403574	2.686739	0.001605	0.015375	-0.081461	0.269327	0.575616	0.180801	-0.750627
55330	-9.374986	0.438517	2.748414	-0.012234	-0.030562	-0.033355	0.269577	0.575180	0.180435	-0.750959
55331	-9.375272	0.525350	2.820389	-0.007992	-0.128962	-0.009137	0.269807	0.574718	0.180065	-0.751319
55332	-9.356714	0.318329	2.778308	-0.095823	0.068311	-0.047721	0.270070	0.574276	0.179690	-0.751652
55333	-9.357469	0.420075	2.778928	-0.027758	0.000274	-0.042307	0.270396	0.573806	0.179182	-0.752015
55334	-9.369544	0.478627	2.787446	0.010767	-0.033875	-0.025655	0.270749	0.573298	0.178706	-0.752389
55335	-9.364178	0.477257	2.845183	-0.027514	-0.050902	-0.014356	0.271076	0.572756	0.178146	-0.752816
55336	-9.361101	0.526762	2.882788	-0.018972	-0.096524	-0.004096	0.271403	0.572232	0.177637	-0.753217
55337	-9.363961	0.499676	2.920649	-0.055762	-0.081058	0.008409	0.271696	0.571738	0.177183	-0.753594
55338	-9.327409	0.511366	2.934057	-0.058938	-0.091799	-0.021935	0.271967	0.571293	0.176708	-0.753944
55339	-9.315618	0.544298	2.949755	-0.047742	-0.117307	-0.026882	0.272218	0.570953	0.176359	-0.754194
55340	-9.312782	0.548200	2.957973	-0.047662	-0.116165	-0.026867	0.272414	0.570678	0.176090	-0.754394
55341	-9.302806	0.581252	2.954797	-0.023570	-0.135608	-0.035574	0.272574	0.570454	0.175901	-0.754549
55342	-9.295479	0.521153	2.858641	0.016189	-0.030052	-0.073684	0.272670	0.570294	0.175802	-0.754658
55343	-9.303631	0.534651	2.894557	0.000796	-0.055099	-0.054674	0.272786	0.570141	0.175658	-0.754766
55344	-9.318333	0.477630	2.902999	-0.034330	-0.006806	-0.041012	0.272902	0.569963	0.175557	-0.754882
55345	-9.337223	0.517216	2.900010	-0.001446	-0.027660	-0.021849	0.273046	0.569769	0.175370	-0.755019
55346	-9.334993	0.516824	2.920025	-0.014207	-0.032609	-0.018072	0.273219	0.569522	0.175153	-0.755194
55347	-9.330513	0.471476	2.932915	-0.048203	0.003093	-0.020833	0.273423	0.569237	0.174890	-0.755396
55348	-9.347850	0.510880	2.947602	-0.028026	-0.023841	0.002112	0.273653	0.568946	0.174568	-0.755606
55349	-9.317226	0.510036	2.939396	-0.024000	-0.015179	-0.029535	0.273895	0.568615	0.174219	-0.755848
55350	-9.292215	0.541178	2.937808	-0.004415	-0.033785	-0.052171	0.274160	0.568269	0.173843	-0.756098
55351	-9.293141	0.567712	3.010520	-0.039775	-0.084192	-0.028040	0.274431	0.567948	0.173441	-0.756333
55352	-9.313119	0.554263	2.986945	-0.020931	-0.044925	-0.016731	0.274662	0.567622	0.173090	-0.756575
55353	-9.287431	0.579719	3.013273	-0.026807	-0.075733	-0.031798	0.274902	0.567327	0.172776	-0.756780
55354	-9.279278	0.555557	3.000761	-0.029638	-0.041119	-0.044595	0.275165	0.567048	0.172398	-0.756981
55355	-9.250776	0.638472	3.051105	-0.021421	-0.132012	-0.051752	0.275398	0.566803	0.172086	-0.757151
55356	-9.244146	0.653387	3.073167	-0.028519	-0.150152	-0.050406	0.275549	0.566651	0.171874	-0.757257
55357	-9.288193	0.610941	3.054637	-0.029227	-0.091200	-0.016493	0.275675	0.566568	0.171753	-0.757301
55358	-9.300509	0.573760	3.034775	-0.033165	-0.044060	-0.012917	0.275797	0.566508	0.171651	-0.757325
55359	-9.304299	0.562061	3.033160	-0.038638	-0.029627	-0.010464	0.275955	0.566496	0.171538	-0.757302
55360	-9.271553	0.570926	3.034114	-0.041908	-0.040562	-0.040783	0.276174	0.566433	0.171390	-0.757303
55361	-9.309202	0.603118	3.027273	-0.009928	-0.048709	-0.005195	0.276361	0.566383	0.171203	-0.757314
55362	-9.289008	0.574048	3.007961	-0.017188	-0.013596	-0.031964	0.276588	0.566281	0.170986	-0.757356
55363	-9.294888	0.655556	3.025128	0.019801	-0.080293	-0.016298	0.276794	0.566183	0.170751	-0.757407
55364	-9.279088	0.652703	3.041435	0.002543	-0.084555	-0.026439	0.276993	0.566064	0.170553	-0.757468
55365	-9.279618	0.553731	3.011465	-0.032756	0.017186	-0.041020	0.277199	0.565928	0.170366	-0.757536
55366	-9.274343	0.574350	3.003466	-0.014223	0.011153	-0.047249	0.277447	0.565765	0.170075	-0.757633
55367	-9.300770	0.628097	3.048040	-0.009481	-0.041866	-0.005163	0.277734	0.565574	0.169779	-0.757736
55368	-9.270059	0.585817	3.014456	-0.013962	0.013371	-0.047251	0.278090	0.565346	0.169417	-0.757857
55369	-9.272248	0.622393	3.041981	-0.010966	-0.018874	-0.034389	0.278491	0.565077	0.169002	-0.758003
55370	-9.286276	0.615545	3.077685	-0.037650	-0.017221	-0.010430	0.278889	0.564806	0.168557	-0.758158
55371	-9.279295	0.640189	3.073771	-0.019201	-0.023356	-0.016652	0.279277	0.564531	0.168109	-0.758320
55372	-9.246715	0.787846	3.120681	0.028725	-0.162035	-0.023203	0.279622	0.564273	0.167663	-0.758484
55373	-9.245203	0.687302	3.123414	-0.032247	-0.072477	-0.030276	0.279950	0.564042	0.167317	-0.758611
55374	-9.254118	0.758931	3.126834	0.011960	-0.119790	-0.015889	0.280232	0.563840	0.167053	-0.758715
55375	-9.237147	0.713703	3.121885	-0.013633	-0.077445	-0.036480	0.280474	0.563694	0.166834	-0.758782
55376	-9.230924	0.688496	3.104941	-0.016471	-0.042956	-0.049362	0.280683	0.563583	0.166632	-0.758831
55377	-9.249093	0.687797	3.078209	0.008054	-0.017017	-0.040595	0.280911	0.563460	0.166437	-0.758881
55378	-9.235138	0.661202	3.149679	-0.065839	-0.032194	-0.033114	0.281157	0.563361	0.166185	-0.758919
55379	-9.224231	0.608475	3.112200	-0.071662	0.035713	-0.058916	0.281462	0.563260	0.165874	-0.758949
55380	-9.225471	0.752051	3.140101	-0.007712	-0.084836	-0.038851	0.281815	0.563182	0.165556	-0.758945
55381	-9.259840	0.738025	3.155698	-0.022772	-0.064418	-0.002332	0.282212	0.563098	0.165208	-0.758936
55382	-9.266834	0.718262	3.154414	-0.033945	-0.036638	0.002502	0.282616	0.562993	0.164921	-0.758926
55383	-9.241749	0.747065	3.175334	-0.039884	-0.067548	-0.012452	0.283044	0.562912	0.164571	-0.758902
55384	-9.250838	0.778614	3.153103	-0.004201	-0.068199	-0.008524	0.283487	0.562837	0.164288	-0.758854
55385	-9.221826	0.780719	3.139030	-0.000246	-0.059721	-0.040199	0.283916	0.562733	0.163981	-0.758837
55386	-9.224430	0.774525	3.140193	-0.005849	-0.045301	-0.037785	0.284337	0.562617	0.163712	-0.758823
55387	-9.223167	0.741732	3.106746	-0.001621	0.008627	-0.052115	0.284775	0.562502	0.163399	-0.758812
55388	-9.202685	0.802506	3.134403	0.008158	-0.049492	-0.057925	0.285212	0.562366	0.163028	-0.758828
55389	-9.216951	0.836681	3.203549	-0.022782	-0.100512	-0.019613	0.285673	0.562245	0.162705	-0.758814
55390	-9.206963	0.788845	3.151857	-0.015794	-0.026550	-0.049303	0.286094	0.562154	0.162413	-0.758785
55391	-9.204491	0.837466	3.191689	-0.020006	-0.078138	-0.034938	0.286512	0.562102	0.162060	-0.758741
55392	-9.217866	0.897865	3.189444	0.018550	-0.112016	-0.018052	0.286852	0.562041	0.161759	-0.758722
55393	-9.226115	0.879273	3.172782	0.020192	-0.078208	-0.017059	0.287175	0.561967	0.161545	-0.758701
55394	-9.219424	0.850282	3.183140	-0.008250	-0.055910	-0.022389	0.287465	0.561917	0.161335	-0.758673
55395	-9.189819	0.975191	3.249464	0.008680	-0.193338	-0.018540	0.287678	0.561899	0.161155	-0.758644
55396	-9.217377	0.898131	3.221336	-0.012235	-0.106275	-0.007983	0.287816	0.561910	0.161117	-0.758591
55397	-9.188711	0.842870	3.223940	-0.055019	-0.069317	-0.038804	0.287942	0.561923	0.161044	-0.758549
55398	-9.202944	0.849010	3.223963	-0.050537	-0.068756	-0.024855	0.288070	0.561993	0.161005	-0.758457
55399	-9.224960	0.854879	3.149274	0.012276	-0.024484	-0.027602	0.288225	0.562053	0.160923	-0.758371
55400	-9.240366	0.835307	3.219404	-0.052640	-0.040969	0.007812	0.288403	0.562065	0.160809	-0.758319
55401	-9.224486	0.815427	3.139990	-0.008803	0.018546	-0.034386	0.288621	0.562050	0.160671	-0.758276
55402	-9.226495	0.886416	3.212319	-0.022668	-0.072379	-0.003142	0.288869	0.562029	0.160505	-0.758232
55403	-9.236760	0.871139	3.165449	0.004624	-0.026305	-0.009832	0.289130	0.561980	0.160343	-0.758204
55404	-9.212848	0.898301	3.170020	0.011480	-0.051139	-0.028527	0.289399	0.561912	0.160201	-0.758182
55405	-9.225603	0.861379	3.164797	-0.005236	-0.010079	-0.021389	0.289678	0.561846	0.160025	-0.758161
55406	-9.209371	0.856338	3.194083	-0.035112	-0.020422	-0.027681	0.289956	0.561766	0.159836	-0.758154
55407	-9.205960	0.941985	3.270130	-0.043355	-0.124734	0.001249	0.290264	0.561711	0.159637	-0.758119
55408	-9.230072	0.931544	3.224853	-0.011809	-0.079368	0.008475	0.290539	0.561689	0.159516	-0.758055
55409	-9.225391	0.906330	3.205115	-0.014718	-0.044948	-0.004538	0.290835	0.561649	0.159410	-0.757993
55410	-9.202152	0.936081	3.194866	0.004965	-0.063696	-0.027038	0.291132	0.561599	0.159272	-0.757946
55411	-9.206589	0.883909	3.170862	-0.009181	-0.002610	-0.035324	0.291440	0.561564	0.159129	-0.757883
55412	-9.204431	0.974823	3.217402	0.008140	-0.094587	-0.013989	0.291750	0.561519	0.158927	-0.757840
55413	-9.198930	0.947689	3.212528	-0.007468	-0.066135	-0.023186	0.292010	0.561479	0.158778	-0.757800
55414	-9.192300	0.960422	3.244431	-0.027347	-0.090372	-0.017882	0.292271	0.561461	0.158606	-0.757749
55415	-9.207017	0.973913	3.217116	0.002758	-0.077661	-0.011592	0.292482	0.561475	0.158526	-0.757674
55416	-9.217439	0.909434	3.175124	-0.004183	0.002802	-0.021383	0.292728	0.561461	0.158431	-0.757609
55417	-9.211532	0.924279	3.192529	-0.011181	-0.015509	-0.019911	0.292989	0.561406	0.158281	-0.757580
55418	-9.197282	0.926953	3.178297	-0.002816	-0.007659	-0.037682	0.293279	0.561341	0.158086	-0.757557
55419	-9.192605	0.766721	3.135049	-0.069964	0.148361	-0.071360	0.293583	0.561272	0.157787	-0.757552
55420	-9.189937	0.911761	3.163870	-0.005733	0.028030	-0.050746	0.294037	0.561134	0.157319	-0.757576
55421	-9.212285	1.015085	3.231795	0.007780	-0.071259	0.002400	0.294572	0.560988	0.156807	-0.757582
55422	-9.131534	1.201712	3.429114	-0.047887	-0.336692	0.009339	0.294905	0.560902	0.156349	-0.757612
55423	-9.223529	0.951632	3.195355	-0.004751	0.023765	-0.005099	0.295232	0.560827	0.156131	-0.757584
55424	-9.171074	0.878784	3.195763	-0.062461	0.074943	-0.061573	0.295668	0.560763	0.155778	-0.757534
55425	-9.225103	0.958175	3.184473	0.002406	0.045600	-0.006597	0.296158	0.560681	0.155274	-0.757507
55426	-9.199873	0.900716	3.175944	-0.033487	0.101770	-0.039045	0.296619	0.560498	0.154785	-0.757562
55427	-9.158773	0.865760	3.098180	-0.004428	0.175532	-0.106991	0.297169	0.560263	0.154201	-0.757639
55428	-9.163185	1.056005	3.198654	0.034546	-0.010109	-0.050045	0.297763	0.560034	0.153430	-0.757733
55429	-9.114588	0.901798	3.278315	-0.132288	0.071701	-0.085733	0.298314	0.559828	0.152725	-0.757810
55430	-8.879849	1.871318	3.863238	-0.038642	-1.061618	-0.007096	0.298664	0.559884	0.151967	-0.757783
55431	-9.163522	1.269186	3.299699	0.073680	-0.193410	0.006994	0.298629	0.560306	0.152091	-0.757460
55432	-9.229663	0.929692	3.202057	-0.054030	0.141714	-0.000390	0.298544	0.560639	0.151982	-0.757269
55433	-9.211453	1.050204	3.304685	-0.070853	-0.014610	0.029543	0.298573	0.560973	0.151713	-0.757065
55434	-9.248431	1.259045	3.188637	0.145697	-0.102386	0.049076	0.298521	0.561198	0.151481	-0.756965
55435	-9.199414	1.131532	3.189907	0.054000	-0.016769	-0.010550	0.298351	0.561272	0.151382	-0.756997
55436	-9.206833	1.075758	3.150049	0.052565	0.050447	-0.022869	0.298137	0.561242	0.151286	-0.757122
55437	-9.183565	0.899729	3.192838	-0.089881	0.157023	-0.050062	0.297807	0.561228	0.151239	-0.757272
55438	-8.946068	1.236178	3.478367	-0.151329	-0.335261	-0.141906	0.297340	0.561472	0.151132	-0.757296
55439	-9.019211	1.492519	3.456755	0.029258	-0.514819	-0.052718	0.296551	0.562174	0.151354	-0.757040
55440	-9.213939	1.151285	3.163083	0.076100	-0.051120	-0.003572	0.295422	0.563046	0.151799	-0.756744
55441	-9.148138	1.277308	3.267144	0.050239	-0.251711	-0.018391	0.294028	0.563872	0.152187	-0.756594
55442	-9.231743	1.107615	3.162279	0.038058	-0.066898	0.007999	0.292324	0.564742	0.152777	-0.756487
55443	-9.223851	1.138299	3.147510	0.060827	-0.118901	-0.001264	0.290422	0.565646	0.153297	-0.756438
55444	-9.213613	1.139479	3.096179	0.093213	-0.131695	-0.027535	0.288251	0.566685	0.153937	-0.756362
55445	-9.206365	1.014562	3.123687	-0.012088	-0.092708	-0.038488	0.285759	0.567959	0.154725	-0.756191
55446	-9.302074	0.887941	3.041506	-0.018209	0.025540	0.014137	0.282573	0.569825	0.155444	-0.755837
55447	-9.177650	0.923914	2.991904	-0.008643	-0.075679	-0.115887	0.278044	0.572788	0.156093	-0.755143
55448	-8.417957	1.643784	3.809115	-0.426744	-1.370992	-0.538507	0.272281	0.577190	0.157092	-0.753682
55449	-8.367378	4.347818	5.330178	-0.173406	-4.549028	0.015710	0.264194	0.584567	0.162003	-0.749825
55450	-9.460321	3.884839	4.744186	0.088391	-3.920734	0.756220	0.252425	0.594008	0.171880	-0.744241
55451	-10.450012	5.016768	6.762785	-0.888998	-6.247166	2.030024	0.238030	0.605384	0.187354	-0.736037
55452	-13.096154	-0.798462	4.691281	-2.283144	-0.606881	3.917880	0.223809	0.617508	0.203731	-0.726008
55453	-13.819280	-2.281222	6.103310	-4.386612	-0.750380	4.802027	0.210831	0.627576	0.215242	-0.717893
55454	-11.991207	-0.785651	5.199166	-3.264286	-2.037352	2.701763	0.196338	0.638498	0.222328	-0.710171
55455	-10.610566	0.838468	5.168721	-2.801003	-3.730813	1.060003	0.175760	0.653604	0.222769	-0.701629
55456	-12.360798	-0.607596	-1.898238	2.249779	0.864121	2.473028	0.158665	0.668717	0.212593	-0.694584
55457	-11.452699	3.364989	-3.004957	4.819792	-2.237549	1.289949	0.147110	0.679259	0.201708	-0.690130
55458	-9.407992	4.579487	-4.385890	6.353676	-2.735047	-0.820189	0.136988	0.681308	0.194182	-0.692349
55459	-5.162985	5.856568	1.556278	1.376982	-6.309029	-5.156759	0.129555	0.677536	0.190206	-0.698557
55460	-6.621548	-0.841154	-1.764829	1.627463	1.048846	-3.185638	0.130197	0.674318	0.186456	-0.702551
55461	-3.793052	3.903385	1.617812	0.405456	-4.404685	-6.252831	0.137527	0.670866	0.172261	-0.708062
55462	-4.069149	4.695850	0.842223	1.480773	-4.668818	-5.898348	0.157142	0.668159	0.164732	-0.708331
55463	-5.500851	0.873629	-0.840447	1.451415	-0.252919	-4.376609	0.187224	0.665914	0.162722	-0.703582
55464	-6.552121	-3.394713	-1.191136	-0.383499	4.027225	-3.528786	0.223465	0.664074	0.160860	-0.695121
55465	-7.801506	-5.951019	-3.469667	-0.133735	7.822168	-2.952326	0.258344	0.663002	0.153727	-0.685605
55466	-7.521741	-4.946476	-2.658350	-0.628380	6.837871	-3.414324	0.279609	0.662804	0.138441	-0.680694
55467	-16.847717	6.968703	-4.421380	7.019718	0.213241	7.583646	0.289669	0.661227	0.149742	-0.675610
55468	-5.719224	-15.354903	-8.296061	-2.357316	18.064561	-7.487901	0.284028	0.654424	0.163633	-0.681382
55469	-8.618890	15.363227	-8.079763	15.588777	-6.097788	-0.046891	0.274330	0.648692	0.173655	-0.688321
55470	-16.691354	-29.782997	-7.936472	-11.883888	30.385800	2.975880	0.290030	0.626279	0.214590	-0.691092
55471	-9.039601	12.906917	14.648922	-2.416104	-17.818559	1.998305	0.273685	0.625899	0.197255	-0.703163
55472	-11.757458	-2.541386	3.210907	-3.195270	1.667507	2.104307	0.271089	0.624064	0.200743	-0.704810
55473	-12.542389	0.627608	8.071461	-4.888082	-3.813210	3.767275	0.268590	0.624723	0.207932	-0.703097
55474	-12.590601	-1.232076	7.035608	-5.276034	-1.953413	3.524563	0.265206	0.629773	0.213529	-0.698181
55475	-11.563153	-0.443110	3.220649	-2.039528	-0.528013	2.012333	0.262074	0.636936	0.217564	-0.691589
55476	-10.571340	0.420748	-0.121310	0.896927	0.637132	0.710256	0.261215	0.641550	0.221553	-0.686364
55477	-9.823266	1.220195	-0.984662	1.960044	0.417346	-0.069039	0.261428	0.643025	0.224926	-0.683800
55478	-9.876710	1.012161	-0.969336	1.815565	0.541947	-0.018638	0.261596	0.641696	0.226908	-0.684329
55479	-10.125411	0.607923	-0.191324	1.035700	0.387833	0.272259	0.261996	0.637766	0.227793	-0.687549
55480	-10.315805	0.806656	0.798317	0.538887	-0.335680	0.545814	0.262304	0.631909	0.228027	-0.692742
55481	-10.227163	0.587857	1.685252	-0.121309	-0.679497	0.545940	0.262102	0.625211	0.228219	-0.698806
55482	-9.979904	0.161540	1.814145	-0.342411	-0.395352	0.318433	0.261712	0.618816	0.228027	-0.704682
55483	-9.529793	0.257124	2.014232	-0.329790	-0.577047	-0.091749	0.261688	0.613211	0.227416	-0.709770
55484	-8.603783	1.365528	4.136041	-1.276629	-2.812522	-0.677239	0.256420	0.613112	0.222850	-0.713218
55485	-9.631931	-0.411542	-0.081655	0.978292	1.307389	-0.310908	0.253583	0.614374	0.218790	-0.714402
55486	-9.177118	0.109772	-0.185599	1.350134	0.933957	-0.781041	0.251637	0.613189	0.215843	-0.717001
55487	-8.991173	-0.094609	0.569382	0.676157	0.644281	-0.851580	0.250061	0.610107	0.214329	-0.720626
55488	-9.264816	-0.335511	0.040112	1.068210	1.202429	-0.682337	0.249005	0.606311	0.214554	-0.724121
55489	-8.327897	1.563642	0.274662	2.004978	-0.532063	-1.592572	0.246829	0.601804	0.214502	-0.728626
55490	-9.651566	0.066031	1.801423	0.240460	-0.116295	0.002056	0.243912	0.596983	0.215969	-0.733127
55491	-10.557822	0.414363	3.038965	-0.202505	-1.040955	1.130245	0.240329	0.591821	0.216128	-0.738430
55492	-10.867230	0.842526	3.478838	-0.065755	-1.609849	1.514743	0.237877	0.586593	0.217275	-0.743044
55493	-10.523179	1.732134	3.267125	0.705522	-2.224525	1.094376	0.234334	0.582176	0.215881	-0.748034
55494	-10.334853	0.010547	0.520853	1.900919	0.781730	0.329047	0.230490	0.579214	0.209883	-0.753216
55495	-12.081440	3.502763	-2.467662	6.748860	-0.180279	1.084063	0.221830	0.578244	0.197733	-0.759821
55496	-14.197182	3.895839	-3.832650	8.706310	0.326048	2.657708	0.208256	0.574554	0.184840	-0.769644
55497	-12.089562	3.164645	-1.754609	6.353493	-0.553445	1.076012	0.189006	0.565991	0.168998	-0.784455
55498	-12.580729	-6.758289	-1.086589	1.611540	7.739668	2.129295	0.172242	0.562933	0.163546	-0.791639
55499	-11.923222	-2.192101	-4.986495	7.140800	5.134592	-0.093703	0.151163	0.565765	0.127425	-0.800514
55500	-10.515539	4.203763	-2.255109	6.800135	-2.150744	-0.732061	0.133483	0.570924	0.103822	-0.803399
55501	-9.906768	0.554979	-2.014341	5.110207	0.965956	-1.125960	0.116479	0.576750	0.085958	-0.803992
55502	-8.999582	0.089731	-0.477890	3.227782	0.797177	-1.435762	0.101654	0.584901	0.070961	-0.801575
55503	-8.915214	0.109069	0.146634	2.487856	0.551645	-1.267663	0.089408	0.594968	0.059482	-0.796543
55504	-9.292384	1.229314	0.380399	2.391181	-0.651618	-0.765257	0.078178	0.605601	0.052497	-0.790177
55505	-9.141714	-1.935307	0.721218	1.293695	2.289208	-0.817165	0.065582	0.615283	0.047255	-0.784151
55506	-8.018295	-2.044607	2.083871	-0.429697	2.080646	-1.548248	0.051890	0.624932	0.039061	-0.777973
55507	-7.801506	-0.257754	2.530869	-0.850311	0.212507	-1.653981	0.037346	0.634048	0.031635	-0.771743
55508	-7.320635	-0.041835	2.983466	-1.535760	-0.091912	-2.058654	0.023277	0.642503	0.027080	-0.765450
55509	-6.045381	0.517114	3.660165	-2.553882	-0.730452	-3.243614	0.010496	0.650591	0.024839	-0.758949
55510	-4.027936	1.614812	4.943707	-4.249497	-1.860098	-5.148891	-0.000914	0.659446	0.025488	-0.751319
55511	-3.132806	2.133414	5.553010	-5.092644	-2.378878	-6.124337	-0.010411	0.669059	0.030290	-0.742519
55512	-13.294419	-12.574506	2.664536	-1.694299	11.665838	4.433007	-0.005749	0.682671	0.042212	-0.729483
55513	-8.804087	6.221275	-2.673203	3.373981	-6.646225	-1.578923	-0.028644	0.665006	-0.015148	-0.746135
55514	-6.629462	17.524039	22.859032	-23.410753	-15.634796	-0.811336	-0.042851	0.665290	-0.019205	-0.745107
55515	-9.056088	3.739041	8.906497	-7.925458	-3.123626	0.322684	-0.045771	0.649393	-0.024161	-0.758690
55516	-11.999488	-5.496115	1.144340	1.528737	5.080667	2.326091	-0.040700	0.639402	-0.014789	-0.767652
55517	-10.756326	-3.310609	6.074040	-3.380846	3.459088	2.025122	-0.041735	0.625020	-0.024480	-0.779108
55518	-10.510567	1.557400	9.794816	-7.155078	-0.822890	2.715210	-0.038746	0.614055	-0.028993	-0.787779
55519	-10.872248	-4.117421	6.275204	-2.751883	4.538679	2.285218	-0.034440	0.606202	-0.032030	-0.793919
55520	-9.675283	-1.387393	6.038355	-2.942140	1.961780	1.118361	-0.029012	0.600335	-0.038917	-0.798274
55521	-9.972189	0.379223	3.589348	-0.557893	0.135398	0.776756	-0.022383	0.595117	-0.047577	-0.801917
55522	-9.369695	0.815418	3.349460	-0.435317	-0.128657	0.160529	-0.013823	0.591632	-0.053785	-0.804293
55523	-10.087538	4.568030	1.532556	1.243921	-3.851460	0.607899	-0.008086	0.586581	-0.060418	-0.807594
55524	-8.558673	3.274298	4.356658	-1.646312	-2.203868	-0.046238	-0.003906	0.582122	-0.060543	-0.810835
55525	-9.146158	0.141961	3.153321	0.067157	0.834629	-0.173497	-0.001439	0.578714	-0.061768	-0.813187
55526	-8.657791	3.030896	4.696399	-1.736810	-1.827851	0.179401	0.000572	0.577002	-0.064058	-0.814227
55527	-8.818506	1.566736	3.861038	-0.753459	-0.428454	-0.097904	0.001433	0.577293	-0.064522	-0.813982
55528	-9.234566	1.677111	3.410428	-0.213309	-0.545795	0.156139	0.001592	0.578152	-0.065048	-0.813330
55529	-9.340554	1.362211	3.108742	0.110999	-0.256430	0.121482	0.001506	0.579046	-0.065059	-0.812693
55530	-9.364033	1.188870	3.126399	0.100348	-0.084696	0.129930	0.001331	0.579558	-0.064691	-0.812359
55531	-9.348540	1.061390	3.240049	-0.008434	0.045271	0.138068	0.001091	0.579719	-0.064258	-0.812278
55532	-9.249351	1.032190	3.224241	-0.026330	0.054895	0.036573	0.000789	0.579737	-0.063841	-0.812298
55533	-9.163682	1.149134	3.224794	-0.066208	-0.079306	-0.030961	0.000323	0.579761	-0.063293	-0.812324
55534	-9.161059	1.025154	3.272952	-0.102556	0.034591	-0.031255	-0.000261	0.579814	-0.062781	-0.812326
55535	-9.167091	1.264484	3.271412	-0.122099	-0.219849	-0.000790	-0.001139	0.579892	-0.062111	-0.812321
55536	-9.179771	1.286621	3.345600	-0.193117	-0.255830	0.036872	-0.002323	0.580050	-0.061267	-0.812270
55537	-9.226058	0.992968	3.215180	-0.033824	-0.005483	0.007815	-0.003648	0.580208	-0.060336	-0.812222
55538	-9.217548	1.089263	3.256034	-0.087997	-0.127100	0.022325	-0.005040	0.580321	-0.059377	-0.812205
55539	-9.189882	1.080290	3.272310	-0.115929	-0.150972	0.000193	-0.006565	0.580463	-0.058261	-0.812173
55540	-9.169498	0.971211	3.381027	-0.220439	-0.067097	0.005717	-0.008163	0.580698	-0.057064	-0.812075
55541	-9.188219	0.782083	3.296962	-0.126395	0.074469	-0.020684	-0.009607	0.581108	-0.055730	-0.811859
55542	-9.181071	0.709117	3.344838	-0.178233	0.116829	-0.017927	-0.010971	0.581574	-0.054578	-0.811586
55543	-9.163645	0.606766	3.254954	-0.103008	0.174281	-0.071322	-0.012160	0.582145	-0.053354	-0.811241
55544	-9.203666	0.532534	3.084435	0.063881	0.201283	-0.093627	-0.013164	0.582656	-0.052479	-0.810916
55545	-9.211780	0.668652	3.115399	0.012884	0.046564	-0.065518	-0.014116	0.583033	-0.051730	-0.810677
55546	-9.221720	0.555089	3.044747	0.085753	0.129930	-0.086720	-0.014988	0.583255	-0.051032	-0.810546
55547	-9.233265	0.601589	3.123275	0.007725	0.074552	-0.047223	-0.015751	0.583259	-0.050531	-0.810560
55548	-9.241772	0.679433	3.222846	-0.090057	-0.006305	-0.001951	-0.016415	0.583135	-0.050127	-0.810661
55549	-9.255250	0.670510	3.291664	-0.146942	-0.003478	0.032243	-0.016922	0.583004	-0.049576	-0.810779
55550	-9.277545	0.521829	3.241263	-0.073888	0.125582	0.027520	-0.017183	0.582816	-0.049023	-0.810942
55551	-9.203658	0.504487	3.213162	-0.064519	0.127049	-0.052261	-0.017297	0.582554	-0.048571	-0.811155
55552	-9.216258	0.502805	3.200223	-0.040750	0.120297	-0.044499	-0.017304	0.582208	-0.048233	-0.811423
55553	-9.198029	0.522166	3.192799	-0.033063	0.094853	-0.062802	-0.017241	0.581846	-0.047965	-0.811700
55554	-9.205746	0.582637	3.249318	-0.079926	0.038307	-0.033351	-0.017145	0.581417	-0.047782	-0.812020
55555	-9.232854	0.567220	3.234532	-0.044588	0.050611	-0.013454	-0.017020	0.580945	-0.047608	-0.812371
55556	-9.226762	0.595961	3.295269	-0.094614	0.027145	0.002475	-0.016869	0.580454	-0.047451	-0.812734
55557	-9.183181	0.549964	3.228688	-0.031042	0.065512	-0.063203	-0.016542	0.580044	-0.047493	-0.813031
55558	-9.173183	0.632808	3.343956	-0.138971	-0.001680	-0.029516	-0.016352	0.579517	-0.047458	-0.813413
55559	-9.150481	0.700360	3.381695	-0.176463	-0.064777	-0.034021	-0.016220	0.579064	-0.047384	-0.813742
55560	-9.179889	0.675334	3.319648	-0.097279	-0.047546	-0.028273	-0.016131	0.578801	-0.047157	-0.813944
55561	-9.167219	0.588768	3.357418	-0.122363	0.039658	-0.033104	-0.016086	0.578549	-0.046996	-0.814134
55562	-9.194321	0.637339	3.298171	-0.058581	-0.014633	-0.024122	-0.015882	0.578501	-0.046973	-0.814173
55563	-9.144948	0.670929	3.446082	-0.215544	-0.033598	-0.019418	-0.015853	0.578447	-0.046775	-0.814224
55564	-9.185136	0.747768	3.465640	-0.229187	-0.111380	0.029650	-0.015908	0.578642	-0.046407	-0.814105
55565	-9.135840	0.645875	3.392641	-0.174548	-0.026656	-0.047466	-0.016015	0.579018	-0.045965	-0.813861
55566	-9.177100	0.525392	3.280788	-0.054551	0.074288	-0.053063	-0.016168	0.579475	-0.045579	-0.813554
55567	-9.207172	0.578189	3.286343	-0.065694	0.016259	-0.019742	-0.016296	0.579934	-0.045242	-0.813243
55568	-9.212754	0.554718	3.250389	-0.039418	0.029271	-0.027742	-0.016388	0.580432	-0.044856	-0.812907
55569	-9.164084	0.454054	3.172868	0.015171	0.113981	-0.104935	-0.016427	0.580888	-0.044548	-0.812597
55570	-9.167230	0.456203	3.175474	0.003301	0.108747	-0.100941	-0.016418	0.581295	-0.044390	-0.812315
55571	-9.150453	0.542069	3.232193	-0.072306	0.027388	-0.093340	-0.016440	0.581630	-0.044305	-0.812080
55572	-9.215240	0.471870	3.249096	-0.069011	0.099619	-0.030804	-0.016393	0.582019	-0.044215	-0.811807
55573	-9.251007	0.400676	3.233356	-0.043700	0.171352	-0.006313	-0.016194	0.582287	-0.044314	-0.811613
55574	-9.262585	0.505737	3.252484	-0.073393	0.074862	0.016805	-0.015826	0.582519	-0.044488	-0.811444
55575	-9.232545	0.561946	3.217250	-0.058879	0.023073	-0.019713	-0.015331	0.582619	-0.044757	-0.811367
55576	-9.251911	0.491812	3.193992	-0.025410	0.101219	-0.013176	-0.014724	0.582654	-0.044996	-0.811340
55577	-9.207768	0.490661	3.232785	-0.075015	0.117515	-0.042570	-0.013976	0.582565	-0.045340	-0.811398
55578	-9.220801	0.523211	3.206022	-0.045524	0.097483	-0.037008	-0.013085	0.582461	-0.045698	-0.811467
55579	-9.213883	0.637213	3.200959	-0.048641	0.000154	-0.037953	-0.012094	0.582256	-0.046122	-0.811606
55580	-9.254810	0.664237	3.217457	-0.046823	-0.006024	0.007827	-0.011068	0.582016	-0.046494	-0.811772
55581	-9.179459	0.669556	3.208520	-0.056053	0.002487	-0.065780	-0.010068	0.581701	-0.046898	-0.811987
55582	-9.259181	0.765762	3.255257	-0.074288	-0.068919	0.031359	-0.009101	0.581455	-0.047185	-0.812158
55583	-9.234128	0.671488	3.221654	-0.034795	0.035669	-0.009802	-0.008350	0.581082	-0.047627	-0.812407
55584	-9.289120	0.710397	3.148703	0.057889	0.006326	0.021098	-0.007694	0.580737	-0.048037	-0.812636
55585	-9.187864	0.610575	3.319243	-0.117730	0.132725	-0.026190	-0.007236	0.580280	-0.048627	-0.812932
55586	-9.258947	0.650434	3.129958	0.091206	0.092370	-0.018254	-0.006507	0.579865	-0.049191	-0.813200
55587	-9.080813	0.590866	3.311369	-0.121276	0.181465	-0.131378	-0.005823	0.579264	-0.050112	-0.813577
55588	-9.185780	0.766696	3.135251	0.077714	0.016532	-0.076681	-0.004579	0.578826	-0.050772	-0.813856
55589	-9.107817	0.730852	3.362580	-0.146614	0.098533	-0.078103	-0.003511	0.578286	-0.051893	-0.814174
55590	-9.233448	0.813793	3.244177	0.011415	0.039902	0.007787	-0.002408	0.577921	-0.052954	-0.814369
55591	-9.210547	0.528051	3.263350	0.017337	0.355616	-0.033341	-0.001157	0.577573	-0.054169	-0.814539
55592	-9.314446	0.082619	2.897995	0.440558	0.805674	-0.100802	0.000652	0.577060	-0.055842	-0.814790
55593	-9.267681	0.408991	3.053215	0.270907	0.550784	-0.065782	0.002570	0.576129	-0.058557	-0.815254
55594	-8.828213	1.257715	3.778740	-0.603929	-0.179880	-0.148288	0.004670	0.575303	-0.061115	-0.815641
55595	-8.784409	1.867318	4.111825	-0.969453	-0.696682	-0.007869	0.006905	0.575551	-0.062456	-0.815348
55596	-9.078170	0.681857	3.349879	-0.073316	0.462700	-0.123510	0.009041	0.576011	-0.063711	-0.814905
55597	-9.085997	1.311772	3.398526	-0.171968	-0.110242	-0.025749	0.011426	0.576447	-0.064883	-0.814475
55598	-9.160626	1.441466	3.524805	-0.283263	-0.178065	0.102306	0.013876	0.576968	-0.065306	-0.814034
55599	-9.129678	1.739805	3.420245	-0.224904	-0.454663	0.077643	0.015527	0.577392	-0.066076	-0.813641
55600	-8.906962	2.101356	3.648002	-0.547644	-0.787793	-0.007738	0.016170	0.577879	-0.066546	-0.813244
55601	-9.112754	1.718147	3.284112	-0.125042	-0.417008	0.015341	0.016431	0.578562	-0.066535	-0.812754
55602	-9.052245	1.759265	3.441124	-0.311892	-0.448038	0.014899	0.016273	0.579260	-0.066351	-0.812275
55603	-9.054596	2.021882	3.653244	-0.548155	-0.694250	0.118948	0.015859	0.580280	-0.065782	-0.811601
55604	-9.380429	1.286680	3.088515	0.115180	-0.011687	0.145897	0.014987	0.581262	-0.064855	-0.810989
55605	-9.239573	1.404082	3.227819	-0.092784	-0.152807	0.073055	0.013984	0.582143	-0.063909	-0.810450
55606	-9.178025	1.369490	3.187318	-0.096451	-0.157758	-0.002677	0.012843	0.583248	-0.062684	-0.809770
55607	-9.237602	1.188409	3.198702	-0.105313	-0.005961	0.034442	0.011537	0.584608	-0.061285	-0.808915
55608	-9.241745	1.113912	3.171576	-0.107735	0.027930	0.020771	0.010139	0.586100	-0.059822	-0.807963
55609	-9.254343	0.956517	3.001812	0.029412	0.128745	-0.037670	0.008741	0.587773	-0.058250	-0.806879
55610	-9.312349	0.916953	2.849413	0.155677	0.118107	-0.033047	0.007326	0.589341	-0.056755	-0.805855
55611	-9.303615	0.807645	2.909108	0.069389	0.194542	-0.033649	0.005869	0.590631	-0.055530	-0.805008
55612	-9.328791	0.592945	2.750439	0.213664	0.360542	-0.077851	0.004543	0.591745	-0.054472	-0.804270
55613	-9.345100	0.630450	2.726678	0.216544	0.295696	-0.064419	0.003371	0.592431	-0.053947	-0.803806
55614	-9.272398	0.834309	2.733992	0.158945	0.069704	-0.111245	0.002176	0.592821	-0.053733	-0.803537
55615	-9.190526	1.020263	2.942552	-0.088395	-0.116387	-0.109908	0.000751	0.593193	-0.053700	-0.803267
55616	-9.216514	1.179362	3.147063	-0.302229	-0.271626	-0.010962	-0.001002	0.593904	-0.053466	-0.802757
55617	-9.381631	0.859746	3.130565	-0.235713	0.027506	0.111935	-0.002932	0.595014	-0.052896	-0.801967
55618	-9.440829	0.925878	2.980883	-0.108660	-0.081549	0.129825	-0.004941	0.595985	-0.052310	-0.801275
55619	-9.409929	1.085846	3.012072	-0.186786	-0.274211	0.121502	-0.007138	0.596911	-0.051431	-0.800626
55620	-9.411026	1.047078	3.121042	-0.314761	-0.268458	0.148901	-0.009634	0.598032	-0.050053	-0.799850
55621	-9.409095	1.099667	3.197452	-0.428172	-0.368132	0.169533	-0.012425	0.599526	-0.048176	-0.798808
55622	-9.403491	0.947192	3.140806	-0.408563	-0.289106	0.133985	-0.015577	0.601546	-0.045884	-0.797367
55623	-9.443623	0.974196	3.213363	-0.531127	-0.382064	0.188700	-0.019065	0.604202	-0.043326	-0.795424
55624	-9.468076	0.662217	3.176715	-0.538586	-0.157898	0.180220	-0.022990	0.607558	-0.040581	-0.792905
55625	-9.597561	0.751828	3.284784	-0.715415	-0.321353	0.328883	-0.027087	0.611605	-0.037778	-0.789797
55626	-9.763547	0.227764	3.037453	-0.495412	0.083674	0.402522	-0.031295	0.616068	-0.035021	-0.786292
55627	-9.754957	0.015990	3.116821	-0.675843	0.216179	0.403404	-0.035428	0.620842	-0.032586	-0.782456
55628	-9.898676	0.071651	3.015794	-0.685706	0.066160	0.512387	-0.039177	0.625980	-0.030110	-0.778272
55629	-9.959459	0.096137	3.342118	-1.138327	-0.001181	0.631044	-0.042982	0.631469	-0.027831	-0.773708
55630	-10.182291	0.279399	3.827185	-1.752346	-0.213906	0.924379	-0.046916	0.637719	-0.025351	-0.768421
55631	-10.448292	0.632703	4.103645	-2.209330	-0.629251	1.193008	-0.051044	0.644716	-0.022439	-0.762386
55632	-10.235205	0.673237	4.114703	-2.487605	-0.753955	0.928852	-0.056617	0.652806	-0.019406	-0.755157
55633	-10.457073	0.036740	2.958671	-1.493182	-0.378439	0.944901	-0.062742	0.661518	-0.016594	-0.747116
55634	-10.424522	-1.549612	2.315265	-0.926949	1.017028	0.889260	-0.068929	0.671080	-0.015102	-0.738020
55635	-10.103025	-1.538681	2.539678	-1.447863	1.006720	0.568698	-0.074619	0.680328	-0.016702	-0.728908
55636	-10.804877	-1.016589	2.542041	-1.752650	0.439846	1.185859	-0.076213	0.690103	-0.018740	-0.719443
55637	-11.246881	0.643628	2.466784	-2.166208	-1.196447	1.450669	-0.075941	0.697125	-0.020691	-0.712616
55638	-8.779336	0.952006	5.302432	-5.213934	-0.858397	-0.970947	-0.071538	0.700240	-0.018239	-0.710080
55639	-7.004487	-0.726927	6.509613	-6.251703	1.037624	-2.615150	-0.061980	0.701541	-0.011528	-0.709835
55640	-8.704154	-4.119413	4.732799	-4.106818	4.010042	-0.747119	-0.051578	0.700929	-0.008091	-0.711318
55641	-6.937078	-1.257142	6.895482	-6.562786	1.516166	-2.609833	-0.042899	0.696462	-0.010372	-0.716235
55642	-6.238796	-0.678225	7.113370	-6.753786	1.034690	-3.232720	-0.035951	0.689832	-0.013055	-0.722958
55643	-7.050879	-2.193718	6.170250	-5.493838	2.491359	-2.315615	-0.032205	0.681182	-0.016750	-0.731213
55644	-8.466787	-2.144608	4.993709	-3.982934	2.396204	-0.890336	-0.032360	0.669857	-0.023060	-0.741426
55645	-8.914366	-1.836877	4.848327	-3.478094	2.172490	-0.351455	-0.035946	0.655729	-0.030757	-0.753512
55646	-9.234468	-1.588011	4.388396	-2.582252	1.967280	0.010642	-0.042793	0.639275	-0.040169	-0.766735
55647	-9.943896	-0.752289	3.588025	-1.293893	1.097191	0.647739	-0.052486	0.620837	-0.051214	-0.780502
55648	-10.030676	-0.115817	2.563005	0.120403	0.336273	0.533699	-0.064260	0.600909	-0.063586	-0.794189
55649	-9.825055	0.681544	1.318199	1.555458	-0.699362	-0.024482	-0.078121	0.580588	-0.077785	-0.806699
55650	-10.304409	0.621031	-0.003135	3.342895	-1.048421	-0.103012	-0.093979	0.561073	-0.093916	-0.817034
55651	-11.148740	-0.159318	-1.867743	5.874826	-1.025756	-0.209292	-0.110535	0.542671	-0.112644	-0.824985
55652	-11.051503	0.200233	-2.661429	6.684178	-1.840649	-0.802670	-0.126159	0.525521	-0.133759	-0.830674
55653	-10.183199	0.982518	-2.651194	6.197410	-2.697267	-1.688439	-0.139117	0.511008	-0.152971	-0.834336
55654	-9.794206	0.022922	-2.999968	6.786580	-2.100595	-2.433466	-0.149669	0.500091	-0.169132	-0.836004
55655	-9.993678	-0.308104	-3.873472	7.749896	-2.371464	-2.792372	-0.158796	0.492225	-0.183699	-0.835914
55656	-9.590111	0.400460	-3.752135	7.134552	-3.048544	-3.029482	-0.167856	0.487348	-0.195945	-0.834220
55657	-9.591190	0.203101	-2.238832	6.063293	-2.242233	-2.379516	-0.177515	0.485167	-0.205962	-0.831072
55658	-7.382234	0.375541	3.000692	1.057061	0.516535	-1.922383	-0.179926	0.491310	-0.202200	-0.827862
55659	-9.531832	-10.832886	4.917346	6.266657	10.793398	-1.059507	-0.179968	0.494989	-0.207758	-0.824278
55660	-8.632778	11.807142	12.025803	-11.104680	-4.008532	4.990330	-0.186097	0.499102	-0.223156	-0.816374
55661	-10.430904	4.830765	3.141425	-0.457978	-3.092005	1.686442	-0.184402	0.512973	-0.217364	-0.809696
55662	-11.612023	1.584816	3.534953	1.118758	-0.255267	2.374085	-0.180463	0.527672	-0.210919	-0.802813
55663	-12.090598	-3.887269	1.233443	5.565908	3.119810	1.236778	-0.180138	0.540227	-0.210300	-0.794657
55664	-11.442490	1.605916	0.713007	2.549237	-1.623606	1.362085	-0.179712	0.550898	-0.211411	-0.787096
55665	-11.666336	0.581320	0.110921	3.395636	-1.012484	1.318065	-0.178521	0.559260	-0.210794	-0.781617
55666	-10.558473	0.268582	1.842190	1.683690	0.306100	0.771132	-0.177426	0.564143	-0.211115	-0.778262
55667	-10.282215	0.124865	2.866161	0.768534	1.055717	0.782045	-0.175200	0.567586	-0.212240	-0.775954
55668	-9.683486	1.003689	2.881939	0.061191	0.421764	0.331306	-0.172433	0.569801	-0.214362	-0.774366
55669	-9.774520	1.453717	2.569754	0.074250	-0.050407	0.397583	-0.169547	0.571492	-0.216261	-0.773228
55670	-9.729274	1.257733	2.451613	0.247940	0.120738	0.295462	-0.166800	0.572238	-0.218009	-0.772783
55671	-9.688018	1.296383	2.590480	0.114764	0.224570	0.295972	-0.163989	0.572196	-0.219639	-0.772954
55672	-9.562602	1.391785	2.504633	0.125354	0.152793	0.168006	-0.160804	0.571551	-0.220915	-0.773736
55673	-9.286813	1.750932	2.541814	-0.128510	-0.085913	-0.027634	-0.157222	0.570436	-0.221385	-0.775160
55674	-9.254806	1.666684	2.479746	0.007103	-0.018334	-0.087579	-0.153151	0.569224	-0.220690	-0.777061
55675	-9.166761	1.612125	2.523837	0.025201	0.066821	-0.169406	-0.149006	0.568083	-0.219119	-0.779144
55676	-9.032754	1.857847	2.762319	-0.281278	-0.012900	-0.190152	-0.144508	0.567230	-0.216955	-0.781216
55677	-8.619601	1.792798	3.372702	-0.839071	0.349874	-0.428646	-0.140370	0.566812	-0.214697	-0.782896
55678	-8.929646	2.297269	3.172923	-0.793197	-0.182946	-0.095650	-0.136020	0.567514	-0.212110	-0.783860
55679	-9.381469	1.510086	2.360276	0.396910	0.107001	-0.030344	-0.132493	0.568325	-0.210038	-0.784433
55680	-9.377237	2.070149	2.575026	-0.033298	-0.263315	0.126045	-0.129043	0.568902	-0.208309	-0.785051
55681	-9.346180	2.115588	2.752433	-0.200970	-0.210624	0.153150	-0.126360	0.569209	-0.206749	-0.785678
55682	-9.283044	1.637110	3.026616	-0.232383	0.335321	0.079177	-0.124482	0.569763	-0.204902	-0.786059
55683	-9.366779	1.649926	2.759023	0.009060	0.195654	0.088456	-0.122571	0.570411	-0.203586	-0.786231
55684	-9.095477	2.298193	2.969719	-0.547460	-0.287566	0.008015	-0.121681	0.571164	-0.202417	-0.786125
55685	-9.185806	2.270973	2.709631	-0.304782	-0.394491	0.017362	-0.121393	0.572261	-0.200957	-0.785747
55686	-9.185929	1.884248	2.825714	-0.261591	-0.015289	-0.022511	-0.121370	0.573619	-0.199494	-0.785132
55687	-8.970997	2.201811	2.992097	-0.643927	-0.242823	-0.127358	-0.121712	0.575351	-0.198194	-0.784140
55688	-9.095253	2.280322	3.094242	-0.778547	-0.276718	0.026760	-0.122423	0.577967	-0.196907	-0.782429
55689	-9.078268	2.255211	2.963050	-0.737716	-0.330084	-0.033794	-0.123465	0.581408	-0.195724	-0.780009
55690	-9.153118	2.211463	3.038150	-0.861213	-0.265965	0.040582	-0.124694	0.585957	-0.194419	-0.776728
55691	-8.921076	2.432117	2.985676	-1.107534	-0.498532	-0.172243	-0.126320	0.591580	-0.193615	-0.772392
55692	-9.155846	1.856022	2.735561	-0.736561	-0.092402	-0.106819	-0.127601	0.598737	-0.192621	-0.766896
55693	-9.389395	1.239575	2.808948	-0.659134	0.514805	0.030302	-0.128614	0.606812	-0.192480	-0.760388
55694	-9.728829	0.926800	2.804678	-0.658269	0.842907	0.298019	-0.129240	0.616135	-0.192800	-0.752663
55695	-9.874792	0.629683	2.673698	-0.634042	1.117868	0.355817	-0.129681	0.626393	-0.194421	-0.743650
55696	-10.080357	0.461568	2.286166	-0.464853	1.190724	0.454283	-0.129869	0.637784	-0.196863	-0.733220
55697	-10.419916	0.496605	2.469943	-0.906726	1.384624	0.778414	-0.130025	0.650016	-0.199966	-0.721516
55698	-11.026174	0.337945	2.979937	-1.566476	1.947112	1.336783	-0.130236	0.663171	-0.203246	-0.708473
55699	-11.641921	-0.172150	3.451368	-2.091534	2.838980	1.807216	-0.130232	0.676944	-0.207651	-0.694022
55700	-12.291384	-0.131395	5.074378	-3.939683	3.872065	2.282891	-0.130343	0.691115	-0.214338	-0.677812
55701	-12.814763	0.570193	7.260254	-6.664558	4.688906	2.467662	-0.130505	0.706653	-0.222283	-0.658939
55702	-13.219625	1.792637	10.699977	-10.809710	5.755638	2.120482	-0.130116	0.724352	-0.230222	-0.636696
55703	-11.628305	3.687106	11.255500	-12.725889	4.510780	-0.164426	-0.128377	0.745870	-0.236044	-0.609492
55704	-15.724724	2.208612	2.963204	-6.476839	2.899750	4.691542	-0.121843	0.774135	-0.241173	-0.572455
55705	-19.641909	4.190559	-1.604896	-6.151308	0.651580	9.352971	-0.115151	0.802370	-0.248072	-0.530475
55706	-18.962282	0.685283	-2.360068	-5.140412	3.879350	8.183339	-0.111738	0.826086	-0.255917	-0.489493
55707	-14.783862	1.389285	1.230263	-7.814093	4.282734	2.122738	-0.118096	0.843734	-0.271264	-0.447864
55708	-8.207037	-1.300464	3.196600	-5.140623	5.554364	-5.126240	-0.128344	0.852224	-0.291055	-0.415366
55709	0.639770	1.245080	3.457333	-2.539947	0.502271	-12.496468	-0.152062	0.852648	-0.312147	-0.390426
55710	-21.739339	5.622054	-4.507508	-12.581144	2.914510	9.093276	-0.152813	0.863472	-0.327194	-0.352148
55711	-13.534782	7.886231	-5.922332	-9.528464	-2.974503	3.632601	-0.194682	0.842784	-0.335436	-0.373225
55712	-1.382714	10.901227	9.337878	-13.132034	-0.952662	-15.687491	-0.238749	0.826347	-0.330019	-0.388891
55713	-2.216346	6.822949	6.242772	-9.129832	0.384281	-12.443694	-0.245550	0.817411	-0.315284	-0.414899
55714	-2.768272	2.978170	2.452508	-4.676056	0.452620	-9.125360	-0.260214	0.804093	-0.300621	-0.441986
55715	-2.747588	2.536598	3.295393	-4.802444	1.186055	-9.210208	-0.265053	0.790516	-0.284438	-0.473208
55716	-5.074226	0.965342	1.337078	-3.327482	1.123091	-5.797897	-0.263867	0.774358	-0.269872	-0.507851
55717	-5.906120	0.420510	0.640526	-2.490574	0.881555	-4.477068	-0.258623	0.754498	-0.259306	-0.544617
55718	-5.859368	1.349239	0.597888	-2.670852	-0.061454	-4.395377	-0.249890	0.731070	-0.251454	-0.582977
55719	-5.863907	1.666521	2.191905	-3.578144	0.558484	-4.443909	-0.237936	0.706303	-0.246077	-0.619652
55720	-8.199397	3.420140	1.687525	-4.019565	-1.179738	-1.801851	-0.221609	0.682148	-0.242834	-0.653142
55721	-11.519858	6.630350	0.515828	-4.294518	-4.457818	1.955762	-0.196268	0.660559	-0.237253	-0.684728
55722	-15.287079	10.693719	-2.049307	-2.893417	-9.204989	6.275241	-0.157487	0.642855	-0.223276	-0.715599
55723	-17.882654	10.629600	-5.864613	3.013772	-10.870389	8.607398	-0.103216	0.629665	-0.188859	-0.746459
55724	-17.766554	8.574110	-10.221282	10.392101	-9.919033	7.112215	-0.041665	0.616271	-0.144520	-0.773038
55725	-15.518284	9.607744	-12.054878	13.731011	-9.920746	3.995855	0.019226	0.604783	-0.095520	-0.790407
55726	-12.102175	12.793377	-13.442522	15.962626	-11.588809	0.232286	0.076160	0.598512	-0.042750	-0.796338
55727	-9.395179	14.540839	-14.934494	18.664963	-11.302192	-3.048277	0.127678	0.597886	0.015465	-0.791196
55728	-12.473590	11.735081	-20.134351	24.923956	-4.338598	-2.203407	0.169120	0.601501	0.066553	-0.777924
55729	-25.810773	9.649505	-21.395534	28.688154	2.745814	9.841936	0.186427	0.594743	0.137222	-0.769868
55730	-15.904920	-27.880517	-28.603362	15.839147	39.487990	-3.688288	0.213746	0.578200	0.124834	-0.777441
55731	-10.207808	14.111485	-9.069864	16.286116	-7.597176	-1.922042	0.171548	0.586687	0.081223	-0.787256
55732	-10.435387	21.440827	-2.709226	12.495235	-17.540282	0.775729	0.156246	0.580774	0.075596	-0.795345
55733	-12.201867	-3.036019	-1.451917	3.870056	5.180782	1.067935	0.153433	0.573590	0.087350	-0.799889
55734	-8.055827	-6.477463	5.824832	-4.819014	5.661482	-0.566174	0.149527	0.567925	0.076453	-0.805765
55735	-10.507295	1.908892	5.778563	-1.201938	-1.746164	2.143234	0.149209	0.564150	0.074517	-0.808652
55736	-9.241192	-0.361973	6.207341	-2.637976	0.128451	1.007950	0.149682	0.562820	0.073894	-0.809548
55737	-9.528270	-1.181890	4.150623	-0.961400	1.548051	0.487385	0.153158	0.562887	0.073094	-0.808924
55738	-9.232916	0.150735	3.955356	-0.487822	0.362159	0.214494	0.158632	0.562941	0.070752	-0.808039
55739	-9.297909	1.168396	3.265632	0.450655	-0.298379	0.096281	0.164278	0.562840	0.068616	-0.807166
55740	-9.149651	3.070605	3.322925	0.976596	-2.043099	0.140102	0.168433	0.561740	0.067098	-0.807203
55741	-9.034696	2.123237	3.782491	0.241415	-1.257680	0.127180	0.171336	0.560381	0.068435	-0.807424
55742	-9.034132	0.201957	3.597623	-0.220395	0.610864	-0.108182	0.174011	0.558951	0.069550	-0.807748
55743	-8.809033	1.059695	3.947753	-0.287744	-0.316250	-0.110941	0.176796	0.558063	0.069700	-0.807744
55744	-8.861642	1.160019	3.924459	-0.209703	-0.370570	-0.061051	0.177961	0.557944	0.069657	-0.807574
55745	-8.761017	1.329062	3.790179	-0.071711	-0.500003	-0.188130	0.179523	0.558418	0.070154	-0.806858
55746	-8.748454	1.754074	4.037270	-0.160804	-0.973447	-0.069061	0.180129	0.559473	0.070848	-0.805931
55747	-9.052520	1.107143	3.551131	0.102909	-0.176486	-0.027877	0.180458	0.561070	0.071948	-0.804648
55748	-9.158242	0.737444	3.600804	-0.076352	0.153652	0.054096	0.180727	0.562685	0.072947	-0.803369
55749	-9.317286	0.158051	3.527411	-0.208321	0.730957	0.122180	0.181201	0.564226	0.073598	-0.802121
55750	-9.251013	0.668609	3.450341	-0.013447	0.258507	0.080038	0.182300	0.565578	0.074180	-0.800865
55751	-9.108954	0.709002	3.318743	0.042583	0.230548	-0.094933	0.183640	0.566611	0.074736	-0.799777
55752	-9.229716	0.957476	3.279997	0.175130	0.043165	0.027546	0.184687	0.567577	0.074592	-0.798864
55753	-9.228016	1.625011	3.478772	0.220916	-0.632307	0.159782	0.185281	0.568271	0.074773	-0.798216
55754	-9.247088	1.775614	3.774012	0.008057	-0.870946	0.294040	0.184776	0.568787	0.075609	-0.797886
55755	-9.054826	1.422363	3.526253	0.035320	-0.537670	-0.006722	0.183613	0.569330	0.077219	-0.797613
55756	-9.009974	1.398792	3.795222	-0.231267	-0.656442	0.038978	0.182211	0.570231	0.079246	-0.797092
55757	-9.004045	0.627178	3.355734	-0.143601	0.140097	-0.185304	0.180669	0.571658	0.081761	-0.796166
55758	-9.058281	0.181526	3.438883	-0.391401	0.479487	-0.141705	0.179301	0.573415	0.083685	-0.795012
55759	-9.190072	0.959931	3.503671	-0.157246	-0.288511	0.063867	0.177987	0.575184	0.085335	-0.793853
55760	-9.186473	0.571089	2.945592	0.163532	0.203389	-0.152172	0.176791	0.576756	0.087231	-0.792773
55761	-9.282936	0.427163	2.832932	0.213885	0.346992	-0.106269	0.175798	0.577893	0.088705	-0.792001
55762	-9.274897	0.329885	2.900048	0.100651	0.379115	-0.097294	0.174930	0.578654	0.089818	-0.791513
55763	-9.310898	0.904303	3.302414	-0.045772	-0.307661	0.102943	0.174123	0.579188	0.090663	-0.791203
55764	-9.313280	0.528978	3.037483	0.046131	0.102300	-0.002965	0.173294	0.579653	0.091689	-0.790926
55765	-9.255938	0.292308	2.922638	0.040262	0.326113	-0.107450	0.172674	0.580068	0.092468	-0.790667
55766	-9.308139	0.569314	3.080257	0.011996	0.007832	0.008378	0.172228	0.580293	0.093010	-0.790536
55767	-9.346845	0.686149	2.947268	0.183493	-0.063532	0.009888	0.171773	0.580331	0.093463	-0.790554
55768	-9.295335	0.472009	2.991418	0.056224	0.099955	-0.037133	0.171307	0.580158	0.093959	-0.790723
55769	-9.374098	0.507261	3.227006	-0.110641	-0.009186	0.113654	0.170790	0.579902	0.094312	-0.790980
55770	-9.361960	0.637974	3.204996	-0.036372	-0.135648	0.102228	0.170136	0.579575	0.094623	-0.791323
55771	-9.345587	0.711872	3.099578	0.091858	-0.185819	0.057020	0.169306	0.579234	0.095216	-0.791680
55772	-9.277592	0.983612	3.211713	0.086663	-0.505761	0.040888	0.168043	0.578828	0.095805	-0.792175
55773	-9.194546	0.591335	3.023315	0.103755	-0.119410	-0.117088	0.166473	0.578549	0.096992	-0.792566
55774	-9.228091	0.271860	3.137829	-0.089292	0.112914	-0.062984	0.164852	0.578289	0.097885	-0.792985
55775	-9.270293	-0.013065	3.060466	-0.096525	0.383235	-0.058267	0.163456	0.577979	0.098535	-0.793419
55776	-9.268616	0.321204	3.082465	0.020816	0.045394	-0.039793	0.162480	0.577373	0.098895	-0.794016
55777	-9.260049	0.439314	2.834421	0.302625	0.001752	-0.123322	0.161673	0.576547	0.099479	-0.794707
55778	-9.225369	0.584064	3.145810	0.094454	-0.256908	-0.052069	0.160831	0.575523	0.100322	-0.795514
55779	-9.161262	0.162151	3.198456	-0.090691	0.092362	-0.108654	0.159942	0.574334	0.101220	-0.796438
55780	-9.254480	0.321436	3.500685	-0.242587	-0.161165	0.082695	0.159048	0.573309	0.102055	-0.797249
55781	-9.241490	0.164462	3.421389	-0.208734	-0.010848	0.040958	0.158802	0.572722	0.103472	-0.797537
55782	-9.183948	0.393220	3.496329	-0.187302	-0.286061	0.016187	0.158040	0.571805	0.105403	-0.798093
55783	-9.477357	0.937069	3.131126	0.444685	-0.669875	0.180094	0.157348	0.571188	0.107623	-0.798375
55784	-9.177491	0.244480	3.463288	-0.170475	-0.225506	-0.004516	0.156415	0.570967	0.110862	-0.798274
55785	-9.703185	0.937907	3.407871	0.311629	-0.849849	0.474454	0.154728	0.570355	0.113789	-0.798628
55786	-9.346456	0.786647	3.702470	-0.091162	-0.932560	0.227460	0.152443	0.570507	0.117991	-0.798349
55787	-10.088298	1.569006	3.633488	0.504142	-1.664788	0.883604	0.149229	0.570365	0.123082	-0.798289
55788	-9.977646	1.545038	4.230884	-0.042828	-2.001400	0.949818	0.145292	0.570903	0.128797	-0.797729
55789	-10.861947	2.910267	3.674850	1.239360	-3.168259	1.517742	0.139494	0.571090	0.135231	-0.797566
55790	-11.007963	3.527127	4.862267	0.497216	-4.379064	1.927341	0.131044	0.570979	0.142132	-0.797878
55791	-11.987055	6.072966	4.320126	2.167456	-6.821127	2.352487	0.115281	0.572937	0.148441	-0.797758
55792	-11.969436	4.833345	1.565775	4.084403	-5.140943	1.409681	0.093578	0.574988	0.155489	-0.797782
55793	-17.090202	10.771392	-4.907463	13.273989	-9.360908	3.159028	0.069644	0.575173	0.162565	-0.798685
55794	-20.494165	26.637768	-13.212886	26.443117	-22.709524	-0.400674	0.045473	0.558570	0.185079	-0.807266
55795	-14.486927	7.491204	-7.097264	14.460350	-6.330357	-1.648648	0.041745	0.516415	0.276035	-0.809554
55796	-12.656934	-25.707785	-16.392342	8.467013	27.433220	6.434482	0.093596	0.502324	0.324092	-0.796163
55797	-8.218440	5.669744	-0.572960	6.971007	-5.467445	-5.173387	0.098397	0.504624	0.305389	-0.801505
55798	-7.642411	9.947620	1.382239	7.364856	-9.714802	-6.553562	0.123488	0.510688	0.327531	-0.785285
55799	-9.596373	2.041709	-0.789250	5.865246	-2.203506	-2.222815	0.155068	0.518922	0.343067	-0.767450
55800	-9.348195	3.336976	0.137570	5.662183	-3.399690	-2.403033	0.187645	0.528833	0.352834	-0.748755
55801	-9.127042	4.609270	1.040936	5.631894	-4.548479	-2.518586	0.220583	0.538251	0.361882	-0.728472
55802	-8.596022	3.972208	1.678914	4.478508	-4.246119	-2.437875	0.254129	0.545398	0.371637	-0.706997
55803	-8.549020	2.903848	1.950194	3.347352	-3.529605	-1.961084	0.287480	0.550411	0.380569	-0.685252
55804	-8.779289	1.415555	1.754475	2.083270	-2.304452	-1.298248	0.319623	0.553814	0.385420	-0.665268
55805	-8.962459	1.040460	1.714036	1.520919	-1.841940	-0.945585	0.348998	0.556672	0.383623	-0.648961
55806	-9.200682	1.175732	1.458291	1.459601	-1.396977	-0.644186	0.374445	0.559334	0.375252	-0.637278
55807	-8.781282	1.644707	1.837946	1.343565	-1.657401	-0.945657	0.396085	0.561596	0.361474	-0.630129
55808	-8.497431	1.903756	2.785821	0.853491	-2.310532	-1.008882	0.414803	0.563312	0.344416	-0.626095
55809	-9.358275	1.682164	2.997381	0.280943	-1.914905	-0.033965	0.431348	0.565074	0.324501	-0.623962
55810	-10.464048	1.054599	3.183927	-0.714947	-1.176783	1.087789	0.448275	0.566072	0.303185	-0.621845
55811	-10.527069	-1.923129	3.094675	-3.706660	0.669325	0.669416	0.466326	0.566601	0.280709	-0.618633
55812	-10.424167	-1.868469	3.115676	-4.028359	1.071900	0.407576	0.483835	0.567000	0.258367	-0.614541
55813	-10.388574	-3.965080	2.658772	-5.989338	2.724085	-0.464104	0.499789	0.566155	0.239394	-0.610221
55814	-9.837801	-6.121643	1.704464	-7.601224	4.501061	-2.124604	0.511371	0.566591	0.223444	-0.606257
55815	-19.034896	17.729068	1.814770	11.466749	-1.160248	13.577366	0.518089	0.561362	0.225873	-0.604514
55816	-10.781434	-19.980292	-6.813582	-16.716459	16.620122	-7.412254	0.534883	0.523653	0.270122	-0.605576
55817	-11.904036	-12.219980	-3.591937	-11.242782	11.075593	-2.411039	0.523513	0.509410	0.293862	-0.616506
55818	-13.702638	-18.224459	-3.177914	-16.756028	12.747059	-0.509891	0.514216	0.489139	0.322270	-0.626472
55819	-15.854761	-40.259685	-11.256495	-34.835059	26.964189	-2.182920	0.503653	0.483488	0.324139	-0.638362
