// General information: 
//  MT Manager version: 2021.0.0 
//  XDA version: 2021.0.0 build 5908 rev 109668 built on 2021-04-19
// Device information: 
//  DeviceId: 00B43DEF
//  ProductCode: MTW2-3A7G6
//  Firmware Version: 4.3.5
//  Hardware Version: 1.1.0
// Device settings: 
//  Filter Profile: human(46.1)
//  Option Flags: Orientation Smoother Disabled, Position/Velocity Smoother Disabled, Continuous Zero Rotation Update Disabled, AHS Disabled, ICC Disabled
// Coordinate system: ENU
PacketCounter	Acc_X	Acc_Y	Acc_Z	FreeAcc_E	FreeAcc_N	FreeAcc_U	Quat_q0	Quat_q1	Quat_q2	Quat_q3
54636	-9.590956	-0.884271	-1.392301	0.084308	-0.026069	-0.081342	0.409203	0.540194	0.530665	-0.509056
54637	-9.573808	-0.931601	-1.392838	0.036118	-0.015533	-0.093421	0.409369	0.540044	0.530735	-0.509009
54638	-9.553685	-0.940798	-1.432895	0.030553	0.029438	-0.106535	0.409406	0.539992	0.530727	-0.509043
54639	-9.568117	-0.945452	-1.464817	0.031885	0.060607	-0.087270	0.409404	0.539950	0.530674	-0.509143
54640	-9.580514	-0.889222	-1.419094	0.083905	0.009826	-0.087275	0.409395	0.539914	0.530571	-0.509296
54641	-9.548289	-0.914916	-1.395971	0.053959	-0.002842	-0.119766	0.409467	0.539808	0.530601	-0.509320
54642	-9.624475	-0.970580	-1.394014	0.006087	-0.008600	-0.039473	0.409432	0.539777	0.530537	-0.509448
54643	-9.583910	-0.894682	-1.374798	0.076897	-0.028081	-0.089768	0.409362	0.539775	0.530461	-0.509584
54644	-9.582260	-0.894658	-1.394912	0.080762	-0.006821	-0.088526	0.409350	0.539724	0.530453	-0.509657
54645	-9.579591	-0.911788	-1.426706	0.068920	0.027695	-0.084897	0.409396	0.539615	0.530517	-0.509669
54646	-9.578160	-0.966029	-1.439965	0.018162	0.048102	-0.078972	0.409435	0.539507	0.530557	-0.509710
54647	-9.596790	-0.956676	-1.418871	0.027755	0.025298	-0.064590	0.409472	0.539405	0.530541	-0.509805
54648	-9.591774	-0.948494	-1.374796	0.031461	-0.015903	-0.076641	0.409499	0.539303	0.530538	-0.509895
54649	-9.569465	-0.939103	-1.443980	0.049003	0.056477	-0.089722	0.409559	0.539192	0.530545	-0.509957
54650	-9.614476	-0.912379	-1.412992	0.076529	0.018492	-0.052517	0.409643	0.539052	0.530557	-0.510024
54651	-9.563291	-0.984638	-1.411458	0.001957	0.035698	-0.095847	0.409759	0.538883	0.530580	-0.510086
54652	-9.582428	-0.939422	-1.387381	0.046741	0.006694	-0.084993	0.409723	0.538845	0.530500	-0.510238
54653	-9.573322	-0.946044	-1.395225	0.042128	0.019447	-0.092194	0.409772	0.538726	0.530441	-0.510385
54654	-9.588335	-0.916036	-1.423375	0.078605	0.044437	-0.076511	0.409723	0.538672	0.530368	-0.510558
54655	-9.596964	-0.984000	-1.415489	0.013147	0.045926	-0.062236	0.409779	0.538547	0.530323	-0.510691
54656	-9.560433	-0.929299	-1.344129	0.057080	-0.021347	-0.113799	0.409753	0.538482	0.530212	-0.510896
54657	-9.585018	-1.002556	-1.348424	-0.010900	-0.009942	-0.081515	0.409818	0.538352	0.530247	-0.510945
54658	-9.584681	-1.039563	-1.349047	-0.045926	-0.002829	-0.077975	0.409752	0.538354	0.530107	-0.511140
54659	-9.568908	-0.890575	-1.347786	0.101143	-0.016282	-0.108917	0.409710	0.538354	0.530019	-0.511265
54660	-9.589802	-0.941998	-1.403186	0.060000	0.042839	-0.075380	0.409813	0.538224	0.530032	-0.511307
54661	-9.591138	-0.979488	-1.382921	0.021279	0.029579	-0.073054	0.409905	0.538106	0.530015	-0.511374
54662	-9.571640	-0.954107	-1.419521	0.050751	0.068350	-0.089807	0.409854	0.538065	0.529916	-0.511561
54663	-9.617052	-0.892302	-1.385850	0.113465	0.024234	-0.056099	0.409906	0.537929	0.529910	-0.511669
54664	-9.577192	-0.966760	-1.457720	0.047404	0.112269	-0.077836	0.410065	0.537692	0.529982	-0.511716
54665	-9.583190	-1.009058	-1.374138	-0.002405	0.037978	-0.079109	0.410105	0.537561	0.529886	-0.511922
54666	-9.606862	-0.991251	-1.401659	0.023054	0.064448	-0.053879	0.410142	0.537430	0.529750	-0.512170
54667	-9.619627	-0.935696	-1.352590	0.075123	0.013741	-0.053773	0.410233	0.537266	0.529620	-0.512404
54668	-9.545370	-0.973619	-1.323062	0.029781	0.006097	-0.127049	0.410349	0.537060	0.529511	-0.512638
54669	-9.568299	-1.027372	-1.353789	-0.015102	0.044915	-0.094749	0.410402	0.536921	0.529378	-0.512879
54670	-9.575663	-0.962247	-1.262151	0.040628	-0.047937	-0.106590	0.410400	0.536836	0.529170	-0.513184
54671	-9.614656	-1.021184	-1.304862	-0.006779	0.000818	-0.056303	0.410550	0.536633	0.529096	-0.513353
54672	-9.594696	-0.935418	-1.241661	0.069865	-0.062682	-0.093320	0.410576	0.536552	0.528918	-0.513600
54673	-9.567359	-0.951962	-1.268392	0.055761	-0.026285	-0.114976	0.410764	0.536341	0.528967	-0.513619
54674	-9.618301	-1.007311	-1.261934	0.005730	-0.030036	-0.059846	0.410872	0.536190	0.528924	-0.513735
54675	-9.543581	-0.990079	-1.242738	0.015000	-0.036820	-0.137823	0.410907	0.536110	0.528871	-0.513845
54676	-9.616763	-0.989298	-1.287642	0.029135	-0.000802	-0.059841	0.410930	0.536028	0.528839	-0.513946
54677	-9.559874	-0.997552	-1.251359	0.012726	-0.025046	-0.119834	0.410945	0.535959	0.528787	-0.514059
54678	-9.597009	-1.000671	-1.325848	0.023572	0.045027	-0.073118	0.410879	0.535975	0.528706	-0.514178
54679	-9.584277	-0.962549	-1.270041	0.054045	-0.010878	-0.096987	0.410915	0.535899	0.528695	-0.514241
54680	-9.590945	-1.033048	-1.408508	0.003328	0.134432	-0.064906	0.410990	0.535809	0.528664	-0.514305
54681	-9.590998	-0.955967	-1.297887	0.066420	0.019840	-0.087420	0.410921	0.535829	0.528470	-0.514539
54682	-9.607340	-0.907863	-1.314784	0.118603	0.031667	-0.074167	0.411028	0.535698	0.528474	-0.514586
54683	-9.583628	-1.017882	-1.275717	0.003644	0.012157	-0.091098	0.411181	0.535517	0.528493	-0.514633
54684	-9.624824	-1.005794	-1.296177	0.022888	0.028300	-0.049102	0.411244	0.535409	0.528446	-0.514743
54685	-9.582753	-1.018214	-1.291178	0.007618	0.034334	-0.089940	0.411316	0.535281	0.528374	-0.514893
54686	-9.636991	-0.985971	-1.248347	0.040007	-0.015281	-0.045381	0.411441	0.535134	0.528347	-0.514974
54687	-9.561421	-0.985458	-1.240154	0.033526	-0.008865	-0.121006	0.411588	0.534976	0.528300	-0.515068
54688	-9.610532	-0.966504	-1.270962	0.061221	0.015832	-0.070624	0.411711	0.534830	0.528319	-0.515103
54689	-9.619970	-1.015932	-1.251090	0.011545	0.003949	-0.058661	0.411894	0.534618	0.528330	-0.515164
54690	-9.536931	-1.040692	-1.223362	-0.022824	-0.005340	-0.141485	0.411925	0.534551	0.528241	-0.515300
54691	-9.623269	-0.964939	-1.212496	0.059053	-0.033974	-0.065692	0.411951	0.534518	0.528172	-0.515384
54692	-9.596737	-1.017748	-1.222506	0.006024	-0.011871	-0.085020	0.412122	0.534360	0.528183	-0.515401
54693	-9.559672	-1.074657	-1.263085	-0.048060	0.042400	-0.110446	0.412130	0.534340	0.528083	-0.515517
54694	-9.596824	-0.944946	-1.235612	0.080373	-0.001956	-0.090948	0.412006	0.534467	0.527828	-0.515746
54695	-9.602134	-0.935928	-1.286233	0.096282	0.048253	-0.080281	0.412088	0.534402	0.527811	-0.515765
54696	-9.624441	-1.023692	-1.322163	0.016207	0.093217	-0.044527	0.412210	0.534286	0.527752	-0.515848
54697	-9.625720	-1.060962	-1.300161	-0.022495	0.079876	-0.042137	0.412154	0.534308	0.527491	-0.516137
54698	-9.601214	-0.911939	-1.182445	0.108835	-0.045144	-0.096761	0.412111	0.534311	0.527281	-0.516384
54699	-9.607554	-0.994595	-1.205004	0.031301	-0.010210	-0.078969	0.412358	0.534084	0.527314	-0.516386
54700	-9.544459	-1.068671	-1.254242	-0.040829	0.059039	-0.127301	0.412390	0.534029	0.527203	-0.516531
54701	-9.616101	-0.988260	-1.209965	0.040003	0.000157	-0.070589	0.412432	0.533991	0.527053	-0.516690
54702	-9.646947	-1.033953	-1.253197	0.003504	0.047557	-0.030005	0.412561	0.533868	0.527000	-0.516768
54703	-9.578491	-1.002723	-1.139754	0.013916	-0.054098	-0.114808	0.412694	0.533765	0.526861	-0.516909
54704	-9.590292	-1.021231	-1.221823	0.006706	0.031138	-0.091142	0.412821	0.533705	0.526794	-0.516939
54705	-9.611633	-1.011765	-1.157978	0.009132	-0.032304	-0.078883	0.412912	0.533665	0.526647	-0.517058
54706	-9.577129	-0.997377	-1.173467	0.021669	-0.010684	-0.112554	0.412963	0.533664	0.526515	-0.517152
54707	-9.622023	-0.968419	-1.141523	0.049342	-0.048368	-0.075158	0.413072	0.533637	0.526388	-0.517223
54708	-9.586985	-0.989395	-1.159913	0.026690	-0.020657	-0.105296	0.413169	0.533613	0.526336	-0.517222
54709	-9.626903	-1.028575	-1.195461	-0.005066	0.014927	-0.057479	0.413216	0.533634	0.526269	-0.517231
54710	-9.573777	-0.929387	-1.113482	0.076805	-0.068561	-0.130219	0.413259	0.533641	0.526167	-0.517293
54711	-9.603580	-0.991522	-1.170983	0.024498	-0.007968	-0.087339	0.413349	0.533609	0.526228	-0.517193
54712	-9.627580	-0.935611	-1.201744	0.085100	0.012584	-0.065767	0.413306	0.533667	0.526161	-0.517235
54713	-9.581985	-0.939260	-1.117156	0.066221	-0.064420	-0.120621	0.413409	0.533591	0.526271	-0.517119
54714	-9.611034	-0.983392	-1.186303	0.033340	0.003361	-0.078971	0.413506	0.533518	0.526468	-0.516917
54715	-9.635572	-1.019116	-1.192861	0.000524	0.008604	-0.050225	0.413545	0.533482	0.526583	-0.516805
54716	-9.604344	-0.954643	-1.158274	0.056721	-0.029804	-0.091974	0.413578	0.533466	0.526639	-0.516739
54717	-9.570477	-0.942012	-1.157910	0.065611	-0.028592	-0.126767	0.413687	0.533378	0.526840	-0.516537
54718	-9.591905	-0.957046	-1.215442	0.059465	0.024492	-0.097043	0.413724	0.533331	0.527015	-0.516378
54719	-9.626368	-0.916558	-1.208443	0.101770	0.005775	-0.068100	0.413704	0.533310	0.527165	-0.516262
54720	-9.581238	-0.999688	-1.234472	0.019689	0.044114	-0.100783	0.413629	0.533303	0.527291	-0.516201
54721	-9.664850	-0.959989	-1.251490	0.070117	0.042258	-0.020322	0.413392	0.533416	0.527321	-0.516243
54722	-9.604923	-0.877305	-1.266374	0.150763	0.053452	-0.086315	0.413230	0.533418	0.527357	-0.516333
54723	-9.583432	-0.848281	-1.203670	0.172975	-0.011053	-0.118332	0.412912	0.533513	0.527411	-0.516435
54724	-9.629400	-0.922391	-1.256747	0.114431	0.039251	-0.058667	0.412661	0.533526	0.527597	-0.516433
54725	-9.565350	-0.965462	-1.310536	0.077375	0.102236	-0.110672	0.412196	0.533718	0.527488	-0.516717
54726	-9.644620	-0.914671	-1.139246	0.117174	-0.085726	-0.059118	0.412271	0.533433	0.527915	-0.516514
54727	-9.702468	-1.157705	-1.366351	-0.086126	0.156128	0.052063	0.412556	0.533022	0.528285	-0.516334
54728	-9.746040	-0.741101	-1.542326	0.357507	0.277381	0.072076	0.411516	0.533611	0.527555	-0.517300
54729	-9.536200	-0.329763	-0.952859	0.679282	-0.319947	-0.252771	0.409992	0.534495	0.526287	-0.518887
54730	-9.552768	-1.052986	-0.805657	-0.043671	-0.384358	-0.176112	0.409858	0.534232	0.527074	-0.518465
54731	-9.627993	-1.787649	-1.395827	-0.677385	0.264708	0.052065	0.409498	0.534253	0.527278	-0.518520
54732	-9.582158	-1.563294	-1.351704	-0.458427	0.199129	-0.022951	0.407595	0.535723	0.525787	-0.520014
54733	-9.689106	-0.560241	-1.120147	0.517000	-0.171180	-0.058161	0.405046	0.537778	0.523714	-0.521974
54734	-9.946408	-0.480673	-1.090124	0.618502	-0.253438	0.182495	0.404420	0.538390	0.523333	-0.522210
54735	-9.941024	-1.054582	-1.508933	0.115400	0.231100	0.294056	0.403328	0.539491	0.522334	-0.522919
54736	-9.632871	-0.998784	-2.256384	0.261773	0.996877	0.077648	0.401492	0.541114	0.520612	-0.524368
54737	-9.659476	-1.543782	-1.421148	-0.396669	0.262094	0.060627	0.400371	0.542076	0.518915	-0.525912
54738	-9.377012	-1.331422	-1.154993	-0.251924	0.023082	-0.274814	0.399439	0.542735	0.517632	-0.527204
54739	-9.427301	-1.106597	-1.100814	-0.032375	-0.057931	-0.257274	0.399850	0.542407	0.517184	-0.527670
54740	-9.349535	-1.109740	-1.010409	-0.058130	-0.121703	-0.344422	0.400436	0.541976	0.517092	-0.527758
54741	-9.300639	-1.028735	-1.131441	0.037965	0.001326	-0.387248	0.400700	0.541646	0.516916	-0.528069
54742	-9.351039	-1.038568	-1.013317	0.016198	-0.111710	-0.350413	0.401268	0.540941	0.517341	-0.527945
54743	-9.420785	-1.310252	-1.047621	-0.235483	-0.040091	-0.246685	0.402483	0.539693	0.518292	-0.527363
54744	-9.529925	-1.487172	-1.282418	-0.360573	0.206560	-0.091418	0.404010	0.538240	0.519527	-0.526465
54745	-9.686000	-1.245732	-1.166331	-0.127021	0.044621	0.021571	0.405090	0.537197	0.520054	-0.526180
54746	-9.683091	-0.872542	-1.186725	0.243252	0.024560	-0.021257	0.406605	0.535775	0.520911	-0.525613
54747	-9.586249	-1.033966	-1.078785	0.059904	-0.032377	-0.110915	0.408318	0.534075	0.521924	-0.525010
54748	-9.571784	-1.326513	-1.106889	-0.222756	0.048884	-0.088909	0.409442	0.532828	0.522603	-0.524727
54749	-9.572701	-1.323712	-0.949058	-0.236778	-0.094322	-0.105754	0.409790	0.532176	0.522529	-0.525190
54750	-9.389217	-1.163588	-0.794945	-0.111111	-0.230957	-0.321767	0.409823	0.531777	0.522317	-0.525779
54751	-9.519291	-1.083897	-0.759535	-0.017137	-0.284056	-0.206041	0.409628	0.531587	0.522232	-0.526206
54752	-9.677491	-1.244802	-1.050836	-0.111225	0.007329	0.000324	0.409384	0.531465	0.522216	-0.526536
54753	-9.614832	-1.048514	-1.016736	0.078855	-0.041760	-0.087968	0.408647	0.531739	0.521747	-0.527296
54754	-9.625689	-1.069446	-0.955238	0.057291	-0.100549	-0.081465	0.408318	0.531780	0.521766	-0.527491
54755	-9.751540	-1.164220	-1.237083	0.022897	0.171835	0.084194	0.407957	0.531849	0.521748	-0.527718
54756	-9.600613	-1.094830	-1.226128	0.079961	0.170694	-0.074193	0.407557	0.531946	0.521489	-0.528185
54757	-9.635203	-1.032942	-1.079242	0.127723	0.015268	-0.063210	0.407464	0.531835	0.521540	-0.528319
54758	-9.624874	-1.194273	-1.196582	-0.010840	0.155296	-0.041707	0.407560	0.531539	0.521689	-0.528396
54759	-9.595098	-1.106669	-1.002132	0.047212	-0.040441	-0.102331	0.407645	0.531321	0.521671	-0.528567
54760	-9.635106	-1.088016	-0.897924	0.055979	-0.147629	-0.076138	0.407935	0.531041	0.521918	-0.528381
54761	-9.602848	-1.228686	-0.963888	-0.076165	-0.059932	-0.084170	0.408227	0.530762	0.522222	-0.528135
54762	-9.634769	-1.185402	-1.017506	-0.022998	-0.017272	-0.052132	0.408139	0.530889	0.522123	-0.528174
54763	-9.642307	-1.123176	-1.059992	0.043703	0.013851	-0.047592	0.408134	0.530991	0.522156	-0.528042
54764	-9.664999	-1.210579	-1.076320	-0.040081	0.038282	-0.013039	0.408445	0.530847	0.522236	-0.527867
54765	-9.568125	-1.153191	-1.017839	-0.005081	-0.014175	-0.121731	0.408638	0.530828	0.522284	-0.527689
54766	-9.673549	-1.178749	-1.098901	-0.011970	0.055943	-0.005991	0.409090	0.530658	0.522493	-0.527303
54767	-9.610528	-1.169264	-1.023847	-0.024451	-0.011108	-0.077342	0.409370	0.530601	0.522540	-0.527096
54768	-9.558251	-1.082990	-0.936336	0.038343	-0.101918	-0.148429	0.409761	0.530476	0.522726	-0.526735
54769	-9.570794	-1.154041	-0.995114	-0.027346	-0.038221	-0.121457	0.410169	0.530364	0.523019	-0.526238
54770	-9.602100	-1.160131	-1.043642	-0.028800	0.003245	-0.084657	0.410361	0.530423	0.523163	-0.525886
54771	-9.667305	-1.118239	-0.957680	0.001671	-0.098373	-0.034409	0.410644	0.530434	0.523377	-0.525441
54772	-9.578439	-1.193223	-1.158623	-0.059111	0.116004	-0.091796	0.410859	0.530497	0.523521	-0.525065
54773	-9.632068	-1.039521	-1.015627	0.072459	-0.054380	-0.072019	0.410939	0.530695	0.523551	-0.524773
54774	-9.603838	-1.086017	-1.053285	0.022870	-0.012293	-0.090451	0.411238	0.530725	0.523781	-0.524279
54775	-9.567298	-1.120229	-1.091202	-0.015729	0.028328	-0.118475	0.411274	0.530989	0.523862	-0.523902
54776	-9.604019	-1.039364	-1.067444	0.058400	-0.016401	-0.093983	0.411236	0.531288	0.523943	-0.523547
54777	-9.642434	-1.111309	-1.113320	-0.008650	0.025347	-0.042820	0.411282	0.531540	0.524099	-0.523099
54778	-9.676580	-1.143624	-1.239815	-0.026221	0.142690	0.008726	0.411218	0.531884	0.524075	-0.522824
54779	-9.588707	-0.953186	-1.201969	0.142186	0.088088	-0.103484	0.411230	0.532152	0.524029	-0.522588
54780	-9.643637	-1.030573	-1.255774	0.072556	0.139899	-0.034449	0.411547	0.532131	0.524254	-0.522134
54781	-9.569466	-1.116447	-1.206533	-0.030932	0.109563	-0.103728	0.411637	0.532265	0.524152	-0.522028
54782	-9.563596	-0.968732	-1.067534	0.091342	-0.045833	-0.141597	0.411698	0.532412	0.524141	-0.521842
54783	-9.649466	-1.112004	-1.155836	-0.034516	0.045395	-0.030998	0.411956	0.532398	0.524290	-0.521503
54784	-9.619756	-1.025779	-1.111643	0.037643	-0.006258	-0.074812	0.411944	0.532596	0.524143	-0.521457
54785	-9.564274	-0.921022	-1.075512	0.126953	-0.049081	-0.145122	0.412113	0.532656	0.524233	-0.521172
54786	-9.662238	-1.067279	-1.238527	0.009191	0.113456	-0.013763	0.412244	0.532722	0.524375	-0.520857
54787	-9.605531	-1.034828	-1.205773	0.028084	0.082523	-0.077011	0.412186	0.532931	0.524189	-0.520877
54788	-9.636298	-1.035672	-1.126647	0.016325	0.000296	-0.055643	0.412340	0.532966	0.524215	-0.520694
54789	-9.581736	-1.137139	-1.170478	-0.086563	0.063011	-0.093567	0.412518	0.532987	0.524146	-0.520600
54790	-9.547468	-0.969797	-1.078812	0.059955	-0.042725	-0.155925	0.412492	0.533170	0.524014	-0.520567
54791	-9.589848	-0.955119	-1.083667	0.075604	-0.046452	-0.115064	0.412710	0.533141	0.524156	-0.520281
54792	-9.600865	-1.026532	-1.164157	0.013313	0.037663	-0.087255	0.412757	0.533249	0.524203	-0.520085
54793	-9.622309	-0.978998	-1.104681	0.051297	-0.031566	-0.078009	0.412834	0.533313	0.524230	-0.519931
54794	-9.641107	-1.098749	-1.187795	-0.057124	0.059943	-0.037096	0.412861	0.533429	0.524274	-0.519746
54795	-9.602284	-0.929397	-1.159948	0.100063	0.015356	-0.096574	0.412801	0.533625	0.524121	-0.519746
54796	-9.634424	-0.937885	-1.186360	0.094977	0.036528	-0.060824	0.413007	0.533587	0.524314	-0.519428
54797	-9.608223	-1.067218	-1.307594	-0.021945	0.173385	-0.058910	0.413158	0.533553	0.524362	-0.519293
54798	-9.608720	-0.968814	-1.189723	0.057818	0.045868	-0.082523	0.413136	0.533670	0.524221	-0.519334
54799	-9.623213	-1.007170	-1.224026	0.023692	0.083228	-0.060182	0.413396	0.533544	0.524309	-0.519167
54800	-9.589485	-1.029069	-1.221932	-0.002700	0.090165	-0.091464	0.413379	0.533608	0.524105	-0.519320
54801	-9.655897	-0.900519	-1.135879	0.117771	-0.015862	-0.049318	0.413632	0.533457	0.524163	-0.519216
54802	-9.566447	-1.080745	-1.188241	-0.062734	0.071805	-0.112804	0.413917	0.533262	0.524169	-0.519184
54803	-9.630734	-0.968535	-1.132311	0.045407	-0.000662	-0.067475	0.414047	0.533204	0.524030	-0.519279
54804	-9.597601	-0.954832	-1.126599	0.054266	0.000314	-0.102284	0.414301	0.533032	0.524030	-0.519254
54805	-9.629449	-0.981911	-1.158702	0.033377	0.034707	-0.064318	0.414544	0.532869	0.524037	-0.519219
54806	-9.578875	-1.015807	-1.154777	-0.006215	0.044649	-0.111235	0.414743	0.532750	0.524002	-0.519218
54807	-9.638975	-0.955125	-1.153630	0.057957	0.032128	-0.058274	0.414829	0.532725	0.523871	-0.519308
54808	-9.632122	-0.978521	-1.130680	0.030363	0.017116	-0.065252	0.415113	0.532524	0.523859	-0.519299
54809	-9.586999	-1.058452	-1.169466	-0.048412	0.075101	-0.097208	0.415296	0.532401	0.523747	-0.519391
54810	-9.644583	-0.954034	-1.081408	0.047862	-0.026330	-0.061040	0.415463	0.532296	0.523642	-0.519471
54811	-9.563097	-0.978010	-1.032517	0.009983	-0.057201	-0.144593	0.415651	0.532181	0.523556	-0.519526
54812	-9.586566	-0.993179	-1.064558	0.000039	-0.024246	-0.116227	0.415734	0.532174	0.523536	-0.519487
54813	-9.660892	-0.972784	-1.099347	0.029909	-0.000245	-0.040952	0.415782	0.532206	0.523418	-0.519535
54814	-9.606036	-0.962170	-1.032748	0.025995	-0.058994	-0.103716	0.415795	0.532241	0.523348	-0.519558
54815	-9.636195	-0.988680	-1.089227	0.008600	-0.004181	-0.064864	0.415861	0.532239	0.523420	-0.519435
54816	-9.606302	-0.966141	-1.160843	0.036385	0.066688	-0.088683	0.415839	0.532301	0.523373	-0.519437
54817	-9.616169	-0.942492	-1.141220	0.057287	0.042764	-0.083542	0.415858	0.532322	0.523403	-0.519370
54818	-9.604410	-0.999470	-1.186452	0.004979	0.094811	-0.084261	0.415926	0.532287	0.523459	-0.519295
54819	-9.630488	-0.981849	-1.177738	0.023264	0.081054	-0.061262	0.415846	0.532368	0.523346	-0.519389
54820	-9.642118	-0.923819	-1.134478	0.075874	0.030813	-0.060549	0.415934	0.532308	0.523380	-0.519346
54821	-9.614104	-1.011362	-1.167607	-0.009058	0.078493	-0.075598	0.415999	0.532255	0.523334	-0.519395
54822	-9.618858	-0.942505	-1.101301	0.051019	0.006485	-0.085356	0.416042	0.532209	0.523295	-0.519447
54823	-9.634301	-0.965434	-1.123343	0.032733	0.030767	-0.065293	0.416186	0.532068	0.523348	-0.519422
54824	-9.626074	-0.953326	-1.121403	0.043858	0.030243	-0.074883	0.416347	0.531907	0.523428	-0.519378
54825	-9.628782	-0.955401	-1.079535	0.037051	-0.009630	-0.076663	0.416474	0.531762	0.523513	-0.519338
54826	-9.627458	-0.954426	-1.100158	0.040689	0.011680	-0.075777	0.416697	0.531543	0.523706	-0.519189
54827	-9.608522	-1.037000	-1.123626	-0.039361	0.047693	-0.083465	0.416863	0.531355	0.523819	-0.519134
54828	-9.636281	-0.985295	-1.091531	0.010683	0.007697	-0.064868	0.416901	0.531291	0.523862	-0.519126
54829	-9.620380	-0.944409	-1.078145	0.048658	-0.007439	-0.086249	0.416949	0.531207	0.523889	-0.519147
54830	-9.610814	-0.986036	-1.090401	0.008697	0.011034	-0.090096	0.417044	0.531100	0.524005	-0.519063
54831	-9.638768	-1.030262	-1.177877	-0.021111	0.099406	-0.048244	0.417055	0.531051	0.523990	-0.519119
54832	-9.620170	-0.946012	-1.078617	0.049106	-0.004699	-0.086250	0.416974	0.531077	0.523914	-0.519234
54833	-9.619283	-0.964111	-1.089739	0.033430	0.009342	-0.084047	0.417082	0.530941	0.524005	-0.519196
54834	-9.640413	-1.051794	-1.147351	-0.043452	0.074438	-0.047810	0.417119	0.530863	0.524034	-0.519215
54835	-9.577717	-0.959570	-1.076108	0.034073	0.002406	-0.127117	0.417082	0.530864	0.523973	-0.519306
54836	-9.652258	-0.959741	-1.101844	0.044576	0.019342	-0.050573	0.417114	0.530783	0.524046	-0.519289
54837	-9.618301	-1.038499	-1.093450	-0.036433	0.024665	-0.076985	0.417175	0.530678	0.524098	-0.519295
54838	-9.611398	-0.938082	-1.077905	0.060989	-0.000775	-0.095840	0.417103	0.530722	0.524059	-0.519347
54839	-9.634771	-0.919203	-1.110452	0.086261	0.026371	-0.071090	0.417229	0.530573	0.524199	-0.519257
54840	-9.605305	-1.060875	-1.157548	-0.049815	0.093003	-0.080466	0.417316	0.530435	0.524285	-0.519241
54841	-9.634733	-0.975236	-1.102767	0.031990	0.026814	-0.066226	0.417227	0.530443	0.524210	-0.519379
54842	-9.644824	-1.007782	-1.073135	-0.001582	0.001442	-0.056157	0.417308	0.530319	0.524248	-0.519403
54843	-9.615114	-0.986779	-1.141816	0.026089	0.072306	-0.080165	0.417333	0.530242	0.524223	-0.519487
54844	-9.614317	-0.963318	-1.024715	0.035749	-0.043436	-0.096209	0.417415	0.530124	0.524209	-0.519555
54845	-9.602704	-1.021457	-1.067308	-0.016588	0.008460	-0.097025	0.417480	0.530023	0.524246	-0.519569
54846	-9.606468	-0.971111	-1.012900	0.027737	-0.050394	-0.104446	0.417481	0.529965	0.524273	-0.519601
54847	-9.588429	-1.001055	-1.024749	-0.001198	-0.033500	-0.117892	0.417527	0.529887	0.524404	-0.519511
54848	-9.643169	-1.010761	-1.093026	0.003019	0.027238	-0.055316	0.417524	0.529856	0.524486	-0.519462
54849	-9.608824	-0.980548	-1.101418	0.031190	0.035391	-0.091480	0.417532	0.529828	0.524545	-0.519425
54850	-9.634823	-0.963497	-1.093189	0.049473	0.021695	-0.068444	0.417635	0.529724	0.524668	-0.519323
54851	-9.599430	-1.040457	-1.106435	-0.028033	0.047339	-0.094005	0.417718	0.529624	0.524778	-0.519248
54852	-9.617090	-1.011588	-1.097146	0.001279	0.032188	-0.080554	0.417705	0.529610	0.524841	-0.519209
54853	-9.615075	-0.992701	-1.128478	0.024266	0.060826	-0.081074	0.417649	0.529616	0.524822	-0.519266
54854	-9.616263	-0.994321	-1.108579	0.020965	0.041343	-0.081912	0.417668	0.529581	0.524852	-0.519257
54855	-9.616603	-1.013035	-1.100074	0.001782	0.034933	-0.080564	0.417672	0.529558	0.524880	-0.519249
54856	-9.612933	-1.028574	-1.153497	-0.007036	0.089787	-0.076729	0.417575	0.529638	0.524794	-0.519333
54857	-9.618460	-0.943195	-1.077428	0.069101	0.004713	-0.088468	0.417505	0.529670	0.524750	-0.519400
54858	-9.632304	-1.020033	-1.114341	-0.000335	0.047894	-0.062754	0.417483	0.529652	0.524780	-0.519406
54859	-9.633002	-1.003283	-1.104017	0.015687	0.035670	-0.064937	0.417440	0.529661	0.524761	-0.519452
54860	-9.624070	-0.973613	-1.112916	0.046198	0.042388	-0.075886	0.417392	0.529651	0.524755	-0.519505
54861	-9.576926	-1.013025	-1.049981	-0.003820	-0.009371	-0.125268	0.417429	0.529573	0.524815	-0.519495
54862	-9.639987	-1.034916	-1.118220	-0.010653	0.052874	-0.053184	0.417380	0.529588	0.524800	-0.519534
54863	-9.607095	-1.005982	-1.104857	0.014096	0.040617	-0.090181	0.417371	0.529550	0.524816	-0.519564
54864	-9.631442	-1.023993	-1.118147	0.000631	0.053233	-0.062782	0.417405	0.529511	0.524828	-0.519564
54865	-9.617465	-1.002384	-1.074890	0.015825	0.010402	-0.083585	0.417340	0.529544	0.524765	-0.519646
54866	-9.625584	-0.960756	-1.084208	0.059583	0.014284	-0.078897	0.417340	0.529504	0.524796	-0.519656
54867	-9.621448	-1.012464	-1.139172	0.015534	0.074924	-0.071579	0.417365	0.529448	0.524839	-0.519649
54868	-9.605619	-0.971483	-1.126220	0.053567	0.059804	-0.092933	0.417364	0.529421	0.524845	-0.519671
54869	-9.589896	-1.039171	-1.097877	-0.017570	0.041648	-0.104481	0.417412	0.529331	0.524912	-0.519657
54870	-9.640402	-0.986021	-1.108902	0.041785	0.041305	-0.058930	0.417355	0.529347	0.524835	-0.519764
54871	-9.626904	-0.983120	-1.056031	0.037684	-0.008879	-0.078340	0.417457	0.529212	0.524958	-0.519694
54872	-9.579534	-1.063962	-1.119724	-0.037930	0.069031	-0.109747	0.417478	0.529137	0.524997	-0.519715
54873	-9.659321	-0.960223	-1.078519	0.067968	0.007629	-0.046263	0.417391	0.529166	0.524962	-0.519791
54874	-9.648729	-1.019634	-1.101543	0.012026	0.039032	-0.047988	0.417579	0.528942	0.525101	-0.519727
54875	-9.590466	-1.086389	-1.204173	-0.045712	0.156283	-0.087422	0.417538	0.528923	0.525039	-0.519843
54876	-9.662494	-0.929170	-1.032754	0.096826	-0.036292	-0.051384	0.417501	0.528897	0.524884	-0.520055
54877	-9.597541	-1.039187	-1.104046	-0.007950	0.057568	-0.096297	0.417721	0.528649	0.524957	-0.520058
54878	-9.617853	-0.994600	-1.059172	0.033876	0.009002	-0.085769	0.417666	0.528618	0.524852	-0.520238
54879	-9.605328	-0.974900	-0.993407	0.045713	-0.054293	-0.107299	0.417774	0.528456	0.524914	-0.520255
54880	-9.592935	-1.069654	-1.038286	-0.041988	0.003255	-0.104710	0.417753	0.528372	0.524952	-0.520317
54881	-9.668301	-1.053366	-1.052551	-0.015538	0.007428	-0.030397	0.417751	0.528313	0.524961	-0.520370
54882	-9.630305	-1.033258	-0.986663	-0.006015	-0.054465	-0.077139	0.417719	0.528286	0.524948	-0.520437
54883	-9.622281	-1.040492	-0.976937	-0.014244	-0.062369	-0.085343	0.417689	0.528282	0.524985	-0.520427
54884	-9.594518	-1.002772	-1.016613	0.025730	-0.025053	-0.112557	0.417622	0.528328	0.524995	-0.520425
54885	-9.581890	-0.987946	-1.079970	0.047112	0.035620	-0.119829	0.417596	0.528332	0.525098	-0.520337
54886	-9.618873	-1.045581	-1.150345	0.002693	0.105150	-0.069577	0.417570	0.528303	0.525196	-0.520289
54887	-9.644426	-1.010826	-1.151477	0.040491	0.098925	-0.047894	0.417521	0.528305	0.525160	-0.520363
54888	-9.630856	-1.008031	-1.099158	0.036406	0.048663	-0.067228	0.417534	0.528250	0.525234	-0.520334
54889	-9.632006	-1.064129	-1.071580	-0.021444	0.027594	-0.063073	0.417539	0.528197	0.525253	-0.520364
54890	-9.589958	-1.040982	-1.068054	-0.001666	0.026920	-0.107485	0.417407	0.528245	0.525193	-0.520481
54891	-9.617828	-0.990372	-1.036791	0.048578	-0.012767	-0.088704	0.417362	0.528224	0.525201	-0.520531
54892	-9.621233	-1.090734	-1.094809	-0.041795	0.055046	-0.068374	0.417245	0.528257	0.525177	-0.520615
54893	-9.655635	-1.032692	-1.094393	0.020176	0.044614	-0.040633	0.417126	0.528313	0.525048	-0.520783
54894	-9.597559	-1.003731	-1.078675	0.042589	0.033546	-0.102836	0.417141	0.528244	0.525101	-0.520787
54895	-9.613542	-1.064301	-1.082575	-0.014382	0.043153	-0.080122	0.417206	0.528150	0.525116	-0.520817
54896	-9.597837	-1.077485	-1.061207	-0.030891	0.026418	-0.096518	0.417180	0.528149	0.525092	-0.520863
54897	-9.610245	-0.984627	-1.016234	0.057257	-0.029267	-0.099042	0.417121	0.528161	0.525051	-0.520939
54898	-9.622883	-1.078893	-1.064172	-0.028138	0.026926	-0.071290	0.417160	0.528097	0.525143	-0.520879
54899	-9.615840	-1.014227	-1.051513	0.034153	0.007487	-0.086563	0.417045	0.528160	0.525102	-0.520950
54900	-9.615082	-1.050519	-1.055054	-0.000863	0.014104	-0.083025	0.417062	0.528136	0.525196	-0.520865
54901	-9.623552	-1.087359	-1.173445	-0.021540	0.133127	-0.058002	0.416912	0.528240	0.525101	-0.520975
54902	-9.640073	-0.997648	-1.067097	0.056397	0.016174	-0.062736	0.416849	0.528264	0.525065	-0.521038
54903	-9.626969	-1.073271	-1.122155	-0.012049	0.080974	-0.061638	0.416896	0.528185	0.525102	-0.521043
54904	-9.586977	-1.014937	-1.095423	0.039569	0.054098	-0.110333	0.416776	0.528236	0.524963	-0.521228
54905	-9.655500	-0.987540	-1.088026	0.073643	0.036536	-0.046370	0.416766	0.528177	0.524998	-0.521260
54906	-9.691633	-1.111400	-1.033054	-0.050724	-0.006423	-0.003124	0.416908	0.527978	0.525046	-0.521300
54907	-9.538841	-1.128340	-1.032272	-0.080428	0.015222	-0.152381	0.416738	0.528056	0.524866	-0.521538
54908	-9.657857	-0.914533	-0.936234	0.131939	-0.116690	-0.068146	0.416586	0.528123	0.524792	-0.521666
54909	-9.607153	-1.102032	-1.025615	-0.046168	-0.001389	-0.088408	0.416810	0.527892	0.525019	-0.521492
54910	-9.583050	-1.049286	-1.012918	0.002821	-0.018069	-0.119312	0.416494	0.528120	0.524889	-0.521645
54911	-9.632069	-0.989518	-0.922603	0.056271	-0.121747	-0.086994	0.416522	0.528058	0.525041	-0.521533
54912	-9.600349	-1.100917	-1.116612	-0.032092	0.082868	-0.085527	0.416352	0.528157	0.525141	-0.521466
54913	-9.659556	-0.964486	-1.014405	0.096818	-0.043779	-0.052822	0.416200	0.528216	0.525201	-0.521469
54914	-9.594164	-1.058019	-1.080862	0.007733	0.036576	-0.100105	0.416181	0.528145	0.525478	-0.521276
54915	-9.582663	-1.118473	-1.108083	-0.048261	0.067823	-0.101903	0.416040	0.528172	0.525593	-0.521246
54916	-9.625483	-1.037278	-1.111329	0.038067	0.053179	-0.068117	0.415894	0.528221	0.525730	-0.521175
54917	-9.621397	-1.072716	-1.158229	0.009783	0.100611	-0.063160	0.415849	0.528182	0.525888	-0.521090
54918	-9.628693	-1.067674	-1.171930	0.018361	0.110335	-0.054995	0.415828	0.528128	0.526037	-0.521012
54919	-9.569863	-1.074438	-1.160066	0.005544	0.104859	-0.113645	0.415796	0.528104	0.526112	-0.520986
54920	-9.624522	-1.078978	-1.103484	0.000291	0.041929	-0.065302	0.415857	0.527987	0.526266	-0.520901
54921	-9.627176	-1.106221	-1.178649	-0.016311	0.118636	-0.051483	0.415938	0.527865	0.526356	-0.520868
54922	-9.605729	-1.091111	-1.124431	-0.009248	0.066867	-0.080250	0.415998	0.527760	0.526408	-0.520874
54923	-9.641903	-1.033498	-1.103009	0.049446	0.036126	-0.053216	0.416074	0.527643	0.526459	-0.520880
54924	-9.610052	-1.095340	-1.061584	-0.018968	0.007347	-0.082352	0.416153	0.527529	0.526496	-0.520895
54925	-9.616813	-1.107063	-1.082888	-0.026399	0.030108	-0.072065	0.416162	0.527472	0.526494	-0.520948
54926	-9.595584	-1.037580	-1.036333	0.035258	-0.020045	-0.105775	0.416188	0.527425	0.526510	-0.520958
54927	-9.618180	-1.108480	-1.062569	-0.029341	0.011444	-0.072761	0.416335	0.527296	0.526620	-0.520860
54928	-9.609912	-1.096269	-1.061893	-0.018162	0.010875	-0.082354	0.416379	0.527238	0.526655	-0.520849
54929	-9.592359	-1.089525	-1.071300	-0.011968	0.021835	-0.099424	0.416433	0.527189	0.526695	-0.520814
54930	-9.617219	-1.071044	-1.083202	0.009820	0.028822	-0.075622	0.416487	0.527164	0.526707	-0.520785
54931	-9.609415	-1.076676	-1.073246	0.001693	0.020882	-0.083787	0.416574	0.527118	0.526744	-0.520724
54932	-9.598083	-1.115979	-1.106488	-0.035007	0.059497	-0.087043	0.416623	0.527110	0.526752	-0.520685
54933	-9.617420	-1.014640	-1.092888	0.064898	0.033259	-0.080609	0.416600	0.527146	0.526669	-0.520750
54934	-9.595909	-1.052392	-1.031421	0.017406	-0.020258	-0.104335	0.416797	0.527016	0.526810	-0.520582
54935	-9.604889	-1.124551	-1.130508	-0.042084	0.084036	-0.076788	0.416835	0.527013	0.526834	-0.520530
54936	-9.612505	-1.020682	-1.043492	0.050458	-0.013843	-0.090127	0.416813	0.527042	0.526775	-0.520578
54937	-9.609808	-1.090751	-1.068501	-0.016476	0.018854	-0.082363	0.416935	0.526961	0.526881	-0.520455
54938	-9.614939	-1.154200	-1.104198	-0.075023	0.060418	-0.066447	0.416951	0.526974	0.526839	-0.520472
54939	-9.604188	-1.006535	-1.045077	0.062108	-0.012560	-0.099721	0.416888	0.527075	0.526773	-0.520487
54940	-9.657498	-1.032652	-1.124729	0.050146	0.061761	-0.035555	0.417004	0.527007	0.526882	-0.520352
54941	-9.614408	-1.133044	-1.117246	-0.055104	0.070504	-0.067901	0.417096	0.526971	0.526873	-0.520324
54942	-9.589757	-1.096022	-1.113956	-0.022002	0.066910	-0.096688	0.417018	0.527077	0.526754	-0.520400
54943	-9.614518	-0.980260	-1.026965	0.083866	-0.033638	-0.094336	0.417073	0.527057	0.526719	-0.520411
54944	-9.590780	-1.131063	-1.095783	-0.060183	0.053925	-0.093810	0.417257	0.526949	0.526843	-0.520248
54945	-9.618185	-1.095732	-1.075661	-0.025735	0.027532	-0.072783	0.417116	0.527095	0.526634	-0.520424
54946	-9.612172	-0.993873	-1.059972	0.071902	0.002574	-0.091577	0.417169	0.527109	0.526612	-0.520390
54947	-9.616371	-1.074288	-1.106682	-0.002704	0.057095	-0.073583	0.417262	0.527072	0.526643	-0.520321
54948	-9.612192	-1.045935	-1.053197	0.017715	0.002595	-0.086583	0.417304	0.527068	0.526583	-0.520353
54949	-9.640018	-1.029120	-1.023747	0.032879	-0.031190	-0.064095	0.417332	0.527074	0.526607	-0.520300
54950	-9.604349	-1.051050	-1.044335	0.009769	-0.004453	-0.094727	0.417391	0.527027	0.526653	-0.520254
54951	-9.586611	-1.098037	-1.047186	-0.038593	0.004718	-0.106818	0.417448	0.527010	0.526750	-0.520127
54952	-9.648167	-1.082143	-1.136001	-0.006942	0.082357	-0.038138	0.417377	0.527092	0.526689	-0.520163
54953	-9.604534	-1.013563	-1.047632	0.045712	-0.007477	-0.098277	0.417402	0.527091	0.526715	-0.520118
54954	-9.616351	-1.088232	-1.105836	-0.020576	0.055934	-0.072165	0.417446	0.527075	0.526774	-0.520038
54955	-9.610515	-1.059453	-1.074132	0.003199	0.021893	-0.084496	0.417343	0.527181	0.526665	-0.520124
54956	-9.593904	-1.034964	-1.073104	0.025316	0.019778	-0.103688	0.417363	0.527194	0.526701	-0.520058
54957	-9.592688	-1.051848	-1.086471	0.009570	0.033689	-0.101599	0.417316	0.527254	0.526718	-0.520018
54958	-9.614674	-1.103898	-1.124329	-0.035753	0.072529	-0.070094	0.417331	0.527263	0.526780	-0.519934
54959	-9.650653	-1.045245	-1.105189	0.022998	0.041987	-0.043000	0.417247	0.527351	0.526721	-0.519972
54960	-9.609777	-1.002980	-1.091068	0.058763	0.028032	-0.089520	0.417344	0.527291	0.526798	-0.519877
54961	-9.604585	-1.089229	-1.147990	-0.020810	0.094094	-0.079082	0.417383	0.527281	0.526797	-0.519857
54962	-9.635044	-1.001898	-1.094506	0.061614	0.028669	-0.064293	0.417460	0.527223	0.526835	-0.519816
54963	-9.601437	-1.097580	-1.076186	-0.038695	0.025568	-0.089093	0.417625	0.527079	0.526929	-0.519733
54964	-9.628317	-1.044175	-1.065480	0.015126	0.006636	-0.069497	0.417610	0.527108	0.526902	-0.519743
54965	-9.638602	-1.020840	-1.045152	0.036359	-0.017038	-0.064073	0.417746	0.527004	0.527000	-0.519641
54966	-9.603887	-1.079611	-1.046978	-0.025299	-0.005311	-0.091797	0.417786	0.526974	0.527085	-0.519552
54967	-9.603167	-1.060585	-1.059024	-0.005757	0.003023	-0.093266	0.417819	0.526976	0.527195	-0.519412
54968	-9.585357	-1.053331	-1.070723	0.000360	0.013918	-0.110377	0.417789	0.527021	0.527237	-0.519348
54969	-9.610830	-1.071611	-1.066621	-0.016376	0.006247	-0.083670	0.417731	0.527104	0.527315	-0.519231
54970	-9.617132	-1.027964	-1.100224	0.030752	0.030894	-0.078493	0.417589	0.527249	0.527321	-0.519192
54971	-9.616697	-1.027713	-1.104258	0.030975	0.031772	-0.078497	0.417532	0.527318	0.527404	-0.519083
54972	-9.613137	-1.079500	-1.141754	-0.016775	0.071745	-0.072262	0.417467	0.527402	0.527457	-0.518996
54973	-9.598840	-1.092905	-1.103755	-0.036585	0.034396	-0.089112	0.417357	0.527538	0.527482	-0.518922
54974	-9.638724	-1.061509	-1.139765	0.001892	0.059437	-0.049116	0.417289	0.527622	0.527466	-0.518906
54975	-9.591568	-1.026732	-1.095659	0.026041	0.016109	-0.104346	0.417168	0.527770	0.527437	-0.518884
54976	-9.631989	-1.067656	-1.114906	-0.009207	0.031860	-0.057841	0.417201	0.527781	0.527568	-0.518713
54977	-9.545440	-1.088561	-1.133524	-0.037124	0.060646	-0.139000	0.417113	0.527923	0.527531	-0.518676
54978	-9.631868	-0.975334	-1.128098	0.080972	0.029854	-0.066441	0.417030	0.528072	0.527560	-0.518561
54979	-9.647022	-1.069735	-1.138204	-0.011252	0.044917	-0.040137	0.417122	0.528044	0.527717	-0.518356
54980	-9.589114	-1.099858	-1.221735	-0.037801	0.135387	-0.084703	0.417022	0.528175	0.527690	-0.518331
54981	-9.647096	-1.032052	-1.141828	0.024453	0.041046	-0.043702	0.417017	0.528226	0.527652	-0.518322
54982	-9.606485	-1.050383	-1.223650	0.011222	0.128978	-0.072645	0.417121	0.528179	0.527679	-0.518259
54983	-9.601111	-1.075137	-1.183072	-0.019423	0.093042	-0.079863	0.417169	0.528178	0.527626	-0.518274
54984	-9.600528	-0.994726	-1.095573	0.049131	-0.000532	-0.098909	0.417173	0.528203	0.527547	-0.518326
54985	-9.599051	-1.047251	-1.108455	-0.001932	0.018961	-0.093283	0.417255	0.528156	0.527554	-0.518302
54986	-9.574255	-1.010476	-1.105280	0.031129	0.015386	-0.122080	0.417342	0.528098	0.527622	-0.518221
54987	-9.629866	-1.074307	-1.145306	-0.022852	0.054575	-0.055809	0.417438	0.528055	0.527677	-0.518132
54988	-9.623168	-1.007974	-1.131899	0.039619	0.035338	-0.071037	0.417571	0.527968	0.527750	-0.518039
54989	-9.607246	-1.001169	-1.120721	0.042376	0.025746	-0.088744	0.417814	0.527791	0.527934	-0.517835
54990	-9.614528	-1.029374	-1.133645	0.015584	0.041111	-0.077084	0.418044	0.527610	0.528067	-0.517699
54991	-9.589898	-1.046908	-1.122201	-0.005910	0.035617	-0.100829	0.418157	0.527508	0.528131	-0.517646
54992	-9.620193	-1.056617	-1.166880	-0.007763	0.077814	-0.064865	0.418304	0.527377	0.528224	-0.517566
54993	-9.611527	-1.080132	-1.167021	-0.031903	0.082769	-0.070911	0.418302	0.527385	0.528126	-0.517660
54994	-9.619192	-1.012658	-1.079841	0.025655	-0.009255	-0.080286	0.418336	0.527357	0.528060	-0.517728
54995	-9.584152	-1.053370	-1.089329	-0.016874	0.009810	-0.109502	0.418340	0.527367	0.528028	-0.517747
54996	-9.608817	-1.035099	-1.101149	0.004869	0.017047	-0.085766	0.418197	0.527503	0.527867	-0.517889
54997	-9.589419	-1.020740	-1.026949	0.008825	-0.055364	-0.114732	0.418057	0.527644	0.527756	-0.517971
54998	-9.634824	-1.018075	-1.094845	0.023614	0.004669	-0.062589	0.417928	0.527757	0.527719	-0.517997
54999	-9.599927	-1.023385	-1.104962	0.016421	0.018129	-0.095370	0.417823	0.527851	0.527681	-0.518026
55000	-9.605050	-0.997755	-1.148001	0.047448	0.055840	-0.088232	0.417653	0.527998	0.527614	-0.518080
55001	-9.645939	-1.004093	-1.164462	0.047392	0.066081	-0.045308	0.417549	0.528066	0.527616	-0.518093
55002	-9.642296	-1.002950	-1.207364	0.054142	0.107825	-0.044220	0.417478	0.528064	0.527625	-0.518143
55003	-9.585538	-1.011062	-1.172456	0.037962	0.081399	-0.103343	0.417449	0.528032	0.527621	-0.518203
55004	-9.610224	-1.048266	-1.176253	0.005251	0.086762	-0.074552	0.417486	0.527923	0.527682	-0.518222
55005	-9.629933	-1.021407	-1.144617	0.031526	0.051652	-0.061515	0.417470	0.527858	0.527649	-0.518335
55006	-9.589879	-1.053692	-1.110600	-0.006534	0.028196	-0.101424	0.417623	0.527630	0.527784	-0.518307
55007	-9.651488	-1.111991	-1.179833	-0.048976	0.096884	-0.026576	0.417692	0.527510	0.527810	-0.518347
55008	-9.591085	-1.038176	-1.096549	0.009812	0.016978	-0.103478	0.417731	0.527418	0.527733	-0.518488
55009	-9.616538	-1.038947	-1.096660	0.012300	0.016762	-0.078241	0.417930	0.527208	0.527839	-0.518432
55010	-9.602554	-1.150008	-1.151313	-0.091869	0.086633	-0.074046	0.418056	0.527053	0.527837	-0.518492
55011	-9.575204	-1.069596	-1.080172	-0.022334	0.014580	-0.117605	0.418022	0.527061	0.527667	-0.518682
55012	-9.652973	-1.071455	-1.063310	-0.018174	-0.008112	-0.042419	0.418124	0.526964	0.527614	-0.518753
55013	-9.602165	-1.106558	-1.058756	-0.058045	0.000333	-0.089332	0.418104	0.526990	0.527435	-0.518925
55014	-9.553807	-1.016683	-1.038949	0.023894	-0.020828	-0.148977	0.418017	0.527096	0.527292	-0.519032
55015	-9.656157	-1.061236	-1.132883	0.000476	0.064788	-0.032769	0.417972	0.527142	0.527232	-0.519082
55016	-9.596211	-1.066079	-1.139065	-0.009132	0.079221	-0.090810	0.417854	0.527255	0.527077	-0.519221
55017	-9.614917	-1.055292	-1.118911	0.001100	0.057097	-0.075698	0.417736	0.527378	0.526880	-0.519390
55018	-9.633077	-1.026047	-1.107987	0.030715	0.042492	-0.062106	0.417613	0.527497	0.526692	-0.519560
55019	-9.622317	-1.084903	-1.129433	-0.025434	0.073342	-0.064068	0.417539	0.527550	0.526499	-0.519760
55020	-9.608083	-1.026437	-1.102794	0.028700	0.045191	-0.087353	0.417421	0.527633	0.526283	-0.519990
55021	-9.650157	-1.051207	-1.104644	0.009420	0.048066	-0.042917	0.417438	0.527591	0.526121	-0.520182
55022	-9.609798	-1.063786	-1.078254	-0.009416	0.032023	-0.084307	0.417447	0.527584	0.525958	-0.520347
55023	-9.619411	-1.058532	-1.065599	-0.004139	0.021509	-0.076745	0.417411	0.527591	0.525762	-0.520567
55024	-9.622801	-1.006567	-1.029769	0.044072	-0.016553	-0.082853	0.417422	0.527552	0.525650	-0.520710
55025	-9.603299	-1.035120	-1.058708	0.018168	0.020243	-0.095952	0.417587	0.527378	0.525698	-0.520707
55026	-9.611233	-1.083147	-1.059968	-0.027809	0.028080	-0.082786	0.417654	0.527286	0.525689	-0.520755
55027	-9.617603	-0.978639	-0.992354	0.068499	-0.048890	-0.094986	0.417752	0.527168	0.525722	-0.520763
55028	-9.635047	-1.082807	-1.081062	-0.021778	0.049319	-0.057054	0.417943	0.526974	0.525864	-0.520662
55029	-9.610835	-1.065383	-1.067384	-0.007939	0.038233	-0.084328	0.417942	0.526932	0.525812	-0.520758
55030	-9.613403	-0.995293	-1.043090	0.059636	0.007647	-0.091960	0.418018	0.526809	0.525894	-0.520738
55031	-9.603555	-1.091690	-1.046722	-0.035086	0.023543	-0.090862	0.418074	0.526687	0.525977	-0.520734
55032	-9.603941	-1.111165	-1.037608	-0.054130	0.016890	-0.089324	0.418023	0.526676	0.525982	-0.520780
55033	-9.613586	-1.070577	-1.027002	-0.013623	0.000806	-0.085318	0.417930	0.526748	0.525920	-0.520844
55034	-9.608336	-1.060730	-0.986185	-0.008927	-0.040729	-0.095893	0.417884	0.526772	0.525960	-0.520818
55035	-9.610968	-1.105974	-1.053351	-0.045261	0.028505	-0.081265	0.417830	0.526821	0.526006	-0.520765
55036	-9.619967	-1.046313	-1.053852	0.014565	0.019882	-0.078802	0.417755	0.526890	0.525996	-0.520765
55037	-9.594490	-1.045453	-1.054132	0.012411	0.021700	-0.104043	0.417861	0.526839	0.526126	-0.520600
55038	-9.610482	-1.111688	-1.164747	-0.039458	0.134839	-0.069274	0.417971	0.526771	0.526253	-0.520452
55039	-9.617351	-1.024493	-1.090195	0.037710	0.050437	-0.079878	0.418004	0.526775	0.526262	-0.520412
55040	-9.652010	-1.018180	-1.083051	0.045402	0.038860	-0.047063	0.418272	0.526575	0.526435	-0.520225
55041	-9.624754	-1.051239	-1.103344	0.011126	0.066650	-0.068264	0.418588	0.526338	0.526618	-0.520024
55042	-9.628927	-1.077186	-1.156438	-0.009105	0.122985	-0.055705	0.418860	0.526127	0.526738	-0.519898
55043	-9.617489	-1.000508	-1.098625	0.057926	0.061496	-0.081452	0.419141	0.525899	0.526843	-0.519796
55044	-9.634442	-1.077422	-1.091779	-0.018305	0.063380	-0.057128	0.419522	0.525588	0.527034	-0.519609
55045	-9.610092	-1.094373	-1.078262	-0.039748	0.057705	-0.080819	0.419730	0.525419	0.527029	-0.519617
55046	-9.589202	-0.969550	-1.037156	0.076649	0.009680	-0.119260	0.419923	0.525248	0.527090	-0.519572
55047	-9.593501	-1.050545	-1.081931	0.001762	0.063958	-0.101592	0.420153	0.525048	0.527189	-0.519489
55048	-9.659802	-1.091889	-1.098284	-0.031222	0.078944	-0.029895	0.420266	0.524953	0.527164	-0.519519
55049	-9.645748	-1.086891	-1.063267	-0.031568	0.048935	-0.048010	0.420340	0.524900	0.527005	-0.519673
55050	-9.588801	-1.020691	-1.041848	0.026106	0.031745	-0.113683	0.420394	0.524865	0.526845	-0.519827
55051	-9.628404	-1.060588	-1.075420	-0.006024	0.068125	-0.066772	0.420530	0.524776	0.526777	-0.519875
55052	-9.622646	-1.067493	-1.041270	-0.017324	0.039622	-0.075274	0.420572	0.524735	0.526605	-0.520057
55053	-9.599176	-1.013860	-1.023359	0.031832	0.023046	-0.106102	0.420550	0.524762	0.526404	-0.520251
55054	-9.641359	-1.037914	-1.024883	0.012594	0.025962	-0.061656	0.420600	0.524714	0.526258	-0.520407
55055	-9.598381	-1.066613	-1.030428	-0.019035	0.043162	-0.100523	0.420646	0.524681	0.526109	-0.520554
55056	-9.624495	-1.030718	-1.027546	0.018910	0.037674	-0.078862	0.420712	0.524619	0.525963	-0.520710
55057	-9.634731	-1.043374	-1.004739	0.004991	0.019519	-0.069702	0.420856	0.524493	0.525881	-0.520804
55058	-9.602606	-1.067439	-0.979796	-0.024807	0.004762	-0.101414	0.420954	0.524421	0.525795	-0.520885
55059	-9.643694	-1.054073	-1.000798	-0.005589	0.022738	-0.060101	0.421091	0.524330	0.525740	-0.520920
55060	-9.622258	-1.018991	-0.953649	0.021127	-0.021790	-0.089791	0.421205	0.524264	0.525640	-0.520995
55061	-9.609767	-1.056800	-1.005222	-0.012585	0.036921	-0.092945	0.421442	0.524112	0.525729	-0.520867
55062	-9.641973	-1.012284	-1.035683	0.036884	0.060926	-0.062819	0.421583	0.524021	0.525696	-0.520877
55063	-9.635109	-1.035631	-1.013991	0.009532	0.045250	-0.069285	0.421873	0.523822	0.525776	-0.520762
55064	-9.648089	-1.073312	-1.066711	-0.021809	0.103062	-0.047218	0.422084	0.523684	0.525730	-0.520777
55065	-9.622412	-1.010541	-0.965294	0.025532	0.003088	-0.089358	0.422259	0.523575	0.525656	-0.520819
55066	-9.632181	-1.058161	-0.945221	-0.023620	-0.009586	-0.076600	0.422393	0.523490	0.525599	-0.520853
55067	-9.616447	-1.051319	-0.931575	-0.020754	-0.019288	-0.094233	0.422483	0.523469	0.525501	-0.520900
55068	-9.615589	-1.013039	-0.949512	0.017981	-0.003332	-0.097389	0.422495	0.523526	0.525384	-0.520951
55069	-9.641616	-1.030380	-0.941568	0.001402	-0.010883	-0.070568	0.422471	0.523604	0.525241	-0.521036
55070	-9.631469	-1.051946	-0.963551	-0.019525	0.014384	-0.076178	0.422428	0.523714	0.525187	-0.521016
55071	-9.646040	-1.054982	-0.997372	-0.018744	0.046247	-0.058132	0.422353	0.523875	0.525014	-0.521088
55072	-9.577394	-0.949630	-0.904769	0.067331	-0.048345	-0.146250	0.422205	0.524067	0.524814	-0.521217
55073	-9.621711	-1.034823	-0.986774	-0.004724	0.035900	-0.085376	0.422305	0.524049	0.524928	-0.521039
55074	-9.668261	-1.049358	-1.044870	-0.009300	0.088895	-0.032085	0.422218	0.524175	0.524805	-0.521106
55075	-9.633697	-0.975081	-0.946482	0.049002	-0.012528	-0.083753	0.422225	0.524205	0.524805	-0.521071
55076	-9.644404	-1.048328	-1.024992	-0.014385	0.071158	-0.057747	0.422256	0.524233	0.524787	-0.521036
55077	-9.614574	-0.965162	-0.978481	0.058573	0.019641	-0.100572	0.422305	0.524247	0.524793	-0.520976
55078	-9.632847	-0.977632	-1.074736	0.057882	0.114432	-0.071737	0.422521	0.524072	0.524927	-0.520842
55079	-9.668690	-1.008520	-1.047431	0.027155	0.087936	-0.035708	0.422638	0.523968	0.524959	-0.520820
55080	-9.633009	-0.988163	-0.959552	0.034104	0.004783	-0.081764	0.422804	0.523800	0.525011	-0.520801
55081	-9.615126	-1.017545	-0.969509	0.004947	0.020980	-0.095408	0.422942	0.523631	0.525154	-0.520715
55082	-9.642839	-1.001831	-0.939573	0.020513	-0.012428	-0.072552	0.423005	0.523522	0.525204	-0.520723
55083	-9.628220	-0.997996	-0.907357	0.020249	-0.042540	-0.090564	0.423121	0.523358	0.525366	-0.520629
55084	-9.643127	-1.021915	-0.931396	0.001691	-0.018144	-0.070954	0.423181	0.523229	0.525502	-0.520574
55085	-9.602042	-1.035775	-0.910299	-0.017070	-0.034560	-0.112213	0.423173	0.523170	0.525672	-0.520467
55086	-9.637468	-0.978722	-0.892596	0.042095	-0.064234	-0.084917	0.423120	0.523122	0.525856	-0.520373
55087	-9.580529	-1.084322	-0.960262	-0.058968	0.015947	-0.123484	0.423060	0.523094	0.526065	-0.520239
55088	-9.666379	-1.028078	-0.947809	0.005030	-0.015426	-0.045708	0.422764	0.523270	0.526094	-0.520273
55089	-9.621377	-1.076445	-0.973024	-0.042700	0.014557	-0.082612	0.422619	0.523313	0.526285	-0.520156
55090	-9.636413	-1.029799	-0.998101	0.009375	0.028135	-0.070189	0.422240	0.523562	0.526260	-0.520237
55091	-9.588609	-0.997341	-0.957243	0.033702	-0.015712	-0.125013	0.422130	0.523607	0.526506	-0.520031
55092	-9.633168	-1.128479	-1.130169	-0.071944	0.157360	-0.049556	0.421979	0.523680	0.526724	-0.519860
55093	-9.662814	-1.042698	-1.081563	0.010999	0.092776	-0.034229	0.421809	0.523811	0.526747	-0.519843
55094	-9.618643	-1.011443	-0.997157	0.029059	0.007994	-0.089790	0.421728	0.523830	0.526869	-0.519766
55095	-9.622368	-1.093510	-1.046906	-0.045886	0.062045	-0.072267	0.421762	0.523783	0.527051	-0.519601
55096	-9.638812	-1.027990	-1.058298	0.022231	0.062791	-0.061840	0.421585	0.523896	0.527010	-0.519673
55097	-9.622691	-0.926355	-0.950382	0.110170	-0.053997	-0.099681	0.421655	0.523782	0.527216	-0.519521
55098	-9.644853	-1.094541	-1.078166	-0.039571	0.084388	-0.046677	0.421797	0.523604	0.527503	-0.519295
55099	-9.632309	-1.056195	-1.025251	-0.007736	0.028347	-0.068602	0.421712	0.523606	0.527510	-0.519354
55100	-9.596977	-0.948349	-0.945638	0.089162	-0.058011	-0.123299	0.421473	0.523672	0.527514	-0.519477
55101	-9.633545	-0.875608	-0.917195	0.164401	-0.100546	-0.097957	0.421259	0.523716	0.527666	-0.519453
55102	-9.640692	-1.041813	-1.014584	0.014169	0.006719	-0.062946	0.421175	0.523622	0.527981	-0.519296
55103	-9.595628	-1.056314	-1.038330	0.001736	0.031226	-0.103464	0.420798	0.523723	0.528159	-0.519318
55104	-9.578949	-1.019501	-1.031541	0.039962	0.016141	-0.124661	0.420481	0.523796	0.528410	-0.519246
55105	-9.537284	-1.061741	-1.110690	0.006705	0.095994	-0.152902	0.420167	0.523851	0.528706	-0.519144
55106	-9.666994	-1.077836	-1.171859	0.014514	0.135347	-0.016401	0.419797	0.523946	0.528952	-0.519096
55107	-9.653372	-1.133128	-1.117187	-0.043372	0.082566	-0.029489	0.419680	0.523828	0.529242	-0.519014
55108	-9.654129	-1.192358	-1.093694	-0.100805	0.060796	-0.024621	0.419503	0.523798	0.529468	-0.518957
55109	-9.556345	-1.160275	-1.045968	-0.081387	0.018621	-0.129865	0.419400	0.523783	0.529589	-0.518933
55110	-9.609700	-1.110764	-1.021511	-0.027960	-0.020849	-0.085283	0.419245	0.523817	0.529827	-0.518779
55111	-9.594686	-1.133192	-1.089436	-0.042629	0.045160	-0.090284	0.419079	0.523879	0.529960	-0.518715
55112	-9.638166	-1.099129	-0.982905	-0.015178	-0.073890	-0.062675	0.418855	0.524030	0.530117	-0.518583
55113	-9.584951	-1.260757	-0.983318	-0.180306	-0.057585	-0.097139	0.418732	0.524157	0.530288	-0.518380
55114	-9.563205	-1.226031	-0.946405	-0.153425	-0.102223	-0.126629	0.418400	0.524545	0.530335	-0.518208
55115	-9.436960	-1.121967	-1.043183	-0.054837	-0.009525	-0.252345	0.418072	0.524990	0.530273	-0.518084
55116	-9.543231	-0.925437	-1.022737	0.144609	-0.071909	-0.171651	0.417787	0.525398	0.530468	-0.517701
55117	-9.803123	-1.133730	-1.215447	-0.018047	0.095820	0.129865	0.418012	0.525324	0.531028	-0.517021
55118	-9.552920	-1.220177	-1.154921	-0.138431	0.066681	-0.114371	0.417787	0.525666	0.531081	-0.516800
55119	-9.644343	-1.046687	-1.019384	0.023772	-0.104768	-0.058893	0.417465	0.526147	0.531133	-0.516517
55120	-9.473357	-1.013712	-1.211967	0.056647	0.092609	-0.209086	0.417395	0.526392	0.531472	-0.515976
55121	-9.607445	-1.049953	-1.313171	0.040516	0.166944	-0.060750	0.417257	0.526693	0.531783	-0.515458
55122	-9.699929	-1.116478	-1.400369	-0.010672	0.236835	0.048345	0.417132	0.526948	0.531976	-0.515101
55123	-9.711095	-1.217761	-1.362867	-0.117455	0.201300	0.066148	0.417037	0.527219	0.531941	-0.514936
55124	-9.521814	-1.190386	-1.305927	-0.118845	0.163552	-0.130408	0.416816	0.527669	0.531648	-0.514956
55125	-9.580531	-1.046172	-1.246579	0.018096	0.080147	-0.095267	0.416600	0.528167	0.531345	-0.514934
55126	-9.586506	-0.989648	-1.196746	0.063406	0.021840	-0.101447	0.416590	0.528483	0.531159	-0.514810
55127	-9.576199	-1.053146	-1.130346	-0.013662	-0.038674	-0.112754	0.416672	0.528700	0.531128	-0.514553
55128	-9.527578	-1.145990	-1.187937	-0.109704	0.029655	-0.143855	0.416648	0.529041	0.531052	-0.514299
55129	-9.608256	-0.981108	-1.163725	0.052071	-0.026380	-0.084789	0.416342	0.529640	0.530743	-0.514250
55130	-9.685937	-0.859070	-1.245807	0.183165	0.026854	-0.010997	0.416400	0.529891	0.530751	-0.513936
55131	-9.594071	-0.945775	-1.309049	0.090346	0.105902	-0.084639	0.416499	0.530045	0.530805	-0.513641
55132	-9.685010	-0.885509	-1.258211	0.148293	0.033986	-0.007409	0.416543	0.530158	0.530867	-0.513424
55133	-9.643492	-0.940868	-1.166768	0.076629	-0.047917	-0.053827	0.416644	0.530162	0.530985	-0.513217
55134	-9.577557	-0.987862	-1.145408	0.020090	-0.058456	-0.116626	0.416655	0.530183	0.531152	-0.513013
55135	-9.582646	-1.034345	-1.174871	-0.022817	-0.030284	-0.103112	0.416512	0.530308	0.531305	-0.512842
55136	-9.581190	-1.043024	-1.265520	-0.021193	0.054085	-0.092334	0.416063	0.530688	0.531228	-0.512892
55137	-9.640490	-0.941427	-1.190879	0.077389	-0.044232	-0.053815	0.415669	0.530974	0.531252	-0.512891
55138	-9.604067	-1.109901	-1.202365	-0.090489	-0.017720	-0.070657	0.415410	0.531183	0.531355	-0.512777
55139	-9.556377	-1.183852	-1.166481	-0.171993	-0.045766	-0.114499	0.415136	0.531428	0.531444	-0.512654
55140	-9.513340	-1.221503	-1.245542	-0.205392	0.033981	-0.142954	0.414802	0.531840	0.531479	-0.512460
55141	-9.531933	-1.047154	-1.239594	-0.034423	-0.001447	-0.143681	0.414239	0.532503	0.531290	-0.512422
55142	-9.583245	-0.902608	-1.093975	0.092932	-0.177195	-0.127130	0.413855	0.533034	0.531301	-0.512171
55143	-9.584241	-1.052661	-1.156227	-0.052821	-0.112595	-0.102531	0.413710	0.533388	0.531604	-0.511604
55144	-9.564810	-1.042795	-1.179594	-0.046894	-0.101925	-0.119811	0.413295	0.533936	0.531785	-0.511179
55145	-9.530514	-1.045830	-1.183461	-0.057346	-0.109484	-0.152992	0.412852	0.534575	0.532057	-0.510586
55146	-9.611894	-0.991188	-1.430977	0.027291	0.097184	-0.044963	0.412309	0.535283	0.532328	-0.510000
55147	-9.577185	-0.958131	-1.435336	0.051975	0.084206	-0.081765	0.411903	0.535880	0.532593	-0.509424
55148	-9.545795	-0.934870	-1.344855	0.056129	-0.019632	-0.127583	0.411533	0.536440	0.532863	-0.508852
55149	-9.547121	-0.950365	-1.334595	0.034094	-0.046716	-0.126177	0.411262	0.536888	0.533395	-0.508040
55150	-9.546086	-0.974457	-1.409127	0.013481	0.009510	-0.114097	0.410918	0.537377	0.533840	-0.507333
55151	-9.545046	-0.962881	-1.482017	0.028068	0.060433	-0.105632	0.410551	0.537901	0.534294	-0.506596
55152	-9.582893	-0.929150	-1.517398	0.063401	0.065963	-0.066444	0.410248	0.538358	0.534783	-0.505840
55153	-9.544885	-0.975837	-1.607930	0.018963	0.147185	-0.085382	0.410130	0.538647	0.535350	-0.505027
55154	-9.564791	-0.961631	-1.586263	0.026338	0.104839	-0.070281	0.410149	0.538819	0.535923	-0.504221
55155	-9.573597	-0.978808	-1.646217	0.010791	0.149685	-0.050550	0.410366	0.538816	0.536584	-0.503344
55156	-9.594369	-0.928649	-1.619568	0.053521	0.102122	-0.039050	0.410450	0.538878	0.537150	-0.502604
55157	-9.601615	-0.937203	-1.749642	0.055433	0.217587	-0.010638	0.410577	0.538883	0.537671	-0.501938
55158	-9.489586	-0.894638	-1.575314	0.064853	0.051216	-0.152077	0.410679	0.538930	0.538067	-0.501379
55159	-9.456181	-1.032030	-1.631573	-0.072547	0.114737	-0.162400	0.410854	0.538920	0.538638	-0.500633
55160	-9.552917	-1.045810	-1.554034	-0.091298	0.012719	-0.078292	0.410815	0.539102	0.538964	-0.500118
55161	-9.532547	-0.972895	-1.518047	-0.029114	-0.037233	-0.111234	0.410804	0.539288	0.539373	-0.499485
55162	-9.555876	-1.003702	-1.652585	-0.049090	0.081268	-0.063627	0.410843	0.539476	0.539792	-0.498796
55163	-9.529312	-0.927396	-1.658310	0.019245	0.072328	-0.096092	0.410773	0.539740	0.540116	-0.498218
55164	-9.570236	-0.902222	-1.613853	0.036954	0.007378	-0.065560	0.410878	0.539866	0.540579	-0.497492
55165	-9.538432	-0.949602	-1.657167	-0.013710	0.047498	-0.085037	0.410829	0.540094	0.540938	-0.496894
55166	-9.500470	-0.958820	-1.739255	-0.023121	0.123344	-0.107662	0.410827	0.540323	0.541301	-0.496252
55167	-9.535586	-0.958414	-1.789563	-0.020171	0.154516	-0.064652	0.410599	0.540728	0.541456	-0.495830
55168	-9.557853	-0.926758	-1.865918	0.015992	0.212498	-0.032726	0.410482	0.541044	0.541577	-0.495450
55169	-9.504341	-0.851375	-1.767436	0.072229	0.111533	-0.108899	0.410361	0.541335	0.541572	-0.495238
55170	-9.484812	-0.912222	-1.786403	0.007498	0.132695	-0.119011	0.410535	0.541405	0.541840	-0.494723
55171	-9.490212	-0.982061	-1.756477	-0.069082	0.103094	-0.112255	0.410415	0.541700	0.541748	-0.494601
55172	-9.516093	-0.898595	-1.698791	0.005988	0.029783	-0.104522	0.410300	0.542005	0.541726	-0.494386
55173	-9.570356	-0.913905	-1.683188	-0.011010	0.001255	-0.052568	0.410278	0.542249	0.541686	-0.494181
55174	-9.481424	-0.914283	-1.706156	-0.020483	0.035863	-0.135778	0.410300	0.542450	0.541692	-0.493934
55175	-9.530992	-0.837726	-1.715763	0.055251	0.024861	-0.092515	0.410345	0.542636	0.541781	-0.493596
55176	-9.535572	-0.870106	-1.798039	0.026500	0.103093	-0.070725	0.410531	0.542705	0.541893	-0.493242
55177	-9.491528	-0.841042	-1.699904	0.036532	0.008790	-0.133601	0.410760	0.542739	0.542067	-0.492823
55178	-9.539775	-0.905631	-1.832400	-0.016455	0.132082	-0.057307	0.410989	0.542775	0.542182	-0.492465
55179	-9.469313	-0.751575	-1.730868	0.116143	0.030535	-0.157936	0.411142	0.542835	0.542185	-0.492268
55180	-9.527564	-0.830106	-1.748814	0.039677	0.042121	-0.090622	0.411463	0.542728	0.542456	-0.491819
55181	-9.564047	-0.875586	-1.739860	-0.006938	0.028459	-0.052364	0.411441	0.542833	0.542395	-0.491789
55182	-9.418293	-0.770232	-1.575882	0.068682	-0.116155	-0.233403	0.411499	0.542911	0.542475	-0.491566
55183	-9.574784	-0.990869	-1.737182	-0.126680	0.026951	-0.032128	0.411550	0.543003	0.542679	-0.491196
55184	-9.577110	-0.891901	-1.664242	-0.038029	-0.058358	-0.051469	0.411256	0.543371	0.542521	-0.491211
55185	-9.467500	-0.807597	-1.647857	0.033697	-0.066964	-0.169266	0.411181	0.543585	0.542648	-0.490896
55186	-9.509733	-0.899482	-1.763650	-0.046804	0.039416	-0.099254	0.411126	0.543791	0.542771	-0.490579
55187	-9.490116	-0.890056	-1.778767	-0.040840	0.050055	-0.116588	0.410919	0.544136	0.542778	-0.490361
55188	-9.521885	-0.817487	-1.840527	0.035719	0.091622	-0.080656	0.410812	0.544418	0.542815	-0.490096
55189	-9.514266	-0.856500	-1.838927	-0.007611	0.088443	-0.084964	0.410733	0.544667	0.542859	-0.489836
55190	-9.523313	-0.785313	-1.780469	0.054103	0.017472	-0.092757	0.410653	0.544901	0.542931	-0.489563
55191	-9.484045	-0.893964	-1.819928	-0.056326	0.066402	-0.114706	0.410611	0.545100	0.543033	-0.489265
55192	-9.504049	-0.817781	-1.847924	0.019971	0.076826	-0.096503	0.410333	0.545508	0.542980	-0.489101
55193	-9.500899	-0.796533	-1.864964	0.039285	0.085244	-0.098222	0.410201	0.545783	0.543022	-0.488859
55194	-9.480137	-0.813986	-1.838110	0.014735	0.058508	-0.121940	0.410072	0.546037	0.543025	-0.488680
55195	-9.565413	-0.814272	-1.891610	0.022689	0.088877	-0.028520	0.409935	0.546280	0.543076	-0.488466
55196	-9.519506	-0.760831	-1.855029	0.066260	0.052385	-0.084694	0.409917	0.546418	0.543122	-0.488277
55197	-9.453008	-0.807279	-1.946150	0.021972	0.154365	-0.128977	0.409937	0.546505	0.543226	-0.488046
55198	-9.501151	-0.794389	-1.915960	0.032077	0.111564	-0.088472	0.410068	0.546521	0.543319	-0.487816
55199	-9.497834	-0.799637	-1.887399	0.021075	0.082728	-0.096554	0.410189	0.546493	0.543445	-0.487604
55200	-9.473309	-0.806883	-1.833071	0.004387	0.034139	-0.130043	0.410423	0.546382	0.543562	-0.487402
55201	-9.508893	-0.807743	-1.778327	-0.001976	-0.027120	-0.105309	0.410599	0.546313	0.543725	-0.487149
55202	-9.463361	-0.816746	-1.795178	-0.014778	-0.003075	-0.146007	0.410739	0.546265	0.543883	-0.486908
55203	-9.501237	-0.774497	-1.771705	0.025467	-0.039865	-0.116810	0.410808	0.546246	0.544089	-0.486640
55204	-9.443769	-0.744688	-1.754292	0.047733	-0.052171	-0.178795	0.410905	0.546210	0.544333	-0.486326
55205	-9.493980	-0.786933	-1.815249	0.012685	-0.004726	-0.114756	0.411000	0.546158	0.544737	-0.485852
55206	-9.499604	-0.850135	-1.838679	-0.049659	0.015571	-0.099642	0.411064	0.546130	0.545027	-0.485504
55207	-9.497731	-0.813485	-1.749210	-0.023532	-0.081490	-0.121393	0.411025	0.546197	0.545366	-0.485080
55208	-9.513223	-0.737592	-1.799225	0.055697	-0.050396	-0.103052	0.410980	0.546244	0.545755	-0.484628
55209	-9.442001	-0.757960	-1.767255	0.026199	-0.076041	-0.177201	0.410966	0.546255	0.546244	-0.484077
55210	-9.521190	-0.784703	-1.807320	0.006691	-0.062492	-0.089969	0.410832	0.546358	0.546764	-0.483487
55211	-9.533311	-0.824416	-1.932504	-0.021944	0.047002	-0.050743	0.410646	0.546469	0.547269	-0.482948
55212	-9.418658	-0.778560	-1.848401	0.008179	-0.028836	-0.182893	0.410334	0.546688	0.547655	-0.482528
55213	-9.427701	-0.685926	-1.743315	0.091078	-0.155036	-0.202337	0.410031	0.546896	0.548233	-0.481892
55214	-9.482765	-0.768210	-1.779175	0.014629	-0.143384	-0.135000	0.409884	0.546981	0.549058	-0.480981
55215	-9.548211	-0.853997	-1.850934	-0.061663	-0.100541	-0.050021	0.409540	0.547202	0.549757	-0.480222
55216	-9.528173	-0.900181	-2.137869	-0.085534	0.165119	-0.007981	0.409280	0.547337	0.550670	-0.479245
55217	-9.581900	-0.715953	-2.238940	0.110715	0.220704	0.050236	0.408538	0.547816	0.550853	-0.479118
55218	-9.290342	-0.472176	-1.809376	0.299436	-0.169740	-0.342273	0.408271	0.547885	0.551590	-0.478420
55219	-9.473318	-0.802159	-2.133809	0.009797	0.112197	-0.069605	0.408545	0.547491	0.552857	-0.477172
55220	-9.450307	-0.931532	-2.127620	-0.120623	0.100748	-0.082421	0.408053	0.547658	0.553517	-0.476636
55221	-9.494986	-0.758183	-1.972516	0.045712	-0.090076	-0.085910	0.407431	0.547934	0.554098	-0.476176
55222	-9.612788	-0.840711	-1.991623	-0.023503	-0.111372	0.039524	0.406990	0.548058	0.554854	-0.475530
55223	-9.417166	-0.839355	-2.225699	-0.013592	0.140083	-0.100766	0.406524	0.548175	0.555572	-0.474955
55224	-9.418931	-0.791926	-2.209228	0.035020	0.102574	-0.106384	0.406204	0.548220	0.556318	-0.474303
55225	-9.326478	-0.914230	-2.367113	-0.079495	0.266805	-0.151182	0.406027	0.548176	0.557136	-0.473544
55226	-9.287694	-0.869605	-2.297623	-0.041837	0.189338	-0.207536	0.405607	0.548349	0.557627	-0.473126
55227	-9.372902	-0.832083	-2.297038	0.003371	0.151808	-0.127804	0.405227	0.548493	0.558205	-0.472603
55228	-9.362189	-0.833581	-2.182741	-0.005918	0.028551	-0.163391	0.404852	0.548669	0.558621	-0.472228
55229	-9.538488	-0.854003	-2.206860	-0.010529	-0.002390	0.014935	0.404411	0.548897	0.559150	-0.471715
55230	-9.531911	-0.941538	-2.557773	-0.069694	0.330949	0.095472	0.404115	0.549002	0.559521	-0.471406
55231	-9.362889	-0.745512	-2.364689	0.101470	0.161773	-0.128951	0.403571	0.549328	0.559562	-0.471445
55232	-9.280695	-0.837699	-2.151863	-0.011487	-0.029819	-0.249083	0.403617	0.549250	0.560123	-0.470829
55233	-9.387294	-1.052752	-2.387161	-0.200788	0.175365	-0.073230	0.403384	0.549381	0.560462	-0.470472
55234	-9.461997	-0.779483	-2.188373	0.063021	-0.060754	-0.070086	0.402690	0.549883	0.560389	-0.470567
55235	-9.336188	-0.782621	-2.245948	0.056692	0.014879	-0.178491	0.402481	0.550038	0.560709	-0.470183
55236	-9.277282	-0.898078	-2.243676	-0.062471	0.022656	-0.226022	0.402061	0.550351	0.560886	-0.469965
55237	-9.322530	-0.935048	-2.121373	-0.104952	-0.116975	-0.207512	0.401545	0.550768	0.561115	-0.469645
55238	-9.407506	-0.939840	-2.242706	-0.094043	-0.034499	-0.096507	0.400821	0.551388	0.561217	-0.469414
55239	-9.438892	-0.595310	-2.312064	0.257076	-0.011039	-0.079934	0.400128	0.551946	0.561345	-0.469197
55240	-9.301502	-0.835387	-2.168314	-0.004028	-0.118429	-0.226065	0.400118	0.551968	0.562069	-0.468312
55241	-9.299140	-1.022783	-2.374313	-0.176411	0.074232	-0.162776	0.399437	0.552513	0.562432	-0.467813
55242	-9.243080	-0.667353	-2.148776	0.156670	-0.171101	-0.302521	0.398385	0.553335	0.562519	-0.467634
55243	-9.215439	-0.795524	-2.016647	0.016946	-0.306909	-0.350685	0.397831	0.553779	0.563231	-0.466723
55244	-9.407113	-0.991966	-2.099575	-0.158718	-0.292334	-0.128925	0.396686	0.554605	0.563875	-0.465938
55245	-9.493700	-0.537891	-2.257160	0.314769	-0.223677	-0.047176	0.395069	0.555730	0.564291	-0.465468
55246	-9.377753	-0.584153	-2.131019	0.251967	-0.349198	-0.187763	0.394412	0.556117	0.565596	-0.463976
55247	-9.458677	-1.236156	-2.496774	-0.363901	-0.020424	0.041019	0.393813	0.556432	0.567186	-0.462164
55248	-9.481035	-1.038501	-2.937650	-0.129696	0.343991	0.160426	0.392092	0.557587	0.567780	-0.461504
55249	-9.329315	-0.643571	-2.526019	0.224647	-0.071001	-0.128914	0.390725	0.558515	0.568324	-0.460873
55250	-9.205062	-0.927876	-2.672812	-0.056220	0.085309	-0.183177	0.390458	0.558657	0.569811	-0.459087
55251	-9.221621	-1.172927	-3.134964	-0.265509	0.502574	-0.018869	0.389459	0.559353	0.570572	-0.458142
55252	-9.275932	-0.805978	-3.042152	0.100118	0.346476	-0.024069	0.387850	0.560481	0.570686	-0.457985
55253	-9.107741	-0.610307	-2.876133	0.274575	0.197599	-0.248114	0.386944	0.561076	0.571100	-0.457507
55254	-9.111566	-1.028060	-2.809466	-0.145282	0.132602	-0.224575	0.386386	0.561428	0.571886	-0.456564
55255	-9.286425	-1.006746	-2.808459	-0.109271	0.054490	-0.059550	0.385032	0.562342	0.572061	-0.456364
55256	-9.264039	-0.723305	-2.415069	0.143600	-0.356835	-0.219454	0.383751	0.563189	0.572305	-0.456093
55257	-9.141281	-0.868467	-2.539232	0.004064	-0.220963	-0.288191	0.382923	0.563683	0.573093	-0.455188
55258	-9.275335	-1.054781	-2.867252	-0.142395	0.030146	-0.048251	0.381688	0.564504	0.573862	-0.454239
55259	-9.433684	-0.853616	-2.979285	0.082163	0.040386	0.116597	0.380173	0.565478	0.574403	-0.453613
55260	-9.047915	-0.669136	-2.904060	0.235076	0.041763	-0.289611	0.379220	0.566051	0.575103	-0.452808
55261	-8.999835	-0.986988	-2.862527	-0.088951	0.004929	-0.317573	0.378764	0.566280	0.576343	-0.451324
55262	-9.042988	-1.093871	-3.094847	-0.172643	0.184521	-0.195707	0.377607	0.566953	0.577128	-0.450445
55263	-9.216627	-0.799702	-3.181309	0.144037	0.160898	-0.032108	0.376232	0.567772	0.577726	-0.449797
55264	-9.031382	-0.816634	-2.949866	0.098076	-0.029879	-0.277286	0.375358	0.568191	0.578524	-0.448972
55265	-8.990785	-0.943554	-3.241830	-0.003208	0.236177	-0.211746	0.374428	0.568644	0.579462	-0.447964
55266	-9.203388	-1.035413	-3.514450	-0.053328	0.400286	0.084921	0.373609	0.569026	0.580229	-0.447168
55267	-9.087973	-0.923081	-3.261936	0.033041	0.169783	-0.114564	0.372643	0.569497	0.580514	-0.447006
55268	-9.180292	-0.964638	-3.545974	0.027989	0.390502	0.068047	0.372160	0.569603	0.581239	-0.446330
55269	-9.175264	-0.933743	-3.502726	0.060273	0.334566	0.046869	0.371413	0.569842	0.581377	-0.446467
55270	-9.156841	-0.974035	-3.017858	-0.015904	-0.124193	-0.123093	0.370836	0.570007	0.581642	-0.446391
55271	-9.615952	-0.815272	-3.832384	0.253025	0.475112	0.556913	0.370832	0.569722	0.582018	-0.446268
55272	-9.362980	-0.896604	-3.761492	0.151902	0.501227	0.303824	0.371123	0.569145	0.582108	-0.446646
55273	-8.953805	-0.951807	-3.572295	0.054600	0.474725	-0.137488	0.371560	0.568597	0.581960	-0.447173
55274	-8.773452	-1.043609	-3.473257	-0.058204	0.460296	-0.330555	0.372375	0.567906	0.582076	-0.447221
55275	-8.871361	-1.428347	-3.340509	-0.449128	0.338154	-0.242727	0.373555	0.567086	0.582240	-0.447065
55276	-8.882072	-1.496006	-3.312442	-0.522622	0.328277	-0.235601	0.374203	0.566747	0.581787	-0.447543
55277	-9.011085	-1.120996	-3.192687	-0.151660	0.172169	-0.189961	0.374497	0.566786	0.580973	-0.448303
55278	-9.072726	-1.073829	-2.894303	-0.129079	-0.112465	-0.230667	0.375242	0.566668	0.580225	-0.448799
55279	-9.066678	-0.898171	-3.109480	0.057295	0.102546	-0.186349	0.375651	0.566729	0.579426	-0.449411
55280	-9.217617	-0.936302	-2.805492	-0.000167	-0.212907	-0.134539	0.376227	0.566700	0.578699	-0.449902
55281	-9.088840	-1.049414	-2.682113	-0.138146	-0.265814	-0.283141	0.376573	0.566815	0.577955	-0.450424
55282	-9.204291	-0.737367	-2.735776	0.182247	-0.257846	-0.187333	0.376387	0.567238	0.577176	-0.451046
55283	-9.240330	-0.762242	-2.678558	0.151513	-0.315470	-0.168160	0.376647	0.567350	0.576894	-0.451048
55284	-9.013660	-0.892891	-2.725531	0.004527	-0.189261	-0.355626	0.376724	0.567522	0.576698	-0.451019
55285	-9.098722	-0.820528	-2.709375	0.077004	-0.240569	-0.287095	0.376491	0.567872	0.576831	-0.450602
55286	-9.174381	-0.974236	-2.866964	-0.061887	-0.115840	-0.152427	0.376657	0.567921	0.577212	-0.449913
55287	-9.037038	-1.039406	-3.190216	-0.113509	0.226833	-0.176218	0.376412	0.568229	0.577419	-0.449464
55288	-8.962379	-0.849357	-3.142081	0.063756	0.181982	-0.279528	0.375831	0.568825	0.577321	-0.449320
55289	-9.074618	-0.734015	-3.094305	0.179319	0.082798	-0.198990	0.375711	0.569072	0.577568	-0.448792
55290	-9.033229	-1.074452	-3.119842	-0.166004	0.131784	-0.198003	0.376054	0.568970	0.577985	-0.448095
55291	-8.916683	-1.075004	-3.123856	-0.178495	0.165734	-0.306794	0.375661	0.569396	0.577884	-0.448016
55292	-9.194373	-0.846692	-3.030084	0.057706	-0.033906	-0.095162	0.375379	0.569765	0.577931	-0.447722
55293	-9.361822	-0.978981	-3.421759	-0.032334	0.282597	0.198788	0.375512	0.569792	0.578171	-0.447264
55294	-9.191799	-0.816302	-3.367054	0.110721	0.274153	0.005925	0.375365	0.569993	0.577863	-0.447530
55295	-8.903944	-0.774430	-3.103617	0.107142	0.118702	-0.352940	0.375895	0.569755	0.577928	-0.447305
55296	-9.023467	-0.993733	-3.235994	-0.097679	0.221007	-0.178180	0.376451	0.569458	0.578208	-0.446854
55297	-9.010772	-1.054313	-3.168879	-0.168557	0.168840	-0.205895	0.376720	0.569318	0.578068	-0.446987
55298	-9.137531	-0.799928	-3.072838	0.085512	0.029711	-0.139606	0.376618	0.569419	0.577643	-0.447492
55299	-9.083752	-0.593227	-3.096414	0.290195	0.064789	-0.201973	0.377021	0.569120	0.577596	-0.447594
55300	-9.155979	-0.969345	-3.242333	-0.069242	0.209594	-0.053816	0.377783	0.568518	0.577895	-0.447330
55301	-9.188105	-0.846247	-3.278009	0.058607	0.234454	-0.023696	0.377753	0.568437	0.577562	-0.447889
55302	-9.216759	-0.896691	-3.107143	-0.001937	0.076260	-0.045333	0.378270	0.568020	0.577554	-0.447992
55303	-9.177060	-1.125371	-3.211372	-0.224444	0.212348	-0.029932	0.378759	0.567674	0.577321	-0.448317
55304	-9.087163	-0.983820	-3.156212	-0.093137	0.194772	-0.145243	0.378868	0.567624	0.576718	-0.449065
55305	-9.161926	-0.852894	-3.000968	0.031083	0.031944	-0.134251	0.379219	0.567434	0.576251	-0.449607
55306	-9.095485	-0.936500	-3.046386	-0.052503	0.117362	-0.175842	0.379688	0.567132	0.575771	-0.450207
55307	-9.050016	-0.840677	-3.105115	0.046186	0.198672	-0.210102	0.379876	0.567027	0.575181	-0.450934
55308	-9.122687	-0.817034	-2.956986	0.064162	0.050529	-0.188342	0.380208	0.566806	0.574669	-0.451585
55309	-9.131562	-0.876298	-3.045049	0.015433	0.152122	-0.148203	0.380531	0.566559	0.574163	-0.452264
55310	-9.200265	-0.826114	-2.935720	0.063494	0.041773	-0.120423	0.380798	0.566320	0.573626	-0.453021
55311	-9.147958	-0.814572	-2.846053	0.066586	-0.010176	-0.197900	0.381248	0.565925	0.573209	-0.453664
55312	-9.194960	-0.849548	-2.866891	0.039024	0.015394	-0.143855	0.381762	0.565451	0.572941	-0.454160
55313	-9.221273	-0.861406	-2.955964	0.039132	0.110273	-0.091684	0.382319	0.564882	0.572742	-0.454651
55314	-9.149336	-0.798954	-2.900271	0.094294	0.093061	-0.182387	0.382949	0.564212	0.572587	-0.455147
55315	-9.250456	-0.906156	-2.919930	-0.001754	0.107047	-0.070688	0.383915	0.563276	0.572699	-0.455352
55316	-9.220444	-0.903954	-2.933020	0.001390	0.149113	-0.095998	0.384711	0.562429	0.572542	-0.455924
55317	-9.143295	-0.853987	-2.774978	0.034539	0.040535	-0.219629	0.385835	0.561351	0.572618	-0.456208
55318	-9.209213	-1.157257	-3.013005	-0.243069	0.288758	-0.061557	0.386994	0.560290	0.572665	-0.456471
55319	-9.157621	-0.947955	-2.913677	-0.043956	0.220228	-0.158689	0.387375	0.559835	0.572072	-0.457449
55320	-9.249271	-0.861013	-2.745244	0.039518	0.052788	-0.126495	0.388283	0.559034	0.571738	-0.458075
55321	-9.290760	-0.979812	-2.664409	-0.080639	-0.003106	-0.098226	0.389196	0.558248	0.571309	-0.458794
55322	-9.309054	-0.992097	-2.567802	-0.097331	-0.073175	-0.105913	0.389918	0.557633	0.570766	-0.459604
55323	-9.386765	-0.946896	-2.538707	-0.046363	-0.100219	-0.043309	0.390427	0.557191	0.570175	-0.460441
55324	-9.410973	-0.802302	-2.477490	0.097644	-0.150403	-0.049703	0.390780	0.556881	0.569483	-0.461372
55325	-9.379366	-0.888942	-2.433443	0.008214	-0.158347	-0.083392	0.391357	0.556379	0.569140	-0.461912
55326	-9.231521	-0.918493	-2.559666	-0.020160	0.024039	-0.188994	0.391713	0.556063	0.568585	-0.462672
55327	-9.235894	-0.882132	-2.411201	0.006831	-0.104316	-0.227134	0.392133	0.555685	0.568244	-0.463190
55328	-9.173391	-1.023215	-2.583790	-0.122727	0.102385	-0.228926	0.392624	0.555243	0.567965	-0.463645
55329	-9.139982	-0.921692	-2.509027	-0.027151	0.048300	-0.290035	0.392539	0.555248	0.567345	-0.464470
55330	-9.180002	-0.812274	-2.486666	0.086974	0.023188	-0.267657	0.392687	0.555073	0.566911	-0.465085
55331	-9.184582	-0.924183	-2.537843	-0.016221	0.090523	-0.239661	0.392787	0.554901	0.566540	-0.465656
55332	-9.341731	-0.927671	-2.470570	-0.009316	-0.003239	-0.105364	0.392787	0.554826	0.566071	-0.466316
55333	-9.368218	-0.994238	-2.503284	-0.066438	0.036911	-0.065244	0.392709	0.554819	0.565591	-0.466971
55334	-9.401849	-0.892076	-2.471506	0.039485	0.002394	-0.050653	0.392612	0.554818	0.565067	-0.467688
55335	-9.331965	-0.934167	-2.573415	0.004927	0.133344	-0.088342	0.392765	0.554640	0.564696	-0.468218
55336	-9.379430	-0.899350	-2.591966	0.048303	0.149366	-0.041497	0.392837	0.554504	0.564245	-0.468862
55337	-9.363848	-0.973658	-2.482855	-0.033256	0.067226	-0.076745	0.393208	0.554159	0.563900	-0.469374
55338	-9.460994	-1.002316	-2.547120	-0.044718	0.122289	0.035454	0.393257	0.553997	0.563323	-0.470217
55339	-9.365591	-0.804471	-2.298912	0.127523	-0.088960	-0.136828	0.393525	0.553671	0.562825	-0.470973
55340	-9.320856	-1.023479	-2.339985	-0.086879	-0.006759	-0.148641	0.394066	0.553149	0.562657	-0.471333
55341	-9.264979	-0.959415	-2.317913	-0.026495	-0.003934	-0.214130	0.394192	0.552904	0.562263	-0.471985
55342	-9.310435	-0.983538	-2.167880	-0.056950	-0.145248	-0.203998	0.394626	0.552455	0.562125	-0.472314
55343	-9.290134	-1.067123	-2.179182	-0.138153	-0.112458	-0.212560	0.394813	0.552208	0.561924	-0.472685
55344	-9.419048	-0.944150	-2.183979	-0.003044	-0.139861	-0.098776	0.394838	0.552115	0.561734	-0.472998
55345	-9.353992	-0.922693	-2.235748	0.019515	-0.069077	-0.151324	0.395101	0.551830	0.561729	-0.473116
55346	-9.328507	-0.996281	-2.304830	-0.048095	0.014246	-0.152287	0.395194	0.551678	0.561684	-0.473269
55347	-9.347190	-0.877836	-2.298510	0.071621	-0.001120	-0.147359	0.395329	0.551507	0.561740	-0.473290
55348	-9.403416	-1.060877	-2.354719	-0.100082	0.054683	-0.061719	0.395589	0.551220	0.561868	-0.473255
55349	-9.389775	-1.085448	-2.446688	-0.116083	0.151820	-0.050729	0.395545	0.551167	0.561779	-0.473459
55350	-9.370135	-0.934685	-2.310395	0.022966	0.018751	-0.116806	0.395359	0.551258	0.561460	-0.473887
55351	-9.375583	-0.966515	-2.395438	0.001319	0.106287	-0.088360	0.395491	0.551121	0.561411	-0.473994
55352	-9.356690	-0.963459	-2.545730	0.017927	0.261739	-0.071650	0.395432	0.551126	0.561077	-0.474431
55353	-9.318312	-0.980188	-2.198973	-0.030788	-0.055491	-0.188594	0.395635	0.550934	0.560866	-0.474736
55354	-9.304416	-1.174770	-2.330017	-0.212882	0.095499	-0.152109	0.395874	0.550753	0.560771	-0.474859
55355	-9.479277	-0.947583	-2.179858	0.014378	-0.100922	-0.040482	0.395675	0.550908	0.560306	-0.475393
55356	-9.376137	-0.919486	-2.211164	0.037228	-0.040961	-0.135726	0.396175	0.550538	0.560365	-0.475335
55357	-9.275143	-1.133332	-2.271888	-0.179461	0.061908	-0.198211	0.396389	0.550416	0.560333	-0.475336
55358	-9.352859	-0.951572	-2.200999	-0.000364	-0.034345	-0.157394	0.396371	0.550529	0.560078	-0.475522
55359	-9.241934	-0.969946	-2.046673	-0.042759	-0.153854	-0.298618	0.396464	0.550561	0.560002	-0.475496
55360	-9.393714	-0.911871	-1.920956	0.013376	-0.316846	-0.186531	0.396478	0.550646	0.560063	-0.475314
55361	-9.490974	-1.136423	-2.136801	-0.185948	-0.121124	-0.020511	0.396659	0.550606	0.560472	-0.474726
55362	-9.402105	-1.019064	-2.435978	-0.051835	0.175149	-0.048534	0.396147	0.551099	0.560237	-0.474860
55363	-9.373625	-0.779053	-2.153705	0.158205	-0.114124	-0.165296	0.395908	0.551415	0.560237	-0.474692
55364	-9.352128	-1.066958	-2.283507	-0.121909	0.029098	-0.127679	0.396208	0.551331	0.560705	-0.473987
55365	-9.339351	-1.168360	-2.338960	-0.222410	0.085281	-0.117197	0.395759	0.551839	0.560512	-0.473998
55366	-9.317642	-0.786469	-2.029915	0.126494	-0.243579	-0.248055	0.395065	0.552522	0.560327	-0.474001
55367	-9.314126	-0.856242	-2.047132	0.055844	-0.233291	-0.240891	0.394986	0.552727	0.560740	-0.473338
55368	-9.398916	-1.077575	-2.238779	-0.143480	-0.069139	-0.092218	0.394558	0.553127	0.561169	-0.472721
55369	-9.305929	-0.946343	-2.226310	-0.023010	-0.084973	-0.197878	0.393804	0.553816	0.561258	-0.472435
55370	-9.519877	-0.835329	-2.241980	0.103462	-0.152013	0.001508	0.393085	0.554487	0.561716	-0.471703
55371	-9.459520	-1.099596	-2.589401	-0.135880	0.194749	0.053426	0.392887	0.554782	0.562287	-0.470840
55372	-9.211878	-1.123800	-2.431037	-0.196219	0.087113	-0.221784	0.391953	0.555678	0.562257	-0.470596
55373	-9.373697	-0.791204	-2.238945	0.126769	-0.184697	-0.145483	0.390962	0.556644	0.562394	-0.470116
55374	-9.388453	-0.997145	-2.389136	-0.066659	-0.052993	-0.074206	0.390563	0.557140	0.562966	-0.469175
55375	-9.432216	-1.026582	-2.590081	-0.077985	0.106611	0.021518	0.389637	0.558032	0.563202	-0.468600
55376	-9.281862	-0.719434	-2.492137	0.203829	0.005860	-0.177353	0.388891	0.558803	0.563423	-0.468037
55377	-9.294635	-0.990706	-2.515972	-0.068372	0.022428	-0.132986	0.388813	0.559077	0.564215	-0.466818
55378	-9.202834	-1.138468	-2.665284	-0.214717	0.178473	-0.168310	0.388346	0.559622	0.564645	-0.466033
55379	-9.192136	-0.837425	-2.666018	0.079449	0.139913	-0.206524	0.387622	0.560389	0.564774	-0.465557
55380	-9.078478	-0.751971	-2.726327	0.156407	0.202978	-0.307353	0.387438	0.560780	0.565270	-0.464637
55381	-9.208557	-1.062709	-2.771846	-0.146774	0.213858	-0.140941	0.387343	0.561089	0.565848	-0.463638
55382	-9.352932	-1.040116	-2.820668	-0.114980	0.201142	0.008801	0.386764	0.561688	0.566008	-0.463201
55383	-9.360984	-0.775576	-2.629613	0.127708	-0.018946	-0.059343	0.386315	0.562186	0.566171	-0.462772
55384	-9.328748	-0.809104	-2.714224	0.095263	0.059337	-0.064119	0.386334	0.562340	0.566627	-0.462010
55385	-9.248687	-0.865746	-2.689660	0.025131	0.047886	-0.142162	0.386248	0.562534	0.567106	-0.461257
55386	-9.282028	-0.987608	-2.884821	-0.081619	0.220371	-0.045478	0.386334	0.562598	0.567579	-0.460525
55387	-9.169912	-0.946387	-2.906334	-0.050772	0.258040	-0.150361	0.386061	0.562911	0.567772	-0.460134
55388	-9.229322	-0.926194	-3.095568	-0.013422	0.411606	-0.042777	0.386090	0.563044	0.567984	-0.459685
55389	-9.195542	-0.940656	-2.910014	-0.050671	0.239037	-0.124999	0.386038	0.563235	0.567954	-0.459531
55390	-9.232831	-0.826219	-2.960449	0.066032	0.266444	-0.085575	0.386149	0.563363	0.567922	-0.459321
55391	-9.274266	-0.860477	-2.911996	0.025255	0.210195	-0.056288	0.386434	0.563354	0.567913	-0.459104
55392	-9.200443	-0.853175	-2.834680	0.015005	0.159377	-0.149052	0.386805	0.563292	0.567800	-0.459006
55393	-9.128184	-0.840516	-2.842396	0.018218	0.190555	-0.217231	0.387120	0.563271	0.567669	-0.458929
55394	-9.311941	-0.879085	-2.820318	-0.015553	0.124147	-0.044189	0.387560	0.563161	0.567608	-0.458767
55395	-9.371606	-0.834676	-2.948806	0.038291	0.233599	0.044447	0.388029	0.562976	0.567464	-0.458777
55396	-9.253201	-0.839023	-2.873976	0.014796	0.205073	-0.089357	0.388641	0.562689	0.567291	-0.458825
55397	-9.264796	-0.760388	-2.710184	0.075215	0.051365	-0.130155	0.389211	0.562407	0.567063	-0.458969
55398	-9.266222	-0.752591	-2.645514	0.072735	0.000105	-0.147145	0.390041	0.561891	0.567105	-0.458844
55399	-9.301935	-0.879020	-2.806532	-0.042210	0.163106	-0.058360	0.390762	0.561411	0.567158	-0.458753
55400	-9.214188	-0.858226	-2.683343	-0.041068	0.079093	-0.177845	0.391412	0.560982	0.567054	-0.458852
55401	-9.234824	-0.866834	-2.581761	-0.059773	-0.011639	-0.184855	0.392029	0.560598	0.566942	-0.458934
55402	-9.325270	-0.846352	-2.542115	-0.041072	-0.064749	-0.110449	0.392739	0.560201	0.566888	-0.458878
55403	-9.316737	-1.033051	-2.523907	-0.234032	-0.059637	-0.108021	0.393356	0.559889	0.566844	-0.458784
55404	-9.337476	-0.965262	-2.635628	-0.160783	0.046872	-0.063910	0.393612	0.559908	0.566438	-0.459043
55405	-9.266992	-0.863685	-2.568458	-0.072874	0.004088	-0.157909	0.393709	0.560112	0.565910	-0.459362
55406	-9.269627	-0.768529	-2.491111	0.011961	-0.069181	-0.183704	0.393797	0.560373	0.565341	-0.459669
55407	-9.236454	-0.784862	-2.424266	-0.017377	-0.117090	-0.231918	0.394101	0.560493	0.565012	-0.459666
55408	-9.294366	-0.808055	-2.504353	-0.036926	-0.050231	-0.153180	0.394267	0.560694	0.564699	-0.459664
55409	-9.325101	-0.731018	-2.485025	0.034024	-0.079348	-0.134888	0.394439	0.560875	0.564453	-0.459597
55410	-9.284347	-0.658137	-2.501648	0.099821	-0.056044	-0.175397	0.394520	0.561075	0.564282	-0.459494
55411	-9.379499	-0.738730	-2.547000	0.023056	-0.033506	-0.065572	0.394868	0.561033	0.564370	-0.459137
55412	-9.251629	-0.797935	-2.571757	-0.046859	0.027623	-0.177320	0.395034	0.561067	0.564386	-0.458934
55413	-9.267930	-0.735107	-2.477888	0.005227	-0.072548	-0.191381	0.395069	0.561204	0.564377	-0.458749
55414	-9.316237	-0.774874	-2.466925	-0.035707	-0.097303	-0.144819	0.394978	0.561419	0.564374	-0.458566
55415	-9.356934	-0.709219	-2.599551	0.040058	0.009338	-0.075584	0.394774	0.561690	0.564421	-0.458352
55416	-9.341973	-0.800939	-2.630537	-0.052500	0.043260	-0.074666	0.394774	0.561828	0.564469	-0.458123
55417	-9.191642	-0.737436	-2.504029	-0.010097	-0.046902	-0.257691	0.394426	0.562208	0.564404	-0.458037
55418	-9.240497	-0.609880	-2.507465	0.117635	-0.072753	-0.219618	0.394269	0.562469	0.564554	-0.457667
55419	-9.236886	-0.756151	-2.441685	-0.037087	-0.135332	-0.229684	0.394246	0.562584	0.564895	-0.457125
55420	-9.114530	-0.803543	-2.444666	-0.093356	-0.107554	-0.342923	0.393781	0.563009	0.565052	-0.456807
55421	-9.344849	-0.665110	-2.366797	0.050046	-0.269740	-0.153753	0.393131	0.563587	0.565280	-0.456372
55422	-9.493519	-0.718255	-2.803796	0.039394	0.090481	0.111741	0.392532	0.564042	0.565839	-0.455634
55423	-9.504159	-0.828430	-2.987381	-0.053995	0.250518	0.181015	0.391838	0.564474	0.566072	-0.455405
55424	-9.387124	-0.716531	-2.712703	0.032470	-0.002317	-0.015280	0.391088	0.564909	0.566286	-0.455244
55425	-9.515696	-0.755908	-2.727631	0.004498	-0.038105	0.114968	0.390678	0.565066	0.566861	-0.454686
55426	-9.584275	-0.673620	-2.608021	0.083759	-0.193498	0.140673	0.390099	0.565254	0.567306	-0.454395
55427	-9.121478	-0.568006	-2.198054	0.134915	-0.477276	-0.426026	0.389322	0.565497	0.567904	-0.454011
55428	-9.433113	-0.689596	-2.407018	0.056045	-0.388959	-0.060850	0.388224	0.565775	0.569315	-0.452837
55429	-9.900870	-0.790598	-2.851902	0.032440	-0.138352	0.520037	0.386263	0.566405	0.570578	-0.452136
55430	-9.319446	-0.045877	-2.564836	0.742524	-0.331551	-0.180916	0.382305	0.568367	0.570194	-0.453520
55431	-8.517192	0.445736	-1.917312	1.150824	-0.791926	-1.183351	0.378561	0.570483	0.570532	-0.453579
55432	-9.656888	-0.587580	-2.492414	0.257063	-0.597265	0.156729	0.377832	0.570366	0.574719	-0.449025
55433	-10.239176	-1.329878	-3.882181	-0.319227	0.492929	1.202536	0.376100	0.570681	0.577487	-0.446521
55434	-8.607211	-0.711349	-3.730017	0.199913	0.773096	-0.439045	0.372136	0.572740	0.577191	-0.447587
55435	-8.600132	-0.262493	-3.056062	0.612113	0.049010	-0.702635	0.368235	0.574981	0.578248	-0.446574
55436	-9.252204	-0.865236	-2.996815	0.062033	-0.258017	-0.052465	0.366802	0.575438	0.580825	-0.443812
55437	-8.080237	-1.258857	-4.460225	-0.271903	1.481543	-0.620327	0.366131	0.575344	0.582847	-0.441834
55438	-7.271941	-0.758330	-6.105594	0.335461	3.208146	-0.850041	0.362171	0.577108	0.584504	-0.440606
55439	-8.394926	0.588006	-5.493820	1.746527	2.033146	-0.126825	0.354131	0.581731	0.585544	-0.439681
55440	-8.546229	0.224059	-4.228203	1.290795	0.689908	-0.388117	0.351866	0.582032	0.590778	-0.434062
55441	-8.223702	-1.068243	-6.003392	0.110955	2.394648	0.140284	0.353076	0.579381	0.599615	-0.424402
55442	-7.999851	-1.309358	-6.958470	-0.136076	3.202788	0.378138	0.350400	0.579292	0.606309	-0.417169
55443	-8.543645	0.023397	-5.490405	1.126252	1.409447	0.181323	0.344032	0.581422	0.612083	-0.411029
55444	-8.293055	-0.064296	-3.753117	0.897220	-0.232545	-0.757104	0.342642	0.581021	0.619315	-0.401821
55445	-7.146241	-1.492231	-4.969145	-0.621771	1.212181	-1.087511	0.343832	0.578915	0.627945	-0.390285
55446	-7.210102	-1.494079	-5.464879	-0.633135	1.447868	-0.780369	0.337448	0.581061	0.632791	-0.384801
55447	-7.442847	0.052045	-3.543778	0.915244	-0.484001	-1.634484	0.328111	0.585204	0.634567	-0.383672
55448	-7.227708	1.500641	-2.367292	2.335260	-1.512841	-2.577189	0.321788	0.586897	0.637775	-0.381113
55449	-7.503323	-1.317213	1.317141	-0.567947	-4.937487	-3.890851	0.327296	0.582820	0.642691	-0.374360
55450	-6.246112	-2.953664	0.691687	-2.290535	-3.825843	-4.489828	0.332275	0.580550	0.642995	-0.372978
55451	-4.489538	-5.296183	-8.307905	-4.732719	4.747599	-1.310557	0.339199	0.577122	0.644612	-0.369256
55452	-12.036211	-5.062417	-8.975356	-3.627706	1.478535	5.539630	0.325848	0.578638	0.649475	-0.370383
55453	-7.849048	1.514207	0.536251	2.431560	-4.396090	-3.571714	0.303299	0.586794	0.633398	-0.403101
55454	-5.845547	2.346844	0.178472	3.062946	-3.109483	-5.267441	0.305031	0.583308	0.638882	-0.398168
55455	-12.886164	-3.435840	-7.643644	-1.221981	-0.037433	5.509189	0.316251	0.575723	0.654194	-0.374911
55456	-17.010553	-4.451980	-9.941669	-1.508585	-0.478353	10.323936	0.300312	0.579882	0.651408	-0.386287
55457	-13.296876	2.312053	-6.676543	4.960757	-1.225966	4.350237	0.282173	0.582533	0.644122	-0.407603
55458	-7.728857	2.672294	-5.637979	4.511038	0.838679	-1.003206	0.291924	0.575780	0.647540	-0.404906
55459	-6.446908	-3.933963	-9.471676	-2.141758	4.797026	1.101630	0.310434	0.565296	0.659241	-0.386617
55460	-9.464727	-7.290859	-10.356149	-5.175522	3.791539	4.638107	0.311246	0.562475	0.660177	-0.388476
55461	-10.419734	-3.096556	-4.865610	-1.000604	-1.109255	2.002526	0.309748	0.560212	0.658441	-0.395820
55462	-10.850630	-2.373017	-2.525634	-0.251874	-3.210492	1.113192	0.313277	0.557283	0.658273	-0.397454
55463	-11.149289	-2.180941	-2.175455	-0.016568	-3.562144	1.192124	0.315743	0.555750	0.656846	-0.400002
55464	-10.599711	-0.071620	-2.288291	1.998986	-3.013867	0.410577	0.311318	0.556793	0.652796	-0.408560
55465	-9.643228	2.165275	-0.508321	3.972295	-4.024121	-1.690759	0.306278	0.557602	0.650309	-0.415177
55466	-8.752406	3.080579	1.354762	4.607096	-5.258015	-3.563129	0.302170	0.557052	0.653903	-0.413277
55467	-10.543116	1.460416	0.911999	3.484473	-5.869729	-1.595511	0.299662	0.554795	0.664694	-0.400734
55468	-12.601715	-0.206607	1.704010	2.354302	-7.897115	-0.126318	0.291487	0.554692	0.676026	-0.387738
55469	-13.751209	0.946079	0.389146	3.934705	-7.694695	0.930514	0.272933	0.558883	0.685919	-0.377719
55470	-16.101393	3.931760	-3.076972	7.757774	-6.487943	3.672344	0.254396	0.561305	0.699196	-0.362413
55471	-14.662791	4.299498	-2.919664	7.964806	-6.318011	1.960601	0.238772	0.561174	0.714755	-0.342342
55472	-10.925042	0.822964	-5.483624	3.826417	-2.855381	1.470025	0.240280	0.556201	0.729143	-0.318208
55473	-5.159832	-5.640565	-18.364353	-4.193291	8.888889	7.479710	0.249478	0.553183	0.736420	-0.299058
55474	-2.043217	-3.116361	-15.752003	-2.458137	9.378927	3.146577	0.228706	0.561710	0.730801	-0.313217
55475	-6.838255	3.414926	-7.081931	5.471919	0.767317	-0.980193	0.200649	0.576569	0.725078	-0.318701
55476	-6.791546	4.933313	3.442572	6.026144	-6.731119	-8.990525	0.187801	0.588912	0.710371	-0.336580
55477	-0.121697	6.442354	5.134759	5.556463	-3.294713	-14.926311	0.201844	0.591908	0.702867	-0.338943
55478	-2.573594	5.962369	-0.254888	6.357479	-1.188592	-9.180640	0.222853	0.593833	0.700727	-0.326619
55479	-6.041193	2.479101	-0.734173	3.576630	-3.327676	-5.419334	0.255446	0.591826	0.696547	-0.315137
55480	-5.305101	0.723466	-3.165815	1.533482	-0.947030	-3.860892	0.291753	0.588094	0.687386	-0.310686
55481	-7.312327	-0.168596	-4.743791	0.501690	-0.711610	-1.140255	0.325863	0.584808	0.674574	-0.311068
55482	-8.610940	-1.437846	-5.904344	-1.173025	-0.137831	0.657543	0.360579	0.580562	0.657483	-0.317249
55483	-7.220300	-3.866763	-10.178049	-4.555718	4.655709	1.507579	0.392353	0.580269	0.633140	-0.329365
55484	-6.907082	-6.341471	-12.509341	-7.387888	7.604454	1.669734	0.407437	0.590366	0.600113	-0.354017
55485	-6.711760	-3.934279	-8.463482	-4.430305	5.172729	-0.556608	0.408963	0.607915	0.559618	-0.387319
55486	-6.455037	-2.638397	-6.588877	-2.832262	4.244638	-1.691148	0.411106	0.623551	0.520811	-0.413440
55487	-5.600472	-2.635068	-11.421286	-1.904770	9.565451	-1.234108	0.411267	0.637767	0.490746	-0.428113
55488	-5.928367	-4.741721	-14.741120	-3.080436	13.297981	-0.400684	0.409606	0.650764	0.470748	-0.432580
55489	-1.127899	-15.832344	-19.861582	-11.882703	21.920419	-4.842369	0.410044	0.656058	0.473259	-0.421281
55490	-19.862696	-20.268677	7.166475	-24.673489	-7.505155	4.028894	0.387788	0.665034	0.476591	-0.424513
55491	-11.759747	0.319096	22.427043	-7.641257	-23.850292	-6.122630	0.346299	0.673746	0.454130	-0.468945
55492	-10.894370	5.479508	-1.521457	4.173432	-3.859867	1.081861	0.343740	0.664702	0.490836	-0.446200
55493	-19.480775	9.036646	-17.713571	10.952552	5.644902	15.144623	0.323176	0.677998	0.501972	-0.428835
55494	-17.587135	-0.266635	-6.484834	-0.917760	-1.616869	8.840695	0.323833	0.680262	0.511453	-0.413269
55495	-7.442959	-9.604741	-9.224848	-8.062947	7.442465	0.786495	0.331784	0.674943	0.512573	-0.414295
55496	-0.796683	-2.113586	-8.272319	0.045721	7.458103	-5.584364	0.313318	0.673732	0.501530	-0.443153
55497	-3.456068	3.303974	-7.846546	5.090862	4.357391	-3.525803	0.309542	0.674000	0.504623	-0.441886
55498	-10.632873	-5.095127	-6.286048	-4.305067	2.516169	2.582445	0.325509	0.668437	0.518596	-0.422249
55499	-13.400868	-7.199988	-5.497685	-6.976806	1.155047	4.734905	0.320471	0.670306	0.513427	-0.429396
55500	-10.759607	-1.190984	-2.324760	-1.578605	-1.995387	0.962899	0.308354	0.674494	0.500373	-0.446769
55501	-9.312705	2.405344	-5.580312	3.118798	0.361461	0.854659	0.304737	0.675215	0.491682	-0.457678
55502	-7.791291	2.812196	-6.155057	3.931068	1.377633	-0.371003	0.305880	0.674979	0.485697	-0.463615
55503	-7.973780	1.067741	-3.343432	1.353763	-0.423793	-1.216923	0.307933	0.674103	0.483308	-0.466021
55504	-8.161005	-0.326692	-2.390669	-0.285579	-0.742832	-1.339793	0.312001	0.671539	0.481709	-0.468665
55505	-7.458379	-1.022029	-2.722640	-0.740023	0.130256	-1.842783	0.315030	0.669290	0.479132	-0.472481
55506	-7.422509	-1.301193	-2.863943	-0.927456	0.447023	-1.817162	0.317151	0.667448	0.477066	-0.475748
55507	-7.830895	-1.091365	-2.523376	-0.860266	0.005527	-1.557933	0.316912	0.667225	0.473783	-0.479486
55508	-8.249455	-0.466010	-1.807797	-0.540552	-0.928921	-1.423200	0.315616	0.667633	0.470279	-0.483209
55509	-8.436347	-0.329372	-1.870229	-0.389160	-0.943431	-1.225688	0.315034	0.667717	0.467804	-0.485868
55510	-8.704550	-0.516901	-2.150627	-0.472341	-0.685736	-0.870194	0.313979	0.668350	0.465718	-0.487681
55511	-9.440242	-0.971182	-2.053166	-0.989892	-0.816922	-0.188260	0.313267	0.668955	0.464581	-0.488392
55512	-9.482311	-1.122825	-2.150679	-1.097276	-0.676076	-0.110149	0.312509	0.669711	0.462908	-0.489429
55513	-8.674085	-0.732674	-2.205727	-0.643935	-0.515999	-0.870602	0.310907	0.671185	0.460768	-0.490448
55514	-9.359827	-0.366183	-1.947881	-0.481883	-1.109692	-0.322116	0.309403	0.672935	0.460142	-0.489589
55515	-9.378074	-0.363231	-3.104876	-0.059872	-0.141207	0.071485	0.309287	0.673940	0.460008	-0.488405
55516	-8.623636	-0.491719	-4.460730	0.387010	1.302658	-0.186671	0.309827	0.674841	0.460074	-0.486753
55517	-9.377379	-0.475530	-3.818985	0.042791	0.478736	0.312270	0.310166	0.675629	0.461301	-0.484277
55518	-9.659092	-0.620020	-1.981454	-0.846045	-1.160295	-0.037898	0.312043	0.675235	0.462566	-0.482410
55519	-8.677852	-0.358168	-1.818123	-0.583762	-1.085521	-1.025208	0.313976	0.674855	0.463158	-0.481119
55520	-8.082085	-0.292634	-1.931360	-0.440540	-0.830720	-1.551235	0.314268	0.675600	0.464196	-0.478876
55521	-8.933019	-0.207383	-3.197353	-0.025134	-0.095605	-0.322982	0.313061	0.677312	0.466235	-0.475254
55522	-10.371705	0.865136	-4.913205	1.399659	0.403338	1.603851	0.309315	0.679754	0.467650	-0.472823
55523	-11.415627	1.714093	-4.861594	2.026871	-0.416771	2.540748	0.308676	0.680186	0.470413	-0.469870
55524	-11.457374	-0.451912	-3.318863	-0.581269	-0.990079	2.068894	0.314572	0.677254	0.476451	-0.464076
55525	-10.409414	-2.270355	-3.233451	-2.247496	-0.071936	1.091846	0.318494	0.675708	0.479560	-0.460436
55526	-10.578354	-1.296543	-2.509465	-1.610937	-1.122960	0.958746	0.312694	0.679398	0.475820	-0.462857
55527	-7.403239	-1.020631	-3.274700	-0.710804	0.551328	-1.703182	0.310634	0.681615	0.473612	-0.463249
55528	-7.805003	-1.772305	-7.057600	-0.165530	3.872133	0.129480	0.306874	0.686094	0.473428	-0.459313
55529	-8.822042	-1.132145	-6.307467	0.052459	2.513009	0.797445	0.298055	0.692308	0.468355	-0.460994
55530	-7.632975	-1.152838	-4.880488	-0.285570	1.708313	-0.845492	0.295093	0.695077	0.464814	-0.462316
55531	-6.147153	-2.874018	-6.475609	-1.037014	4.292722	-1.537538	0.294408	0.697563	0.461302	-0.462526
55532	-7.386773	-1.751364	-3.201946	-1.393133	0.669658	-1.719863	0.281314	0.705141	0.448890	-0.471313
55533	-5.794528	0.070862	-0.184101	-0.733247	-1.970833	-4.409622	0.271374	0.708421	0.435752	-0.484372
55534	-4.643505	1.127726	-5.221895	2.713827	2.037919	-3.601139	0.273450	0.704957	0.433977	-0.489821
55535	-10.002960	4.698486	-7.599148	6.231079	0.428619	2.056244	0.272582	0.702767	0.437250	-0.490540
55536	-10.332918	4.240711	-4.295141	4.282095	-1.926796	1.193552	0.292127	0.693239	0.444305	-0.486491
55537	-10.197358	-2.082721	-1.741179	-2.517111	-0.972428	0.388926	0.311874	0.684143	0.453812	-0.478265
55538	-11.612196	-3.940109	-3.177261	-3.895378	0.623750	2.224701	0.314917	0.681849	0.452802	-0.480500
55539	-10.855718	-0.109380	-3.925663	0.091241	0.010792	1.731078	0.301420	0.687479	0.441366	-0.491645
55540	-10.256168	2.612948	-0.565625	1.280413	-3.855222	-0.023199	0.292202	0.691391	0.432515	-0.499527
55541	-9.074138	1.334181	-1.170276	0.564299	-2.386367	-0.897750	0.297374	0.688595	0.434792	-0.498359
55542	-8.338766	-0.895764	-2.260519	-0.856439	-0.202980	-1.171355	0.302762	0.685353	0.438885	-0.495991
55543	-9.108253	-1.487757	-2.950045	-1.196992	0.413063	-0.206801	0.304130	0.683922	0.441094	-0.495168
55544	-8.933029	-0.752871	-3.346981	-0.334520	0.474207	-0.261181	0.302551	0.684033	0.440801	-0.496241
55545	-9.022689	-0.178911	-3.591915	0.294306	0.390918	-0.112002	0.301168	0.684380	0.440738	-0.496661
55546	-9.257312	-0.487327	-3.211801	-0.157434	0.125725	-0.003999	0.300837	0.684071	0.440863	-0.497176
55547	-9.012166	-0.731207	-3.400009	-0.252089	0.468590	-0.167444	0.300389	0.683709	0.440803	-0.497998
55548	-9.254510	-0.406070	-3.310471	-0.007629	0.182760	0.022787	0.299936	0.683386	0.440429	-0.499043
55549	-9.166888	-0.530935	-3.064488	-0.200962	0.068074	-0.134889	0.300723	0.682528	0.440784	-0.499430
55550	-9.232033	-1.035428	-3.178748	-0.604309	0.381512	-0.020026	0.301362	0.681833	0.440941	-0.499856
55551	-9.265234	-0.825538	-3.405485	-0.308944	0.484115	0.076375	0.300588	0.681798	0.440047	-0.501156
55552	-9.407801	-0.166995	-3.011455	0.117486	-0.172614	0.064551	0.299608	0.681862	0.438994	-0.502577
55553	-9.499634	-0.263780	-3.204153	0.120573	0.019063	0.215487	0.300032	0.681180	0.438920	-0.503312
55554	-9.341032	-0.477937	-3.615423	0.140158	0.528609	0.200077	0.300241	0.680430	0.438518	-0.504552
55555	-9.002011	-0.361870	-2.991981	0.031294	0.071902	-0.319908	0.300463	0.679576	0.438004	-0.506014
55556	-9.055230	-0.458674	-3.169052	0.037183	0.272705	-0.211925	0.300739	0.678742	0.437707	-0.507226
55557	-9.223846	-0.455181	-3.004836	-0.026391	0.106288	-0.101689	0.301026	0.677764	0.437402	-0.508625
55558	-9.321713	-0.459789	-2.518820	-0.227851	-0.307934	-0.153321	0.301421	0.676653	0.437296	-0.509960
55559	-9.312212	-0.667724	-2.268741	-0.500711	-0.400899	-0.226300	0.302280	0.675475	0.437376	-0.510943
55560	-9.146766	-1.147807	-2.380717	-0.852052	-0.025868	-0.329971	0.303052	0.674605	0.437590	-0.511452
55561	-9.338508	-0.842503	-2.302258	-0.618355	-0.269242	-0.181329	0.302272	0.674666	0.436757	-0.512544
55562	-9.277509	-0.238544	-2.337260	-0.046509	-0.485569	-0.254763	0.301707	0.674833	0.436172	-0.513154
55563	-9.438813	-0.613702	-2.436258	-0.351262	-0.276283	-0.055462	0.302189	0.674601	0.436483	-0.512911
55564	-9.131043	-1.257308	-2.994620	-0.656379	0.573094	-0.160472	0.302263	0.674667	0.436353	-0.512891
55565	-9.152647	-0.948271	-3.364470	-0.217681	0.742583	-0.045855	0.300857	0.675613	0.435091	-0.513545
55566	-9.274113	-0.511268	-2.851296	-0.062448	0.076367	-0.097199	0.300320	0.676137	0.434078	-0.514026
55567	-9.431404	-0.620838	-2.855555	-0.177124	0.094681	0.059023	0.301113	0.676013	0.433808	-0.513954
55568	-9.561582	-1.002307	-2.773869	-0.572542	0.177314	0.175483	0.301771	0.675944	0.433176	-0.514191
55569	-9.262954	-0.821455	-3.152668	-0.216045	0.516854	-0.009495	0.301482	0.676343	0.431664	-0.515107
55570	-9.140320	-0.220820	-3.161207	0.337103	0.301483	-0.149205	0.301027	0.676891	0.429834	-0.516182
55571	-9.105773	-0.273408	-2.489261	-0.009009	-0.214282	-0.371276	0.301917	0.676660	0.429110	-0.516568
55572	-9.083806	-0.765079	-2.521830	-0.433491	0.067454	-0.364513	0.303055	0.676272	0.428651	-0.516790
55573	-9.254845	-0.726859	-3.074042	-0.172784	0.493067	-0.047585	0.303409	0.676386	0.427707	-0.517215
55574	-9.312499	-0.503508	-3.006536	-0.012783	0.339583	-0.019839	0.303912	0.676374	0.426455	-0.517970
55575	-9.223237	-0.477583	-2.747716	-0.099210	0.159149	-0.178847	0.304881	0.676060	0.425462	-0.518625
55576	-9.257498	-0.387670	-2.841991	0.017330	0.220290	-0.123541	0.306092	0.675609	0.424539	-0.519256
55577	-9.128075	-0.438308	-2.604605	-0.124205	0.108357	-0.311604	0.307428	0.675052	0.423677	-0.519894
55578	-9.237923	-0.435693	-2.257148	-0.291567	-0.183510	-0.299276	0.308521	0.674640	0.422725	-0.520556
55579	-9.291766	-0.434582	-2.440666	-0.217341	-0.011804	-0.198365	0.309922	0.674137	0.422256	-0.520757
55580	-9.299839	-0.432282	-2.390875	-0.243768	-0.028848	-0.203846	0.311199	0.673647	0.421568	-0.521187
55581	-9.215917	-0.579785	-1.977680	-0.557870	-0.266205	-0.389399	0.312591	0.673210	0.421103	-0.521293
55582	-9.369180	-0.599498	-2.329730	-0.442177	0.029168	-0.149760	0.313335	0.673295	0.420259	-0.521419
55583	-9.481777	-0.247674	-2.241538	-0.191300	-0.217346	-0.070713	0.313648	0.673673	0.419101	-0.521674
55584	-9.232831	-0.280886	-2.195421	-0.228524	-0.166119	-0.322478	0.314631	0.673779	0.418427	-0.521486
55585	-9.120506	-0.474219	-2.234755	-0.387449	-0.002573	-0.418408	0.315457	0.674101	0.417784	-0.521086
55586	-9.245436	-0.448266	-2.184584	-0.421683	-0.078535	-0.311772	0.316150	0.674688	0.417261	-0.520326
55587	-9.328262	-0.269223	-1.875304	-0.435563	-0.441389	-0.314207	0.316855	0.675332	0.416768	-0.519456
55588	-9.301310	-0.138227	-1.427095	-0.545888	-0.879731	-0.458648	0.317751	0.676088	0.416655	-0.518013
55589	-9.493403	-0.497925	-1.719049	-0.795593	-0.519079	-0.198887	0.318909	0.676998	0.417182	-0.515684
55590	-9.598562	-0.476220	-2.146537	-0.644617	-0.207567	0.011159	0.318856	0.678710	0.416890	-0.513699
55591	-9.546248	-0.073922	-2.163627	-0.320465	-0.392802	-0.037192	0.318533	0.680736	0.416569	-0.511475
55592	-9.489012	0.055681	-2.241073	-0.216208	-0.405339	-0.073311	0.318707	0.682594	0.416817	-0.508680
55593	-9.435942	-0.173401	-1.653687	-0.726279	-0.829248	-0.295012	0.318809	0.684551	0.417565	-0.505361
55594	-9.596752	-0.218976	-1.082269	-1.099148	-1.389725	-0.316544	0.318753	0.686874	0.418763	-0.501237
55595	-10.108568	-0.554289	-1.158198	-1.513597	-1.379211	0.169159	0.318382	0.689762	0.420644	-0.495902
55596	-10.817313	-0.506748	-1.657397	-1.459581	-1.270296	0.970250	0.316288	0.693973	0.421919	-0.490253
55597	-11.353713	0.168634	-2.728946	-0.594925	-0.954178	1.811210	0.312551	0.699011	0.422555	-0.484916
55598	-11.541802	1.246359	-3.317501	0.479383	-1.165057	2.194898	0.307699	0.704340	0.422302	-0.480507
55599	-10.548552	1.928280	-3.573108	1.284320	-1.114443	1.361573	0.304694	0.708242	0.422581	-0.476424
55600	-9.005217	1.614374	-4.423771	1.576496	0.105725	0.225837	0.303918	0.711082	0.424758	-0.470719
55601	-9.114677	0.101033	-4.480509	0.134954	0.718882	0.317729	0.304319	0.713603	0.428462	-0.463229
55602	-9.123076	-1.022795	-4.877928	-0.802484	1.460812	0.448486	0.303898	0.715703	0.430545	-0.458309
55603	-8.188498	-0.492680	-5.465449	0.055305	1.949195	-0.150253	0.301600	0.717603	0.430594	-0.456807
55604	-7.260629	-0.037353	-5.513289	0.657488	2.055506	-0.955094	0.301163	0.718465	0.431273	-0.455097
55605	-6.607334	-0.603578	-5.474524	0.245494	2.485139	-1.581331	0.302290	0.718528	0.432889	-0.452709
55606	-6.439371	-1.583711	-5.269910	-0.712738	2.801117	-1.850829	0.303029	0.719008	0.433861	-0.450518
55607	-6.994280	-1.375104	-4.821313	-0.826363	2.125148	-1.514696	0.299097	0.721560	0.431023	-0.451787
55608	-6.927921	0.158298	-4.625009	0.513707	1.255319	-1.592482	0.292833	0.725170	0.425799	-0.455053
55609	-7.916955	0.216991	-4.119130	0.164906	0.429216	-0.897483	0.287609	0.728800	0.421835	-0.456274
55610	-7.974989	-0.978796	-3.211363	-1.256780	0.244436	-1.255121	0.281855	0.731749	0.416507	-0.460026
55611	-6.974667	-1.589102	-3.900254	-1.187409	1.451088	-1.883807	0.275210	0.734934	0.410369	-0.464466
55612	-7.809824	-1.340847	-4.848106	-0.641294	1.752779	-0.712638	0.266167	0.739049	0.404363	-0.468457
55613	-8.724693	-0.414854	-3.668790	-0.556893	-0.010075	-0.355340	0.256899	0.742188	0.398171	-0.473942
55614	-8.159904	0.182753	-2.494159	-0.447249	-1.051302	-1.354993	0.251431	0.742556	0.394640	-0.479220
55615	-8.118567	0.277607	-1.785295	-0.658397	-1.618908	-1.681225	0.249359	0.740576	0.395240	-0.482858
55616	-8.063111	-0.169606	-1.602202	-1.026895	-1.473336	-1.788748	0.251096	0.735781	0.399643	-0.485657
55617	-8.093834	-3.433035	-3.989864	-2.488799	2.151280	-0.735699	0.266914	0.724964	0.413630	-0.481762
55618	-9.099609	-0.253645	-7.779770	2.014132	3.020480	1.597708	0.253040	0.722088	0.414708	-0.492522
55619	-12.270698	8.342782	0.057237	5.038446	-8.765090	1.048100	0.252072	0.715996	0.418893	-0.498335
55620	-8.798605	1.131353	-4.127699	1.682277	-0.305739	-0.179401	0.283571	0.697545	0.444785	-0.484959
55621	-10.272321	-1.349381	-7.312403	0.595622	3.100298	2.469250	0.287323	0.692758	0.450890	-0.483973
55622	-10.988839	1.757195	-5.632364	2.651042	0.039679	2.374722	0.276217	0.697044	0.444421	-0.490228
55623	-11.028986	3.360315	-2.989756	2.923631	-3.025404	1.330276	0.267262	0.702864	0.438838	-0.491909
55624	-11.244408	-0.579295	0.122955	-2.041358	-3.827854	0.578035	0.271337	0.701958	0.444400	-0.485943
55625	-9.335852	-2.922415	-2.620014	-2.652794	0.118946	-0.039689	0.276157	0.699591	0.448229	-0.483115
55626	-8.619899	-1.925063	-4.846729	-0.698104	1.698623	0.093179	0.272507	0.700383	0.449108	-0.483224
55627	-8.090309	-0.070743	-3.761051	0.567699	0.103237	-0.909300	0.268454	0.701650	0.449412	-0.483372
55628	-7.695861	-0.762031	-3.247450	-0.225683	0.098798	-1.428659	0.268497	0.702108	0.452060	-0.480204
55629	-8.303004	-1.554447	-4.435936	-0.503006	1.133171	-0.352443	0.265685	0.703902	0.452799	-0.478442
55630	-7.879231	-0.528516	-3.884251	0.225580	0.319792	-1.020900	0.261053	0.705877	0.452046	-0.478794
55631	-7.449707	-0.456411	-3.531911	0.194240	0.120828	-1.558697	0.260017	0.706353	0.453920	-0.476879
55632	-7.534644	-1.487437	-3.845265	-0.607149	0.765976	-1.279589	0.259671	0.706730	0.456426	-0.474109
55633	-8.319224	-1.644726	-3.961910	-0.816451	0.563070	-0.505304	0.257712	0.707644	0.458026	-0.472267
55634	-9.079048	-1.748112	-4.586469	-0.748720	0.740236	0.454340	0.256745	0.708326	0.459768	-0.470075
55635	-9.241739	-1.346563	-4.681874	-0.382916	0.515177	0.614714	0.254331	0.709760	0.459596	-0.469392
55636	-9.627730	-1.329040	-3.993146	-0.740790	-0.243992	0.665678	0.253009	0.711349	0.459988	-0.467310
55637	-10.064698	-1.548596	-4.442489	-0.825653	-0.017557	1.266564	0.251448	0.713046	0.459442	-0.466104
55638	-9.334654	-1.008114	-4.725977	-0.134872	0.230011	0.695202	0.249494	0.714920	0.457902	-0.465798
55639	-9.070195	-1.148159	-4.550658	-0.322062	0.243826	0.391814	0.248536	0.716946	0.456756	-0.464319
55640	-8.780791	-1.646104	-4.754292	-0.663935	0.739616	0.258423	0.248027	0.719113	0.454876	-0.463085
55641	-8.637079	-1.517559	-5.306686	-0.311067	1.161590	0.366553	0.246860	0.721563	0.451936	-0.462775
55642	-8.444556	-0.650560	-4.955040	0.303061	0.557747	-0.020689	0.245794	0.723356	0.449240	-0.463169
55643	-8.044353	-0.446117	-5.113717	0.599538	0.765499	-0.319788	0.247478	0.724047	0.447580	-0.462799
55644	-7.862637	-1.183757	-5.471955	0.112047	1.512767	-0.280465	0.250548	0.724238	0.446346	-0.462039
55645	-7.782378	-1.743131	-4.879219	-0.671916	1.407518	-0.594346	0.253435	0.724213	0.444922	-0.461877
55646	-7.649415	-1.384278	-4.868672	-0.362950	1.336438	-0.745406	0.256114	0.723884	0.442790	-0.462964
55647	-7.552395	-0.720029	-5.275360	0.405766	1.437179	-0.693699	0.259187	0.723356	0.440492	-0.464268
55648	-7.901480	-0.467230	-4.843687	0.349307	0.915698	-0.584908	0.262983	0.722721	0.438369	-0.465131
55649	-8.390600	-0.504436	-4.001715	-0.179577	0.166520	-0.506254	0.267363	0.721876	0.436424	-0.465774
55650	-8.726613	-0.808156	-3.967328	-0.555885	0.251165	-0.211981	0.272609	0.720756	0.434423	-0.466340
55651	-8.679167	-0.842198	-4.201677	-0.506133	0.571051	-0.163431	0.276817	0.720266	0.431257	-0.467553
55652	-8.631703	-0.595486	-3.633184	-0.566163	0.111175	-0.446405	0.280137	0.720639	0.427149	-0.468771
55653	-8.991642	-0.464894	-2.949636	-0.867752	-0.540096	-0.393522	0.282634	0.721839	0.422525	-0.469616
55654	-9.678459	-0.568535	-2.912689	-1.169511	-0.673332	0.220133	0.285905	0.723017	0.418454	-0.469469
55655	-9.443634	-0.418157	-2.739368	-1.132700	-0.727267	-0.063409	0.288610	0.724498	0.413862	-0.469601
55656	-9.216917	0.039938	-2.079201	-1.054037	-1.344233	-0.519811	0.290323	0.726823	0.409153	-0.469079
55657	-9.329426	0.241671	-1.814752	-1.113584	-1.649445	-0.516010	0.291830	0.730020	0.404650	-0.467080
55658	-9.296388	-0.007427	-1.849135	-1.415396	-1.458507	-0.554700	0.293274	0.733884	0.400523	-0.463666
55659	-9.490876	-0.571580	-1.876206	-2.066369	-1.200937	-0.420690	0.294285	0.738614	0.396719	-0.458758
55660	-9.877390	-0.749421	-1.874070	-2.475437	-1.247821	-0.119948	0.293880	0.744530	0.392558	-0.452999
55661	-10.830888	-0.408395	-1.177299	-2.956836	-2.322177	0.420652	0.292632	0.751434	0.388607	-0.445755
55662	-12.281369	-0.327161	0.014858	-4.091713	-3.837580	1.117219	0.292104	0.758445	0.385992	-0.436401
55663	-13.600592	-1.008847	0.266989	-5.476709	-4.214104	1.947388	0.293574	0.765450	0.385158	-0.423739
55664	-14.972255	-2.120516	-0.808469	-6.771808	-3.426838	3.290516	0.294002	0.774130	0.384119	-0.408335
55665	-15.738702	-2.736106	-1.207354	-7.839386	-3.266969	3.770097	0.292789	0.784056	0.381129	-0.392776
55666	-14.639905	-3.416473	0.144260	-8.934739	-3.706240	1.694962	0.293653	0.792843	0.379467	-0.375729
55667	-12.933770	-6.076282	-2.259611	-9.909417	0.016796	0.726368	0.306694	0.797674	0.379303	-0.354661
55668	-13.119755	-10.293256	-8.011539	-12.021711	6.333739	2.740225	0.316123	0.801658	0.379941	-0.336236
55669	-11.919266	-5.598438	-6.202527	-8.450377	2.864747	1.688045	0.306439	0.808996	0.374588	-0.333624
55670	-6.812247	-3.400320	-6.142358	-4.161488	3.669620	-1.755810	0.305553	0.811141	0.370807	-0.333450
55671	-3.713650	-5.208705	-9.551844	-2.989386	8.422173	-2.581543	0.307573	0.814436	0.366951	-0.327780
55672	-7.252806	-6.976257	-14.347204	-4.712268	11.408166	2.627239	0.295440	0.825462	0.359788	-0.319187
55673	-10.364849	-7.347991	-5.524694	-9.374475	3.991017	-0.425142	0.267025	0.840277	0.346144	-0.320650
55674	-6.606073	-4.651302	0.491461	-7.263466	0.075048	-6.244359	0.228702	0.853499	0.325139	-0.336926
55675	-3.809821	-2.319074	0.045078	-3.746051	0.133959	-7.396169	0.192149	0.863665	0.305079	-0.352261
55676	-5.696761	-0.861419	-4.683691	-1.312003	0.847589	-2.554392	0.160381	0.870754	0.287733	-0.365068
55677	-6.370372	0.566423	-5.699945	0.041965	-0.266005	-1.250854	0.130783	0.873704	0.269340	-0.383396
55678	-4.536211	0.825314	-3.163538	-0.076618	-1.041075	-4.319590	0.111022	0.873164	0.253559	-0.401206
55679	-5.139192	-0.404359	-2.446327	-1.352782	-0.495854	-4.291768	0.100871	0.869886	0.241744	-0.417951
55680	-6.292694	-1.250595	-3.924527	-1.141669	0.461768	-2.393836	0.094156	0.864385	0.230878	-0.436656
55681	-7.344554	-1.544452	-4.447248	-1.099015	0.675478	-1.185545	0.088399	0.856846	0.220034	-0.457806
55682	-8.320126	-2.189151	-4.054527	-1.714516	0.979686	-0.510333	0.085082	0.846544	0.209618	-0.481855
55683	-8.952770	-2.974024	-4.798450	-1.185534	1.965911	0.517563	0.081660	0.833601	0.198634	-0.508907
55684	-9.103105	-2.468785	-5.664163	0.356637	1.928863	1.010906	0.074045	0.819237	0.186274	-0.537280
55685	-10.621890	-1.776020	-5.014280	0.283668	0.887394	2.027964	0.066590	0.803328	0.174594	-0.565462
55686	-11.250025	-2.066404	-5.841670	1.574208	1.421870	2.851759	0.060406	0.784713	0.164401	-0.594600
55687	-10.996831	-1.568640	-5.963606	2.811443	1.147174	2.420957	0.051913	0.764282	0.153458	-0.624203
55688	-10.603631	0.203560	-5.730591	4.032747	-0.488016	1.534377	0.043144	0.742575	0.145022	-0.652449
55689	-11.182752	2.274941	-5.507295	5.078601	-2.585199	1.502275	0.039383	0.720349	0.142761	-0.677617
55690	-10.844335	2.118933	-5.464254	5.750216	-2.269586	0.849136	0.045590	0.696828	0.152322	-0.699393
55691	-10.261893	-0.091155	-6.367453	6.637279	0.392126	0.267719	0.055270	0.675180	0.167008	-0.716370
55692	-10.044238	-1.726951	-7.319801	7.489724	2.492712	-0.060092	0.062024	0.655354	0.180108	-0.730907
55693	-8.432431	-0.455359	-6.671866	7.420534	1.479731	-2.160616	0.062339	0.637647	0.184963	-0.745190
55694	-6.796655	1.536177	-6.185227	7.555007	-0.197425	-4.364158	0.065513	0.624864	0.190214	-0.754368
55695	-4.504951	0.881183	-5.757708	6.557274	0.692286	-6.534971	0.071333	0.618763	0.197081	-0.757101
55696	-5.302656	0.438427	-5.769523	6.587693	1.052057	-5.678352	0.070788	0.621589	0.203555	-0.753114
55697	-10.167735	1.692771	-5.255629	7.507584	-1.070478	-1.074613	0.068978	0.629940	0.213100	-0.743644
55698	-9.463083	1.608259	-4.828082	6.772541	-1.155983	-1.551992	0.067645	0.637682	0.214779	-0.736651
55699	-16.564239	-0.074364	4.819452	-1.821452	-4.586543	6.716280	0.052868	0.652896	0.192878	-0.730568
55700	-15.133478	2.138059	6.599020	-3.537588	-6.579350	5.063319	0.034075	0.657127	0.162144	-0.735345
55701	-9.791786	8.353646	-3.189101	6.169527	-8.780927	-2.026806	0.018701	0.669705	0.141727	-0.728738
55702	-12.089012	1.443634	-1.447888	2.709365	-3.046488	1.749357	0.024287	0.685615	0.147303	-0.712491
55703	-11.753772	-7.206132	-9.934504	8.298402	7.420701	3.023157	0.041527	0.698670	0.160097	-0.696063
55704	-9.725948	-11.559779	-13.891477	10.676143	12.829102	2.128025	0.024369	0.710507	0.139015	-0.689392
55705	-10.427427	-1.086722	-2.076067	1.621146	-0.342893	0.745221	-0.009714	0.719440	0.110738	-0.685601
55706	-9.152311	11.911375	4.038072	-3.128292	-13.622957	-2.992515	-0.030541	0.722190	0.086790	-0.685548
55707	-8.892058	5.800020	-3.105859	3.343854	-6.808953	-1.763838	0.007507	0.728468	0.122992	-0.673907
55708	-11.146383	-5.833065	-6.333748	4.132206	5.041568	2.670467	0.037918	0.732473	0.149886	-0.663008
55709	-10.291036	-8.962358	-5.924309	2.670174	8.206788	2.305187	0.030292	0.734162	0.145946	-0.662411
55710	-9.206703	-2.982303	-3.072691	1.545867	1.886162	0.043769	0.016140	0.736859	0.136937	-0.661836
55711	-10.125854	0.275439	-0.232230	-0.599201	-2.055025	0.090865	0.005348	0.738236	0.127826	-0.662299
55712	-9.151216	0.348387	2.186381	-2.888456	-2.371733	-1.171040	0.012269	0.738704	0.132662	-0.660732
55713	-9.801040	-2.191008	-1.352686	-0.090418	0.626393	0.301052	0.029722	0.739870	0.147866	-0.655626
55714	-9.673869	-4.234668	-3.941723	1.786049	3.252197	0.830874	0.037246	0.739471	0.152924	-0.654530
55715	-8.672148	-2.348593	-0.967361	-0.512972	0.939795	-0.839870	0.032235	0.740653	0.147909	-0.654612
55716	-9.317462	-0.148122	0.404270	-1.357785	-1.597221	-0.723922	0.030097	0.742097	0.145889	-0.653531
55717	-9.372599	-0.497582	-0.098794	-0.999932	-1.163764	-0.552632	0.039097	0.742452	0.154279	-0.650719
55718	-9.399507	-2.265133	-0.426853	-1.223556	0.584773	-0.230197	0.049365	0.742454	0.163607	-0.647733
55719	-9.181883	-2.376709	-0.715280	-1.039390	0.797746	-0.391960	0.054457	0.743621	0.168185	-0.644807
55720	-9.424446	-2.153247	-0.747638	-1.051936	0.545330	-0.189231	0.059473	0.745449	0.172394	-0.641131
55721	-9.367574	-2.134019	-1.257549	-0.655694	0.687540	-0.169894	0.063613	0.747601	0.175380	-0.637407
55722	-9.314170	-1.554666	-0.785378	-0.991893	0.009929	-0.389159	0.067055	0.750037	0.177689	-0.633542
55723	-9.250706	-1.280182	-0.623184	-1.139899	-0.290406	-0.527317	0.072019	0.752692	0.181465	-0.628760
55724	-9.312312	-1.994192	-1.253151	-0.939984	0.561209	-0.269824	0.078880	0.755285	0.186751	-0.623255
55725	-9.070631	-1.902751	-2.353491	0.002445	0.899202	-0.292941	0.083795	0.758357	0.190211	-0.617813
55726	-9.516836	-1.545727	-2.552825	0.110496	0.567858	0.144224	0.088581	0.761385	0.193238	-0.612458
55727	-9.585223	-1.106723	-2.504507	0.098978	0.152396	0.154238	0.093541	0.763953	0.195902	-0.607658
55728	-9.094584	-0.658039	-2.103434	-0.102931	-0.293528	-0.460086	0.099023	0.766282	0.199004	-0.602830
55729	-9.228090	-1.362219	-2.462823	-0.230884	0.482483	-0.179898	0.108526	0.768291	0.205517	-0.596418
55730	-9.565480	-2.590355	-2.865543	-0.652037	1.718204	0.338133	0.119328	0.769735	0.212403	-0.590046
55731	-9.957060	-2.301931	-2.772285	-0.855017	1.387645	0.650043	0.127421	0.771338	0.216680	-0.584680
55732	-9.894894	-1.465396	-2.939250	-0.456297	0.785845	0.573238	0.137071	0.772651	0.221313	-0.579002
55733	-10.194647	-1.848670	-3.178731	-0.679261	1.252187	0.930675	0.149818	0.773102	0.226934	-0.573034
55734	-9.870652	-2.592424	-2.630999	-1.610701	1.772079	0.450587	0.161806	0.773469	0.230928	-0.567659
55735	-10.418944	-2.439803	-2.357003	-2.047197	1.482099	0.849046	0.170437	0.774539	0.232961	-0.562823
55736	-10.895838	-0.652212	-1.833077	-1.734797	-0.318530	1.114024	0.174230	0.776030	0.232632	-0.559735
55737	-11.864765	0.311410	0.159997	-3.091885	-2.320495	1.410089	0.182312	0.774459	0.239813	-0.556296
55738	-11.029655	-1.077812	-0.809700	-2.873031	-0.578884	0.905520	0.202366	0.765284	0.262419	-0.551838
55739	-9.063304	-1.200828	-3.414743	-0.470716	1.359353	-0.159891	0.223631	0.750441	0.291774	-0.549268
55740	-6.676449	0.374085	-3.759303	1.401261	0.962873	-2.332418	0.248550	0.730622	0.328657	-0.544425
55741	-6.351301	-2.037097	-6.791703	1.244674	5.026347	-1.828475	0.292294	0.703287	0.379645	-0.525187
55742	-6.536849	-7.001662	-11.802844	-1.469200	11.778836	-0.328341	0.326135	0.677109	0.425430	-0.504152
55743	-7.901466	-3.552309	-6.447734	-1.691379	5.061458	-0.424757	0.339622	0.657932	0.457740	-0.492196
55744	-8.156800	-2.684286	-3.238641	-2.209519	1.532074	-1.038305	0.358327	0.634593	0.493228	-0.474995
55745	-6.015095	-4.634466	-5.562426	-3.554778	4.449816	-2.319984	0.372295	0.612977	0.524534	-0.458825
55746	-6.749963	-2.992498	-5.556731	-2.147031	3.572647	-1.565755	0.373170	0.598942	0.549001	-0.447895
55747	-8.278280	-0.146159	-5.159250	0.661098	2.102825	-0.309726	0.369665	0.586656	0.569802	-0.441031
55748	-7.262745	1.326046	-3.455037	2.011066	0.627782	-1.938432	0.370848	0.573371	0.588188	-0.433304
55749	-6.917903	0.380200	-2.748118	1.064934	0.093943	-2.436320	0.375738	0.559082	0.607096	-0.421524
55750	-7.791763	0.155265	-3.196835	0.993841	0.157941	-1.449537	0.378337	0.547514	0.620277	-0.415147
55751	-9.296303	2.336410	-2.942264	3.430493	-0.513816	-0.405077	0.379103	0.537670	0.630521	-0.411867
55752	-17.052828	-0.444875	5.032307	2.255483	-10.818633	4.121472	0.392645	0.519503	0.643287	-0.402652
55753	-13.362252	4.599438	3.858634	6.863522	-7.535922	0.707950	0.396167	0.513923	0.634111	-0.420522
55754	-17.367764	9.178104	8.298460	12.442684	-11.913901	2.752740	0.415817	0.498157	0.635519	-0.418392
55755	-12.286888	3.660725	-2.283254	5.204958	-0.553902	2.110360	0.436882	0.482211	0.639435	-0.409549
55756	-11.289589	-2.268158	-4.582590	-1.318965	0.972414	2.471788	0.450306	0.473324	0.645151	-0.396193
55757	-10.110070	-8.898789	-2.222991	-7.615137	-2.435477	1.251689	0.456426	0.469912	0.642182	-0.398070
55758	-6.244146	-3.215615	-0.948143	-2.417826	-1.210794	-3.262066	0.442490	0.483775	0.626736	-0.421148
55759	-8.823886	1.706450	1.075035	3.052162	-2.850880	-1.782474	0.429317	0.493766	0.618330	-0.435374
55760	-11.429521	3.199186	0.188647	4.824534	-2.462877	0.749617	0.432512	0.489635	0.623335	-0.429702
55761	-10.629532	-0.269509	-1.877633	1.062091	-0.761704	0.905366	0.442028	0.479840	0.632280	-0.417836
55762	-9.610253	-2.002984	-3.294739	-1.024166	0.517101	0.478469	0.442018	0.480783	0.631453	-0.418014
55763	-9.391454	0.761722	-3.305381	1.711844	1.030566	-0.029519	0.429239	0.492985	0.622815	-0.429908
55764	-8.313772	4.512575	-2.415007	5.458707	0.789636	-1.757354	0.417926	0.503113	0.615332	-0.439979
55765	-7.236668	4.818298	-4.679670	5.497867	3.106139	-2.222666	0.415704	0.507132	0.617770	-0.434013
55766	-8.367382	2.574473	-6.197373	3.307326	3.883602	-0.377474	0.411286	0.514087	0.619542	-0.427464
55767	-9.689824	2.016749	-4.806413	3.020648	1.897092	0.595605	0.402310	0.522535	0.620250	-0.424728
55768	-10.657737	3.957801	-3.005106	5.199579	-0.203866	0.732409	0.392496	0.530500	0.619208	-0.425556
55769	-10.622550	5.664952	-1.543407	6.951520	-1.629879	0.002185	0.390530	0.531451	0.622126	-0.421907
55770	-9.293727	4.008736	-2.857269	5.056185	-0.056431	-0.591120	0.399045	0.523966	0.631834	-0.408667
55771	-9.904295	2.914165	-4.108700	3.828906	0.868084	0.582081	0.409295	0.515982	0.641536	-0.393283
55772	-10.358973	4.013318	-1.778008	5.059249	-1.175266	0.166994	0.422684	0.507065	0.648701	-0.378695
55773	-8.467761	1.166199	-1.271953	1.958162	-1.392313	-1.511815	0.443561	0.491897	0.657965	-0.358292
55774	-8.095441	-0.946330	-3.937112	-0.919502	0.672747	-0.833308	0.460897	0.478009	0.665582	-0.340708
55775	-9.862929	0.641963	-3.596545	0.708672	0.302430	0.676773	0.471477	0.468416	0.668760	-0.333249
55776	-9.242809	1.519117	-0.818455	2.214886	-1.540250	-0.805773	0.488049	0.452044	0.674049	-0.321127
55777	-7.829423	-1.801681	-2.019246	-1.553682	-1.238827	-1.770721	0.510435	0.428128	0.683241	-0.298907
55778	-8.357452	-4.487936	-4.481703	-5.087084	-0.627736	-0.658699	0.526261	0.409968	0.689154	-0.282918
55779	-8.509951	-2.738456	-2.406953	-2.617820	-1.623539	-1.082112	0.534516	0.398376	0.691789	-0.277520
55780	-8.143203	-1.787566	-1.275224	-1.261781	-1.946701	-1.703956	0.544473	0.382066	0.697202	-0.267366
55781	-7.788300	-2.804679	-3.533948	-3.366902	-0.676353	-1.492937	0.553840	0.363021	0.704354	-0.255660
55782	-7.695298	-2.147336	-4.748105	-3.553503	0.585290	-1.245146	0.557869	0.347950	0.711138	-0.248990
55783	-5.073929	-3.093807	-6.859148	-5.970363	1.964818	-3.266608	0.562824	0.332382	0.719216	-0.235540
55784	-4.534785	-7.785915	-11.100910	-12.325270	1.590929	-2.746082	0.558315	0.322498	0.731945	-0.220310
55785	-10.066491	-4.196784	-6.072494	-5.186182	-0.921005	1.503514	0.536060	0.335392	0.738491	-0.234059
55786	-13.293916	3.646570	0.933803	6.136156	-1.683014	2.450710	0.515139	0.357046	0.733191	-0.263782
55787	-10.381108	5.722603	-0.739050	6.466238	1.352289	0.057366	0.508347	0.355566	0.739020	-0.262688
55788	-13.142123	-3.424820	-5.910057	-2.905236	-1.239670	4.656899	0.506755	0.341358	0.753998	-0.241168
55789	-12.705244	-5.583770	-4.383136	-3.511736	-3.705194	3.815738	0.493068	0.346917	0.753891	-0.261116
55790	-7.012895	6.757470	-4.547337	5.105901	5.618055	-2.208796	0.471303	0.361974	0.745251	-0.302405
55791	-4.199841	7.223370	-5.920512	4.222253	7.677589	-4.513539	0.475237	0.346111	0.757063	-0.284979
55792	-7.527083	-7.298188	-8.150324	-7.727575	-0.578325	0.965381	0.480941	0.323919	0.777751	-0.242645
55793	-11.360431	-11.682232	-9.050002	-10.091164	-4.376046	5.234923	0.472041	0.321885	0.780334	-0.254254
55794	-9.705617	-0.901496	-4.924344	0.094736	0.584163	1.090581	0.458687	0.329037	0.773391	-0.288458
55795	-8.241229	3.047539	-3.653915	3.571201	2.632652	-1.394316	0.452686	0.330437	0.772099	-0.299584
55796	-9.126636	-1.575986	-3.113579	0.605813	-0.810859	-0.094352	0.458134	0.317220	0.782159	-0.278770
55797	-10.332576	-6.108993	-7.364914	-4.650790	-1.022441	3.440504	0.460935	0.312237	0.784610	-0.272827
55798	-9.755893	-2.985421	-5.519589	-1.474640	-0.132654	1.691959	0.456135	0.315096	0.781019	-0.287514
55799	-9.061103	0.869197	-4.467107	1.890351	1.874039	-0.028831	0.451045	0.317556	0.777123	-0.302981
55800	-8.850721	2.091970	-2.727406	3.712242	1.447426	-1.194444	0.452067	0.313872	0.777500	-0.304324
55801	-8.577921	-0.393630	-3.235226	1.414952	0.398987	-0.755051	0.457429	0.303748	0.782707	-0.293028
55802	-8.342117	-2.934419	-3.874675	-0.963966	-0.752226	-0.235684	0.463120	0.293857	0.786984	-0.282532
55803	-7.718654	-3.496397	-3.759398	-1.557836	-1.131897	-0.744757	0.464843	0.287462	0.789242	-0.279969
55804	-7.845183	-2.636262	-3.242282	-0.565583	-0.950412	-0.993055	0.465822	0.282372	0.791095	-0.278289
55805	-8.150667	-2.005919	-3.379305	-0.042685	-0.469021	-0.776378	0.466108	0.278485	0.792488	-0.277764
55806	-8.154146	-1.489059	-2.912783	0.620110	-0.429003	-1.059229	0.466257	0.274971	0.793902	-0.276975
55807	-8.402052	-1.948631	-2.787537	0.505511	-0.875867	-0.804959	0.466090	0.270847	0.796379	-0.274194
55808	-8.521772	-2.081727	-3.333622	0.187699	-0.617942	-0.450534	0.464598	0.268436	0.798295	-0.273527
55809	-9.065169	-1.486470	-2.953605	1.112999	-0.568081	-0.244578	0.461508	0.267448	0.800282	-0.273917
