// General information: 
//  MT Manager version: 2021.0.0 
//  XDA version: 2021.0.0 build 5908 rev 109668 built on 2021-04-19
// Device information: 
//  DeviceId: 00B43DF8
//  ProductCode: MTW2-3A7G6
//  Firmware Version: 4.3.5
//  Hardware Version: 1.1.0
// Device settings: 
//  Filter Profile: human(46.1)
//  Option Flags: Orientation Smoother Disabled, Position/Velocity Smoother Disabled, Continuous Zero Rotation Update Disabled, AHS Disabled, ICC Disabled
// Coordinate system: ENU
PacketCounter	Acc_X	Acc_Y	Acc_Z	FreeAcc_E	FreeAcc_N	FreeAcc_U	Quat_q0	Quat_q1	Quat_q2	Quat_q3
54636	-8.852152	-1.367063	4.018284	0.012298	0.055423	0.004280	-0.656338	-0.270148	-0.465631	0.528610
54637	-8.818443	-1.375548	4.041381	0.012261	0.019627	-0.015275	-0.656351	-0.270121	-0.465602	0.528633
54638	-8.840977	-1.338597	4.032074	0.043685	0.049302	-0.004120	-0.656355	-0.270116	-0.465580	0.528651
54639	-8.845058	-1.352388	4.032544	0.030905	0.047012	0.001703	-0.656348	-0.270094	-0.465571	0.528677
54640	-8.853992	-1.351282	3.989856	0.017599	0.088345	-0.008098	-0.656374	-0.270054	-0.465529	0.528704
54641	-8.847688	-1.351928	4.019111	0.027017	0.061983	-0.001572	-0.656383	-0.269992	-0.465511	0.528740
54642	-8.822850	-1.403372	4.058291	-0.007780	0.003665	-0.000359	-0.656390	-0.269947	-0.465477	0.528784
54643	-8.817727	-1.374865	4.043175	0.014210	0.023877	-0.015287	-0.656380	-0.269934	-0.465459	0.528819
54644	-8.841393	-1.352661	4.048308	0.037067	0.037058	0.004949	-0.656352	-0.269930	-0.465464	0.528851
54645	-8.854580	-1.365799	4.005575	0.010674	0.075396	0.000967	-0.656336	-0.269916	-0.465444	0.528896
54646	-8.840683	-1.369981	4.002833	0.006289	0.071359	-0.012072	-0.656332	-0.269867	-0.465420	0.528946
54647	-8.841472	-1.384619	4.018058	-0.001941	0.055564	-0.002973	-0.656321	-0.269836	-0.465397	0.528996
54648	-8.844334	-1.384371	4.004050	-0.006139	0.069811	-0.006249	-0.656303	-0.269820	-0.465358	0.529061
54649	-8.854955	-1.380492	4.021693	0.003430	0.061730	0.010051	-0.656305	-0.269802	-0.465327	0.529096
54650	-8.839063	-1.355602	3.989359	0.016123	0.090776	-0.021202	-0.656305	-0.269770	-0.465286	0.529147
54651	-8.847502	-1.366447	4.036517	0.021703	0.052619	0.007480	-0.656310	-0.269741	-0.465237	0.529199
54652	-8.853256	-1.365890	4.008468	0.012933	0.080415	0.000925	-0.656305	-0.269697	-0.465207	0.529255
54653	-8.832168	-1.356329	4.019865	0.026169	0.065828	-0.014672	-0.656289	-0.269672	-0.465156	0.529332
54654	-8.837064	-1.384837	4.035466	0.004824	0.047021	0.000274	-0.656242	-0.269685	-0.465141	0.529396
54655	-8.838699	-1.338805	4.036996	0.049175	0.061462	-0.004214	-0.656226	-0.269639	-0.465097	0.529478
54656	-8.822717	-1.389420	4.033565	0.000718	0.043749	-0.012761	-0.656240	-0.269581	-0.465047	0.529534
54657	-8.830003	-1.386304	4.066042	0.014842	0.022142	0.006822	-0.656234	-0.269528	-0.465015	0.529596
54658	-8.802320	-1.394436	4.060376	0.005716	0.013343	-0.019234	-0.656228	-0.269518	-0.464995	0.529627
54659	-8.854895	-1.366246	3.996975	0.010628	0.098942	-0.002402	-0.656217	-0.269543	-0.464971	0.529649
54660	-8.839116	-1.384611	4.023241	0.002191	0.064846	-0.003030	-0.656225	-0.269495	-0.464951	0.529681
54661	-8.814242	-1.360658	4.033702	0.028527	0.053259	-0.024462	-0.656214	-0.269493	-0.464920	0.529722
54662	-8.828291	-1.388208	4.006158	-0.006418	0.075106	-0.019349	-0.656194	-0.269462	-0.464913	0.529769
54663	-8.841751	-1.352576	4.039727	0.038649	0.064231	0.001578	-0.656189	-0.269451	-0.464881	0.529808
54664	-8.856600	-1.394776	4.027356	-0.004852	0.069545	0.015818	-0.656176	-0.269386	-0.464869	0.529869
54665	-8.796899	-1.365829	4.045966	0.029640	0.037870	-0.034219	-0.656174	-0.269328	-0.464833	0.529932
54666	-8.852843	-1.396162	4.042913	0.000342	0.057427	0.019095	-0.656178	-0.269267	-0.464814	0.529975
54667	-8.823323	-1.375561	4.007245	0.008293	0.081649	-0.025222	-0.656139	-0.269288	-0.464793	0.530031
54668	-8.844758	-1.367996	4.042000	0.027142	0.064812	0.007394	-0.656133	-0.269256	-0.464752	0.530091
54669	-8.840670	-1.385698	4.011675	0.000549	0.084870	-0.006366	-0.656137	-0.269202	-0.464704	0.530155
54670	-8.830003	-1.372712	4.040944	0.023039	0.061491	-0.005639	-0.656148	-0.269113	-0.464651	0.530234
54671	-8.824052	-1.405002	4.039419	-0.007573	0.051503	-0.006968	-0.656104	-0.269155	-0.464639	0.530278
54672	-8.854376	-1.364480	4.061688	0.037665	0.058872	0.023684	-0.656104	-0.269151	-0.464564	0.530345
54673	-8.812588	-1.376162	4.053924	0.023769	0.045344	-0.015381	-0.656120	-0.269107	-0.464479	0.530422
54674	-8.809465	-1.407794	4.038653	-0.011370	0.048888	-0.019999	-0.656117	-0.269096	-0.464440	0.530465
54675	-8.842758	-1.366925	4.046736	0.029360	0.069806	0.007353	-0.656114	-0.269115	-0.464394	0.530499
54676	-8.832167	-1.370021	4.029332	0.020400	0.079316	-0.008967	-0.656092	-0.269127	-0.464376	0.530536
54677	-8.837376	-1.397895	4.044440	-0.000951	0.060556	0.006027	-0.656072	-0.269156	-0.464354	0.530565
54678	-8.834648	-1.397434	4.058362	0.003920	0.047759	0.009320	-0.656051	-0.269185	-0.464332	0.530596
54679	-8.829906	-1.368267	4.042663	0.025896	0.067964	-0.005689	-0.656029	-0.269212	-0.464289	0.530648
54680	-8.834095	-1.381669	4.043045	0.013114	0.065708	0.000160	-0.656017	-0.269229	-0.464272	0.530669
54681	-8.850922	-1.376802	4.031824	0.013631	0.084689	0.009871	-0.656026	-0.269213	-0.464222	0.530709
54682	-8.843614	-1.362616	4.046320	0.031577	0.074822	0.007309	-0.656034	-0.269184	-0.464163	0.530765
54683	-8.816943	-1.384670	4.055609	0.013884	0.049485	-0.009569	-0.655986	-0.269220	-0.464126	0.530838
54684	-8.819816	-1.384197	4.041697	0.009649	0.063719	-0.012876	-0.655991	-0.269179	-0.464067	0.530906
54685	-8.847723	-1.390371	4.063890	0.010868	0.057496	0.022307	-0.656016	-0.269131	-0.463979	0.530975
54686	-8.801609	-1.388255	4.056183	0.010051	0.046877	-0.022595	-0.656050	-0.269056	-0.463880	0.531059
54687	-8.817559	-1.383662	4.046801	0.010566	0.065926	-0.012891	-0.656082	-0.269019	-0.463773	0.531131
54688	-8.824575	-1.379741	4.080033	0.024701	0.044366	0.006727	-0.656094	-0.268979	-0.463693	0.531206
54689	-8.830153	-1.378998	4.052557	0.015950	0.072120	0.000110	-0.656078	-0.268970	-0.463617	0.531296
54690	-8.847303	-1.388815	4.057545	0.007940	0.074638	0.018976	-0.656099	-0.268921	-0.463521	0.531380
54691	-8.829619	-1.392911	4.070841	0.008044	0.057060	0.009268	-0.656120	-0.268866	-0.463408	0.531479
54692	-8.802115	-1.415069	4.081843	-0.009683	0.031753	-0.007587	-0.656155	-0.268808	-0.463303	0.531557
54693	-8.813181	-1.381972	4.056903	0.012479	0.070223	-0.012923	-0.656184	-0.268767	-0.463200	0.531632
54694	-8.812630	-1.381289	4.058333	0.012789	0.070945	-0.012929	-0.656196	-0.268766	-0.463115	0.531693
54695	-8.805128	-1.367022	4.073180	0.030732	0.061104	-0.015486	-0.656215	-0.268711	-0.463052	0.531751
54696	-8.804504	-1.366977	4.074543	0.031043	0.061819	-0.015492	-0.656225	-0.268666	-0.462966	0.531836
54697	-8.857086	-1.396951	4.086899	0.006327	0.067993	0.041120	-0.656246	-0.268623	-0.462885	0.531903
54698	-8.817892	-1.376905	4.095412	0.027889	0.051546	0.006684	-0.656265	-0.268570	-0.462810	0.531971
54699	-8.808498	-1.366072	4.050662	0.022948	0.091000	-0.022139	-0.656300	-0.268494	-0.462703	0.532059
54700	-8.794437	-1.384576	4.065186	0.009966	0.070440	-0.025970	-0.656361	-0.268375	-0.462584	0.532148
54701	-8.834380	-1.372628	4.077070	0.024537	0.085488	0.013042	-0.656406	-0.268289	-0.462458	0.532245
54702	-8.779999	-1.417385	4.097390	-0.011241	0.034124	-0.020615	-0.656447	-0.268204	-0.462350	0.532332
54703	-8.795972	-1.412814	4.088057	-0.010744	0.053157	-0.010931	-0.656486	-0.268164	-0.462259	0.532382
54704	-8.805104	-1.394008	4.092067	0.007409	0.061622	-0.003800	-0.656535	-0.268120	-0.462166	0.532425
54705	-8.791802	-1.411761	4.105149	-0.005586	0.041100	-0.007618	-0.656550	-0.268095	-0.462114	0.532465
54706	-8.811108	-1.374853	4.110674	0.030442	0.057278	0.006644	-0.656574	-0.268086	-0.462052	0.532493
54707	-8.802361	-1.406234	4.123321	0.004380	0.033763	0.008701	-0.656561	-0.268132	-0.462028	0.532506
54708	-8.797633	-1.376978	4.107685	0.026318	0.053909	-0.006368	-0.656588	-0.268105	-0.461994	0.532516
54709	-8.804711	-1.389867	4.094320	0.008980	0.065214	-0.003824	-0.656623	-0.268115	-0.461946	0.532509
54710	-8.807924	-1.388782	4.080023	0.004742	0.079433	-0.007153	-0.656635	-0.268095	-0.461942	0.532508
54711	-8.801039	-1.374222	4.093531	0.022665	0.069575	-0.009708	-0.656651	-0.268111	-0.461914	0.532505
54712	-8.805238	-1.387487	4.093995	0.009905	0.067335	-0.003839	-0.656650	-0.268110	-0.461897	0.532522
54713	-8.778593	-1.377440	4.132753	0.032151	0.025614	-0.012739	-0.656646	-0.268138	-0.461903	0.532508
54714	-8.792461	-1.390015	4.089384	0.005742	0.063949	-0.016849	-0.656632	-0.268166	-0.461925	0.532491
54715	-8.794109	-1.403283	4.103115	-0.002521	0.048178	-0.007649	-0.656626	-0.268224	-0.461933	0.532463
54716	-8.804650	-1.383879	4.104251	0.015657	0.056644	-0.000531	-0.656616	-0.268272	-0.461948	0.532437
54717	-8.804608	-1.368484	4.087773	0.024527	0.073817	-0.009743	-0.656582	-0.268335	-0.461981	0.532418
54718	-8.795845	-1.385441	4.083655	0.006993	0.066764	-0.016869	-0.656552	-0.268415	-0.462002	0.532397
54719	-8.807623	-1.380730	4.098929	0.016623	0.058774	-0.000545	-0.656482	-0.268484	-0.462067	0.532392
54720	-8.819487	-1.376382	4.113908	0.026224	0.050776	0.015779	-0.656419	-0.268557	-0.462121	0.532386
54721	-8.799175	-1.383699	4.077067	0.007964	0.068936	-0.016884	-0.656323	-0.268625	-0.462168	0.532430
54722	-8.790406	-1.401832	4.072576	-0.009586	0.061920	-0.024004	-0.656201	-0.268715	-0.462205	0.532502
54723	-8.817091	-1.316572	4.122336	0.088820	0.055983	0.008570	-0.656024	-0.268787	-0.462239	0.532655
54724	-8.821242	-1.349655	4.075530	0.044550	0.086580	-0.002675	-0.655799	-0.268873	-0.462283	0.532850
54725	-8.812269	-1.321053	4.146963	0.098498	0.030366	0.015230	-0.655529	-0.268918	-0.462309	0.533138
54726	-8.780179	-1.535245	4.075348	-0.122817	0.013340	-0.012599	-0.655282	-0.268892	-0.462410	0.533367
54727	-8.832381	-1.490320	4.129918	-0.058925	0.003385	0.050616	-0.655003	-0.269051	-0.462396	0.533641
54728	-8.822658	-1.222015	4.099448	0.186972	0.103297	-0.010011	-0.654538	-0.269327	-0.462294	0.534160
54729	-8.849523	-1.078128	4.207625	0.365417	0.064644	0.038343	-0.653819	-0.269457	-0.462486	0.534809
54730	-8.771374	-1.464148	4.136003	-0.010839	-0.024160	-0.005214	-0.652996	-0.269581	-0.462716	0.535552
54731	-8.760167	-1.694526	4.049108	-0.245024	-0.025802	-0.017459	-0.652220	-0.269847	-0.463013	0.536108
54732	-8.780134	-1.652794	3.969735	-0.223339	0.056136	-0.038833	-0.651473	-0.270433	-0.463120	0.536628
54733	-8.802650	-1.302559	4.206451	0.189881	-0.041980	0.028030	-0.650600	-0.271086	-0.463188	0.537299
54734	-8.743451	-1.333044	4.316258	0.203643	-0.180320	0.025047	-0.649451	-0.271814	-0.463482	0.538066
54735	-8.881914	-1.244386	4.218705	0.267408	-0.029894	0.094981	-0.647832	-0.273293	-0.463906	0.538902
54736	-9.047821	-1.071200	3.867274	0.332611	0.368021	0.072666	-0.646280	-0.274570	-0.464243	0.539826
54737	-8.916207	-1.649046	3.795301	-0.229505	0.196802	0.012331	-0.645116	-0.275310	-0.464493	0.540626
54738	-8.825367	-1.815307	3.784755	-0.385364	0.114246	-0.048198	-0.644337	-0.275912	-0.464349	0.541371
54739	-8.852593	-1.497656	3.905526	-0.044097	0.108823	-0.022349	-0.643795	-0.276352	-0.463941	0.542141
54740	-8.820664	-1.464173	3.857097	-0.027669	0.149237	-0.076052	-0.643439	-0.276533	-0.463623	0.542742
54741	-8.862919	-1.408235	3.868913	0.031053	0.177991	-0.041797	-0.643183	-0.276576	-0.463311	0.543291
54742	-8.807122	-1.515490	3.895842	-0.061878	0.109968	-0.064674	-0.643071	-0.276319	-0.463050	0.543776
54743	-8.805013	-1.640827	3.905563	-0.175766	0.077610	-0.043498	-0.643104	-0.275982	-0.462785	0.544133
54744	-8.756435	-1.617055	4.025145	-0.117719	-0.028784	-0.041449	-0.643356	-0.275607	-0.462402	0.544351
54745	-8.809202	-1.541539	4.030525	-0.045763	0.021255	-0.003459	-0.643692	-0.275265	-0.462041	0.544434
54746	-8.778970	-1.441150	4.033571	0.046201	0.042469	-0.044731	-0.644054	-0.274946	-0.461668	0.544483
54747	-8.809758	-1.445993	4.034027	0.038467	0.063441	-0.016230	-0.644399	-0.274658	-0.461423	0.544428
54748	-8.767025	-1.483680	4.063094	0.007385	0.016806	-0.036675	-0.644762	-0.274350	-0.461236	0.544313
54749	-8.763242	-1.625184	3.965944	-0.160869	0.066456	-0.059019	-0.645159	-0.274118	-0.461053	0.544113
54750	-8.765269	-1.508937	4.030783	-0.036469	0.048070	-0.047935	-0.645564	-0.274036	-0.460729	0.543949
54751	-8.806218	-1.504622	4.060017	-0.030367	0.046822	0.000262	-0.645976	-0.273975	-0.460470	0.543711
54752	-8.813874	-1.459925	4.125680	0.023805	0.009012	0.027858	-0.646340	-0.274077	-0.460148	0.543498
54753	-8.836435	-1.405847	4.029575	0.036400	0.117934	-0.000388	-0.646683	-0.274198	-0.459803	0.543321
54754	-8.795865	-1.445744	4.146120	0.024234	-0.007946	0.018237	-0.647003	-0.274304	-0.459474	0.543165
54755	-8.846951	-1.398334	4.070676	0.037836	0.094203	0.025197	-0.647294	-0.274448	-0.459149	0.543021
54756	-8.862206	-1.340591	4.078076	0.086956	0.113340	0.033437	-0.647605	-0.274446	-0.458825	0.542925
54757	-8.816720	-1.360493	4.105216	0.068964	0.069620	0.007124	-0.647913	-0.274354	-0.458502	0.542876
54758	-8.807271	-1.374596	4.095623	0.046895	0.076117	-0.003321	-0.648234	-0.274174	-0.458206	0.542834
54759	-8.796396	-1.384849	4.160836	0.052334	0.019857	0.016037	-0.648543	-0.273971	-0.457917	0.542811
54760	-8.766247	-1.390369	4.161256	0.043098	0.010879	-0.009918	-0.648800	-0.273781	-0.457711	0.542773
54761	-8.741646	-1.424208	4.175986	0.012248	-0.017420	-0.020693	-0.648970	-0.273702	-0.457562	0.542736
54762	-8.783358	-1.423764	4.201860	0.018336	-0.018608	0.027507	-0.649118	-0.273681	-0.457494	0.542626
54763	-8.798805	-1.389304	4.160137	0.035967	0.033320	0.018562	-0.649249	-0.273694	-0.457472	0.542482
54764	-8.742788	-1.462629	4.163663	-0.035366	-0.015351	-0.019310	-0.649385	-0.273690	-0.457478	0.542316
54765	-8.800241	-1.415732	4.129430	-0.003360	0.051114	0.010658	-0.649530	-0.273749	-0.457468	0.542121
54766	-8.823268	-1.362250	4.102691	0.036687	0.097304	0.012130	-0.649692	-0.273752	-0.457488	0.541909
54767	-8.801240	-1.395084	4.112469	0.005860	0.068959	0.001369	-0.649854	-0.273756	-0.457497	0.541705
54768	-8.772307	-1.413664	4.135711	-0.007378	0.030051	-0.011924	-0.650015	-0.273761	-0.457503	0.541504
54769	-8.786201	-1.392360	4.122373	0.006297	0.052038	-0.008240	-0.650168	-0.273792	-0.457524	0.541287
54770	-8.794977	-1.384585	4.152931	0.020529	0.030591	0.011476	-0.650332	-0.273809	-0.457531	0.541075
54771	-8.799210	-1.413573	4.107654	-0.023692	0.061164	0.000202	-0.650470	-0.273867	-0.457571	0.540846
54772	-8.789767	-1.381295	4.118490	0.007309	0.054211	-0.008252	-0.650620	-0.273946	-0.457574	0.540623
54773	-8.809767	-1.401006	4.136064	-0.009186	0.040424	0.019917	-0.650772	-0.274024	-0.457591	0.540386
54774	-8.805428	-1.354809	4.102949	0.021269	0.076918	-0.004584	-0.650907	-0.274104	-0.457608	0.540169
54775	-8.811601	-1.379074	4.117592	-0.000046	0.058269	0.010618	-0.651026	-0.274170	-0.457624	0.539978
54776	-8.806814	-1.375452	4.144798	0.009372	0.031941	0.017373	-0.651122	-0.274240	-0.457638	0.539814
54777	-8.785466	-1.408224	4.153592	-0.021524	0.003647	0.006649	-0.651230	-0.274317	-0.457669	0.539620
54778	-8.782361	-1.408669	4.105485	-0.039595	0.040050	-0.016461	-0.651329	-0.274448	-0.457707	0.539400
54779	-8.827334	-1.345830	4.111880	0.019104	0.068904	0.017649	-0.651434	-0.274573	-0.457712	0.539206
54780	-8.819676	-1.299958	4.093296	0.054145	0.091848	-0.003494	-0.651552	-0.274613	-0.457722	0.539035
54781	-8.819631	-1.357399	4.107592	0.001932	0.062608	0.010591	-0.651678	-0.274609	-0.457732	0.538875
54782	-8.811362	-1.312914	4.089819	0.036947	0.085581	-0.010556	-0.651787	-0.274606	-0.457746	0.538734
54783	-8.794268	-1.375144	4.116046	-0.015500	0.037922	-0.006041	-0.651907	-0.274570	-0.457745	0.538607
54784	-8.793779	-1.359017	4.100418	-0.006643	0.055076	-0.015350	-0.652017	-0.274575	-0.457752	0.538465
54785	-8.812156	-1.334190	4.132963	0.025387	0.041390	0.011425	-0.652097	-0.274616	-0.457766	0.538336
54786	-8.822925	-1.346336	4.104157	0.003570	0.066227	0.010567	-0.652173	-0.274613	-0.457789	0.538227
54787	-8.827277	-1.326368	4.134129	0.030833	0.047697	0.024379	-0.652259	-0.274600	-0.457793	0.538126
54788	-8.808160	-1.361168	4.129853	-0.004598	0.032914	0.010298	-0.652354	-0.274563	-0.457803	0.538021
54789	-8.803772	-1.363648	4.083682	-0.022703	0.069279	-0.012836	-0.652474	-0.274550	-0.457800	0.537884
54790	-8.786195	-1.319097	4.109475	0.025925	0.051656	-0.023832	-0.652581	-0.274549	-0.457782	0.537769
54791	-8.834827	-1.318858	4.104519	0.023008	0.077558	0.017577	-0.652691	-0.274514	-0.457776	0.537659
54792	-8.789971	-1.357458	4.154919	0.000939	0.003819	0.004115	-0.652769	-0.274506	-0.457775	0.537570
54793	-8.821719	-1.319872	4.101255	0.018838	0.074110	0.004605	-0.652844	-0.274476	-0.457771	0.537498
54794	-8.778009	-1.372765	4.166615	-0.011758	-0.016038	0.000477	-0.652910	-0.274481	-0.457783	0.537404
54795	-8.821772	-1.302406	4.084769	0.028009	0.091937	-0.004730	-0.652965	-0.274536	-0.457773	0.537319
54796	-8.807784	-1.332479	4.125954	0.010976	0.041465	0.004350	-0.653033	-0.274541	-0.457774	0.537232
54797	-8.822868	-1.298615	4.083608	0.028645	0.093363	-0.004746	-0.653104	-0.274544	-0.457760	0.537156
54798	-8.808483	-1.329228	4.125512	0.011606	0.042889	0.004343	-0.653185	-0.274509	-0.457742	0.537091
54799	-8.817468	-1.328188	4.082792	-0.001699	0.084100	-0.005856	-0.653272	-0.274456	-0.457724	0.537027
54800	-8.808311	-1.327337	4.126487	0.012235	0.044355	0.004336	-0.653357	-0.274368	-0.457694	0.536994
54801	-8.801905	-1.326738	4.156257	0.021641	0.018074	0.011133	-0.653467	-0.274267	-0.457658	0.536944
54802	-8.792558	-1.316336	4.110771	0.016638	0.057306	-0.017959	-0.653571	-0.274165	-0.457621	0.536900
54803	-8.797104	-1.343901	4.128236	-0.004666	0.038680	-0.002696	-0.653673	-0.274063	-0.457573	0.536869
54804	-8.822929	-1.321113	4.120235	0.013783	0.065528	0.013872	-0.653775	-0.273956	-0.457530	0.536835
54805	-8.804595	-1.310649	4.117799	0.022377	0.064244	-0.005020	-0.653866	-0.273876	-0.457488	0.536801
54806	-8.809305	-1.338197	4.134914	0.001059	0.045670	0.010248	-0.653934	-0.273800	-0.457451	0.536788
54807	-8.800817	-1.309732	4.134081	0.027530	0.052202	-0.001626	-0.654011	-0.273717	-0.457426	0.536760
54808	-8.808548	-1.337459	4.136766	0.001710	0.047119	0.010241	-0.654082	-0.273636	-0.457387	0.536747
54809	-8.821777	-1.333037	4.140839	0.006813	0.052717	0.023189	-0.654159	-0.273539	-0.457344	0.536739
54810	-8.771758	-1.317154	4.131925	0.018878	0.044605	-0.027541	-0.654245	-0.273440	-0.457285	0.536735
54811	-8.790028	-1.340782	4.152231	0.002361	0.030933	0.000689	-0.654324	-0.273347	-0.457248	0.536717
54812	-8.789689	-1.340179	4.153145	0.002664	0.031661	0.000687	-0.654399	-0.273297	-0.457210	0.536683
54813	-8.789597	-1.339227	4.153645	0.002956	0.032390	0.000684	-0.654462	-0.273262	-0.457186	0.536646
54814	-8.799261	-1.320342	4.155915	0.021159	0.040880	0.007690	-0.654505	-0.273214	-0.457177	0.536625
54815	-8.787811	-1.351663	4.183330	-0.000346	0.003929	0.013444	-0.654542	-0.273228	-0.457159	0.536587
54816	-8.787976	-1.308339	4.123104	0.021050	0.067355	-0.018032	-0.654566	-0.273227	-0.457149	0.536568
54817	-8.786285	-1.321392	4.152390	0.017338	0.038176	-0.005268	-0.654596	-0.273230	-0.457127	0.536548
54818	-8.796629	-1.334462	4.124382	-0.004493	0.063043	-0.006159	-0.654625	-0.273220	-0.457117	0.536527
54819	-8.787817	-1.333694	4.167152	0.009444	0.023272	0.004084	-0.654650	-0.273206	-0.457109	0.536510
54820	-8.796992	-1.333001	4.124080	-0.003855	0.064515	-0.006168	-0.654676	-0.273187	-0.457086	0.536508
54821	-8.797025	-1.332518	4.124167	-0.003522	0.065258	-0.006173	-0.654708	-0.273143	-0.457079	0.536497
54822	-8.793060	-1.317870	4.123253	0.009891	0.068894	-0.012123	-0.654734	-0.273137	-0.457064	0.536481
54823	-8.790050	-1.317181	4.137803	0.014709	0.056130	-0.008709	-0.654772	-0.273097	-0.457024	0.536489
54824	-8.789920	-1.316777	4.138208	0.014998	0.056854	-0.008714	-0.654797	-0.273062	-0.457005	0.536493
54825	-8.805913	-1.340255	4.171384	0.003105	0.029699	0.022960	-0.654813	-0.273047	-0.457006	0.536480
54826	-8.794286	-1.329805	4.138791	0.002584	0.055424	-0.002776	-0.654829	-0.273034	-0.456985	0.536486
54827	-8.794368	-1.329239	4.138800	0.002889	0.056114	-0.002780	-0.654846	-0.273020	-0.456966	0.536488
54828	-8.792485	-1.342757	4.168375	-0.000793	0.026961	0.010011	-0.654868	-0.272996	-0.456945	0.536491
54829	-8.804136	-1.309752	4.140989	0.021395	0.065344	0.004203	-0.654888	-0.272998	-0.456911	0.536494
54830	-8.775926	-1.345571	4.179852	-0.000398	0.009999	0.000493	-0.654885	-0.272988	-0.456901	0.536511
54831	-8.797711	-1.326843	4.124532	-0.000344	0.072541	-0.006223	-0.654902	-0.272973	-0.456870	0.536525
54832	-8.791794	-1.326381	4.153117	0.009088	0.046274	0.000625	-0.654895	-0.272966	-0.456865	0.536541
54833	-8.794906	-1.326061	4.138676	0.004918	0.060473	-0.002806	-0.654907	-0.272937	-0.456848	0.536555
54834	-8.778184	-1.330038	4.150123	0.004926	0.042787	-0.012320	-0.654909	-0.272916	-0.456839	0.536572
54835	-8.795055	-1.325605	4.138506	0.005518	0.061888	-0.002816	-0.654908	-0.272906	-0.456829	0.536586
54836	-8.795173	-1.325360	4.138333	0.005812	0.062628	-0.002820	-0.654908	-0.272885	-0.456820	0.536605
54837	-8.771894	-1.347358	4.133321	-0.016530	0.050656	-0.022743	-0.654915	-0.272882	-0.456796	0.536618
54838	-8.778771	-1.328585	4.149348	0.006192	0.045687	-0.012334	-0.654907	-0.272887	-0.456799	0.536623
54839	-8.795715	-1.323860	4.137660	0.006820	0.064824	-0.002835	-0.654910	-0.272883	-0.456764	0.536651
54840	-8.806485	-1.319393	4.154881	0.016483	0.056933	0.013528	-0.654909	-0.272853	-0.456763	0.536668
54841	-8.775994	-1.327865	4.163419	0.011715	0.034340	-0.008911	-0.654910	-0.272814	-0.456751	0.536698
54842	-8.803541	-1.319299	4.169106	0.021653	0.044904	0.016954	-0.654906	-0.272817	-0.456736	0.536713
54843	-8.809666	-1.318879	4.140349	0.012937	0.072657	0.010077	-0.654915	-0.272789	-0.456716	0.536733
54844	-8.773164	-1.326868	4.177690	0.017219	0.023061	-0.005483	-0.654923	-0.272779	-0.456688	0.536752
54845	-8.783299	-1.340399	4.150005	-0.004543	0.047927	-0.006401	-0.654935	-0.272759	-0.456662	0.536771
54846	-8.776260	-1.325963	4.163465	0.013405	0.038048	-0.008927	-0.654932	-0.272748	-0.456651	0.536789
54847	-8.780534	-1.339606	4.164078	0.000658	0.035948	-0.002969	-0.654921	-0.272752	-0.456633	0.536816
54848	-8.801807	-1.348946	4.152748	-0.011798	0.052213	0.012480	-0.654902	-0.272775	-0.456658	0.536806
54849	-8.777416	-1.324488	4.161497	0.014373	0.040275	-0.008937	-0.654895	-0.272788	-0.456664	0.536803
54850	-8.776783	-1.309876	4.145511	0.023222	0.057365	-0.018346	-0.654888	-0.272798	-0.456675	0.536796
54851	-8.792661	-1.351331	4.132753	-0.020195	0.062967	-0.003903	-0.654873	-0.272829	-0.456693	0.536785
54852	-8.779041	-1.322616	4.158662	0.015343	0.042458	-0.008948	-0.654862	-0.272843	-0.456708	0.536778
54853	-8.796341	-1.317745	4.146234	0.015959	0.061594	0.000532	-0.654848	-0.272873	-0.456717	0.536772
54854	-8.778230	-1.335500	4.186273	0.011982	0.014070	0.003902	-0.654824	-0.272879	-0.456733	0.536784
54855	-8.774040	-1.339503	4.139285	-0.006151	0.050407	-0.019366	-0.654801	-0.272888	-0.456769	0.536778
54856	-8.806110	-1.344880	4.144938	-0.009252	0.058128	0.012450	-0.654787	-0.272892	-0.456770	0.536792
54857	-8.798247	-1.316382	4.142620	0.017213	0.064586	0.000511	-0.654777	-0.272900	-0.456771	0.536799
54858	-8.785937	-1.334286	4.154379	0.004183	0.044022	-0.003003	-0.654765	-0.272892	-0.456776	0.536813
54859	-8.789196	-1.334096	4.139540	-0.000052	0.058229	-0.006456	-0.654753	-0.272888	-0.456776	0.536830
54860	-8.793093	-1.315757	4.169732	0.027263	0.039764	0.007396	-0.654736	-0.272875	-0.456785	0.536849
54861	-8.770411	-1.370330	4.134575	-0.035119	0.044077	-0.020372	-0.654726	-0.272865	-0.456783	0.536868
54862	-8.800691	-1.329299	4.155351	0.010381	0.051857	0.009906	-0.654712	-0.272876	-0.456778	0.536884
54863	-8.800939	-1.328949	4.154937	0.010710	0.052607	0.009902	-0.654707	-0.272859	-0.456773	0.536903
54864	-8.773617	-1.337001	4.148988	0.001356	0.043493	-0.015947	-0.654707	-0.272858	-0.456753	0.536920
54865	-8.783498	-1.318325	4.150606	0.019543	0.052060	-0.009001	-0.654693	-0.272864	-0.456752	0.536936
54866	-8.787913	-1.331980	4.150938	0.006815	0.049923	-0.003033	-0.654681	-0.272867	-0.456746	0.536954
54867	-8.804892	-1.327335	4.139069	0.007449	0.069094	0.006427	-0.654678	-0.272865	-0.456737	0.536966
54868	-8.774623	-1.335320	4.147402	0.002680	0.046493	-0.015961	-0.654674	-0.272856	-0.456725	0.536986
54869	-8.792570	-1.344722	4.151055	-0.005232	0.049273	0.002931	-0.654682	-0.272845	-0.456699	0.537004
54870	-8.787311	-1.316467	4.135108	0.016668	0.069223	-0.012484	-0.654682	-0.272806	-0.456686	0.537035
54871	-8.792568	-1.344482	4.151136	-0.004634	0.050734	0.002923	-0.654675	-0.272797	-0.456672	0.537060
54872	-8.789688	-1.344188	4.165344	0.000224	0.037970	0.006381	-0.654677	-0.272783	-0.456656	0.537078
54873	-8.795220	-1.311749	4.166506	0.031470	0.049376	0.007340	-0.654668	-0.272760	-0.456633	0.537120
54874	-8.768867	-1.334153	4.175993	0.013565	0.023871	-0.009057	-0.654663	-0.272739	-0.456621	0.537147
54875	-8.806408	-1.339689	4.153973	0.001406	0.058596	0.015825	-0.654662	-0.272715	-0.456593	0.537185
54876	-8.802216	-1.325467	4.153345	0.014831	0.062174	0.009841	-0.654665	-0.272691	-0.456568	0.537215
54877	-8.777688	-1.333611	4.133447	0.000978	0.066485	-0.019460	-0.654663	-0.272675	-0.456543	0.537246
54878	-8.774609	-1.333161	4.148126	0.005825	0.053733	-0.015999	-0.654678	-0.272659	-0.456492	0.537279
54879	-8.794084	-1.328887	4.122843	0.001912	0.086406	-0.010024	-0.654682	-0.272597	-0.456471	0.537323
54880	-8.771143	-1.333320	4.163420	0.011041	0.041699	-0.012540	-0.654669	-0.272572	-0.456440	0.537379
54881	-8.780432	-1.375167	4.180545	-0.023244	0.020360	0.008875	-0.654662	-0.272572	-0.456409	0.537413
54882	-8.779526	-1.360642	4.165051	-0.014356	0.037419	-0.000579	-0.654640	-0.272588	-0.456408	0.537433
54883	-8.769862	-1.346062	4.192146	0.008083	0.014024	0.000375	-0.654618	-0.272614	-0.456407	0.537447
54884	-8.769428	-1.331106	4.175788	0.016937	0.031099	-0.009083	-0.654586	-0.272688	-0.456419	0.537438
54885	-8.781672	-1.297875	4.146929	0.039164	0.069432	-0.015090	-0.654563	-0.272723	-0.456432	0.537439
54886	-8.791682	-1.339225	4.162733	0.004874	0.048126	0.006335	-0.654531	-0.272766	-0.456443	0.537445
54887	-8.801792	-1.320568	4.163824	0.023108	0.056661	0.013254	-0.654510	-0.272761	-0.456451	0.537467
54888	-8.788281	-1.324656	4.160529	0.018614	0.052457	0.000340	-0.654491	-0.272755	-0.456440	0.537502
54889	-8.788902	-1.356739	4.130435	-0.021099	0.069509	-0.007548	-0.654480	-0.272750	-0.456431	0.537526
54890	-8.787513	-1.310216	4.144671	0.027777	0.070294	-0.009135	-0.654458	-0.272750	-0.456422	0.537561
54891	-8.768504	-1.346594	4.140238	-0.007681	0.055424	-0.022977	-0.654428	-0.272749	-0.456424	0.537596
54892	-8.782429	-1.342551	4.142640	-0.002508	0.061126	-0.010074	-0.654401	-0.272724	-0.456429	0.537637
54893	-8.769697	-1.328422	4.184163	0.024477	0.024245	-0.005633	-0.654372	-0.272750	-0.456435	0.537654
54894	-8.807672	-1.333560	4.161291	0.012343	0.058998	0.019209	-0.654361	-0.272762	-0.456431	0.537665
54895	-8.787665	-1.355470	4.141496	-0.014611	0.060486	-0.004096	-0.654345	-0.272779	-0.456429	0.537677
54896	-8.776789	-1.326987	4.153534	0.016370	0.053430	-0.012604	-0.654329	-0.272778	-0.456425	0.537701
54897	-8.778235	-1.340598	4.168244	0.008203	0.037848	-0.003133	-0.654315	-0.272790	-0.456420	0.537715
54898	-8.788640	-1.354210	4.139838	-0.013589	0.062745	-0.004109	-0.654300	-0.272794	-0.456421	0.537732
54899	-8.762242	-1.343953	4.178510	0.008535	0.020888	-0.012558	-0.654281	-0.272807	-0.456423	0.537746
54900	-8.786531	-1.353415	4.152615	-0.008378	0.050719	-0.000632	-0.654250	-0.272829	-0.456444	0.537755
54901	-8.780022	-1.338826	4.165048	0.009560	0.040797	-0.003146	-0.654230	-0.272859	-0.456451	0.537758
54902	-8.777532	-1.338465	4.178505	0.014422	0.028021	0.000338	-0.654209	-0.272851	-0.456473	0.537768
54903	-8.801575	-1.348206	4.153015	-0.002536	0.057809	0.012259	-0.654203	-0.272841	-0.456462	0.537790
54904	-8.775595	-1.310078	4.147394	0.032148	0.062070	-0.018640	-0.654195	-0.272830	-0.456451	0.537815
54905	-8.791661	-1.333874	4.180644	0.020296	0.035116	0.013230	-0.654175	-0.272802	-0.456431	0.537871
54906	-8.746150	-1.393177	4.186030	-0.033386	-0.006032	-0.016883	-0.654153	-0.272766	-0.456460	0.537892
54907	-8.766410	-1.328881	4.144330	0.015201	0.056485	-0.025557	-0.654126	-0.272777	-0.456479	0.537902
54908	-8.774805	-1.324393	4.174721	0.029454	0.035255	-0.005680	-0.654085	-0.272805	-0.456500	0.537921
54909	-8.775976	-1.356336	4.143460	-0.010239	0.052272	-0.013564	-0.654035	-0.272854	-0.456540	0.537922
54910	-8.756102	-1.346021	4.152273	0.002885	0.037415	-0.028974	-0.653985	-0.272903	-0.456589	0.537916
54911	-8.775242	-1.355324	4.153438	-0.004962	0.040279	-0.010077	-0.653916	-0.272982	-0.456687	0.537878
54912	-8.804379	-1.346023	4.155864	0.005087	0.051006	0.015713	-0.653834	-0.273108	-0.456764	0.537847
54913	-8.788197	-1.335108	4.148968	0.013640	0.049592	-0.003191	-0.653750	-0.273224	-0.456840	0.537826
54914	-8.800606	-1.329889	4.163054	0.023388	0.041834	0.013197	-0.653667	-0.273337	-0.456910	0.537810
54915	-8.810844	-1.329022	4.117224	0.010125	0.083035	0.002699	-0.653589	-0.273439	-0.456960	0.537810
54916	-8.792456	-1.332303	4.140840	0.014678	0.051849	-0.003204	-0.653529	-0.273519	-0.456997	0.537812
54917	-8.807127	-1.327296	4.141921	0.019867	0.057543	0.009685	-0.653483	-0.273575	-0.457010	0.537827
54918	-8.816032	-1.354788	4.142465	-0.005919	0.052613	0.021695	-0.653430	-0.273618	-0.457012	0.537868
54919	-8.798637	-1.344501	4.137940	0.002602	0.051208	0.002791	-0.653401	-0.273647	-0.457005	0.537895
54920	-8.812744	-1.339722	4.140142	0.007801	0.056913	0.015679	-0.653379	-0.273667	-0.456989	0.537925
54921	-8.803377	-1.297352	4.123046	0.042777	0.079658	-0.005858	-0.653376	-0.273640	-0.456963	0.537964
54922	-8.801827	-1.343400	4.123371	-0.000884	0.066935	-0.000726	-0.653382	-0.273618	-0.456905	0.538018
54923	-8.791570	-1.329002	4.151928	0.021620	0.043543	0.000268	-0.653388	-0.273583	-0.456859	0.538067
54924	-8.770925	-1.351348	4.133347	-0.005301	0.044938	-0.023010	-0.653384	-0.273559	-0.456833	0.538106
54925	-8.794182	-1.328693	4.138334	0.017798	0.058489	-0.003247	-0.653391	-0.273530	-0.456801	0.538139
54926	-8.778615	-1.346588	4.165459	0.009262	0.024485	-0.003113	-0.653404	-0.273503	-0.456769	0.538165
54927	-8.782806	-1.360281	4.166315	-0.003458	0.022392	0.002898	-0.653397	-0.273498	-0.456762	0.538182
54928	-8.785970	-1.359647	4.151664	-0.007623	0.036633	-0.000612	-0.653414	-0.273504	-0.456743	0.538174
54929	-8.782046	-1.344716	4.150642	0.005793	0.040196	-0.006630	-0.653425	-0.273505	-0.456717	0.538183
54930	-8.782200	-1.343956	4.150561	0.006139	0.040887	-0.006633	-0.653441	-0.273498	-0.456701	0.538180
54931	-8.793238	-1.339027	4.167472	0.015886	0.033114	0.009761	-0.653456	-0.273488	-0.456698	0.538170
54932	-8.773121	-1.360852	4.147971	-0.011071	0.034566	-0.013508	-0.653465	-0.273492	-0.456697	0.538157
54933	-8.795637	-1.323662	4.136852	0.020538	0.064422	-0.003289	-0.653471	-0.273496	-0.456696	0.538150
54934	-8.776710	-1.359568	4.132623	-0.014925	0.049485	-0.017027	-0.653480	-0.273486	-0.456692	0.538147
54935	-8.779514	-1.326724	4.147647	0.020914	0.047353	-0.012669	-0.653486	-0.273481	-0.456691	0.538143
54936	-8.800729	-1.336063	4.136223	0.008569	0.063750	0.002714	-0.653478	-0.273485	-0.456717	0.538128
54937	-8.805248	-1.349573	4.136460	-0.004147	0.061655	0.008729	-0.653486	-0.273479	-0.456706	0.538131
54938	-8.770943	-1.343310	4.144093	0.004012	0.041784	-0.019544	-0.653505	-0.273475	-0.456695	0.538120
54939	-8.785011	-1.338175	4.146478	0.009222	0.047497	-0.006665	-0.653527	-0.273482	-0.456689	0.538094
54940	-8.793262	-1.333079	4.177528	0.023501	0.026284	0.013251	-0.653532	-0.273477	-0.456686	0.538093
54941	-8.776020	-1.355235	4.143674	-0.008004	0.041177	-0.013531	-0.653536	-0.273460	-0.456694	0.538090
54942	-8.800872	-1.346177	4.163184	0.006598	0.038411	0.015747	-0.653553	-0.273458	-0.456684	0.538078
54943	-8.772448	-1.339904	4.142010	0.005771	0.045403	-0.019561	-0.653570	-0.273452	-0.456689	0.538056
54944	-8.787683	-1.349036	4.159684	0.002436	0.034884	0.002862	-0.653583	-0.273439	-0.456675	0.538060
54945	-8.786739	-1.334382	4.144038	0.011280	0.051931	-0.006690	-0.653601	-0.273439	-0.456682	0.538032
54946	-8.785365	-1.347774	4.173196	0.007654	0.022913	0.006381	-0.653624	-0.273405	-0.456685	0.538019
54947	-8.790164	-1.333403	4.128906	0.007467	0.066903	-0.010224	-0.653635	-0.273396	-0.456689	0.538006
54948	-8.802556	-1.342380	4.160850	0.008701	0.042836	0.015728	-0.653659	-0.273394	-0.456682	0.537985
54949	-8.791965	-1.345923	4.143436	-0.000363	0.052049	-0.000679	-0.653679	-0.273376	-0.456676	0.537974
54950	-8.764771	-1.353725	4.137497	-0.009734	0.042755	-0.026434	-0.653687	-0.273383	-0.456675	0.537961
54951	-8.792719	-1.344362	4.142341	0.000334	0.053475	-0.000687	-0.653696	-0.273400	-0.456685	0.537934
54952	-8.775394	-1.333574	4.137810	0.008875	0.052001	-0.019596	-0.653700	-0.273430	-0.456692	0.537908
54953	-8.807526	-1.338195	4.143471	0.005916	0.059929	0.012179	-0.653705	-0.273433	-0.456692	0.537900
54954	-8.794256	-1.341715	4.139937	0.001320	0.055602	-0.000699	-0.653707	-0.273453	-0.456708	0.537874
54955	-8.794838	-1.340930	4.138955	0.001670	0.056348	-0.000703	-0.653705	-0.273470	-0.456723	0.537855
54956	-8.788368	-1.326239	4.151398	0.019563	0.046453	-0.003208	-0.653693	-0.273485	-0.456745	0.537844
54957	-8.779396	-1.344124	4.148347	0.002019	0.039363	-0.010050	-0.653679	-0.273487	-0.456782	0.537828
54958	-8.828245	-1.345088	4.142044	-0.000555	0.065897	0.031060	-0.653661	-0.273493	-0.456801	0.537830
54959	-8.791341	-1.338887	4.163459	0.012163	0.032501	0.006349	-0.653666	-0.273510	-0.456808	0.537810
54960	-8.780990	-1.342533	4.145488	0.003124	0.041701	-0.010060	-0.653657	-0.273510	-0.456826	0.537805
54961	-8.814793	-1.333477	4.121323	0.004154	0.079432	0.008601	-0.653663	-0.273524	-0.456848	0.537773
54962	-8.801564	-1.336960	4.117721	-0.000370	0.075134	-0.004274	-0.653676	-0.273524	-0.456855	0.537751
54963	-8.765738	-1.344809	4.154814	0.003830	0.025406	-0.019400	-0.653686	-0.273511	-0.456853	0.537748
54964	-8.790597	-1.335695	4.174314	0.018501	0.022720	0.009874	-0.653706	-0.273497	-0.456856	0.537727
54965	-8.803768	-1.349040	4.131611	-0.007839	0.061061	0.005289	-0.653716	-0.273505	-0.456853	0.537714
54966	-8.804257	-1.348172	4.130852	-0.007509	0.061815	0.005284	-0.653733	-0.273514	-0.456871	0.537673
54967	-8.757924	-1.359855	4.150279	-0.012734	0.020542	-0.026234	-0.653726	-0.273561	-0.456876	0.537653
54968	-8.798647	-1.331932	4.141980	0.010733	0.052628	0.002778	-0.653719	-0.273602	-0.456908	0.537613
54969	-8.780007	-1.335235	4.166438	0.015261	0.021433	-0.003004	-0.653701	-0.273639	-0.456939	0.537591
54970	-8.793263	-1.316239	4.152459	0.029022	0.043465	0.000271	-0.653680	-0.273671	-0.456975	0.537569
54971	-8.814959	-1.325304	4.140014	0.016661	0.059910	0.015628	-0.653645	-0.273721	-0.457019	0.537549
54972	-8.771752	-1.337472	4.144476	0.006935	0.032088	-0.019421	-0.653620	-0.273748	-0.457058	0.537532
54973	-8.793310	-1.346617	4.132287	-0.005417	0.048573	-0.004064	-0.653599	-0.273780	-0.457082	0.537521
54974	-8.800863	-1.327286	4.147025	0.017338	0.043596	0.006299	-0.653585	-0.273847	-0.457109	0.537480
54975	-8.821137	-1.322058	4.119628	0.013542	0.076321	0.012058	-0.653574	-0.273864	-0.457132	0.537466
54976	-8.777382	-1.362086	4.169713	-0.008756	0.002545	-0.000239	-0.653578	-0.273878	-0.457129	0.537456
54977	-8.809832	-1.338564	4.130325	0.000775	0.056563	0.008782	-0.653585	-0.273913	-0.457140	0.537421
54978	-8.778437	-1.299679	4.152743	0.044457	0.033718	-0.015122	-0.653585	-0.273939	-0.457149	0.537401
54979	-8.808192	-1.336521	4.142752	0.006003	0.044562	0.012326	-0.653594	-0.273952	-0.457162	0.537372
54980	-8.772860	-1.316174	4.134725	0.022706	0.040828	-0.025494	-0.653599	-0.273969	-0.457170	0.537350
54981	-8.805062	-1.320649	4.140224	0.019752	0.048837	0.006269	-0.653616	-0.273982	-0.457176	0.537318
54982	-8.794604	-1.323997	4.122526	0.010725	0.058025	-0.010149	-0.653632	-0.273985	-0.457171	0.537301
54983	-8.809828	-1.332809	4.140468	0.007473	0.047527	0.012312	-0.653677	-0.273955	-0.457136	0.537291
54984	-8.784728	-1.308333	4.150856	0.033552	0.035330	-0.009096	-0.653703	-0.273929	-0.457099	0.537305
54985	-8.801286	-1.303435	4.139481	0.034239	0.054565	0.000199	-0.653728	-0.273910	-0.457077	0.537303
54986	-8.794731	-1.321142	4.123172	0.012119	0.060934	-0.010168	-0.653748	-0.273892	-0.457072	0.537291
54987	-8.790921	-1.366848	4.137215	-0.026974	0.034828	-0.001307	-0.653768	-0.273872	-0.457058	0.537289
54988	-8.796395	-1.333700	4.138188	0.004379	0.046173	-0.000563	-0.653800	-0.273868	-0.457035	0.537272
54989	-8.789368	-1.318896	4.151878	0.022247	0.036256	-0.003061	-0.653842	-0.273824	-0.457010	0.537264
54990	-8.790708	-1.332336	4.167307	0.014060	0.020739	0.006553	-0.653857	-0.273813	-0.456985	0.537274
54991	-8.781439	-1.322344	4.120489	0.008960	0.059642	-0.023047	-0.653868	-0.273775	-0.456995	0.537270
54992	-8.799374	-1.331829	4.124165	0.001148	0.062674	-0.004143	-0.653894	-0.273737	-0.456958	0.537289
54993	-8.793555	-1.331558	4.153210	0.010546	0.036496	0.002982	-0.653903	-0.273701	-0.456944	0.537309
54994	-8.795032	-1.317423	4.123718	0.014902	0.066959	-0.010211	-0.653914	-0.273669	-0.456930	0.537324
54995	-8.793556	-1.331170	4.153332	0.011254	0.038024	0.002976	-0.653922	-0.273643	-0.456916	0.537339
54996	-8.786638	-1.316938	4.166599	0.029165	0.028036	0.000480	-0.653923	-0.273625	-0.456926	0.537339
54997	-8.776435	-1.353354	4.119232	-0.019940	0.053546	-0.023806	-0.653914	-0.273616	-0.456931	0.537350
54998	-8.794388	-1.330363	4.151830	0.012338	0.040219	0.002965	-0.653884	-0.273641	-0.456940	0.537366
54999	-8.789625	-1.362009	4.149871	-0.018296	0.030351	0.002237	-0.653867	-0.273675	-0.456943	0.537367
55000	-8.807894	-1.310847	4.137314	0.026394	0.063065	0.006173	-0.653839	-0.273691	-0.456969	0.537371
55001	-8.805615	-1.310506	4.150577	0.031236	0.050338	0.009739	-0.653815	-0.273709	-0.456984	0.537379
55002	-8.796473	-1.328562	4.147987	0.013578	0.043251	0.002951	-0.653796	-0.273705	-0.456980	0.537407
55003	-8.816044	-1.324196	4.121692	0.009744	0.075949	0.008647	-0.653778	-0.273694	-0.456964	0.537448
55004	-8.782845	-1.332830	4.145051	0.009410	0.039678	-0.009903	-0.653767	-0.273657	-0.456945	0.537496
55005	-8.813025	-1.324509	4.136325	0.015024	0.064017	0.012209	-0.653768	-0.273604	-0.456934	0.537531
55006	-8.782555	-1.333431	4.145473	0.010100	0.041213	-0.009910	-0.653754	-0.273564	-0.456915	0.537584
55007	-8.796108	-1.329229	4.148547	0.015314	0.047034	0.002931	-0.653760	-0.273530	-0.456876	0.537627
55008	-8.771226	-1.337812	4.129299	0.001325	0.051118	-0.026338	-0.653768	-0.273484	-0.456841	0.537671
55009	-8.795591	-1.329165	4.149664	0.015934	0.048582	0.002922	-0.653787	-0.273440	-0.456806	0.537701
55010	-8.781646	-1.333414	4.147402	0.011341	0.044268	-0.009924	-0.653800	-0.273394	-0.456781	0.537730
55011	-8.788436	-1.347362	4.134493	-0.005915	0.055710	-0.007439	-0.653825	-0.273343	-0.456735	0.537763
55012	-8.785212	-1.347377	4.149643	-0.001085	0.042943	-0.003861	-0.653849	-0.273276	-0.456706	0.537792
55013	-8.775447	-1.365606	4.148316	-0.018658	0.035909	-0.010635	-0.653858	-0.273251	-0.456670	0.537825
55014	-8.777852	-1.333122	4.163852	0.017159	0.033784	-0.006356	-0.653861	-0.273216	-0.456665	0.537844
55015	-8.815260	-1.338511	4.141395	0.005166	0.068814	0.018224	-0.653866	-0.273188	-0.456651	0.537863
55016	-8.780741	-1.332952	4.149467	0.013206	0.048744	-0.009948	-0.653872	-0.273162	-0.456636	0.537883
55017	-8.783625	-1.332966	4.135034	0.008960	0.062947	-0.013538	-0.653865	-0.273132	-0.456630	0.537911
55018	-8.797320	-1.328948	4.137752	0.014213	0.068762	-0.000705	-0.653856	-0.273084	-0.456623	0.537953
55019	-8.781948	-1.347579	4.164809	0.005674	0.034712	-0.000298	-0.653856	-0.273035	-0.456610	0.537988
55020	-8.789906	-1.315471	4.151827	0.032504	0.059512	-0.003203	-0.653873	-0.272980	-0.456588	0.538015
55021	-8.777168	-1.334049	4.164997	0.019471	0.038986	-0.006380	-0.653888	-0.272899	-0.456558	0.538063
55022	-8.786257	-1.315808	4.167761	0.037822	0.047640	0.000375	-0.653923	-0.272845	-0.456507	0.538091
55023	-8.769607	-1.352045	4.150753	-0.002239	0.046147	-0.016737	-0.653959	-0.272791	-0.456439	0.538131
55024	-8.782805	-1.347645	4.154648	0.002991	0.051973	-0.003905	-0.653987	-0.272719	-0.456395	0.538172
55025	-8.779537	-1.347543	4.169902	0.007858	0.039249	-0.000317	-0.654010	-0.272680	-0.456348	0.538204
55026	-8.783442	-1.361147	4.171538	-0.004854	0.037208	0.005760	-0.654043	-0.272637	-0.456299	0.538226
55027	-8.762347	-1.351125	4.183010	0.008150	0.022220	-0.009562	-0.654059	-0.272595	-0.456262	0.538260
55028	-8.781614	-1.346516	4.157532	0.004369	0.054892	-0.003922	-0.654080	-0.272568	-0.456226	0.538279
55029	-8.785797	-1.360072	4.158604	-0.008313	0.052918	0.002155	-0.654077	-0.272557	-0.456204	0.538307
55030	-8.774545	-1.331882	4.171213	0.022666	0.045806	-0.006416	-0.654075	-0.272521	-0.456195	0.538334
55031	-8.767951	-1.350294	4.154819	0.000571	0.052130	-0.016766	-0.654063	-0.272494	-0.456198	0.538360
55032	-8.783102	-1.359964	4.172640	-0.002655	0.041727	0.005742	-0.654052	-0.272478	-0.456180	0.538397
55033	-8.779149	-1.345534	4.171367	0.010712	0.045259	-0.000345	-0.654035	-0.272503	-0.456180	0.538405
55034	-8.774320	-1.377263	4.169552	-0.019940	0.035453	-0.001008	-0.654021	-0.272513	-0.456186	0.538412
55035	-8.763534	-1.348502	4.181369	0.011041	0.028280	-0.009580	-0.654019	-0.272541	-0.456189	0.538398
55036	-8.776439	-1.329332	4.168040	0.024738	0.050301	-0.006443	-0.654017	-0.272558	-0.456193	0.538388
55037	-8.779846	-1.328208	4.152882	0.020589	0.064468	-0.010051	-0.654024	-0.272607	-0.456182	0.538364
55038	-8.798130	-1.336775	4.156129	0.012770	0.067501	0.008858	-0.654050	-0.272591	-0.456156	0.538363
55039	-8.765040	-1.344521	4.179495	0.012372	0.031197	-0.009591	-0.654088	-0.272575	-0.456134	0.538344
55040	-8.791134	-1.320903	4.170048	0.031048	0.058396	0.006363	-0.654138	-0.272549	-0.456083	0.538339
55041	-8.767732	-1.342600	4.166101	0.008518	0.046256	-0.013204	-0.654193	-0.272506	-0.456039	0.538331
55042	-8.808751	-1.328941	4.174875	0.023604	0.062285	0.025266	-0.654242	-0.272460	-0.456010	0.538319
55043	-8.761533	-1.341229	4.196266	0.018279	0.020847	-0.005994	-0.654309	-0.272394	-0.455954	0.538319
55044	-8.794209	-1.332077	4.174234	0.019391	0.058724	0.012431	-0.654378	-0.272316	-0.455899	0.538322
55045	-8.752400	-1.344491	4.167521	0.005006	0.044143	-0.026042	-0.654449	-0.272242	-0.455821	0.538338
55046	-8.774817	-1.321558	4.173923	0.028252	0.057815	-0.006494	-0.654515	-0.272136	-0.455753	0.538370
55047	-8.772948	-1.367765	4.175562	-0.015409	0.045175	-0.001040	-0.654585	-0.272043	-0.455684	0.538390
55048	-8.778935	-1.349323	4.193171	0.007464	0.040292	0.009297	-0.654637	-0.271956	-0.455654	0.538396
55049	-8.767586	-1.353639	4.177113	-0.001641	0.049384	-0.007141	-0.654677	-0.271882	-0.455606	0.538424
55050	-8.780747	-1.349278	4.181058	0.003658	0.055203	0.005676	-0.654722	-0.271803	-0.455556	0.538453
55051	-8.766396	-1.353565	4.179635	-0.001002	0.050859	-0.007148	-0.654772	-0.271722	-0.455495	0.538484
55052	-8.761430	-1.339612	4.180297	0.012338	0.054323	-0.013249	-0.654827	-0.271626	-0.455432	0.538519
55053	-8.802191	-1.326894	4.189338	0.027480	0.070368	0.025202	-0.654808	-0.271589	-0.455431	0.538561
55054	-8.760557	-1.340427	4.181864	0.013034	0.055832	-0.013258	-0.654839	-0.271477	-0.455372	0.538630
55055	-8.770456	-1.336747	4.200735	0.022851	0.048217	0.003173	-0.654895	-0.271355	-0.455315	0.538671
55056	-8.775151	-1.337231	4.174140	0.014142	0.075876	-0.004071	-0.654963	-0.271222	-0.455229	0.538729
55057	-8.754432	-1.342051	4.202457	0.018596	0.044632	-0.009652	-0.655037	-0.271078	-0.455156	0.538773
55058	-8.750990	-1.374658	4.189211	-0.016589	0.048221	-0.013891	-0.655105	-0.270972	-0.455076	0.538811
55059	-8.758309	-1.370421	4.221916	-0.002259	0.027107	0.006165	-0.655128	-0.270909	-0.455065	0.538824
55060	-8.733434	-1.379059	4.202713	-0.016294	0.031052	-0.023089	-0.655183	-0.270832	-0.455027	0.538828
55061	-8.772867	-1.351686	4.196791	0.007325	0.063267	0.005625	-0.655231	-0.270788	-0.454976	0.538835
55062	-8.748749	-1.341543	4.222754	0.024892	0.034768	-0.006048	-0.655284	-0.270714	-0.454943	0.538836
55063	-8.767839	-1.337001	4.197815	0.021138	0.067495	-0.000490	-0.655342	-0.270631	-0.454902	0.538841
55064	-8.768692	-1.350777	4.214082	0.012971	0.052033	0.009236	-0.655389	-0.270566	-0.454858	0.538854
55065	-8.754535	-1.355082	4.212219	0.008360	0.047686	-0.003580	-0.655429	-0.270481	-0.454829	0.538873
55066	-8.746292	-1.387381	4.225684	-0.017851	0.024388	-0.000555	-0.655437	-0.270465	-0.454835	0.538866
55067	-8.772526	-1.364435	4.215885	0.000837	0.051508	0.015330	-0.655461	-0.270428	-0.454820	0.538867
55068	-8.742299	-1.372674	4.224557	-0.004143	0.028518	-0.006665	-0.655482	-0.270409	-0.454828	0.538845
55069	-8.738407	-1.358065	4.223186	0.009214	0.032009	-0.012775	-0.655496	-0.270409	-0.454833	0.538824
55070	-8.751342	-1.338819	4.209918	0.022925	0.054016	-0.009709	-0.655501	-0.270443	-0.454844	0.538791
55071	-8.753337	-1.351754	4.224090	0.014785	0.038543	0.000028	-0.655510	-0.270465	-0.454861	0.538756
55072	-8.746034	-1.355099	4.191668	0.001122	0.061119	-0.020050	-0.655514	-0.270483	-0.454865	0.538737
55073	-8.772460	-1.359575	4.225902	0.007291	0.042409	0.018939	-0.655515	-0.270505	-0.454877	0.538715
55074	-8.755038	-1.349272	4.221359	0.015800	0.040723	0.000018	-0.655512	-0.270504	-0.454902	0.538698
55075	-8.759730	-1.362633	4.221490	0.003128	0.038728	0.006126	-0.655521	-0.270511	-0.454899	0.538686
55076	-8.749457	-1.366108	4.203511	-0.006007	0.047842	-0.010319	-0.655521	-0.270534	-0.454918	0.538659
55077	-8.789988	-1.338076	4.195418	0.017571	0.080155	0.018342	-0.655527	-0.270570	-0.454937	0.538617
55078	-8.757339	-1.345968	4.217638	0.017141	0.043739	0.000003	-0.655531	-0.270562	-0.454950	0.538606
55079	-8.768669	-1.313141	4.189471	0.039417	0.081940	-0.006705	-0.655537	-0.270556	-0.454949	0.538602
55080	-8.751380	-1.363464	4.200365	-0.004681	0.050795	-0.010333	-0.655538	-0.270535	-0.454959	0.538603
55081	-8.758164	-1.344831	4.216289	0.018107	0.045928	-0.000009	-0.655542	-0.270529	-0.454946	0.538612
55082	-8.758357	-1.344510	4.215989	0.018502	0.046690	-0.000014	-0.655531	-0.270514	-0.454947	0.538632
55083	-8.765734	-1.358165	4.202111	0.001317	0.058121	0.002457	-0.655529	-0.270512	-0.454940	0.538642
55084	-8.738656	-1.366389	4.195992	-0.008188	0.048635	-0.023150	-0.655503	-0.270528	-0.454946	0.538660
55085	-8.756760	-1.343201	4.228079	0.024114	0.035473	0.003618	-0.655450	-0.270590	-0.454982	0.538662
55086	-8.740330	-1.365361	4.192839	-0.007514	0.050076	-0.023157	-0.655392	-0.270641	-0.455028	0.538669
55087	-8.742363	-1.346524	4.235442	0.024392	0.018376	-0.005543	-0.655314	-0.270736	-0.455104	0.538651
55088	-8.747453	-1.378018	4.188145	-0.019849	0.048878	-0.017043	-0.655218	-0.270858	-0.455190	0.538635
55089	-8.768147	-1.340519	4.188500	0.016444	0.065356	-0.003692	-0.655133	-0.270968	-0.455292	0.538597
55090	-8.754865	-1.357836	4.211665	0.007798	0.031439	-0.003077	-0.655038	-0.271115	-0.455382	0.538563
55091	-8.762522	-1.356719	4.179265	-0.000910	0.059047	-0.010379	-0.654944	-0.271241	-0.455476	0.538534
55092	-8.767091	-1.355679	4.161641	-0.005099	0.073190	-0.014033	-0.654881	-0.271346	-0.455552	0.538493
55093	-8.790344	-1.345855	4.193002	0.014157	0.057326	0.018856	-0.654825	-0.271445	-0.455613	0.538460
55094	-8.777886	-1.349282	4.187931	0.009524	0.052992	0.006055	-0.654788	-0.271496	-0.455662	0.538437
55095	-8.765323	-1.352703	4.183088	0.004965	0.048493	-0.006744	-0.654757	-0.271570	-0.455718	0.538390
55096	-8.762218	-1.337508	4.180191	0.018354	0.051972	-0.012873	-0.654738	-0.271633	-0.455757	0.538348
55097	-8.779873	-1.332132	4.166556	0.019078	0.071345	-0.003739	-0.654694	-0.271697	-0.455802	0.538332
55098	-8.770183	-1.363709	4.192094	-0.002552	0.034589	0.003027	-0.654639	-0.271770	-0.455857	0.538315
55099	-8.762932	-1.335015	4.187929	0.023821	0.040764	-0.009231	-0.654571	-0.271856	-0.455926	0.538296
55100	-8.737183	-1.342825	4.179274	0.014295	0.031219	-0.034820	-0.654459	-0.272005	-0.456023	0.538274
55101	-8.757397	-1.351876	4.178356	0.006566	0.034373	-0.015902	-0.654301	-0.272152	-0.456188	0.538252
55102	-8.771059	-1.347402	4.189698	0.016364	0.026794	0.000546	-0.654092	-0.272358	-0.456391	0.538230
55103	-8.785367	-1.346944	4.125783	-0.001348	0.081251	-0.014095	-0.653889	-0.272591	-0.456584	0.538196
55104	-8.782767	-1.346177	4.148461	0.008150	0.055078	-0.006780	-0.653698	-0.272799	-0.456751	0.538180
55105	-8.801918	-1.341317	4.131289	0.008946	0.074354	0.002344	-0.653524	-0.272973	-0.456906	0.538171
55106	-8.816480	-1.322548	4.113862	0.022756	0.096490	0.005331	-0.653361	-0.273142	-0.457024	0.538184
55107	-8.817510	-1.368694	4.109650	-0.020952	0.083958	0.010934	-0.653223	-0.273247	-0.457131	0.538208
55108	-8.786104	-1.377192	4.129854	-0.021427	0.047539	-0.007319	-0.653114	-0.273360	-0.457199	0.538223
55109	-8.788702	-1.358028	4.172098	0.010562	0.015779	0.010325	-0.653027	-0.273468	-0.457243	0.538237
55110	-8.779184	-1.361275	4.152357	0.001477	0.024817	-0.006129	-0.652945	-0.273596	-0.457309	0.538216
55111	-8.809470	-1.337012	4.125075	0.015712	0.065399	0.005973	-0.652881	-0.273739	-0.457348	0.538188
55112	-8.788035	-1.358160	4.117455	-0.006884	0.053151	-0.013467	-0.652799	-0.273871	-0.457448	0.538135
55113	-8.789069	-1.370700	4.142830	-0.010448	0.024311	0.000003	-0.652709	-0.274031	-0.457585	0.538046
55114	-8.772359	-1.377448	4.089610	-0.033598	0.055045	-0.036574	-0.652635	-0.274238	-0.457712	0.537923
55115	-8.806069	-1.319535	4.075717	0.016199	0.092811	-0.020312	-0.652602	-0.274432	-0.457818	0.537773
55116	-8.804399	-1.298071	4.145195	0.057208	0.034289	0.004676	-0.652579	-0.274593	-0.457915	0.537636
55117	-8.826570	-1.351304	4.130158	0.000928	0.037650	0.025561	-0.652560	-0.274745	-0.458010	0.537502
55118	-8.810959	-1.338920	4.122472	0.009317	0.035953	0.006635	-0.652524	-0.274935	-0.458126	0.537349
55119	-8.794323	-1.344627	4.069208	-0.013898	0.066666	-0.029950	-0.652489	-0.275151	-0.458259	0.537168
55120	-8.799461	-1.309032	4.079711	0.021992	0.064562	-0.025784	-0.652462	-0.275338	-0.458361	0.537018
55121	-8.858387	-1.302537	4.101009	0.033676	0.069859	0.035149	-0.652460	-0.275469	-0.458462	0.536866
55122	-8.852521	-1.332780	4.111113	0.007523	0.046673	0.038325	-0.652466	-0.275537	-0.458553	0.536747
55123	-8.838566	-1.321587	4.090759	0.011467	0.058413	0.015721	-0.652486	-0.275589	-0.458615	0.536642
55124	-8.818962	-1.310233	4.099968	0.024372	0.043317	0.000470	-0.652542	-0.275617	-0.458650	0.536529
55125	-8.827662	-1.308488	4.055735	0.011112	0.084366	-0.010570	-0.652636	-0.275599	-0.458663	0.536414
55126	-8.825328	-1.306685	4.070020	0.016002	0.071692	-0.006898	-0.652753	-0.275560	-0.458641	0.536310
55127	-8.790036	-1.313972	4.108360	0.020078	0.021812	-0.021416	-0.652853	-0.275501	-0.458644	0.536216
55128	-8.797216	-1.326657	4.094795	0.002859	0.033182	-0.018952	-0.652985	-0.275430	-0.458662	0.536076
55129	-8.781478	-1.329098	4.105917	0.002712	0.015366	-0.028048	-0.653095	-0.275454	-0.458700	0.535897
55130	-8.822233	-1.299484	4.096350	0.026404	0.047774	0.000444	-0.653162	-0.275493	-0.458783	0.535726
55131	-8.825301	-1.311257	4.109330	0.018288	0.032401	0.010273	-0.653214	-0.275550	-0.458831	0.535591
55132	-8.822205	-1.295270	4.106453	0.031651	0.035826	0.004120	-0.653235	-0.275607	-0.458889	0.535486
55133	-8.825454	-1.307573	4.118911	0.023486	0.020442	0.013952	-0.653197	-0.275716	-0.458977	0.535400
55134	-8.818867	-1.310484	4.084044	0.009962	0.042860	-0.006196	-0.653141	-0.275828	-0.459092	0.535314
55135	-8.807349	-1.313435	4.077237	0.005400	0.038442	-0.018972	-0.653033	-0.276004	-0.459226	0.535240
55136	-8.814068	-1.293098	4.102768	0.032814	0.020174	-0.004980	-0.652933	-0.276218	-0.459357	0.535138
55137	-8.849578	-1.282253	4.073454	0.034042	0.058078	0.013181	-0.652812	-0.276409	-0.459535	0.535034
55138	-8.820234	-1.322044	4.061333	-0.006427	0.037906	-0.012827	-0.652670	-0.276621	-0.459748	0.534915
55139	-8.825628	-1.366170	4.040160	-0.054581	0.038731	-0.010823	-0.652565	-0.276877	-0.459932	0.534753
55140	-8.832291	-1.316457	4.019292	-0.014786	0.066239	-0.020215	-0.652492	-0.277160	-0.460097	0.534553
55141	-8.840889	-1.279809	4.013530	0.016484	0.077593	-0.019764	-0.652436	-0.277472	-0.460250	0.534328
55142	-8.800071	-1.302872	4.043601	0.002507	0.019839	-0.040838	-0.652405	-0.277725	-0.460430	0.534080
55143	-8.830893	-1.335595	4.041456	-0.031207	0.017672	-0.009599	-0.652359	-0.278058	-0.460601	0.533815
55144	-8.824032	-1.302072	4.046325	-0.000222	0.010375	-0.018221	-0.652276	-0.278475	-0.460814	0.533515
55145	-8.829022	-1.342012	4.036432	-0.043835	-0.002118	-0.012510	-0.652179	-0.278949	-0.461089	0.533148
55146	-8.870908	-1.232946	3.987085	0.040894	0.075869	-0.009496	-0.652071	-0.279509	-0.461358	0.532754
55147	-8.875048	-1.243788	3.931192	0.009689	0.109033	-0.027200	-0.651988	-0.279989	-0.461611	0.532385
55148	-8.889411	-1.232461	3.952005	0.024032	0.088175	-0.007048	-0.651898	-0.280451	-0.461875	0.532023
55149	-8.882825	-1.258387	3.984085	0.006947	0.038107	0.003602	-0.651805	-0.280908	-0.462133	0.531671
55150	-8.861028	-1.260831	3.968915	-0.002599	0.028498	-0.021928	-0.651700	-0.281394	-0.462402	0.531308
55151	-8.901140	-1.226122	3.978714	0.030258	0.034094	0.013896	-0.651594	-0.281913	-0.462660	0.530939
55152	-8.891396	-1.241854	3.920283	-0.005995	0.062064	-0.016574	-0.651484	-0.282425	-0.462953	0.530547
55153	-8.892735	-1.221055	3.908409	0.007386	0.065521	-0.022744	-0.651376	-0.282906	-0.463224	0.530186
55154	-8.921155	-1.237219	3.901496	-0.013278	0.066052	0.002343	-0.651300	-0.283393	-0.463472	0.529801
55155	-8.931229	-1.197059	3.892258	0.018122	0.077448	0.002766	-0.651252	-0.283883	-0.463674	0.529423
55156	-8.918089	-1.194098	3.909284	0.022609	0.046127	-0.002589	-0.651197	-0.284333	-0.463902	0.529048
55157	-8.955165	-1.131481	3.875501	0.067871	0.097357	0.009768	-0.651139	-0.284761	-0.464109	0.528708
55158	-8.961830	-1.125542	3.852647	0.063756	0.111463	0.006052	-0.651084	-0.285085	-0.464307	0.528426
55159	-8.949542	-1.158182	3.827933	0.023666	0.109833	-0.010845	-0.651043	-0.285324	-0.464509	0.528171
55160	-8.900551	-1.228788	3.916513	-0.016206	-0.015007	-0.011244	-0.651000	-0.285572	-0.464700	0.527921
55161	-8.943044	-1.228534	3.871251	-0.032513	0.033703	0.009314	-0.650981	-0.285894	-0.464859	0.527632
55162	-8.939950	-1.194711	3.848313	-0.010616	0.053280	-0.006740	-0.650953	-0.286261	-0.464999	0.527343
55163	-8.964205	-1.151281	3.829758	0.021344	0.083219	0.002712	-0.650938	-0.286596	-0.465140	0.527056
55164	-8.968034	-1.159365	3.852604	0.017830	0.054416	0.016302	-0.650911	-0.286915	-0.465288	0.526784
55165	-8.960419	-1.172287	3.858806	0.004661	0.033867	0.013429	-0.650885	-0.287251	-0.465427	0.526511
55166	-8.963616	-1.106276	3.822403	0.052999	0.077475	-0.005945	-0.650848	-0.287585	-0.465564	0.526253
55167	-8.985755	-1.156504	3.818426	0.001286	0.067545	0.018747	-0.650803	-0.287882	-0.465702	0.526024
55168	-8.979635	-1.123439	3.811107	0.027711	0.073643	0.006390	-0.650797	-0.288189	-0.465786	0.525789
55169	-8.977680	-1.104628	3.805469	0.041138	0.076975	0.000208	-0.650793	-0.288396	-0.465877	0.525599
55170	-8.975058	-1.119280	3.771359	0.014488	0.096675	-0.013808	-0.650824	-0.288542	-0.465925	0.525438
55171	-8.976995	-1.129893	3.798222	0.010966	0.067818	-0.000202	-0.650873	-0.288636	-0.465981	0.525277
55172	-8.969364	-1.113024	3.824164	0.033435	0.044338	0.001051	-0.650920	-0.288740	-0.466013	0.525132
55173	-8.959635	-1.160783	3.805176	-0.019675	0.040054	-0.009635	-0.650972	-0.288847	-0.466055	0.524972
55174	-8.968067	-1.138663	3.818392	0.003261	0.035274	0.000652	-0.651025	-0.288979	-0.466103	0.524792
55175	-9.004032	-1.138827	3.805895	-0.003856	0.057155	0.028607	-0.651092	-0.289130	-0.466131	0.524600
55176	-8.991380	-1.093256	3.801554	0.035561	0.065910	0.010058	-0.651167	-0.289226	-0.466160	0.524427
55177	-8.972467	-1.127026	3.811502	0.004351	0.037464	0.000644	-0.651260	-0.289306	-0.466155	0.524273
55178	-8.989305	-1.118642	3.797747	0.005128	0.056867	0.009664	-0.651358	-0.289384	-0.466146	0.524117
55179	-8.960174	-1.078660	3.807037	0.044010	0.046983	-0.017913	-0.651435	-0.289446	-0.466146	0.523987
55180	-8.984198	-1.099041	3.809096	0.023332	0.047597	0.007196	-0.651497	-0.289475	-0.466172	0.523870
55181	-8.982578	-1.082804	3.792293	0.032204	0.064495	-0.002720	-0.651534	-0.289552	-0.466204	0.523753
55182	-8.981705	-1.080978	3.804341	0.037122	0.051805	0.001001	-0.651531	-0.289600	-0.466304	0.523641
55183	-8.986697	-1.153540	3.846391	-0.019055	-0.006310	0.030366	-0.651537	-0.289687	-0.466342	0.523551
55184	-8.974105	-1.141557	3.811821	-0.019651	0.018733	0.003980	-0.651521	-0.289871	-0.466397	0.523421
55185	-8.973041	-1.077540	3.792776	0.033143	0.048771	-0.011757	-0.651493	-0.290101	-0.466473	0.523260
55186	-8.987645	-1.115223	3.804597	-0.000935	0.028087	0.010533	-0.651462	-0.290315	-0.466565	0.523098
55187	-8.987492	-1.097299	3.784681	0.007868	0.044993	0.000610	-0.651427	-0.290565	-0.466648	0.522930
55188	-9.003036	-1.074305	3.752439	0.017179	0.080564	-0.000307	-0.651406	-0.290786	-0.466712	0.522775
55189	-8.989455	-1.075278	3.760809	0.017220	0.062675	-0.009322	-0.651392	-0.290974	-0.466785	0.522622
55190	-8.985356	-1.071587	3.800292	0.031238	0.023152	0.001875	-0.651383	-0.291181	-0.466851	0.522459
55191	-9.010304	-1.076269	3.769588	0.014555	0.053332	0.013333	-0.651359	-0.291415	-0.466924	0.522293
55192	-9.003095	-1.077041	3.734142	0.000879	0.075801	-0.006883	-0.651330	-0.291617	-0.467003	0.522147
55193	-9.005182	-1.041063	3.759711	0.041269	0.060242	0.000937	-0.651317	-0.291808	-0.467071	0.521995
55194	-9.003081	-1.069991	3.755336	0.010705	0.050395	0.000581	-0.651311	-0.291978	-0.467123	0.521861
55195	-8.994091	-1.085245	3.764918	-0.002323	0.029846	-0.002227	-0.651293	-0.292159	-0.467189	0.521723
55196	-9.004992	-1.062723	3.762440	0.016070	0.038467	0.004311	-0.651283	-0.292373	-0.467237	0.521572
55197	-9.021874	-1.040035	3.716678	0.020970	0.087351	-0.000373	-0.651282	-0.292530	-0.467294	0.521434
55198	-9.016563	-1.055729	3.698047	-0.001225	0.093579	-0.010658	-0.651311	-0.292613	-0.467340	0.521311
55199	-9.004752	-1.039558	3.753419	0.030346	0.043246	-0.001897	-0.651353	-0.292696	-0.467362	0.521191
55200	-9.014649	-1.050766	3.723306	0.008651	0.068224	-0.003188	-0.651391	-0.292747	-0.467388	0.521093
55201	-9.011492	-1.048781	3.750769	0.018126	0.042123	0.004293	-0.651435	-0.292791	-0.467414	0.520990
55202	-8.992030	-1.070052	3.731235	-0.009120	0.043123	-0.018720	-0.651463	-0.292873	-0.467447	0.520880
55203	-9.006019	-1.016252	3.731026	0.040301	0.062305	-0.011861	-0.651463	-0.292996	-0.467475	0.520784
55204	-9.023076	-1.008807	3.715787	0.041168	0.081708	-0.002881	-0.651441	-0.293109	-0.467534	0.520696
55205	-9.012711	-1.072002	3.740260	-0.011470	0.034495	0.003950	-0.651406	-0.293221	-0.467617	0.520602
55206	-8.990952	-1.047346	3.733718	0.009972	0.035220	-0.021187	-0.651357	-0.293360	-0.467696	0.520514
55207	-9.018314	-1.067426	3.718333	-0.015239	0.049252	0.000198	-0.651295	-0.293562	-0.467787	0.520395
55208	-9.012946	-1.036500	3.697712	0.006618	0.068750	-0.015962	-0.651207	-0.293820	-0.467885	0.520272
55209	-8.996024	-1.038194	3.733799	0.015603	0.024028	-0.017447	-0.651108	-0.294077	-0.468012	0.520137
55210	-9.033376	-1.038537	3.716988	0.008489	0.045981	0.010461	-0.650962	-0.294408	-0.468185	0.519976
55211	-9.037010	-1.034673	3.709225	0.008919	0.046702	0.010458	-0.650802	-0.294762	-0.468372	0.519807
55212	-9.020125	-0.993946	3.639555	0.025095	0.103833	-0.035902	-0.650640	-0.295132	-0.468536	0.519653
55213	-8.993822	-1.041965	3.760315	0.017313	-0.034627	-0.008964	-0.650481	-0.295458	-0.468749	0.519474
55214	-9.012800	-1.019034	3.708335	0.022165	0.014235	-0.013706	-0.650245	-0.295930	-0.469030	0.519246
55215	-8.956017	-1.140921	3.804786	-0.062115	-0.142400	-0.016556	-0.649945	-0.296490	-0.469468	0.518907
55216	-9.074934	-1.052971	3.670466	-0.023456	0.029066	0.032823	-0.649627	-0.297239	-0.469899	0.518487
55217	-9.052332	-0.934445	3.576312	0.058285	0.118051	-0.035646	-0.649327	-0.297973	-0.470302	0.518076
55218	-9.082423	-0.964133	3.607352	0.038301	0.075771	0.006972	-0.649032	-0.298568	-0.470739	0.517707
55219	-9.067292	-0.903898	3.604652	0.095176	0.073721	-0.014126	-0.648726	-0.299127	-0.471130	0.517411
55220	-9.053207	-1.029849	3.631616	-0.014872	-0.008114	-0.004044	-0.648426	-0.299634	-0.471569	0.517095
55221	-9.071522	-1.034248	3.676736	-0.004205	-0.058461	0.029929	-0.648081	-0.300249	-0.472019	0.516758
55222	-9.051321	-1.084191	3.671132	-0.053313	-0.094855	0.014174	-0.647710	-0.301025	-0.472461	0.516369
55223	-9.109594	-1.000719	3.525816	-0.021724	0.058096	0.006357	-0.647319	-0.301875	-0.472942	0.515922
55224	-9.133559	-0.940927	3.478965	0.018654	0.104094	0.005623	-0.646934	-0.302702	-0.473412	0.515488
55225	-9.113790	-0.929570	3.413402	0.008513	0.137203	-0.037328	-0.646587	-0.303412	-0.473867	0.515089
55226	-9.144755	-0.912970	3.429070	0.028111	0.121640	-0.004376	-0.646274	-0.304044	-0.474267	0.514741
55227	-9.155925	-0.874770	3.400404	0.055014	0.146352	-0.007869	-0.646012	-0.304564	-0.474629	0.514428
55228	-9.081991	-0.942027	3.496526	0.022571	0.000345	-0.035411	-0.645775	-0.305002	-0.475005	0.514119
55229	-9.130518	-1.028916	3.546283	-0.044907	-0.065815	0.035905	-0.645514	-0.305510	-0.475417	0.513764
55230	-9.193103	-0.882470	3.391266	0.044268	0.121744	0.024780	-0.645264	-0.306120	-0.475707	0.513447
55231	-9.169266	-0.886850	3.391035	0.039122	0.098540	0.003106	-0.645051	-0.306560	-0.475967	0.513212
55232	-9.154119	-0.906622	3.349369	0.007463	0.112936	-0.023647	-0.644857	-0.306931	-0.476221	0.512997
55233	-9.127872	-0.958911	3.381017	-0.032526	0.049638	-0.031824	-0.644708	-0.307315	-0.476441	0.512751
55234	-9.170644	-0.906101	3.434274	0.032085	0.023104	0.021660	-0.644512	-0.307767	-0.476645	0.512537
55235	-9.156557	-0.878713	3.364077	0.035304	0.077497	-0.018586	-0.644326	-0.308190	-0.476840	0.512334
55236	-9.161836	-0.874096	3.340137	0.030971	0.091763	-0.022365	-0.644143	-0.308595	-0.477044	0.512131
55237	-9.125919	-0.944837	3.385742	-0.022508	0.007232	-0.033230	-0.643976	-0.309000	-0.477262	0.511894
55238	-9.165643	-0.942212	3.349031	-0.034182	0.042760	-0.009128	-0.643783	-0.309569	-0.477490	0.511580
55239	-9.174730	-0.823456	3.351578	0.076742	0.064413	-0.010811	-0.643561	-0.310164	-0.477778	0.511230
55240	-9.190853	-0.890603	3.353904	0.011690	0.033339	0.011383	-0.643323	-0.310698	-0.478126	0.510880
55241	-9.179211	-0.861815	3.264743	0.010324	0.101112	-0.032665	-0.643050	-0.311347	-0.478444	0.510530
55242	-9.184129	-0.775954	3.279153	0.094783	0.098683	-0.030846	-0.642748	-0.311990	-0.478812	0.510173
55243	-9.171332	-0.854139	3.305801	0.028748	0.030168	-0.026502	-0.642422	-0.312569	-0.479291	0.509779
55244	-9.141811	-0.969951	3.342308	-0.068744	-0.067588	-0.031318	-0.641977	-0.313372	-0.479916	0.509258
55245	-9.154646	-0.771544	3.360492	0.126235	-0.049027	-0.031210	-0.641352	-0.314485	-0.480742	0.508581
55246	-9.165493	-0.888357	3.357471	0.016654	-0.112067	-0.011917	-0.640602	-0.315636	-0.481841	0.507772
55247	-9.241592	-1.029426	3.266060	-0.144013	-0.086661	0.041524	-0.639741	-0.317122	-0.482942	0.506885
55248	-9.258295	-0.844242	3.167131	0.001197	0.017872	0.008667	-0.638927	-0.318778	-0.483931	0.505930
55249	-9.289462	-0.824038	3.084931	-0.006991	0.064076	0.010023	-0.638133	-0.320315	-0.484911	0.505020
55250	-9.285415	-0.847679	3.061229	-0.038150	0.035630	0.000862	-0.637377	-0.321808	-0.485798	0.504174
55251	-9.344533	-0.784741	2.985104	-0.005261	0.103008	0.027851	-0.636713	-0.323253	-0.486533	0.503379
55252	-9.366310	-0.626655	2.880581	0.109519	0.215655	0.003606	-0.636101	-0.324553	-0.487153	0.502716
55253	-9.336753	-0.598541	2.866006	0.130409	0.197694	-0.030507	-0.635553	-0.325567	-0.487752	0.502171
55254	-9.334401	-0.734301	2.916082	0.016388	0.086624	-0.006264	-0.635042	-0.326401	-0.488313	0.501732
55255	-9.322022	-0.764578	2.966342	0.003428	0.004535	-0.000258	-0.634546	-0.327284	-0.488873	0.501238
55256	-9.288111	-0.772301	2.970129	-0.002277	-0.037410	-0.030783	-0.633994	-0.328254	-0.489499	0.500691
55257	-9.341789	-0.714981	2.929831	0.039645	0.003179	0.003751	-0.633335	-0.329360	-0.490255	0.500059
55258	-9.361256	-0.811070	2.930082	-0.051970	-0.051949	0.029611	-0.632677	-0.330549	-0.491041	0.499335
55259	-9.378593	-0.689232	2.795189	0.022793	0.076770	-0.002508	-0.632006	-0.331794	-0.491854	0.498558
55260	-9.368969	-0.624779	2.703544	0.056977	0.141679	-0.042648	-0.631347	-0.332908	-0.492707	0.497807
55261	-9.316640	-0.702467	2.744478	-0.002062	0.033008	-0.074914	-0.630668	-0.333968	-0.493582	0.497091
55262	-9.414107	-0.674929	2.685989	0.006455	0.089770	-0.000079	-0.629985	-0.335121	-0.494385	0.496383
55263	-9.415243	-0.605977	2.654767	0.063899	0.106372	-0.012365	-0.629342	-0.336160	-0.495173	0.495710
55264	-9.388803	-0.628245	2.624484	0.036245	0.088572	-0.044219	-0.628635	-0.337183	-0.496005	0.495080
55265	-9.443647	-0.618400	2.609673	0.043214	0.089076	0.003901	-0.627954	-0.338185	-0.496838	0.494426
55266	-9.392228	-0.620279	2.580061	0.036380	0.071141	-0.053131	-0.627333	-0.339070	-0.497644	0.493797
55267	-9.481426	-0.660239	2.597873	0.005697	0.039598	0.040263	-0.626736	-0.339894	-0.498424	0.493201
55268	-9.496578	-0.636347	2.544384	0.014953	0.075092	0.039110	-0.626290	-0.340548	-0.499031	0.492703
55269	-9.471541	-0.596250	2.670839	0.094653	-0.055605	0.045655	-0.625890	-0.341000	-0.499597	0.492324
55270	-9.568752	-0.667501	2.729031	0.047010	-0.118992	0.159163	-0.625529	-0.341331	-0.500055	0.492090
55271	-9.621568	-0.710759	2.585023	-0.035262	0.002409	0.175347	-0.625242	-0.341703	-0.500331	0.491915
55272	-9.544298	-0.474125	2.470484	0.159275	0.146819	0.055178	-0.625001	-0.341915	-0.500572	0.491828
55273	-9.480207	-0.471241	2.347702	0.129327	0.238792	-0.038520	-0.624857	-0.341892	-0.500717	0.491880
55274	-9.464158	-0.592323	2.289855	0.000519	0.253504	-0.060749	-0.624827	-0.341656	-0.500741	0.492058
55275	-9.408860	-0.776109	2.296763	-0.169118	0.185480	-0.099753	-0.624964	-0.341296	-0.500559	0.492319
55276	-9.425445	-0.785509	2.364974	-0.158457	0.135280	-0.065600	-0.625251	-0.340981	-0.500173	0.492565
55277	-9.427435	-0.719063	2.450268	-0.073364	0.090118	-0.046221	-0.625660	-0.340605	-0.499680	0.492807
55278	-9.429071	-0.651575	2.492952	-0.001847	0.085064	-0.038257	-0.626077	-0.340321	-0.499142	0.493018
55279	-9.428020	-0.615971	2.550335	0.043224	0.056024	-0.026669	-0.626482	-0.340009	-0.498638	0.493228
55280	-9.435483	-0.640750	2.607156	0.031433	0.011319	-0.002741	-0.626826	-0.339727	-0.498221	0.493407
55281	-9.413937	-0.709258	2.632616	-0.030566	-0.027687	-0.011962	-0.627126	-0.339531	-0.497869	0.493517
55282	-9.471475	-0.618858	2.654144	0.056665	0.002005	0.042925	-0.627340	-0.339463	-0.497594	0.493569
55283	-9.429921	-0.632519	2.629196	0.032895	0.013462	-0.002749	-0.627476	-0.339451	-0.497420	0.493579
55284	-9.405206	-0.608441	2.601449	0.045296	0.040812	-0.035575	-0.627537	-0.339490	-0.497333	0.493563
55285	-9.394768	-0.657137	2.630336	0.005777	-0.003679	-0.034542	-0.627533	-0.339609	-0.497353	0.493465
55286	-9.415581	-0.662526	2.568190	-0.019778	0.053443	-0.030844	-0.627480	-0.339816	-0.497440	0.493303
55287	-9.382118	-0.610486	2.489109	0.004887	0.126263	-0.087641	-0.627436	-0.340054	-0.497516	0.493119
55288	-9.396808	-0.522019	2.468957	0.080858	0.169399	-0.084737	-0.627411	-0.340256	-0.497572	0.492953
55289	-9.392759	-0.583943	2.495210	0.028338	0.122180	-0.077429	-0.627375	-0.340368	-0.497633	0.492860
55290	-9.396968	-0.628548	2.434507	-0.033572	0.163148	-0.086580	-0.627378	-0.340472	-0.497649	0.492769
55291	-9.405124	-0.606102	2.520446	0.012155	0.091497	-0.057287	-0.627381	-0.340557	-0.497637	0.492718
55292	-9.486989	-0.648045	2.637031	0.004116	-0.006693	0.055280	-0.627404	-0.340635	-0.497637	0.492634
55293	-9.487474	-0.644982	2.650364	0.009246	-0.019322	0.059097	-0.627452	-0.340718	-0.497606	0.492548
55294	-9.452842	-0.594899	2.488361	0.006749	0.133827	-0.020644	-0.627548	-0.340744	-0.497532	0.492483
55295	-9.422315	-0.557473	2.489580	0.041023	0.137102	-0.052138	-0.627672	-0.340673	-0.497405	0.492502
55296	-9.424551	-0.602974	2.479238	-0.006988	0.138051	-0.049837	-0.627813	-0.340509	-0.497250	0.492592
55297	-9.400906	-0.625718	2.601761	0.006834	0.018368	-0.038368	-0.627986	-0.340357	-0.497036	0.492692
55298	-9.423448	-0.567217	2.621097	0.066025	0.029502	-0.015339	-0.628139	-0.340220	-0.496870	0.492759
55299	-9.444149	-0.543135	2.567055	0.071386	0.097064	-0.011554	-0.628271	-0.340014	-0.496742	0.492863
55300	-9.431830	-0.595481	2.630995	0.041079	0.025748	-0.002804	-0.628386	-0.339780	-0.496617	0.493002
55301	-9.451772	-0.572701	2.636295	0.064786	0.039629	0.016263	-0.628507	-0.339508	-0.496490	0.493163
55302	-9.464114	-0.648615	2.629079	-0.009421	0.035409	0.031136	-0.628673	-0.339182	-0.496306	0.493362
55303	-9.407992	-0.673663	2.592612	-0.042825	0.054840	-0.031025	-0.628867	-0.338850	-0.496089	0.493561
55304	-9.429527	-0.618011	2.600978	0.011845	0.079416	-0.011843	-0.629081	-0.338540	-0.495802	0.493789
55305	-9.413051	-0.624467	2.625178	0.011848	0.061467	-0.020695	-0.629337	-0.338203	-0.495484	0.494013
55306	-9.397197	-0.631499	2.591144	-0.006399	0.097167	-0.044850	-0.629572	-0.337881	-0.495159	0.494261
55307	-9.404509	-0.580839	2.615934	0.047741	0.102921	-0.034529	-0.629812	-0.337537	-0.494797	0.494551
55308	-9.412387	-0.610138	2.613535	0.017604	0.111720	-0.025806	-0.630061	-0.337128	-0.494410	0.494901
55309	-9.388764	-0.604597	2.669993	0.039686	0.069391	-0.033276	-0.630311	-0.336680	-0.494006	0.495291
55310	-9.368347	-0.645988	2.698234	0.008645	0.040922	-0.042225	-0.630560	-0.336216	-0.493587	0.495708
55311	-9.385839	-0.624794	2.711867	0.032229	0.054899	-0.023178	-0.630790	-0.335781	-0.493166	0.496128
55312	-9.411865	-0.663593	2.726114	-0.001260	0.053042	0.008332	-0.631014	-0.335329	-0.492771	0.496541
55313	-9.401889	-0.653716	2.753812	0.016630	0.042911	0.005877	-0.631242	-0.334876	-0.492356	0.496968
55314	-9.392682	-0.644501	2.738307	0.020989	0.073082	-0.008077	-0.631486	-0.334376	-0.491909	0.497437
55315	-9.379911	-0.667780	2.753349	0.003370	0.065708	-0.014461	-0.631764	-0.333853	-0.491443	0.497895
55316	-9.364075	-0.644632	2.768305	0.029880	0.071638	-0.027039	-0.632037	-0.333339	-0.490953	0.498377
55317	-9.369506	-0.676017	2.799741	0.008988	0.053707	-0.010637	-0.632342	-0.332741	-0.490467	0.498867
55318	-9.359797	-0.667454	2.773060	0.008606	0.097149	-0.028434	-0.632706	-0.332136	-0.489892	0.499375
55319	-9.375440	-0.647212	2.792845	0.032143	0.111191	-0.009407	-0.633106	-0.331469	-0.489259	0.499931
55320	-9.366724	-0.651490	2.872516	0.050730	0.058546	0.005930	-0.633536	-0.330715	-0.488594	0.500536
55321	-9.326561	-0.733140	2.908406	-0.016527	0.013959	-0.015721	-0.633964	-0.329952	-0.487978	0.501098
55322	-9.320729	-0.705422	2.972430	0.028477	-0.014825	-0.004126	-0.634366	-0.329245	-0.487398	0.501618
55323	-9.347941	-0.679673	3.036057	0.070896	-0.035552	0.039078	-0.634720	-0.328618	-0.486870	0.502094
55324	-9.330165	-0.735270	3.081643	0.031250	-0.079971	0.040319	-0.635026	-0.328055	-0.486446	0.502486
55325	-9.311023	-0.731914	2.991649	0.007852	0.011697	-0.005517	-0.635273	-0.327605	-0.486091	0.502811
55326	-9.318793	-0.683131	2.988244	0.052834	0.044250	-0.002926	-0.635489	-0.327226	-0.485768	0.503098
55327	-9.288730	-0.730042	2.924591	-0.010610	0.090763	-0.047528	-0.635687	-0.326838	-0.485456	0.503400
55328	-9.281198	-0.686639	2.963526	0.043083	0.077860	-0.046077	-0.635862	-0.326428	-0.485159	0.503731
55329	-9.299324	-0.666147	2.974896	0.066557	0.091842	-0.027070	-0.636060	-0.325964	-0.484878	0.504052
55330	-9.277906	-0.663676	2.955561	0.065724	0.116645	-0.053722	-0.636244	-0.325402	-0.484634	0.504417
55331	-9.282036	-0.697913	3.012247	0.053793	0.072003	-0.029600	-0.636464	-0.324692	-0.484412	0.504811
55332	-9.300078	-0.728405	3.055528	0.042412	0.046155	0.003336	-0.636682	-0.323942	-0.484236	0.505186
55333	-9.291028	-0.769469	3.096698	0.020928	0.009580	0.010972	-0.636879	-0.323277	-0.484062	0.505531
55334	-9.284720	-0.810312	3.092793	-0.014107	0.013151	0.007069	-0.637049	-0.322639	-0.483935	0.505846
55335	-9.310969	-0.728839	3.059717	0.057828	0.088370	0.014624	-0.637225	-0.322034	-0.483776	0.506160
55336	-9.284062	-0.760929	3.083990	0.039775	0.062503	-0.000536	-0.637410	-0.321359	-0.483605	0.506521
55337	-9.289964	-0.842524	3.140538	-0.016024	0.004612	0.029871	-0.637622	-0.320660	-0.483447	0.506848
55338	-9.264271	-0.795653	3.149936	0.036226	0.015909	0.004659	-0.637812	-0.320059	-0.483235	0.507190
55339	-9.267196	-0.816527	3.131610	0.014487	0.040827	0.003255	-0.637996	-0.319467	-0.483059	0.507499
55340	-9.237855	-0.834072	3.110552	-0.004487	0.057782	-0.029753	-0.638158	-0.318930	-0.482873	0.507811
55341	-9.251679	-0.802741	3.106299	0.027388	0.087765	-0.020926	-0.638326	-0.318377	-0.482697	0.508114
55342	-9.207220	-0.871161	3.143169	-0.022377	0.032607	-0.044895	-0.638505	-0.317818	-0.482516	0.508411
55343	-9.216280	-0.871502	3.167627	-0.012452	0.025375	-0.028394	-0.638655	-0.317362	-0.482344	0.508670
55344	-9.217642	-0.857144	3.234217	0.024209	-0.019390	-0.006628	-0.638778	-0.316941	-0.482211	0.508904
55345	-9.228378	-0.842929	3.167810	0.020040	0.056060	-0.019580	-0.638861	-0.316620	-0.482119	0.509087
55346	-9.233736	-0.827685	3.187817	0.042915	0.051560	-0.009391	-0.638932	-0.316312	-0.482041	0.509263
55347	-9.237088	-0.845276	3.192707	0.030462	0.049695	-0.003087	-0.638991	-0.315998	-0.481989	0.509433
55348	-9.231128	-0.881796	3.211371	0.004410	0.026588	0.000745	-0.639036	-0.315703	-0.481948	0.509599
55349	-9.226316	-0.871752	3.185372	0.008779	0.056833	-0.013292	-0.639081	-0.315457	-0.481887	0.509752
55350	-9.221802	-0.874550	3.232591	0.022725	0.017377	-0.001709	-0.639123	-0.315220	-0.481843	0.509888
55351	-9.245482	-0.853668	3.193529	0.032681	0.071441	0.005670	-0.639161	-0.314985	-0.481791	0.510034
55352	-9.243810	-0.811157	3.167958	0.068019	0.112034	-0.008363	-0.639214	-0.314668	-0.481729	0.510222
55353	-9.221591	-0.886077	3.171900	0.001429	0.086388	-0.021040	-0.639299	-0.314284	-0.481660	0.510418
55354	-9.204314	-0.941789	3.221007	-0.033494	0.028546	-0.015785	-0.639427	-0.313896	-0.481549	0.510601
55355	-9.212515	-0.939460	3.271393	-0.014356	-0.005679	0.008452	-0.639541	-0.313635	-0.481441	0.510721
55356	-9.199274	-0.900590	3.216438	0.006921	0.056278	-0.025963	-0.639658	-0.313380	-0.481334	0.510832
55357	-9.220619	-0.878195	3.208133	0.025796	0.083723	-0.010877	-0.639793	-0.313131	-0.481208	0.510934
55358	-9.202108	-0.871394	3.182305	0.024950	0.108344	-0.037575	-0.639906	-0.312901	-0.481080	0.511054
55359	-9.193743	-0.905495	3.230844	0.007980	0.058500	-0.025977	-0.640037	-0.312634	-0.480961	0.511165
55360	-9.180338	-0.939034	3.351093	0.013790	-0.058423	0.004981	-0.640112	-0.312475	-0.480929	0.511198
55361	-9.197966	-0.979958	3.323679	-0.033737	-0.038719	0.016204	-0.640134	-0.312498	-0.480950	0.511137
55362	-9.204725	-0.853198	3.233831	0.058424	0.078973	-0.019683	-0.640137	-0.312592	-0.480988	0.511040
55363	-9.229793	-0.873575	3.233281	0.037961	0.079797	0.005587	-0.640128	-0.312640	-0.481069	0.510946
55364	-9.216911	-0.923961	3.259269	-0.001456	0.035216	0.007025	-0.640103	-0.312676	-0.481157	0.510872
55365	-9.204620	-0.881741	3.225834	0.028792	0.070390	-0.019694	-0.640075	-0.312761	-0.481252	0.510765
55366	-9.180939	-0.904269	3.263844	0.019638	0.017657	-0.027019	-0.640008	-0.312875	-0.481424	0.510618
55367	-9.182148	-0.902639	3.272487	0.024599	0.004861	-0.023146	-0.639913	-0.313049	-0.481648	0.510418
55368	-9.193476	-0.913999	3.221459	-0.001601	0.043061	-0.028448	-0.639790	-0.313313	-0.481902	0.510170
55369	-9.196091	-0.924177	3.300088	0.013253	-0.038962	0.001133	-0.639615	-0.313647	-0.482207	0.509896
55370	-9.252060	-0.885482	3.262599	0.037975	0.012729	0.037573	-0.639363	-0.314127	-0.482544	0.509598
55371	-9.226355	-0.910033	3.174367	-0.012562	0.061607	-0.013380	-0.639116	-0.314638	-0.482851	0.509301
55372	-9.218796	-0.876765	3.190239	0.022990	0.040752	-0.018284	-0.638889	-0.315172	-0.483136	0.508987
55373	-9.233368	-0.897557	3.192861	0.002023	0.022919	-0.001749	-0.638663	-0.315735	-0.483434	0.508638
55374	-9.239137	-0.936536	3.208489	-0.032362	-0.016264	0.012373	-0.638395	-0.316387	-0.483763	0.508257
55375	-9.237993	-0.867777	3.192120	0.024938	-0.000017	-0.000321	-0.638101	-0.317195	-0.484092	0.507809
55376	-9.276765	-0.814562	3.147877	0.057465	0.048827	0.017129	-0.637812	-0.318009	-0.484408	0.507362
55377	-9.247234	-0.867041	3.085365	-0.015010	0.060411	-0.026030	-0.637532	-0.318772	-0.484748	0.506909
55378	-9.248254	-0.843290	3.068783	-0.001556	0.063719	-0.032367	-0.637282	-0.319565	-0.485040	0.506444
55379	-9.256695	-0.708104	2.979071	0.095193	0.168078	-0.064594	-0.637044	-0.320316	-0.485346	0.505976
55380	-9.283237	-0.721433	3.024209	0.092972	0.115645	-0.023778	-0.636873	-0.320805	-0.485720	0.505523
55381	-9.282017	-0.780975	3.011431	0.031402	0.095233	-0.023693	-0.636746	-0.321172	-0.486074	0.505110
55382	-9.305689	-0.876010	3.089220	-0.036772	-0.007570	0.031351	-0.636652	-0.321542	-0.486408	0.504670
55383	-9.317196	-0.804636	3.048676	0.016539	0.040698	0.023474	-0.636551	-0.321988	-0.486667	0.504263
55384	-9.310015	-0.770642	3.051279	0.047419	0.033110	0.014683	-0.636419	-0.322438	-0.486967	0.503853
55385	-9.315620	-0.764484	3.010696	0.038703	0.060459	0.006902	-0.636302	-0.322855	-0.487232	0.503477
55386	-9.308586	-0.809959	2.999694	-0.010027	0.042789	0.000673	-0.636178	-0.323284	-0.487473	0.503125
55387	-9.321162	-0.738784	2.916597	0.029635	0.131420	-0.018901	-0.636083	-0.323683	-0.487657	0.502810
55388	-9.338055	-0.728111	2.895404	0.030638	0.150830	-0.010183	-0.636070	-0.323899	-0.487761	0.502587
55389	-9.343538	-0.737903	2.921547	0.027309	0.122137	0.003930	-0.636123	-0.323967	-0.487785	0.502452
55390	-9.310600	-0.732766	2.934324	0.034936	0.101124	-0.023764	-0.636239	-0.323915	-0.487753	0.502370
55391	-9.326523	-0.739610	2.995623	0.045597	0.051109	0.010760	-0.636388	-0.323763	-0.487679	0.502351
55392	-9.316426	-0.712494	2.954867	0.058190	0.096937	-0.013612	-0.636560	-0.323552	-0.487559	0.502385
55393	-9.305212	-0.732582	2.989013	0.049633	0.062921	-0.012105	-0.636748	-0.323222	-0.487450	0.502465
55394	-9.316577	-0.807913	2.996217	-0.019724	0.045436	0.006996	-0.636948	-0.322894	-0.487283	0.502584
55395	-9.343292	-0.765846	3.019521	0.026445	0.054152	0.036043	-0.637168	-0.322574	-0.487052	0.502735
55396	-9.334204	-0.707611	2.984173	0.070142	0.110607	0.011578	-0.637447	-0.322173	-0.486758	0.502924
55397	-9.304656	-0.766862	3.023160	0.025460	0.060712	0.000561	-0.637747	-0.321688	-0.486463	0.503139
55398	-9.294718	-0.756362	3.048320	0.043733	0.050682	-0.001896	-0.638003	-0.321193	-0.486220	0.503365
55399	-9.278050	-0.765506	3.043737	0.034570	0.059303	-0.018413	-0.638287	-0.320665	-0.485968	0.503587
55400	-9.311726	-0.739800	3.012765	0.049595	0.118932	0.001368	-0.638580	-0.320111	-0.485717	0.503808
55401	-9.255379	-0.779610	3.080616	0.034795	0.041940	-0.027135	-0.638900	-0.319490	-0.485442	0.504062
55402	-9.240345	-0.881946	3.135687	-0.044096	-0.028945	-0.015160	-0.639176	-0.318961	-0.485203	0.504277
55403	-9.235869	-0.885015	3.160196	-0.039074	-0.041627	-0.011254	-0.639446	-0.318538	-0.484970	0.504426
55404	-9.265388	-0.842822	3.126355	-0.011085	0.020522	0.002164	-0.639710	-0.318228	-0.484755	0.504495
55405	-9.248456	-0.802082	3.103355	0.019161	0.055484	-0.024703	-0.639956	-0.317951	-0.484557	0.504548
55406	-9.246194	-0.801847	3.110149	0.019599	0.056284	-0.024709	-0.640204	-0.317687	-0.484347	0.504601
55407	-9.240397	-0.833998	3.131061	-0.006404	0.033129	-0.020706	-0.640436	-0.317449	-0.484150	0.504645
55408	-9.250483	-0.827674	3.166525	0.008179	0.012702	-0.000290	-0.640649	-0.317271	-0.483990	0.504640
55409	-9.233917	-0.785075	3.155026	0.042937	0.034424	-0.023268	-0.640833	-0.317171	-0.483845	0.504609
55410	-9.213092	-0.774962	3.171740	0.055700	0.018977	-0.038328	-0.640989	-0.317069	-0.483726	0.504587
55411	-9.243194	-0.808622	3.161084	0.017828	0.030661	-0.010560	-0.641124	-0.317005	-0.483676	0.504506
55412	-9.256627	-0.801310	3.162838	0.023509	0.036878	0.002040	-0.641225	-0.316968	-0.483652	0.504423
55413	-9.222398	-0.796991	3.190093	0.035764	0.002514	-0.021711	-0.641303	-0.316926	-0.483677	0.504327
55414	-9.226727	-0.808794	3.218101	0.032369	-0.026000	-0.007531	-0.641318	-0.317008	-0.483737	0.504197
55415	-9.269641	-0.822504	3.158629	-0.000953	0.033947	0.014751	-0.641292	-0.317139	-0.483829	0.504060
55416	-9.274806	-0.787117	3.140340	0.025986	0.058539	0.010713	-0.641278	-0.317271	-0.483925	0.503903
55417	-9.236632	-0.768130	3.163311	0.051289	0.026787	-0.019395	-0.641240	-0.317410	-0.484024	0.503768
55418	-9.278721	-0.735961	3.073574	0.052850	0.126625	-0.011446	-0.641195	-0.317498	-0.484159	0.503641
55419	-9.230551	-0.770375	3.080812	0.024463	0.089605	-0.051575	-0.641114	-0.317572	-0.484332	0.503530
55420	-9.164153	-0.811314	3.173486	0.018136	-0.032854	-0.080805	-0.640983	-0.317661	-0.484627	0.503357
55421	-9.182781	-0.865104	3.281557	0.003185	-0.149289	-0.024011	-0.640751	-0.317978	-0.485076	0.503020
55422	-9.299029	-0.850409	3.185332	-0.013460	-0.035390	0.053417	-0.640440	-0.318513	-0.485546	0.502624
55423	-9.330584	-0.820301	3.097517	-0.012624	0.045523	0.052658	-0.640159	-0.319081	-0.485968	0.502215
55424	-9.331229	-0.846757	3.126008	-0.029641	-0.004286	0.064551	-0.639887	-0.319681	-0.486305	0.501853
55425	-9.310506	-0.785889	3.197789	0.049892	-0.073579	0.062589	-0.639645	-0.320249	-0.486710	0.501406
55426	-9.253204	-0.835333	3.361111	0.057819	-0.278764	0.063318	-0.639278	-0.320863	-0.487972	0.500254
55427	-9.388777	-0.739288	2.950371	0.025178	0.125859	0.055634	-0.638847	-0.321475	-0.489549	0.498869
55428	-9.413821	-0.792387	3.132992	0.042012	-0.083931	0.139931	-0.638341	-0.321997	-0.491044	0.497709
55429	-8.691761	-0.567794	4.681671	0.801979	-1.694938	-0.103410	-0.637544	-0.321487	-0.496734	0.493395
55430	-9.705137	-0.470963	2.465332	0.235790	0.513220	0.195684	-0.635732	-0.320556	-0.506203	0.486670
55431	-9.758408	-0.256041	2.404777	0.507187	0.531264	0.213993	-0.634147	-0.319111	-0.512686	0.482887
55432	-9.661368	-1.010273	2.921936	0.061875	-0.293373	0.326826	-0.632626	-0.318125	-0.517252	0.480658
55433	-9.610495	-0.729960	3.280017	0.542894	-0.608285	0.335541	-0.631026	-0.315825	-0.524386	0.476529
55434	-9.852370	-0.325355	1.588921	0.391624	1.041235	0.110077	-0.629565	-0.313201	-0.530354	0.473579
55435	-9.722256	-0.666144	1.978256	0.304786	0.483532	0.114658	-0.627979	-0.311381	-0.534695	0.472000
55436	-10.298129	-0.975337	2.420848	0.264659	0.063785	0.807507	-0.625292	-0.312869	-0.537373	0.471544
55437	-11.124451	0.588230	-0.588230	0.626046	3.469487	0.771033	-0.620296	-0.317635	-0.537696	0.474577
55438	-10.629281	1.627294	-0.081109	1.845826	3.211723	0.282528	-0.616018	-0.320216	-0.537223	0.478931
55439	-10.386195	2.862643	0.203568	3.173392	3.291822	-0.055535	-0.613619	-0.318071	-0.542033	0.478020
55440	-9.456655	0.230708	-0.360540	0.536183	2.613771	-0.730187	-0.614282	-0.313675	-0.549298	0.471739
55441	-10.308491	-1.293143	-1.179008	-1.160095	2.880428	0.171411	-0.616966	-0.312984	-0.554635	0.462357
55442	-10.851906	1.081255	-0.149813	1.346283	2.841732	0.630662	-0.620339	-0.315987	-0.558141	0.451453
55443	-9.366883	0.416903	0.510801	0.838361	1.524328	-0.585383	-0.624168	-0.319343	-0.562028	0.438815
55444	-8.496333	-0.814195	0.576613	-0.391103	0.609874	-1.288986	-0.627740	-0.325791	-0.564157	0.426062
55445	-8.734316	-0.387882	0.493587	-0.193531	0.705179	-1.086767	-0.630480	-0.334826	-0.564944	0.413793
55446	-7.302287	0.182097	1.375722	0.595767	-0.217672	-2.407079	-0.632313	-0.343650	-0.566434	0.401544
55447	-9.952806	5.043892	1.781063	4.943644	1.757425	0.194366	-0.632445	-0.346482	-0.572734	0.389794
55448	-4.057044	-5.629315	3.619878	-3.396227	-5.492947	-5.391913	-0.630467	-0.345178	-0.580374	0.382790
55449	-6.964644	-5.419665	6.835402	-1.556034	-8.048655	-2.236958	-0.628704	-0.335398	-0.589702	0.380119
55450	-10.721467	-5.966034	-2.225630	-6.385068	-0.189406	0.896714	-0.621277	-0.342841	-0.590363	0.384639
55451	-10.056033	-4.427059	-1.297749	-4.503619	-0.321832	0.287786	-0.619650	-0.339438	-0.594702	0.383596
55452	-9.258219	-0.781528	0.492603	-0.375571	-0.229256	-0.518941	-0.615381	-0.342447	-0.597247	0.383839
55453	-10.451789	1.133622	0.966281	1.613930	0.270489	0.617061	-0.611084	-0.344080	-0.600358	0.384390
55454	-10.997938	-0.972782	2.382673	0.551694	-2.030753	1.284522	-0.605767	-0.345551	-0.604398	0.385154
55455	-11.873917	-2.390805	2.892414	-0.316609	-3.225340	2.210880	-0.600008	-0.348226	-0.609000	0.384510
55456	-12.156720	-0.657513	2.015929	0.918148	-1.761397	2.366558	-0.594848	-0.350114	-0.613628	0.383455
55457	-11.597637	0.409381	0.714342	1.336279	-0.229851	1.734724	-0.590183	-0.350325	-0.618029	0.383402
55458	-10.724865	-0.351621	-0.536027	0.137636	0.455668	0.920730	-0.586906	-0.349192	-0.620842	0.384919
55459	-10.560904	-1.008872	-0.986692	-0.584016	0.563742	0.811090	-0.585727	-0.347213	-0.621140	0.388010
55460	-10.756276	-1.221484	-0.192451	-0.347697	-0.148505	1.007778	-0.586608	-0.344593	-0.619069	0.392302
55461	-10.718617	-1.476417	0.388339	-0.307507	-0.653602	0.989902	-0.588846	-0.341934	-0.615544	0.396796
55462	-10.678999	-1.482631	1.426130	0.133043	-1.441944	0.965743	-0.591502	-0.339850	-0.611614	0.400694
55463	-10.716107	-0.732831	2.164762	1.100642	-1.641931	0.964606	-0.593386	-0.338581	-0.608652	0.403483
55464	-10.656623	-0.295365	2.868076	1.784782	-2.006934	0.895410	-0.593836	-0.338052	-0.607408	0.405136
55465	-10.407717	0.629742	2.740510	2.544127	-1.477053	0.559060	-0.592570	-0.337643	-0.608716	0.405367
55466	-10.454226	0.653251	2.551811	2.542042	-1.326085	0.580003	-0.589710	-0.337052	-0.612354	0.404550
55467	-10.711502	-1.055700	3.760289	1.720402	-3.238383	0.982713	-0.585313	-0.335982	-0.618923	0.401821
55468	-11.674117	-1.709980	5.146639	2.040386	-4.874673	1.924598	-0.578573	-0.337348	-0.627212	0.397563
55469	-12.691028	-0.318788	5.758669	3.864689	-4.995380	2.613901	-0.568811	-0.340544	-0.637925	0.391837
55470	-12.186933	0.599122	7.400737	5.668601	-6.376167	1.625199	-0.554910	-0.343994	-0.654213	0.381770
55471	-13.173692	2.623001	6.819700	7.746314	-5.457736	1.893950	-0.532073	-0.350038	-0.678870	0.365386
55472	-18.337405	2.255360	-3.347614	4.303805	1.833343	8.367486	-0.505461	-0.355316	-0.701614	0.354963
55473	-17.087669	3.535583	-5.424071	4.890660	3.693860	7.400517	-0.487812	-0.354981	-0.716057	0.351126
55474	-7.493811	2.573926	2.356042	5.384107	-1.936718	-3.846889	-0.481449	-0.348719	-0.723975	0.349946
55475	-4.149761	0.601845	7.765258	5.337504	-6.869929	-8.330593	-0.485615	-0.347900	-0.724644	0.343562
55476	-8.392256	3.396728	6.339608	8.131229	-4.899315	-4.153941	-0.503674	-0.353824	-0.714365	0.332872
55477	-1.176273	2.845691	10.845291	8.150981	-7.546468	-11.729384	-0.532249	-0.353667	-0.699737	0.319372
55478	0.427735	-0.778335	10.963619	5.272238	-9.271972	-12.492918	-0.564065	-0.351255	-0.681950	0.305605
55479	-1.837068	-1.395746	8.342783	3.817469	-7.748166	-9.266855	-0.595557	-0.349995	-0.659376	0.296715
55480	-3.966723	-1.891620	6.489397	2.373957	-6.695772	-6.505310	-0.624794	-0.348027	-0.633963	0.294280
55481	-6.475747	-4.863227	5.169174	-1.162883	-7.405919	-3.805930	-0.649840	-0.346681	-0.606739	0.298976
55482	-10.078876	-4.752021	1.689947	-3.952329	-4.265069	-0.161123	-0.668185	-0.348715	-0.577881	0.313019
55483	-12.866094	-2.120271	-1.858411	-4.679946	0.870441	2.465463	-0.676964	-0.354535	-0.548762	0.338947
55484	-13.378858	-1.454477	-4.261013	-5.539820	4.198508	2.469869	-0.675200	-0.360356	-0.523665	0.374197
55485	-13.115410	-3.670428	-7.154187	-8.334812	6.718837	1.228581	-0.662997	-0.371751	-0.500778	0.414074
55486	-21.816645	10.534593	-14.362665	2.457622	20.851162	8.942127	-0.635461	-0.395882	-0.476914	0.460456
55487	-12.804562	2.451470	-18.190556	-2.897623	20.578921	-1.524714	-0.614223	-0.395529	-0.469626	0.495721
55488	-24.750766	-13.370878	-37.132587	-21.273555	38.373640	5.830800	-0.594768	-0.384713	-0.487719	0.510273
55489	-11.659376	-9.969247	-8.448356	-11.249297	9.367586	-0.208625	-0.590648	-0.389050	-0.458630	0.537991
55490	-5.074205	-22.415659	5.429245	-21.004638	-7.420450	-2.000309	-0.601994	-0.350990	-0.483834	0.529446
55491	-9.661590	-12.602501	7.253231	-10.802209	-6.333111	2.348353	-0.602987	-0.373463	-0.463352	0.531259
55492	-12.993800	9.528907	9.914347	10.882225	-4.357976	5.035459	-0.594487	-0.392020	-0.464138	0.526766
55493	-11.027945	4.232805	5.279691	4.904457	-1.714866	2.036537	-0.588172	-0.394847	-0.475275	0.521788
55494	-9.939309	-2.745687	0.475859	-2.619343	1.307942	0.085648	-0.581495	-0.399177	-0.485032	0.516977
55495	-9.965871	-0.453521	0.145179	-0.333855	1.789922	-0.003115	-0.576325	-0.402685	-0.490351	0.515024
55496	-9.790772	0.067338	0.058620	0.231318	1.814064	-0.193846	-0.572799	-0.403176	-0.493628	0.515443
55497	-9.704482	-0.962898	0.747606	-0.613133	0.943405	-0.096883	-0.571203	-0.401911	-0.494751	0.517124
55498	-10.065106	-1.185303	1.500847	-0.664192	0.272817	0.407296	-0.571104	-0.400537	-0.493873	0.519134
55499	-10.104981	-1.216548	2.235289	-0.564993	-0.379545	0.585557	-0.572102	-0.398847	-0.492073	0.521042
55500	-9.943093	-0.837827	2.404792	-0.174851	-0.450078	0.439947	-0.573437	-0.397556	-0.489651	0.522838
55501	-9.873868	0.156725	2.318237	0.779555	-0.165125	0.299519	-0.574647	-0.396231	-0.487351	0.524663
55502	-9.733898	0.277519	2.298014	0.891812	-0.089799	0.152395	-0.575676	-0.394070	-0.485725	0.526666
55503	-9.382188	0.030432	1.929372	0.597366	0.218893	-0.255295	-0.576290	-0.391647	-0.484628	0.528808
55504	-9.082821	-0.522732	1.550744	0.009965	0.495373	-0.596947	-0.576762	-0.388959	-0.484052	0.530801
55505	-8.940726	-1.102559	1.322704	-0.576557	0.651803	-0.749342	-0.577304	-0.386631	-0.483271	0.532621
55506	-9.038860	-0.736107	1.493533	-0.167936	0.614502	-0.643856	-0.577804	-0.384999	-0.481947	0.534458
55507	-9.126853	-0.736065	1.621585	-0.135027	0.563268	-0.531790	-0.578326	-0.383506	-0.480483	0.536282
55508	-9.146570	-0.747100	1.947360	-0.086651	0.303053	-0.436623	-0.578759	-0.382143	-0.479134	0.537992
55509	-9.286255	-0.478146	2.142840	0.223137	0.232445	-0.275866	-0.578955	-0.380982	-0.477961	0.539646
55510	-9.411140	-0.922390	2.465142	-0.150049	-0.066020	-0.041798	-0.579191	-0.379673	-0.477179	0.541005
55511	-9.489128	-1.090086	2.517581	-0.294382	-0.084316	0.060316	-0.579477	-0.378677	-0.476429	0.542057
55512	-9.444333	-0.928417	2.296000	-0.165876	0.167910	-0.051887	-0.579846	-0.377904	-0.475577	0.542949
55513	-9.376781	-1.084919	2.601867	-0.276434	-0.135355	-0.026166	-0.580402	-0.377120	-0.474818	0.543564
55514	-9.493143	-1.060530	2.675499	-0.242255	-0.148776	0.103054	-0.580970	-0.376935	-0.473968	0.543828
55515	-9.532091	-0.567203	2.463640	0.203680	0.148136	0.045737	-0.581586	-0.376679	-0.473191	0.544023
55516	-9.674203	-0.917689	2.377500	-0.158876	0.244048	0.187313	-0.582383	-0.376003	-0.472287	0.544424
55517	-9.600460	-1.027267	2.429728	-0.272063	0.190986	0.138046	-0.583307	-0.375320	-0.470925	0.545085
55518	-9.567281	-1.108477	2.351357	-0.379835	0.285027	0.090079	-0.584326	-0.374692	-0.469100	0.545998
55519	-9.339469	-0.985638	2.499321	-0.262588	0.140072	-0.099037	-0.585312	-0.374188	-0.467114	0.546989
55520	-9.189162	-0.862887	2.833079	-0.117054	-0.166038	-0.160215	-0.586092	-0.374104	-0.465370	0.547698
55521	-9.266977	-0.694855	3.454454	0.119105	-0.689535	0.076864	-0.586797	-0.374580	-0.464198	0.547613
55522	-9.692349	0.151000	3.731364	0.983960	-0.715573	0.502701	-0.587139	-0.375437	-0.463549	0.547209
55523	-9.764075	-0.584812	3.529023	0.214591	-0.605370	0.566167	-0.587275	-0.375680	-0.463787	0.546694
55524	-9.705950	-1.245116	3.824699	-0.402690	-1.004044	0.637853	-0.587392	-0.376166	-0.464359	0.545748
55525	-7.873619	-1.160280	8.077745	0.334358	-5.637534	0.020497	-0.589110	-0.374182	-0.474213	0.536712
55526	-12.185747	-1.701806	1.579363	-1.043799	1.373421	2.471272	-0.588777	-0.372974	-0.489270	0.524258
55527	-11.170144	0.510933	-0.100179	0.827018	2.910453	0.952440	-0.588352	-0.371591	-0.494405	0.520889
55528	-10.530729	-1.032480	0.064845	-0.635359	2.274450	0.501843	-0.588015	-0.369890	-0.495417	0.521518
55529	-10.346112	-3.673054	-0.473751	-3.298244	2.271887	0.420467	-0.586405	-0.369854	-0.493678	0.524994
55530	-9.528134	-6.694405	-3.168085	-6.767455	4.222815	-0.757230	-0.578931	-0.379753	-0.485492	0.533783
55531	-5.558078	1.454889	2.222308	2.019311	-0.608289	-4.024876	-0.565766	-0.392649	-0.476239	0.546747
55532	-1.294098	-0.133230	4.093471	0.376334	-3.667256	-7.608686	-0.552873	-0.398850	-0.473643	0.557595
55533	-13.738836	2.488291	-0.722091	3.513124	3.987997	3.118435	-0.541968	-0.402368	-0.475511	0.564145
55534	-8.099704	3.963933	3.620445	4.882088	-1.436175	-1.534694	-0.550620	-0.399277	-0.471677	0.561174
55535	-10.034477	-1.820176	0.024521	-1.085438	2.297677	0.063792	-0.555069	-0.397136	-0.466067	0.562994
55536	-11.065686	2.250654	3.820861	3.297982	-0.738190	1.619331	-0.557113	-0.394938	-0.462358	0.565574
55537	-10.447548	-0.752789	4.090343	0.290264	-1.218358	1.362242	-0.558213	-0.391929	-0.459516	0.568889
55538	-10.009897	-1.028557	4.236595	0.017926	-1.383030	1.017396	-0.559034	-0.388976	-0.457201	0.571967
55539	-9.631904	-1.220087	3.798178	-0.217317	-0.988204	0.563442	-0.559011	-0.387495	-0.454611	0.575051
55540	-9.448416	-1.064782	3.263226	-0.104211	-0.453987	0.229112	-0.558411	-0.386499	-0.452614	0.577873
55541	-9.164597	-1.682743	2.830126	-0.753161	-0.100305	-0.104259	-0.557607	-0.385579	-0.451324	0.580268
55542	-9.189391	-1.560976	2.738401	-0.619779	0.038429	-0.117602	-0.556830	-0.385184	-0.449884	0.582390
55543	-9.210727	-1.152293	2.931261	-0.193248	-0.093637	-0.080709	-0.556147	-0.385314	-0.448364	0.584126
55544	-9.357373	-0.648831	2.874492	0.316714	0.039349	-0.007472	-0.555476	-0.385681	-0.447339	0.585306
55545	-9.339506	-0.669053	2.842687	0.298385	0.074355	-0.032079	-0.554950	-0.385456	-0.447035	0.586185
55546	-9.336683	-0.966040	2.789259	0.012323	0.124822	-0.021309	-0.554450	-0.385067	-0.447020	0.586926
55547	-9.325433	-1.091990	2.856657	-0.096850	0.062211	0.000741	-0.554076	-0.384642	-0.446920	0.587633
55548	-9.380266	-1.005980	2.806984	0.003168	0.137703	0.029140	-0.553753	-0.384202	-0.446796	0.588320
55549	-9.401701	-1.088133	2.880592	-0.060043	0.083420	0.079898	-0.553524	-0.383586	-0.446678	0.589026
55550	-9.390289	-1.142860	2.858699	-0.104200	0.113451	0.068207	-0.553391	-0.382944	-0.446448	0.589743
55551	-9.313193	-1.087418	2.962260	-0.040712	0.008472	0.020484	-0.553328	-0.382355	-0.446064	0.590475
55552	-9.331440	-1.080458	3.124006	-0.015068	-0.123568	0.086154	-0.553266	-0.381804	-0.445728	0.591142
55553	-9.371034	-1.009595	3.024906	0.061492	-0.000341	0.085889	-0.553179	-0.381351	-0.445306	0.591834
55554	-9.322453	-0.945491	2.943927	0.124413	0.078666	0.008061	-0.553098	-0.380740	-0.444958	0.592564
55555	-9.287835	-0.978983	2.905558	0.096316	0.121408	-0.033091	-0.553033	-0.379983	-0.444596	0.593381
55556	-9.307056	-0.925572	2.905317	0.164102	0.148606	-0.021376	-0.552950	-0.379095	-0.444234	0.594298
55557	-9.240637	-1.088045	3.026840	0.017505	0.032140	-0.028334	-0.552931	-0.377990	-0.443914	0.595257
55558	-9.221590	-1.212693	3.122184	-0.087079	-0.043782	-0.002141	-0.552876	-0.376985	-0.443658	0.596137
55559	-9.221982	-1.261807	3.117778	-0.121480	-0.021518	0.002728	-0.552754	-0.376228	-0.443452	0.596880
55560	-9.151255	-1.374299	3.112540	-0.230340	-0.026776	-0.052140	-0.552705	-0.375714	-0.443255	0.597395
55561	-9.177133	-1.248858	3.160601	-0.095756	-0.053174	-0.027146	-0.552616	-0.375624	-0.443014	0.597713
55562	-9.213264	-1.143218	3.224586	0.017583	-0.097846	0.014787	-0.552458	-0.375692	-0.442978	0.597843
55563	-9.258204	-1.213571	3.149677	-0.050540	-0.016118	0.041486	-0.552225	-0.375923	-0.443060	0.597852
55564	-9.248352	-1.214342	2.978128	-0.061550	0.138414	-0.022236	-0.552093	-0.376151	-0.443098	0.597803
55565	-9.280370	-1.159378	2.960688	-0.006661	0.163138	-0.004098	-0.552080	-0.376326	-0.443011	0.597769
55566	-9.264092	-1.203925	2.974754	-0.055209	0.145143	-0.009734	-0.552191	-0.376358	-0.442787	0.597812
55567	-9.252164	-1.279977	3.153671	-0.127752	-0.023995	0.044778	-0.552441	-0.376349	-0.442425	0.597855
55568	-9.273332	-1.295013	3.165862	-0.147794	-0.022791	0.070230	-0.552704	-0.376555	-0.441924	0.597853
55569	-9.290846	-1.045011	3.045160	0.085116	0.106593	0.019211	-0.553032	-0.376800	-0.441284	0.597867
55570	-9.290046	-0.938578	2.996936	0.177294	0.162283	-0.009131	-0.553396	-0.376842	-0.440637	0.597982
55571	-9.221752	-1.127309	3.048042	-0.023198	0.101878	-0.035614	-0.553809	-0.376670	-0.440022	0.598160
55572	-9.232445	-1.115758	3.060201	-0.017425	0.108029	-0.023111	-0.554261	-0.376503	-0.439357	0.598335
55573	-9.255098	-1.033439	3.084222	0.059532	0.108595	-0.003411	-0.554738	-0.376343	-0.438629	0.598529
55574	-9.226967	-1.058395	3.063198	0.023068	0.135494	-0.034068	-0.555265	-0.376031	-0.437913	0.598760
55575	-9.254108	-1.064939	3.055578	0.011987	0.171384	-0.010667	-0.555882	-0.375590	-0.437071	0.599079
55576	-9.241744	-0.986756	3.057733	0.082292	0.189900	-0.030543	-0.556554	-0.374989	-0.436161	0.599495
55577	-9.169663	-1.004851	3.179919	0.058490	0.077728	-0.055905	-0.557310	-0.374159	-0.435275	0.599955
55578	-9.206207	-1.097571	3.264326	-0.029821	0.037473	0.016472	-0.558011	-0.373463	-0.434392	0.600377
55579	-9.154323	-1.050419	3.260791	0.007381	0.050086	-0.038479	-0.558743	-0.372755	-0.433549	0.600746
55580	-9.150545	-1.059324	3.287782	-0.004954	0.048187	-0.032005	-0.559459	-0.372089	-0.432808	0.601027
55581	-9.099382	-1.113948	3.309384	-0.068502	0.032332	-0.066618	-0.560198	-0.371522	-0.432072	0.601219
55582	-9.156599	-1.041814	3.433513	0.007631	-0.043237	0.021729	-0.560938	-0.371076	-0.431416	0.601275
55583	-9.170855	-1.008669	3.351224	0.029863	0.055809	0.003048	-0.561596	-0.370775	-0.430852	0.601250
55584	-9.135952	-1.002636	3.332969	0.023761	0.074313	-0.036519	-0.562248	-0.370460	-0.430412	0.601151
55585	-9.130532	-0.997086	3.284461	0.018919	0.130612	-0.059173	-0.562949	-0.370107	-0.429980	0.601021
55586	-9.131918	-1.052452	3.344772	-0.041079	0.086626	-0.031181	-0.563725	-0.369753	-0.429568	0.600806
55587	-9.062469	-1.016129	3.406521	-0.017244	0.016530	-0.077973	-0.564538	-0.369450	-0.429197	0.600495
55588	-9.063307	-1.151569	3.560183	-0.155086	-0.122466	-0.009347	-0.565296	-0.369462	-0.429027	0.599895
55589	-9.092194	-1.172268	3.569567	-0.188010	-0.123701	0.022623	-0.566026	-0.369885	-0.428979	0.598979
55590	-9.155468	-1.137015	3.544162	-0.171162	-0.087448	0.068580	-0.566680	-0.370852	-0.428862	0.597846
55591	-9.179741	-0.956317	3.487921	-0.020728	-0.039849	0.053702	-0.567297	-0.372108	-0.428803	0.596521
55592	-9.191887	-0.936092	3.426461	-0.033898	0.000678	0.041571	-0.567895	-0.373484	-0.428814	0.595083
55593	-9.143208	-1.079026	3.570789	-0.206121	-0.182019	0.058345	-0.568490	-0.375181	-0.428944	0.593351
55594	-9.153743	-1.281474	3.756631	-0.436141	-0.394938	0.147180	-0.569116	-0.377299	-0.429331	0.591124
55595	-9.278240	-1.683448	4.305952	-0.848539	-0.936022	0.476340	-0.569789	-0.380397	-0.430121	0.587907
55596	-9.405376	-1.659860	4.559205	-0.865102	-1.222816	0.663831	-0.570658	-0.384339	-0.432127	0.583009
55597	-9.534811	-1.339554	5.165405	-0.569234	-1.875923	0.936399	-0.571627	-0.388819	-0.435621	0.576452
55598	-9.771638	-0.966058	4.983977	-0.242929	-1.810432	1.046251	-0.572437	-0.393380	-0.443115	0.566760
55599	-10.350185	0.379728	3.600716	0.991221	-0.467132	1.097451	-0.572093	-0.397668	-0.450126	0.558531
55600	-10.389614	0.313482	2.946503	0.853589	-0.024683	0.957297	-0.571426	-0.400726	-0.456094	0.552149
55601	-10.126192	-0.555041	2.276660	-0.087028	0.325889	0.575552	-0.570673	-0.403176	-0.461121	0.546945
55602	-9.966160	-0.424767	1.566287	-0.036388	0.856758	0.248209	-0.570126	-0.404971	-0.465244	0.542681
55603	-9.672145	-0.613879	0.889581	-0.306280	1.328334	-0.176311	-0.570015	-0.405867	-0.468740	0.539108
55604	-9.623722	-1.201712	0.188360	-0.976050	1.869285	-0.344402	-0.570269	-0.406405	-0.471026	0.536435
55605	-9.815573	-1.967789	-0.298142	-1.806310	2.265010	-0.225538	-0.570896	-0.407060	-0.471297	0.535032
55606	-8.532418	-3.036218	0.123726	-2.871124	1.475866	-1.350173	-0.570438	-0.409710	-0.466825	0.537414
55607	-10.145273	0.632695	0.096203	0.792470	2.250533	0.068768	-0.564703	-0.416073	-0.460011	0.544411
55608	-8.161467	-0.453906	1.458815	-0.175385	0.417613	-1.521841	-0.557368	-0.418868	-0.455547	0.553505
55609	-7.231466	-1.125090	1.926886	-0.784110	-0.251297	-2.289757	-0.547863	-0.422348	-0.452174	0.563033
55610	-8.123903	-0.948097	1.251290	-0.508252	0.625122	-1.577855	-0.537376	-0.426156	-0.449824	0.572081
55611	-9.329698	-1.334679	0.477328	-0.698476	1.647814	-0.547308	-0.526732	-0.428941	-0.448593	0.580799
55612	-9.032237	-1.847770	0.842831	-1.081918	1.242918	-0.702886	-0.516391	-0.430561	-0.447666	0.589535
55613	-8.256277	-1.553498	1.352240	-0.732195	0.568537	-1.354142	-0.506507	-0.430966	-0.447513	0.597873
55614	-6.951299	-1.397795	1.982998	-0.630532	-0.337544	-2.485068	-0.498202	-0.429499	-0.449295	0.604532
55615	-5.373968	-0.500346	3.049925	0.092322	-1.804348	-3.882535	-0.493161	-0.425121	-0.455106	0.607407
55616	-7.094663	-11.198372	-1.668454	-9.851105	3.865824	-1.657308	-0.494745	-0.414492	-0.471754	0.600726
55617	-15.888992	12.813462	5.354108	14.684917	-2.852508	5.065985	-0.503735	-0.433254	-0.442204	0.602493
55618	-10.548093	-3.098753	1.154131	-1.803318	1.371793	1.006529	-0.524936	-0.401015	-0.471226	0.584445
55619	-9.302052	-1.854465	3.086344	-0.656713	-0.829720	0.105374	-0.533425	-0.404509	-0.463099	0.580836
55620	-11.019724	2.679646	3.762225	3.873956	-0.937796	1.451401	-0.540631	-0.403911	-0.460566	0.576587
55621	-10.722838	2.183464	4.891941	3.279030	-2.052975	1.532345	-0.543080	-0.406609	-0.456955	0.575261
55622	-11.267592	5.274694	5.579939	6.322927	-2.555730	1.994274	-0.540920	-0.410749	-0.453180	0.577338
55623	-9.789500	-1.310444	3.626833	-0.428426	-1.118515	0.640573	-0.539180	-0.410202	-0.454835	0.578052
55624	-9.502687	-2.990728	2.637734	-2.126857	-0.269329	0.267341	-0.536643	-0.412458	-0.455368	0.578388
55625	-9.436358	-2.535609	2.270286	-1.698189	0.029354	0.073839	-0.534287	-0.416182	-0.455076	0.578132
55626	-9.427534	-1.290157	1.942690	-0.495217	0.289070	-0.117959	-0.532441	-0.420165	-0.454622	0.577310
55627	-9.426103	0.105484	2.168537	0.862605	-0.002774	-0.178343	-0.530703	-0.423717	-0.454598	0.576332
55628	-9.369336	-0.273184	1.916134	0.456678	0.172005	-0.257996	-0.529124	-0.426273	-0.455807	0.574943
55629	-9.278707	-0.861750	1.514249	-0.150387	0.488483	-0.385686	-0.527621	-0.428705	-0.457209	0.573400
55630	-9.236683	-0.709176	1.334762	-0.012880	0.590558	-0.471831	-0.526155	-0.431067	-0.458458	0.571977
55631	-9.225836	-0.584968	1.131931	0.100136	0.725552	-0.528144	-0.524689	-0.433308	-0.459715	0.570621
55632	-9.328490	-0.932690	1.349109	-0.248721	0.480561	-0.356597	-0.523312	-0.435445	-0.460898	0.569303
55633	-9.571401	-0.919508	1.619862	-0.231882	0.204350	-0.066645	-0.522086	-0.437752	-0.461779	0.567943
55634	-9.764273	-0.747616	1.864222	-0.068705	-0.058209	0.155606	-0.521112	-0.440169	-0.462370	0.566486
55635	-10.010577	-0.536912	2.045470	0.132747	-0.247823	0.414950	-0.520416	-0.442231	-0.462948	0.565047
55636	-10.030845	-0.899589	2.172292	-0.253179	-0.409487	0.478763	-0.520019	-0.444041	-0.463593	0.563462
55637	-10.059286	-0.788905	2.113675	-0.167781	-0.393125	0.487618	-0.519887	-0.445848	-0.464083	0.561751
55638	-10.081696	-0.489604	2.091050	0.102576	-0.412776	0.486424	-0.519943	-0.447463	-0.464518	0.560054
55639	-9.980861	-0.499070	1.835291	0.060280	-0.212039	0.345373	-0.520135	-0.448851	-0.464942	0.558409
55640	-9.895371	-0.470452	1.522766	0.058607	0.052768	0.209895	-0.520529	-0.450006	-0.465251	0.556853
55641	-9.679364	-1.043193	1.174656	-0.551253	0.350447	-0.028447	-0.521287	-0.450896	-0.465202	0.555464
55642	-9.620517	-0.645597	1.038449	-0.188879	0.461655	-0.127616	-0.522242	-0.451817	-0.464502	0.554403
55643	-9.600391	-0.053040	0.968187	0.370596	0.524653	-0.184862	-0.523390	-0.452159	-0.463610	0.553788
55644	-9.429183	-0.658271	0.784720	-0.266995	0.703639	-0.357947	-0.524814	-0.451950	-0.462479	0.553555
55645	-9.374093	-0.726255	0.605399	-0.363277	0.903272	-0.441481	-0.526527	-0.451691	-0.460629	0.553684
55646	-9.387782	-0.274550	0.663805	0.057770	0.888198	-0.439645	-0.528552	-0.451163	-0.458156	0.554237
55647	-9.399673	0.134664	0.998960	0.435852	0.615046	-0.389246	-0.530742	-0.450168	-0.455354	0.555260
55648	-9.425416	0.113829	1.266367	0.390896	0.427569	-0.319585	-0.533101	-0.448514	-0.452699	0.556509
55649	-9.543217	-0.155858	1.641971	0.105203	0.161448	-0.129938	-0.535534	-0.446555	-0.450061	0.557887
55650	-9.581100	-0.060814	1.860242	0.184941	0.035019	-0.054322	-0.537839	-0.444647	-0.447421	0.559314
55651	-9.592372	0.080685	2.048302	0.311639	-0.068324	-0.008946	-0.539995	-0.442814	-0.444843	0.560746
55652	-9.629444	0.163832	2.342089	0.383380	-0.271780	0.087671	-0.542048	-0.440837	-0.442641	0.562064
55653	-9.655951	-0.515140	2.481658	-0.302117	-0.324575	0.160496	-0.544014	-0.438892	-0.440855	0.563088
55654	-9.664597	-0.563955	2.467251	-0.362430	-0.245953	0.168177	-0.545756	-0.437769	-0.438796	0.563886
55655	-9.649910	-0.536642	2.593964	-0.357048	-0.319987	0.182676	-0.547488	-0.437021	-0.436868	0.564283
55656	-9.626555	-0.057882	2.933171	0.091629	-0.617626	0.231582	-0.548923	-0.436993	-0.434979	0.564371
55657	-9.661748	-0.262397	2.879977	-0.144511	-0.529521	0.257620	-0.550264	-0.437242	-0.433765	0.563806
55658	-9.754055	-0.413189	3.008145	-0.331511	-0.621238	0.378744	-0.551561	-0.438051	-0.432841	0.562619
55659	-9.771439	-1.140921	2.996720	-1.108871	-0.610756	0.393198	-0.552948	-0.439803	-0.432139	0.560427
55660	-10.201616	-1.371380	3.155319	-1.416604	-0.693595	0.837239	-0.554198	-0.443256	-0.430768	0.557519
55661	-10.578794	-2.413906	3.634832	-2.576510	-1.119625	1.280376	-0.556238	-0.447422	-0.429383	0.553211
55662	-10.886197	-3.049334	4.538835	-3.386091	-2.007772	1.715864	-0.558456	-0.454155	-0.426984	0.547316
55663	-11.489208	-3.813674	6.140227	-4.415807	-3.570277	2.515830	-0.561594	-0.462740	-0.424971	0.538408
55664	-11.646478	-4.872858	6.290725	-5.789930	-3.906455	2.441014	-0.564755	-0.475191	-0.422842	0.525785
55665	-12.094144	-4.592603	5.732629	-5.945760	-3.581958	2.516350	-0.570173	-0.489833	-0.420176	0.508349
55666	-13.093448	-5.109116	4.785455	-7.020136	-2.954830	2.929940	-0.579285	-0.501547	-0.423156	0.483548
55667	-15.813676	-13.224584	-2.163150	-16.176812	3.227307	2.732721	-0.589968	-0.514557	-0.423815	0.455576
55668	-14.156780	-15.609526	-5.582191	-19.027025	5.655943	-0.813396	-0.607678	-0.529798	-0.407682	0.428763
55669	-8.825399	-9.866857	-5.563010	-12.509749	5.543715	-5.472155	-0.623057	-0.551392	-0.375354	0.408506
55670	-18.613192	3.960098	-11.321829	-3.916249	12.885190	7.763004	-0.602390	-0.600153	-0.336533	0.404584
55671	-16.800810	5.540057	-5.139818	-1.854012	6.259674	7.412687	-0.593569	-0.595095	-0.341500	0.420613
55672	-6.846790	-14.576384	-3.186182	-15.647608	4.947812	-9.555870	-0.569923	-0.601487	-0.339584	0.445066
55673	-6.297327	-3.309227	1.487979	-5.556777	-0.343035	-5.142229	-0.532088	-0.622395	-0.325228	0.473004
55674	-5.319396	-3.142928	1.930855	-5.087211	-0.610136	-5.857449	-0.502100	-0.632588	-0.320117	0.495231
55675	-5.861601	-1.607197	1.774440	-3.711774	-0.692497	-4.730304	-0.472138	-0.641278	-0.315325	0.516158
55676	-5.882010	-2.246034	1.668309	-4.108823	-0.276429	-4.766666	-0.446052	-0.644911	-0.312641	0.536082
55677	-6.469024	-1.978831	1.515870	-3.758905	-0.110802	-3.989069	-0.422522	-0.645499	-0.310199	0.555502
55678	-7.128950	-1.522631	1.457372	-3.222282	-0.141686	-3.115424	-0.400982	-0.642552	-0.307646	0.575929
55679	-7.587668	-1.235179	1.661027	-2.844738	-0.349594	-2.489311	-0.380764	-0.635858	-0.305022	0.598051
55680	-7.494859	-1.693856	2.024051	-3.064737	-0.326918	-2.489799	-0.362078	-0.625248	-0.302878	0.621473
55681	-7.674922	-2.488228	2.276957	-3.478060	0.045429	-2.186326	-0.344746	-0.611834	-0.300645	0.645308
55682	-8.731635	-2.714565	2.382214	-3.244390	0.331103	-0.945746	-0.328754	-0.596353	-0.298179	0.668860
55683	-10.211594	-2.900204	2.090743	-2.538907	0.970010	0.657915	-0.313994	-0.578529	-0.296106	0.692122
55684	-11.179414	-3.524739	2.208671	-2.275892	1.538573	1.792629	-0.299795	-0.558589	-0.294324	0.715174
55685	-12.287554	-4.217622	2.284054	-1.833154	2.223625	3.056656	-0.285407	-0.537517	-0.292998	0.737408
55686	-13.627659	-3.998395	1.601089	-0.008666	2.899909	4.179459	-0.270013	-0.516599	-0.290721	0.758749
55687	-14.939858	-0.568875	2.319124	3.346890	0.293080	4.936552	-0.253688	-0.495299	-0.289184	0.778905
55688	-16.188603	1.777048	1.381051	6.957214	-0.569863	4.962744	-0.238506	-0.471418	-0.293597	0.796669
55689	-16.557758	4.316983	0.949673	10.026508	-2.141392	3.915431	-0.225360	-0.444607	-0.304699	0.811601
55690	-15.276068	4.556362	0.399742	10.777592	-2.138684	1.738321	-0.215610	-0.414311	-0.323252	0.823023
55691	-14.263199	0.461840	-1.060666	9.197858	1.631092	1.024811	-0.211097	-0.384975	-0.343847	0.830061
55692	-13.705761	3.633616	-1.334669	11.488173	-0.206621	-1.400040	-0.211602	-0.362669	-0.354320	0.835555
55693	-13.492939	8.936559	-2.112337	15.278407	-2.801526	-4.805924	-0.215385	-0.345043	-0.364925	0.837487
55694	-12.129861	6.955899	-4.209275	14.179865	0.302042	-6.341150	-0.221324	-0.330282	-0.381459	0.834517
55695	-10.962202	0.128610	-7.549916	10.315928	7.264926	-5.572382	-0.231097	-0.322450	-0.393602	0.829275
55696	-10.957495	4.853913	-1.489726	11.087515	-0.067270	-5.027363	-0.244709	-0.322617	-0.393028	0.825569
55697	-8.216200	-11.033203	-5.457873	-0.253061	11.838392	-0.936644	-0.260764	-0.335662	-0.391643	0.816057
55698	-8.468117	-1.464498	8.194314	0.916025	-3.980049	1.323431	-0.267708	-0.372232	-0.317374	0.830090
55699	-3.101100	7.898964	13.737256	0.368311	-14.307230	-2.358080	-0.269260	-0.404940	-0.262191	0.833534
55700	-7.117655	15.227983	10.299321	7.932892	-15.967474	-1.413337	-0.273856	-0.432221	-0.232620	0.827089
55701	-19.398130	2.739465	1.405188	9.704100	1.916364	7.152842	-0.279530	-0.454844	-0.224196	0.815301
55702	-19.227831	10.633795	-1.959492	16.151165	-1.978362	5.079159	-0.276467	-0.474286	-0.214066	0.807957
55703	-12.770901	1.994071	1.921292	5.054688	0.319984	2.233431	-0.279892	-0.477745	-0.224833	0.801792
55704	-9.011689	-1.374149	3.987771	-0.071727	0.500424	0.124277	-0.281087	-0.484042	-0.227528	0.796821
55705	-10.443845	0.427323	2.447482	2.543827	0.437926	0.607634	-0.283187	-0.487203	-0.229194	0.793668
55706	-8.982176	0.363482	4.825073	0.376302	-1.425345	0.282808	-0.283456	-0.490657	-0.230881	0.790950
55707	-9.561339	0.193070	4.078766	0.878111	-0.748880	0.519799	-0.282847	-0.493726	-0.232780	0.788699
55708	-9.477960	-0.417185	3.845564	0.529000	-0.241585	0.407649	-0.282010	-0.496464	-0.235306	0.786527
55709	-9.494850	-0.470043	3.544734	0.649689	-0.069306	0.312080	-0.281539	-0.498596	-0.237568	0.784665
55710	-9.301542	-1.512543	3.334271	-0.025655	0.732902	0.156558	-0.281854	-0.499635	-0.239531	0.783293
55711	-9.154439	-1.367996	3.677429	-0.213740	0.341572	0.139008	-0.282185	-0.500171	-0.240531	0.782525
55712	-9.005925	-1.391014	3.801185	-0.371498	0.228882	0.051398	-0.282425	-0.500723	-0.241240	0.781867
55713	-9.079910	-1.232519	3.563129	-0.098038	0.277595	0.014472	-0.282733	-0.501290	-0.241556	0.781295
55714	-9.092305	-0.820828	3.599434	0.153495	-0.044727	-0.000750	-0.283303	-0.501723	-0.241827	0.780726
55715	-9.039600	-0.913382	3.653298	0.024681	-0.030210	-0.020156	-0.283996	-0.502084	-0.242395	0.780065
55716	-9.064952	-1.092478	3.364019	0.083244	0.290858	-0.086848	-0.284696	-0.502293	-0.242967	0.779498
55717	-8.943575	-1.142122	3.597703	-0.150072	0.140881	-0.107376	-0.285504	-0.502466	-0.243414	0.778951
55718	-8.921266	-1.023771	3.696432	-0.151498	-0.019607	-0.103035	-0.286422	-0.503001	-0.244035	0.778074
55719	-9.015774	-1.022427	3.572505	-0.062218	0.071180	-0.061620	-0.287365	-0.503897	-0.244826	0.776897
55720	-9.043783	-1.069897	3.574095	-0.116455	0.094073	-0.030749	-0.288437	-0.505081	-0.245705	0.775453
55721	-9.077622	-1.011716	3.461209	-0.027809	0.119130	-0.045823	-0.289601	-0.506427	-0.246645	0.773841
55722	-9.057185	-0.996076	3.462812	-0.064442	0.084229	-0.065667	-0.290877	-0.508032	-0.247576	0.772011
55723	-9.058091	-1.056306	3.440077	-0.138513	0.122564	-0.067715	-0.292207	-0.509848	-0.248420	0.770037
55724	-9.005282	-1.222050	3.329263	-0.255691	0.285306	-0.141834	-0.293813	-0.511960	-0.249147	0.767787
55725	-9.249654	-0.840281	3.211846	0.103724	0.131977	0.013278	-0.295610	-0.514149	-0.249664	0.765463
55726	-9.374642	-0.748347	3.150765	0.186114	0.122483	0.103024	-0.297839	-0.515810	-0.250566	0.763184
55727	-9.329710	-0.661885	3.157152	0.177883	0.041016	0.057248	-0.299972	-0.517388	-0.251178	0.761076
55728	-9.470617	-0.384540	3.086583	0.413568	-0.077609	0.146740	-0.302339	-0.518595	-0.252008	0.759040
55729	-9.436621	-0.800034	3.101855	0.051198	0.186933	0.150931	-0.305358	-0.519085	-0.253240	0.757084
55730	-9.285868	-1.239893	3.198386	-0.411267	0.391708	0.070207	-0.308850	-0.519495	-0.254005	0.755128
55731	-9.419913	-1.521161	3.051233	-0.540112	0.730388	0.163946	-0.312794	-0.520080	-0.253801	0.753167
55732	-9.588506	-1.019139	3.142160	-0.232151	0.398470	0.318366	-0.317187	-0.520211	-0.253353	0.751388
55733	-9.531909	-1.110292	3.289218	-0.448829	0.387896	0.314342	-0.321278	-0.519947	-0.252311	0.750183
55734	-9.544329	-1.556862	3.708195	-1.073028	0.435627	0.479409	-0.324439	-0.519735	-0.250598	0.749544
55735	-9.333952	-2.282544	4.010573	-1.915445	0.704494	0.397658	-0.327554	-0.521699	-0.247252	0.747934
55736	-9.289919	-0.620909	5.427124	-1.624283	-1.358264	0.754136	-0.335093	-0.522699	-0.246303	0.744199
55737	-9.070054	-0.822049	5.884525	-2.141771	-1.633835	0.690261	-0.355975	-0.518320	-0.258200	0.733456
55738	-9.846715	-0.923354	3.992761	-0.973990	-0.076146	0.807853	-0.394731	-0.503913	-0.288456	0.712076
55739	-12.818687	-2.125105	-4.498194	2.078558	8.305713	0.941846	-0.443562	-0.475512	-0.333262	0.682698
55740	-12.341463	-6.962150	-6.568631	-3.098728	11.726335	0.015947	-0.491086	-0.443457	-0.368684	0.652881
55741	-14.523314	-4.473034	-6.261834	-1.956387	11.289488	1.964401	-0.531786	-0.422391	-0.386238	0.624187
55742	-13.124069	0.437289	-4.320924	1.433457	8.477273	1.008798	-0.567585	-0.397083	-0.407615	0.594998
55743	-9.237370	-4.394546	-3.181289	-4.300563	6.017769	-2.066039	-0.596023	-0.371350	-0.431381	0.566362
55744	-7.555088	-5.724044	-1.924570	-5.931881	3.610900	-3.083178	-0.617980	-0.352430	-0.451677	0.538407
55745	-8.279421	-2.968882	-0.549297	-3.198780	2.619705	-2.030874	-0.634496	-0.338581	-0.469697	0.512018
55746	-8.919681	-2.336556	-0.024734	-2.606691	2.175597	-1.240456	-0.646576	-0.327471	-0.486509	0.487865
55747	-7.786628	-0.789357	1.468858	-0.654547	0.733698	-1.910610	-0.654845	-0.319002	-0.501132	0.467207
55748	-5.788986	-1.449501	3.253502	-0.437284	-1.813126	-3.276802	-0.660056	-0.313555	-0.512669	0.450754
55749	-4.158760	-0.776323	4.592561	0.911465	-3.241949	-4.554590	-0.663034	-0.313100	-0.519634	0.438561
55750	-18.146538	14.624389	7.337343	14.953393	4.441054	8.993649	-0.663936	-0.314303	-0.521736	0.433814
55751	-1.729571	-18.693131	8.358270	-12.597389	-15.517407	-5.070232	-0.677866	-0.281135	-0.541269	0.410473
55752	-7.388042	5.731980	18.403632	13.777716	-10.181138	1.703996	-0.687287	-0.277689	-0.536065	0.403930
55753	-5.536041	-3.295632	20.151920	7.608526	-16.321677	1.287068	-0.702821	-0.254675	-0.535707	0.392685
55754	-7.551286	-3.628395	12.862842	3.472290	-9.810553	1.471117	-0.711159	-0.243570	-0.532429	0.389161
55755	-11.854648	3.971851	4.248741	4.130881	2.590933	2.458513	-0.711987	-0.243625	-0.527768	0.393932
55756	-9.062768	-1.654504	3.756120	-0.339326	-1.012780	0.078525	-0.714175	-0.233767	-0.528083	0.395519
55757	-8.664001	-2.700268	3.813526	-1.051143	-1.682699	-0.170975	-0.714622	-0.230903	-0.527513	0.397153
55758	-9.199210	-2.095790	3.053639	-1.066050	-0.546891	0.031442	-0.714955	-0.230206	-0.526690	0.398048
55759	-9.274020	-1.609003	2.813320	-0.835760	-0.034531	-0.024360	-0.715524	-0.230165	-0.525404	0.398748
55760	-9.062326	-1.822869	3.522850	-0.595244	-0.739299	0.034044	-0.715923	-0.230845	-0.524002	0.399482
55761	-8.869231	-0.183964	5.128553	1.660579	-1.054871	0.243593	-0.715034	-0.232771	-0.524139	0.399779
55762	-9.741717	2.140600	5.313832	3.584556	0.375334	0.898452	-0.711880	-0.233562	-0.529563	0.397794
55763	-10.262369	1.965240	3.603484	2.545365	1.580232	0.825969	-0.704766	-0.235848	-0.540001	0.395069
55764	-10.238572	1.594143	1.243964	1.069443	2.964288	0.136239	-0.694764	-0.245378	-0.543348	0.402326
55765	-11.720068	5.239352	0.449793	3.772556	5.843915	0.985958	-0.681130	-0.260543	-0.541151	0.418731
55766	-10.632379	5.876921	2.249761	5.667957	4.149861	0.350330	-0.668550	-0.270893	-0.538078	0.436039
55767	-10.267999	6.668204	5.066761	7.989930	1.869135	0.590675	-0.659690	-0.274899	-0.536953	0.448242
55768	-8.013964	6.625542	7.655088	9.352367	-1.045459	-0.971877	-0.658244	-0.270422	-0.541127	0.448072
55769	-8.656503	2.355013	5.934868	4.848501	-1.297561	-0.298964	-0.665123	-0.262899	-0.547091	0.434956
55770	-10.324046	2.407846	5.074540	4.319472	-0.012267	1.117565	-0.677746	-0.261592	-0.546508	0.416604
55771	-9.003053	5.282791	6.848687	7.484839	-0.164488	0.177361	-0.693865	-0.259532	-0.543729	0.394403
55772	-7.137458	1.574567	6.236110	4.039173	-2.065766	-1.343654	-0.711900	-0.252990	-0.541599	0.368597
55773	-7.431040	-2.939848	4.334155	-0.844422	-3.289328	-1.379873	-0.729940	-0.248146	-0.537188	0.342111
55774	-8.853599	1.419983	4.559426	2.113131	-0.334234	0.016037	-0.746951	-0.243407	-0.531187	0.317266
55775	-8.735920	0.290312	3.755018	0.529049	-0.522570	-0.328811	-0.762805	-0.230059	-0.528041	0.293894
55776	-8.302822	-3.364869	2.382364	-2.909256	-2.376594	-1.337893	-0.776533	-0.215282	-0.525190	0.273543
55777	-8.653313	-2.715555	1.609834	-3.208923	-1.417496	-1.295787	-0.787991	-0.203576	-0.521527	0.256196
55778	-8.539477	-1.827554	1.106695	-3.104879	-0.522503	-1.592450	-0.797778	-0.193193	-0.518121	0.240370
55779	-8.461951	-2.329965	0.450920	-3.952873	-0.689033	-1.993828	-0.806506	-0.182562	-0.515909	0.223734
55780	-9.015349	-2.176390	0.276873	-4.275889	-0.529874	-1.595469	-0.814170	-0.171711	-0.515305	0.205189
55781	-10.674915	1.800060	0.156945	-3.119585	3.066634	0.090799	-0.819858	-0.157261	-0.518289	0.185682
55782	-9.804741	-1.911301	-6.272807	-9.718398	2.218631	-3.508119	-0.821279	-0.139902	-0.526880	0.168300
55783	-12.107918	-1.514463	-7.209778	-11.169580	2.871534	-1.575162	-0.817902	-0.127421	-0.538257	0.158364
55784	-14.879602	0.837703	-0.410985	-5.344010	2.729630	3.834959	-0.814388	-0.114871	-0.547537	0.154208
55785	-9.517600	1.792633	3.411330	0.403873	1.775504	0.292298	-0.809825	-0.099266	-0.556987	0.155225
55786	-9.812866	-1.015668	7.200417	2.897975	-1.795371	1.914888	-0.805865	-0.085740	-0.565181	0.154276
55787	-10.797049	-10.785895	0.678687	-6.176013	-8.744649	1.084443	-0.798577	-0.081279	-0.576223	0.153739
55788	-9.436102	-2.628684	4.547669	0.686403	-2.468145	0.678332	-0.790916	-0.083244	-0.586957	0.151670
55789	-10.129548	0.514496	2.565508	0.016112	1.064601	0.594591	-0.781651	-0.087897	-0.598887	0.150438
55790	-10.248517	2.756967	1.378346	-0.050897	3.452856	0.316444	-0.771968	-0.088126	-0.611456	0.149737
55791	-9.849893	0.070538	1.017504	-0.889327	0.949745	0.003683	-0.763236	-0.085419	-0.622500	0.150561
55792	-9.861028	-2.717481	0.652217	-1.876838	-1.561718	0.141370	-0.755721	-0.082759	-0.631749	0.151427
55793	-10.273347	-0.397677	1.278627	-0.386949	0.492986	0.528441	-0.749889	-0.081497	-0.638524	0.152681
55794	-10.291204	-0.719493	1.688739	0.060497	0.083132	0.640343	-0.745308	-0.079730	-0.643610	0.154674
55795	-10.242483	-1.484655	1.488495	-0.235889	-0.551729	0.626039	-0.741693	-0.078258	-0.647471	0.156683
55796	-10.268164	-1.169025	1.422480	-0.102606	-0.202992	0.616742	-0.739224	-0.077568	-0.649928	0.158507
55797	-10.079994	-1.557720	1.489098	-0.089208	-0.594895	0.477510	-0.737749	-0.077542	-0.651215	0.160102
55798	-10.122208	-0.817584	1.538649	0.226418	0.101148	0.455391	-0.736811	-0.078304	-0.651807	0.161635
55799	-9.833614	-0.654079	1.569010	0.352552	0.213820	0.158248	-0.736156	-0.079136	-0.651959	0.163588
55800	-9.857238	-0.545028	1.616004	0.443576	0.315192	0.176184	-0.735447	-0.080016	-0.652103	0.165760
55801	-9.613914	-0.949850	1.289140	0.035092	0.022941	-0.066424	-0.734768	-0.080602	-0.652263	0.167843
55802	-9.435426	-1.388449	1.101341	-0.266382	-0.335209	-0.221823	-0.734316	-0.081264	-0.652226	0.169639
55803	-9.413124	-1.234338	0.909439	-0.387239	-0.120674	-0.284148	-0.733959	-0.082122	-0.652139	0.171099
