// General information: 
//  MT Manager version: 2021.0.0 
//  XDA version: 2021.0.0 build 5908 rev 109668 built on 2021-04-19
// Device information: 
//  DeviceId: 00B43DF4
//  ProductCode: MTW2-3A7G6
//  Firmware Version: 4.3.5
//  Hardware Version: 1.1.0
// Device settings: 
//  Filter Profile: human(46.1)
//  Option Flags: Orientation Smoother Disabled, Position/Velocity Smoother Disabled, Continuous Zero Rotation Update Disabled, AHS Disabled, ICC Disabled
// Coordinate system: ENU
PacketCounter	Acc_X	Acc_Y	Acc_Z	FreeAcc_E	FreeAcc_N	FreeAcc_U	Quat_q0	Quat_q1	Quat_q2	Quat_q3
54636	9.184020	-0.158945	4.422893	0.235574	-0.085353	0.379009	-0.593273	-0.383701	0.377216	-0.598756
54637	9.143683	-0.172138	4.449109	0.251397	-0.117502	0.353636	-0.593386	-0.383561	0.376856	-0.598960
54638	9.117691	-0.185769	4.446246	0.266645	-0.116909	0.328867	-0.593475	-0.383402	0.376486	-0.599207
54639	9.110068	-0.161857	4.429984	0.243762	-0.097534	0.315261	-0.593557	-0.383272	0.376161	-0.599412
54640	9.140182	-0.196317	4.460903	0.280026	-0.104323	0.355490	-0.593604	-0.383157	0.375855	-0.599632
54641	9.161821	-0.173601	4.465002	0.258262	-0.092132	0.377021	-0.593636	-0.383051	0.375561	-0.599852
54642	9.106105	-0.146343	4.422680	0.231109	-0.071822	0.308779	-0.593658	-0.382972	0.375269	-0.600064
54643	9.141235	-0.152165	4.675976	0.243847	-0.277486	0.449555	-0.593735	-0.382811	0.374913	-0.600312
54644	9.115205	-0.110412	4.436298	0.198013	-0.066384	0.323203	-0.593725	-0.382806	0.374617	-0.600509
54645	8.985566	-0.212584	4.337592	0.298626	-0.029015	0.162796	-0.593669	-0.382831	0.374663	-0.600521
54646	9.134110	-0.158306	4.776650	0.250748	-0.363654	0.486744	-0.593596	-0.382627	0.374974	-0.600529
54647	9.073645	-0.263453	4.496191	0.344776	-0.136069	0.310493	-0.593488	-0.382627	0.375054	-0.600585
54648	9.064800	-0.165583	4.371509	0.242856	-0.032003	0.249524	-0.593353	-0.382767	0.375118	-0.600589
54649	9.249920	-0.143667	4.513658	0.222541	-0.082612	0.478008	-0.593267	-0.382723	0.375157	-0.600679
54650	9.247261	-0.210736	4.456207	0.285754	-0.028710	0.450429	-0.593244	-0.382577	0.375114	-0.600821
54651	9.199126	-0.142614	4.414315	0.215298	-0.009282	0.389469	-0.593320	-0.382429	0.374988	-0.600919
54652	9.105954	-0.165100	4.439062	0.238417	-0.066629	0.315967	-0.593391	-0.382299	0.374844	-0.601021
54653	9.073544	-0.183130	4.413432	0.255735	-0.052610	0.275571	-0.593445	-0.382176	0.374710	-0.601130
54654	9.043474	-0.209841	4.512711	0.284779	-0.150835	0.291231	-0.593518	-0.382080	0.374632	-0.601168
54655	9.079023	-0.194171	4.496948	0.268214	-0.118973	0.316617	-0.593586	-0.381963	0.374610	-0.601188
54656	9.103554	-0.201517	4.534505	0.274711	-0.139377	0.355014	-0.593667	-0.381759	0.374635	-0.601223
54657	9.139162	-0.187917	4.518588	0.258145	-0.107514	0.380400	-0.593722	-0.381592	0.374690	-0.601240
54658	9.156664	-0.211196	4.515272	0.279710	-0.094444	0.394644	-0.593791	-0.381484	0.374673	-0.601250
54659	9.217748	-0.156932	4.585872	0.225190	-0.129913	0.480715	-0.593918	-0.381236	0.374706	-0.601262
54660	9.085831	-0.234764	4.530382	0.299861	-0.132637	0.337401	-0.594022	-0.381047	0.374772	-0.601238
54661	9.053676	-0.240740	4.523603	0.304167	-0.138663	0.305526	-0.594138	-0.380904	0.374826	-0.601180
54662	9.071253	-0.157730	4.562909	0.220864	-0.167087	0.338961	-0.594228	-0.380789	0.374890	-0.601124
54663	9.046260	-0.225672	4.514733	0.286735	-0.132512	0.295170	-0.594299	-0.380691	0.374960	-0.601073
54664	9.071283	-0.204853	4.512070	0.264971	-0.120329	0.316687	-0.594363	-0.380662	0.375084	-0.600950
54665	9.104427	-0.213717	4.497284	0.272961	-0.094566	0.340065	-0.594414	-0.380657	0.375234	-0.600809
54666	9.101740	-0.205969	4.529924	0.265337	-0.127829	0.351837	-0.594458	-0.380646	0.375390	-0.600675
54667	9.082781	-0.203060	4.524385	0.261832	-0.134223	0.332342	-0.594494	-0.380671	0.375576	-0.600507
54668	9.093772	-0.214241	4.518220	0.272437	-0.127771	0.339473	-0.594529	-0.380712	0.375795	-0.600310
54669	9.132609	-0.198447	4.495905	0.255874	-0.095916	0.364857	-0.594558	-0.380781	0.376017	-0.600098
54670	9.110125	-0.219378	4.493464	0.276920	-0.108405	0.343359	-0.594568	-0.380883	0.376243	-0.599883
54671	9.118108	-0.207734	4.461764	0.265033	-0.082420	0.336862	-0.594576	-0.381005	0.376470	-0.599655
54672	9.115265	-0.217818	4.483103	0.276198	-0.108716	0.343376	-0.594562	-0.381151	0.376671	-0.599448
54673	9.129056	-0.208582	4.483075	0.268009	-0.109238	0.355762	-0.594540	-0.381338	0.376874	-0.599225
54674	9.145841	-0.193375	4.469148	0.254063	-0.096689	0.364895	-0.594477	-0.381576	0.377062	-0.599017
54675	9.145210	-0.169457	4.438681	0.231224	-0.077311	0.351270	-0.594382	-0.381829	0.377254	-0.598829
54676	9.133846	-0.167423	4.461399	0.231428	-0.110215	0.350656	-0.594277	-0.382110	0.377406	-0.598658
54677	9.153410	-0.146078	4.433822	0.211722	-0.084599	0.356533	-0.594146	-0.382412	0.377532	-0.598516
54678	9.151681	-0.108082	4.425164	0.175856	-0.085259	0.351407	-0.594012	-0.382710	0.377640	-0.598390
54679	9.152997	-0.170107	4.359194	0.239147	-0.031395	0.323914	-0.593845	-0.383066	0.377754	-0.598257
54680	9.137451	-0.131643	4.378305	0.203840	-0.064800	0.318164	-0.593643	-0.383479	0.377914	-0.598091
54681	9.182150	-0.135292	4.375248	0.209756	-0.052492	0.357181	-0.593429	-0.383856	0.378090	-0.597951
54682	9.201088	-0.147230	4.396574	0.224060	-0.072566	0.383199	-0.593209	-0.384227	0.378229	-0.597843
54683	9.198586	-0.142242	4.357509	0.220023	-0.046217	0.364324	-0.592985	-0.384551	0.378324	-0.597797
54684	9.179006	-0.111763	4.473148	0.192629	-0.165389	0.395704	-0.592798	-0.384736	0.378378	-0.597829
54685	9.192478	-0.056434	4.445213	0.137430	-0.140275	0.396436	-0.592529	-0.385059	0.378384	-0.597883
54686	9.058022	-0.220739	4.247760	0.298294	-0.022383	0.189836	-0.592233	-0.385401	0.378605	-0.597816
54687	9.273558	-0.195183	4.597549	0.275735	-0.258837	0.532910	-0.592035	-0.385366	0.379211	-0.597650
54688	9.161124	-0.173693	4.707326	0.249375	-0.415642	0.477129	-0.591852	-0.385370	0.379718	-0.597508
54689	8.942731	-0.121673	4.357792	0.187218	-0.200531	0.132278	-0.591741	-0.385582	0.380080	-0.597251
54690	9.182303	-0.102961	4.433511	0.168598	-0.179562	0.381460	-0.591607	-0.385814	0.380490	-0.596972
54691	9.405924	-0.235095	4.202208	0.293885	0.115230	0.487098	-0.591414	-0.386027	0.380936	-0.596742
54692	9.353396	-0.235689	4.229108	0.293587	0.056781	0.450718	-0.591188	-0.386359	0.381339	-0.596493
54693	9.245313	-0.168427	4.192491	0.225391	0.031446	0.337651	-0.590936	-0.386709	0.381699	-0.596286
54694	9.230097	-0.179719	4.158388	0.234972	0.045088	0.309661	-0.590696	-0.386966	0.382053	-0.596130
54695	9.239603	-0.170647	4.203363	0.225272	-0.001634	0.337036	-0.590532	-0.387169	0.382356	-0.595967
54696	9.358567	-0.066339	4.161992	0.119921	0.073321	0.428875	-0.590412	-0.387485	0.382687	-0.595667
54697	9.417438	-0.043842	4.168773	0.099202	0.078275	0.485504	-0.590277	-0.387900	0.383093	-0.595270
54698	9.373943	-0.176436	4.219243	0.235723	0.002103	0.465851	-0.590114	-0.388398	0.383464	-0.594868
54699	9.303665	-0.241540	4.227638	0.305400	-0.048158	0.404643	-0.589931	-0.388972	0.383752	-0.594488
54700	9.375779	-0.176156	4.268464	0.245005	-0.070588	0.487363	-0.589826	-0.389382	0.384033	-0.594143
54701	9.280808	-0.229958	4.230329	0.302143	-0.087492	0.384518	-0.589646	-0.389944	0.384397	-0.593717
54702	9.312818	-0.322578	4.229333	0.400493	-0.086590	0.412379	-0.589438	-0.390594	0.384522	-0.593416
54703	9.260723	-0.227417	4.290491	0.314044	-0.179491	0.389770	-0.589147	-0.391355	0.384648	-0.593121
54704	9.382836	-0.216112	4.186570	0.307858	-0.050049	0.459332	-0.588793	-0.392083	0.384746	-0.592928
54705	9.339251	-0.239271	4.201321	0.337311	-0.094938	0.424849	-0.588431	-0.392783	0.384890	-0.592731
54706	9.311407	-0.216807	4.236314	0.321350	-0.154131	0.413192	-0.588041	-0.393552	0.385092	-0.592477
54707	9.302459	-0.210153	4.171296	0.319445	-0.114347	0.378704	-0.587584	-0.394373	0.385187	-0.592322
54708	9.362851	-0.202814	4.247145	0.319612	-0.175158	0.463961	-0.587124	-0.395098	0.385314	-0.592212
54709	9.355492	-0.230633	4.315352	0.353739	-0.253789	0.483483	-0.586675	-0.395780	0.385383	-0.592157
54710	9.443147	-0.147978	4.124819	0.271343	-0.058831	0.489349	-0.586184	-0.396524	0.385375	-0.592151
54711	9.407406	-0.204752	4.003745	0.330031	0.028729	0.407950	-0.585695	-0.397212	0.385243	-0.592260
54712	9.370544	-0.225295	4.043147	0.357411	-0.029610	0.389091	-0.585256	-0.397881	0.385001	-0.592402
54713	9.347965	-0.170862	4.148248	0.313248	-0.142316	0.409994	-0.584862	-0.398530	0.384630	-0.592597
54714	9.344293	-0.061964	4.037632	0.209533	-0.051537	0.364520	-0.584328	-0.399402	0.384251	-0.592781
54715	9.490054	-0.060843	4.066057	0.217962	-0.028203	0.509586	-0.583811	-0.400141	0.383906	-0.593016
54716	9.403165	-0.100672	4.253020	0.269890	-0.237076	0.501806	-0.583305	-0.400651	0.383507	-0.593428
54717	9.383118	-0.030223	4.144527	0.198577	-0.152042	0.441988	-0.582688	-0.401255	0.383336	-0.593737
54718	9.327452	0.022753	4.055471	0.143491	-0.099007	0.356793	-0.582069	-0.401721	0.383056	-0.594209
54719	9.219553	-0.032066	4.221312	0.205358	-0.294066	0.321019	-0.581493	-0.402114	0.382765	-0.594694
54720	9.217614	-0.114578	4.232891	0.289647	-0.306018	0.322270	-0.580850	-0.402706	0.382526	-0.595075
54721	9.285102	-0.142912	4.173665	0.319037	-0.234386	0.360625	-0.580017	-0.403678	0.382425	-0.595295
54722	9.298759	-0.096233	4.255161	0.283161	-0.321191	0.404906	-0.579108	-0.404844	0.382160	-0.595557
54723	9.289005	-0.035882	4.052803	0.220781	-0.156828	0.318391	-0.578163	-0.405966	0.381963	-0.595838
54724	9.361385	0.044598	4.209625	0.155077	-0.285089	0.446608	-0.577498	-0.406642	0.381250	-0.596478
54725	9.222612	0.021996	4.092619	0.179495	-0.235560	0.272890	-0.576591	-0.407767	0.380875	-0.596827
54726	9.277446	0.049644	4.155840	0.162912	-0.289886	0.347719	-0.575632	-0.408909	0.380782	-0.597031
54727	9.304213	-0.120424	4.305607	0.346314	-0.419732	0.425722	-0.574723	-0.409656	0.380308	-0.597696
54728	9.153959	-0.319815	3.917892	0.529628	-0.116322	0.134828	-0.573632	-0.411076	0.379732	-0.598136
54729	9.605329	0.026033	3.849012	0.190474	0.079940	0.533094	-0.572357	-0.412743	0.379260	-0.598509
54730	9.530922	0.179154	4.018065	0.060126	-0.125404	0.531203	-0.571317	-0.413723	0.378289	-0.599440
54731	9.525402	0.034704	4.168211	0.223681	-0.254976	0.579301	-0.570391	-0.414597	0.377227	-0.600386
54732	9.244319	-0.108610	3.861902	0.354948	-0.062041	0.199988	-0.569622	-0.415431	0.375918	-0.601360
54733	8.991719	0.029570	3.937051	0.235316	-0.230446	-0.002297	-0.568723	-0.416286	0.374715	-0.602369
54734	8.932074	-0.002643	3.725954	0.258693	-0.057127	-0.138263	-0.567565	-0.417483	0.374016	-0.603066
54735	9.179105	-0.034293	3.644703	0.287902	0.103107	0.058862	-0.566366	-0.418695	0.373568	-0.603631
54736	9.316861	-0.043382	3.757909	0.311898	0.040970	0.228662	-0.565251	-0.419769	0.372940	-0.604319
54737	9.338469	-0.027190	3.679338	0.293887	0.112796	0.219570	-0.564141	-0.420824	0.372271	-0.605034
54738	9.354111	-0.128095	3.690121	0.400101	0.113988	0.235184	-0.562993	-0.421769	0.371433	-0.605959
54739	9.242049	-0.087270	3.716421	0.365973	0.043067	0.142165	-0.561723	-0.422614	0.370550	-0.607089
54740	9.201579	-0.168518	3.781150	0.453399	-0.020929	0.126555	-0.560624	-0.423133	0.369762	-0.608223
54741	9.198210	-0.232922	3.919591	0.532329	-0.138737	0.173397	-0.559707	-0.423724	0.368970	-0.609136
54742	9.132133	-0.095745	3.939134	0.401034	-0.192380	0.123306	-0.558751	-0.424292	0.368120	-0.610132
54743	9.187587	-0.128146	3.847555	0.421147	-0.081153	0.139594	-0.557583	-0.424882	0.367484	-0.611172
54744	9.131908	-0.167333	3.814276	0.454382	-0.066372	0.074555	-0.556367	-0.425511	0.366810	-0.612247
54745	9.213683	-0.081814	3.881493	0.372948	-0.109168	0.177990	-0.555077	-0.426179	0.366287	-0.613266
54746	9.278931	-0.087370	3.966863	0.383955	-0.163420	0.270371	-0.553852	-0.426725	0.365617	-0.614393
54747	9.203456	-0.048217	4.046438	0.354430	-0.268099	0.231320	-0.552714	-0.427292	0.364896	-0.615451
54748	9.230682	0.005797	4.068641	0.300808	-0.282900	0.266442	-0.551734	-0.427669	0.364283	-0.616430
54749	9.381502	-0.101799	4.063940	0.400578	-0.205591	0.401804	-0.550792	-0.428151	0.363702	-0.617281
54750	9.354902	-0.020967	4.143367	0.333893	-0.298639	0.408929	-0.550002	-0.428782	0.363019	-0.617950
54751	9.173640	-0.010202	4.176903	0.339535	-0.400414	0.253428	-0.549224	-0.429611	0.362411	-0.618423
54752	9.320831	-0.027582	3.955030	0.328309	-0.146224	0.306192	-0.548522	-0.430414	0.362133	-0.618650
54753	9.224315	0.068829	3.940980	0.239416	-0.191753	0.213775	-0.548042	-0.431017	0.361976	-0.618746
54754	9.176905	0.042998	3.869640	0.261224	-0.150800	0.142238	-0.547615	-0.431692	0.362091	-0.618587
54755	9.382446	0.028995	3.619359	0.236919	0.141607	0.239909	-0.547128	-0.432368	0.362417	-0.618355
54756	9.523258	0.047599	3.431928	0.188610	0.349161	0.302417	-0.546918	-0.432639	0.362725	-0.618170
54757	9.463696	0.085073	3.474620	0.158607	0.277246	0.264006	-0.547001	-0.432514	0.362885	-0.618090
54758	9.496414	0.005288	3.430076	0.228353	0.343447	0.275783	-0.547191	-0.432280	0.362910	-0.618072
54759	9.366215	-0.013860	3.414421	0.247130	0.319931	0.148286	-0.547426	-0.431915	0.362640	-0.618277
54760	9.397458	-0.015383	3.491838	0.257154	0.272881	0.205535	-0.547723	-0.431445	0.362307	-0.618537
54761	9.391698	-0.009417	3.724057	0.283699	0.074895	0.286152	-0.548099	-0.430861	0.361590	-0.619030
54762	9.357192	-0.072538	3.797626	0.357557	0.023544	0.279678	-0.548432	-0.430431	0.361034	-0.619359
54763	9.301663	0.020177	3.827264	0.272732	-0.023013	0.241882	-0.548711	-0.430143	0.360585	-0.619574
54764	9.356438	0.056883	4.144636	0.280720	-0.288671	0.412871	-0.548954	-0.429801	0.360551	-0.619616
54765	9.251118	-0.165381	3.758546	0.445827	0.066009	0.163989	-0.549282	-0.429440	0.360301	-0.619721
54766	9.422911	-0.128887	3.848903	0.423185	0.054982	0.357848	-0.549881	-0.429318	0.359661	-0.619646
54767	9.232134	0.128808	4.004613	0.206244	-0.182122	0.247635	-0.550288	-0.429234	0.358867	-0.619803
54768	9.269450	-0.028505	3.750931	0.333324	0.102753	0.180876	-0.550752	-0.429119	0.358040	-0.619949
54769	9.384194	0.045116	4.000069	0.305248	-0.072364	0.383744	-0.551361	-0.428950	0.356978	-0.620136
54770	9.299870	0.242374	4.022646	0.127533	-0.132904	0.321119	-0.551910	-0.428788	0.356013	-0.620315
54771	9.297023	0.209972	4.120122	0.183497	-0.198466	0.354959	-0.552444	-0.428503	0.355212	-0.620496
54772	9.267332	0.246258	4.092677	0.152010	-0.172157	0.318518	-0.553029	-0.428232	0.354539	-0.620547
54773	9.260624	0.156801	4.155845	0.258715	-0.203828	0.333557	-0.553567	-0.428104	0.353897	-0.620521
54774	9.277859	0.169215	4.155616	0.255806	-0.184734	0.349834	-0.554047	-0.428018	0.353208	-0.620545
54775	9.271128	0.277729	4.130128	0.154283	-0.166507	0.338044	-0.554617	-0.427861	0.352667	-0.620453
54776	9.376940	0.234579	4.205278	0.214248	-0.174909	0.463006	-0.555172	-0.427670	0.352235	-0.620333
54777	9.318398	0.205061	4.179765	0.247576	-0.160148	0.397997	-0.555592	-0.427542	0.351867	-0.620254
54778	9.248754	0.156518	4.223862	0.309498	-0.210831	0.349237	-0.556099	-0.427339	0.351492	-0.620152
54779	9.274478	0.240178	4.256874	0.237043	-0.232574	0.389485	-0.556602	-0.427134	0.351182	-0.620017
54780	9.279598	0.186416	4.204690	0.287016	-0.166117	0.371375	-0.557016	-0.426903	0.350893	-0.619968
54781	9.159149	0.184888	4.128910	0.282995	-0.137254	0.230876	-0.557413	-0.426740	0.350733	-0.619814
54782	9.272466	0.163727	4.023274	0.290065	0.012129	0.292157	-0.557902	-0.426498	0.350700	-0.619559
54783	9.256245	0.235907	4.136384	0.237857	-0.100892	0.325195	-0.558401	-0.426181	0.350644	-0.619360
54784	9.242417	0.245849	4.157286	0.232353	-0.120731	0.321274	-0.558902	-0.425835	0.350727	-0.619099
54785	9.252908	0.115606	4.238257	0.372386	-0.165481	0.357192	-0.559457	-0.425350	0.350763	-0.618911
54786	9.232265	0.132894	4.154276	0.342594	-0.092958	0.305829	-0.559934	-0.424955	0.350831	-0.618713
54787	9.226566	0.130884	4.018956	0.325456	0.032334	0.246721	-0.560340	-0.424695	0.350915	-0.618476
54788	9.198008	0.082365	4.095364	0.386197	-0.039098	0.248697	-0.560667	-0.424570	0.350931	-0.618256
54789	9.183414	0.079272	4.199701	0.407114	-0.137855	0.276620	-0.560870	-0.424597	0.350900	-0.618071
54790	9.276586	0.121925	4.178431	0.364416	-0.087885	0.355335	-0.561035	-0.424675	0.350970	-0.617828
54791	9.266766	0.111621	4.078584	0.364434	-0.001861	0.305980	-0.561151	-0.424793	0.350961	-0.617646
54792	9.228576	0.147580	4.170647	0.346751	-0.107217	0.309119	-0.561175	-0.425028	0.350859	-0.617520
54793	9.325252	0.189452	4.039922	0.290716	0.041709	0.347575	-0.561196	-0.425232	0.350870	-0.617355
54794	9.242070	0.174725	4.096221	0.317633	-0.042145	0.292893	-0.561228	-0.425339	0.350739	-0.617326
54795	9.228650	0.197514	4.144178	0.304732	-0.095101	0.300636	-0.561227	-0.425475	0.350768	-0.617217
54796	9.217563	0.140565	4.090547	0.357383	-0.047947	0.266290	-0.561090	-0.425865	0.350767	-0.617073
54797	9.246887	0.201005	4.261461	0.326244	-0.201349	0.363677	-0.561048	-0.426032	0.350460	-0.617171
54798	9.202669	0.132419	4.111996	0.376107	-0.074151	0.260456	-0.560989	-0.426140	0.350481	-0.617138
54799	9.235455	0.244315	4.158164	0.271683	-0.122841	0.314244	-0.560766	-0.426353	0.350713	-0.617061
54800	9.269978	0.253113	4.511173	0.310026	-0.440629	0.485708	-0.560427	-0.426552	0.351205	-0.616952
54801	9.197810	-0.078630	4.232283	0.595392	-0.183699	0.293245	-0.560317	-0.426650	0.351770	-0.616662
54802	9.220494	0.157474	4.102248	0.343109	-0.101891	0.274067	-0.560190	-0.427122	0.352267	-0.616167
54803	9.452950	0.234083	4.041322	0.258365	0.023711	0.467294	-0.560089	-0.427265	0.352498	-0.616028
54804	9.289350	0.141904	4.157400	0.366777	-0.136478	0.358005	-0.560151	-0.427173	0.352485	-0.616043
54805	9.243868	0.198174	4.165499	0.311726	-0.169451	0.322098	-0.560304	-0.427082	0.352719	-0.615832
54806	9.272722	0.200260	4.028069	0.289855	-0.038313	0.294900	-0.560286	-0.427221	0.353034	-0.615572
54807	9.320393	0.190466	4.073653	0.304985	-0.065791	0.356054	-0.560209	-0.427279	0.353232	-0.615488
54808	9.140911	0.229468	4.222545	0.286399	-0.280284	0.251020	-0.560203	-0.427200	0.353436	-0.615432
54809	9.196596	0.157709	4.210400	0.351863	-0.241139	0.294130	-0.560278	-0.427064	0.353818	-0.615238
54810	9.241742	0.056926	4.078489	0.430778	-0.095752	0.279506	-0.560254	-0.427158	0.354129	-0.615016
54811	9.258666	0.073955	4.155147	0.424475	-0.169099	0.325598	-0.560123	-0.427410	0.354403	-0.614802
54812	9.310184	0.126077	4.167708	0.373886	-0.177727	0.380145	-0.559955	-0.427634	0.354879	-0.614524
54813	9.388870	0.030634	4.036802	0.448010	-0.026532	0.397414	-0.559838	-0.427770	0.355333	-0.614274
54814	9.338145	0.171799	4.042481	0.308870	-0.080299	0.359346	-0.559707	-0.428062	0.355683	-0.613987
54815	9.427097	0.177452	3.940982	0.288854	0.036262	0.402411	-0.559514	-0.428270	0.355974	-0.613849
54816	9.319474	0.159058	3.959027	0.309166	-0.027210	0.309342	-0.559364	-0.428397	0.356227	-0.613751
54817	9.339209	0.144785	3.876272	0.310152	0.051544	0.295152	-0.559290	-0.428454	0.356516	-0.613611
54818	9.278092	0.195338	3.938507	0.266998	-0.040352	0.265014	-0.559225	-0.428461	0.356736	-0.613537
54819	9.288439	0.197310	3.953924	0.264544	-0.054010	0.280610	-0.559160	-0.428428	0.356921	-0.613512
54820	9.327122	0.120915	3.892236	0.328653	0.025129	0.289327	-0.559095	-0.428360	0.357049	-0.613544
54821	9.305915	0.064336	4.012421	0.398542	-0.086011	0.313392	-0.558991	-0.428326	0.357055	-0.613659
54822	9.326355	0.075071	4.034638	0.388225	-0.100062	0.341332	-0.558841	-0.428312	0.357106	-0.613776
54823	9.338489	0.111628	3.972080	0.340599	-0.041701	0.330266	-0.558764	-0.428195	0.357019	-0.613978
54824	9.321991	0.157390	4.078597	0.307084	-0.147816	0.358010	-0.558693	-0.428065	0.356927	-0.614187
54825	9.306671	0.110888	4.052845	0.346670	-0.120723	0.332125	-0.558685	-0.427881	0.356908	-0.614333
54826	9.289699	0.076758	4.060005	0.378806	-0.126729	0.317885	-0.558671	-0.427769	0.356897	-0.614431
54827	9.328697	0.064353	3.973123	0.377169	-0.028693	0.320000	-0.558668	-0.427692	0.356853	-0.614512
54828	9.278356	0.070892	4.046972	0.380423	-0.113667	0.302314	-0.558631	-0.427638	0.356696	-0.614675
54829	9.297731	0.142352	4.056283	0.310051	-0.121897	0.326865	-0.558537	-0.427654	0.356641	-0.614780
54830	9.305796	0.157284	4.001533	0.287011	-0.069715	0.313892	-0.558450	-0.427654	0.356544	-0.614916
54831	9.343667	0.147080	4.021805	0.298571	-0.070661	0.356212	-0.558339	-0.427652	0.356446	-0.615075
54832	9.317825	0.164665	4.165324	0.301000	-0.209142	0.388516	-0.558282	-0.427590	0.356032	-0.615410
54833	9.286135	0.068288	4.030067	0.378690	-0.081934	0.303057	-0.558168	-0.427686	0.356000	-0.615465
54834	9.273280	0.140724	3.968129	0.298223	-0.043198	0.270406	-0.557966	-0.427849	0.356138	-0.615455
54835	9.354814	0.209076	4.285946	0.270864	-0.316793	0.470885	-0.557700	-0.427932	0.356444	-0.615461
54836	9.260963	-0.079395	3.914745	0.502712	0.019010	0.229418	-0.557563	-0.427931	0.356585	-0.615505
54837	9.309949	0.038510	4.013502	0.399523	-0.069688	0.317483	-0.557554	-0.428119	0.356476	-0.615445
54838	9.380786	0.202295	4.066691	0.246812	-0.113269	0.410047	-0.557454	-0.428258	0.356346	-0.615514
54839	9.333306	0.042453	3.895377	0.383235	0.048149	0.293606	-0.557371	-0.428273	0.356062	-0.615744
54840	9.268835	0.114326	3.985383	0.326919	-0.063740	0.271791	-0.557400	-0.428269	0.355774	-0.615887
54841	9.367985	0.196640	3.857314	0.227651	0.084456	0.317353	-0.557374	-0.428266	0.355599	-0.616013
54842	9.341750	0.166948	3.941911	0.269446	0.006018	0.324481	-0.557339	-0.428174	0.355284	-0.616290
54843	9.267345	0.073605	4.081052	0.382209	-0.129891	0.305668	-0.557411	-0.428009	0.354998	-0.616504
54844	9.261714	0.081338	4.027960	0.367032	-0.077323	0.280366	-0.557422	-0.427892	0.354694	-0.616750
54845	9.245037	0.081264	3.970400	0.359794	-0.024390	0.242725	-0.557406	-0.427848	0.354333	-0.617003
54846	9.285827	0.103999	4.080335	0.354234	-0.105071	0.323881	-0.557417	-0.427848	0.353962	-0.617206
54847	9.296211	0.169516	4.240030	0.314064	-0.251612	0.398296	-0.557328	-0.427941	0.353803	-0.617313
54848	9.256379	0.062120	3.991577	0.386579	-0.025028	0.260397	-0.557274	-0.427990	0.353666	-0.617406
54849	9.275909	0.126041	4.074766	0.336780	-0.099135	0.313459	-0.557272	-0.428035	0.353388	-0.617537
54850	9.319717	0.163336	4.093921	0.304967	-0.100849	0.362813	-0.557195	-0.428157	0.353066	-0.617705
54851	9.345433	0.181203	4.151289	0.298142	-0.141490	0.409555	-0.557230	-0.428170	0.352795	-0.617820
54852	9.287407	0.152369	4.060103	0.316766	-0.073957	0.319330	-0.557276	-0.428215	0.352629	-0.617842
54853	9.277505	0.193166	4.008698	0.271853	-0.034816	0.291963	-0.557246	-0.428328	0.352421	-0.617909
54854	9.281571	0.193957	4.055817	0.280774	-0.074708	0.314031	-0.557165	-0.428469	0.352201	-0.618010
54855	9.276521	0.164337	4.139789	0.325580	-0.147004	0.340691	-0.557142	-0.428585	0.351942	-0.618097
54856	9.286887	0.170484	4.051817	0.310026	-0.061693	0.316115	-0.557143	-0.428702	0.351727	-0.618137
54857	9.270350	0.168813	4.003115	0.308511	-0.021849	0.281725	-0.557152	-0.428831	0.351494	-0.618173
54858	9.253934	0.173728	4.047980	0.314355	-0.067924	0.284252	-0.557140	-0.428965	0.351259	-0.618224
54859	9.296282	0.217343	4.004773	0.267683	-0.016851	0.308299	-0.557145	-0.429067	0.351114	-0.618232
54860	9.336218	0.172776	4.046702	0.320411	-0.030602	0.359186	-0.557206	-0.429091	0.350868	-0.618300
54861	9.318820	0.145249	4.054896	0.352565	-0.036643	0.344971	-0.557272	-0.429145	0.350540	-0.618388
54862	9.285196	0.186828	4.017411	0.310297	-0.016789	0.301303	-0.557320	-0.429202	0.350194	-0.618502
54863	9.267564	0.176061	4.045507	0.329331	-0.042862	0.295456	-0.557371	-0.429262	0.349865	-0.618600
54864	9.213592	0.201202	4.153471	0.325065	-0.160947	0.289318	-0.557407	-0.429312	0.349534	-0.618721
54865	9.241488	0.232920	4.122346	0.291952	-0.122586	0.304270	-0.557408	-0.429389	0.349321	-0.618786
54866	9.314823	0.207419	4.084026	0.313593	-0.051566	0.355263	-0.557402	-0.429446	0.348980	-0.618945
54867	9.216076	0.214934	4.194265	0.327750	-0.188165	0.308147	-0.557387	-0.429598	0.348704	-0.619008
54868	9.230069	0.158797	4.013080	0.359183	-0.009666	0.246890	-0.557348	-0.429756	0.348614	-0.618984
54869	9.255116	0.334248	4.272324	0.226328	-0.263556	0.380495	-0.557174	-0.429926	0.348767	-0.618936
54870	9.335214	0.182288	4.149785	0.354956	-0.105250	0.398242	-0.556956	-0.430013	0.349083	-0.618894
54871	9.331036	0.007834	3.993449	0.503364	0.055341	0.324348	-0.556930	-0.430198	0.349046	-0.618810
54872	9.318983	0.308958	4.096076	0.225671	-0.086989	0.368582	-0.556940	-0.430379	0.348845	-0.618788
54873	9.341094	0.241492	3.915126	0.268095	0.098032	0.314557	-0.556896	-0.430445	0.348529	-0.618959
54874	9.343096	0.217198	4.021717	0.310654	0.012214	0.356785	-0.556960	-0.430348	0.348102	-0.619210
54875	9.267325	0.311303	4.039706	0.222770	-0.040236	0.299098	-0.557070	-0.430241	0.347855	-0.619324
54876	9.253561	0.287675	4.022300	0.243614	-0.020100	0.278412	-0.557157	-0.430040	0.347660	-0.619495
54877	9.148806	0.266731	4.144605	0.282269	-0.162890	0.229391	-0.557243	-0.429780	0.347537	-0.619667
54878	9.168903	0.297159	4.177132	0.253041	-0.183871	0.262414	-0.557271	-0.429499	0.347601	-0.619801
54879	9.210811	0.275005	4.151870	0.266411	-0.138670	0.289910	-0.557297	-0.429335	0.347680	-0.619847
54880	9.299221	0.265915	4.027425	0.254004	0.010977	0.321499	-0.557336	-0.429347	0.347703	-0.619790
54881	9.337350	0.297946	4.177851	0.246532	-0.116007	0.417419	-0.557349	-0.429461	0.347707	-0.619698
54882	9.287333	0.189617	4.123375	0.347592	-0.073984	0.344401	-0.557258	-0.429640	0.347791	-0.619608
54883	9.275901	0.112057	4.218678	0.441389	-0.158744	0.367298	-0.557151	-0.429923	0.347849	-0.619476
54884	9.275219	0.236584	4.122455	0.306307	-0.094364	0.335099	-0.557077	-0.430101	0.347857	-0.619414
54885	9.235141	0.259630	4.134956	0.286770	-0.126882	0.304365	-0.557042	-0.430117	0.347882	-0.619420
54886	9.235886	0.235456	4.021295	0.292381	-0.021163	0.259150	-0.557027	-0.430106	0.347980	-0.619387
54887	9.256785	0.216153	4.003498	0.308358	0.004777	0.270352	-0.557006	-0.430166	0.347984	-0.619362
54888	9.289090	0.220990	4.175188	0.331062	-0.141537	0.367617	-0.556944	-0.430343	0.348067	-0.619247
54889	9.341816	0.155742	4.114894	0.387391	-0.062921	0.388886	-0.556810	-0.430612	0.348291	-0.619056
54890	9.259204	0.195682	3.996191	0.332122	-0.002094	0.268502	-0.556597	-0.430938	0.348457	-0.618927
54891	9.259631	0.191214	4.012785	0.343236	-0.028531	0.274984	-0.556293	-0.431617	0.348723	-0.618577
54892	9.399326	0.247709	3.991335	0.287710	0.026771	0.397892	-0.556270	-0.431852	0.348820	-0.618379
54893	9.315064	0.202444	4.125131	0.359576	-0.129220	0.369754	-0.556003	-0.432478	0.348814	-0.618185
54894	9.317539	0.263531	4.111336	0.304995	-0.136657	0.369520	-0.555751	-0.433145	0.348935	-0.617876
54895	9.212012	0.152463	4.017364	0.410121	-0.093117	0.229559	-0.555355	-0.434122	0.349197	-0.617399
54896	9.289866	0.293866	4.113636	0.296520	-0.195637	0.345250	-0.554900	-0.435294	0.349658	-0.616720
54897	9.185829	0.234109	4.017478	0.352997	-0.172391	0.208287	-0.554328	-0.436684	0.350551	-0.615745
54898	9.295323	0.261948	3.934296	0.323378	-0.102489	0.278648	-0.553461	-0.438379	0.351727	-0.614649
54899	9.294309	0.271078	3.876379	0.314417	-0.095758	0.255869	-0.552813	-0.439633	0.352818	-0.613710
54900	9.304886	0.142166	3.925654	0.456873	-0.160248	0.275786	-0.552089	-0.441030	0.354049	-0.612649
54901	9.403731	0.439604	3.990090	0.177597	-0.265089	0.407015	-0.551574	-0.441832	0.355057	-0.611952
54902	9.164067	0.241591	3.658781	0.319713	-0.045756	0.052444	-0.551092	-0.442259	0.355875	-0.611603
54903	9.115934	0.196917	3.850902	0.390491	-0.255320	0.074211	-0.550728	-0.442669	0.356805	-0.611092
54904	9.492474	0.348386	4.082088	0.270155	-0.378513	0.515699	-0.550459	-0.442865	0.358123	-0.610421
54905	9.685575	0.261997	3.771043	0.299638	-0.039102	0.580020	-0.550156	-0.443287	0.359513	-0.609570
54906	9.811885	0.181446	3.236867	0.294209	0.480037	0.505561	-0.549940	-0.443790	0.360672	-0.608713
54907	9.561404	0.281253	3.444351	0.229349	0.168070	0.350101	-0.549645	-0.444169	0.360571	-0.608764
54908	9.523538	0.335545	3.876915	0.244795	-0.254098	0.469158	-0.549654	-0.444216	0.360380	-0.608834
54909	9.410619	0.456334	3.641669	0.089219	-0.088118	0.287511	-0.549916	-0.443806	0.360231	-0.608985
54910	9.365376	0.328019	3.419875	0.178933	0.131924	0.160475	-0.550115	-0.443323	0.359777	-0.609425
54911	9.363044	0.199508	3.677449	0.343349	-0.071411	0.242511	-0.550321	-0.442914	0.359161	-0.609900
54912	9.242853	0.294454	3.715127	0.255082	-0.149124	0.148833	-0.550502	-0.442646	0.358828	-0.610127
54913	9.232370	0.264007	3.638023	0.272113	-0.069605	0.110149	-0.550449	-0.442514	0.358629	-0.610388
54914	9.296503	0.249869	3.707575	0.295699	-0.104234	0.194071	-0.550190	-0.442629	0.358299	-0.610731
54915	9.371671	0.349177	3.835420	0.217519	-0.206474	0.315029	-0.549932	-0.442747	0.357991	-0.611058
54916	9.494866	0.244518	3.811562	0.316287	-0.122750	0.415957	-0.549650	-0.442854	0.357797	-0.611349
54917	9.474388	0.217902	3.758403	0.333728	-0.075975	0.376520	-0.549420	-0.442968	0.357584	-0.611597
54918	9.443905	0.279030	3.832996	0.285599	-0.161982	0.377958	-0.549333	-0.442982	0.357317	-0.611821
54919	9.452823	0.300322	3.752121	0.251372	-0.083519	0.358562	-0.549215	-0.442947	0.357116	-0.612069
54920	9.439400	0.245162	3.681721	0.292985	-0.010244	0.318033	-0.549084	-0.442846	0.356828	-0.612428
54921	9.332873	0.255168	3.693336	0.283259	-0.054257	0.223506	-0.549005	-0.442689	0.356546	-0.612776
54922	9.346258	0.257014	3.762706	0.289918	-0.107723	0.261085	-0.548918	-0.442569	0.356397	-0.613028
54923	9.380912	0.209679	3.759926	0.333449	-0.081922	0.290016	-0.548805	-0.442505	0.356293	-0.613236
54924	9.289913	0.145469	3.842016	0.409342	-0.178193	0.231486	-0.548718	-0.442508	0.356148	-0.613396
54925	9.308481	0.139083	3.858181	0.417814	-0.185420	0.254277	-0.548568	-0.442617	0.356173	-0.613436
54926	9.406672	0.199068	3.698843	0.331995	-0.017109	0.291571	-0.548302	-0.442867	0.356306	-0.613416
54927	9.375914	0.234546	3.651836	0.289783	0.002898	0.247864	-0.548020	-0.443148	0.356386	-0.613419
54928	9.428740	0.205251	3.736598	0.332636	-0.057646	0.325924	-0.547792	-0.443392	0.356480	-0.613392
54929	9.436095	0.215452	3.688984	0.315401	-0.018503	0.316236	-0.547535	-0.443648	0.356526	-0.613410
54930	9.414731	0.228524	3.729676	0.310218	-0.071095	0.311470	-0.547270	-0.443928	0.356547	-0.613431
54931	9.392902	0.196070	3.699304	0.338929	-0.050547	0.278521	-0.547040	-0.444192	0.356488	-0.613479
54932	9.351453	0.304329	3.760867	0.244277	-0.143273	0.267303	-0.546827	-0.444448	0.356509	-0.613473
54933	9.430095	0.281670	3.683692	0.254618	-0.046105	0.311969	-0.546659	-0.444680	0.356639	-0.613378
54934	9.401927	0.235627	3.708311	0.306042	-0.078032	0.291944	-0.546461	-0.444981	0.356703	-0.613299
54935	9.410543	0.234464	3.626226	0.296387	-0.005781	0.270711	-0.546285	-0.445314	0.356761	-0.613180
54936	9.387846	0.265368	3.823201	0.302143	-0.203723	0.320730	-0.546163	-0.445540	0.356563	-0.613239
54937	9.422303	0.230494	3.739158	0.325307	-0.111941	0.321210	-0.545955	-0.445843	0.356617	-0.613174
54938	9.413781	0.280645	3.709794	0.272959	-0.105834	0.305360	-0.545594	-0.446309	0.356928	-0.612975
54939	9.442703	0.222647	3.821692	0.348551	-0.205033	0.368471	-0.545251	-0.446688	0.357550	-0.612641
54940	9.447635	0.069010	3.681377	0.476292	-0.064990	0.315689	-0.545156	-0.446963	0.358036	-0.612241
54941	9.406781	0.214953	3.588958	0.322080	-0.032640	0.252576	-0.544906	-0.447711	0.358340	-0.611739
54942	9.503103	0.244866	3.518807	0.286826	0.050345	0.319742	-0.544733	-0.448049	0.358226	-0.611712
54943	9.383630	0.196889	3.612284	0.354360	-0.071663	0.237645	-0.544746	-0.448168	0.358051	-0.611716
54944	9.381426	0.210265	3.400530	0.309637	0.119451	0.162723	-0.544766	-0.448386	0.358073	-0.611525
54945	9.463134	0.290458	3.440338	0.240797	0.096541	0.257262	-0.544661	-0.448604	0.357870	-0.611578
54946	9.363779	0.328424	3.694436	0.249095	-0.178789	0.254241	-0.544578	-0.448705	0.357736	-0.611657
54947	9.384414	0.221988	3.640875	0.345951	-0.105775	0.249202	-0.544519	-0.448788	0.357750	-0.611640
54948	9.375501	0.247488	3.673569	0.327179	-0.145612	0.253500	-0.544433	-0.448929	0.357798	-0.611585
54949	9.482304	0.242434	3.515168	0.306658	0.036347	0.298392	-0.544361	-0.449093	0.357726	-0.611570
54950	9.407243	0.329083	3.690592	0.254218	-0.167515	0.293366	-0.544314	-0.449287	0.357651	-0.611513
54951	9.451940	0.285227	3.589769	0.282725	-0.056115	0.297895	-0.544208	-0.449511	0.357817	-0.611346
54952	9.431054	0.194318	3.576028	0.371563	-0.041577	0.268520	-0.544120	-0.449670	0.357896	-0.611262
54953	9.463846	0.289187	3.611723	0.285664	-0.083195	0.316677	-0.544002	-0.449907	0.357989	-0.611138
54954	9.445096	0.276800	3.584169	0.295608	-0.069523	0.288823	-0.543850	-0.450219	0.358186	-0.610928
54955	9.398986	0.264552	3.519599	0.299161	-0.035360	0.222637	-0.543653	-0.450610	0.358619	-0.610560
54956	9.387426	0.253170	3.462558	0.303478	-0.008584	0.191557	-0.543181	-0.451492	0.359698	-0.609694
54957	9.455066	0.236513	3.332717	0.299554	0.108662	0.210268	-0.542783	-0.452063	0.360530	-0.609133
54958	9.403769	0.213262	3.512924	0.353496	-0.094413	0.221408	-0.542441	-0.452579	0.361201	-0.608657
54959	9.363615	0.252835	3.690323	0.345130	-0.304987	0.244523	-0.541954	-0.453332	0.362291	-0.607883
54960	9.607823	0.257022	3.463274	0.301397	-0.040717	0.398975	-0.541686	-0.453704	0.363287	-0.607249
54961	9.365997	0.303798	3.319260	0.227571	-0.008870	0.126116	-0.541632	-0.453538	0.363672	-0.607190
54962	9.334946	0.260173	3.398628	0.277050	-0.087094	0.120854	-0.541574	-0.453231	0.363841	-0.607370
54963	9.476360	0.281571	3.695812	0.297363	-0.315589	0.353516	-0.541519	-0.452899	0.363813	-0.607684
54964	9.741019	0.309120	3.729807	0.268845	-0.263489	0.615772	-0.541480	-0.452831	0.364255	-0.607505
54965	9.721554	0.081403	3.036047	0.376125	0.405574	0.357213	-0.541686	-0.452665	0.364631	-0.607219
54966	9.374850	0.165867	3.402221	0.355410	-0.061819	0.155276	-0.541896	-0.452606	0.364294	-0.607278
54967	9.516042	0.365742	3.586280	0.191967	-0.212893	0.359237	-0.542016	-0.452696	0.364164	-0.607181
54968	9.676045	0.464348	3.761543	0.123600	-0.336951	0.572969	-0.542067	-0.452548	0.364285	-0.607174
54969	9.378192	0.248314	3.170014	0.236800	0.147694	0.085961	-0.541999	-0.452347	0.364422	-0.607303
54970	9.527425	0.156361	3.065439	0.304696	0.316089	0.187333	-0.542047	-0.451955	0.364026	-0.607788
54971	9.457388	0.205677	3.388295	0.306033	0.000219	0.230785	-0.542247	-0.451526	0.363440	-0.608280
54972	9.369464	0.221181	3.260409	0.269641	0.101010	0.106140	-0.542340	-0.451364	0.362965	-0.608600
54973	9.335914	0.173618	3.312257	0.326628	0.055933	0.089366	-0.542161	-0.451510	0.362622	-0.608856
54974	9.333076	0.289480	3.761160	0.287653	-0.380921	0.242589	-0.541868	-0.451749	0.362678	-0.608906
54975	9.405872	0.304761	3.994167	0.308583	-0.581119	0.389457	-0.541626	-0.451801	0.362999	-0.608892
54976	9.477383	0.107877	3.634572	0.436460	-0.198444	0.326970	-0.541670	-0.451537	0.363582	-0.608701
54977	9.513471	0.150212	3.031228	0.288438	0.367434	0.162222	-0.541682	-0.451225	0.363514	-0.608961
54978	9.433480	0.188607	3.483291	0.321533	-0.073455	0.239707	-0.541668	-0.450886	0.362829	-0.609633
54979	9.578905	0.234077	3.841787	0.331802	-0.348683	0.499337	-0.541904	-0.450425	0.362543	-0.609934
54980	9.725120	0.167350	3.216968	0.290610	0.301315	0.423503	-0.542252	-0.450062	0.362481	-0.609930
54981	9.575884	0.182571	3.381986	0.304450	0.106724	0.339387	-0.542438	-0.449828	0.361833	-0.610322
54982	9.403961	0.183739	3.665102	0.352494	-0.199413	0.273798	-0.542696	-0.449468	0.361337	-0.610651
54983	9.295407	0.078521	3.731837	0.468443	-0.268514	0.189604	-0.542964	-0.449172	0.360957	-0.610856
54984	9.293118	0.066230	3.841669	0.499778	-0.361065	0.224479	-0.543339	-0.448956	0.360956	-0.610681
54985	9.293724	0.093105	3.579283	0.432792	-0.117328	0.136793	-0.543849	-0.448754	0.360852	-0.610438
54986	9.456936	0.354741	3.842880	0.219277	-0.342285	0.393289	-0.544217	-0.448538	0.361039	-0.610157
54987	9.478500	0.246185	3.649922	0.292165	-0.143857	0.342037	-0.544607	-0.448241	0.361956	-0.609484
54988	9.559027	0.255041	3.461328	0.246634	0.051763	0.353793	-0.545020	-0.447721	0.362545	-0.609147
54989	9.387700	0.261724	3.698966	0.272406	-0.234629	0.274457	-0.545039	-0.447621	0.363323	-0.608739
54990	9.398889	0.168592	3.552495	0.332479	-0.089014	0.230683	-0.545531	-0.446930	0.364292	-0.608228
54991	9.236913	0.133508	3.597776	0.366168	-0.190363	0.092465	-0.546120	-0.446483	0.365560	-0.607266
54992	9.437299	0.089090	3.589958	0.403988	-0.129224	0.275839	-0.546610	-0.446564	0.367198	-0.605775
54993	9.381698	0.013919	3.587753	0.479212	-0.160098	0.218919	-0.547599	-0.446338	0.368647	-0.604166
54994	9.299421	0.142799	3.813858	0.389454	-0.443113	0.222103	-0.548504	-0.446608	0.370418	-0.602059
54995	9.398963	0.353363	3.720795	0.172252	-0.388249	0.293208	-0.549395	-0.446752	0.372777	-0.599679
54996	9.442729	0.394917	3.720586	0.129582	-0.429226	0.334358	-0.550108	-0.447017	0.376084	-0.596756
54997	9.518077	0.377933	3.422455	0.101875	-0.186573	0.306811	-0.550701	-0.447233	0.379872	-0.593640
54998	9.695888	0.339996	3.004325	0.081903	0.205351	0.341261	-0.551056	-0.447400	0.383116	-0.591095
54999	9.551945	0.383036	3.239895	0.056541	-0.114726	0.280222	-0.551618	-0.447104	0.385700	-0.589111
55000	9.777099	0.248301	2.832790	0.137821	0.316202	0.363703	-0.551939	-0.446955	0.388000	-0.587410
55001	9.653719	0.278165	2.770784	0.091544	0.312353	0.229372	-0.552299	-0.446362	0.389002	-0.586860
55002	9.447668	0.205460	3.265976	0.204637	-0.222917	0.181093	-0.552636	-0.445991	0.390189	-0.586036
55003	9.615864	0.155564	3.114984	0.234372	-0.035614	0.293547	-0.553006	-0.445698	0.391061	-0.585327
55004	9.536365	0.246811	3.148306	0.141200	-0.107245	0.231394	-0.553332	-0.445295	0.391784	-0.584843
55005	9.570769	0.175771	3.127805	0.203584	-0.074732	0.255413	-0.553712	-0.444769	0.392456	-0.584433
55006	9.515886	0.112446	2.947461	0.243409	0.078816	0.146569	-0.553712	-0.444711	0.393121	-0.584030
55007	9.576615	0.022203	3.085917	0.343945	-0.034359	0.242931	-0.553715	-0.444732	0.393407	-0.583819
55008	9.538613	0.131840	3.133415	0.237899	-0.100648	0.224946	-0.553849	-0.444543	0.393328	-0.583888
55009	9.502615	0.112540	3.175668	0.259391	-0.145993	0.202732	-0.553943	-0.444365	0.393318	-0.583942
55010	9.555804	0.122696	3.214809	0.249571	-0.167605	0.265659	-0.554133	-0.444030	0.393810	-0.583685
55011	9.580916	0.202347	3.103684	0.152776	-0.063770	0.259072	-0.553992	-0.443770	0.394195	-0.583757
55012	9.442833	-0.008280	3.444718	0.383892	-0.414790	0.222940	-0.553967	-0.443504	0.394680	-0.583654
55013	9.552445	0.011239	2.882147	0.311700	0.142893	0.159199	-0.553771	-0.443871	0.395000	-0.583345
55014	9.673523	0.153706	3.202896	0.201131	-0.145724	0.375419	-0.553522	-0.444169	0.394976	-0.583371
55015	9.624172	0.146407	3.009453	0.191904	0.020404	0.270253	-0.553381	-0.444326	0.394919	-0.583424
55016	9.544044	0.173879	3.027788	0.166316	-0.024169	0.200217	-0.553302	-0.444397	0.394829	-0.583506
55017	9.582992	0.154103	3.009144	0.185247	0.007756	0.231119	-0.553142	-0.444527	0.394610	-0.583706
55018	9.591715	0.083220	3.096648	0.265245	-0.064654	0.263155	-0.553000	-0.444658	0.394322	-0.583935
55019	9.564496	0.116510	3.046909	0.228405	-0.024894	0.223449	-0.552969	-0.444655	0.394069	-0.584137
55020	9.599939	0.155163	3.020655	0.187421	0.013108	0.250709	-0.552914	-0.444545	0.393768	-0.584476
55021	9.558676	0.054097	3.225062	0.306282	-0.176570	0.269339	-0.552831	-0.444496	0.393303	-0.584906
55022	9.593399	0.160980	3.159685	0.194084	-0.106267	0.286513	-0.552707	-0.444510	0.392975	-0.585232
55023	9.584570	0.100152	3.084881	0.246823	-0.026487	0.253537	-0.552457	-0.444543	0.392545	-0.585732
55024	9.609268	0.076412	3.119582	0.271781	-0.040537	0.286825	-0.552199	-0.444439	0.391960	-0.586445
55025	9.652131	0.166641	2.996375	0.166896	0.095649	0.293382	-0.551885	-0.444300	0.391082	-0.587431
55026	9.688039	0.248866	3.046143	0.086137	0.073637	0.345369	-0.551521	-0.444027	0.389807	-0.588826
55027	9.716350	0.275821	2.997618	0.047093	0.157919	0.357954	-0.551202	-0.443363	0.388236	-0.590659
55028	9.575893	0.336627	3.053230	-0.019885	0.100977	0.243277	-0.551065	-0.442155	0.386298	-0.592958
55029	9.580865	0.320658	3.047794	-0.020688	0.166241	0.244969	-0.551001	-0.440690	0.384165	-0.595489
55030	9.494012	0.189183	3.253264	0.116186	0.023634	0.224309	-0.551033	-0.439067	0.381737	-0.598213
55031	9.443430	0.019957	3.548798	0.303700	-0.179184	0.269371	-0.551174	-0.437405	0.378981	-0.601048
55032	9.361808	-0.028336	3.721137	0.361316	-0.289809	0.250919	-0.551370	-0.435890	0.376490	-0.603528
55033	9.277003	-0.122323	3.713824	0.446306	-0.241234	0.167925	-0.551350	-0.434877	0.374527	-0.605495
55034	9.387306	-0.129260	3.723693	0.447178	-0.165671	0.275750	-0.551108	-0.434289	0.372769	-0.607221
55035	9.469823	-0.078972	3.816751	0.405657	-0.188933	0.387851	-0.550901	-0.433842	0.370897	-0.608872
55036	9.312063	-0.051032	3.841677	0.384482	-0.231705	0.250809	-0.550918	-0.433313	0.369141	-0.610298
55037	9.226876	-0.058591	3.841390	0.396488	-0.229775	0.171546	-0.550806	-0.433235	0.367865	-0.611225
55038	9.291557	-0.110121	3.655059	0.426621	-0.006704	0.163410	-0.550609	-0.433325	0.366685	-0.612047
55039	9.455973	-0.010143	3.687787	0.333832	0.027155	0.331429	-0.550373	-0.433405	0.365604	-0.612849
55040	9.343996	0.109409	3.889157	0.248237	-0.195957	0.304017	-0.550210	-0.433248	0.364482	-0.613774
55041	9.262572	0.155528	3.982478	0.218402	-0.300268	0.264102	-0.549942	-0.433218	0.363677	-0.614511
55042	9.313008	0.090388	3.861051	0.265765	-0.149428	0.264765	-0.549636	-0.433318	0.362999	-0.615116
55043	9.375184	0.075771	3.707335	0.258554	0.027207	0.265832	-0.549408	-0.433366	0.362274	-0.615713
55044	9.448892	0.124331	3.836713	0.228483	-0.054993	0.383495	-0.549358	-0.433087	0.361278	-0.616538
55045	9.096648	0.108500	4.092923	0.290146	-0.395931	0.150836	-0.549374	-0.432778	0.360221	-0.617359
55046	9.220109	0.070684	4.033019	0.317701	-0.280363	0.242217	-0.549151	-0.433057	0.360195	-0.617377
55047	9.291081	0.235830	4.019626	0.149838	-0.270751	0.308649	-0.548879	-0.433130	0.360417	-0.617438
55048	9.395418	0.122710	3.882023	0.233163	-0.094488	0.350764	-0.548525	-0.433099	0.360689	-0.617615
55049	9.470928	-0.088263	3.763381	0.416699	0.070208	0.370177	-0.548355	-0.433074	0.360772	-0.617736
55050	9.386873	0.169115	3.847148	0.175022	-0.075291	0.331584	-0.548209	-0.433140	0.360593	-0.617923
55051	9.355759	0.064294	3.774192	0.268375	-0.001098	0.272295	-0.548157	-0.433075	0.360350	-0.618157
55052	9.239793	-0.025933	3.817381	0.367885	-0.063469	0.177681	-0.548216	-0.433018	0.359904	-0.618405
55053	9.270471	0.144340	3.866822	0.208628	-0.118918	0.230077	-0.548052	-0.433223	0.359760	-0.618490
55054	9.341323	0.120780	3.762551	0.215962	0.004780	0.256327	-0.547801	-0.433435	0.359666	-0.618618
55055	9.389558	0.049202	3.890688	0.305276	-0.082289	0.346235	-0.547721	-0.433397	0.359357	-0.618894
55056	9.220171	0.057592	3.993600	0.318083	-0.236541	0.227561	-0.547644	-0.433505	0.359092	-0.619042
55057	9.340593	0.005971	3.978685	0.368183	-0.173605	0.331816	-0.547405	-0.434027	0.359116	-0.618873
55058	9.439863	0.047289	3.823445	0.307357	-0.011460	0.367557	-0.547173	-0.434598	0.359258	-0.618595
55059	9.417614	0.085477	3.817116	0.274318	-0.031031	0.345704	-0.546923	-0.435058	0.359412	-0.618404
55060	9.418602	0.005699	3.710858	0.340742	0.068581	0.304612	-0.546660	-0.435515	0.359530	-0.618245
55061	9.478098	0.063443	3.753542	0.293245	0.033205	0.377521	-0.546425	-0.435981	0.359580	-0.618096
55062	9.456202	0.134124	3.787803	0.233627	-0.026395	0.372100	-0.546132	-0.436454	0.359668	-0.617970
55063	9.356002	0.136289	3.870234	0.249933	-0.149372	0.308937	-0.545796	-0.436903	0.359834	-0.617852
55064	9.385806	0.093363	3.640413	0.257856	0.068262	0.251284	-0.545485	-0.437319	0.360052	-0.617706
55065	9.401686	0.106055	3.623510	0.244241	0.080734	0.260376	-0.545394	-0.437497	0.360033	-0.617671
55066	9.255593	0.203381	3.868926	0.191530	-0.213725	0.216949	-0.545430	-0.437507	0.359966	-0.617672
55067	9.421259	0.267767	3.786038	0.110756	-0.086997	0.343398	-0.545412	-0.437451	0.360054	-0.617675
55068	9.437210	0.107183	3.689356	0.253450	0.032557	0.317390	-0.545272	-0.437563	0.359877	-0.617824
55069	9.502472	-0.020701	3.668100	0.378600	0.097577	0.365696	-0.545167	-0.437865	0.359421	-0.617968
55070	9.424099	0.046383	3.902384	0.359094	-0.152246	0.380068	-0.545150	-0.438150	0.358824	-0.618128
55071	9.185870	0.174528	4.144234	0.283280	-0.477312	0.250973	-0.545083	-0.438345	0.358510	-0.618230
55072	9.240475	0.149554	3.976919	0.284191	-0.300342	0.239858	-0.544895	-0.438640	0.358380	-0.618262
55073	9.308599	0.004592	3.810639	0.404791	-0.102984	0.237016	-0.544597	-0.439186	0.358016	-0.618348
55074	9.508803	-0.154850	3.870875	0.578970	-0.061360	0.438459	-0.544324	-0.439963	0.357274	-0.618465
55075	9.339347	-0.059153	4.119294	0.547651	-0.368135	0.373578	-0.544093	-0.441032	0.356475	-0.618368
55076	9.028745	0.193545	4.148952	0.329775	-0.559454	0.104354	-0.543689	-0.442235	0.356281	-0.617976
55077	9.306018	0.363115	3.777714	0.108093	-0.165184	0.235494	-0.543134	-0.443196	0.356580	-0.617604
55078	9.538221	0.296832	3.488568	0.125883	0.179124	0.345459	-0.542554	-0.443805	0.356491	-0.617727
55079	9.480337	0.132900	3.846505	0.352652	-0.148824	0.411966	-0.541994	-0.444275	0.356063	-0.618127
55080	9.440515	0.029974	3.675185	0.428392	0.005043	0.308955	-0.541510	-0.444845	0.356141	-0.618097
55081	9.369241	0.243935	3.700922	0.224180	-0.093775	0.261038	-0.541031	-0.445277	0.356607	-0.617936
55082	9.420006	0.327975	3.685055	0.132184	-0.089333	0.306514	-0.540501	-0.445374	0.357166	-0.618007
55083	9.274947	0.017586	3.531481	0.405171	0.042527	0.103477	-0.540015	-0.445417	0.357555	-0.618177
55084	9.421571	0.316630	3.732743	0.135312	-0.149240	0.324326	-0.539783	-0.445427	0.357977	-0.618127
55085	9.426021	0.366431	3.573555	0.051725	-0.017726	0.274504	-0.539547	-0.445342	0.358511	-0.618086
55086	9.322809	0.112644	3.716079	0.320999	-0.145453	0.217891	-0.539373	-0.445137	0.358568	-0.618352
55087	9.356714	0.062126	3.845468	0.388116	-0.245539	0.293185	-0.539048	-0.445329	0.358651	-0.618448
55088	9.448495	0.014377	3.582877	0.388263	0.029729	0.284819	-0.538725	-0.445764	0.358708	-0.618384
55089	9.465726	-0.011748	3.600248	0.421094	0.016097	0.305825	-0.538419	-0.446298	0.358626	-0.618313
55090	9.428651	-0.009970	3.678246	0.440628	-0.075546	0.298158	-0.538138	-0.446842	0.358394	-0.618299
55091	9.293357	0.031001	3.739875	0.420655	-0.191088	0.194342	-0.537781	-0.447320	0.358108	-0.618430
55092	9.407935	-0.003765	3.696838	0.448480	-0.108450	0.284984	-0.537454	-0.447640	0.357944	-0.618577
55093	9.498559	-0.017592	3.610436	0.445517	0.001250	0.339145	-0.537227	-0.447826	0.358039	-0.618585
55094	9.460438	-0.070707	3.484788	0.475710	0.108385	0.257595	-0.536979	-0.448004	0.358075	-0.618650
55095	9.347851	-0.002271	3.708425	0.449943	-0.153517	0.232646	-0.536569	-0.448256	0.358116	-0.618800
55096	9.332105	0.199366	3.562085	0.222204	-0.068686	0.175419	-0.535854	-0.448614	0.358410	-0.618990
55097	9.413180	0.263962	3.410237	0.120698	0.073840	0.201667	-0.534912	-0.448886	0.358953	-0.619292
55098	9.487837	0.252749	3.465350	0.124928	0.031912	0.290525	-0.533643	-0.449208	0.359766	-0.619683
55099	9.492042	0.239149	3.641481	0.151591	-0.153357	0.354408	-0.532223	-0.449650	0.360982	-0.619875
55100	9.579110	0.205061	3.561258	0.148796	-0.076385	0.407678	-0.531098	-0.450006	0.362471	-0.619713
55101	9.384168	0.054000	3.688907	0.310811	-0.254874	0.262627	-0.530397	-0.449998	0.362987	-0.620017
55102	9.140288	0.062698	3.793620	0.316963	-0.446323	0.068641	-0.529623	-0.450110	0.363483	-0.620307
55103	9.223299	0.068910	2.924724	0.135755	0.370706	-0.144589	-0.528853	-0.450054	0.364247	-0.620556
55104	9.404507	-0.258838	2.631813	0.378527	0.750536	-0.079673	-0.528075	-0.449708	0.365069	-0.620987
55105	9.685243	-0.264447	2.417230	0.311226	1.045955	0.113335	-0.527757	-0.448736	0.365051	-0.621970
55106	9.198891	0.402660	3.449051	-0.154978	-0.154173	0.017345	-0.528407	-0.446926	0.362970	-0.623936
55107	8.822075	0.205232	4.163785	0.166416	-0.843748	-0.093207	-0.529645	-0.444332	0.362077	-0.625256
55108	9.064264	-0.219013	3.538796	0.429820	-0.062344	-0.089358	-0.530491	-0.441988	0.362452	-0.625983
55109	9.644116	-0.462307	3.021346	0.511454	0.694845	0.267320	-0.531392	-0.439041	0.363007	-0.626971
55110	9.557825	0.210211	3.156003	-0.162064	0.467842	0.242711	-0.532682	-0.435945	0.362683	-0.628222
55111	9.627250	-0.113407	3.915617	0.246831	-0.076237	0.577764	-0.534746	-0.432288	0.361713	-0.629553
55112	8.782235	-0.481721	4.726274	0.759517	-0.970575	0.095771	-0.537230	-0.428219	0.359634	-0.631407
55113	9.089783	-0.804273	4.569331	1.013069	-0.595329	0.324818	-0.537809	-0.427066	0.359529	-0.631755
55114	9.399152	-0.517573	3.591276	0.539361	0.373473	0.241107	-0.537878	-0.426232	0.360168	-0.631896
55115	9.855233	-0.140310	4.170578	0.209467	-0.033645	0.887495	-0.538245	-0.424546	0.360562	-0.632493
55116	8.885400	-0.323944	4.923861	0.541341	-1.017636	0.285369	-0.539357	-0.422138	0.359641	-0.633680
55117	8.742982	-0.104358	4.541259	0.262622	-0.730301	0.009295	-0.539419	-0.421996	0.359284	-0.633926
55118	8.919722	0.101012	4.523861	0.043937	-0.670822	0.166542	-0.539520	-0.421530	0.359033	-0.634292
55119	9.390008	0.014828	4.214973	0.042286	-0.188243	0.478145	-0.539456	-0.421085	0.359415	-0.634425
55120	9.380379	0.182389	4.205505	-0.137710	-0.202452	0.465983	-0.540103	-0.419816	0.359663	-0.634575
55121	9.391785	0.486503	4.299186	-0.435665	-0.317556	0.513718	-0.540874	-0.418915	0.359835	-0.634417
55122	9.331452	0.302782	4.136759	-0.278440	-0.149618	0.394198	-0.541446	-0.418409	0.359574	-0.634411
55123	9.391519	-0.162780	4.247007	0.196087	-0.136361	0.492998	-0.541452	-0.418402	0.358847	-0.634822
55124	9.029262	-0.544007	4.442463	0.623206	-0.375613	0.238655	-0.541108	-0.417923	0.358052	-0.635878
55125	9.189004	-0.635553	4.297114	0.668941	-0.155213	0.328088	-0.540179	-0.417799	0.358096	-0.636724
55126	9.354500	-0.274981	3.878273	0.222138	0.222104	0.312754	-0.539311	-0.417836	0.358647	-0.637125
55127	9.381628	0.595353	4.039061	-0.626245	-0.068266	0.399392	-0.538639	-0.417787	0.358828	-0.637624
55128	9.010496	0.220226	3.962116	-0.253968	-0.081815	0.029299	-0.538050	-0.417564	0.358835	-0.638263
55129	9.373644	-0.238401	3.928837	0.148723	0.167231	0.351350	-0.536959	-0.417360	0.359263	-0.639074
55130	10.030612	-0.624043	3.607906	0.398888	0.764646	0.830415	-0.535318	-0.417273	0.360676	-0.639712
55131	9.908919	-0.234670	3.924341	0.034466	0.335592	0.842272	-0.533746	-0.416826	0.362397	-0.640343
55132	9.561068	0.344381	4.129693	-0.513193	-0.120227	0.594471	-0.532442	-0.416755	0.364532	-0.640263
55133	9.417661	0.357496	4.156697	-0.536222	-0.241798	0.470897	-0.531677	-0.416977	0.366564	-0.639594
55134	9.520355	0.110312	4.134210	-0.320616	-0.177668	0.560670	-0.531341	-0.417256	0.368382	-0.638645
55135	9.499696	-0.270963	4.151239	0.049166	-0.168774	0.556472	-0.531313	-0.417334	0.370022	-0.637670
55136	9.526144	-0.713605	4.088947	0.464532	-0.055123	0.567932	-0.531369	-0.417286	0.371493	-0.636798
55137	9.442074	-0.896457	4.073451	0.639911	-0.065119	0.489528	-0.531425	-0.417084	0.372793	-0.636124
55138	9.365765	-0.895494	4.060091	0.633408	-0.102733	0.414336	-0.531375	-0.416991	0.374060	-0.635483
55139	9.287502	-0.877304	3.912101	0.592408	-0.021059	0.285850	-0.531178	-0.417071	0.375189	-0.634929
55140	9.289788	-0.852482	4.006919	0.574480	-0.133914	0.323104	-0.530697	-0.417472	0.376127	-0.634513
55141	9.230339	-0.879660	3.786649	0.570860	0.026948	0.186563	-0.530101	-0.417951	0.377006	-0.634174
55142	9.303552	-0.898765	3.529243	0.543782	0.269680	0.159822	-0.529523	-0.418517	0.377743	-0.633845
55143	9.372113	-0.827022	3.388251	0.444970	0.392804	0.169717	-0.529211	-0.418814	0.378382	-0.633528
55144	9.497422	-0.777173	3.454391	0.392648	0.355351	0.309436	-0.529086	-0.419060	0.378766	-0.633240
55145	9.384165	-0.655126	3.796958	0.330205	-0.025947	0.326293	-0.529292	-0.418951	0.378940	-0.633036
55146	9.315915	-0.712938	3.509148	0.355475	0.221203	0.158941	-0.529424	-0.419074	0.379048	-0.632780
55147	9.286973	-0.599317	3.834644	0.293717	-0.109865	0.247790	-0.529603	-0.419095	0.379177	-0.632539
55148	9.194185	-0.581070	4.264581	0.344116	-0.544512	0.318573	-0.529736	-0.419080	0.379398	-0.632304
55149	9.247695	-0.730504	3.834861	0.431479	-0.108642	0.215357	-0.529652	-0.419439	0.379169	-0.632274
55150	9.359310	-0.647587	3.960649	0.365958	-0.198890	0.362248	-0.529348	-0.420090	0.378602	-0.632435
55151	9.422828	-0.656724	4.028377	0.388920	-0.234238	0.446098	-0.528895	-0.420646	0.377745	-0.632958
55152	9.444261	-0.800735	3.986596	0.532178	-0.155040	0.454782	-0.528367	-0.421172	0.376558	-0.633756
55153	9.473736	-0.737530	3.787862	0.448090	0.042057	0.406947	-0.527894	-0.421661	0.375211	-0.634623
55154	9.430565	-0.630624	3.559963	0.322100	0.234560	0.279279	-0.527433	-0.422098	0.373778	-0.635560
55155	9.355762	-0.660497	3.539968	0.364068	0.249914	0.202444	-0.527065	-0.422486	0.372289	-0.636482
55156	9.301379	-0.693400	3.521977	0.409093	0.271321	0.145212	-0.526807	-0.422935	0.370860	-0.637231
55157	9.294727	-0.719282	3.571588	0.455507	0.244805	0.157173	-0.526642	-0.423425	0.369544	-0.637806
55158	9.332464	-0.678781	3.458934	0.407962	0.368938	0.148100	-0.526472	-0.423957	0.368261	-0.638335
55159	9.424921	-0.430256	3.722338	0.210693	0.132616	0.326742	-0.526447	-0.424215	0.367035	-0.638890
55160	9.416918	-0.181268	3.834142	-0.005773	-0.001281	0.356471	-0.526483	-0.424256	0.366043	-0.639402
55161	9.352466	-0.081583	3.965285	-0.070364	-0.145856	0.344700	-0.526659	-0.424111	0.365173	-0.639850
55162	9.428196	0.069383	3.996749	-0.216345	-0.156114	0.424425	-0.526942	-0.423765	0.364390	-0.640293
55163	9.415532	0.030976	4.064546	-0.164353	-0.195822	0.439549	-0.527340	-0.423325	0.363738	-0.640627
55164	9.306584	-0.025804	4.187212	-0.077318	-0.318403	0.387240	-0.527886	-0.422817	0.363216	-0.640809
55165	9.269533	-0.030681	4.088928	-0.084696	-0.225045	0.315821	-0.528448	-0.422310	0.362828	-0.640900
55166	9.324671	-0.151085	4.163708	0.041430	-0.233379	0.397727	-0.529072	-0.421712	0.362504	-0.640963
55167	9.332511	-0.333895	4.171587	0.220513	-0.186841	0.411100	-0.529662	-0.421065	0.362184	-0.641082
55168	9.261676	-0.445032	4.165456	0.333615	-0.171321	0.345416	-0.530175	-0.420524	0.361823	-0.641216
55169	9.264497	-0.552576	4.095912	0.427571	-0.072011	0.322633	-0.530644	-0.420063	0.361415	-0.641360
55170	9.207446	-0.586641	3.954903	0.443795	0.055508	0.215393	-0.531094	-0.419645	0.360933	-0.641533
55171	9.151395	-0.653837	3.989614	0.522109	0.030641	0.178258	-0.531525	-0.419252	0.360403	-0.641731
55172	9.155283	-0.597219	4.091847	0.485012	-0.056378	0.221288	-0.531919	-0.418940	0.359986	-0.641842
55173	9.094925	-0.475616	4.147230	0.381630	-0.141620	0.186197	-0.532251	-0.418700	0.359755	-0.641853
55174	9.172491	-0.345835	4.152025	0.249141	-0.131953	0.257765	-0.532542	-0.418429	0.359612	-0.641869
55175	9.249616	-0.174539	4.074030	0.061217	-0.056173	0.295561	-0.532766	-0.418185	0.359507	-0.641901
55176	9.278007	-0.094496	4.426130	0.035993	-0.369594	0.460728	-0.532996	-0.417827	0.359281	-0.642069
55177	9.210923	-0.148831	4.132432	0.044967	-0.115534	0.283098	-0.533012	-0.417702	0.359385	-0.642079
55178	9.077125	-0.185996	4.051983	0.075098	-0.091427	0.128809	-0.532877	-0.417602	0.359841	-0.642001
55179	9.173801	-0.232911	4.377817	0.156123	-0.346743	0.347703	-0.532673	-0.417318	0.360522	-0.641973
55180	9.068044	-0.495314	4.156489	0.377685	-0.150000	0.166591	-0.532235	-0.417416	0.361056	-0.641972
55181	9.205518	-0.549811	4.114698	0.408181	-0.061652	0.277118	-0.531650	-0.417885	0.361367	-0.641976
55182	9.418378	-0.505650	3.986078	0.324323	0.116584	0.421157	-0.531128	-0.418287	0.361569	-0.642034
55183	9.560978	-0.567788	4.113352	0.392409	0.058924	0.603497	-0.530828	-0.418518	0.361713	-0.642050
55184	9.469120	-0.532596	3.992403	0.346341	0.121184	0.470918	-0.530738	-0.418675	0.361792	-0.641977
55185	9.359923	-0.471749	3.875757	0.278439	0.170625	0.323661	-0.530755	-0.418755	0.361842	-0.641883
55186	9.267105	-0.401268	3.963759	0.232295	0.040420	0.271758	-0.530809	-0.418761	0.361956	-0.641770
55187	9.122558	-0.284923	4.113746	0.153878	-0.174510	0.195859	-0.530951	-0.418645	0.362246	-0.641565
55188	9.090760	-0.171831	4.145485	0.047834	-0.240655	0.177122	-0.531125	-0.418503	0.362768	-0.641217
55189	9.082833	-0.236290	4.123919	0.104341	-0.220466	0.162326	-0.531216	-0.418404	0.363438	-0.640828
55190	9.199439	-0.233193	4.245767	0.104108	-0.297501	0.317033	-0.531242	-0.418228	0.364265	-0.640452
55191	9.324035	-0.383705	4.148980	0.218104	-0.148605	0.396584	-0.531170	-0.418154	0.365172	-0.640043
55192	9.353037	-0.468490	4.155206	0.291756	-0.142770	0.427381	-0.531090	-0.418055	0.366047	-0.639674
55193	9.452454	-0.476525	4.071523	0.269838	-0.040241	0.486770	-0.530998	-0.417929	0.366763	-0.639422
55194	9.458020	-0.511773	3.997574	0.285057	0.025802	0.464214	-0.530862	-0.417825	0.367292	-0.639300
55195	9.329613	-0.535553	3.980245	0.310681	-0.009946	0.339860	-0.530700	-0.417761	0.367691	-0.639247
55196	9.252403	-0.597425	3.994522	0.375267	-0.047151	0.275773	-0.530535	-0.417734	0.368019	-0.639213
55197	9.180625	-0.613140	3.959488	0.387572	-0.044996	0.196565	-0.530349	-0.417766	0.368275	-0.639199
55198	9.190336	-0.628937	3.954069	0.398345	-0.038917	0.203914	-0.530086	-0.417882	0.368451	-0.639239
55199	9.227342	-0.676726	3.930227	0.436322	-0.000427	0.230126	-0.529759	-0.418088	0.368566	-0.639309
55200	9.249261	-0.683618	3.928011	0.439126	0.005203	0.249747	-0.529290	-0.418375	0.368615	-0.639482
55201	9.197650	-0.620321	3.957878	0.384549	-0.059977	0.212026	-0.528632	-0.418835	0.368675	-0.639691
55202	9.176106	-0.595188	4.027585	0.371411	-0.145793	0.218135	-0.527808	-0.419422	0.368693	-0.639976
55203	9.207104	-0.548827	4.062900	0.328563	-0.187051	0.258865	-0.526816	-0.420224	0.368688	-0.640270
55204	9.237869	-0.637174	4.034365	0.409952	-0.147995	0.278414	-0.525706	-0.421190	0.368587	-0.640606
55205	9.300795	-0.662000	3.947943	0.417532	-0.057346	0.304211	-0.524458	-0.422281	0.368473	-0.640975
55206	9.421167	-0.629782	4.020713	0.389644	-0.101433	0.442019	-0.523164	-0.423372	0.368235	-0.641451
55207	9.360098	-0.527043	3.956263	0.287561	-0.099954	0.358277	-0.521799	-0.424547	0.367961	-0.641943
55208	9.255684	-0.628486	3.870263	0.385930	-0.056305	0.231689	-0.520421	-0.425693	0.367784	-0.642404
55209	9.369481	-0.593128	4.015723	0.367041	-0.173094	0.390268	-0.519066	-0.426757	0.367823	-0.642772
55210	9.320717	-0.710296	3.888863	0.465284	-0.071495	0.300765	-0.517651	-0.427905	0.367831	-0.643145
55211	9.234348	-0.724181	3.731277	0.462391	0.024145	0.162564	-0.516161	-0.429252	0.367663	-0.643540
55212	9.281126	-0.549344	3.814716	0.306288	-0.091003	0.231765	-0.514607	-0.430583	0.367427	-0.644031
55213	9.310261	-0.654673	3.764880	0.400952	-0.031918	0.243260	-0.513029	-0.431882	0.367148	-0.644578
55214	9.382455	-0.735287	3.758539	0.474747	-0.000968	0.310174	-0.511470	-0.433170	0.366803	-0.645149
55215	9.375720	-0.603490	3.750541	0.349597	-0.041263	0.297255	-0.509879	-0.434507	0.366418	-0.645728
55216	9.295105	-0.600363	3.856102	0.379920	-0.184414	0.259579	-0.508169	-0.435894	0.366125	-0.646308
55217	9.262593	-0.467269	3.809469	0.248445	-0.203808	0.208426	-0.506464	-0.437308	0.365948	-0.646791
55218	9.329983	-0.432989	3.818038	0.213817	-0.219546	0.272922	-0.504682	-0.438756	0.365771	-0.647303
55219	9.480972	-0.640114	3.810491	0.402485	-0.137642	0.416556	-0.502762	-0.440388	0.365477	-0.647854
55220	9.577533	-0.693743	3.641116	0.414624	0.038110	0.448635	-0.500800	-0.442093	0.365056	-0.648450
55221	9.642316	-0.654038	3.574704	0.359931	0.088707	0.485035	-0.498925	-0.443588	0.364659	-0.649098
55222	9.677119	-0.701270	3.480177	0.383379	0.180270	0.486368	-0.497239	-0.444798	0.364193	-0.649824
55223	9.561636	-0.679087	3.545226	0.391076	0.064743	0.399929	-0.495701	-0.445936	0.363634	-0.650532
55224	9.442564	-0.565163	3.537298	0.294653	-0.004763	0.282215	-0.494418	-0.446823	0.363073	-0.651213
55225	9.340051	-0.560001	3.518209	0.298661	-0.027992	0.179208	-0.493345	-0.447571	0.362549	-0.651805
55226	9.261074	-0.554418	3.473504	0.294318	-0.018898	0.089490	-0.492500	-0.448236	0.362087	-0.652244
55227	9.321903	-0.445822	3.461909	0.183115	-0.021709	0.139571	-0.491803	-0.448830	0.361747	-0.652549
55228	9.404524	-0.472934	3.328477	0.171012	0.127640	0.172399	-0.491202	-0.449369	0.361552	-0.652739
55229	9.470849	-0.366718	3.374106	0.074294	0.071737	0.247402	-0.490735	-0.449818	0.361582	-0.652765
55230	9.508288	-0.423347	3.527358	0.163238	-0.048507	0.336205	-0.490296	-0.450221	0.361565	-0.652827
55231	9.480498	-0.414057	3.636844	0.185904	-0.166893	0.346816	-0.489917	-0.450608	0.361602	-0.652823
55232	9.419551	-0.488755	3.655000	0.272130	-0.191165	0.297468	-0.489618	-0.451031	0.361687	-0.652708
55233	9.373766	-0.516628	3.635912	0.303811	-0.189688	0.248424	-0.489470	-0.451412	0.361838	-0.652472
55234	9.359686	-0.577328	3.646513	0.371432	-0.195740	0.240064	-0.489363	-0.451787	0.361933	-0.652240
55235	9.411339	-0.559270	3.616767	0.346875	-0.164664	0.277884	-0.489259	-0.452211	0.361983	-0.651996
55236	9.438903	-0.594913	3.696887	0.404730	-0.225097	0.331242	-0.489198	-0.452622	0.361856	-0.651827
55237	9.374132	-0.655974	3.551198	0.445466	-0.103606	0.222574	-0.489032	-0.453360	0.361777	-0.651483
55238	9.332665	-0.713466	3.285589	0.452364	0.129641	0.095960	-0.488891	-0.454082	0.361834	-0.651054
55239	9.545184	-0.507925	3.533066	0.299704	-0.096972	0.373177	-0.488846	-0.454447	0.362256	-0.650599
55240	9.546261	-0.586827	3.345093	0.332372	0.081902	0.313907	-0.488688	-0.454765	0.362791	-0.650196
55241	9.372228	-0.541189	3.301405	0.300291	0.041164	0.134118	-0.488398	-0.455313	0.363064	-0.649878
55242	9.301162	-0.463222	3.525218	0.293974	-0.221420	0.138086	-0.487995	-0.456044	0.363370	-0.649497
55243	9.283641	-0.490727	3.456319	0.311698	-0.174360	0.099192	-0.487534	-0.456746	0.363749	-0.649138
55244	9.284225	-0.526375	3.403659	0.337866	-0.134557	0.083095	-0.487035	-0.457425	0.364111	-0.648832
55245	9.387021	-0.453746	3.198614	0.211171	0.046752	0.112351	-0.486543	-0.458149	0.364438	-0.648506
55246	9.591879	-0.453045	3.233134	0.202565	0.059557	0.317364	-0.486021	-0.458872	0.364681	-0.648250
55247	9.756539	-0.529387	3.268155	0.272336	0.080695	0.486362	-0.485527	-0.459554	0.364959	-0.647981
55248	9.794493	-0.562709	3.280548	0.308137	0.072859	0.527063	-0.485100	-0.460159	0.365290	-0.647685
55249	9.656346	-0.619187	3.286710	0.383029	0.024831	0.399243	-0.484648	-0.460765	0.365617	-0.647407
55250	9.590690	-0.609288	3.249805	0.376590	0.020317	0.324943	-0.484218	-0.461464	0.365843	-0.647103
55251	9.573520	-0.505783	3.303744	0.298386	-0.078844	0.322773	-0.483816	-0.462108	0.366192	-0.646747
55252	9.521524	-0.472863	3.302515	0.276198	-0.117001	0.271937	-0.483538	-0.462541	0.366510	-0.646465
55253	9.495842	-0.385370	3.254806	0.185786	-0.116678	0.230477	-0.483449	-0.462842	0.366878	-0.646107
55254	9.552827	-0.399842	3.188581	0.180033	-0.045982	0.264459	-0.483503	-0.463048	0.367276	-0.645693
55255	9.557407	-0.433913	3.190452	0.215342	-0.046150	0.270110	-0.483633	-0.463149	0.367679	-0.645294
55256	9.434991	-0.434087	3.303668	0.258993	-0.194198	0.188159	-0.483817	-0.463265	0.368147	-0.644806
55257	9.367980	-0.473765	3.238372	0.290151	-0.152226	0.105134	-0.484022	-0.463338	0.368666	-0.644303
55258	9.470527	-0.563498	3.168108	0.349908	-0.043104	0.183363	-0.484151	-0.463395	0.369126	-0.643901
55259	9.535743	-0.662368	3.139725	0.431534	0.021024	0.239195	-0.484217	-0.463388	0.369459	-0.643666
55260	9.463411	-0.659536	3.142865	0.436284	-0.009799	0.171214	-0.484187	-0.463446	0.369816	-0.643442
55261	9.437581	-0.619069	3.243540	0.423598	-0.128314	0.176098	-0.484082	-0.463531	0.370183	-0.643248
55262	9.467402	-0.553774	3.233520	0.353091	-0.136466	0.199841	-0.483959	-0.463589	0.370621	-0.643047
55263	9.491371	-0.598052	3.237915	0.391303	-0.130699	0.225125	-0.483862	-0.463586	0.371086	-0.642854
55264	9.515243	-0.691782	3.219907	0.472700	-0.091644	0.244866	-0.483753	-0.463728	0.371494	-0.642598
55265	9.574926	-0.726774	3.196896	0.494634	-0.054066	0.295723	-0.483597	-0.463947	0.371827	-0.642364
55266	9.630475	-0.641969	3.383710	0.453792	-0.241636	0.402171	-0.483424	-0.464176	0.372003	-0.642227
55267	9.692405	-0.645839	3.247081	0.420110	-0.105122	0.420386	-0.483134	-0.464585	0.372090	-0.642099
55268	9.750831	-0.803904	3.072764	0.527170	0.104921	0.428305	-0.482685	-0.465093	0.372106	-0.642060
55269	9.984969	-0.778499	3.238290	0.520233	0.004003	0.700235	-0.482351	-0.465264	0.372137	-0.642168
55270	10.046313	-0.755496	2.993789	0.430955	0.239455	0.685831	-0.481967	-0.465519	0.371753	-0.642495
55271	10.064658	-0.547608	2.968023	0.224295	0.217768	0.690105	-0.481648	-0.465760	0.371043	-0.642970
55272	9.975148	-0.334654	2.952990	0.027617	0.160083	0.594489	-0.481472	-0.465847	0.370177	-0.643538
55273	9.772614	-0.325206	2.904583	0.030447	0.160042	0.386321	-0.481505	-0.465812	0.369303	-0.644040
55274	9.667000	-0.282408	2.781998	-0.026458	0.249060	0.247501	-0.481772	-0.465680	0.368357	-0.644477
55275	9.686690	-0.219808	2.778203	-0.083618	0.260949	0.263203	-0.482175	-0.465532	0.367380	-0.644841
55276	9.593146	-0.258370	2.990272	0.023578	0.072206	0.238736	-0.482653	-0.465263	0.366335	-0.645272
55277	9.537135	-0.277278	3.003818	0.055505	0.073774	0.189721	-0.483368	-0.464699	0.365464	-0.645636
55278	9.540859	-0.239602	2.960168	0.008539	0.132492	0.178823	-0.484339	-0.463752	0.364756	-0.645990
55279	9.463132	-0.272178	2.920261	0.034164	0.187665	0.092683	-0.485509	-0.462445	0.364080	-0.646429
55280	9.389964	-0.061629	3.167832	-0.105231	-0.082525	0.096519	-0.486807	-0.460966	0.363556	-0.646804
55281	9.409994	-0.037265	3.146494	-0.143707	-0.031037	0.108407	-0.488119	-0.459593	0.363330	-0.646920
55282	9.441877	-0.217828	3.185137	0.030409	0.020930	0.154265	-0.489489	-0.458261	0.363069	-0.646976
55283	9.513599	-0.305791	3.268046	0.123936	0.018196	0.250436	-0.490788	-0.457076	0.362836	-0.646961
55284	9.321727	-0.300358	3.329212	0.149383	-0.074811	0.088854	-0.491927	-0.456040	0.362736	-0.646883
55285	9.189698	-0.328977	3.116525	0.137347	0.101638	-0.104840	-0.492871	-0.455359	0.362870	-0.646569
55286	9.210345	-0.385381	3.192530	0.208717	0.061085	-0.059538	-0.493639	-0.454932	0.363080	-0.646165
55287	9.249457	-0.385444	3.104824	0.188866	0.152132	-0.051431	-0.494273	-0.454999	0.363599	-0.645342
55288	8.987912	-0.372207	2.997087	0.185374	0.148057	-0.333907	-0.494748	-0.455492	0.364924	-0.643880
55289	8.740663	-0.391770	2.842461	0.206272	0.170381	-0.617021	-0.494585	-0.457261	0.367614	-0.641216
55290	9.163575	-0.498754	2.699932	0.263204	0.361861	-0.257168	-0.493692	-0.460651	0.371786	-0.637059
55291	9.752620	-0.342202	2.743149	0.098472	0.347946	0.317664	-0.493103	-0.463070	0.374910	-0.633923
55292	9.811936	-0.490384	3.274522	0.379679	-0.181834	0.534255	-0.492481	-0.465123	0.377637	-0.631279
55293	10.030528	-0.491752	3.190860	0.362200	-0.129342	0.717569	-0.491612	-0.467235	0.380379	-0.628746
55294	10.146370	-0.704202	2.190636	0.350170	0.819583	0.553079	-0.491296	-0.468179	0.381961	-0.627329
55295	9.584011	-0.751490	2.831318	0.591132	0.052986	0.191417	-0.491088	-0.468811	0.382175	-0.626890
55296	9.451646	-0.588762	3.370823	0.571227	-0.537963	0.208638	-0.491086	-0.469319	0.382403	-0.626372
55297	9.562098	-0.569164	3.093996	0.493234	-0.271058	0.237868	-0.491049	-0.470114	0.382887	-0.625509
55298	9.862305	-0.448313	3.398194	0.428486	-0.520039	0.606513	-0.491441	-0.470150	0.383250	-0.624951
55299	9.868858	-0.464900	3.424796	0.450423	-0.540305	0.620189	-0.492166	-0.469544	0.383636	-0.624599
55300	9.847968	-0.456750	2.866521	0.319253	-0.018026	0.449173	-0.492869	-0.468903	0.383896	-0.624367
55301	9.799244	-0.419571	3.009276	0.314717	-0.168843	0.440576	-0.493411	-0.468460	0.384309	-0.624017
55302	9.709885	-0.438763	3.087467	0.355377	-0.265025	0.376047	-0.493604	-0.468417	0.384857	-0.623560
55303	9.652205	-0.366397	2.628148	0.189752	0.126280	0.195036	-0.493781	-0.468257	0.385512	-0.623134
55304	9.579427	-0.324102	2.570064	0.136778	0.148165	0.108756	-0.494140	-0.467723	0.386059	-0.622912
55305	9.500654	-0.179498	2.878838	0.057640	-0.193702	0.114120	-0.494677	-0.466917	0.386772	-0.622648
55306	9.402091	-0.103837	2.821497	-0.033652	-0.177784	0.002514	-0.495267	-0.465825	0.387480	-0.622557
55307	9.352334	-0.353211	3.042082	0.242347	-0.334029	0.019648	-0.496027	-0.464484	0.388037	-0.622607
55308	9.470550	-0.491785	2.906050	0.325990	-0.133233	0.099641	-0.496629	-0.463446	0.388416	-0.622663
55309	9.631173	-0.466886	2.953458	0.286914	-0.126314	0.267098	-0.497154	-0.462480	0.388342	-0.623009
55310	9.674372	-0.533060	2.996628	0.344504	-0.121515	0.322593	-0.497723	-0.461314	0.388241	-0.623482
55311	10.008343	-0.522772	2.985435	0.287147	0.011302	0.640552	-0.498789	-0.459209	0.387647	-0.624553
55312	10.072836	-0.614743	2.872239	0.323994	0.213359	0.672480	-0.500260	-0.456394	0.386592	-0.626092
55313	10.006775	-0.591420	2.367257	0.181649	0.737056	0.459236	-0.502083	-0.453244	0.385332	-0.627695
55314	10.053138	-0.530158	2.262642	0.071455	0.919372	0.464234	-0.504314	-0.449697	0.383841	-0.629370
55315	9.690353	-0.720306	2.739054	0.352325	0.501648	0.264391	-0.506814	-0.445810	0.381946	-0.631276
55316	9.431186	-0.569416	3.170160	0.280446	0.085231	0.148978	-0.509140	-0.442149	0.380404	-0.632909
55317	9.197855	-0.587478	3.381849	0.328866	-0.093208	-0.001214	-0.511506	-0.438295	0.379061	-0.634486
55318	9.079311	-0.649549	3.840398	0.448815	-0.454806	0.046084	-0.514058	-0.434113	0.377735	-0.636087
55319	8.921472	-0.732168	4.255743	0.581675	-0.788664	0.050330	-0.516424	-0.430254	0.376676	-0.637419
55320	9.034798	-0.675083	4.216970	0.481049	-0.661828	0.147057	-0.517955	-0.427934	0.376180	-0.638031
55321	9.171203	-0.521941	4.043382	0.270585	-0.442841	0.210429	-0.519074	-0.426119	0.375844	-0.638534
55322	9.261908	-0.565927	3.915939	0.269564	-0.254484	0.252117	-0.519876	-0.424760	0.375593	-0.638935
55323	9.363413	-0.655188	3.920761	0.338093	-0.185659	0.352269	-0.520434	-0.423935	0.375517	-0.639073
55324	9.460355	-0.641675	3.619315	0.262043	0.135386	0.332385	-0.520844	-0.423419	0.375425	-0.639135
55325	9.226566	-0.589890	3.693064	0.244497	-0.015803	0.140010	-0.521154	-0.423128	0.375328	-0.639132
55326	9.125869	-0.572415	3.285308	0.174041	0.319488	-0.103412	-0.521249	-0.423269	0.375588	-0.638808
55327	9.245297	-0.580417	3.555718	0.213091	0.109074	0.106900	-0.521407	-0.423165	0.376023	-0.638492
55328	9.069104	-0.581518	4.019619	0.303513	-0.388968	0.112065	-0.521407	-0.423393	0.376677	-0.637956
55329	8.858916	-0.638448	3.723630	0.339518	-0.201734	-0.189933	-0.521181	-0.424387	0.377377	-0.637066
55330	9.131273	-0.500639	3.443068	0.145852	0.093201	-0.042560	-0.520628	-0.425848	0.378340	-0.635971
55331	9.501959	-0.550777	3.886725	0.240540	-0.218771	0.463077	-0.520181	-0.427073	0.379503	-0.634821
55332	9.343713	-0.491229	3.837990	0.200975	-0.292243	0.294254	-0.519260	-0.429050	0.381377	-0.633116
55333	9.709955	-0.510673	3.239526	0.105694	0.318295	0.430633	-0.518138	-0.431187	0.383411	-0.631354
55334	9.901165	-0.579689	3.491638	0.207944	0.099642	0.699557	-0.517223	-0.432835	0.384406	-0.630371
55335	9.800278	-0.605342	3.749727	0.294139	-0.207962	0.691716	-0.516752	-0.433927	0.385120	-0.629570
55336	9.688022	-0.573186	3.327954	0.218432	0.107785	0.444122	-0.516234	-0.435275	0.385918	-0.628574
55337	9.855579	-0.396784	3.452128	0.066295	-0.024699	0.637283	-0.515295	-0.437152	0.386345	-0.627779
55338	9.514023	-0.511928	3.655387	0.258557	-0.329715	0.383633	-0.514880	-0.438181	0.386311	-0.627423
55339	9.307583	-0.426745	3.726987	0.214059	-0.488180	0.208266	-0.514771	-0.438583	0.386327	-0.627223
55340	9.253389	-0.550332	3.006790	0.228161	0.183289	-0.071886	-0.514812	-0.438689	0.386492	-0.627012
55341	9.137421	-0.648063	3.150968	0.358957	0.028602	-0.132223	-0.515030	-0.438598	0.386523	-0.626878
55342	9.229465	-0.547033	3.240377	0.268090	-0.048272	-0.019419	-0.515146	-0.438759	0.386930	-0.626418
55343	9.369919	-0.453499	3.094069	0.145506	0.098551	0.063718	-0.514883	-0.439514	0.387621	-0.625678
55344	9.276291	-0.466887	3.307645	0.209438	-0.156308	0.043259	-0.514238	-0.440798	0.388318	-0.624873
55345	9.272229	-0.511975	3.403882	0.283932	-0.281627	0.069751	-0.513160	-0.442861	0.389276	-0.623703
55346	9.552656	-0.519986	3.412336	0.289302	-0.264955	0.336860	-0.511771	-0.445423	0.390816	-0.622054
55347	9.938516	-0.486447	3.230763	0.215023	-0.060204	0.646673	-0.510342	-0.447893	0.392482	-0.620404
55348	10.031438	-0.478434	3.303979	0.227749	-0.175689	0.755746	-0.509212	-0.449912	0.394221	-0.618767
55349	9.852156	-0.320667	3.220532	0.084385	-0.235433	0.554418	-0.508431	-0.451347	0.395597	-0.617484
55350	9.780105	-0.403198	2.503242	0.060976	0.389719	0.283029	-0.507659	-0.452537	0.396861	-0.616437
55351	9.476019	-0.526391	2.905234	0.276950	-0.081702	0.108452	-0.507009	-0.453433	0.396981	-0.616236
55352	9.249158	-0.468427	3.512606	0.345846	-0.748422	0.057720	-0.506311	-0.454573	0.397213	-0.615820
55353	9.251803	-0.260040	3.325208	0.118565	-0.630124	0.001045	-0.505826	-0.455424	0.397587	-0.615348
55354	9.345727	-0.238818	3.248295	0.083311	-0.547797	0.068812	-0.505526	-0.455777	0.397360	-0.615479
55355	9.473832	-0.247185	3.074171	0.052854	-0.347719	0.144291	-0.505736	-0.455485	0.397560	-0.615394
55356	9.771562	-0.390676	2.374346	0.048937	0.422029	0.241817	-0.505932	-0.454956	0.397941	-0.615378
55357	9.627208	-0.514733	2.405049	0.178315	0.381044	0.114817	-0.506068	-0.454406	0.398109	-0.615564
55358	9.734488	-0.565010	2.961102	0.306471	-0.106070	0.372716	-0.506094	-0.454369	0.398287	-0.615455
55359	9.716891	-0.378000	2.825693	0.103940	-0.026810	0.313212	-0.505796	-0.455010	0.398728	-0.614941
55360	9.702148	-0.443845	2.427302	0.111139	0.337736	0.192012	-0.505278	-0.455954	0.399088	-0.614433
55361	9.589106	-0.498038	2.485573	0.192292	0.236186	0.101153	-0.504501	-0.457285	0.399493	-0.613819
55362	9.690430	-0.441683	2.802827	0.193389	-0.078604	0.282445	-0.503692	-0.458578	0.399895	-0.613257
55363	9.547280	-0.339014	3.434031	0.219542	-0.761408	0.308085	-0.502898	-0.459767	0.400198	-0.612820
55364	9.621104	-0.423168	3.544301	0.324437	-0.856404	0.408274	-0.502372	-0.460632	0.400579	-0.612353
55365	9.495241	-0.400708	3.042210	0.231954	-0.435312	0.153851	-0.502004	-0.461257	0.400994	-0.611913
55366	9.587552	-0.335107	2.429482	0.061555	0.142813	0.082343	-0.501833	-0.461751	0.401255	-0.611510
55367	9.597019	-0.156123	2.535677	-0.095138	0.002802	0.114434	-0.502204	-0.461453	0.401842	-0.611044
55368	9.557030	-0.205677	2.623522	-0.032284	-0.088377	0.099584	-0.502486	-0.461153	0.402683	-0.610485
55369	9.555790	-0.190166	2.749529	-0.031226	-0.227403	0.129971	-0.502330	-0.461287	0.403854	-0.609739
55370	9.224064	-0.448501	2.660871	0.228877	-0.214293	-0.207155	-0.501708	-0.462172	0.405815	-0.608276
55371	9.023495	-0.490007	1.964804	0.172555	0.342121	-0.572742	-0.500569	-0.464055	0.409114	-0.605564
55372	9.402853	-0.556481	1.923665	0.216925	0.381615	-0.209042	-0.498795	-0.467104	0.412728	-0.602224
55373	9.807239	-0.267282	2.111648	-0.046387	0.128507	0.221888	-0.496789	-0.470332	0.415711	-0.599310
55374	10.418542	-0.244945	2.275211	-0.063402	-0.005874	0.853982	-0.495081	-0.472957	0.417874	-0.597149
55375	10.363810	-0.540606	1.769568	0.160620	0.459246	0.703747	-0.495000	-0.473349	0.419176	-0.595993
55376	10.099166	-0.633143	1.722690	0.263870	0.455801	0.438376	-0.495292	-0.473188	0.418893	-0.596077
55377	9.648657	-0.567851	2.433804	0.341489	-0.313674	0.143585	-0.496140	-0.472394	0.418196	-0.596491
55378	9.568482	-0.456258	3.236307	0.363350	-1.097124	0.232309	-0.496960	-0.471688	0.417596	-0.596787
55379	9.571232	-0.386279	2.080090	0.111943	0.024228	-0.011089	-0.497625	-0.470991	0.417746	-0.596678
55380	9.719444	-0.648918	1.582222	0.280367	0.593539	0.034200	-0.497859	-0.470434	0.417135	-0.597350
55381	9.816655	-0.650503	3.217757	0.522583	-0.922691	0.483869	-0.498422	-0.469061	0.415278	-0.599251
55382	9.979984	-0.257249	4.273505	0.271269	-1.895530	0.876641	-0.500336	-0.465954	0.413718	-0.601155
55383	9.995026	-0.243982	3.322932	0.078328	-0.900180	0.684214	-0.502336	-0.462595	0.413168	-0.602459
55384	10.122953	-0.402175	2.229513	0.026472	0.283738	0.556726	-0.504365	-0.458982	0.412085	-0.604266
55385	10.057155	-0.522211	2.342197	0.135067	0.272088	0.522291	-0.506221	-0.455522	0.410080	-0.606692
55386	9.853442	-0.527580	2.528871	0.153275	0.146146	0.371517	-0.508110	-0.451943	0.407808	-0.609315
55387	9.490559	-0.396694	2.394392	0.004392	0.250842	-0.019950	-0.509434	-0.449053	0.406199	-0.611417
55388	9.748266	-0.542445	2.446729	0.107133	0.372672	0.245065	-0.511039	-0.445752	0.404662	-0.613509
55389	9.529616	-0.579874	2.828263	0.184002	0.055215	0.142756	-0.513459	-0.441422	0.402486	-0.616045
55390	9.052864	-0.695957	3.218894	0.364913	-0.338484	-0.192305	-0.514755	-0.438705	0.400807	-0.617995
55391	9.332393	-0.613407	3.178785	0.233324	-0.171685	0.061032	-0.515559	-0.436769	0.399836	-0.619324
55392	9.348485	-0.493216	3.118798	0.083069	-0.074196	0.054002	-0.516831	-0.434107	0.398859	-0.620765
55393	9.262468	-0.405814	3.255812	-0.001129	-0.184862	0.011968	-0.517990	-0.431674	0.398046	-0.622016
55394	9.394980	-0.674508	3.400246	0.253843	-0.197048	0.196256	-0.518643	-0.430422	0.397643	-0.622597
55395	9.628876	-0.694237	3.403505	0.242103	-0.100650	0.420215	-0.519092	-0.429517	0.397379	-0.623015
55396	9.594730	-0.634229	3.240363	0.153279	0.052484	0.332989	-0.519392	-0.428485	0.397228	-0.623573
55397	9.546215	-0.596076	3.421339	0.127174	-0.118851	0.344119	-0.519585	-0.427300	0.397256	-0.624207
55398	9.436687	-0.690271	3.407666	0.210433	-0.108505	0.241347	-0.519793	-0.426201	0.397336	-0.624733
55399	9.442569	-0.644016	3.440691	0.153575	-0.129336	0.255821	-0.520123	-0.425292	0.397380	-0.625051
55400	9.450044	-0.686975	3.295509	0.165922	0.029108	0.217629	-0.520601	-0.424393	0.397484	-0.625197
55401	9.418411	-0.861420	3.263442	0.328500	0.089762	0.186441	-0.521322	-0.423384	0.397536	-0.625247
55402	9.400166	-0.934826	3.226595	0.393282	0.143062	0.160917	-0.522083	-0.422633	0.397580	-0.625093
55403	9.357584	-0.900550	3.301005	0.371789	0.064518	0.143697	-0.522712	-0.422144	0.397607	-0.624880
55404	9.372346	-0.925387	3.425889	0.411044	-0.036033	0.200487	-0.523240	-0.421782	0.397521	-0.624737
55405	9.376148	-0.982487	3.599290	0.491438	-0.182495	0.264887	-0.523586	-0.421745	0.397325	-0.624597
55406	9.379663	-0.928628	3.553556	0.439339	-0.143192	0.249850	-0.523826	-0.421934	0.397065	-0.624433
55407	9.363914	-0.817796	3.518535	0.335573	-0.129743	0.217383	-0.524020	-0.422155	0.396787	-0.624298
55408	9.387359	-0.774311	3.608223	0.309403	-0.210734	0.267055	-0.524275	-0.422331	0.396575	-0.624099
55409	9.468110	-0.706399	3.574070	0.239123	-0.161180	0.328068	-0.524605	-0.422498	0.396396	-0.623824
55410	9.482975	-0.700289	3.653229	0.250804	-0.228523	0.368087	-0.524973	-0.422654	0.396039	-0.623635
55411	9.450146	-0.742731	3.638140	0.304720	-0.214249	0.333948	-0.525270	-0.422885	0.395577	-0.623521
55412	9.438084	-0.731685	3.503433	0.289878	-0.087986	0.276666	-0.525561	-0.423094	0.395038	-0.623476
55413	9.452769	-0.705978	3.484344	0.270687	-0.062404	0.282694	-0.525783	-0.423248	0.394553	-0.623491
55414	9.447014	-0.664796	3.498572	0.240841	-0.075883	0.280095	-0.526040	-0.423337	0.394008	-0.623559
55415	9.408463	-0.637982	3.474892	0.223981	-0.061492	0.234556	-0.526312	-0.423478	0.393405	-0.623614
55416	9.463422	-0.661926	3.603793	0.268922	-0.150412	0.330629	-0.526614	-0.423613	0.392709	-0.623706
55417	9.389905	-0.596804	3.859598	0.254112	-0.413613	0.345429	-0.526880	-0.423871	0.392086	-0.623698
55418	9.126000	-0.816711	3.444300	0.455043	-0.077710	-0.035112	-0.527003	-0.424353	0.391671	-0.623527
55419	9.274331	-0.666851	3.728969	0.338988	-0.316547	0.194710	-0.527166	-0.424510	0.391593	-0.623332
55420	9.284466	-0.631047	3.692044	0.303341	-0.284094	0.190212	-0.527265	-0.424649	0.391437	-0.623251
55421	9.272267	-0.524496	3.581888	0.190757	-0.197736	0.137411	-0.527449	-0.424725	0.391056	-0.623282
55422	9.376940	-0.441627	3.667016	0.116086	-0.248901	0.261716	-0.527591	-0.424754	0.390724	-0.623351
55423	9.580223	-0.518630	3.815194	0.197771	-0.303807	0.505934	-0.527745	-0.424747	0.390552	-0.623333
55424	9.701864	-0.547103	3.658309	0.200060	-0.109763	0.567902	-0.528042	-0.424726	0.390423	-0.623177
55425	9.645408	-0.428037	3.606456	0.084843	-0.094680	0.493013	-0.528346	-0.424666	0.390364	-0.622997
55426	9.410427	-0.476145	3.607383	0.156300	-0.165198	0.274152	-0.528574	-0.424746	0.390294	-0.622793
55427	9.217158	-0.558694	3.663886	0.266590	-0.270516	0.114445	-0.528806	-0.424909	0.390228	-0.622526
55428	9.042392	-0.652355	3.745389	0.390847	-0.396379	-0.019400	-0.528879	-0.425359	0.390385	-0.622058
55429	9.019378	-0.762083	3.775884	0.513251	-0.428586	-0.027999	-0.528862	-0.425934	0.390686	-0.621490
55430	9.088425	-0.943752	3.949456	0.716350	-0.557321	0.100160	-0.528912	-0.426409	0.391219	-0.620786
55431	9.208347	-0.943547	3.979039	0.714823	-0.562164	0.221737	-0.529202	-0.426564	0.391955	-0.619967
55432	9.223626	-1.032273	3.880276	0.790249	-0.469731	0.204909	-0.529720	-0.426482	0.393036	-0.618896
55433	9.259839	-1.354400	3.549108	1.067969	-0.125409	0.138135	-0.530186	-0.426632	0.394212	-0.617644
55434	9.416507	-1.335416	3.594792	1.047824	-0.144955	0.299556	-0.530759	-0.426845	0.395324	-0.616293
55435	9.515767	-1.193555	3.452234	0.889805	-0.022972	0.341128	-0.531413	-0.426946	0.396518	-0.614891
55436	9.450118	-1.190024	3.254334	0.874026	0.119125	0.213949	-0.532283	-0.426789	0.397694	-0.613487
55437	9.396510	-1.225265	3.219422	0.913989	0.121288	0.152765	-0.533445	-0.426398	0.398864	-0.611988
55438	9.199401	-1.116195	3.240195	0.828078	0.009524	-0.030668	-0.534940	-0.425942	0.400129	-0.610171
55439	9.103112	-1.345339	3.238319	1.071905	-0.006162	-0.116592	-0.536987	-0.425201	0.401228	-0.608166
55440	9.252506	-1.431361	3.323352	1.171481	-0.038606	0.052830	-0.539344	-0.424474	0.402114	-0.605999
55441	9.343937	-1.561419	3.527628	1.334060	-0.194754	0.205978	-0.541970	-0.423686	0.402780	-0.603761
55442	9.170504	-1.639580	3.159979	1.416511	0.097930	-0.078436	-0.544489	-0.423322	0.403258	-0.601426
55443	9.231559	-1.728859	3.295186	1.545590	-0.003881	0.019907	-0.547295	-0.422789	0.403140	-0.599329
55444	8.727424	-1.997017	3.918133	1.915735	-0.726426	-0.257064	-0.550016	-0.422506	0.402737	-0.597306
55445	8.334421	-2.128249	3.882762	2.099575	-0.822608	-0.648481	-0.551580	-0.424121	0.402726	-0.594721
55446	8.106556	-1.812996	3.280472	1.799073	-0.381911	-1.073015	-0.552724	-0.426288	0.402553	-0.592221
55447	7.775814	-1.704198	3.417965	1.759013	-0.660071	-1.355744	-0.553415	-0.429017	0.402395	-0.589707
55448	7.382476	-1.532093	3.685600	1.667726	-1.094922	-1.660926	-0.553430	-0.432879	0.402385	-0.586870
55449	6.880098	-1.307769	3.388509	1.489806	-1.047360	-2.248914	-0.552859	-0.438164	0.402887	-0.583131
55450	6.299916	-0.794656	2.772819	0.999127	-0.745872	-2.997005	-0.552009	-0.444113	0.403348	-0.579102
55451	6.188295	0.094344	2.602675	0.162229	-0.756970	-3.143529	-0.551317	-0.449987	0.404099	-0.574687
55452	6.907711	0.821346	2.485572	-0.498628	-0.582296	-2.465548	-0.551251	-0.455378	0.405605	-0.569419
55453	8.169028	1.606289	2.741018	-1.160289	-0.648177	-1.149057	-0.551486	-0.460657	0.407742	-0.563387
55454	9.893455	2.022545	3.255984	-1.394765	-0.856059	0.670270	-0.551889	-0.465595	0.410018	-0.557247
55455	12.382748	1.475414	3.429723	-0.635428	-0.538897	3.093707	-0.551514	-0.470620	0.412197	-0.551763
55456	14.678106	1.363291	3.699762	-0.290012	-0.460713	5.375891	-0.549732	-0.475928	0.414458	-0.547277
55457	16.539619	2.067189	4.223010	-0.767335	-0.832876	7.344793	-0.546964	-0.480795	0.416592	-0.544167
55458	17.091203	2.479838	4.453707	-1.078838	-1.178510	7.950717	-0.543955	-0.484710	0.418186	-0.542485
55459	15.916779	2.640680	4.215582	-1.310778	-1.343749	6.757246	-0.540990	-0.487708	0.419527	-0.541727
55460	13.852408	2.760337	3.673782	-1.609628	-1.316179	4.633118	-0.538261	-0.489487	0.421021	-0.541682
55461	12.350230	2.711555	3.044832	-1.738147	-1.045657	3.033966	-0.535323	-0.490519	0.422804	-0.542271
55462	10.712779	2.225406	2.399812	-1.452019	-0.721711	1.270876	-0.532184	-0.490987	0.424839	-0.543345
55463	9.016143	1.425604	1.733279	-0.856429	-0.335257	-0.567086	-0.528886	-0.491061	0.426925	-0.544861
55464	7.375491	0.969191	1.195118	-0.574793	-0.071890	-2.300721	-0.525309	-0.491118	0.428770	-0.546817
55465	6.251171	0.901067	0.735429	-0.635991	0.176431	-3.488600	-0.521531	-0.491461	0.430456	-0.548798
55466	5.751722	0.877841	0.314118	-0.707602	0.486035	-4.049488	-0.517653	-0.492200	0.431783	-0.550761
55467	5.343089	0.813296	0.455959	-0.669992	0.264822	-4.436927	-0.513808	-0.493096	0.432535	-0.552966
55468	4.498321	0.194311	0.651620	-0.070643	-0.003815	-5.263819	-0.509901	-0.494188	0.432393	-0.555712
55469	3.729097	-0.633780	0.536165	0.713031	0.087398	-6.060456	-0.505615	-0.495753	0.431464	-0.558946
55470	3.621318	-1.390477	0.234556	1.406835	0.468703	-6.220547	-0.500780	-0.497866	0.429756	-0.562723
55471	4.482037	-1.759694	0.135559	1.732334	0.751841	-5.381297	-0.495735	-0.500100	0.427897	-0.566613
55472	6.999585	-1.793013	-0.048320	1.678317	1.292487	-2.904434	-0.490529	-0.502315	0.427107	-0.569772
55473	10.199978	-1.849646	0.442925	1.714758	1.239766	0.345027	-0.486843	-0.503105	0.427770	-0.571736
55474	14.127921	-2.446449	1.709567	2.372519	0.599384	4.418173	-0.485023	-0.502509	0.428984	-0.572897
55475	16.887234	-3.036793	2.005878	2.890783	0.735694	7.202782	-0.483053	-0.503697	0.429448	-0.573169
55476	18.452091	-3.705727	1.369662	3.400094	1.617094	8.678177	-0.481297	-0.505938	0.429212	-0.572850
55477	17.496833	-3.889617	1.988894	3.744329	0.890415	7.805798	-0.480987	-0.507193	0.428617	-0.572445
55478	15.731133	-3.547707	2.442725	3.569245	0.175023	6.101185	-0.481934	-0.507564	0.427620	-0.572066
55479	14.204505	-2.981781	2.987559	3.189964	-0.615851	4.645146	-0.483542	-0.507944	0.426002	-0.571578
55480	12.816504	-2.387929	2.564164	2.618054	-0.443985	3.206069	-0.485572	-0.508701	0.423827	-0.570801
55481	11.377550	-1.998377	2.037746	2.232972	-0.144563	1.701948	-0.488116	-0.509624	0.421268	-0.569702
55482	9.754219	-1.691876	1.911444	1.994619	-0.252737	0.067487	-0.490909	-0.510770	0.418486	-0.568324
55483	8.148029	-1.227515	1.432563	1.518733	-0.058908	-1.588395	-0.493640	-0.512079	0.416090	-0.566537
55484	6.714863	-0.903114	1.070559	1.175450	0.055859	-3.055019	-0.496406	-0.512884	0.414211	-0.564765
55485	5.679632	-0.458063	0.624295	0.677865	0.279724	-4.127623	-0.499472	-0.512625	0.413676	-0.562686
55486	4.415619	-0.232935	0.560949	0.437979	0.130850	-5.378994	-0.502865	-0.511394	0.414000	-0.560542
55487	3.820948	0.110035	-0.286111	-0.040729	0.825240	-6.069575	-0.506769	-0.509486	0.414973	-0.558038
55488	4.140022	0.541165	0.110812	-0.379026	0.435558	-5.676082	-0.511678	-0.506169	0.416824	-0.555190
55489	5.076280	0.973450	0.261544	-0.742777	0.397163	-4.706311	-0.517091	-0.501823	0.419787	-0.551878
55490	7.250578	1.490176	0.719276	-1.113724	0.263464	-2.464296	-0.523318	-0.496103	0.424360	-0.547666
55491	10.325359	1.904715	0.850687	-1.399417	0.635150	0.608565	-0.530408	-0.489150	0.430643	-0.542169
55492	13.484776	2.307002	1.469149	-1.633870	0.561456	3.837762	-0.537269	-0.482555	0.437356	-0.535913
55493	15.296272	2.405234	1.255377	-1.662868	1.089355	5.594622	-0.542427	-0.478425	0.442826	-0.529893
55494	16.431809	2.707599	0.696775	-1.891867	1.808037	6.648554	-0.546866	-0.475579	0.447497	-0.523935
55495	15.331428	3.436179	0.485381	-2.614710	1.841456	5.577813	-0.551533	-0.472796	0.451556	-0.518048
55496	14.241900	4.251419	0.823404	-3.422616	1.392324	4.607113	-0.556897	-0.469220	0.454868	-0.512633
55497	14.069963	4.173236	1.299799	-3.305993	0.996036	4.510226	-0.563378	-0.464105	0.457371	-0.507960
55498	13.139141	3.522860	1.545873	-2.685620	0.730995	3.592088	-0.570442	-0.457694	0.459157	-0.504268
55499	11.491158	3.039188	1.460188	-2.287300	0.685079	1.922394	-0.577638	-0.450694	0.460426	-0.501216
55500	9.961496	2.978507	1.377810	-2.312025	0.659156	0.396102	-0.584774	-0.443647	0.461542	-0.498192
55501	9.074176	3.062190	1.118260	-2.416129	0.904436	-0.522318	-0.591577	-0.437121	0.462554	-0.494980
55502	8.563677	3.014416	0.964600	-2.364315	1.076130	-1.060288	-0.597917	-0.431111	0.463635	-0.491611
55503	7.978749	2.915237	0.967194	-2.287998	1.052950	-1.642621	-0.603718	-0.425491	0.464702	-0.488400
55504	7.510166	2.686345	1.114117	-2.101347	0.880377	-2.088133	-0.609507	-0.419496	0.465752	-0.485387
55505	7.079843	2.267899	1.262158	-1.737559	0.674236	-2.506107	-0.615235	-0.413046	0.466805	-0.482672
55506	6.890677	2.015329	1.337496	-1.513460	0.609659	-2.694481	-0.620880	-0.406098	0.467820	-0.480351
55507	6.893821	1.817855	1.613512	-1.371326	0.404452	-2.644156	-0.626234	-0.398776	0.468761	-0.478614
55508	6.980884	1.605523	1.952198	-1.233685	0.155931	-2.493235	-0.631156	-0.391352	0.469766	-0.477290
55509	7.393784	1.537304	2.135444	-1.183797	0.164795	-2.056266	-0.635513	-0.384096	0.470836	-0.476348
55510	7.988995	1.564396	2.427906	-1.240865	0.145555	-1.410055	-0.639370	-0.377107	0.471811	-0.475804
55511	8.657115	1.756806	2.639301	-1.439216	0.274757	-0.710489	-0.642751	-0.370510	0.472511	-0.475739
55512	9.142747	1.885497	3.338036	-1.718670	-0.092943	-0.049310	-0.645929	-0.364148	0.472375	-0.476481
55513	9.322533	1.806066	3.209557	-1.623043	0.170692	0.077120	-0.648283	-0.358910	0.471838	-0.477788
55514	9.259604	1.479283	3.569298	-1.437383	-0.165255	0.115768	-0.650020	-0.354510	0.471111	-0.479428
55515	9.025441	1.364712	3.940976	-1.476050	-0.515305	0.006038	-0.651035	-0.350901	0.470053	-0.481739
55516	8.826107	1.140390	3.450362	-1.175250	-0.114650	-0.341107	-0.651384	-0.348244	0.468754	-0.484453
55517	8.938910	1.057029	3.702567	-1.176334	-0.266579	-0.154778	-0.651384	-0.345849	0.467722	-0.487160
55518	8.976103	0.876132	3.852846	-1.069558	-0.381516	-0.071405	-0.651108	-0.343430	0.467055	-0.489872
55519	8.759479	0.650731	3.740187	-0.878727	-0.358870	-0.313232	-0.650660	-0.341062	0.466911	-0.492252
55520	8.467101	0.229351	3.382237	-0.444543	-0.205372	-0.705335	-0.650029	-0.338794	0.467390	-0.494193
55521	8.496907	-0.649365	3.541282	0.312871	-0.549626	-0.606194	-0.649268	-0.336392	0.468635	-0.495653
55522	9.029201	-1.259979	3.501198	0.890830	-0.484209	-0.099602	-0.648272	-0.334100	0.470529	-0.496712
55523	9.581779	-1.653160	3.930418	1.122627	-0.780403	0.585478	-0.647303	-0.331589	0.472559	-0.497731
55524	10.279653	-1.720809	4.563121	0.988859	-1.117685	1.466811	-0.646391	-0.329486	0.474084	-0.498861
55525	10.770231	-1.378574	4.859310	0.547094	-1.107849	2.018811	-0.645512	-0.328032	0.475220	-0.499875
55526	10.791203	-1.416574	4.431703	0.659487	-0.716495	1.898348	-0.644621	-0.327356	0.475878	-0.500840
55527	10.160247	-1.695551	4.057421	0.974262	-0.668747	1.195117	-0.643721	-0.327399	0.476303	-0.501566
55528	9.596190	-2.114706	3.767619	1.417881	-0.723102	0.590221	-0.642775	-0.328163	0.476715	-0.501889
55529	9.596153	-2.396120	3.640211	1.719312	-0.702336	0.561768	-0.641833	-0.329360	0.476964	-0.502074
55530	9.778682	-2.545260	3.466518	1.918413	-0.543414	0.682173	-0.641032	-0.330469	0.477165	-0.502177
55531	10.061379	-2.456155	3.552673	1.822576	-0.516156	0.971436	-0.640543	-0.331130	0.477175	-0.502355
55532	10.067088	-2.029626	3.547991	1.413953	-0.398186	0.952816	-0.640633	-0.330945	0.477137	-0.502399
55533	9.695447	-1.537346	3.326812	0.985340	-0.177689	0.503819	-0.641445	-0.329939	0.476749	-0.502393
55534	9.395064	-1.444025	3.318304	0.892982	-0.218882	0.213186	-0.642756	-0.328783	0.475761	-0.502411
55535	9.070872	-1.294207	3.487583	0.703180	-0.405800	-0.042342	-0.644568	-0.327236	0.474654	-0.502148
55536	8.723706	-1.280380	3.827466	0.595616	-0.791161	-0.251772	-0.646601	-0.325554	0.473793	-0.501440
55537	8.798015	-1.297922	4.455096	0.454167	-1.301568	0.038055	-0.648623	-0.323829	0.473186	-0.500518
55538	8.939409	-1.198762	4.295901	0.418815	-1.055785	0.112770	-0.650404	-0.322213	0.472979	-0.499445
55539	9.392749	-1.048283	4.342651	0.293954	-0.877056	0.547119	-0.651899	-0.321098	0.472804	-0.498377
55540	9.501282	-0.896136	4.013101	0.263089	-0.489690	0.525269	-0.653190	-0.320609	0.472425	-0.497359
55541	9.384604	-0.798093	3.940439	0.207204	-0.431949	0.385607	-0.654255	-0.320944	0.471586	-0.496540
55542	9.085282	-0.588907	3.982167	0.008964	-0.513102	0.111191	-0.655247	-0.321767	0.470568	-0.495664
55543	8.819479	-0.340142	3.844128	-0.170691	-0.415851	-0.196345	-0.655955	-0.322996	0.469482	-0.494957
55544	8.678759	-0.188764	3.942547	-0.318546	-0.517032	-0.297895	-0.656418	-0.324381	0.468463	-0.494404
55545	8.526947	-0.191299	3.629830	-0.209519	-0.303712	-0.550674	-0.656663	-0.325562	0.467852	-0.493881
55546	9.058584	0.076023	4.247073	-0.581998	-0.601809	0.157289	-0.656899	-0.326129	0.467886	-0.493160
55547	9.253739	0.161790	4.088950	-0.595149	-0.384184	0.280654	-0.656902	-0.326769	0.468298	-0.492340
55548	9.730857	0.320212	4.037098	-0.687585	-0.146024	0.703782	-0.656810	-0.327520	0.468543	-0.491731
55549	9.853939	0.315194	3.894603	-0.624953	0.008432	0.769220	-0.656854	-0.327937	0.468480	-0.491453
55550	9.914588	0.148318	3.677216	-0.391568	0.166274	0.754337	-0.656820	-0.328422	0.468397	-0.491254
55551	9.718878	0.186417	3.727631	-0.450133	0.054690	0.588320	-0.656696	-0.329137	0.468359	-0.490977
55552	9.698018	0.379937	3.844186	-0.659659	-0.012000	0.605487	-0.656612	-0.329919	0.468128	-0.490785
55553	9.613559	0.463562	3.774319	-0.715179	0.037847	0.500797	-0.656654	-0.330488	0.467773	-0.490685
55554	9.473513	0.538596	3.735889	-0.776399	0.043465	0.355386	-0.656858	-0.330807	0.467405	-0.490547
55555	9.413325	0.620667	3.753376	-0.853193	0.032116	0.304366	-0.657188	-0.331021	0.466956	-0.490389
55556	9.397433	0.635225	3.591139	-0.810591	0.179018	0.233327	-0.657577	-0.331177	0.466476	-0.490218
55557	9.375237	0.551144	3.634015	-0.731907	0.113367	0.230038	-0.658031	-0.331191	0.466026	-0.490028
55558	9.398921	0.478216	3.808773	-0.698707	-0.047744	0.315722	-0.658593	-0.330893	0.465623	-0.489857
55559	9.405851	0.549982	3.670191	-0.721172	0.111097	0.272469	-0.659213	-0.330311	0.465405	-0.489624
55560	9.277652	0.668007	3.407382	-0.769467	0.349094	0.057336	-0.659909	-0.329392	0.465528	-0.489187
55561	9.046699	0.671113	3.018684	-0.685525	0.625671	-0.297216	-0.660490	-0.328498	0.466116	-0.488444
55562	9.092689	0.644255	3.728077	-0.865270	0.003465	-0.002392	-0.660966	-0.327660	0.467093	-0.487429
55563	9.112695	0.630452	3.216186	-0.714731	0.449259	-0.165418	-0.660963	-0.327322	0.468815	-0.486005
55564	8.849372	0.393766	2.767204	-0.399785	0.649098	-0.563772	-0.660202	-0.327865	0.471596	-0.483978
55565	8.958678	0.227981	2.666922	-0.230751	0.639223	-0.487491	-0.657755	-0.330544	0.476277	-0.480895
55566	9.482888	0.488019	3.915859	-0.846447	-0.362358	0.417042	-0.654626	-0.334080	0.481604	-0.477403
55567	10.073604	0.744861	2.664768	-0.713135	0.863589	0.573668	-0.651259	-0.337373	0.487786	-0.473398
55568	9.621707	0.641391	2.788960	-0.737616	0.439861	0.188707	-0.648368	-0.340078	0.492487	-0.470556
55569	9.923547	0.733771	3.538241	-1.079125	-0.250007	0.689974	-0.645581	-0.342638	0.496893	-0.467891
55570	9.861018	0.661667	2.731263	-0.804359	0.332032	0.403923	-0.643629	-0.344248	0.500875	-0.465145
55571	9.822637	0.651842	2.587246	-0.786068	0.354500	0.329234	-0.641868	-0.345826	0.504527	-0.462452
55572	9.619407	0.565872	2.836208	-0.827755	-0.033772	0.197829	-0.640527	-0.346762	0.507736	-0.460092
55573	9.597690	0.492125	3.134365	-0.887178	-0.403356	0.248718	-0.639380	-0.347253	0.510884	-0.457827
55574	9.506862	0.435663	2.973602	-0.823058	-0.358849	0.117364	-0.638142	-0.347498	0.514206	-0.455644
55575	9.769383	0.554806	2.576068	-0.827814	0.047532	0.271800	-0.636954	-0.347477	0.517331	-0.453782
55576	9.693343	0.331527	2.579842	-0.659754	-0.094039	0.201406	-0.636026	-0.347273	0.519767	-0.452454
55577	9.651287	0.329668	2.728327	-0.744221	-0.277498	0.190747	-0.635016	-0.347144	0.522144	-0.451232
55578	9.553021	0.312506	2.711526	-0.764141	-0.325973	0.087810	-0.634018	-0.346680	0.524779	-0.449935
55579	9.490736	0.177529	2.394276	-0.572197	-0.130735	-0.040615	-0.632934	-0.346073	0.527478	-0.448770
55580	9.416417	0.173471	2.015939	-0.478410	0.163893	-0.194628	-0.631614	-0.346091	0.529651	-0.448056
55581	9.456605	0.094517	2.093375	-0.464489	0.036679	-0.137915	-0.630030	-0.346519	0.531734	-0.447488
55582	9.666970	0.176937	2.340763	-0.658628	-0.164195	0.112013	-0.627883	-0.347375	0.534107	-0.447015
55583	9.884511	0.118901	2.367133	-0.646342	-0.206320	0.329330	-0.626280	-0.347543	0.535816	-0.447089
55584	9.836634	0.171056	2.431327	-0.755563	-0.277092	0.289401	-0.624947	-0.347375	0.537052	-0.447601
55585	9.791726	0.177467	2.591414	-0.850973	-0.434063	0.272558	-0.624119	-0.346708	0.537697	-0.448498
55586	9.917032	0.162948	2.428867	-0.804319	-0.248015	0.363997	-0.624006	-0.345226	0.537807	-0.449666
55587	9.901160	0.154603	2.103766	-0.704503	0.082807	0.285793	-0.624506	-0.343056	0.537547	-0.450942
55588	9.740469	0.329939	2.208835	-0.928735	0.069037	0.137032	-0.625489	-0.340119	0.537367	-0.452016
55589	9.557583	0.273918	2.029339	-0.837938	0.235077	-0.077037	-0.626535	-0.336814	0.537400	-0.453004
55590	9.327284	0.212924	2.167889	-0.861130	0.098772	-0.273735	-0.627562	-0.333188	0.537682	-0.453927
55591	9.324405	0.215078	2.321317	-0.950821	0.018748	-0.248456	-0.628420	-0.329561	0.538140	-0.454844
55592	9.403309	0.157686	2.194011	-0.885359	0.186833	-0.198030	-0.629256	-0.325796	0.538961	-0.455428
55593	9.374738	-0.029423	2.162539	-0.736041	0.194120	-0.221891	-0.630067	-0.322169	0.539610	-0.456118
55594	9.080135	-0.134758	1.996660	-0.610529	0.285845	-0.539126	-0.630753	-0.318787	0.540325	-0.456700
55595	9.042947	-0.077049	2.251908	-0.795498	0.114605	-0.527985	-0.631417	-0.315291	0.541248	-0.457115
55596	9.436261	-0.338087	2.347366	-0.629462	0.070254	-0.103619	-0.631984	-0.311870	0.542240	-0.457504
55597	9.760684	-0.904932	2.443698	-0.186124	-0.110429	0.287532	-0.632332	-0.308840	0.543210	-0.457927
55598	10.184467	-1.474949	2.382228	0.320123	-0.136560	0.744421	-0.632409	-0.306486	0.544184	-0.458245
55599	10.533527	-1.956355	2.438000	0.700938	-0.258864	1.149425	-0.632443	-0.304530	0.544902	-0.458650
55600	10.532652	-2.229321	2.545062	0.878068	-0.432090	1.206665	-0.632594	-0.302617	0.545230	-0.459316
55601	10.268637	-2.361225	2.446529	1.017681	-0.434652	0.947475	-0.632452	-0.301320	0.545319	-0.460259
55602	10.239164	-2.410425	2.648576	0.963423	-0.613186	0.974403	-0.632265	-0.300448	0.545068	-0.461381
55603	10.181587	-2.451794	2.771891	0.941482	-0.724197	0.955249	-0.632096	-0.299808	0.544463	-0.462741
55604	10.194088	-2.527532	2.678532	1.044701	-0.632796	0.957198	-0.632111	-0.299306	0.543394	-0.464301
55605	10.001821	-2.548352	2.980021	0.951387	-0.923531	0.848124	-0.632114	-0.299220	0.542177	-0.465773
55606	9.560824	-2.611609	2.955864	1.038223	-1.017512	0.427122	-0.631828	-0.299785	0.540946	-0.467226
55607	9.239932	-2.690860	2.995752	1.115069	-1.149890	0.138490	-0.631428	-0.300615	0.539758	-0.468605
55608	9.327019	-2.749601	2.814087	1.253949	-0.968629	0.185412	-0.630984	-0.301601	0.538411	-0.470117
55609	9.433270	-2.679093	2.781195	1.216315	-0.867589	0.270318	-0.630390	-0.302849	0.537111	-0.471596
55610	9.158028	-2.514041	2.761449	1.094471	-0.855509	-0.020564	-0.629409	-0.304724	0.535820	-0.473165
55611	8.627073	-2.630906	2.761869	1.229754	-1.044412	-0.518987	-0.627938	-0.307117	0.534974	-0.474526
55612	8.928336	-2.666308	3.331430	1.058460	-1.502219	-0.089224	-0.626211	-0.309790	0.534790	-0.475279
55613	9.112604	-2.656050	2.768563	1.262478	-0.972834	-0.054678	-0.624515	-0.312462	0.534769	-0.475784
55614	8.963706	-2.456681	2.508727	1.187298	-0.733688	-0.287510	-0.623315	-0.314886	0.534113	-0.476497
55615	8.896624	-2.251166	2.434390	1.042337	-0.624355	-0.396339	-0.622506	-0.316909	0.532963	-0.477500
55616	9.050914	-2.442270	2.360917	1.266268	-0.578639	-0.246113	-0.622108	-0.318548	0.531462	-0.478598
55617	9.097055	-2.481443	2.111474	1.415598	-0.342253	-0.260141	-0.622065	-0.320025	0.529736	-0.479581
55618	9.318893	-2.223617	2.732422	0.987867	-0.749958	0.072348	-0.622142	-0.321535	0.527878	-0.480520
55619	9.788356	-1.925635	2.946078	0.661736	-0.711189	0.543738	-0.622412	-0.322746	0.526192	-0.481208
55620	10.180433	-1.830502	3.093112	0.552663	-0.695845	0.946937	-0.622975	-0.323680	0.524433	-0.481771
55621	10.401907	-1.714522	2.991555	0.512746	-0.493810	1.122657	-0.623565	-0.324772	0.522812	-0.482034
55622	10.653272	-1.393668	3.081119	0.220213	-0.398981	1.355122	-0.624251	-0.326048	0.521182	-0.482051
55623	10.645337	-1.070364	3.246619	-0.090149	-0.445166	1.358834	-0.625202	-0.327429	0.519358	-0.481851
55624	10.251806	-0.870859	3.022011	-0.147683	-0.281745	0.905940	-0.626269	-0.329238	0.517352	-0.481390
55625	9.887809	-0.590609	2.974277	-0.332689	-0.252280	0.521197	-0.627512	-0.331517	0.515051	-0.480674
55626	9.541411	-0.272328	2.816170	-0.515044	-0.110871	0.125395	-0.629042	-0.333816	0.512888	-0.479395
55627	9.021995	-0.220353	2.321778	-0.342473	0.204332	-0.502688	-0.630751	-0.336341	0.510764	-0.477649
55628	8.667165	0.066914	2.718349	-0.673525	-0.184811	-0.755904	-0.632594	-0.339009	0.509054	-0.475144
55629	8.273086	0.460263	2.773978	-1.005324	-0.247239	-1.136372	-0.634522	-0.341570	0.507985	-0.471871
55630	8.002967	0.786399	2.586107	-1.200627	-0.076436	-1.451703	-0.636825	-0.343610	0.507468	-0.467827
55631	7.979676	1.125460	2.439557	-1.413313	0.129441	-1.513367	-0.639666	-0.344913	0.507405	-0.463036
55632	8.156897	1.553025	2.373784	-1.722524	0.345700	-1.357234	-0.642659	-0.345937	0.507704	-0.457770
55633	8.703822	1.953580	2.396539	-2.004818	0.564996	-0.813943	-0.645790	-0.346621	0.508363	-0.452079
55634	9.371127	2.287047	2.355047	-2.183083	0.851800	-0.163701	-0.649258	-0.346631	0.509384	-0.445914
55635	10.256061	2.464425	2.501391	-2.248240	0.969905	0.747677	-0.653071	-0.345927	0.510560	-0.439501
55636	10.743126	2.520214	2.506078	-2.177307	1.079736	1.238991	-0.656668	-0.345295	0.511879	-0.433056
55637	11.216187	2.696315	2.734975	-2.296551	1.023841	1.773083	-0.659968	-0.344829	0.513010	-0.427032
55638	11.286933	2.784070	2.540169	-2.222917	1.225196	1.812949	-0.662910	-0.344288	0.514292	-0.421332
55639	11.220498	2.750034	2.577173	-2.149969	1.148133	1.770197	-0.665600	-0.343407	0.515287	-0.416567
55640	10.734468	2.680244	3.069116	-2.291284	0.572860	1.423580	-0.667711	-0.342615	0.516355	-0.412498
55641	10.222239	2.837521	3.284397	-2.560826	0.329252	0.988547	-0.668907	-0.342034	0.518153	-0.408771
55642	10.011913	2.941700	3.116216	-2.611431	0.463963	0.749886	-0.669642	-0.340984	0.520281	-0.405731
55643	9.809095	2.794563	3.049159	-2.490604	0.414293	0.529001	-0.670251	-0.339220	0.522609	-0.403204
55644	9.499335	2.756086	2.700119	-2.376030	0.647267	0.140174	-0.670560	-0.337021	0.525326	-0.400996
55645	9.513726	2.950102	2.658388	-2.569303	0.778394	0.140890	-0.670525	-0.334290	0.528708	-0.398891
55646	9.341397	2.914001	2.620782	-2.592411	0.773350	-0.050380	-0.670422	-0.331153	0.532291	-0.396911
55647	8.958907	2.942356	2.472096	-2.649484	0.863584	-0.471118	-0.670458	-0.327695	0.535634	-0.395219
55648	8.786276	2.901591	2.224542	-2.572073	1.050810	-0.710686	-0.670304	-0.324234	0.538951	-0.393822
55649	8.659684	2.696500	2.866484	-2.752082	0.408415	-0.716710	-0.670390	-0.320300	0.541859	-0.392904
55650	8.809375	2.487609	1.992973	-2.197176	1.125088	-0.775460	-0.670540	-0.316158	0.544742	-0.392016
55651	8.542937	2.501989	2.132973	-2.351104	1.004547	-1.023255	-0.670851	-0.311812	0.547437	-0.391209
55652	8.479284	2.804927	2.324113	-2.762142	1.019664	-1.066382	-0.670741	-0.307832	0.550515	-0.390230
55653	8.580535	2.910538	2.444006	-2.954592	1.028350	-0.964949	-0.670718	-0.303671	0.553646	-0.389097
55654	8.729434	2.728938	2.327456	-2.777084	1.108675	-0.861410	-0.671114	-0.298881	0.556699	-0.387766
55655	8.886792	2.697921	2.126005	-2.681190	1.346916	-0.769995	-0.671877	-0.293597	0.559648	-0.386234
55656	8.963993	2.820223	2.165239	-2.841230	1.455811	-0.713096	-0.672789	-0.288107	0.562542	-0.384573
55657	9.096131	2.894797	2.343631	-3.028009	1.443085	-0.573633	-0.673830	-0.282457	0.565323	-0.382860
55658	9.114686	2.726926	2.482638	-2.997904	1.316814	-0.541493	-0.675010	-0.276759	0.567738	-0.381366
55659	9.195712	2.200872	2.622967	-2.668158	1.009511	-0.424075	-0.676339	-0.270747	0.570075	-0.379836
55660	9.347579	1.480713	2.834986	-2.223518	0.546609	-0.202099	-0.677538	-0.264814	0.572431	-0.378337
55661	10.233593	0.934493	2.789801	-1.744606	0.540060	0.677622	-0.678761	-0.258638	0.574682	-0.377003
55662	10.908793	0.197934	2.967924	-1.263955	0.211520	1.421463	-0.680304	-0.251809	0.576709	-0.375746
55663	10.860919	-0.524846	2.256881	-0.323108	0.419586	1.279982	-0.681798	-0.245001	0.578869	-0.374216
55664	11.328758	-0.899800	1.942813	0.136992	0.623209	1.698920	-0.683600	-0.238063	0.580907	-0.372243
55665	11.714192	-1.331094	2.180865	0.306111	0.346084	2.167972	-0.685696	-0.231072	0.582776	-0.369863
55666	12.229256	-1.898681	2.623499	0.460425	-0.136276	2.828961	-0.688168	-0.224305	0.584134	-0.367287
55667	12.608093	-2.453689	2.327966	1.067278	-0.094849	3.197134	-0.690912	-0.217869	0.584862	-0.364842
55668	12.195462	-2.741172	2.115579	1.382931	-0.156245	2.788174	-0.693630	-0.211593	0.585447	-0.362433
55669	11.147054	-2.762420	2.395575	1.134607	-0.587177	1.848967	-0.695917	-0.205626	0.586499	-0.359773
55670	10.618419	-2.303679	2.553960	0.622617	-0.498208	1.320344	-0.697969	-0.199693	0.588080	-0.356545
55671	10.268548	-1.875374	2.897143	0.019444	-0.510467	1.008234	-0.700349	-0.193362	0.589778	-0.352540
55672	9.884862	-1.474060	3.059977	-0.437245	-0.414635	0.622038	-0.703168	-0.186728	0.591427	-0.347708
55673	9.140832	-1.377579	2.842670	-0.423143	-0.360837	-0.157436	-0.706473	-0.179708	0.592913	-0.342134
55674	8.421743	-1.657176	2.651131	-0.152972	-0.586492	-0.849819	-0.710241	-0.172430	0.594057	-0.336040
55675	7.856194	-2.073230	2.484143	0.202575	-0.898656	-1.366365	-0.714361	-0.165116	0.594850	-0.329512
55676	7.580303	-2.214656	2.659085	0.135821	-1.165544	-1.562873	-0.718311	-0.158201	0.595620	-0.322861
55677	7.416880	-2.304185	2.677362	0.151164	-1.271276	-1.697972	-0.722003	-0.151544	0.596510	-0.316104
55678	7.448577	-2.215051	2.731959	0.037104	-1.213804	-1.665503	-0.725563	-0.144885	0.597421	-0.309281
55679	7.770104	-2.065074	2.762091	-0.064328	-1.010534	-1.372140	-0.728979	-0.138328	0.598228	-0.302619
55680	8.161456	-2.097034	2.904640	-0.127035	-0.989826	-0.955604	-0.732211	-0.132176	0.598961	-0.296045
55681	8.602148	-2.047856	3.412310	-0.520905	-1.092468	-0.412174	-0.735270	-0.126407	0.599688	-0.289437
55682	8.757208	-1.983860	3.502820	-0.626015	-1.034173	-0.250642	-0.737901	-0.121228	0.600711	-0.282759
55683	8.914686	-1.817625	3.483796	-0.698661	-0.842847	-0.132104	-0.740308	-0.116664	0.601729	-0.276145
55684	9.155739	-1.680399	3.497656	-0.762582	-0.675318	0.079092	-0.742584	-0.112635	0.602629	-0.269667
55685	9.167118	-1.635165	3.307629	-0.626849	-0.549044	0.033928	-0.744935	-0.109090	0.603192	-0.263307
55686	9.034042	-1.581348	3.357268	-0.703891	-0.576479	-0.088594	-0.747482	-0.105927	0.603359	-0.256919
55687	8.837962	-1.555548	3.397351	-0.759639	-0.640492	-0.268897	-0.750166	-0.103174	0.603211	-0.250485
55688	8.617367	-1.408389	3.152153	-0.630888	-0.476722	-0.563188	-0.753088	-0.100677	0.602615	-0.244083
55689	8.578201	-1.520108	3.075506	-0.473610	-0.566959	-0.603507	-0.756443	-0.098491	0.601237	-0.237926
55690	8.626790	-1.548639	3.114623	-0.429911	-0.615710	-0.541419	-0.760026	-0.096453	0.599390	-0.231924
55691	8.721657	-1.625163	3.449472	-0.603255	-0.820749	-0.348576	-0.763661	-0.094532	0.597308	-0.226072
55692	8.933066	-1.767022	3.705158	-0.653616	-1.017292	-0.056266	-0.767264	-0.092696	0.595051	-0.220518
55693	9.212709	-1.840262	4.150090	-0.880140	-1.211891	0.348022	-0.770862	-0.091226	0.592452	-0.215523
55694	9.375367	-1.768847	3.883194	-0.569416	-1.019098	0.421675	-0.774160	-0.090637	0.589778	-0.211243
55695	9.780455	-1.733498	4.269090	-0.743429	-1.073688	0.919558	-0.777467	-0.091031	0.586623	-0.207685
55696	9.943436	-1.734966	4.038238	-0.405562	-0.980015	1.006902	-0.780550	-0.092243	0.583371	-0.204722
55697	10.057301	-1.342728	4.176282	-0.567588	-0.696265	1.122834	-0.783442	-0.093764	0.580234	-0.201880
55698	10.231155	-0.903122	4.988445	-1.310465	-0.619928	1.513119	-0.786449	-0.095532	0.576717	-0.199419
55699	10.241778	-0.678500	4.874164	-1.187879	-0.415458	1.480086	-0.789486	-0.098027	0.572935	-0.197099
55700	10.519808	-0.147951	4.749288	-1.112001	0.113335	1.676138	-0.792314	-0.100862	0.569264	-0.194948
55701	11.048179	0.051673	4.528063	-0.735977	0.427948	2.097053	-0.795079	-0.103746	0.565461	-0.193236
55702	11.648780	0.190173	4.155132	-0.180256	0.754471	2.532033	-0.797456	-0.106959	0.562090	-0.191516
55703	11.651012	0.755490	3.359559	0.361255	1.506979	2.237237	-0.799393	-0.110611	0.559192	-0.189844
55704	10.749517	1.216072	2.854438	0.402199	1.887145	1.207964	-0.800997	-0.114431	0.556541	-0.188605
55705	9.658427	1.212804	2.958427	0.044504	1.583934	0.237034	-0.802087	-0.119007	0.554081	-0.188385
55706	9.415211	1.481155	3.528660	-0.578760	1.487960	0.224345	-0.802507	-0.123534	0.552250	-0.189057
55707	9.535897	1.343378	4.065745	-0.896147	1.107397	0.542922	-0.802302	-0.127360	0.551174	-0.190522
55708	9.471375	1.363367	3.995513	-0.858577	1.104239	0.462198	-0.801644	-0.130417	0.550612	-0.192832
55709	9.855677	1.370845	3.732027	-0.524656	1.268338	0.725702	-0.800865	-0.132778	0.550140	-0.195784
55710	10.028753	1.054348	3.400200	-0.059589	1.160031	0.765576	-0.799959	-0.134811	0.549702	-0.199297
55711	9.790150	0.876059	3.455848	-0.113170	0.946150	0.562734	-0.798871	-0.136770	0.549273	-0.203468
55712	9.463468	0.755532	3.271207	-0.034079	0.877153	0.190221	-0.797150	-0.139143	0.549344	-0.208358
55713	9.039456	0.510987	3.307836	-0.113472	0.579552	-0.191578	-0.794878	-0.142088	0.549633	-0.214203
55714	8.527253	0.428917	3.147664	-0.146963	0.491991	-0.727428	-0.791807	-0.145927	0.550329	-0.221098
55715	8.220276	0.333498	2.862795	-0.016095	0.489120	-1.115562	-0.788227	-0.150358	0.551100	-0.228864
55716	8.029596	0.383901	2.765211	-0.077130	0.544613	-1.329446	-0.784448	-0.155211	0.551477	-0.237537
55717	8.074372	0.437823	2.986440	-0.321391	0.487487	-1.212406	-0.780489	-0.160421	0.551501	-0.246880
55718	8.170610	0.625438	3.196463	-0.619516	0.546732	-1.055723	-0.776108	-0.166179	0.551404	-0.256896
55719	8.408066	0.798233	3.325426	-0.818958	0.653491	-0.796421	-0.771245	-0.172453	0.551347	-0.267315
55720	8.728482	0.850318	3.276978	-0.803364	0.771776	-0.517179	-0.765918	-0.179349	0.551206	-0.278165
55721	8.888981	0.775894	3.168172	-0.712827	0.785874	-0.403808	-0.760117	-0.186981	0.550941	-0.289350
55722	8.953270	0.801526	2.888391	-0.590186	0.957260	-0.438200	-0.754005	-0.195304	0.550233	-0.300958
55723	9.184115	0.614133	2.929343	-0.515687	0.814914	-0.201461	-0.747609	-0.204271	0.548914	-0.313126
55724	9.416406	0.542339	2.875535	-0.446404	0.824840	0.003193	-0.740926	-0.213858	0.546700	-0.326208
55725	9.294956	0.545150	2.498281	-0.284126	1.031362	-0.231976	-0.734006	-0.223681	0.543581	-0.340179
55726	9.334298	0.483662	2.231388	-0.123552	1.183441	-0.277174	-0.726854	-0.233609	0.539667	-0.354780
55727	9.409156	0.486053	2.684743	-0.446691	0.872686	-0.065125	-0.719279	-0.243708	0.535298	-0.369730
55728	9.571723	0.712225	2.840926	-0.744591	0.923388	0.126562	-0.711332	-0.253822	0.530537	-0.384854
55729	9.854218	0.639852	2.928562	-0.745550	0.876742	0.422874	-0.702964	-0.263966	0.525505	-0.400009
55730	10.483133	0.384634	3.153867	-0.616488	0.727274	1.099768	-0.694153	-0.274075	0.520405	-0.414986
55731	10.854464	0.313228	3.368360	-0.662981	0.609411	1.520990	-0.685111	-0.284166	0.515061	-0.429633
55732	11.047766	0.375442	3.287499	-0.705184	0.739680	1.674571	-0.675934	-0.294336	0.509577	-0.443634
55733	11.324564	0.062999	2.924361	-0.287428	0.979943	1.838860	-0.667029	-0.304327	0.503736	-0.456844
55734	11.469914	-0.590122	2.886051	0.309136	0.807032	1.997881	-0.658779	-0.313524	0.497625	-0.469130
55735	11.372468	-1.298301	3.092837	0.879898	0.378837	2.005361	-0.651300	-0.321485	0.491478	-0.480524
55736	10.858030	-1.734175	3.169373	1.241371	0.069981	1.562846	-0.644589	-0.328196	0.485477	-0.491024
55737	10.150587	-1.945134	3.124397	1.430248	-0.103320	0.888856	-0.638428	-0.333899	0.479881	-0.500634
55738	9.335214	-2.107415	2.884211	1.623725	-0.118128	0.049118	-0.632614	-0.338811	0.474857	-0.509429
55739	8.889450	-2.249840	2.573735	1.819461	0.055565	-0.464197	-0.626882	-0.343141	0.470499	-0.517595
55740	8.848537	-2.438992	2.532616	1.996269	0.102753	-0.503367	-0.621112	-0.347118	0.466887	-0.525116
55741	8.682295	-2.529010	2.875028	1.993202	-0.230369	-0.538111	-0.615334	-0.350985	0.463702	-0.532123
55742	8.632156	-2.616937	2.360232	2.153063	0.257197	-0.744549	-0.609157	-0.355156	0.461172	-0.538621
55743	8.829146	-2.562792	2.624771	2.021598	0.119845	-0.468719	-0.602952	-0.358963	0.458977	-0.544917
55744	8.914805	-2.777504	3.309473	2.102288	-0.485645	-0.143909	-0.596658	-0.363028	0.456259	-0.551396
55745	9.020230	-2.666225	2.607694	2.064109	0.261227	-0.276212	-0.590233	-0.367374	0.452838	-0.558210
55746	9.033507	-2.748025	2.846623	2.094737	0.085811	-0.176114	-0.583974	-0.371275	0.449041	-0.565235
55747	8.951136	-2.834485	2.991743	2.151853	-0.025100	-0.196231	-0.577666	-0.375253	0.445071	-0.572188
55748	9.014984	-2.877123	2.882116	2.185006	0.156672	-0.166171	-0.571421	-0.379428	0.440912	-0.578885
55749	9.086862	-2.689267	2.944517	1.978997	0.185707	-0.090434	-0.565303	-0.383604	0.436540	-0.585417
55750	9.038696	-2.504827	3.092800	1.785918	0.087599	-0.099800	-0.559285	-0.387657	0.432011	-0.591852
55751	9.102899	-2.372288	3.134304	1.642401	0.123638	-0.035093	-0.553470	-0.391351	0.427455	-0.598163
55752	9.175715	-2.262616	3.466657	1.521199	-0.114141	0.137366	-0.547734	-0.394648	0.423112	-0.604331
55753	9.497774	-2.139225	3.641491	1.365975	-0.130833	0.490774	-0.541988	-0.397999	0.419191	-0.610020
55754	9.926736	-1.826544	3.757321	1.012630	-0.084809	0.909305	-0.536145	-0.401651	0.415246	-0.615464
55755	10.362606	-1.736018	3.995671	0.896336	-0.153464	1.391587	-0.529964	-0.406283	0.411186	-0.620483
55756	10.410344	-1.273934	3.984125	0.453179	-0.173557	1.396053	-0.523655	-0.411557	0.406615	-0.625357
55757	10.007319	-0.934183	3.756499	0.175452	-0.138358	0.914864	-0.517225	-0.417330	0.401294	-0.630299
55758	9.291931	-0.991854	3.493025	0.331077	-0.116738	0.157344	-0.510611	-0.423797	0.395406	-0.635080
55759	8.744809	-0.679964	3.620984	0.167358	-0.474383	-0.336816	-0.503418	-0.430994	0.389441	-0.639649
55760	8.233058	-0.856190	3.547302	0.455226	-0.550056	-0.835523	-0.495571	-0.438607	0.383599	-0.644116
55761	8.190615	-1.496248	3.154055	1.063965	-0.072163	-0.973255	-0.486911	-0.446506	0.377864	-0.648667
55762	8.395809	-2.081379	2.896195	1.584744	0.366827	-0.836961	-0.477576	-0.454242	0.372184	-0.653502
55763	8.941723	-2.457698	2.897571	1.893274	0.630038	-0.304315	-0.467788	-0.461619	0.366807	-0.658433
55764	9.531283	-2.669174	2.887541	2.014422	0.871997	0.261511	-0.458085	-0.468346	0.361840	-0.663236
55765	9.819776	-2.629769	2.426684	1.784354	1.357358	0.395451	-0.448945	-0.474073	0.357104	-0.667967
55766	10.090268	-2.529928	2.357552	1.601295	1.464043	0.630705	-0.440839	-0.478741	0.352384	-0.672528
55767	10.202984	-2.161605	2.373618	1.221276	1.360976	0.725984	-0.434053	-0.482432	0.347407	-0.676880
55768	9.788675	-2.079666	3.016040	1.432146	0.688227	0.517599	-0.428507	-0.485699	0.342142	-0.680747
55769	9.351883	-2.186594	3.459576	1.778597	0.281206	0.235435	-0.424070	-0.488685	0.336672	-0.684108
55770	8.973022	-2.449587	3.598097	2.157422	0.236459	-0.078671	-0.420455	-0.491495	0.331189	-0.686997
55771	8.826938	-2.694557	3.736927	2.488831	0.253584	-0.175208	-0.417586	-0.494113	0.325852	-0.689416
55772	8.868585	-2.782198	3.874135	2.652726	0.256326	-0.101964	-0.415230	-0.496585	0.320689	-0.691481
55773	8.953364	-2.710843	3.868207	2.612529	0.318581	-0.037868	-0.413302	-0.499069	0.315785	-0.693103
55774	8.822179	-2.475282	3.727043	2.407327	0.353367	-0.224769	-0.411833	-0.501504	0.311291	-0.694252
55775	8.657599	-2.227956	3.790265	2.292122	0.189854	-0.379043	-0.410664	-0.504049	0.307131	-0.694953
55776	8.568393	-2.160926	3.737596	2.275090	0.221224	-0.494360	-0.409702	-0.506641	0.303198	-0.695363
55777	8.329024	-2.392148	3.742890	2.569969	0.304383	-0.734887	-0.408837	-0.509412	0.299459	-0.695469
55778	8.480106	-2.503686	3.759389	2.706964	0.422472	-0.603609	-0.407796	-0.512261	0.295768	-0.695566
55779	8.600908	-2.640570	4.180882	3.062323	0.214716	-0.378510	-0.406583	-0.514857	0.292085	-0.695916
55780	8.685902	-2.892507	3.889195	3.173563	0.642100	-0.407729	-0.405065	-0.517547	0.288658	-0.696235
55781	8.847582	-2.907580	3.492277	3.010347	1.047633	-0.390915	-0.403363	-0.520249	0.285591	-0.696475
55782	9.216433	-2.836312	3.916190	3.149775	0.789057	0.075690	-0.401638	-0.522676	0.283074	-0.696682
55783	9.295568	-2.763618	3.724492	3.016467	0.945752	0.082935	-0.399656	-0.525290	0.280442	-0.696921
55784	9.362478	-2.638039	3.863297	3.011737	0.803121	0.178537	-0.397437	-0.528161	0.277643	-0.697140
55785	9.364503	-2.524643	3.820355	2.929959	0.797086	0.159410	-0.394980	-0.530706	0.274732	-0.697757
55786	9.437974	-2.318482	3.711184	2.717976	0.814613	0.195934	-0.392306	-0.533030	0.271730	-0.698668
55787	9.539227	-1.918275	4.016679	2.561716	0.404880	0.389464	-0.389558	-0.535238	0.268523	-0.699758
55788	10.259617	-0.890427	3.845477	1.557395	0.175121	1.067755	-0.386736	-0.537705	0.265288	-0.700665
55789	10.945624	0.368533	3.734838	0.411726	-0.258143	1.748247	-0.384322	-0.539759	0.261964	-0.701664
55790	11.104379	1.256946	3.443390	-0.463355	-0.480604	1.861998	-0.382417	-0.541168	0.258408	-0.702936
55791	11.378673	1.498455	3.593772	-0.578053	-0.634197	2.183071	-0.380868	-0.542221	0.254768	-0.704293
55792	10.996971	1.204494	3.376523	-0.388258	-0.364201	1.741600	-0.379327	-0.543491	0.251336	-0.705379
55793	10.442288	1.157824	3.345375	-0.269727	-0.437027	1.201378	-0.377567	-0.544874	0.248272	-0.706341
55794	10.234220	1.553363	3.522456	-0.422843	-0.851326	1.080257	-0.375484	-0.546613	0.245452	-0.707092
55795	10.541501	1.881608	3.550433	-0.665395	-0.991886	1.405268	-0.373278	-0.548707	0.243202	-0.707416
55796	10.818184	1.598281	3.635170	-0.375262	-0.828115	1.675356	-0.370870	-0.551463	0.241299	-0.707191
55797	10.861703	1.413017	3.579753	-0.206614	-0.691319	1.688041	-0.368359	-0.554740	0.239352	-0.706602
55798	10.425544	1.507980	3.267977	-0.348939	-0.667598	1.190839	-0.365916	-0.558422	0.237403	-0.705627
55799	9.871470	1.668970	3.335136	-0.287308	-0.997779	0.688533	-0.363627	-0.562593	0.235486	-0.704138
55800	9.244282	1.757686	3.371459	-0.174660	-1.277897	0.099353	-0.361679	-0.567038	0.233748	-0.702152
55801	8.528848	1.915176	3.062678	-0.329805	-1.366063	-0.657715	-0.360485	-0.571227	0.232422	-0.699807
55802	8.159276	2.230071	2.924379	-0.544810	-1.584566	-1.021168	-0.360263	-0.574679	0.231439	-0.697417
55803	7.730081	2.356846	2.756236	-0.648804	-1.661610	-1.462625	-0.361095	-0.577127	0.230848	-0.695158
55804	7.630279	2.175420	2.972617	-0.312180	-1.731124	-1.524406	-0.362627	-0.579030	0.230375	-0.692930
55805	7.616599	1.955586	3.043698	-0.054012	-1.645320	-1.542811	-0.364563	-0.580495	0.230407	-0.690675
55806	7.875192	1.807667	2.288265	-0.403948	-0.933193	-1.476721	-0.366450	-0.581646	0.230695	-0.688608
55807	8.374498	1.800939	1.873805	-0.664601	-0.499231	-1.083668	-0.368094	-0.582055	0.231051	-0.687266
55808	8.890233	1.847675	2.236345	-0.483836	-0.665516	-0.497411	-0.369259	-0.581994	0.231438	-0.686562
55809	9.161670	1.852914	2.905665	-0.070810	-1.099262	-0.086487	-0.369744	-0.582198	0.232085	-0.685909
55810	9.667812	1.617790	3.082304	0.199447	-0.973140	0.414611	-0.369811	-0.582409	0.233030	-0.685373
55811	9.537874	1.417820	2.823432	0.187488	-0.700862	0.208621	-0.369607	-0.581839	0.234023	-0.685629
55812	9.908767	1.484877	2.775991	0.056854	-0.625997	0.565146	-0.368773	-0.580724	0.234585	-0.686830
55813	9.623802	1.470340	2.700344	-0.016010	-0.624713	0.270983	-0.367664	-0.578405	0.234896	-0.689271
55814	9.245068	1.260083	2.880268	0.209783	-0.706906	-0.075607	-0.365911	-0.575594	0.235344	-0.692397
55815	9.126388	1.389713	2.918607	0.053695	-0.839760	-0.167394	-0.363714	-0.572385	0.236290	-0.695884
55816	9.275569	1.447134	3.473697	0.245004	-1.247472	0.116046	-0.360875	-0.568844	0.237056	-0.699993
55817	9.153212	1.089915	3.295264	0.309697	-0.923745	-0.072167	-0.357561	-0.565535	0.238390	-0.703911
55818	9.326972	0.820420	3.365341	0.422802	-0.774872	0.097430	-0.354076	-0.561590	0.240157	-0.708217
55819	9.492476	0.316159	3.545623	0.764763	-0.561898	0.280681	-0.350421	-0.557203	0.242622	-0.712646
55820	9.823694	-0.222463	3.740657	1.102754	-0.311543	0.638707	-0.346609	-0.552862	0.246100	-0.716688
