// General information: 
//  MT Manager version: 2021.0.0 
//  XDA version: 2021.0.0 build 5908 rev 109668 built on 2021-04-19
// Device information: 
//  DeviceId: 00B43DF1
//  ProductCode: MTW2-3A7G6
//  Firmware Version: 4.3.5
//  Hardware Version: 1.1.0
// Device settings: 
//  Filter Profile: human(46.1)
//  Option Flags: Orientation Smoother Disabled, Position/Velocity Smoother Disabled, Continuous Zero Rotation Update Disabled, AHS Disabled, ICC Disabled
// Coordinate system: ENU
PacketCounter	Acc_X	Acc_Y	Acc_Z	FreeAcc_E	FreeAcc_N	FreeAcc_U	Quat_q0	Quat_q1	Quat_q2	Quat_q3
54636	-0.253135	8.553604	4.970134	-0.104599	0.022660	0.082716	0.021005	0.031240	-0.496654	-0.867132
54637	-0.241777	8.530328	4.988672	-0.113905	0.051979	0.071448	0.021267	0.031211	-0.496788	-0.867050
54638	-0.255207	8.574915	4.991609	-0.097784	0.036223	0.112008	0.021520	0.031203	-0.496906	-0.866976
54639	-0.233030	8.563005	4.996951	-0.118183	0.048280	0.103591	0.021728	0.031205	-0.497046	-0.866891
54640	-0.242539	8.595191	4.993692	-0.106441	0.033035	0.130183	0.021932	0.031217	-0.497153	-0.866824
54641	-0.227467	8.601631	4.991970	-0.119823	0.030237	0.134387	0.022139	0.031259	-0.497297	-0.866735
54642	-0.240153	8.598250	4.988538	-0.105752	0.033270	0.130190	0.022369	0.031316	-0.497435	-0.866647
54643	-0.252790	8.600155	4.939722	-0.088162	-0.006228	0.107978	0.022600	0.031394	-0.497516	-0.866592
54644	-0.273885	8.609055	5.009350	-0.071477	0.052669	0.151075	0.022776	0.031393	-0.497566	-0.866559
54645	-0.252824	8.649391	4.943867	-0.085414	-0.024775	0.152742	0.022895	0.031400	-0.497576	-0.866550
54646	-0.198393	8.638520	4.868758	-0.133251	-0.088759	0.104094	0.023027	0.031503	-0.497519	-0.866575
54647	-0.323273	8.545693	4.889414	-0.012323	-0.015431	0.038168	0.023112	0.031652	-0.497552	-0.866548
54648	-0.195688	8.693150	4.972747	-0.146874	-0.025658	0.203057	0.023145	0.031765	-0.497604	-0.866513
54649	-0.297428	8.610424	5.061201	-0.055164	0.098213	0.178856	0.023279	0.031946	-0.497421	-0.866608
54650	-0.265589	8.516687	5.066338	-0.089048	0.144412	0.099098	0.023367	0.032011	-0.497374	-0.866630
54651	-0.296501	8.518561	5.038611	-0.055988	0.121670	0.087992	0.023447	0.032049	-0.497395	-0.866615
54652	-0.280025	8.481890	4.985989	-0.067932	0.095120	0.029431	0.023477	0.032021	-0.497533	-0.866536
54653	-0.261305	8.524122	4.950621	-0.082754	0.045862	0.047771	0.023460	0.031980	-0.497727	-0.866427
54654	-0.264983	8.580189	4.939943	-0.077705	0.012855	0.091185	0.023459	0.031992	-0.497873	-0.866342
54655	-0.241410	8.597622	4.958933	-0.103061	0.020984	0.114917	0.023426	0.032000	-0.497922	-0.866315
54656	-0.259070	8.604752	4.931383	-0.083728	-0.004675	0.108017	0.023440	0.032052	-0.497904	-0.866323
54657	-0.305727	8.638168	4.968035	-0.041013	0.013602	0.156813	0.023393	0.032096	-0.497896	-0.866327
54658	-0.313037	8.608514	4.988131	-0.036609	0.045836	0.141332	0.023292	0.032081	-0.497870	-0.866345
54659	-0.299862	8.619386	4.942317	-0.046483	0.000506	0.127537	0.023165	0.032039	-0.497962	-0.866297
54660	-0.280256	8.607229	4.948001	-0.066896	0.012562	0.119131	0.022997	0.031936	-0.498105	-0.866223
54661	-0.258145	8.678644	4.926474	-0.086649	-0.040617	0.169622	0.022871	0.031864	-0.498200	-0.866175
54662	-0.222974	8.665026	4.947003	-0.123420	-0.017129	0.166777	0.022764	0.031785	-0.498252	-0.866150
54663	-0.213528	8.640507	4.934249	-0.131868	-0.015999	0.138851	0.022660	0.031730	-0.498263	-0.866149
54664	-0.243037	8.636361	4.919747	-0.101449	-0.024393	0.129084	0.022614	0.031717	-0.498244	-0.866161
54665	-0.249310	8.606670	4.940020	-0.097052	0.007842	0.113603	0.022576	0.031681	-0.498219	-0.866178
54666	-0.277164	8.596306	4.939207	-0.069270	0.013795	0.105178	0.022514	0.031659	-0.498196	-0.866194
54667	-0.287223	8.620449	4.952576	-0.060143	0.012912	0.133109	0.022411	0.031587	-0.498121	-0.866242
54668	-0.301116	8.614286	4.953876	-0.046084	0.015950	0.128897	0.022282	0.031493	-0.498013	-0.866311
54669	-0.246025	8.633051	4.958900	-0.100639	0.004411	0.145759	0.022155	0.031377	-0.497914	-0.866375
54670	-0.250409	8.644226	4.967181	-0.095906	0.004032	0.159726	0.022058	0.031262	-0.497818	-0.866437
54671	-0.244999	8.630548	4.963306	-0.099967	0.004659	0.145765	0.022013	0.031178	-0.497704	-0.866507
54672	-0.247528	8.635101	4.985949	-0.097868	0.018627	0.161078	0.021963	0.031063	-0.497514	-0.866621
54673	-0.207052	8.654070	4.978397	-0.136063	-0.004342	0.172387	0.021906	0.030969	-0.497355	-0.866717
54674	-0.169299	8.631753	5.016782	-0.175473	0.033494	0.170900	0.021919	0.030885	-0.497193	-0.866813
54675	-0.181222	8.660328	5.052961	-0.164573	0.046460	0.214141	0.021990	0.030838	-0.496930	-0.866964
54676	-0.173534	8.601991	5.000880	-0.167241	0.023315	0.137421	0.022114	0.030881	-0.496596	-0.867151
54677	-0.183266	8.544718	4.968022	-0.154427	0.016928	0.071791	0.022262	0.030920	-0.496274	-0.867330
54678	-0.181255	8.541154	4.941002	-0.153223	-0.011140	0.055142	0.022402	0.030949	-0.496025	-0.867467
54679	-0.210302	8.528690	4.976949	-0.126315	0.023007	0.063360	0.022545	0.030991	-0.495807	-0.867587
54680	-0.193611	8.519122	5.008336	-0.144971	0.048909	0.070275	0.022672	0.031051	-0.495605	-0.867697
54681	-0.212400	8.548311	5.142479	-0.136668	0.146457	0.163469	0.022783	0.031116	-0.495389	-0.867815
54682	-0.172159	8.566178	5.103695	-0.173990	0.095295	0.158139	0.022961	0.031294	-0.495096	-0.867971
54683	-0.186783	8.623271	5.220684	-0.169727	0.160736	0.266825	0.023168	0.031497	-0.494725	-0.868169
54684	-0.185055	8.539158	5.079791	-0.163131	0.070764	0.123313	0.023517	0.031944	-0.494127	-0.868484
54685	-0.260682	8.597455	5.113076	-0.092576	0.062288	0.193075	0.023781	0.032187	-0.493545	-0.868799
54686	-0.266813	8.680022	5.151493	-0.090616	0.039237	0.283950	0.024024	0.032478	-0.492844	-0.869180
54687	-0.363858	8.634626	5.371174	-0.015779	0.240365	0.359855	0.024229	0.032818	-0.491993	-0.869643
54688	-0.388845	8.767428	5.604127	-0.014231	0.353376	0.594047	0.024437	0.033285	-0.491066	-0.870143
54689	-0.344731	8.658343	5.071164	-0.019813	-0.076853	0.227036	0.024556	0.033874	-0.489721	-0.870875
54690	-0.254191	8.603118	4.948757	-0.109284	-0.187247	0.113107	0.024737	0.034683	-0.488709	-0.871406
54691	-0.353772	8.352197	5.023977	-0.028454	-0.006600	-0.059544	0.024916	0.035280	-0.487853	-0.871857
54692	-0.258335	8.441548	5.299023	-0.153729	0.159737	0.155108	0.025033	0.035613	-0.487475	-0.872051
54693	-0.263521	8.472188	5.307444	-0.155665	0.141600	0.185916	0.025412	0.036340	-0.486987	-0.872283
54694	-0.378964	8.314777	5.155999	-0.037104	0.093192	-0.022214	0.025887	0.037177	-0.486482	-0.872515
54695	-0.337427	8.245630	5.224219	-0.093250	0.175054	-0.047576	0.026404	0.037814	-0.486196	-0.872632
54696	-0.426086	8.236128	5.344402	-0.020734	0.287690	0.010488	0.026962	0.038220	-0.486258	-0.872562
54697	-0.376002	8.361142	5.345616	-0.068357	0.224289	0.115591	0.027316	0.038133	-0.486605	-0.872362
54698	-0.359511	8.534355	5.192638	-0.063963	0.009404	0.183500	0.027745	0.038147	-0.486805	-0.872236
54699	-0.403497	8.364871	5.211416	-0.018699	0.119990	0.050273	0.028169	0.037997	-0.486799	-0.872232
54700	-0.327643	8.370384	5.120231	-0.077714	0.038699	0.004639	0.028634	0.037746	-0.487288	-0.871955
54701	-0.271009	8.491683	5.194251	-0.129676	0.046041	0.144391	0.029152	0.037307	-0.487851	-0.871642
54702	-0.289444	8.601753	5.299448	-0.109489	0.095665	0.293593	0.029876	0.037139	-0.488569	-0.871223
54703	-0.380280	8.416844	5.074170	0.010349	0.023444	0.022677	0.030615	0.036888	-0.489174	-0.870868
54704	-0.363587	8.480388	4.956451	0.018035	-0.094129	0.016165	0.031303	0.036506	-0.490006	-0.870392
54705	-0.227610	8.588872	4.942532	-0.100304	-0.153348	0.097687	0.031826	0.035886	-0.490973	-0.869853
54706	-0.218292	8.611349	4.964401	-0.096422	-0.125526	0.128296	0.032407	0.035303	-0.491834	-0.869369
54707	-0.244253	8.525679	4.933404	-0.054854	-0.079654	0.040022	0.032915	0.034685	-0.493231	-0.868583
54708	-0.280679	8.416202	4.945305	-0.010115	0.026520	-0.047119	0.033517	0.034318	-0.495064	-0.867531
54709	-0.311151	8.501532	5.024559	0.026064	0.097328	0.067026	0.034113	0.033779	-0.496939	-0.866456
54710	-0.226349	8.503977	4.830421	-0.021957	-0.036952	-0.030060	0.034522	0.032620	-0.498737	-0.865451
54711	-0.125291	8.658128	4.860972	-0.098677	-0.049767	0.116837	0.035140	0.031467	-0.500979	-0.864173
54712	-0.074891	8.828050	4.924849	-0.126261	-0.026623	0.295588	0.036001	0.030443	-0.503480	-0.862720
54713	-0.163934	8.803602	5.041299	-0.027525	0.152665	0.332293	0.037191	0.029857	-0.505785	-0.861340
54714	-0.222395	8.695505	4.816980	0.068736	0.069695	0.129883	0.038427	0.029174	-0.508061	-0.859969
54715	-0.066977	8.616028	4.770237	-0.063536	0.114160	0.035056	0.039447	0.028384	-0.511150	-0.858117
54716	0.116961	8.662738	4.540674	-0.204948	-0.054885	-0.033682	0.040247	0.027679	-0.514343	-0.856192
54717	0.256370	8.858188	4.466986	-0.314029	-0.147679	0.105287	0.040984	0.027108	-0.517748	-0.854121
54718	0.299836	9.037839	4.582040	-0.345916	-0.053774	0.318673	0.041736	0.026426	-0.520964	-0.852148
54719	0.252532	9.142584	4.523726	-0.272653	-0.076554	0.387025	0.042924	0.026026	-0.523642	-0.850458
54720	0.144879	9.017673	4.326533	-0.136128	-0.122586	0.188534	0.044627	0.025946	-0.526179	-0.848805
54721	0.118314	9.034056	4.128606	-0.070485	-0.238438	0.117634	0.046506	0.025616	-0.529064	-0.846919
54722	0.224076	9.003627	4.151490	-0.156726	-0.148062	0.102123	0.048522	0.025325	-0.531869	-0.845056
54723	0.343034	8.981430	4.122014	-0.250563	-0.117496	0.071536	0.050641	0.025170	-0.534146	-0.843499
54724	0.369379	9.020061	4.022730	-0.239698	-0.174751	0.066182	0.052589	0.024647	-0.536120	-0.842141
54725	0.401498	9.181029	4.075777	-0.239776	-0.145735	0.236462	0.054634	0.024158	-0.538355	-0.840599
54726	0.477725	9.359528	4.115575	-0.278349	-0.139805	0.418130	0.056862	0.023611	-0.540290	-0.839224
54727	0.440511	9.327603	3.919994	-0.191492	-0.263180	0.309492	0.059184	0.023245	-0.541153	-0.838517
54728	0.435898	9.005682	3.791456	-0.165054	-0.225982	-0.035724	0.061409	0.022688	-0.542083	-0.837771
54729	0.404449	9.097451	4.070830	-0.127224	0.031850	0.161348	0.063596	0.022213	-0.544050	-0.836344
54730	0.595115	9.222380	4.309780	-0.303086	0.218737	0.377540	0.065613	0.021554	-0.545593	-0.835200
54731	0.524270	9.082583	4.073048	-0.189731	0.096112	0.152883	0.067731	0.021268	-0.546211	-0.834634
54732	0.441954	9.092938	3.810640	-0.050811	-0.108500	0.055611	0.069985	0.021018	-0.547630	-0.833524
54733	0.567245	9.200700	3.854162	-0.141539	-0.091579	0.177338	0.072192	0.020535	-0.549056	-0.832408
54734	0.670266	9.239011	4.085429	-0.239091	0.117688	0.307995	0.074394	0.020346	-0.549732	-0.831773
54735	0.693250	9.075261	4.044757	-0.248951	0.146321	0.143094	0.076614	0.020426	-0.549457	-0.831751
54736	0.494470	8.897160	4.112191	-0.060522	0.299395	-0.003470	0.078986	0.021003	-0.548983	-0.831828
54737	0.412968	8.800453	4.080311	0.029994	0.310961	-0.108574	0.081282	0.021405	-0.548458	-0.831943
54738	0.545899	8.718134	3.982714	-0.078641	0.226280	-0.215372	0.083279	0.021435	-0.548278	-0.831863
54739	0.671453	8.812046	3.826544	-0.151975	0.030443	-0.183492	0.085125	0.021509	-0.548497	-0.831530
54740	0.569961	8.852106	3.852318	-0.036169	0.062890	-0.142128	0.087122	0.022053	-0.548695	-0.831178
54741	0.521877	8.995324	3.999977	0.016994	0.160022	0.044398	0.089257	0.022977	-0.549041	-0.830698
54742	0.562348	9.028676	3.871030	0.009175	0.025699	0.026893	0.091008	0.023379	-0.548734	-0.830700
54743	0.476733	8.839262	3.693434	0.105658	-0.052948	-0.221686	0.092734	0.024046	-0.548508	-0.830639
54744	0.664207	8.938945	3.817316	-0.075221	-0.010463	-0.070407	0.094193	0.024412	-0.548742	-0.830310
54745	0.586833	8.901342	3.865950	-0.003186	0.064560	-0.090565	0.095598	0.024887	-0.548560	-0.830255
54746	0.710059	8.988751	3.832549	-0.102442	-0.020384	-0.015783	0.096974	0.025610	-0.548763	-0.829940
54747	0.486511	9.121179	3.836938	0.134565	-0.016886	0.093689	0.098485	0.026576	-0.548937	-0.829616
54748	0.537080	9.128390	3.802037	0.094579	-0.053690	0.089818	0.099532	0.026864	-0.549257	-0.829270
54749	0.679782	9.176008	3.857719	-0.041260	-0.040622	0.164279	0.100463	0.027053	-0.549540	-0.828964
54750	0.562597	9.234869	3.773141	0.102278	-0.105182	0.178027	0.101368	0.027090	-0.550001	-0.828547
54751	0.510291	9.226049	3.851613	0.150483	-0.008259	0.196936	0.102148	0.026729	-0.550369	-0.828218
54752	0.604122	9.055212	3.902323	0.042433	0.088930	0.065582	0.102526	0.025905	-0.550438	-0.828152
54753	0.682856	9.160795	3.963093	-0.013754	0.096884	0.191460	0.102859	0.025224	-0.550841	-0.827863
54754	0.540123	9.413676	4.140045	0.147938	0.204268	0.482232	0.103314	0.024554	-0.551146	-0.827624
54755	0.621416	9.101204	4.327764	0.011697	0.468016	0.273361	0.103592	0.023684	-0.550281	-0.828190
54756	0.746725	8.560472	4.165239	-0.144666	0.475661	-0.276374	0.103461	0.022697	-0.549434	-0.828796
54757	0.796742	8.576967	4.183659	-0.181073	0.466569	-0.249650	0.103304	0.022068	-0.549318	-0.828910
54758	0.804358	8.614185	4.261518	-0.187288	0.519238	-0.184238	0.103046	0.021536	-0.549128	-0.829082
54759	0.930545	8.609619	4.064896	-0.275330	0.315359	-0.255514	0.102631	0.021019	-0.549087	-0.829174
54760	1.084134	8.736796	4.074832	-0.407652	0.248908	-0.123360	0.102374	0.021010	-0.549289	-0.829071
54761	1.015378	8.975627	4.071203	-0.309459	0.172465	0.088931	0.102251	0.021284	-0.549277	-0.829088
54762	0.882521	8.900396	3.969054	-0.181084	0.132426	-0.030103	0.102274	0.021707	-0.549236	-0.829101
54763	0.776972	9.098663	4.118882	-0.080005	0.219156	0.202306	0.102360	0.022235	-0.549620	-0.828822
54764	0.849158	9.145414	3.979943	-0.126327	0.061724	0.196300	0.102298	0.022192	-0.549296	-0.829046
54765	0.868059	8.965826	3.816705	-0.146755	-0.025495	-0.030836	0.102497	0.022506	-0.549485	-0.828887
54766	0.750223	9.259755	4.100162	-0.037846	0.154412	0.340732	0.102809	0.022974	-0.549976	-0.828510
54767	0.770883	9.037903	3.871568	-0.054433	0.028994	0.049522	0.103018	0.022809	-0.549838	-0.828580
54768	0.865975	8.819785	3.880425	-0.175050	0.099361	-0.140268	0.103329	0.022664	-0.550000	-0.828438
54769	0.902638	9.053698	4.010427	-0.192033	0.131182	0.127818	0.103735	0.022555	-0.550391	-0.828131
54770	0.873738	9.036782	3.937381	-0.148947	0.083630	0.081787	0.104066	0.022361	-0.550499	-0.828022
54771	0.855208	9.031654	3.884743	-0.117766	0.047028	0.055306	0.104245	0.022152	-0.550798	-0.827806
54772	0.870984	9.161495	3.980646	-0.124696	0.090980	0.212945	0.104309	0.021902	-0.551080	-0.827618
54773	0.998613	8.985567	3.676467	-0.221476	-0.140949	-0.056401	0.104106	0.021238	-0.551227	-0.827562
54774	1.085558	9.116603	3.820437	-0.304839	-0.068525	0.126578	0.104217	0.021196	-0.551600	-0.827301
54775	0.784976	8.986321	4.014997	-0.058849	0.222372	0.058353	0.104259	0.021025	-0.551734	-0.827211
54776	0.916622	9.193272	3.795876	-0.117064	-0.068268	0.174641	0.103854	0.020154	-0.552409	-0.826832
54777	1.088887	9.085747	3.707178	-0.281103	-0.132119	0.055603	0.103611	0.019645	-0.552675	-0.826698
54778	0.898688	9.123486	3.798101	-0.101012	-0.014297	0.110053	0.103375	0.019391	-0.553312	-0.826307
54779	0.906497	9.159229	3.841518	-0.108976	0.024520	0.160176	0.103011	0.018970	-0.553810	-0.826029
54780	0.986752	9.114592	3.739864	-0.176991	-0.055860	0.086887	0.102652	0.018563	-0.554298	-0.825755
54781	0.882977	9.014764	3.835842	-0.104092	0.098157	0.022902	0.102363	0.018340	-0.554677	-0.825541
54782	1.012304	9.013245	3.733602	-0.215410	-0.009192	-0.006739	0.101839	0.017891	-0.555186	-0.825274
54783	0.900524	9.076253	3.860102	-0.118367	0.119363	0.089909	0.101597	0.018006	-0.555875	-0.824837
54784	0.755915	9.253197	3.897511	0.040159	0.133179	0.255296	0.101062	0.017611	-0.556460	-0.824517
54785	0.991411	9.119537	3.740804	-0.185977	0.002184	0.092254	0.100345	0.016972	-0.556699	-0.824457
54786	0.979070	9.068568	3.642326	-0.167322	-0.061198	0.007307	0.099835	0.016746	-0.557002	-0.824319
54787	0.804863	9.203323	3.795587	-0.002458	0.073236	0.174808	0.099443	0.016634	-0.557489	-0.824039
54788	0.905807	9.236608	3.764133	-0.092811	0.024271	0.202047	0.098837	0.016066	-0.557888	-0.823853
54789	1.123812	9.179480	3.600115	-0.291447	-0.137825	0.106118	0.098351	0.015829	-0.558203	-0.823702
54790	1.002672	9.129604	3.732712	-0.203401	0.028619	0.099223	0.098118	0.016088	-0.558336	-0.823635
54791	0.964902	9.152155	3.688852	-0.163323	-0.008943	0.100629	0.097973	0.016302	-0.558572	-0.823488
54792	0.809841	9.202487	3.774873	-0.021683	0.085809	0.166463	0.097902	0.016518	-0.558796	-0.823341
54793	0.917450	9.117322	3.728830	-0.136574	0.057930	0.079200	0.097561	0.016453	-0.558969	-0.823265
54794	0.936903	9.081560	3.712826	-0.163325	0.056581	0.041637	0.097390	0.016722	-0.559211	-0.823115
54795	0.803638	9.106745	3.744426	-0.040842	0.106813	0.065890	0.097260	0.017057	-0.559504	-0.822925
54796	0.906413	9.177945	3.697654	-0.130715	0.025284	0.122662	0.096971	0.017086	-0.559700	-0.822825
54797	0.979021	9.189218	3.618141	-0.194641	-0.059940	0.109493	0.096863	0.017420	-0.559981	-0.822639
54798	0.806537	9.216171	3.772780	-0.052466	0.109475	0.177679	0.096842	0.017970	-0.560196	-0.822483
54799	0.775909	9.226434	3.617612	-0.007299	-0.027088	0.127908	0.096652	0.018260	-0.560391	-0.822366
54800	0.812211	9.173271	3.570416	-0.051395	-0.059096	0.064069	0.096437	0.018671	-0.560237	-0.822488
54801	0.824065	9.212210	3.565432	-0.066944	-0.080093	0.099189	0.096179	0.019160	-0.560430	-0.822375
54802	0.700741	9.331880	3.764246	0.030826	0.086248	0.273747	0.096014	0.019628	-0.560540	-0.822308
54803	0.842916	9.226891	3.657962	-0.114330	-0.003432	0.147917	0.095763	0.019750	-0.560309	-0.822492
54804	0.791845	9.146796	3.683054	-0.084941	0.053306	0.079013	0.095741	0.020239	-0.560300	-0.822489
54805	0.677035	9.220187	3.719922	0.026154	0.081943	0.152283	0.095592	0.020356	-0.560291	-0.822509
54806	0.841505	9.117668	3.566505	-0.129268	-0.053223	0.012811	0.095265	0.020265	-0.560370	-0.822496
54807	0.825443	9.227499	3.611489	-0.109624	-0.045462	0.129991	0.095183	0.020565	-0.560476	-0.822426
54808	0.694131	9.286881	3.734989	0.003828	0.071707	0.220904	0.094993	0.020697	-0.560433	-0.822474
54809	0.800889	9.195577	3.496159	-0.080981	-0.137899	0.056336	0.094622	0.020557	-0.560324	-0.822594
54810	0.804934	9.201186	3.591042	-0.101263	-0.055540	0.096500	0.094409	0.020713	-0.560290	-0.822638
54811	0.814475	9.208589	3.578677	-0.112024	-0.072661	0.099456	0.094234	0.020814	-0.560247	-0.822684
54812	0.739806	9.220826	3.692904	-0.057519	0.037671	0.147420	0.094214	0.021074	-0.559991	-0.822855
54813	0.714783	9.189495	3.673817	-0.036088	0.030240	0.109633	0.094005	0.020936	-0.559818	-0.823000
54814	0.791248	9.164483	3.715885	-0.121116	0.059798	0.107160	0.093834	0.020941	-0.559681	-0.823112
54815	0.802167	9.096128	3.745419	-0.146563	0.104874	0.055377	0.093720	0.020978	-0.559501	-0.823247
54816	0.732300	9.044408	3.810651	-0.095393	0.191793	0.026660	0.093648	0.021004	-0.559371	-0.823343
54817	0.773447	9.065285	3.774365	-0.128286	0.140143	0.035528	0.093531	0.020953	-0.559215	-0.823463
54818	0.789927	9.123725	3.750129	-0.134088	0.089987	0.081944	0.093468	0.021019	-0.559016	-0.823604
54819	0.743065	8.992060	3.732600	-0.103625	0.122822	-0.049708	0.093278	0.020969	-0.558729	-0.823822
54820	0.842799	9.025226	3.652995	-0.187879	0.016944	-0.041618	0.093074	0.021058	-0.558787	-0.823803
54821	0.800672	9.105442	3.723041	-0.150532	0.059728	0.055694	0.092969	0.021286	-0.558697	-0.823869
54822	0.802293	9.095119	3.658962	-0.148613	0.003411	0.022492	0.092894	0.021484	-0.558757	-0.823832
54823	0.748758	9.159087	3.722339	-0.102023	0.049587	0.101568	0.092986	0.021891	-0.558811	-0.823775
54824	0.655922	9.203661	3.765074	-0.016159	0.090625	0.152498	0.093083	0.022170	-0.558845	-0.823734
54825	0.660352	9.251303	3.717423	-0.010068	0.029509	0.179356	0.093083	0.022266	-0.558847	-0.823729
54826	0.711359	9.219581	3.709582	-0.064258	0.022321	0.150398	0.093129	0.022371	-0.558699	-0.823821
54827	0.751227	9.116513	3.667219	-0.110749	0.008965	0.041819	0.093155	0.022406	-0.558553	-0.823917
54828	0.824536	9.202146	3.600854	-0.163428	-0.095886	0.101423	0.093306	0.022668	-0.558684	-0.823804
54829	0.743276	9.188873	3.687537	-0.101505	0.003969	0.115830	0.093581	0.023093	-0.558636	-0.823793
54830	0.700151	9.157473	3.708565	-0.069843	0.042018	0.091672	0.093781	0.023417	-0.558681	-0.823730
54831	0.710875	9.094988	3.719791	-0.092680	0.072731	0.038562	0.093922	0.023644	-0.558682	-0.823708
54832	0.690598	9.127037	3.651082	-0.061028	0.003567	0.041570	0.094065	0.023906	-0.558813	-0.823594
54833	0.643332	9.218822	3.782292	-0.025252	0.102822	0.172055	0.094184	0.024103	-0.558900	-0.823517
54834	0.759328	9.202650	3.670207	-0.124739	-0.015522	0.123105	0.094220	0.024072	-0.558846	-0.823550
54835	0.800764	9.157866	3.644147	-0.167074	-0.033678	0.074602	0.094417	0.024279	-0.558705	-0.823617
54836	0.609685	9.179169	3.680081	0.014693	0.027772	0.095434	0.094635	0.024694	-0.558882	-0.823460
54837	0.562557	9.386659	3.845898	0.058859	0.117463	0.346028	0.094781	0.024894	-0.558868	-0.823446
54838	0.736334	9.082911	3.638119	-0.118198	-0.002473	-0.001297	0.094822	0.024822	-0.558571	-0.823645
54839	0.763622	9.013885	3.681728	-0.160024	0.054016	-0.047451	0.095172	0.025142	-0.558634	-0.823552
54840	0.629323	9.153469	3.841838	-0.036002	0.179862	0.132568	0.095442	0.025307	-0.558804	-0.823401
54841	0.713665	9.012400	3.752749	-0.122564	0.133834	-0.025815	0.095647	0.025377	-0.558786	-0.823387
54842	0.660669	9.044586	3.759460	-0.067754	0.141304	0.003116	0.095808	0.025543	-0.559012	-0.823210
54843	0.694383	9.171928	3.730394	-0.080383	0.069110	0.112584	0.095894	0.025530	-0.559251	-0.823038
54844	0.778375	9.239718	3.624128	-0.136698	-0.063485	0.141701	0.096149	0.025624	-0.559382	-0.822916
54845	0.672307	9.216540	3.720213	-0.050011	0.056550	0.148783	0.096531	0.025836	-0.559522	-0.822769
54846	0.639217	9.196807	3.650360	-0.007034	0.008965	0.102697	0.096722	0.025704	-0.559614	-0.822689
54847	0.727624	9.216306	3.655870	-0.088914	-0.008377	0.128496	0.097071	0.025821	-0.559601	-0.822652
54848	0.632901	9.155149	3.728764	-0.013025	0.098712	0.092417	0.097351	0.025818	-0.559627	-0.822602
54849	0.741986	9.305437	3.679159	-0.088843	-0.016726	0.220743	0.097620	0.025715	-0.559855	-0.822418
54850	0.744669	9.185405	3.658393	-0.099592	0.007317	0.101952	0.097971	0.025699	-0.559720	-0.822469
54851	0.721337	9.090220	3.692556	-0.091129	0.075920	0.024657	0.098260	0.025725	-0.559773	-0.822397
54852	0.719114	9.192537	3.659347	-0.067131	0.012956	0.107293	0.098467	0.025624	-0.559907	-0.822284
54853	0.776980	9.227939	3.636890	-0.111867	-0.027723	0.135792	0.098719	0.025554	-0.560023	-0.822177
54854	0.711406	9.165815	3.738376	-0.068649	0.102239	0.110949	0.099006	0.025555	-0.560071	-0.822110
54855	0.721675	9.154334	3.674919	-0.066772	0.045914	0.077768	0.099217	0.025477	-0.559972	-0.822155
54856	0.769796	9.095150	3.645519	-0.113623	0.028206	0.015357	0.099485	0.025478	-0.559872	-0.822190
54857	0.776084	9.126184	3.702358	-0.121493	0.067080	0.065457	0.099692	0.025428	-0.559834	-0.822193
54858	0.779358	9.183334	3.720822	-0.116973	0.062444	0.125520	0.099910	0.025416	-0.559751	-0.822223
54859	0.695859	9.155534	3.743417	-0.039776	0.108757	0.102341	0.100061	0.025333	-0.559757	-0.822203
54860	0.766504	9.184479	3.753624	-0.103471	0.093861	0.137808	0.100185	0.025228	-0.559697	-0.822232
54861	0.785875	9.131568	3.679296	-0.115035	0.038924	0.062818	0.100371	0.025229	-0.559610	-0.822269
54862	0.712263	9.116477	3.721348	-0.049688	0.096216	0.059201	0.100656	0.025299	-0.559579	-0.822253
54863	0.794753	9.179036	3.679558	-0.112056	0.020560	0.107620	0.100796	0.025131	-0.559635	-0.822203
54864	0.826403	9.196911	3.640958	-0.131258	-0.028161	0.112264	0.101060	0.025204	-0.559472	-0.822279
54865	0.758944	9.158210	3.662082	-0.072254	0.015705	0.079440	0.101276	0.025274	-0.559413	-0.822290
54866	0.809888	9.184591	3.719273	-0.125682	0.046313	0.128524	0.101477	0.025282	-0.559243	-0.822381
54867	0.817778	9.114658	3.640528	-0.128063	-0.005250	0.035295	0.101605	0.025243	-0.559200	-0.822395
54868	0.724064	9.194751	3.663185	-0.027913	0.006214	0.111315	0.101893	0.025426	-0.559215	-0.822344
54869	0.796460	9.247138	3.757039	-0.105021	0.058775	0.199544	0.102078	0.025386	-0.559123	-0.822385
54870	0.860904	9.106495	3.537448	-0.149581	-0.109710	-0.007152	0.102244	0.025411	-0.558893	-0.822520
54871	0.758873	9.288503	3.742970	-0.058312	0.034800	0.230091	0.102561	0.025775	-0.559060	-0.822356
54872	0.695287	9.190273	3.866155	-0.029359	0.194381	0.179962	0.102783	0.025713	-0.558854	-0.822470
54873	0.833885	8.968287	3.716048	-0.166950	0.102634	-0.071223	0.102991	0.025584	-0.558697	-0.822555
54874	0.826260	9.009602	3.727016	-0.153198	0.101387	-0.029409	0.103293	0.025747	-0.558957	-0.822335
54875	0.711937	9.157667	3.824409	-0.036659	0.167487	0.135500	0.103647	0.025943	-0.559126	-0.822169
54876	0.734702	9.138496	3.800803	-0.056385	0.151288	0.110616	0.103877	0.025933	-0.559208	-0.822085
54877	0.758944	9.231249	3.659957	-0.041045	-0.013606	0.146497	0.103992	0.025819	-0.559190	-0.822086
54878	0.831107	9.137160	3.607833	-0.112458	-0.047210	0.045305	0.103961	0.025583	-0.558849	-0.822329
54879	0.834639	9.113228	3.636653	-0.121929	-0.017916	0.034018	0.104002	0.025628	-0.558779	-0.822370
54880	0.729248	9.297029	3.887125	-0.034005	0.169207	0.289120	0.104059	0.025632	-0.558886	-0.822290
54881	0.784733	9.387167	3.729122	-0.047886	-0.015402	0.318380	0.103818	0.025277	-0.558986	-0.822264
54882	0.867098	9.257517	3.647272	-0.130155	-0.061977	0.174069	0.103542	0.024903	-0.558863	-0.822394
54883	0.936665	9.085036	3.647458	-0.219031	-0.019091	0.019445	0.103306	0.024542	-0.558684	-0.822556
54884	0.889612	8.921978	3.573319	-0.180724	-0.025124	-0.162381	0.103195	0.024295	-0.558444	-0.822740
54885	0.866867	9.008414	3.632234	-0.154274	0.000505	-0.062184	0.103319	0.024402	-0.558443	-0.822722
54886	0.739843	9.084330	3.697808	-0.030114	0.060401	0.023046	0.103364	0.024412	-0.558511	-0.822670
54887	0.799298	9.209568	3.747474	-0.078678	0.053752	0.161755	0.103324	0.024391	-0.558746	-0.822516
54888	0.819514	9.140960	3.678467	-0.097443	0.013600	0.074182	0.103155	0.024283	-0.558779	-0.822518
54889	0.903618	9.101806	3.667493	-0.183596	0.001033	0.040038	0.103085	0.024247	-0.558814	-0.822504
54890	0.789751	9.026171	3.780897	-0.101975	0.154071	0.003448	0.103183	0.024385	-0.558781	-0.822510
54891	0.765483	9.078018	3.746534	-0.066622	0.112704	0.036970	0.103201	0.024430	-0.559097	-0.822292
54892	0.728720	9.177100	3.754246	-0.018552	0.098204	0.128870	0.103244	0.024433	-0.559245	-0.822185
54893	0.830115	9.204075	3.744707	-0.111462	0.063624	0.157791	0.103186	0.024279	-0.559417	-0.822080
54894	0.838100	9.140331	3.646743	-0.111274	-0.002328	0.063263	0.103250	0.024248	-0.559502	-0.822015
54895	0.802069	9.234327	3.670507	-0.065832	-0.002479	0.156484	0.103374	0.024273	-0.559692	-0.821870
54896	0.717967	9.221451	3.645759	0.019233	0.000782	0.129235	0.103362	0.024178	-0.559866	-0.821755
54897	0.788637	9.259391	3.625223	-0.039162	-0.042785	0.162138	0.103228	0.023907	-0.559894	-0.821761
54898	0.882399	9.208104	3.552425	-0.123764	-0.111860	0.094870	0.103139	0.023726	-0.559740	-0.821882
54899	0.791758	9.257164	3.630226	-0.038580	-0.042494	0.162142	0.103136	0.023622	-0.559620	-0.821968
54900	0.875410	9.275396	3.686459	-0.123845	-0.017221	0.205978	0.102904	0.023260	-0.559457	-0.822118
54901	0.881191	9.187024	3.668879	-0.136852	-0.011418	0.118058	0.102822	0.023209	-0.558971	-0.822460
54902	0.784761	9.149632	3.823082	-0.071771	0.148767	0.133179	0.102725	0.023220	-0.558353	-0.822891
54903	0.829509	9.223239	3.604355	-0.067786	-0.103745	0.123721	0.102438	0.022842	-0.557494	-0.823520
54904	1.085674	9.132577	3.634895	-0.332292	-0.117376	0.070170	0.102344	0.022796	-0.556445	-0.824242
54905	0.857125	8.730564	3.746754	-0.185098	0.150974	-0.276520	0.102536	0.023334	-0.555668	-0.824727
54906	0.694504	8.996664	4.043039	-0.040765	0.355184	0.068640	0.102573	0.023676	-0.556134	-0.824399
54907	0.782343	9.117703	3.922365	-0.091969	0.189635	0.141462	0.102589	0.023506	-0.556114	-0.824415
54908	0.977582	9.005764	3.874649	-0.289155	0.148421	0.034481	0.102638	0.023468	-0.556250	-0.824318
54909	0.882293	9.042220	3.835342	-0.185351	0.121609	0.046364	0.102708	0.023633	-0.556371	-0.824223
54910	0.876446	9.007404	3.792373	-0.179605	0.097331	-0.002394	0.102712	0.023723	-0.556390	-0.824208
54911	0.982648	9.069326	3.778751	-0.274566	0.044586	0.057462	0.102825	0.023936	-0.556634	-0.824022
54912	0.907452	9.135710	3.762511	-0.191752	0.025398	0.107178	0.103043	0.024216	-0.556752	-0.823907
54913	0.901367	9.157527	3.581246	-0.155178	-0.142834	0.059172	0.103174	0.024308	-0.556966	-0.823743
54914	0.920407	9.167188	3.672630	-0.189079	-0.063327	0.103609	0.103462	0.024708	-0.557039	-0.823646
54915	0.806379	9.171315	3.729705	-0.090002	0.013237	0.120373	0.103618	0.025019	-0.557227	-0.823490
54916	0.913934	9.211610	3.739261	-0.194722	-0.010359	0.168950	0.103732	0.025309	-0.557376	-0.823366
54917	0.808447	9.125801	3.737534	-0.108215	0.043575	0.081219	0.103967	0.025764	-0.557586	-0.823180
54918	0.775420	9.255711	3.754353	-0.064747	0.025302	0.205286	0.104132	0.026044	-0.557840	-0.822978
54919	0.820819	9.168686	3.771561	-0.126762	0.065397	0.134316	0.104294	0.026251	-0.557862	-0.822936
54920	0.855798	9.031741	3.683031	-0.168149	0.027468	-0.022875	0.104476	0.026549	-0.558040	-0.822782
54921	0.731205	9.215783	3.759737	-0.037095	0.064088	0.167065	0.104686	0.026914	-0.558326	-0.822550
54922	0.802578	9.152805	3.769540	-0.119342	0.083552	0.117377	0.104739	0.026933	-0.558321	-0.822546
54923	0.838080	9.066507	3.559561	-0.132545	-0.083990	-0.037731	0.104841	0.027170	-0.558470	-0.822424
54924	0.683848	9.231844	3.675687	0.017985	0.001499	0.147480	0.104981	0.027507	-0.558769	-0.822192
54925	0.807555	9.278993	3.673577	-0.097785	-0.039340	0.199102	0.105018	0.027499	-0.558746	-0.822203
54926	0.815518	9.224794	3.705667	-0.118948	0.005205	0.161263	0.105253	0.027759	-0.558602	-0.822262
54927	0.625679	9.150076	3.805099	0.038190	0.157981	0.115441	0.105536	0.027980	-0.558430	-0.822335
54928	0.712073	9.125986	3.742616	-0.037457	0.087969	0.076130	0.105538	0.027813	-0.558309	-0.822423
54929	0.848902	9.183086	3.766064	-0.165042	0.058112	0.147349	0.105710	0.027917	-0.558182	-0.822483
54930	0.804046	9.106273	3.776439	-0.133322	0.100399	0.076920	0.105891	0.028018	-0.558014	-0.822571
54931	0.827379	9.118836	3.645105	-0.132054	-0.030616	0.041557	0.106134	0.028232	-0.558024	-0.822525
54932	0.700791	9.163694	3.763063	-0.022856	0.087197	0.117918	0.106338	0.028391	-0.557935	-0.822554
54933	0.772092	9.182649	3.757127	-0.088379	0.058450	0.138289	0.106392	0.028391	-0.557876	-0.822587
54934	0.756717	9.116182	3.755834	-0.081389	0.080552	0.075213	0.106515	0.028402	-0.557654	-0.822721
54935	0.810987	9.140110	3.769997	-0.131359	0.068609	0.106497	0.106614	0.028365	-0.557433	-0.822859
54936	0.795848	9.120558	3.660937	-0.098826	-0.024542	0.046828	0.106698	0.028340	-0.557325	-0.822922
54937	0.821292	9.188677	3.715910	-0.122342	-0.006659	0.132124	0.106816	0.028424	-0.557168	-0.823010
54938	0.860438	9.214038	3.714326	-0.155984	-0.030066	0.157761	0.106965	0.028508	-0.556921	-0.823155
54939	0.829307	9.093589	3.670182	-0.134444	-0.029052	0.027660	0.107174	0.028658	-0.556514	-0.823398
54940	0.668220	9.179050	3.726941	0.024328	0.021959	0.116587	0.107351	0.028919	-0.556506	-0.823371
54941	0.645264	9.338178	3.914007	0.036703	0.139162	0.332098	0.107546	0.029000	-0.556331	-0.823462
54942	0.797149	8.918643	3.755094	-0.140603	0.101832	-0.104535	0.107675	0.028804	-0.555795	-0.823814
54943	0.786195	9.069053	3.868915	-0.124077	0.148190	0.076548	0.108057	0.028954	-0.555734	-0.823799
54944	0.759841	9.057199	3.883206	-0.099058	0.168498	0.069179	0.108339	0.028845	-0.555532	-0.823902
54945	0.770189	8.986602	3.806628	-0.101651	0.116824	-0.023988	0.108493	0.028760	-0.555284	-0.824052
54946	0.764766	9.008195	3.831992	-0.094992	0.130429	0.005183	0.108575	0.028720	-0.555248	-0.824067
54947	0.895051	9.224502	3.735026	-0.171075	-0.063752	0.177790	0.108635	0.028581	-0.555154	-0.824127
54948	0.868886	9.136695	3.742737	-0.157610	-0.023943	0.097753	0.108814	0.028671	-0.554892	-0.824277
54949	0.761306	9.035260	3.836296	-0.082522	0.115603	0.031727	0.108933	0.028670	-0.554737	-0.824366
54950	0.705653	9.076026	3.863652	-0.025803	0.137039	0.075717	0.108983	0.028637	-0.554793	-0.824322
54951	0.817115	9.152547	3.800274	-0.110134	0.026907	0.130453	0.109033	0.028519	-0.554611	-0.824442
54952	0.874000	9.109688	3.777660	-0.166351	0.005738	0.086469	0.109033	0.028528	-0.554480	-0.824530
54953	0.770805	9.115446	3.885877	-0.084358	0.122012	0.125297	0.109156	0.028698	-0.554418	-0.824550
54954	0.718025	9.150214	3.883492	-0.026835	0.115209	0.152728	0.109219	0.028626	-0.554166	-0.824713
54955	0.862641	9.092413	3.770109	-0.153744	-0.004844	0.066896	0.109197	0.028478	-0.553864	-0.824924
54956	0.765193	9.002371	3.884765	-0.090467	0.145708	0.020429	0.109256	0.028550	-0.553574	-0.825108
54957	0.788818	9.006672	3.783749	-0.094474	0.043378	-0.012263	0.109130	0.028383	-0.553528	-0.825162
54958	0.829872	9.144749	3.827955	-0.121943	0.024979	0.134818	0.109113	0.028484	-0.553557	-0.825141
54959	0.754805	9.107068	3.893526	-0.066484	0.111427	0.119640	0.109061	0.028458	-0.553303	-0.825319
54960	0.829906	9.025412	3.754521	-0.126863	-0.007985	-0.003147	0.108901	0.028338	-0.553034	-0.825524
54961	0.823653	9.082126	3.822973	-0.125594	0.030072	0.074772	0.108841	0.028539	-0.552894	-0.825619
54962	0.779528	9.187140	3.703103	-0.048982	-0.109672	0.122591	0.108656	0.028516	-0.552842	-0.825679
54963	0.895687	9.254821	3.730187	-0.158263	-0.137058	0.203521	0.108492	0.028504	-0.552699	-0.825797
54964	0.807437	8.915442	3.951177	-0.162612	0.197693	-0.030902	0.108586	0.028842	-0.552275	-0.826056
54965	0.651767	8.781079	3.962561	-0.035866	0.292816	-0.161419	0.108563	0.028903	-0.552969	-0.825593
54966	0.782097	9.107246	3.929252	-0.110977	0.132355	0.135316	0.108489	0.028782	-0.553570	-0.825204
54967	0.835627	9.160366	3.747002	-0.124629	-0.048009	0.118714	0.108351	0.028661	-0.554292	-0.824742
54968	0.880938	9.288738	3.777262	-0.156593	-0.065966	0.251881	0.108350	0.028718	-0.554419	-0.824655
54969	0.742029	8.966575	3.746202	-0.063925	0.055047	-0.067074	0.108379	0.028746	-0.554688	-0.824469
54970	0.740056	8.945670	3.975751	-0.105980	0.280529	0.000026	0.108304	0.028716	-0.555176	-0.824151
54971	0.777940	8.946447	3.902847	-0.131571	0.218319	-0.024361	0.108110	0.028584	-0.555764	-0.823785
54972	0.706423	9.062099	3.935249	-0.052187	0.237579	0.089215	0.108072	0.028549	-0.556477	-0.823310
54973	0.701844	9.080524	3.817936	-0.024326	0.140616	0.061762	0.107939	0.028218	-0.557052	-0.822950
54974	0.870178	9.382120	3.622574	-0.109256	-0.164004	0.280161	0.107830	0.027996	-0.557721	-0.822518
54975	0.855969	9.314654	3.626860	-0.104995	-0.127591	0.218378	0.107769	0.027913	-0.557530	-0.822659
54976	0.872331	9.258792	3.564906	-0.119407	-0.168296	0.144830	0.107617	0.027973	-0.557717	-0.822549
54977	0.775316	9.254074	3.773847	-0.065009	0.045112	0.211017	0.107670	0.028270	-0.557604	-0.822609
54978	0.729798	8.956095	3.793056	-0.068922	0.173959	-0.060944	0.107577	0.028203	-0.557527	-0.822676
54979	0.850924	9.006652	3.827674	-0.185318	0.161330	0.007423	0.107506	0.028140	-0.557542	-0.822677
54980	0.692578	9.007219	3.910953	-0.045977	0.274930	0.027410	0.107603	0.028254	-0.557878	-0.822432
54981	0.696152	8.977779	3.801204	-0.034261	0.193636	-0.040502	0.107648	0.028043	-0.558317	-0.822136
54982	0.796919	9.202402	3.703982	-0.080867	0.019250	0.138787	0.107734	0.027873	-0.559016	-0.821655
54983	0.869658	9.370701	3.558757	-0.099292	-0.173336	0.246695	0.107850	0.027628	-0.559423	-0.821371
54984	0.899815	9.343305	3.512346	-0.120972	-0.203489	0.206671	0.108104	0.027569	-0.559727	-0.821133
54985	0.738467	9.318712	3.569753	0.025621	-0.100442	0.193117	0.108539	0.027666	-0.560014	-0.820877
54986	0.710696	9.219244	3.671713	0.025066	0.039327	0.136124	0.108859	0.027462	-0.560187	-0.820723
54987	0.771698	9.246415	3.676076	-0.024821	0.027359	0.167486	0.109182	0.027262	-0.560465	-0.820497
54988	0.722030	9.369471	3.689473	0.046269	0.015044	0.282764	0.109493	0.026983	-0.560672	-0.820323
54989	0.780267	9.342526	3.712518	-0.008828	0.036010	0.270616	0.109679	0.026417	-0.560617	-0.820354
54990	0.820610	9.189265	3.722571	-0.061775	0.083553	0.135313	0.109941	0.026046	-0.560109	-0.820678
54991	0.676774	9.066372	3.693379	0.075436	0.121290	-0.000564	0.109956	0.025426	-0.559806	-0.820902
54992	0.772167	9.081445	3.705939	-0.006344	0.103950	0.025606	0.109956	0.024766	-0.559733	-0.820972
54993	0.868995	9.197981	3.638240	-0.060649	-0.018917	0.116600	0.109816	0.024021	-0.559681	-0.821049
54994	0.920387	9.159016	3.586379	-0.097901	-0.065917	0.065716	0.109719	0.023412	-0.559466	-0.821225
54995	0.806434	9.154470	3.772103	-0.010875	0.124626	0.120477	0.109831	0.023154	-0.559193	-0.821404
54996	0.846767	9.120996	3.802027	-0.052308	0.148522	0.103974	0.109631	0.022479	-0.558850	-0.821683
54997	1.169376	9.168726	3.667191	-0.328345	-0.068587	0.125558	0.109323	0.021894	-0.558307	-0.822108
54998	1.106622	9.086638	3.732159	-0.286431	0.019173	0.068516	0.109240	0.021888	-0.557705	-0.822528
54999	0.991513	9.024231	3.799363	-0.194484	0.114823	0.026214	0.109001	0.021773	-0.557343	-0.822808
55000	1.095667	8.973107	3.734621	-0.292908	0.042692	-0.036343	0.108749	0.021630	-0.556932	-0.823124
55001	1.106276	8.956393	3.799182	-0.316852	0.097352	-0.026742	0.108557	0.021646	-0.556676	-0.823322
55002	1.061033	9.084250	3.809934	-0.256725	0.067841	0.091578	0.108337	0.021637	-0.556633	-0.823380
55003	1.066201	9.183563	3.641794	-0.222225	-0.122776	0.120731	0.108120	0.021711	-0.556616	-0.823418
55004	0.889759	9.091626	3.765530	-0.088715	0.056220	0.067470	0.108008	0.021986	-0.556452	-0.823536
55005	0.890445	9.144062	3.752344	-0.083222	0.023468	0.110990	0.107616	0.021878	-0.556487	-0.823567
55006	0.959292	9.256389	3.695274	-0.126441	-0.082118	0.198971	0.107456	0.021897	-0.556506	-0.823574
55007	0.868806	9.154427	3.757073	-0.064436	0.026237	0.120546	0.107329	0.021808	-0.556285	-0.823743
55008	0.875907	9.009056	3.671387	-0.078821	-0.006062	-0.045234	0.107149	0.021645	-0.556180	-0.823841
55009	0.920181	9.161091	3.827067	-0.124576	0.071907	0.157171	0.106976	0.021662	-0.556177	-0.823865
55010	0.913394	9.165241	3.862355	-0.125054	0.100324	0.173704	0.106856	0.021742	-0.555898	-0.824067
55011	0.906714	9.111950	3.670562	-0.097582	-0.062889	0.051860	0.106698	0.021788	-0.555502	-0.824353
55012	0.817812	9.161869	3.646964	-0.002827	-0.092966	0.081773	0.106405	0.021945	-0.555186	-0.824600
55013	0.851741	9.409617	3.793144	-0.027039	-0.063545	0.368153	0.106162	0.022121	-0.554828	-0.824867
55014	0.856422	9.138176	3.814464	-0.078758	0.038823	0.126232	0.105962	0.022170	-0.554165	-0.825337
55015	0.838233	8.900544	3.859689	-0.105833	0.157135	-0.076999	0.105756	0.022251	-0.553882	-0.825551
55016	0.805895	9.030140	3.874708	-0.059426	0.124701	0.045668	0.105536	0.022221	-0.553670	-0.825723
55017	0.907771	9.053085	3.828265	-0.148920	0.047531	0.057144	0.105227	0.022079	-0.553404	-0.825945
55018	0.917270	8.982723	3.860424	-0.174667	0.092451	0.005383	0.105017	0.022092	-0.553034	-0.826219
55019	0.889971	9.005570	3.918890	-0.154985	0.137282	0.046682	0.104742	0.021962	-0.552942	-0.826319
55020	0.917364	9.027907	3.868743	-0.171522	0.074219	0.050218	0.104552	0.021956	-0.552730	-0.826485
55021	0.953449	9.014040	3.791637	-0.199126	-0.001879	0.010695	0.104423	0.022091	-0.552661	-0.826543
55022	0.930500	9.095660	3.818284	-0.171563	-0.004308	0.094214	0.104282	0.022126	-0.552612	-0.826593
55023	1.039579	9.061934	3.812305	-0.285159	-0.022787	0.069175	0.104258	0.022391	-0.552419	-0.826718
55024	0.955096	9.060269	3.859183	-0.215291	0.034061	0.079050	0.104385	0.022837	-0.552377	-0.826718
55025	0.847323	9.008472	3.948909	-0.137668	0.155042	0.057541	0.104518	0.023273	-0.552370	-0.826693
55026	0.816879	9.042170	3.974969	-0.112709	0.171175	0.096223	0.104567	0.023631	-0.552299	-0.826724
55027	0.937398	9.011471	3.971447	-0.239971	0.149827	0.075572	0.104473	0.023983	-0.552027	-0.826907
55028	0.951657	8.859741	4.072666	-0.299697	0.282591	-0.024042	0.104441	0.024587	-0.551411	-0.827305
55029	0.871335	8.831485	4.058653	-0.232993	0.283356	-0.061153	0.104256	0.025189	-0.551012	-0.827576
55030	0.903425	8.892053	3.902345	-0.242139	0.102546	-0.063640	0.103909	0.025811	-0.550676	-0.827824
55031	0.898362	9.019441	3.809523	-0.218225	-0.034866	0.016910	0.103675	0.026639	-0.550524	-0.827928
55032	0.802809	9.177574	3.799632	-0.116319	-0.088108	0.151661	0.103611	0.027544	-0.550336	-0.828032
55033	0.760683	9.228705	3.818388	-0.084149	-0.086783	0.202955	0.103710	0.028294	-0.550181	-0.828097
55034	0.667078	9.143133	3.775392	-0.008225	-0.078530	0.101404	0.103975	0.029119	-0.550118	-0.828077
55035	0.605457	9.139265	3.849434	0.029031	0.001217	0.122605	0.104256	0.029871	-0.550109	-0.828021
55036	0.715684	9.161136	3.827380	-0.079324	-0.050107	0.141139	0.104505	0.030389	-0.550149	-0.827944
55037	0.705386	9.216677	3.748965	-0.054098	-0.136932	0.161167	0.104916	0.031002	-0.550347	-0.827738
55038	0.656090	9.198723	3.925084	-0.044278	0.039937	0.209771	0.105460	0.031676	-0.550192	-0.827746
55039	0.636319	9.022476	3.870401	-0.043878	0.056814	0.025241	0.106025	0.032232	-0.550134	-0.827691
55040	0.692293	9.110791	3.838704	-0.083210	-0.016657	0.097621	0.106516	0.032691	-0.550151	-0.827599
55041	0.783065	9.214416	3.735098	-0.141236	-0.167269	0.158355	0.106980	0.033153	-0.550195	-0.827491
55042	0.641932	9.248944	3.817191	-0.017295	-0.074726	0.213284	0.107648	0.033907	-0.550163	-0.827395
55043	0.556466	9.037466	4.026593	-0.004985	0.207465	0.094675	0.108198	0.034430	-0.549897	-0.827479
55044	0.591477	9.019776	3.857869	-0.012182	0.048965	0.015171	0.108567	0.034711	-0.549736	-0.827525
55045	0.683399	9.174436	3.791755	-0.068303	-0.091899	0.137267	0.108872	0.034985	-0.549539	-0.827605
55046	0.658140	9.264890	3.683447	-0.012429	-0.219728	0.176841	0.109122	0.035275	-0.549523	-0.827570
55047	0.634477	9.317770	3.903403	-0.023422	-0.039348	0.309460	0.109399	0.035526	-0.549190	-0.827744
55048	0.722726	9.017938	3.822911	-0.136985	-0.032730	0.007717	0.109523	0.035726	-0.548583	-0.828122
55049	0.665793	9.102683	3.965104	-0.100350	0.066956	0.137669	0.109688	0.036378	-0.548369	-0.828213
55050	0.507006	9.140476	4.022343	0.042576	0.133720	0.185558	0.109706	0.036670	-0.548069	-0.828396
55051	0.627994	9.057122	3.885174	-0.063665	0.005871	0.062347	0.109738	0.036803	-0.547747	-0.828599
55052	0.670857	9.112177	3.897986	-0.101732	-0.021188	0.120354	0.109843	0.037082	-0.547366	-0.828825
55053	0.639122	9.017662	3.922746	-0.091019	0.032839	0.041513	0.109932	0.037347	-0.546876	-0.829124
55054	0.717109	8.909426	3.932302	-0.187074	0.053506	-0.049632	0.109932	0.037676	-0.546505	-0.829354
55055	0.645335	9.073347	3.910747	-0.096071	-0.017012	0.088146	0.109959	0.038148	-0.546395	-0.829401
55056	0.611150	9.194506	3.906313	-0.051335	-0.063329	0.195562	0.109945	0.038500	-0.546152	-0.829547
55057	0.648794	9.179220	3.941525	-0.101818	-0.042731	0.197429	0.109987	0.038883	-0.545761	-0.829780
55058	0.620242	9.044052	3.998821	-0.108151	0.055232	0.094653	0.110168	0.039316	-0.545289	-0.830047
55059	0.555114	9.014487	4.041200	-0.060996	0.110038	0.080977	0.110316	0.039693	-0.545001	-0.830198
55060	0.578147	9.013932	4.064654	-0.090666	0.118704	0.091065	0.110513	0.039956	-0.544689	-0.830364
55061	0.592680	9.001011	4.068387	-0.108528	0.116395	0.081548	0.110836	0.040274	-0.544388	-0.830503
55062	0.512468	9.014559	4.058977	-0.028070	0.115828	0.086100	0.111167	0.040587	-0.544197	-0.830569
55063	0.573200	9.050632	4.096227	-0.089580	0.114965	0.137204	0.111479	0.040812	-0.543822	-0.830762
55064	0.618652	8.994620	4.059843	-0.134129	0.082735	0.073839	0.111791	0.041091	-0.543312	-0.831039
55065	0.572085	8.981223	4.063269	-0.092794	0.091545	0.060651	0.112081	0.041496	-0.542946	-0.831219
55066	0.588358	9.073711	4.088011	-0.103439	0.066108	0.156021	0.112187	0.041817	-0.542600	-0.831415
55067	0.718994	8.940916	3.970257	-0.228743	-0.031756	-0.006234	0.112095	0.042048	-0.541938	-0.831848
55068	0.750760	8.855141	3.924273	-0.268796	-0.060259	-0.101808	0.112049	0.042676	-0.541585	-0.832051
55069	0.523158	8.929037	4.157564	-0.095459	0.167184	0.048837	0.112354	0.043699	-0.541481	-0.832025
55070	0.444851	9.083767	4.065431	0.010617	0.043033	0.149164	0.112374	0.044052	-0.541542	-0.831964
55071	0.607728	9.189836	3.878791	-0.100050	-0.203950	0.178100	0.112359	0.044280	-0.541445	-0.832017
55072	0.607721	9.164848	3.764687	-0.085969	-0.299697	0.108977	0.112330	0.044725	-0.541299	-0.832092
55073	0.657844	9.090247	3.900406	-0.180214	-0.166361	0.097830	0.112374	0.045328	-0.541158	-0.832145
55074	0.546437	8.937591	3.795394	-0.080990	-0.176113	-0.089182	0.112490	0.045976	-0.541255	-0.832031
55075	0.386722	9.258712	3.807425	0.105922	-0.242952	0.202277	0.112725	0.046588	-0.541803	-0.831608
55076	0.497187	9.319246	3.968683	-0.031189	-0.144703	0.327533	0.112922	0.046826	-0.541635	-0.831678
55077	0.611217	9.090767	3.938528	-0.168490	-0.120220	0.111262	0.113010	0.047132	-0.541109	-0.831990
55078	0.616500	8.783142	4.016763	-0.238269	0.054094	-0.138065	0.113163	0.047980	-0.540666	-0.832209
55079	0.531033	8.791185	4.080030	-0.180058	0.121920	-0.108757	0.113291	0.048921	-0.540678	-0.832129
55080	0.431988	8.955197	4.093341	-0.078615	0.096966	0.042363	0.113422	0.049767	-0.540937	-0.831893
55081	0.380993	9.113338	4.215133	-0.045703	0.160503	0.234082	0.113759	0.050569	-0.541027	-0.831740
55082	0.379698	8.935159	4.032724	-0.038399	0.063699	-0.002562	0.113997	0.051241	-0.540709	-0.831873
55083	0.313506	9.052463	4.116157	0.013510	0.105595	0.136020	0.114161	0.052065	-0.540764	-0.831764
55084	0.221273	8.943569	4.233183	0.055863	0.267871	0.080812	0.114123	0.052270	-0.540199	-0.832123
55085	0.580359	8.883176	4.044887	-0.260815	0.026454	-0.038230	0.113636	0.052065	-0.540175	-0.832218
55086	0.720662	9.075403	3.875186	-0.341459	-0.237467	0.072977	0.113202	0.052528	-0.539949	-0.832395
55087	0.467916	8.967032	3.903386	-0.131034	-0.115517	-0.023280	0.112936	0.053420	-0.539654	-0.832566
55088	0.384863	9.034300	4.033527	-0.085177	-0.012505	0.088253	0.112529	0.054009	-0.539499	-0.832683
55089	0.333654	9.082547	4.000516	-0.035976	-0.050940	0.117277	0.112168	0.054601	-0.539536	-0.832669
55090	0.206766	9.192019	4.057589	0.073130	-0.011838	0.236914	0.111921	0.055420	-0.539581	-0.832619
55091	0.181549	9.113922	4.044831	0.075159	0.010538	0.159845	0.111655	0.056125	-0.539443	-0.832697
55092	0.117184	8.969040	4.102513	0.093334	0.128545	0.049502	0.111539	0.056862	-0.539244	-0.832791
55093	0.159355	9.039685	4.132105	0.043558	0.112480	0.127184	0.111391	0.057341	-0.539180	-0.832820
55094	0.224252	9.074410	3.993535	0.006311	-0.041717	0.104053	0.111244	0.057806	-0.539204	-0.832792
55095	0.247847	9.178697	4.000322	-0.015443	-0.084419	0.202556	0.111090	0.058374	-0.539086	-0.832849
55096	0.399945	8.987468	3.951191	-0.184101	-0.098019	0.010903	0.110720	0.058673	-0.538798	-0.833064
55097	0.564720	8.727955	3.928387	-0.378915	-0.066932	-0.232486	0.110106	0.059006	-0.538495	-0.833317
55098	0.521809	8.708981	3.762413	-0.316018	-0.197141	-0.318709	0.109084	0.059263	-0.538861	-0.833197
55099	0.114755	8.995539	3.950188	0.052845	-0.024672	0.012453	0.108032	0.059479	-0.540131	-0.832496
55100	-0.171532	9.447512	4.591476	0.226190	0.470380	0.679884	0.107094	0.059217	-0.541586	-0.831690
55101	0.285445	9.398376	4.284665	-0.158469	0.115381	0.518376	0.105714	0.058304	-0.541237	-0.832158
55102	0.770408	8.313098	3.386380	-0.561515	-0.405074	-0.829971	0.104188	0.058515	-0.539699	-0.833334
55103	0.661532	8.161179	3.586593	-0.539796	-0.156213	-0.891352	0.102449	0.059562	-0.540176	-0.833167
55104	0.417042	8.551053	4.084501	-0.406658	0.207195	-0.338033	0.100729	0.060950	-0.541419	-0.832469
55105	-0.057459	9.031966	5.513481	-0.262366	1.428860	0.669070	0.100573	0.064387	-0.542591	-0.831465
55106	-0.401250	9.124761	5.180059	0.092050	1.169388	0.621820	0.100102	0.067249	-0.541036	-0.832308
55107	-0.347022	8.671879	3.378263	0.354999	-0.309797	-0.511490	0.098641	0.069428	-0.539472	-0.833318
55108	-0.231305	9.233900	4.492451	-0.019197	0.402045	0.450746	0.097125	0.072674	-0.539235	-0.833373
55109	-0.232924	8.983337	4.360203	-0.062867	0.329730	0.169918	0.095050	0.074319	-0.535495	-0.835875
55110	-0.503044	8.344296	4.556830	0.064480	0.756424	-0.322251	0.093479	0.076187	-0.533750	-0.837000
55111	-0.669114	9.476955	4.178625	0.360551	-0.031133	0.559882	0.091384	0.076828	-0.533173	-0.837540
55112	-0.293819	9.721819	3.537604	0.132692	-0.815432	0.503902	0.089504	0.077216	-0.531841	-0.838553
55113	0.199456	9.759862	3.224693	-0.295319	-1.271957	0.384758	0.087518	0.077380	-0.529541	-0.840202
55114	0.021701	8.708838	3.020521	-0.163395	-1.034374	-0.654586	0.086692	0.078601	-0.526435	-0.842124
55115	-0.221006	9.200513	5.176031	-0.426311	0.662910	0.716707	0.087090	0.081664	-0.526536	-0.841728
55116	-0.452320	10.109835	4.418027	0.003914	-0.365168	1.223552	0.086968	0.081901	-0.523938	-0.843337
55117	-0.031266	9.380876	3.242329	-0.164729	-1.230938	0.034748	0.086912	0.081334	-0.521986	-0.844607
55118	-0.363337	8.977989	3.826194	0.001717	-0.533722	-0.061245	0.087456	0.082580	-0.518316	-0.846688
55119	-1.056446	8.467575	4.338099	0.519472	0.207043	-0.256464	0.086965	0.083103	-0.513794	-0.849439
55120	-0.509169	8.223068	5.081789	-0.188542	0.726448	-0.161857	0.085304	0.081372	-0.509443	-0.852391
55121	0.152006	8.714193	5.361345	-0.846305	0.497809	0.372583	0.084134	0.080666	-0.506232	-0.854485
55122	0.527400	9.033018	4.475977	-0.987748	-0.545917	0.218971	0.082832	0.080391	-0.504988	-0.855373
55123	0.295197	9.381792	4.862835	-0.847479	-0.370557	0.718051	0.082478	0.082242	-0.502829	-0.856503
55124	-0.418691	9.945519	4.962332	-0.183432	-0.465129	1.298681	0.082241	0.085164	-0.499378	-0.858257
55125	-0.669551	7.654307	3.186285	0.326248	-0.922280	-1.552529	0.081661	0.085920	-0.491615	-0.862707
55126	-0.825916	7.816390	5.208347	0.015361	0.591870	-0.402411	0.080989	0.086371	-0.486360	-0.865699
55127	0.055903	7.977681	7.015315	-1.267775	1.716922	0.594312	0.079636	0.087662	-0.483623	-0.867227
55128	-0.411007	8.097977	4.185248	-0.183033	-0.642531	-0.712377	0.077960	0.090007	-0.481051	-0.868569
55129	-0.553130	8.610099	5.350955	-0.347423	0.025768	0.333768	0.077245	0.093100	-0.478770	-0.869566
55130	-0.432315	8.479656	5.072618	-0.444180	-0.221943	0.065368	0.076669	0.094684	-0.476035	-0.870946
55131	-0.718937	8.468389	5.344328	-0.249999	-0.006001	0.223701	0.076986	0.095913	-0.472056	-0.872947
55132	-1.209458	8.405792	5.354821	0.222235	0.065893	0.224246	0.076951	0.095631	-0.468760	-0.874756
55133	-1.660138	7.915424	5.638902	0.589270	0.601201	0.010663	0.076173	0.093967	-0.466503	-0.876209
55134	-1.280910	7.745614	5.876935	0.191764	0.771894	-0.038184	0.074030	0.090802	-0.466517	-0.876719
55135	-0.827756	8.097153	5.687189	-0.154274	0.336285	0.109821	0.071474	0.087837	-0.467755	-0.876574
55136	-0.652570	8.234220	5.391798	-0.230845	0.013833	0.048657	0.069157	0.085572	-0.469418	-0.876094
55137	-0.775453	8.415679	5.332755	-0.075034	-0.073875	0.179913	0.067237	0.083363	-0.471069	-0.875571
55138	-0.685676	8.707047	5.143474	-0.092547	-0.373284	0.315992	0.065510	0.081057	-0.472407	-0.875197
55139	-0.682123	8.743989	5.094786	-0.066095	-0.413670	0.321609	0.064041	0.079159	-0.473041	-0.875137
55140	-0.782792	8.557560	5.219210	0.015456	-0.181897	0.239746	0.062785	0.077642	-0.473479	-0.875127
55141	-0.907922	8.365927	5.542828	0.079270	0.216764	0.261176	0.061922	0.076497	-0.473755	-0.875140
55142	-0.924610	8.235367	5.532844	0.105113	0.291693	0.146850	0.061256	0.075419	-0.474469	-0.874894
55143	-0.892570	8.235989	5.763906	0.038787	0.493079	0.267300	0.060964	0.074728	-0.475355	-0.874492
55144	-0.839067	8.138938	5.723374	-0.002983	0.525163	0.158646	0.060952	0.074369	-0.476528	-0.873885
55145	-0.731988	8.171036	5.724898	-0.105530	0.519722	0.177045	0.061147	0.074345	-0.477968	-0.873086
55146	-0.599666	8.333892	5.491927	-0.187911	0.250138	0.181142	0.061566	0.074711	-0.479462	-0.872206
55147	-0.470008	8.466189	5.314591	-0.280839	0.037958	0.190401	0.062203	0.075164	-0.480415	-0.871598
55148	-0.411012	8.521320	4.976552	-0.275609	-0.262964	0.056596	0.063036	0.075918	-0.481126	-0.871080
55149	-0.435597	8.622233	4.897175	-0.238466	-0.364877	0.103207	0.063953	0.076793	-0.481425	-0.870771
55150	-0.406347	8.649155	4.984163	-0.292193	-0.305798	0.169095	0.065008	0.078022	-0.481605	-0.870484
55151	-0.452885	8.657332	4.825382	-0.224709	-0.436322	0.096799	0.066255	0.079453	-0.481024	-0.870583
55152	-0.573164	8.457548	4.771269	-0.111844	-0.368565	-0.092849	0.067567	0.080742	-0.480058	-0.870896
55153	-0.822435	8.392835	5.290360	0.016144	0.127460	0.141582	0.068972	0.081636	-0.479266	-0.871138
55154	-0.767774	8.403371	5.097941	0.009456	-0.059451	0.045886	0.070335	0.081781	-0.478775	-0.871286
55155	-0.988881	8.601810	5.560797	0.144361	0.256078	0.473471	0.072215	0.082320	-0.478291	-0.871348
55156	-1.049845	8.296444	5.363489	0.247083	0.262289	0.115570	0.073836	0.082051	-0.477925	-0.871438
55157	-1.103394	8.272184	5.456401	0.299953	0.358994	0.147228	0.075378	0.081497	-0.477528	-0.871575
55158	-0.840087	8.165319	5.320937	0.092216	0.247455	-0.034101	0.076795	0.080772	-0.477499	-0.871535
55159	-0.770813	8.149374	5.578507	-0.008636	0.457800	0.082589	0.078239	0.080166	-0.477628	-0.871392
55160	-0.584231	8.153858	5.469324	-0.145009	0.334123	0.016226	0.079548	0.079659	-0.477975	-0.871129
55161	-0.454578	8.283002	5.415191	-0.235347	0.206458	0.088879	0.080676	0.079430	-0.478537	-0.870738
55162	-0.454635	8.410619	5.432665	-0.220276	0.168911	0.206393	0.081532	0.079293	-0.479102	-0.870360
55163	-0.443167	8.425092	5.262622	-0.184731	0.032960	0.129069	0.082049	0.079066	-0.479641	-0.870035
55164	-0.365518	8.454587	5.266033	-0.252726	0.018580	0.151273	0.082244	0.078762	-0.480381	-0.869636
55165	-0.290461	8.477042	5.064843	-0.275730	-0.156912	0.061348	0.082216	0.078452	-0.481267	-0.869176
55166	-0.282448	8.509843	5.075820	-0.282538	-0.146106	0.094883	0.082087	0.078265	-0.482197	-0.868690
55167	-0.373296	8.506098	5.078342	-0.196411	-0.100595	0.098613	0.081899	0.078171	-0.483175	-0.868173
55168	-0.460472	8.605180	5.050464	-0.101365	-0.134638	0.174299	0.081731	0.078076	-0.484055	-0.867707
55169	-0.492041	8.605802	5.208381	-0.107077	0.021408	0.257924	0.081717	0.078040	-0.484803	-0.867294
55170	-0.550134	8.555740	5.193048	-0.053028	0.065603	0.210482	0.081950	0.078263	-0.485652	-0.866776
55171	-0.560630	8.547726	5.096402	-0.028715	0.015361	0.154765	0.082417	0.078893	-0.486837	-0.866010
55172	-0.716565	8.678408	5.168204	0.105461	0.070878	0.312644	0.083056	0.079673	-0.487949	-0.865251
55173	-0.559373	8.656253	5.106101	-0.044109	0.018941	0.252775	0.083624	0.080297	-0.488834	-0.864639
55174	-0.452769	8.663711	4.931465	-0.117966	-0.136182	0.164874	0.084234	0.081267	-0.489497	-0.864114
55175	-0.396948	8.484382	5.048221	-0.220782	0.048290	0.065357	0.084673	0.081961	-0.489667	-0.863909
55176	-0.298132	8.407896	4.819022	-0.276072	-0.124453	-0.121823	0.084918	0.082431	-0.489740	-0.863799
55177	-0.232883	8.493757	4.654178	-0.300715	-0.322100	-0.134602	0.084847	0.082668	-0.489497	-0.863921
55178	-0.083316	8.588490	4.664673	-0.447124	-0.400672	-0.057288	0.084660	0.082928	-0.489318	-0.864016
55179	-0.332645	8.723605	4.785640	-0.228863	-0.317818	0.135221	0.084605	0.083152	-0.488845	-0.864268
55180	-0.513557	8.679712	4.716279	-0.043204	-0.322909	0.073580	0.084637	0.083446	-0.488343	-0.864520
55181	-0.724669	8.828648	5.145577	0.068904	-0.005207	0.431449	0.084790	0.083743	-0.487672	-0.864855
55182	-0.781996	8.734439	5.182321	0.113050	0.068092	0.372642	0.084810	0.083437	-0.486764	-0.865394
55183	-0.804143	8.555405	5.281069	0.109256	0.226164	0.270376	0.084894	0.083037	-0.485925	-0.865895
55184	-0.884285	8.478227	5.290059	0.190582	0.276176	0.213997	0.084922	0.082505	-0.485393	-0.866242
55185	-0.786563	8.434274	5.239730	0.116492	0.224017	0.144554	0.084869	0.081797	-0.484993	-0.866538
55186	-0.664105	8.424783	5.174031	0.024990	0.136944	0.095350	0.084714	0.081038	-0.484552	-0.866871
55187	-0.578493	8.396904	5.227243	-0.060137	0.166413	0.093644	0.084455	0.080326	-0.484169	-0.867177
55188	-0.442585	8.482261	5.158387	-0.161604	0.025599	0.123449	0.083947	0.079678	-0.483772	-0.867507
55189	-0.308750	8.430363	5.201698	-0.301523	0.047517	0.093413	0.083424	0.079502	-0.483325	-0.867823
55190	-0.299527	8.441959	4.892254	-0.244436	-0.227503	-0.056714	0.082815	0.079642	-0.482899	-0.868105
55191	-0.367557	8.575744	5.032276	-0.208375	-0.177921	0.133527	0.082152	0.079815	-0.482330	-0.868469
55192	-0.397823	8.522466	5.051459	-0.195313	-0.142456	0.099399	0.081492	0.080072	-0.481743	-0.868833
55193	-0.443624	8.510725	5.152613	-0.183379	-0.054442	0.144323	0.080904	0.080336	-0.481422	-0.869042
55194	-0.444174	8.550877	5.259122	-0.214167	0.006813	0.233568	0.080550	0.080772	-0.481332	-0.869084
55195	-0.480849	8.550044	5.162044	-0.166339	-0.069626	0.184745	0.080335	0.081152	-0.481083	-0.869207
55196	-0.549291	8.544597	5.227010	-0.121822	-0.004496	0.218196	0.080227	0.081494	-0.480820	-0.869330
55197	-0.534451	8.500808	5.117035	-0.119764	-0.085194	0.122694	0.080253	0.081852	-0.480282	-0.869591
55198	-0.527007	8.441662	5.068091	-0.123651	-0.108876	0.046206	0.080390	0.082219	-0.479718	-0.869855
55199	-0.514975	8.421317	5.087578	-0.144284	-0.096874	0.038049	0.080677	0.082631	-0.479197	-0.870077
55200	-0.464398	8.456027	5.136452	-0.205655	-0.097666	0.089401	0.081209	0.083198	-0.478646	-0.870277
55201	-0.454757	8.532111	5.025249	-0.188012	-0.244309	0.094976	0.081892	0.083829	-0.477946	-0.870537
55202	-0.510144	8.573480	5.109581	-0.154291	-0.200501	0.177737	0.082761	0.084680	-0.477109	-0.870831
55203	-0.497232	8.558857	4.973190	-0.139707	-0.324647	0.092309	0.083657	0.085491	-0.476303	-0.871107
55204	-0.496121	8.636750	5.033022	-0.152654	-0.335517	0.189061	0.084665	0.086371	-0.475339	-0.871450
55205	-0.603360	8.571441	5.145428	-0.082369	-0.203853	0.200339	0.085826	0.087351	-0.474404	-0.871748
55206	-0.693780	8.478117	5.293096	-0.038275	-0.031652	0.206003	0.087044	0.088199	-0.473466	-0.872052
55207	-0.724166	8.403240	5.238798	-0.001239	-0.046612	0.116143	0.088240	0.088971	-0.472585	-0.872331
55208	-0.669407	8.462873	5.309211	-0.067004	-0.051066	0.199752	0.089325	0.089642	-0.471780	-0.872588
55209	-0.637535	8.470346	5.285605	-0.090728	-0.099366	0.190947	0.090507	0.090370	-0.470835	-0.872901
55210	-0.716348	8.374064	5.266429	-0.016059	-0.062937	0.105434	0.091834	0.091215	-0.469840	-0.873211
55211	-0.655973	8.387960	5.364534	-0.098987	-0.023559	0.165090	0.093200	0.092196	-0.469055	-0.873385
55212	-0.624594	8.424634	5.355544	-0.127114	-0.075535	0.188539	0.094761	0.093371	-0.468072	-0.873620
55213	-0.657858	8.273782	5.276055	-0.088564	-0.068409	0.021561	0.096406	0.094484	-0.467073	-0.873855
55214	-0.741191	8.289509	5.312079	-0.017860	-0.043782	0.060572	0.098122	0.095604	-0.466173	-0.874022
55215	-0.750123	8.340749	5.271361	0.004854	-0.116123	0.081983	0.099794	0.096631	-0.465415	-0.874124
55216	-0.685423	8.459695	5.409199	-0.083997	-0.102498	0.251015	0.101539	0.097665	-0.464543	-0.874272
55217	-0.574127	8.536500	5.316447	-0.157474	-0.265791	0.255609	0.103238	0.098621	-0.463519	-0.874509
55218	-0.504163	8.472039	5.295602	-0.223259	-0.286370	0.184370	0.104966	0.099774	-0.462473	-0.874726
55219	-0.609230	8.371612	5.299735	-0.135629	-0.218714	0.110819	0.106792	0.101236	-0.461445	-0.874880
55220	-0.806007	8.248814	5.410719	0.003958	-0.026146	0.085178	0.108655	0.102742	-0.460510	-0.874968
55221	-0.956076	8.113194	5.482342	0.107650	0.133054	0.024221	0.110423	0.104082	-0.459717	-0.875005
55222	-1.086180	8.075618	5.657505	0.172204	0.317715	0.100543	0.112083	0.105222	-0.459063	-0.875001
55223	-1.112707	8.025250	5.666743	0.185209	0.353194	0.066365	0.113535	0.106224	-0.458651	-0.874909
55224	-1.003979	8.076019	5.664469	0.084219	0.287077	0.098254	0.114891	0.107028	-0.458346	-0.874794
55225	-0.933900	8.106433	5.559574	0.050774	0.164878	0.059776	0.116201	0.107727	-0.458080	-0.874674
55226	-0.937916	8.112467	5.615200	0.038709	0.204458	0.095843	0.117429	0.108306	-0.457871	-0.874548
55227	-0.910659	8.140292	5.654409	0.004638	0.209522	0.138296	0.118532	0.108840	-0.457623	-0.874463
55228	-0.873613	8.061845	5.704852	-0.054127	0.277183	0.098020	0.119524	0.109395	-0.457343	-0.874405
55229	-0.849230	8.020114	5.706026	-0.084058	0.289960	0.062079	0.120365	0.110015	-0.457111	-0.874333
55230	-0.844922	8.106382	5.606665	-0.050787	0.160221	0.078407	0.120938	0.110445	-0.456822	-0.874351
55231	-0.904088	8.204391	5.641075	0.002782	0.145930	0.183803	0.121294	0.110848	-0.456490	-0.874424
55232	-0.916813	8.154827	5.516430	0.045666	0.073912	0.074941	0.121390	0.111056	-0.456162	-0.874556
55233	-0.960369	8.241795	5.515057	0.095259	0.031679	0.150006	0.121360	0.111174	-0.455846	-0.874709
55234	-0.928742	8.303219	5.598396	0.045156	0.044147	0.244352	0.121212	0.111228	-0.455477	-0.874915
55235	-0.806191	8.345993	5.516813	-0.042870	-0.089690	0.223790	0.121027	0.111400	-0.455157	-0.875086
55236	-0.782100	8.369136	5.457973	-0.047695	-0.163787	0.208015	0.120841	0.111495	-0.454805	-0.875282
55237	-0.807915	8.331133	5.511716	-0.044373	-0.103279	0.208633	0.120795	0.111488	-0.454291	-0.875556
55238	-0.761355	8.290247	5.598388	-0.116543	-0.042574	0.218982	0.120864	0.111411	-0.453544	-0.875944
55239	-0.775606	8.257799	5.717628	-0.139168	0.054423	0.260134	0.121058	0.111442	-0.452704	-0.876347
55240	-0.756222	7.897352	5.533800	-0.136601	0.090577	-0.141281	0.121273	0.111553	-0.451949	-0.876693
55241	-0.728811	8.030154	5.715225	-0.203116	0.134751	0.067541	0.121444	0.111733	-0.451533	-0.876861
55242	-0.698812	8.125125	5.445765	-0.136661	-0.145161	-0.008474	0.121650	0.111880	-0.450925	-0.877126
55243	-0.581467	8.212061	5.447522	-0.236730	-0.243646	0.053219	0.121883	0.112041	-0.450217	-0.877437
55244	-0.663785	8.085638	5.412282	-0.160439	-0.189242	-0.063361	0.122159	0.112254	-0.449434	-0.877773
55245	-0.720213	8.071242	5.633447	-0.175743	-0.008007	0.054857	0.122384	0.112320	-0.448902	-0.878005
55246	-0.736797	8.059676	5.742227	-0.191091	0.074267	0.108622	0.122585	0.112217	-0.448233	-0.878332
55247	-0.867505	8.063340	5.892233	-0.109332	0.215166	0.208798	0.122732	0.112185	-0.447659	-0.878608
55248	-0.949392	8.162723	5.864334	-0.008860	0.152605	0.281788	0.122744	0.112140	-0.447179	-0.878857
55249	-0.881799	8.141709	5.824269	-0.060161	0.102521	0.235843	0.122718	0.112097	-0.446768	-0.879075
55250	-0.881188	8.062547	5.700231	-0.029234	0.045573	0.100478	0.122745	0.112071	-0.446513	-0.879204
55251	-0.804960	8.006421	5.667767	-0.095099	0.024934	0.029296	0.122751	0.111918	-0.446439	-0.879260
55252	-0.828802	7.991383	5.708594	-0.084508	0.070715	0.042515	0.122733	0.111806	-0.446373	-0.879311
55253	-0.867201	7.944729	5.589463	-0.012399	0.018449	-0.060131	0.122413	0.111292	-0.446408	-0.879403
55254	-0.901365	7.941940	5.802882	-0.041330	0.196795	0.062528	0.121900	0.110728	-0.446779	-0.879357
55255	-0.873424	7.945727	5.783357	-0.056730	0.180099	0.051845	0.121221	0.110051	-0.447351	-0.879244
55256	-0.734599	8.124147	5.764055	-0.157572	0.031262	0.174300	0.120483	0.109368	-0.447863	-0.879171
55257	-0.632621	8.222645	5.728638	-0.227683	-0.075752	0.225829	0.119751	0.108676	-0.448154	-0.879208
55258	-0.654643	8.229711	5.658086	-0.180585	-0.123879	0.193445	0.119202	0.108206	-0.448221	-0.879307
55259	-0.698143	8.114169	5.703815	-0.162834	-0.010110	0.128843	0.118811	0.107835	-0.448230	-0.879400
55260	-0.732932	8.083279	5.697091	-0.128951	0.013524	0.102786	0.118547	0.107605	-0.448324	-0.879416
55261	-0.779079	8.124144	5.611080	-0.053650	-0.061145	0.091164	0.118363	0.107471	-0.448271	-0.879485
55262	-0.751562	8.164033	5.591473	-0.068118	-0.110196	0.110219	0.118151	0.107304	-0.448090	-0.879626
55263	-0.798409	8.141226	5.559196	-0.015311	-0.112361	0.077146	0.117860	0.107153	-0.447889	-0.879786
55264	-0.766687	8.154768	5.594783	-0.053990	-0.106907	0.105745	0.117606	0.107033	-0.447758	-0.879901
55265	-0.823258	8.279489	5.612428	0.009598	-0.150191	0.222470	0.117357	0.106771	-0.447632	-0.880030
55266	-0.727777	8.385325	5.626757	-0.070134	-0.232136	0.308821	0.117167	0.106472	-0.447461	-0.880178
55267	-0.574562	8.391173	5.986747	-0.319479	-0.011238	0.506269	0.117243	0.106513	-0.447255	-0.880268
55268	-0.569107	8.431869	5.778160	-0.259875	-0.201778	0.419574	0.117726	0.107063	-0.446873	-0.880331
55269	-0.669338	8.286196	5.802455	-0.192224	-0.076017	0.323130	0.118501	0.107721	-0.446609	-0.880281
55270	-0.827235	8.106662	5.979451	-0.121442	0.209054	0.291651	0.119419	0.108534	-0.446671	-0.880025
55271	-0.909107	8.177699	6.189610	-0.108184	0.359811	0.476692	0.120409	0.109434	-0.446926	-0.879649
55272	-0.913598	8.138515	6.305856	-0.154357	0.483003	0.510915	0.121353	0.110339	-0.447472	-0.879129
55273	-0.656107	8.135863	6.275633	-0.401554	0.396574	0.467767	0.122472	0.111452	-0.448231	-0.878446
55274	-0.711578	8.006848	6.182093	-0.350279	0.434770	0.312650	0.123847	0.112790	-0.449024	-0.877678
55275	-0.850375	7.709338	5.819895	-0.153958	0.389976	-0.124944	0.125226	0.113927	-0.449795	-0.876940
55276	-0.985984	7.352339	5.505852	0.019834	0.417662	-0.584007	0.126097	0.114816	-0.451025	-0.876067
55277	-1.111501	7.241323	5.485617	0.121997	0.534482	-0.676849	0.126160	0.114907	-0.452577	-0.875245
55278	-0.839801	7.562548	5.699899	-0.169674	0.464311	-0.318385	0.125718	0.114529	-0.454260	-0.874486
55279	-0.846856	7.815903	5.720321	-0.141080	0.375616	-0.098446	0.125025	0.113812	-0.455763	-0.873897
55280	-0.738115	7.990945	5.752447	-0.232118	0.300749	0.053733	0.124216	0.113034	-0.457306	-0.873307
55281	-0.546390	8.193455	5.657752	-0.358853	0.089451	0.152478	0.123251	0.112161	-0.459016	-0.872659
55282	-0.623530	8.195568	5.621759	-0.274776	0.121057	0.140706	0.122283	0.111430	-0.460675	-0.872014
55283	-0.690951	8.220760	5.583472	-0.197044	0.135040	0.146043	0.121236	0.110561	-0.462414	-0.871350
55284	-0.572701	8.205453	5.506621	-0.284939	0.079810	0.081385	0.120108	0.109524	-0.463913	-0.870840
55285	-0.562180	8.305932	5.413240	-0.252235	-0.021574	0.114224	0.118957	0.108476	-0.465189	-0.870449
55286	-0.581694	8.318642	5.440625	-0.236979	0.023839	0.141297	0.117810	0.107445	-0.466296	-0.870140
55287	-0.636355	8.355776	5.307488	-0.136393	-0.059013	0.105539	0.116578	0.106229	-0.467617	-0.869747
55288	-0.589413	8.459299	5.200402	-0.132959	-0.180196	0.132213	0.115198	0.104810	-0.469446	-0.869117
55289	-0.553005	8.420764	5.205093	-0.170865	-0.124428	0.100093	0.113905	0.103773	-0.471668	-0.868208
55290	-0.631964	8.326128	5.154786	-0.095343	-0.041777	-0.000218	0.112321	0.102941	-0.474194	-0.867138
55291	-0.702345	8.080768	5.375669	-0.125568	0.334280	-0.088378	0.110666	0.102321	-0.476632	-0.866087
55292	-0.623482	8.116068	5.507457	-0.246897	0.453639	0.001808	0.109023	0.101700	-0.479503	-0.864782
55293	-0.770381	8.341985	5.616154	-0.130576	0.527424	0.258453	0.107963	0.101495	-0.482163	-0.863459
55294	-0.753126	8.535956	5.287475	-0.049195	0.214023	0.254022	0.106880	0.101080	-0.484753	-0.862192
55295	-0.664491	8.809539	4.832756	0.006737	-0.268884	0.253719	0.105623	0.100605	-0.486909	-0.861186
55296	-0.761873	8.698961	4.723084	0.110796	-0.237119	0.111591	0.104419	0.100204	-0.488489	-0.860485
55297	-0.767548	8.641791	4.740016	0.097514	-0.161197	0.071737	0.103181	0.099710	-0.490084	-0.859785
55298	-0.677375	8.686017	4.816465	-0.015225	-0.113235	0.141755	0.101989	0.099248	-0.491629	-0.859098
55299	-0.609214	8.662094	4.873022	-0.108313	-0.040760	0.144012	0.101001	0.099104	-0.493245	-0.858304
55300	-0.804883	8.812500	4.814412	0.094733	-0.073247	0.260648	0.099872	0.098796	-0.495019	-0.857450
55301	-0.762123	9.033876	4.740641	0.083537	-0.223278	0.415144	0.098364	0.097759	-0.496195	-0.857064
55302	-0.596578	8.919191	4.863798	-0.118872	-0.091414	0.362866	0.096998	0.097029	-0.496924	-0.856880
55303	-0.434114	8.568056	4.981934	-0.334152	0.146120	0.101277	0.095733	0.096462	-0.497566	-0.856714
55304	-0.412679	8.330129	5.009629	-0.381964	0.289204	-0.095270	0.094546	0.095989	-0.498107	-0.856584
55305	-0.376968	8.398193	4.887089	-0.385169	0.154382	-0.097586	0.093451	0.095716	-0.498638	-0.856426
55306	-0.515400	8.583910	4.919368	-0.255232	0.132096	0.090177	0.092409	0.095504	-0.498664	-0.856547
55307	-0.343578	8.629833	4.702053	-0.367949	-0.121034	0.013366	0.091467	0.095418	-0.498426	-0.856797
55308	-0.469856	8.517650	4.809867	-0.289709	0.046268	-0.023926	0.090890	0.095779	-0.497999	-0.857066
55309	-0.603600	8.457865	4.864798	-0.188937	0.141092	-0.039744	0.090585	0.096334	-0.497296	-0.857444
55310	-0.644568	8.324942	5.027612	-0.209760	0.334726	-0.074056	0.090492	0.096998	-0.496534	-0.857821
55311	-0.746571	8.249776	5.356677	-0.212469	0.654322	0.027883	0.090659	0.097840	-0.495737	-0.858169
55312	-0.886487	8.236711	5.369297	-0.091799	0.691019	0.034783	0.090991	0.098588	-0.495104	-0.858413
55313	-0.912609	8.231732	5.439950	-0.092790	0.747877	0.067564	0.091346	0.099129	-0.494701	-0.858546
55314	-0.932158	8.245945	5.348246	-0.054040	0.668090	0.037135	0.091692	0.099530	-0.494914	-0.858340
55315	-1.114893	8.362438	5.210114	0.159929	0.553842	0.086116	0.092019	0.099915	-0.495535	-0.857902
55316	-1.094844	8.539019	5.017020	0.198561	0.316761	0.144433	0.092242	0.100030	-0.496174	-0.857495
55317	-0.937281	8.607518	4.562665	0.172396	-0.121384	-0.027939	0.092219	0.099827	-0.496859	-0.857124
55318	-0.768229	8.854731	4.139060	0.137270	-0.621031	-0.028838	0.091897	0.099529	-0.497815	-0.856638
55319	-0.596702	9.211660	3.991673	0.030285	-0.944698	0.199845	0.091411	0.099186	-0.498414	-0.856382
55320	-0.602074	9.390865	4.090489	0.017720	-0.934976	0.405357	0.090853	0.098774	-0.498959	-0.856171
55321	-0.620417	9.198158	4.168431	0.001476	-0.762107	0.276218	0.090270	0.098534	-0.499422	-0.855991
55322	-0.570409	9.113497	4.394009	-0.116043	-0.532114	0.306199	0.089538	0.098309	-0.500231	-0.855621
55323	-0.680867	9.095709	4.662577	-0.087825	-0.253350	0.427586	0.088838	0.098147	-0.500990	-0.855269
55324	-0.687751	8.971266	4.589310	-0.074974	-0.238371	0.284635	0.088210	0.098005	-0.501711	-0.854927
55325	-0.790504	8.839187	4.728587	-0.025634	-0.016212	0.242894	0.087671	0.097970	-0.502511	-0.854516
55326	-0.744913	8.781919	4.802566	-0.098762	0.076772	0.223546	0.087113	0.097955	-0.503138	-0.854206
55327	-0.773061	8.752862	4.679444	-0.046742	0.003864	0.142473	0.086558	0.097831	-0.503530	-0.854046
55328	-0.822437	8.778540	4.435387	0.061011	-0.192762	0.054984	0.085836	0.097555	-0.504114	-0.853806
55329	-0.807635	8.842097	4.468243	0.036401	-0.188361	0.125287	0.084856	0.097194	-0.504644	-0.853632
55330	-0.620573	8.822561	4.560840	-0.175071	-0.138440	0.135887	0.083819	0.096924	-0.505088	-0.853502
55331	-0.568120	8.719429	4.672567	-0.265473	-0.001698	0.092544	0.082808	0.096663	-0.505408	-0.853441
55332	-0.679399	8.685691	4.769935	-0.190586	0.129677	0.117164	0.081871	0.096468	-0.505797	-0.853323
55333	-0.661267	8.783626	4.722876	-0.199312	0.047969	0.179954	0.080978	0.096298	-0.506351	-0.853099
55334	-0.745371	8.900827	4.815550	-0.144649	0.104601	0.333146	0.080333	0.096312	-0.507053	-0.852741
55335	-0.915947	8.718971	4.789171	0.014192	0.222587	0.174595	0.079922	0.096164	-0.507733	-0.852392
55336	-0.823340	8.679921	4.869794	-0.099831	0.306842	0.168777	0.079668	0.096000	-0.508809	-0.851792
55337	-0.746672	8.712965	4.702468	-0.132657	0.156169	0.114267	0.079480	0.095751	-0.510002	-0.851125
55338	-0.727102	8.775587	4.608825	-0.125462	0.066962	0.125149	0.079432	0.095466	-0.510946	-0.850595
55339	-0.535989	8.825544	4.477862	-0.274647	-0.092262	0.094117	0.079427	0.095258	-0.511828	-0.850088
55340	-0.606075	8.848681	4.559517	-0.226007	0.000998	0.157498	0.079668	0.095343	-0.512421	-0.849699
55341	-0.720260	8.856796	4.495812	-0.099415	-0.019342	0.145408	0.079859	0.095375	-0.512726	-0.849493
55342	-0.737068	8.904141	4.574470	-0.100000	0.033590	0.224327	0.080014	0.095393	-0.512650	-0.849522
55343	-0.595743	8.858346	4.588563	-0.239427	0.026960	0.178411	0.080079	0.095296	-0.512180	-0.849810
55344	-0.693799	8.872895	4.431742	-0.101009	-0.107508	0.128548	0.079980	0.095143	-0.511196	-0.850429
55345	-0.633813	8.739016	4.226553	-0.109769	-0.254535	-0.088542	0.079510	0.094808	-0.510598	-0.850870
55346	-0.429350	8.839155	4.422267	-0.352629	-0.193584	0.072131	0.078955	0.094690	-0.510230	-0.851155
55347	-0.487631	8.813564	4.558276	-0.334890	-0.059465	0.116002	0.078620	0.094864	-0.510012	-0.851297
55348	-0.563091	8.961702	4.489163	-0.244135	-0.171434	0.221891	0.078353	0.094893	-0.510114	-0.851258
55349	-0.756391	8.958174	4.499260	-0.062234	-0.109420	0.239601	0.078317	0.094904	-0.510600	-0.850968
55350	-0.840594	8.933087	4.645169	-0.017851	0.058876	0.290799	0.078512	0.094864	-0.511134	-0.850634
55351	-0.866160	8.693030	4.309573	0.084866	-0.099746	-0.072346	0.078681	0.094521	-0.511621	-0.850364
55352	-0.734421	8.895628	4.281672	-0.022485	-0.237683	0.084144	0.078834	0.094192	-0.511951	-0.850187
55353	-0.499554	8.861843	4.235606	-0.233505	-0.315225	0.014229	0.079086	0.093996	-0.511699	-0.850338
55354	-0.481621	8.684751	4.315141	-0.271862	-0.176948	-0.108458	0.079413	0.094045	-0.511276	-0.850556
55355	-0.585292	8.642803	4.569148	-0.234009	0.076780	-0.022025	0.079721	0.094301	-0.510980	-0.850677
55356	-0.668401	8.694143	4.782346	-0.205103	0.248647	0.127223	0.079964	0.094557	-0.510654	-0.850822
55357	-0.716135	8.699614	4.757976	-0.153972	0.228488	0.125046	0.080072	0.094760	-0.510252	-0.851030
55358	-0.659665	8.773325	4.721300	-0.199247	0.141682	0.169161	0.079953	0.094945	-0.509967	-0.851192
55359	-0.832458	8.839897	4.793714	-0.051120	0.204717	0.275520	0.079853	0.095176	-0.509508	-0.851450
55360	-0.799261	8.635576	4.658889	-0.060580	0.164610	0.030405	0.079593	0.095256	-0.509003	-0.851767
55361	-0.751277	8.673480	4.574440	-0.087339	0.055938	0.021356	0.079097	0.095151	-0.508925	-0.851872
55362	-0.693251	8.935308	4.450670	-0.104925	-0.186212	0.191467	0.078466	0.094774	-0.509014	-0.851919
55363	-0.578963	9.091487	4.398388	-0.196348	-0.331632	0.296102	0.078001	0.094387	-0.508903	-0.852071
55364	-0.523500	9.161104	4.325164	-0.227367	-0.443889	0.319350	0.077856	0.094173	-0.508684	-0.852238
55365	-0.583918	9.007891	4.426773	-0.195179	-0.281029	0.235312	0.078085	0.094105	-0.508091	-0.852579
55366	-0.688140	8.509704	4.573587	-0.142723	0.089289	-0.128786	0.078304	0.093973	-0.507616	-0.852856
55367	-0.598537	8.333055	4.686046	-0.259236	0.242058	-0.240264	0.078096	0.093672	-0.507646	-0.852891
55368	-0.698003	8.585066	4.799859	-0.181629	0.246836	0.043037	0.077855	0.093716	-0.507861	-0.852779
55369	-0.683065	8.744938	4.673958	-0.162387	0.064005	0.124915	0.077469	0.093594	-0.507950	-0.852775
55370	-0.485198	9.052523	4.554480	-0.318214	-0.221178	0.325197	0.077141	0.093670	-0.508461	-0.852492
55371	-0.561847	9.233738	4.662728	-0.269264	-0.185961	0.541613	0.076936	0.093749	-0.508810	-0.852294
55372	-0.647235	8.896053	4.952835	-0.271937	0.246017	0.383133	0.076984	0.093858	-0.509091	-0.852109
55373	-0.772900	8.220819	4.835620	-0.142737	0.490000	-0.257480	0.077136	0.093604	-0.508892	-0.852242
55374	-0.899771	8.033290	4.731129	0.004106	0.519888	-0.460864	0.077121	0.093303	-0.509318	-0.852022
55375	-0.763382	8.411751	4.744560	-0.114454	0.335024	-0.131479	0.076923	0.092904	-0.509878	-0.851749
55376	-0.892603	8.451060	4.712898	0.023533	0.328023	-0.100818	0.076737	0.092551	-0.510114	-0.851663
55377	-0.702334	8.624075	4.744287	-0.158142	0.236614	0.051146	0.076467	0.092066	-0.510385	-0.851577
55378	-0.721914	8.675764	4.542122	-0.084619	0.044887	0.006260	0.076494	0.091907	-0.510204	-0.851700
55379	-0.739928	8.741428	4.220813	0.014330	-0.258087	-0.080858	0.076547	0.091872	-0.510245	-0.851675
55380	-0.543410	8.968677	4.557161	-0.247213	-0.126296	0.258216	0.076663	0.091899	-0.509637	-0.852026
55381	-0.722674	8.704442	4.718808	-0.117705	0.149475	0.113057	0.076839	0.091958	-0.507955	-0.853007
55382	-0.747304	8.607132	4.754716	-0.100586	0.188421	0.046455	0.076981	0.092020	-0.505860	-0.854232
55383	-0.637292	8.605058	4.659250	-0.179013	0.029317	-0.008169	0.077010	0.092129	-0.503216	-0.855778
55384	-0.502763	8.665702	4.694570	-0.313320	-0.060219	0.050581	0.077014	0.092558	-0.500593	-0.857268
55385	-0.520974	8.540882	4.767082	-0.319811	0.004861	-0.022870	0.077093	0.093214	-0.497890	-0.858763
55386	-0.714658	8.445887	4.784923	-0.145071	0.057142	-0.080537	0.077190	0.093972	-0.495854	-0.859848
55387	-0.706048	8.530523	4.963084	-0.200219	0.122970	0.078986	0.077295	0.094642	-0.494324	-0.860646
55388	-0.613300	8.590708	4.686106	-0.226977	-0.187884	-0.012221	0.077308	0.095198	-0.493437	-0.861093
55389	-0.730782	8.591945	4.726070	-0.131494	-0.142926	0.018567	0.077348	0.095887	-0.493015	-0.861254
55390	-0.907707	8.691630	4.996873	-0.034057	0.064096	0.253683	0.077430	0.096670	-0.492499	-0.861455
55391	-0.917423	8.774957	4.921773	-0.012147	-0.054471	0.289898	0.077434	0.097191	-0.491593	-0.861913
55392	-0.805315	8.820260	4.743098	-0.079987	-0.270993	0.230352	0.077450	0.097547	-0.490891	-0.862272
55393	-0.836732	8.817349	4.719486	-0.047160	-0.293715	0.218804	0.077434	0.097739	-0.490573	-0.862432
55394	-0.881328	8.833686	4.795933	-0.025074	-0.234559	0.274734	0.077313	0.097855	-0.490327	-0.862570
55395	-0.712509	8.630501	4.847312	-0.211683	-0.134855	0.108333	0.077200	0.098038	-0.490106	-0.862685
55396	-0.725352	8.651551	4.909235	-0.218887	-0.095525	0.158221	0.077149	0.098389	-0.489953	-0.862736
55397	-0.967646	8.606428	4.956052	-0.004048	0.018315	0.165741	0.077115	0.098769	-0.489747	-0.862813
55398	-1.154968	8.743504	4.963526	0.174154	-0.005676	0.306060	0.076919	0.098996	-0.489558	-0.862912
55399	-1.143980	8.674805	4.936094	0.164599	-0.000919	0.232155	0.076549	0.098896	-0.489436	-0.863025
55400	-1.088247	8.595888	5.017530	0.086718	0.092361	0.198962	0.076109	0.098658	-0.489553	-0.863025
55401	-1.117858	8.652799	5.055082	0.107821	0.105228	0.269559	0.075606	0.098335	-0.489854	-0.862935
55402	-1.174371	8.648037	5.043719	0.167284	0.116694	0.265269	0.075155	0.097823	-0.490149	-0.862865
55403	-1.016194	8.544153	4.969966	0.034803	0.074736	0.123558	0.074790	0.097174	-0.490253	-0.862911
55404	-0.845950	8.553961	4.807676	-0.082324	-0.103552	0.035263	0.074462	0.096542	-0.490278	-0.862996
55405	-0.837113	8.644952	4.723797	-0.060405	-0.222108	0.071504	0.074295	0.096074	-0.490215	-0.863099
55406	-0.893177	8.780820	4.706574	0.008991	-0.293785	0.185613	0.074346	0.095746	-0.490134	-0.863177
55407	-1.056970	8.786273	4.947163	0.116563	-0.061617	0.325005	0.074604	0.095481	-0.489927	-0.863301
55408	-1.098589	8.738943	4.962331	0.161337	-0.020777	0.295442	0.074896	0.095029	-0.489614	-0.863503
55409	-0.954250	8.610996	4.999922	0.019695	0.037063	0.190177	0.075138	0.094505	-0.489379	-0.863673
55410	-0.836842	8.585398	4.857130	-0.048258	-0.100909	0.086229	0.075357	0.093948	-0.489065	-0.863893
55411	-0.726724	8.592543	4.828604	-0.135853	-0.160224	0.068163	0.075641	0.093489	-0.488674	-0.864139
55412	-0.731819	8.593799	4.888442	-0.134123	-0.117644	0.099626	0.076051	0.093162	-0.488283	-0.864359
55413	-0.764628	8.595333	4.996488	-0.117319	-0.029756	0.158001	0.076603	0.092900	-0.487791	-0.864616
55414	-0.848626	8.579083	5.012868	-0.028575	0.001544	0.159717	0.077194	0.092575	-0.487291	-0.864881
55415	-0.844518	8.585872	5.029499	-0.023599	0.001397	0.173588	0.077756	0.092227	-0.486798	-0.865145
55416	-0.794294	8.561268	4.969081	-0.045149	-0.057423	0.117702	0.078267	0.091739	-0.486287	-0.865438
55417	-0.764178	8.589220	4.849620	-0.030445	-0.185768	0.078825	0.078793	0.091314	-0.485934	-0.865634
55418	-0.765752	8.746965	4.873304	-0.013436	-0.255001	0.226218	0.079402	0.090922	-0.485367	-0.865938
55419	-0.686229	8.614647	4.848631	-0.076430	-0.240080	0.093309	0.080163	0.090632	-0.484520	-0.866372
55420	-0.727523	8.390131	4.790853	-0.019996	-0.180786	-0.125442	0.080980	0.090479	-0.483596	-0.866828
55421	-0.758764	8.355335	4.939051	-0.015835	-0.049498	-0.077245	0.081684	0.090400	-0.482865	-0.867178
55422	-0.791054	8.534210	5.041225	0.009401	-0.062614	0.130574	0.082147	0.090259	-0.482313	-0.867456
55423	-0.788814	8.693552	5.219945	-0.019446	-0.012662	0.358219	0.082458	0.090147	-0.481498	-0.867890
55424	-0.718732	8.690704	5.212192	-0.077750	-0.052139	0.346204	0.082665	0.089902	-0.480666	-0.868357
55425	-0.763242	8.721715	5.244043	-0.031425	-0.047447	0.392585	0.082860	0.089559	-0.480066	-0.868706
55426	-0.669312	8.762449	5.090817	-0.072658	-0.229811	0.340479	0.083057	0.089100	-0.479438	-0.869081
55427	-0.552559	8.600316	4.869967	-0.130567	-0.367287	0.078489	0.083334	0.088680	-0.478792	-0.869453
55428	-0.650588	8.505052	4.784275	-0.009697	-0.379494	-0.040056	0.083709	0.088407	-0.478023	-0.869868
55429	-0.921882	8.400547	4.701881	0.277127	-0.346710	-0.151958	0.084136	0.088173	-0.477036	-0.870393
55430	-1.354253	8.458239	4.861367	0.672411	-0.168182	0.012190	0.084375	0.087844	-0.475835	-0.871060
55431	-1.539279	8.680660	4.947701	0.856422	-0.200129	0.258528	0.084207	0.087274	-0.474503	-0.871860
55432	-1.442959	8.594686	4.882355	0.784078	-0.263131	0.142413	0.083645	0.086604	-0.473054	-0.872767
55433	-1.490163	8.622645	4.919580	0.833042	-0.272775	0.187531	0.082955	0.085845	-0.471532	-0.873731
55434	-1.495464	8.679553	5.077207	0.816856	-0.212106	0.318290	0.082270	0.084949	-0.469952	-0.874735
55435	-1.523286	8.388865	5.231945	0.804667	0.038750	0.158149	0.081640	0.083924	-0.468422	-0.875712
55436	-1.677716	8.041927	5.275140	0.938715	0.265092	-0.098632	0.081010	0.082894	-0.467320	-0.876457
55437	-1.942716	7.835216	5.258961	1.201729	0.402552	-0.262023	0.080167	0.081743	-0.466778	-0.876932
55438	-2.139715	7.650598	5.129092	1.420939	0.446463	-0.474639	0.078610	0.080454	-0.468362	-0.876347
55439	-2.015075	8.094113	5.587641	1.233027	0.583893	0.133944	0.076457	0.078722	-0.470789	-0.875394
55440	-1.929213	8.252401	5.390789	1.209596	0.353938	0.152057	0.074370	0.076994	-0.472344	-0.874890
55441	-2.115026	8.594599	5.040170	1.493980	-0.066321	0.262400	0.072492	0.075306	-0.472780	-0.874959
55442	-1.854197	8.657713	4.827312	1.303560	-0.333540	0.181631	0.070391	0.072741	-0.472744	-0.875367
55443	-1.685469	9.003920	4.773125	1.194216	-0.613965	0.428937	0.068455	0.069938	-0.472247	-0.876017
55444	-1.435141	9.490696	4.860002	0.987879	-0.883566	0.864192	0.067100	0.067553	-0.470842	-0.877065
55445	-1.445809	9.283024	4.093897	1.159713	-1.443225	0.266834	0.066526	0.065715	-0.468625	-0.878434
55446	-1.446031	8.691123	4.129115	1.154798	-1.148092	-0.219769	0.066431	0.063568	-0.465840	-0.880079
55447	-1.330174	8.529894	3.891750	1.116198	-1.339865	-0.505034	0.066766	0.061281	-0.462377	-0.882040
55448	-1.273189	8.273087	3.816520	1.104971	-1.348100	-0.779881	0.067536	0.059087	-0.457871	-0.884478
55449	-1.369637	7.978237	3.694104	1.248792	-1.353115	-1.107329	0.068688	0.057367	-0.452935	-0.887040
55450	-1.627971	7.613404	3.697373	1.521100	-1.186840	-1.412595	0.069785	0.055660	-0.447827	-0.889653
55451	-1.392356	6.332886	4.017086	1.186572	-0.321584	-2.284823	0.070521	0.053256	-0.441948	-0.892677
55452	-0.389724	5.829157	4.666966	0.108094	0.216685	-2.339274	0.070414	0.049418	-0.436339	-0.895661
55453	1.328057	6.447589	4.606392	-1.457492	-0.600091	-1.934348	0.069769	0.044560	-0.429641	-0.899197
55454	2.387964	8.236811	5.541707	-2.403467	-1.286359	0.027239	0.069190	0.039632	-0.422233	-0.902973
55455	2.720056	10.687647	7.186731	-2.635408	-1.804112	2.957169	0.069014	0.035549	-0.414602	-0.906685
55456	3.069958	12.044476	8.502457	-2.920680	-1.957103	4.830405	0.069167	0.032617	-0.407178	-0.910142
55457	3.065367	12.161467	9.133358	-2.899301	-1.800635	5.322121	0.069926	0.031142	-0.399745	-0.913425
55458	2.740186	11.340426	9.264232	-2.625380	-1.330635	4.791184	0.071595	0.031288	-0.393480	-0.916007
55459	1.921086	10.160439	9.057355	-1.894930	-0.720629	3.783238	0.073299	0.032163	-0.389147	-0.917691
55460	1.752812	9.562693	8.752000	-1.757010	-0.609597	3.135507	0.074137	0.033228	-0.386471	-0.918717
55461	1.936506	8.512470	7.880315	-1.964032	-0.605259	1.766927	0.074050	0.034707	-0.384360	-0.919554
55462	1.796272	7.094501	6.853494	-1.885020	-0.381943	0.027504	0.073375	0.036950	-0.382215	-0.920414
55463	1.213206	5.923923	6.207992	-1.394772	0.028025	-1.259478	0.072466	0.039700	-0.380240	-0.921189
55464	0.954626	5.292685	5.762564	-1.190015	0.161083	-2.022398	0.071513	0.042521	-0.378313	-0.921931
55465	1.112481	4.450382	5.357090	-1.415074	0.405243	-2.915223	0.071068	0.045684	-0.376153	-0.922698
55466	1.255279	3.675049	5.101154	-1.633497	0.712185	-3.654139	0.071475	0.049292	-0.373961	-0.923371
55467	1.199533	3.027313	4.121288	-1.528136	0.471652	-4.809619	0.072780	0.053101	-0.371857	-0.923908
55468	1.028014	2.543429	3.287771	-1.304463	0.248805	-5.741861	0.075416	0.058010	-0.370611	-0.923902
55469	0.460119	2.542332	2.708209	-0.677779	-0.050581	-6.131987	0.079256	0.063272	-0.371347	-0.922939
55470	-0.112542	2.527744	2.881022	-0.176880	0.194055	-5.987321	0.084769	0.068856	-0.372665	-0.921517
55471	-1.168308	2.723875	4.227085	0.565603	1.203647	-4.824332	0.092428	0.075934	-0.372527	-0.920280
55472	-2.321615	4.215667	5.837132	1.435057	1.528547	-2.543757	0.100493	0.083141	-0.371811	-0.919100
55473	-4.639223	7.397909	9.457859	3.103603	2.321791	2.462401	0.107800	0.090431	-0.369262	-0.918611
55474	-6.609304	10.863230	10.827651	4.970264	1.327214	6.076439	0.112181	0.095985	-0.366936	-0.918455
55475	-7.805828	12.872341	11.954275	5.971588	0.937716	8.435375	0.114590	0.100431	-0.363193	-0.919170
55476	-6.798022	12.145957	11.283703	5.028282	0.660157	7.372763	0.116257	0.102181	-0.361385	-0.919480
55477	-5.615875	11.221973	11.013125	3.846766	0.778032	6.415581	0.118042	0.102206	-0.360816	-0.919474
55478	-5.059366	11.280149	10.325261	3.556472	0.141163	5.896585	0.119549	0.100796	-0.360829	-0.919430
55479	-4.469537	10.941056	9.432625	3.265163	-0.354683	4.947738	0.120844	0.098248	-0.360616	-0.919620
55480	-4.147316	9.772270	8.319711	3.177748	-0.334110	3.290922	0.121815	0.094751	-0.360389	-0.919948
55481	-3.862443	8.573600	7.452413	3.054814	-0.124128	1.789693	0.122170	0.089883	-0.360581	-0.920314
55482	-3.141082	7.123281	6.528981	2.482787	0.098793	0.039224	0.122016	0.084068	-0.360836	-0.920783
55483	-2.425633	5.556101	6.013528	1.771211	0.665341	-1.485871	0.121297	0.078128	-0.360794	-0.921418
55484	-2.033737	4.167388	5.251290	1.426196	1.032222	-3.031882	0.119932	0.072869	-0.360194	-0.922262
55485	-1.899167	2.591572	4.658805	1.226598	1.708270	-4.558683	0.117807	0.068336	-0.358978	-0.923356
55486	-1.819943	1.211780	4.186443	1.066964	2.341928	-5.852420	0.114708	0.064643	-0.358121	-0.924344
55487	-1.775139	0.914387	4.041627	1.036234	2.437631	-6.164936	0.110631	0.062782	-0.358981	-0.924636
55488	-1.946411	1.786514	3.596517	1.441719	1.562389	-5.888982	0.105454	0.062552	-0.360497	-0.924667
55489	-1.832752	2.957060	5.796067	1.081531	2.144557	-3.493771	0.098513	0.060684	-0.362795	-0.924658
55490	-0.316855	4.786106	6.724567	-0.301859	1.133446	-1.636442	0.090371	0.057630	-0.365599	-0.924581
55491	0.772707	8.278529	8.818123	-1.301848	-0.127391	2.236336	0.081170	0.053916	-0.367902	-0.924745
55492	1.573807	12.195959	10.867237	-2.010813	-1.642343	6.391459	0.070796	0.049432	-0.367753	-0.925906
55493	1.923013	11.125596	11.579884	-2.579277	-0.470726	6.146513	0.062066	0.046384	-0.365204	-0.927697
55494	1.018098	8.651778	11.844651	-1.906377	1.602115	4.678150	0.055522	0.043200	-0.364549	-0.928523
55495	0.927942	7.231823	11.868483	-1.859537	2.693223	3.726476	0.049314	0.039019	-0.366258	-0.928386
55496	1.309346	6.820696	11.339807	-2.117418	2.674041	3.040011	0.042159	0.034114	-0.369144	-0.927788
55497	1.927915	6.640378	10.006413	-2.525713	1.945847	1.924954	0.034189	0.028955	-0.372859	-0.926806
55498	2.173949	7.001833	9.011009	-2.602371	1.119706	1.453264	0.025667	0.023347	-0.377184	-0.925488
55499	2.394769	7.467099	8.319534	-2.702778	0.442629	1.287041	0.016966	0.017421	-0.381416	-0.924084
55500	2.492328	7.456696	7.770946	-2.718448	0.203503	0.900312	0.008518	0.011322	-0.385187	-0.922730
55501	2.427168	6.721465	7.232631	-2.585306	0.468116	0.009513	0.000654	0.005328	-0.388903	-0.921263
55502	2.079638	5.829568	6.793678	-2.170799	0.893272	-0.927240	-0.006889	-0.000413	-0.392718	-0.919633
55503	1.826772	4.838215	6.250072	-1.848539	1.284613	-2.019078	-0.014575	-0.006032	-0.396697	-0.917814
55504	1.801734	4.317523	5.754266	-1.764208	1.376472	-2.742282	-0.022619	-0.011689	-0.400971	-0.915737
55505	1.958684	4.307022	5.392610	-1.881707	1.227062	-2.999501	-0.030909	-0.017053	-0.405496	-0.913415
55506	2.265816	4.605739	4.996262	-2.181328	0.861540	-3.044537	-0.038953	-0.021772	-0.410015	-0.910986
55507	2.331186	4.959727	4.765227	-2.254713	0.569409	-2.932878	-0.046545	-0.025704	-0.414321	-0.908576
55508	2.288430	5.634747	4.632417	-2.254651	0.129844	-2.508890	-0.053571	-0.028659	-0.418107	-0.906364
55509	2.302450	6.176087	4.847348	-2.287841	0.047032	-1.957444	-0.060099	-0.031215	-0.421756	-0.904177
55510	2.341460	6.867464	5.186118	-2.351229	-0.028109	-1.209755	-0.066082	-0.033455	-0.425089	-0.902116
55511	2.633830	7.487851	5.621734	-2.652275	0.061444	-0.454824	-0.071431	-0.035304	-0.428482	-0.900030
55512	2.811301	7.864667	5.739515	-2.858531	0.052136	-0.090364	-0.075928	-0.036396	-0.431958	-0.897954
55513	2.866167	8.187038	5.717284	-2.963009	-0.046961	0.144584	-0.079373	-0.036755	-0.435690	-0.895837
55514	2.812824	8.500455	5.453423	-2.997405	-0.344439	0.227506	-0.081724	-0.036417	-0.439745	-0.893655
55515	2.467588	8.619369	5.308060	-2.711677	-0.486646	0.235553	-0.082986	-0.035332	-0.443882	-0.891535
55516	1.999859	8.614663	5.314995	-2.272363	-0.465682	0.241158	-0.083383	-0.033826	-0.447856	-0.889566
55517	1.372252	8.769192	5.628101	-1.656472	-0.333988	0.560420	-0.083322	-0.031921	-0.451058	-0.888023
55518	0.556386	8.523122	5.533775	-0.866343	-0.346956	0.321641	-0.083492	-0.029888	-0.453223	-0.886975
55519	-0.088171	8.046502	5.324940	-0.235905	-0.308123	-0.171209	-0.084275	-0.027874	-0.454885	-0.886116
55520	-0.715955	7.639801	5.053568	0.360739	-0.367331	-0.639224	-0.085774	-0.026097	-0.456281	-0.885307
55521	-1.522837	7.772654	5.192724	1.113806	-0.441087	-0.417889	-0.088061	-0.024644	-0.457251	-0.884624
55522	-1.906002	8.530013	5.421650	1.372623	-0.727797	0.354626	-0.091018	-0.023611	-0.458053	-0.883938
55523	-1.581018	9.432748	5.737657	0.913738	-0.905008	1.266249	-0.094121	-0.022433	-0.458289	-0.883521
55524	-1.096026	10.099119	5.911421	0.301990	-1.041291	1.890414	-0.096423	-0.020755	-0.458144	-0.883389
55525	-1.040990	10.250530	5.782377	0.152158	-1.222551	1.937840	-0.097609	-0.018928	-0.457629	-0.883566
55526	-1.352805	10.082237	5.429501	0.398550	-1.478539	1.616050	-0.097929	-0.017365	-0.457296	-0.883736
55527	-2.056648	9.955344	5.316457	1.067646	-1.628255	1.492721	-0.097867	-0.016147	-0.457429	-0.883697
55528	-2.543533	9.403394	5.370524	1.622027	-1.358444	1.107914	-0.097644	-0.015345	-0.457657	-0.883618
55529	-3.013114	8.689269	5.382103	2.189050	-1.028040	0.565196	-0.097367	-0.014894	-0.457950	-0.883504
55530	-3.030440	8.204691	5.712908	2.319070	-0.478468	0.362320	-0.097166	-0.014863	-0.458819	-0.883076
55531	-2.806413	7.827324	6.096581	2.206582	0.107502	0.258589	-0.097009	-0.015020	-0.460093	-0.882427
55532	-2.544190	8.042270	6.071624	1.921859	0.042748	0.401038	-0.097134	-0.015562	-0.461304	-0.881772
55533	-2.402577	7.542669	5.382114	1.793695	-0.196040	-0.411859	-0.097403	-0.016224	-0.462329	-0.881193
55534	-2.693408	6.835490	5.064826	2.167505	-0.093525	-1.156829	-0.097798	-0.017430	-0.464378	-0.880048
55535	-2.511401	7.303509	5.035514	1.936928	-0.300665	-0.803665	-0.099118	-0.019740	-0.467002	-0.878462
55536	-1.840379	8.276997	4.996145	1.150212	-0.688489	-0.062820	-0.101289	-0.022260	-0.469374	-0.876888
55537	-1.266931	9.315647	5.140635	0.463635	-0.982417	0.847162	-0.103835	-0.024496	-0.470202	-0.876087
55538	-0.806924	9.654930	4.909668	-0.065134	-1.255628	0.975862	-0.106342	-0.026325	-0.469845	-0.875925
55539	-0.518876	9.765227	5.117239	-0.334663	-1.097245	1.164518	-0.108397	-0.027784	-0.468973	-0.876095
55540	-0.414587	9.415193	4.942331	-0.399642	-1.045874	0.769883	-0.109575	-0.029274	-0.468619	-0.876090
55541	-0.465699	8.917272	5.088704	-0.227621	-0.672111	0.440406	-0.109714	-0.030789	-0.469062	-0.875783
55542	-0.302359	8.448768	4.856851	-0.316099	-0.569205	-0.084477	-0.109306	-0.032539	-0.469642	-0.875460
55543	-0.141934	8.211576	4.943387	-0.388026	-0.330067	-0.240456	-0.108550	-0.033957	-0.470090	-0.875259
55544	-0.022444	8.272657	4.973658	-0.481422	-0.307848	-0.176919	-0.107679	-0.034882	-0.470319	-0.875208
55545	-0.050563	8.360736	4.903066	-0.459219	-0.426367	-0.140469	-0.106837	-0.035388	-0.469658	-0.875645
55546	0.104510	8.257824	5.107563	-0.549642	-0.190671	-0.119841	-0.106115	-0.035736	-0.468725	-0.876219
55547	-0.019252	8.258850	5.178930	-0.409390	-0.183423	-0.074669	-0.105528	-0.035939	-0.467666	-0.876847
55548	0.005602	8.597634	5.732091	-0.390728	0.069281	0.512946	-0.105018	-0.036162	-0.466828	-0.877346
55549	-0.033185	8.491873	5.844014	-0.313792	0.190234	0.489294	-0.104319	-0.036146	-0.466186	-0.877771
55550	0.104496	8.543922	5.805422	-0.456300	0.147507	0.506347	-0.103405	-0.036098	-0.465923	-0.878021
55551	0.064071	8.451443	5.688829	-0.412641	0.092754	0.366453	-0.102268	-0.036048	-0.466325	-0.877943
55552	0.145796	8.391802	5.682992	-0.473875	0.145941	0.311251	-0.100997	-0.035939	-0.466950	-0.877762
55553	0.039567	8.228379	5.619293	-0.345657	0.168956	0.144029	-0.099660	-0.035795	-0.467396	-0.877683
55554	0.142069	8.257230	5.637776	-0.434905	0.194681	0.175280	-0.098618	-0.036029	-0.467676	-0.877642
55555	0.195475	8.106923	5.551126	-0.467011	0.218492	0.001056	-0.097646	-0.036134	-0.467908	-0.877623
55556	0.069632	7.991934	5.436702	-0.334376	0.166526	-0.153804	-0.096868	-0.036331	-0.468356	-0.877462
55557	0.079897	8.032358	5.566890	-0.319416	0.265056	-0.048308	-0.096352	-0.036585	-0.469123	-0.877098
55558	0.026610	7.996524	5.446449	-0.272488	0.192143	-0.143266	-0.095998	-0.036611	-0.470036	-0.876647
55559	-0.010490	7.977514	5.393936	-0.235547	0.172853	-0.187202	-0.095960	-0.036825	-0.471108	-0.876067
55560	-0.055756	8.100085	5.593872	-0.171629	0.286303	0.025728	-0.096323	-0.037146	-0.472157	-0.875448
55561	-0.117359	8.125654	5.467015	-0.132332	0.177982	-0.020903	-0.097289	-0.037436	-0.473013	-0.874867
55562	-0.188327	8.043402	5.487246	-0.054286	0.242094	-0.077182	-0.099070	-0.037701	-0.473609	-0.874333
55563	-0.033336	8.305950	5.203310	-0.296425	-0.076956	-0.016234	-0.101493	-0.038230	-0.474618	-0.873485
55564	0.113511	8.772452	5.194659	-0.519730	-0.270243	0.366215	-0.104243	-0.038827	-0.475508	-0.872650
55565	0.183246	8.448561	5.136562	-0.564189	-0.103013	0.059850	-0.106922	-0.039414	-0.476764	-0.871614
55566	0.352077	8.205399	5.565963	-0.628836	0.451551	0.078370	-0.109623	-0.040343	-0.478122	-0.870491
55567	0.335212	8.373962	5.811051	-0.599359	0.598471	0.350306	-0.111921	-0.041052	-0.479200	-0.869572
55568	0.199933	8.504423	5.789078	-0.496805	0.504193	0.452670	-0.114079	-0.041704	-0.479483	-0.869105
55569	0.074870	8.403818	5.664885	-0.388734	0.432030	0.305756	-0.116127	-0.042265	-0.479500	-0.868797
55570	0.021180	8.037351	5.526437	-0.310045	0.493898	-0.076112	-0.118249	-0.042956	-0.479323	-0.868575
55571	0.015541	7.932484	5.456645	-0.304293	0.490685	-0.201957	-0.120606	-0.043982	-0.479322	-0.868200
55572	0.048763	8.289819	5.174516	-0.451584	0.091881	-0.051196	-0.123103	-0.045077	-0.479478	-0.867706
55573	0.173382	8.611248	5.165484	-0.634432	-0.038857	0.210379	-0.125646	-0.045968	-0.479401	-0.867338
55574	0.363609	8.595337	5.160764	-0.828126	0.017094	0.185283	-0.128239	-0.046591	-0.478990	-0.867152
55575	0.419748	8.383870	5.206201	-0.852297	0.175541	0.026659	-0.130681	-0.046880	-0.478582	-0.866997
55576	0.335607	8.415680	4.936981	-0.850970	-0.083628	-0.087519	-0.132970	-0.046993	-0.478249	-0.866827
55577	0.160923	8.556726	5.149461	-0.686575	-0.028556	0.151657	-0.135105	-0.046990	-0.477752	-0.866771
55578	0.100711	8.511549	5.107623	-0.651706	-0.061945	0.092655	-0.136991	-0.046757	-0.477126	-0.866832
55579	0.118126	8.462394	5.097502	-0.686618	-0.049265	0.043105	-0.138678	-0.046228	-0.476357	-0.867015
55580	0.008859	8.380668	5.231613	-0.565546	0.062243	0.050459	-0.140232	-0.045544	-0.475755	-0.867132
55581	0.068320	8.445725	5.125979	-0.685846	-0.049118	0.043160	-0.141785	-0.044861	-0.474940	-0.867362
55582	0.100259	8.554327	5.208925	-0.752608	-0.042729	0.174860	-0.143142	-0.043839	-0.473757	-0.867838
55583	-0.046470	8.423748	5.410082	-0.580358	0.123189	0.181236	-0.144208	-0.042408	-0.472420	-0.868462
55584	-0.188251	8.174558	5.533565	-0.407531	0.286087	0.047894	-0.144911	-0.040627	-0.471143	-0.869123
55585	-0.294651	7.929979	5.671743	-0.267223	0.471873	-0.073806	-0.145392	-0.038671	-0.470055	-0.869721
55586	-0.384577	7.811956	5.527715	-0.225227	0.374552	-0.245084	-0.145796	-0.036708	-0.469246	-0.870175
55587	-0.527681	7.764075	5.769824	-0.067848	0.544360	-0.140607	-0.146514	-0.035089	-0.468604	-0.870467
55588	-0.515798	7.546757	5.843094	-0.055379	0.708022	-0.280803	-0.147580	-0.033347	-0.467702	-0.870840
55589	-0.598969	7.821020	5.593188	-0.130467	0.327241	-0.185302	-0.149072	-0.031449	-0.466629	-0.871233
55590	-0.585601	8.132477	5.550089	-0.274719	0.116489	0.046027	-0.151024	-0.029534	-0.465128	-0.871766
55591	-0.372008	8.023904	5.487185	-0.522243	0.157735	-0.100188	-0.153374	-0.027583	-0.463345	-0.872369
55592	-0.458083	7.774789	5.540903	-0.431189	0.278518	-0.268322	-0.155856	-0.025442	-0.461565	-0.872937
55593	-0.492171	7.611769	5.625067	-0.405294	0.395042	-0.352142	-0.158285	-0.023229	-0.459786	-0.873500
55594	-0.453539	7.600510	5.301108	-0.558326	0.129510	-0.552753	-0.160737	-0.021256	-0.458201	-0.873936
55595	-0.377267	7.960828	5.267314	-0.786746	-0.084354	-0.292429	-0.163114	-0.019502	-0.456681	-0.874332
55596	-0.645094	8.311329	5.374531	-0.663766	-0.287402	0.079551	-0.165352	-0.017692	-0.454872	-0.874893
55597	-1.327008	8.316961	5.478983	-0.059875	-0.441952	0.224882	-0.167337	-0.015822	-0.453092	-0.875475
55598	-2.002295	8.274810	5.925670	0.616044	-0.298322	0.537505	-0.169199	-0.014516	-0.451656	-0.875881
55599	-2.220787	8.326905	5.872357	0.758574	-0.454760	0.578244	-0.170956	-0.013869	-0.450883	-0.875949
55600	-2.133881	8.567884	5.726387	0.555820	-0.679883	0.674561	-0.172315	-0.013585	-0.450599	-0.875833
55601	-2.070302	8.781688	5.592061	0.391188	-0.881921	0.758240	-0.173059	-0.013054	-0.450421	-0.875786
55602	-2.438977	8.854511	5.713626	0.718392	-0.941212	0.938800	-0.173234	-0.012040	-0.450113	-0.875924
55603	-2.736611	8.710161	5.663023	1.011928	-0.997751	0.836550	-0.173214	-0.011041	-0.449985	-0.876007
55604	-2.694531	8.830177	5.467591	0.889273	-1.197853	0.812820	-0.173124	-0.010337	-0.450199	-0.875924
55605	-2.691041	8.832565	5.322137	0.852487	-1.302328	0.730474	-0.172860	-0.009757	-0.450663	-0.875744
55606	-2.763952	8.552531	5.112614	0.965735	-1.327802	0.396539	-0.172398	-0.009412	-0.451299	-0.875511
55607	-2.733380	8.514313	5.298416	0.982613	-1.136709	0.472275	-0.171662	-0.009066	-0.451824	-0.875389
55608	-2.821446	8.173451	5.217639	1.156813	-1.033659	0.166438	-0.170429	-0.008556	-0.452381	-0.875347
55609	-2.853723	8.078841	5.021325	1.193873	-1.130671	-0.018746	-0.169015	-0.008452	-0.453389	-0.875100
55610	-2.793076	8.200487	4.892920	1.099364	-1.254021	-0.004086	-0.167441	-0.008409	-0.454613	-0.874768
55611	-2.848855	8.162148	4.883804	1.181260	-1.236433	-0.031890	-0.165720	-0.008259	-0.455288	-0.874746
55612	-2.760730	7.891168	4.980363	1.208790	-0.977309	-0.206448	-0.163753	-0.008062	-0.455766	-0.874870
55613	-2.834054	7.594699	5.010693	1.384662	-0.807109	-0.418562	-0.161355	-0.007688	-0.456121	-0.875134
55614	-2.956919	7.658075	5.060641	1.514855	-0.820785	-0.324220	-0.158922	-0.007698	-0.456911	-0.875167
55615	-2.889718	7.599542	5.069518	1.496344	-0.744824	-0.378196	-0.156413	-0.007808	-0.457737	-0.875186
55616	-2.872728	7.499372	5.140321	1.547345	-0.611818	-0.424006	-0.153838	-0.007998	-0.458506	-0.875239
55617	-3.065865	7.577048	5.322482	1.770413	-0.541435	-0.236030	-0.151367	-0.008414	-0.459220	-0.875291
55618	-3.003793	8.048239	5.608321	1.665825	-0.530987	0.296377	-0.149173	-0.008912	-0.459516	-0.875507
55619	-2.597597	8.491959	5.880266	1.235353	-0.440304	0.757004	-0.147347	-0.009379	-0.459092	-0.876034
55620	-2.277263	8.777415	5.844335	0.874867	-0.551160	0.925839	-0.145596	-0.009491	-0.458361	-0.876708
55621	-2.186816	9.122066	5.946244	0.738248	-0.648611	1.250147	-0.143941	-0.009739	-0.457597	-0.877377
55622	-1.879452	9.503110	6.034122	0.390450	-0.725041	1.570361	-0.142298	-0.010562	-0.456830	-0.878035
55623	-1.524365	9.615624	6.168609	0.078298	-0.613987	1.696106	-0.140306	-0.011561	-0.455910	-0.878821
55624	-1.371137	9.004423	6.034018	0.095910	-0.381331	1.105838	-0.137686	-0.012428	-0.455121	-0.879632
55625	-1.384505	8.575334	6.290606	0.288222	0.029909	0.908355	-0.134770	-0.013474	-0.454482	-0.880399
55626	-1.300392	8.032749	6.273634	0.372811	0.308582	0.450846	-0.131556	-0.014642	-0.453598	-0.881321
55627	-1.579246	7.333085	5.787832	0.775770	0.213720	-0.372381	-0.128260	-0.016331	-0.452951	-0.882110
55628	-1.510994	7.280220	5.671243	0.764629	0.147281	-0.493838	-0.125790	-0.019226	-0.452503	-0.882637
55629	-1.164030	7.144300	5.491112	0.493885	0.133082	-0.741511	-0.124250	-0.022406	-0.451123	-0.883486
55630	-0.898872	6.966722	5.527416	0.334705	0.280237	-0.884949	-0.123600	-0.025789	-0.449041	-0.884545
55631	-0.736957	6.880709	5.309639	0.214373	0.141159	-1.094135	-0.123674	-0.029570	-0.446508	-0.885698
55632	-0.186224	7.064886	5.844206	-0.210867	0.534097	-0.660000	-0.124411	-0.034115	-0.443993	-0.886695
55633	0.214045	7.178144	6.201678	-0.497021	0.785575	-0.369832	-0.125914	-0.038686	-0.440880	-0.887848
55634	0.494166	7.224362	6.646417	-0.636131	1.108089	-0.067062	-0.128441	-0.043492	-0.437707	-0.888833
55635	1.047886	7.643907	6.860517	-1.144246	1.110189	0.387878	-0.131896	-0.048772	-0.434506	-0.889623
55636	1.651755	8.305559	6.707459	-1.813547	0.711201	0.812996	-0.135944	-0.054428	-0.431162	-0.890312
55637	2.474890	8.468142	6.633666	-2.581915	0.741472	0.893544	-0.140015	-0.059952	-0.427890	-0.890905
55638	2.781331	8.517429	6.722598	-2.799748	0.826587	1.001812	-0.143800	-0.065024	-0.424950	-0.891353
55639	2.889583	8.193649	6.900402	-2.736712	1.147742	0.878142	-0.147193	-0.069448	-0.422383	-0.891686
55640	2.814983	8.202093	6.696687	-2.666070	0.945575	0.772294	-0.150286	-0.073181	-0.420790	-0.891624
55641	3.028231	8.086560	6.089404	-2.961558	0.630807	0.310290	-0.153478	-0.076086	-0.419430	-0.891478
55642	3.106884	7.717018	6.112365	-2.935785	0.897296	0.043383	-0.156793	-0.077804	-0.418523	-0.891180
55643	2.665225	7.324385	5.999343	-2.467665	0.911358	-0.335231	-0.160493	-0.078694	-0.418023	-0.890677
55644	2.297637	7.239761	5.990944	-2.116546	0.848330	-0.411347	-0.164572	-0.079486	-0.417879	-0.889930
55645	2.362084	7.143632	6.065116	-2.146245	1.010032	-0.444127	-0.168990	-0.080215	-0.417970	-0.888993
55646	2.284088	6.997700	6.017404	-2.067284	1.067210	-0.594158	-0.173617	-0.080673	-0.418219	-0.887943
55647	2.116618	6.930615	5.852785	-1.959054	0.966488	-0.757501	-0.178509	-0.081143	-0.418926	-0.886596
55648	2.075162	6.801169	5.893959	-1.890474	1.105752	-0.840279	-0.183659	-0.081799	-0.420052	-0.884949
55649	2.396470	6.574575	5.792294	-2.170519	1.344350	-1.094886	-0.188850	-0.082200	-0.421161	-0.883291
55650	1.976566	6.574707	5.854724	-1.781030	1.279073	-1.060376	-0.193887	-0.082331	-0.422563	-0.881516
55651	1.859723	6.658524	5.935998	-1.685806	1.302592	-0.953141	-0.199015	-0.082710	-0.424125	-0.879585
55652	1.957372	6.721064	6.012013	-1.779124	1.427849	-0.871554	-0.204291	-0.083085	-0.425872	-0.877494
55653	1.960777	6.831822	6.106727	-1.797050	1.503028	-0.739558	-0.209776	-0.083227	-0.427333	-0.875474
55654	1.873446	7.029451	6.053493	-1.812318	1.386063	-0.627827	-0.215565	-0.083278	-0.428760	-0.873362
55655	1.914888	7.069779	6.112357	-1.864305	1.491576	-0.576420	-0.221633	-0.083302	-0.429887	-0.871285
55656	2.016820	6.969119	6.209511	-1.912036	1.725234	-0.616954	-0.227847	-0.083477	-0.430884	-0.869170
55657	2.270385	6.846977	5.863180	-2.232637	1.724107	-0.955206	-0.234013	-0.083584	-0.431923	-0.867003
55658	2.255189	7.050780	5.608130	-2.393325	1.500741	-0.965669	-0.240087	-0.083661	-0.433259	-0.864665
55659	2.020732	7.978933	5.521049	-2.558922	0.933928	-0.283376	-0.246194	-0.083761	-0.434605	-0.862260
55660	1.609415	8.464660	5.637305	-2.366858	0.645600	0.187340	-0.252066	-0.083395	-0.435255	-0.860268
55661	0.646795	8.989466	5.920194	-1.676814	0.165350	0.838037	-0.257798	-0.082630	-0.435566	-0.858484
55662	-0.754969	8.991591	6.342387	-0.394312	-0.211222	1.207470	-0.263784	-0.081611	-0.435211	-0.856942
55663	-2.093042	8.202010	6.738472	1.115441	-0.223352	0.946788	-0.269908	-0.081113	-0.435369	-0.855000
55664	-2.564943	8.415934	7.826868	1.781856	0.214541	1.825419	-0.276509	-0.081881	-0.435798	-0.852595
55665	-2.607996	9.286505	8.092854	1.525468	-0.010510	2.685620	-0.283363	-0.082741	-0.435755	-0.850280
55666	-2.734116	9.980089	8.183387	1.318214	-0.326139	3.309844	-0.290192	-0.083080	-0.435033	-0.848312
55667	-2.941810	9.751345	7.805845	1.359296	-0.600869	2.933487	-0.296648	-0.083203	-0.434334	-0.846422
55668	-3.578416	9.113264	7.477388	1.955651	-0.901798	2.317026	-0.302483	-0.084038	-0.434626	-0.844122
55669	-3.734268	8.804410	7.031611	2.001031	-1.151475	1.831018	-0.308236	-0.086147	-0.435438	-0.841405
55670	-3.318586	8.937461	6.602033	1.414935	-1.243344	1.629781	-0.314221	-0.088740	-0.436059	-0.838596
55671	-3.337726	8.285779	6.130606	1.502448	-1.294895	0.838356	-0.320441	-0.091332	-0.436322	-0.835823
55672	-3.504798	7.709774	5.763951	1.715234	-1.409879	0.188190	-0.327340	-0.094787	-0.436616	-0.832604
55673	-3.177458	7.356188	5.099823	1.317683	-1.512808	-0.528666	-0.335090	-0.099498	-0.437048	-0.828736
55674	-2.864226	7.218632	4.805261	1.004484	-1.453907	-0.852769	-0.343138	-0.104985	-0.437673	-0.824425
55675	-2.676893	7.051562	4.526843	0.814036	-1.447211	-1.174081	-0.351101	-0.110894	-0.438212	-0.820001
55676	-2.448909	6.928335	4.230623	0.566585	-1.437813	-1.475492	-0.358820	-0.116979	-0.438517	-0.815639
55677	-2.161061	7.057754	3.973677	0.176681	-1.443552	-1.556956	-0.366126	-0.123093	-0.438857	-0.811298
55678	-1.960297	7.336808	3.997180	-0.079873	-1.374900	-1.342019	-0.373291	-0.128724	-0.438620	-0.807277
55679	-1.892254	7.628973	4.212074	-0.151617	-1.283640	-0.989270	-0.380179	-0.133838	-0.438092	-0.803509
55680	-2.006765	7.919903	4.381287	-0.127444	-1.353520	-0.642116	-0.386794	-0.138343	-0.437249	-0.800041
55681	-2.029101	8.378114	4.456669	-0.306863	-1.467106	-0.224916	-0.393252	-0.142666	-0.436171	-0.796715
55682	-1.846490	8.723216	4.503328	-0.584768	-1.408313	0.059428	-0.399499	-0.146780	-0.434750	-0.793630
55683	-1.647154	8.851631	4.639006	-0.712671	-1.221219	0.216548	-0.405450	-0.150746	-0.432931	-0.790858
55684	-1.526774	8.616790	4.595269	-0.708103	-1.096209	-0.015061	-0.411023	-0.154667	-0.430851	-0.788357
55685	-1.496966	8.308324	4.587343	-0.579494	-1.005574	-0.275086	-0.416132	-0.158937	-0.428929	-0.785871
55686	-1.572583	8.069454	4.590040	-0.403345	-1.017075	-0.460661	-0.420793	-0.163677	-0.427167	-0.783372
55687	-1.507112	7.879740	4.607796	-0.316381	-0.928319	-0.613150	-0.425094	-0.168878	-0.425452	-0.780875
55688	-1.425877	7.666950	4.468277	-0.316476	-0.906126	-0.876278	-0.428832	-0.174026	-0.423891	-0.778546
55689	-1.412528	7.352897	4.579569	-0.061847	-0.782675	-1.071051	-0.431962	-0.179045	-0.422465	-0.776450
55690	-1.584101	7.210722	4.657293	0.192010	-0.880150	-1.130377	-0.434727	-0.184203	-0.421028	-0.774478
55691	-1.567263	7.626679	4.689162	0.023284	-1.001144	-0.778989	-0.437567	-0.189487	-0.419154	-0.772619
55692	-1.185443	8.260546	4.499627	-0.608794	-0.985941	-0.402819	-0.440435	-0.194252	-0.416876	-0.771037
55693	-0.980696	8.877525	4.554331	-0.981364	-0.994437	0.115151	-0.443015	-0.198312	-0.414288	-0.769919
55694	-0.857290	9.184910	4.458586	-1.250509	-1.060233	0.301087	-0.444758	-0.202281	-0.412246	-0.768977
55695	-0.755112	9.405838	4.820364	-1.135400	-0.906955	0.683210	-0.445462	-0.206470	-0.411063	-0.768089
55696	-0.735893	9.216603	4.929469	-0.914319	-0.828433	0.592320	-0.444996	-0.210687	-0.410937	-0.767281
55697	-0.821676	9.107756	5.087997	-0.625074	-0.835335	0.600036	-0.443676	-0.215286	-0.411357	-0.766543
55698	-0.796220	9.550349	5.504409	-0.475760	-0.783995	1.200928	-0.442117	-0.219986	-0.411611	-0.765973
55699	-0.414657	9.891877	5.345462	-0.864396	-0.662572	1.385897	-0.440676	-0.223825	-0.411478	-0.765763
55700	-0.317539	10.590661	5.551048	-1.037512	-0.723951	2.081681	-0.439574	-0.227132	-0.410988	-0.765686
55701	-0.270795	10.506966	6.290612	-0.437827	-0.388157	2.422455	-0.438345	-0.229715	-0.410294	-0.765991
55702	-0.140237	10.228148	7.183566	0.314718	0.133771	2.682147	-0.437112	-0.232298	-0.409364	-0.766415
55703	0.499028	10.172835	7.954317	0.612767	0.965533	3.059702	-0.435534	-0.234920	-0.408152	-0.767160
55704	1.354077	8.630857	7.096834	0.336032	1.705947	1.307860	-0.433069	-0.237465	-0.407290	-0.768230
55705	1.351481	7.029834	6.080266	0.413634	1.687459	-0.582541	-0.429310	-0.240555	-0.407965	-0.769019
55706	1.637094	7.397345	5.732782	-0.087464	1.641156	-0.455119	-0.425613	-0.243348	-0.408949	-0.769673
55707	1.710761	8.277780	5.778809	-0.440920	1.432628	0.316281	-0.422464	-0.244192	-0.409720	-0.770730
55708	1.568357	8.526175	5.775025	-0.464974	1.215337	0.522353	-0.419959	-0.243372	-0.410007	-0.772203
55709	1.635770	8.180195	5.804225	-0.344107	1.381369	0.249802	-0.417776	-0.241164	-0.410257	-0.773946
55710	1.314680	8.100812	5.896219	-0.102252	1.175984	0.223420	-0.415482	-0.238639	-0.410849	-0.775648
55711	1.282981	8.272006	5.893293	-0.196226	1.100414	0.363437	-0.412719	-0.235724	-0.411747	-0.777536
55712	1.298906	8.651169	5.602436	-0.613232	0.868994	0.521037	-0.409460	-0.232380	-0.412889	-0.779656
55713	1.318200	8.450525	5.309884	-0.780441	0.817959	0.190591	-0.405629	-0.228353	-0.413884	-0.782318
55714	1.486131	8.063606	4.825431	-1.088820	0.850153	-0.399579	-0.400891	-0.223631	-0.414996	-0.785528
55715	1.721534	7.574407	4.730046	-1.129801	1.149783	-0.862272	-0.395073	-0.218106	-0.416605	-0.789169
55716	1.641223	7.323483	4.566758	-1.142913	1.081733	-1.169449	-0.388104	-0.211532	-0.418559	-0.793371
55717	1.325892	7.262813	4.611436	-0.961468	0.866634	-1.204792	-0.381052	-0.204389	-0.419954	-0.797911
55718	1.162644	7.320665	4.833501	-0.813904	0.822479	-1.039591	-0.373247	-0.196875	-0.421346	-0.802742
55719	1.199285	7.812523	4.855563	-1.110103	0.666439	-0.627193	-0.364975	-0.189089	-0.422688	-0.807696
55720	1.189170	8.191695	4.843635	-1.345505	0.487632	-0.329537	-0.356102	-0.181037	-0.424322	-0.812630
55721	1.247595	8.189836	4.768147	-1.500497	0.460459	-0.383949	-0.346500	-0.172594	-0.426045	-0.817701
55722	1.358137	7.879228	4.821978	-1.486185	0.663405	-0.618725	-0.335648	-0.163940	-0.428383	-0.822771
55723	1.286940	7.917037	4.842052	-1.501858	0.581970	-0.583034	-0.323563	-0.154907	-0.430975	-0.827992
55724	1.055664	7.878745	5.028303	-1.273145	0.532149	-0.508469	-0.310385	-0.145422	-0.433801	-0.833265
55725	0.949757	7.639664	4.926612	-1.206245	0.477690	-0.765339	-0.296027	-0.135414	-0.436704	-0.838642
55726	0.792884	7.683816	5.019555	-1.108802	0.399795	-0.676166	-0.280535	-0.124569	-0.439587	-0.844124
55727	0.451301	7.832205	4.988039	-0.950006	0.092506	-0.565182	-0.264457	-0.113368	-0.442307	-0.849456
55728	0.159199	8.049180	4.852507	-0.873175	-0.276275	-0.457334	-0.248169	-0.102437	-0.445207	-0.854230
55729	-0.087847	8.625818	5.175421	-0.744481	-0.442380	0.209659	-0.231365	-0.091074	-0.448865	-0.858310
55730	-0.435975	9.540454	5.761726	-0.529879	-0.598336	1.312462	-0.214332	-0.079445	-0.452253	-0.862100
55731	-1.085283	10.005872	6.218044	0.042340	-0.735119	1.994809	-0.197072	-0.067216	-0.454711	-0.865958
55732	-1.915316	9.430618	6.202169	0.930867	-0.742501	1.573875	-0.180113	-0.055496	-0.456007	-0.869792
55733	-2.502454	8.756040	6.123828	1.613033	-0.601052	1.025580	-0.163494	-0.044594	-0.457403	-0.872962
55734	-3.095429	8.653629	6.418200	2.251104	-0.407293	1.161180	-0.147344	-0.034609	-0.459177	-0.875356
55735	-4.162295	8.615954	6.841475	3.346430	-0.224244	1.461819	-0.132204	-0.025210	-0.460501	-0.877397
55736	-4.968686	8.187432	6.684579	4.175833	-0.173081	1.093085	-0.118956	-0.017498	-0.461908	-0.878740
55737	-4.674899	8.083438	6.379953	3.867611	-0.152059	0.813570	-0.107751	-0.011398	-0.463696	-0.879344
55738	-4.104389	7.687907	5.600843	3.294776	-0.334574	0.003152	-0.097752	-0.005753	-0.465709	-0.879504
55739	-3.956480	7.665730	5.228105	3.121129	-0.484808	-0.232887	-0.088578	-0.000187	-0.468098	-0.879226
55740	-3.687115	7.796933	5.192993	2.831888	-0.430007	-0.161331	-0.079869	0.005464	-0.470335	-0.878849
55741	-3.347966	7.645283	5.113202	2.505042	-0.270114	-0.354614	-0.071330	0.011324	-0.471996	-0.878637
55742	-3.019874	7.603698	5.070567	2.166975	-0.167130	-0.435995	-0.062756	0.017472	-0.472880	-0.878715
55743	-2.814529	7.766369	4.660283	1.913803	-0.525139	-0.538113	-0.054077	0.023851	-0.472547	-0.879321
55744	-2.770335	7.455703	4.408136	1.888018	-0.526453	-0.932821	-0.045211	0.030450	-0.471901	-0.879965
55745	-2.925094	7.456131	4.275221	2.030364	-0.597913	-0.983904	-0.036455	0.036589	-0.472268	-0.879941
55746	-3.095297	8.090644	4.663784	2.112884	-0.556476	-0.220200	-0.027434	0.042877	-0.473162	-0.879504
55747	-3.427848	8.013467	4.822999	2.425839	-0.302831	-0.156078	-0.018112	0.049485	-0.473895	-0.879003
55748	-3.724513	7.979429	5.013325	2.688658	-0.033613	-0.043039	-0.008744	0.055790	-0.474546	-0.878417
55749	-3.651505	7.776919	4.951118	2.616624	0.104481	-0.248726	0.000389	0.061598	-0.474907	-0.877877
55750	-3.151794	7.667638	4.653976	2.147880	-0.040261	-0.551451	0.009182	0.066872	-0.475696	-0.877016
55751	-2.857357	7.893129	4.646148	1.838699	-0.116587	-0.396865	0.017971	0.072091	-0.477000	-0.875757
55752	-2.714794	8.506599	4.890215	1.630382	-0.183193	0.234921	0.026555	0.077362	-0.477903	-0.874596
55753	-2.457868	9.253232	5.034808	1.324098	-0.438920	0.914226	0.034886	0.082671	-0.477812	-0.873867
55754	-2.020708	10.022950	5.210343	0.844126	-0.746328	1.607510	0.043194	0.088006	-0.476406	-0.873743
55755	-1.564747	10.958492	5.680992	0.299163	-0.956663	2.589157	0.051746	0.093311	-0.473644	-0.874229
55756	-0.931724	10.578072	5.481883	-0.256202	-1.101714	2.084139	0.061269	0.098605	-0.469206	-0.875425
55757	-0.877153	9.444454	4.743150	-0.111194	-1.165655	0.727381	0.071879	0.103392	-0.465963	-0.875798
55758	-0.854576	9.000100	4.708152	-0.083565	-0.990855	0.331755	0.082959	0.107571	-0.463674	-0.875530
55759	-0.698064	8.797290	4.509871	-0.130401	-1.094930	0.036289	0.094166	0.111595	-0.461670	-0.874951
55760	-0.473652	8.680558	4.206738	-0.202017	-1.354683	-0.252527	0.105645	0.116061	-0.458820	-0.874559
55761	-0.704779	8.155984	4.046982	0.085970	-1.162507	-0.755338	0.117815	0.121456	-0.454570	-0.874491
55762	-1.486575	7.807422	4.299093	0.749218	-0.570492	-0.825978	0.130694	0.128075	-0.449535	-0.874320
55763	-2.398380	7.382321	4.708254	1.420786	0.259292	-0.849840	0.143926	0.135464	-0.444139	-0.873885
55764	-3.249525	6.812228	5.206209	1.920820	1.254325	-0.935333	0.157169	0.143254	-0.439000	-0.872958
55765	-4.193578	6.457106	5.596520	2.511336	2.136086	-0.883463	0.169859	0.150830	-0.434993	-0.871309
55766	-4.734076	6.635790	6.090790	2.737954	2.664948	-0.381689	0.181564	0.157537	-0.431918	-0.869289
55767	-4.789388	7.169716	6.265090	2.728416	2.571641	0.164091	0.191863	0.163098	-0.429854	-0.867072
55768	-4.573009	7.598501	6.021600	2.674979	2.125191	0.347868	0.200688	0.167448	-0.428374	-0.864975
55769	-4.299322	7.914066	5.482445	2.724349	1.512883	0.260177	0.208357	0.170534	-0.427454	-0.863011
55770	-4.057399	8.631171	5.193835	2.803318	0.866462	0.643214	0.215222	0.172612	-0.426686	-0.861292
55771	-3.909678	8.963619	4.909471	2.907785	0.475986	0.725476	0.221780	0.173999	-0.425615	-0.859878
55772	-3.726156	8.733643	4.873741	2.749446	0.524256	0.486805	0.228139	0.174875	-0.424386	-0.858643
55773	-3.676195	8.391496	4.722660	2.734416	0.629020	0.105079	0.234098	0.175362	-0.423880	-0.857188
55774	-3.564636	8.157291	4.665820	2.645486	0.707194	-0.142173	0.239546	0.175341	-0.423645	-0.855803
55775	-3.436707	8.016218	4.526828	2.608062	0.673561	-0.362457	0.244156	0.174897	-0.423978	-0.854425
55776	-3.171833	8.057435	4.487547	2.458488	0.525488	-0.389298	0.248057	0.173949	-0.424132	-0.853418
55777	-2.995924	7.904985	4.330692	2.393061	0.442958	-0.631400	0.251365	0.172759	-0.424321	-0.852597
55778	-2.773438	7.922849	4.251643	2.295513	0.293399	-0.692147	0.254334	0.171500	-0.424841	-0.851711
55779	-2.465159	8.174850	4.290050	2.134257	0.049155	-0.498612	0.257342	0.170412	-0.425180	-0.850856
55780	-2.442562	8.198198	4.245302	2.180451	0.030269	-0.515178	0.260667	0.169814	-0.425172	-0.849967
55781	-2.730561	8.267821	4.458888	2.351172	0.334184	-0.322974	0.264302	0.169795	-0.425016	-0.848926
55782	-2.891356	8.279702	4.853128	2.299701	0.708589	-0.082560	0.267977	0.170079	-0.425012	-0.847718
55783	-2.826156	8.201824	4.859619	2.234462	0.746461	-0.152312	0.271513	0.170640	-0.424900	-0.846536
55784	-2.863258	8.035479	4.751582	2.274983	0.817017	-0.352163	0.275123	0.171670	-0.424980	-0.845120
55785	-2.609218	8.051720	4.860025	2.021969	0.760646	-0.294759	0.278586	0.172716	-0.425534	-0.843493
55786	-2.206847	8.769560	4.959444	1.875931	0.273300	0.325234	0.281941	0.174398	-0.426260	-0.841663
55787	-1.719602	9.405534	5.285630	1.517271	-0.097653	1.006153	0.285584	0.176399	-0.425914	-0.840192
55788	-1.147911	9.795059	6.133210	0.740750	-0.111587	1.776789	0.289446	0.178294	-0.424738	-0.839065
55789	-0.117029	9.784875	6.698888	-0.350559	-0.431355	2.033137	0.293445	0.179748	-0.423224	-0.838130
55790	0.268476	8.594225	6.559382	-0.950490	-0.222580	0.957888	0.298035	0.181607	-0.422238	-0.836606
55791	0.279238	8.356571	6.625564	-1.073328	-0.069100	0.801052	0.302010	0.183097	-0.423047	-0.834444
55792	0.414403	9.024000	6.239635	-0.728493	-0.655622	1.122423	0.305165	0.184197	-0.424383	-0.832373
55793	0.868387	9.612632	6.438772	-0.970610	-1.068837	1.699480	0.307988	0.184796	-0.425020	-0.830874
55794	1.370907	9.437240	6.387644	-1.356245	-1.341088	1.505656	0.311101	0.185389	-0.424743	-0.829723
55795	1.542181	9.669216	6.434789	-1.396097	-1.532031	1.719106	0.314459	0.185848	-0.423857	-0.828807
55796	1.097860	9.956033	6.515923	-0.973973	-1.320986	2.023330	0.318008	0.186292	-0.422248	-0.828174
55797	0.665783	9.741756	6.511059	-0.687750	-0.948555	1.864897	0.321435	0.186148	-0.420815	-0.827613
55798	0.562268	8.968988	6.352462	-0.758332	-0.631959	1.148062	0.324797	0.185480	-0.420165	-0.826780
55799	0.668707	8.041806	5.908952	-0.879356	-0.540798	0.135558	0.328116	0.184353	-0.420328	-0.825638
55800	0.659472	7.484434	5.560670	-0.839003	-0.462282	-0.514580	0.331172	0.182669	-0.421088	-0.824404
55801	0.391533	6.967228	5.480015	-0.759273	-0.061886	-0.972692	0.333878	0.180489	-0.422019	-0.823316
55802	0.343178	6.401510	5.614331	-0.984527	0.329610	-1.354582	0.335677	0.177690	-0.423497	-0.822434
55803	0.651220	6.067737	5.215429	-1.067499	0.070197	-1.856720	0.336129	0.174538	-0.425637	-0.821819
55804	0.860971	6.176479	4.770623	-0.887486	-0.329165	-2.018281	0.335596	0.171257	-0.427869	-0.821568
55805	1.408118	6.423762	4.473680	-0.984622	-0.937506	-1.976063	0.334402	0.167619	-0.430069	-0.821656
55806	1.991768	6.572066	4.584868	-1.388152	-1.291799	-1.776250	0.333319	0.164674	-0.431842	-0.821763
55807	1.879363	7.009917	5.104006	-1.403064	-1.053150	-1.115329	0.333451	0.162954	-0.431885	-0.822029
55808	1.855763	6.668448	5.447859	-1.691832	-0.688493	-1.195563	0.333437	0.161335	-0.431298	-0.822662
55809	1.854413	6.801219	5.117038	-1.437549	-0.931638	-1.271904	0.332961	0.160529	-0.432059	-0.822613
55810	2.089727	7.327894	4.973220	-1.317277	-1.373982	-0.914664	0.332267	0.160151	-0.433078	-0.822431
55811	2.147275	7.413399	5.053335	-1.384153	-1.384760	-0.797590	0.331696	0.160842	-0.433941	-0.822072
55812	2.175029	7.324248	4.964173	-1.420575	-1.413548	-0.924376	0.331113	0.162709	-0.434995	-0.821383
55813	2.139153	7.438065	5.000683	-1.415375	-1.407982	-0.817040	0.330547	0.165539	-0.436026	-0.820498
55814	2.013703	7.334833	4.804642	-1.313485	-1.400057	-1.023286	0.330114	0.169483	-0.437111	-0.819289
55815	1.829261	7.533967	4.493404	-0.997743	-1.541968	-1.042065	0.329700	0.174442	-0.438460	-0.817692
55816	1.441543	7.802218	4.522428	-0.720402	-1.366789	-0.811734	0.329041	0.180086	-0.439605	-0.816118
55817	0.927435	7.678290	4.531496	-0.504429	-0.965601	-0.915333	0.327872	0.186273	-0.440683	-0.814617
55818	0.347359	7.665534	4.724758	-0.325995	-0.453623	-0.818740	0.325897	0.192820	-0.442024	-0.813158
55819	-0.039024	8.275011	4.629596	0.089007	-0.493062	-0.343913	0.322781	0.199584	-0.443739	-0.811834
55820	-0.567262	9.478616	5.151369	0.395312	-0.311643	0.978351	0.319089	0.206774	-0.445051	-0.810775
55821	-1.454125	10.398102	6.057827	0.574340	0.429945	2.287474	0.315401	0.214568	-0.445067	-0.810184
55822	-3.206369	11.672795	7.347657	1.180575	1.817308	4.180913	0.311417	0.222924	-0.444297	-0.809892
55823	-4.312976	10.875570	8.002209	1.087192	3.170040	3.959712	0.307480	0.230143	-0.441677	-0.810810
