// General information: 
//  MT Manager version: 2021.0.0 
//  XDA version: 2021.0.0 build 5908 rev 109668 built on 2021-04-19
// Device information: 
//  DeviceId: 00B43DED
//  ProductCode: MTW2-3A7G6
//  Firmware Version: 4.3.5
//  Hardware Version: 1.1.0
// Device settings: 
//  Filter Profile: human(46.1)
//  Option Flags: Orientation Smoother Disabled, Position/Velocity Smoother Disabled, Continuous Zero Rotation Update Disabled, AHS Disabled, ICC Disabled
// Coordinate system: ENU
PacketCounter	Acc_X	Acc_Y	Acc_Z	FreeAcc_E	FreeAcc_N	FreeAcc_U	Quat_q0	Quat_q1	Quat_q2	Quat_q3
54636	-9.560109	1.469521	-1.827082	0.040900	-0.015415	0.030660	-0.347546	-0.700129	-0.316152	0.537661
54637	-9.489973	1.343129	-1.864079	-0.025280	0.092752	-0.049024	-0.347539	-0.700089	-0.316120	0.537736
54638	-9.541819	1.531826	-1.753476	0.057377	-0.107822	0.008339	-0.347488	-0.700108	-0.316026	0.537800
54639	-9.478217	1.386574	-1.829369	-0.004388	0.042724	-0.060563	-0.347646	-0.699966	-0.316114	0.537830
54640	-9.552316	1.469868	-1.756996	0.008881	-0.067875	0.010225	-0.347556	-0.699982	-0.316028	0.537919
54641	-9.513406	1.467455	-1.793759	0.036964	-0.032523	-0.021188	-0.347616	-0.699878	-0.316041	0.538008
54642	-9.552313	1.424844	-1.688534	-0.061178	-0.096308	-0.008862	-0.347565	-0.699842	-0.316001	0.538111
54643	-9.489632	1.412383	-1.801612	0.005526	0.008589	-0.050842	-0.347577	-0.699772	-0.316050	0.538165
54644	-9.504939	1.459379	-1.679248	-0.024311	-0.119806	-0.051613	-0.347474	-0.699782	-0.316031	0.538231
54645	-9.515438	1.430307	-1.817315	0.025442	0.008753	-0.020279	-0.347526	-0.699717	-0.316152	0.538210
54646	-9.482627	1.423691	-1.716646	-0.025973	-0.069071	-0.071613	-0.347384	-0.699749	-0.316174	0.538246
54647	-9.515865	1.438010	-1.752652	-0.001068	-0.051788	-0.030629	-0.347344	-0.699722	-0.316280	0.538246
54648	-9.557087	1.459026	-1.741550	0.001765	-0.077779	0.010429	-0.347257	-0.699742	-0.316382	0.538215
54649	-9.516758	1.400720	-1.782222	-0.013709	-0.010288	-0.029706	-0.347270	-0.699684	-0.316522	0.538200
54650	-9.584063	1.396773	-1.880137	0.021786	0.066115	0.053178	-0.347277	-0.699664	-0.316678	0.538130
54651	-9.469053	1.434309	-1.775720	0.023125	-0.033829	-0.072477	-0.347113	-0.699642	-0.316626	0.538295
54652	-9.558225	1.369070	-1.817823	-0.024631	0.030502	0.012635	-0.347104	-0.699594	-0.316740	0.538296
54653	-9.485255	1.344424	-1.774802	-0.049614	0.013506	-0.069751	-0.346917	-0.699596	-0.316663	0.538459
54654	-9.548909	1.428311	-1.810504	0.026078	-0.009926	0.010697	-0.346845	-0.699565	-0.316689	0.538530
54655	-9.496129	1.367994	-1.751685	-0.040811	-0.020436	-0.060037	-0.346857	-0.699467	-0.316778	0.538598
54656	-9.506244	1.383061	-1.795606	-0.004903	0.006067	-0.039987	-0.346749	-0.699459	-0.316779	0.538677
54657	-9.546047	1.433576	-1.709712	-0.017038	-0.096614	-0.009849	-0.346597	-0.699461	-0.316704	0.538817
54658	-9.481503	1.490096	-1.769006	0.077153	-0.075165	-0.053739	-0.346687	-0.699348	-0.316836	0.538828
54659	-9.513115	1.261406	-1.926318	-0.028495	0.182213	-0.026616	-0.346763	-0.699222	-0.316926	0.538889
54660	-9.551138	1.421942	-1.803744	0.029360	-0.010720	0.010687	-0.346748	-0.699165	-0.316879	0.539000
54661	-9.557116	1.269108	-1.802993	-0.094156	0.077182	-0.005289	-0.346743	-0.699078	-0.316723	0.539208
54662	-9.543696	1.460361	-1.751307	0.038632	-0.069714	-0.000679	-0.346649	-0.699058	-0.316520	0.539415
54663	-9.474055	1.383609	-1.739041	-0.012829	-0.028608	-0.081533	-0.346710	-0.698951	-0.316444	0.539558
54664	-9.514888	1.441122	-1.696149	0.003781	-0.096334	-0.041425	-0.346733	-0.698871	-0.316355	0.539699
54665	-9.501684	1.329390	-1.756855	-0.049117	0.020047	-0.059073	-0.346636	-0.698859	-0.316168	0.539886
54666	-9.543679	1.491054	-1.666831	0.025881	-0.146874	-0.011609	-0.346536	-0.698860	-0.316007	0.540044
54667	-9.538182	1.335816	-1.727949	-0.063933	-0.006722	-0.027852	-0.346593	-0.698762	-0.316023	0.540125
54668	-9.531923	1.433873	-1.725064	0.017081	-0.062764	-0.020590	-0.346612	-0.698701	-0.316010	0.540198
54669	-9.505324	1.349662	-1.774561	-0.017134	0.029170	-0.049455	-0.346676	-0.698617	-0.315992	0.540277
54670	-9.523627	1.422895	-1.722567	0.011530	-0.054687	-0.030652	-0.346632	-0.698592	-0.315906	0.540387
54671	-9.527348	1.418550	-1.707064	0.000491	-0.063782	-0.030426	-0.346662	-0.698507	-0.315897	0.540483
54672	-9.519822	1.293095	-1.695425	-0.104304	-0.000282	-0.057551	-0.346690	-0.698444	-0.315912	0.540538
54673	-9.549008	1.437355	-1.688047	0.003289	-0.089625	-0.010086	-0.346697	-0.698422	-0.315927	0.540553
54674	-9.509865	1.385805	-1.773042	0.016486	0.012793	-0.040214	-0.346789	-0.698363	-0.315960	0.540551
54675	-9.546679	1.358566	-1.774064	-0.012621	0.027883	-0.008038	-0.346820	-0.698325	-0.315926	0.540600
54676	-9.566937	1.412722	-1.729480	0.003376	-0.039577	0.011344	-0.346800	-0.698316	-0.315842	0.540674
54677	-9.520323	1.364980	-1.794181	0.011020	0.045851	-0.029202	-0.346904	-0.698206	-0.315819	0.540763
54678	-9.533004	1.383563	-1.710232	-0.021013	-0.031864	-0.029239	-0.346982	-0.698136	-0.315788	0.540821
54679	-9.533286	1.374344	-1.773818	0.007159	0.028315	-0.018917	-0.347059	-0.698042	-0.315705	0.540942
54680	-9.518079	1.432359	-1.686467	0.011411	-0.072910	-0.041086	-0.346996	-0.698048	-0.315558	0.541061
54681	-9.490534	1.383576	-1.708482	-0.009059	-0.022724	-0.070879	-0.347298	-0.697831	-0.315721	0.541051
54682	-9.537591	1.293577	-1.714807	-0.087732	0.032527	-0.036656	-0.347201	-0.697857	-0.315585	0.541159
54683	-9.543204	1.439473	-1.716723	0.030834	-0.047605	-0.010201	-0.347348	-0.697784	-0.315608	0.541145
54684	-9.504240	1.399089	-1.734872	0.016360	-0.005458	-0.050643	-0.347358	-0.697776	-0.315533	0.541193
54685	-9.518790	1.437748	-1.677845	0.014125	-0.073571	-0.041094	-0.347454	-0.697696	-0.315546	0.541227
54686	-9.584563	1.385891	-1.662347	-0.050142	-0.060316	0.012881	-0.347439	-0.697700	-0.315529	0.541241
54687	-9.511130	1.432496	-1.723553	0.037303	-0.030532	-0.041200	-0.347622	-0.697566	-0.315651	0.541225
54688	-9.516821	1.319823	-1.744134	-0.043728	0.050626	-0.047989	-0.347609	-0.697568	-0.315669	0.541220
54689	-9.599244	1.444237	-1.756059	0.046501	-0.014850	0.052031	-0.347644	-0.697514	-0.315623	0.541295
54690	-9.488032	1.405624	-1.644661	-0.020266	-0.075186	-0.081430	-0.347730	-0.697441	-0.315614	0.541339
54691	-9.546320	1.326963	-1.808475	-0.007180	0.101900	-0.006914	-0.347799	-0.697379	-0.315610	0.541377
54692	-9.579743	1.413990	-1.661236	-0.022638	-0.068504	0.012044	-0.347798	-0.697345	-0.315474	0.541500
54693	-9.523456	1.340135	-1.747052	-0.022761	0.050600	-0.038165	-0.347970	-0.697213	-0.315468	0.541563
54694	-9.544903	1.321301	-1.708156	-0.062992	0.031624	-0.026787	-0.348061	-0.697155	-0.315325	0.541663
54695	-9.525296	1.388919	-1.805350	0.049536	0.078514	-0.019269	-0.348080	-0.697125	-0.315066	0.541840
54696	-9.524543	1.386703	-1.754696	0.021371	0.043420	-0.029208	-0.348253	-0.697005	-0.314872	0.541995
54697	-9.560708	1.356595	-1.705093	-0.036485	0.023547	-0.006926	-0.348363	-0.696896	-0.314636	0.542202
54698	-9.582409	1.417796	-1.701609	0.008269	-0.008980	0.022354	-0.348497	-0.696779	-0.314377	0.542417
54699	-9.491714	1.414220	-1.675066	0.012212	-0.016058	-0.071123	-0.348652	-0.696640	-0.314107	0.542652
54700	-9.498456	1.458449	-1.594822	0.004403	-0.101213	-0.072003	-0.348701	-0.696591	-0.313824	0.542847
54701	-9.532902	1.502602	-1.538082	0.002816	-0.169618	-0.041764	-0.348904	-0.696457	-0.313714	0.542953
54702	-9.558364	1.420028	-1.598242	-0.036160	-0.070212	-0.018458	-0.348985	-0.696397	-0.313554	0.543069
54703	-9.544647	1.384736	-1.650324	-0.032849	-0.002340	-0.027992	-0.349115	-0.696311	-0.313413	0.543178
54704	-9.558163	1.514327	-1.563589	0.022238	-0.144320	-0.010894	-0.349173	-0.696299	-0.313279	0.543234
54705	-9.552253	1.396019	-1.597863	-0.053869	-0.045878	-0.027875	-0.349289	-0.696233	-0.313213	0.543281
54706	-9.525056	1.452888	-1.572613	-0.016011	-0.094910	-0.050443	-0.349338	-0.696242	-0.313116	0.543294
54707	-9.538464	1.427418	-1.583738	-0.034159	-0.070601	-0.039157	-0.349357	-0.696251	-0.313031	0.543320
54708	-9.548750	1.510647	-1.560911	0.017683	-0.136559	-0.020948	-0.349337	-0.696318	-0.312948	0.543294
54709	-9.539320	1.435735	-1.630140	-0.004395	-0.035954	-0.029232	-0.349471	-0.696267	-0.312995	0.543246
54710	-9.546362	1.483315	-1.602284	0.016555	-0.086138	-0.020197	-0.349493	-0.696301	-0.313059	0.543152
54711	-9.539294	1.388210	-1.679014	-0.018119	0.030890	-0.027849	-0.349602	-0.696253	-0.313151	0.543090
54712	-9.541599	1.473982	-1.638324	0.028152	-0.052061	-0.020071	-0.349527	-0.696324	-0.313164	0.543039
54713	-9.540728	1.484655	-1.573745	0.001035	-0.112464	-0.030371	-0.349576	-0.696324	-0.313250	0.542959
54714	-9.559356	1.513397	-1.618798	0.043674	-0.094298	-0.000381	-0.349629	-0.696345	-0.313420	0.542799
54715	-9.576361	1.471461	-1.685414	0.041620	-0.018671	0.021459	-0.349605	-0.696339	-0.313517	0.542767
54716	-9.485278	1.488650	-1.580769	0.018906	-0.111343	-0.082700	-0.349525	-0.696355	-0.313673	0.542707
54717	-9.462818	1.462522	-1.554330	-0.011070	-0.120784	-0.112939	-0.349411	-0.696376	-0.313893	0.542627
54718	-9.543478	1.529225	-1.572823	0.035701	-0.154167	-0.021609	-0.349255	-0.696481	-0.314200	0.542414
54719	-9.602924	1.423062	-1.704889	0.007508	0.004346	0.043672	-0.349300	-0.696469	-0.314634	0.542148
54720	-9.506360	1.452393	-1.676683	0.036684	-0.035433	-0.051079	-0.349089	-0.696559	-0.314852	0.542043
54721	-9.531914	1.418413	-1.745246	0.041296	0.031856	-0.019198	-0.348925	-0.696606	-0.315183	0.541896
54722	-9.543283	1.481805	-1.621175	0.024042	-0.112903	-0.020605	-0.348904	-0.696567	-0.315589	0.541723
54723	-9.498111	1.236753	-1.643792	-0.152163	0.041446	-0.095648	-0.348957	-0.696482	-0.316107	0.541497
54724	-9.452716	1.354406	-1.599699	-0.070352	-0.064730	-0.130841	-0.348974	-0.696478	-0.316633	0.541183
54725	-9.551721	1.538490	-1.635553	0.075868	-0.153723	-0.002082	-0.348990	-0.696543	-0.317237	0.540735
54726	-9.596463	1.549454	-1.728835	0.123657	-0.093501	0.059381	-0.349328	-0.696363	-0.318061	0.540264
54727	-9.486325	1.115813	-1.481534	-0.339667	-0.050886	-0.152854	-0.350237	-0.695843	-0.319320	0.539603
54728	-9.496206	0.305266	-1.755319	-0.861020	0.621882	-0.209347	-0.350784	-0.695630	-0.320326	0.538925
54729	-9.825340	2.031407	-1.699624	0.442055	-0.423321	0.344968	-0.349936	-0.696589	-0.320344	0.538227
54730	-9.418218	1.990495	-1.794083	0.538438	-0.294999	-0.039936	-0.353105	-0.694938	-0.323143	0.536616
54731	-9.409881	1.133154	-2.209941	0.046456	0.531378	-0.095218	-0.354631	-0.694239	-0.325092	0.535336
54732	-9.489932	1.100529	-1.767314	-0.231238	0.172458	-0.101346	-0.355557	-0.693568	-0.326299	0.534856
54733	-9.451020	1.156967	-1.580343	-0.272658	-0.014688	-0.164720	-0.356256	-0.693212	-0.327536	0.534096
54734	-9.369244	0.881751	-1.823628	-0.361658	0.338108	-0.239772	-0.357747	-0.692368	-0.329602	0.532922
54735	-9.737108	1.622068	-1.712475	0.113215	-0.190411	0.203591	-0.358463	-0.692167	-0.331428	0.531568
54736	-9.653418	1.782095	-1.385003	0.095547	-0.553505	0.085145	-0.360055	-0.691316	-0.333428	0.530347
54737	-9.370802	1.787932	-2.118005	0.525172	0.084770	-0.055045	-0.361157	-0.690781	-0.335136	0.529218
54738	-9.546514	1.637885	-1.741973	0.174269	-0.177006	0.025573	-0.361195	-0.690547	-0.336024	0.528934
54739	-9.418099	1.547926	-1.550231	0.036218	-0.290396	-0.147583	-0.361594	-0.690115	-0.337288	0.528421
54740	-9.482745	1.227021	-1.792540	-0.126240	0.065639	-0.085357	-0.361562	-0.690037	-0.338308	0.527891
54741	-9.627072	1.661764	-1.964432	0.293689	-0.038760	0.147895	-0.361895	-0.689839	-0.339611	0.527086
54742	-9.494183	1.383274	-2.077145	0.141295	0.202396	0.000903	-0.362386	-0.689435	-0.340944	0.526415
54743	-9.634054	1.418950	-2.202755	0.204238	0.270134	0.165582	-0.362328	-0.689316	-0.341631	0.526166
54744	-9.530133	1.408288	-2.032515	0.140303	0.133935	0.031103	-0.362033	-0.689198	-0.341787	0.526422
54745	-9.458507	1.188046	-1.996636	-0.040116	0.220924	-0.075596	-0.361583	-0.689149	-0.341595	0.526919
54746	-9.581535	1.200395	-1.904052	-0.091845	0.123902	0.028470	-0.360801	-0.689324	-0.340961	0.527637
54747	-9.605277	1.401320	-1.873424	0.065462	-0.005676	0.073184	-0.360475	-0.689345	-0.340426	0.528177
54748	-9.470443	1.517916	-1.799907	0.161946	-0.109770	-0.055908	-0.360298	-0.689292	-0.339793	0.528775
54749	-9.478962	1.508944	-1.764399	0.139311	-0.127781	-0.055382	-0.360424	-0.689123	-0.339470	0.529116
54750	-9.566759	1.367932	-1.881680	0.063468	0.045330	0.032552	-0.360456	-0.688938	-0.339149	0.529541
54751	-9.561305	1.296127	-1.865053	0.002066	0.076742	0.014368	-0.360217	-0.688846	-0.338559	0.530201
54752	-9.531177	1.316700	-1.724587	-0.035968	-0.042721	-0.037816	-0.359958	-0.688747	-0.337951	0.530892
54753	-9.488470	1.191736	-1.782427	-0.096348	0.082328	-0.085803	-0.359660	-0.688692	-0.337401	0.531516
54754	-9.617314	1.274391	-1.759150	-0.058480	0.014029	0.046714	-0.359276	-0.688721	-0.336821	0.532106
54755	-9.555703	1.119337	-1.776017	-0.160960	0.120802	-0.031169	-0.359012	-0.688640	-0.336223	0.532766
54756	-9.510359	1.267685	-1.650760	-0.082682	-0.053057	-0.077734	-0.358391	-0.688822	-0.335336	0.533507
54757	-9.492587	1.383014	-1.579772	-0.011842	-0.168474	-0.092138	-0.357687	-0.689028	-0.334468	0.534258
54758	-9.487306	1.356923	-1.517577	-0.058375	-0.204193	-0.111751	-0.357092	-0.689194	-0.333768	0.534879
54759	-9.536785	1.291306	-1.485140	-0.134740	-0.199636	-0.077936	-0.356430	-0.689389	-0.333166	0.535445
54760	-9.595857	1.202212	-1.593875	-0.161695	-0.066469	-0.012909	-0.355759	-0.689644	-0.332650	0.535883
54761	-9.524659	1.343873	-1.556164	-0.044851	-0.170818	-0.070225	-0.355174	-0.689902	-0.332238	0.536194
54762	-9.562951	1.294026	-1.569108	-0.086486	-0.139318	-0.037221	-0.354913	-0.690038	-0.332121	0.536265
54763	-9.560615	1.270803	-1.659609	-0.059351	-0.053800	-0.026565	-0.354635	-0.690225	-0.332002	0.536282
54764	-9.510991	1.324385	-1.759676	0.045800	0.001667	-0.050142	-0.354390	-0.690406	-0.331946	0.536246
54765	-9.569781	1.369235	-1.634316	0.005704	-0.136275	-0.009223	-0.354230	-0.690535	-0.331939	0.536189
54766	-9.565577	1.259613	-1.644389	-0.080951	-0.072103	-0.026005	-0.354176	-0.690610	-0.332064	0.536051
54767	-9.514302	1.152135	-1.674860	-0.145940	0.010581	-0.084733	-0.353860	-0.690845	-0.332035	0.535974
54768	-9.526746	1.277996	-1.719449	-0.022753	-0.027240	-0.048088	-0.353455	-0.691159	-0.331961	0.535883
54769	-9.537509	1.318446	-1.683080	-0.013420	-0.086378	-0.038871	-0.353549	-0.691257	-0.332230	0.535528
54770	-9.558515	1.194936	-1.852489	-0.038363	0.115055	-0.004014	-0.353347	-0.691524	-0.332243	0.535309
54771	-9.540145	1.220852	-1.813701	-0.036414	0.064538	-0.025509	-0.353114	-0.691758	-0.332195	0.535189
54772	-9.482044	1.279094	-1.785265	0.006595	0.007834	-0.079635	-0.352538	-0.692205	-0.331900	0.535173
54773	-9.559731	1.394248	-1.723893	0.051195	-0.118648	-0.000069	-0.352391	-0.692422	-0.331919	0.534979
54774	-9.515604	1.137070	-1.795268	-0.120639	0.078146	-0.063740	-0.352204	-0.692653	-0.331956	0.534780
54775	-9.570431	1.374435	-1.797067	0.062430	-0.059513	0.021143	-0.351784	-0.693038	-0.331772	0.534671
54776	-9.536548	1.295913	-1.983744	0.096139	0.136625	0.012407	-0.351717	-0.693222	-0.331794	0.534464
54777	-9.591379	1.261978	-1.791265	-0.046156	-0.013699	0.025679	-0.351714	-0.693329	-0.331796	0.534326
54778	-9.567641	1.087815	-2.010365	-0.075720	0.264348	0.020372	-0.351504	-0.693533	-0.331536	0.534360
54779	-9.577302	1.443262	-1.650103	0.029503	-0.230655	0.009557	-0.351352	-0.693744	-0.331203	0.534393
54780	-9.486916	1.200875	-2.049242	0.049943	0.244870	-0.036154	-0.351772	-0.693610	-0.331259	0.534256
54781	-9.555299	1.215980	-1.854628	-0.054709	0.070453	-0.003812	-0.351378	-0.693938	-0.330675	0.534450
54782	-9.511350	1.521105	-1.752494	0.153203	-0.174538	-0.025101	-0.351451	-0.693969	-0.330403	0.534531
54783	-9.489628	1.122561	-1.838291	-0.130492	0.119031	-0.083284	-0.351578	-0.693989	-0.330206	0.534543
54784	-9.543843	1.390802	-1.759265	0.037530	-0.095319	-0.009434	-0.351324	-0.694225	-0.329799	0.534654
54785	-9.513403	1.446678	-1.701324	0.058044	-0.170240	-0.042331	-0.351442	-0.694250	-0.329671	0.534623
54786	-9.514630	1.314810	-1.813429	0.003626	-0.003460	-0.037954	-0.351604	-0.694281	-0.329694	0.534463
54787	-9.541017	1.271800	-1.773721	-0.060784	-0.014980	-0.025418	-0.351517	-0.694406	-0.329485	0.534487
54788	-9.523946	1.346027	-1.793701	0.012454	-0.037342	-0.028356	-0.351411	-0.694566	-0.329294	0.534465
54789	-9.511793	1.350078	-1.743974	-0.009879	-0.080459	-0.048887	-0.351421	-0.694652	-0.329215	0.534396
54790	-9.513564	1.299158	-1.781265	-0.035683	-0.022478	-0.047092	-0.351411	-0.694756	-0.329191	0.534282
54791	-9.532561	1.385485	-1.824339	0.050666	-0.036522	-0.008933	-0.351400	-0.694908	-0.329134	0.534127
54792	-9.540204	1.277574	-1.883422	-0.013169	0.070664	-0.005048	-0.351594	-0.694897	-0.329189	0.533980
54793	-9.552055	1.367032	-1.905336	0.067566	0.039635	0.022693	-0.351420	-0.695062	-0.328937	0.534035
54794	-9.498329	1.302697	-1.803231	-0.028691	-0.005615	-0.057378	-0.351489	-0.695088	-0.328854	0.534007
54795	-9.508822	1.337295	-1.827396	0.008407	-0.004535	-0.037957	-0.351425	-0.695201	-0.328704	0.533994
54796	-9.515272	1.370595	-1.819331	0.028263	-0.029419	-0.028658	-0.351499	-0.695245	-0.328622	0.533938
54797	-9.470767	1.288339	-1.901857	0.010307	0.088830	-0.067724	-0.351456	-0.695358	-0.328443	0.533931
54798	-9.564826	1.408736	-1.806291	0.038537	-0.063946	0.022329	-0.351338	-0.695465	-0.328221	0.534005
54799	-9.484740	1.355588	-1.772322	-0.006503	-0.056066	-0.069184	-0.351251	-0.695542	-0.328038	0.534074
54800	-9.507429	1.390164	-1.735334	-0.003111	-0.107157	-0.049304	-0.351269	-0.695591	-0.327973	0.534037
54801	-9.560178	1.295553	-1.879051	-0.019411	0.060268	0.015959	-0.351289	-0.695620	-0.327926	0.534016
54802	-9.536266	1.338227	-1.906504	0.034467	0.062604	0.003670	-0.351284	-0.695651	-0.327819	0.534045
54803	-9.478683	1.352340	-1.806755	0.006020	-0.022209	-0.069070	-0.351311	-0.695673	-0.327711	0.534065
54804	-9.522405	1.363160	-1.846833	0.025328	0.002976	-0.017559	-0.351389	-0.695674	-0.327675	0.534033
54805	-9.554904	1.335798	-1.817067	-0.020817	-0.007930	0.004735	-0.351428	-0.695688	-0.327542	0.534072
54806	-9.527312	1.337643	-1.792862	-0.026692	-0.024734	-0.026371	-0.351538	-0.695660	-0.327497	0.534063
54807	-9.536600	1.357450	-1.835970	0.009381	0.001759	-0.006561	-0.351560	-0.695676	-0.327347	0.534121
54808	-9.508279	1.310761	-1.859673	-0.011325	0.052036	-0.036133	-0.351663	-0.695645	-0.327219	0.534170
54809	-9.512922	1.317265	-1.777355	-0.050129	-0.017325	-0.046058	-0.351726	-0.695628	-0.327058	0.534250
54810	-9.504437	1.314288	-1.822978	-0.027493	0.025814	-0.046239	-0.351720	-0.695667	-0.326848	0.534332
54811	-9.541091	1.457843	-1.830440	0.085985	-0.046655	0.010686	-0.351833	-0.695659	-0.326716	0.534349
54812	-9.511859	1.317346	-1.838028	-0.020859	0.042637	-0.035829	-0.352043	-0.695581	-0.326621	0.534370
54813	-9.556881	1.337475	-1.809436	-0.029288	0.007625	0.005457	-0.351883	-0.695686	-0.326239	0.534572
54814	-9.505406	1.502392	-1.753687	0.089221	-0.122362	-0.031971	-0.351835	-0.695707	-0.325995	0.534725
54815	-9.508950	1.370780	-1.750207	-0.021715	-0.050756	-0.047476	-0.351840	-0.695710	-0.325797	0.534839
54816	-9.534713	1.352037	-1.746181	-0.044698	-0.043745	-0.025758	-0.351764	-0.695750	-0.325607	0.534952
54817	-9.493345	1.459647	-1.746389	0.053072	-0.098575	-0.050951	-0.351624	-0.695852	-0.325412	0.535031
54818	-9.498848	1.436627	-1.740270	0.029335	-0.091235	-0.049933	-0.351623	-0.695862	-0.325359	0.535050
54819	-9.544328	1.420806	-1.742333	0.007142	-0.084519	-0.007514	-0.351569	-0.695909	-0.325326	0.535045
54820	-9.527944	1.330013	-1.801443	-0.033218	0.015465	-0.025221	-0.351585	-0.695881	-0.325354	0.535054
54821	-9.522794	1.402722	-1.759641	0.006352	-0.059138	-0.027800	-0.351508	-0.695918	-0.325328	0.535072
54822	-9.538096	1.356642	-1.779665	-0.024378	-0.018409	-0.015646	-0.351616	-0.695852	-0.325405	0.535040
54823	-9.510223	1.396807	-1.774587	0.012245	-0.042014	-0.038095	-0.351646	-0.695830	-0.325449	0.535022
54824	-9.537788	1.397428	-1.797352	0.019166	-0.025417	-0.006991	-0.351698	-0.695765	-0.325528	0.535024
54825	-9.524581	1.424537	-1.784522	0.038237	-0.050003	-0.018429	-0.351738	-0.695733	-0.325620	0.534983
54826	-9.491116	1.401793	-1.704018	-0.014853	-0.102331	-0.069008	-0.351849	-0.695639	-0.325820	0.534910
54827	-9.535217	1.327352	-1.821511	-0.023971	0.031719	-0.014803	-0.351846	-0.695621	-0.325960	0.534852
54828	-9.521814	1.353868	-1.810164	-0.004880	0.007184	-0.026241	-0.351854	-0.695606	-0.326085	0.534790
54829	-9.535989	1.380839	-1.821647	0.020628	-0.000682	-0.006578	-0.351780	-0.695624	-0.326127	0.534790
54830	-9.531253	1.330443	-1.838331	-0.010868	0.040329	-0.015107	-0.351838	-0.695582	-0.326218	0.534749
54831	-9.542315	1.322379	-1.844125	-0.016280	0.048283	-0.004392	-0.351711	-0.695615	-0.326149	0.534832
54832	-9.526346	1.402167	-1.796144	0.029155	-0.034429	-0.017717	-0.351657	-0.695605	-0.326119	0.534900
54833	-9.528578	1.382661	-1.802999	0.016991	-0.018176	-0.016988	-0.351711	-0.695552	-0.326211	0.534876
54834	-9.517872	1.350403	-1.778867	-0.019137	-0.019551	-0.036334	-0.351733	-0.695503	-0.326244	0.534905
54835	-9.477972	1.342909	-1.770539	-0.020295	-0.019069	-0.077730	-0.351695	-0.695506	-0.326234	0.534933
54836	-9.547256	1.453857	-1.750729	0.046652	-0.102405	0.001394	-0.351618	-0.695520	-0.326229	0.534969
54837	-9.561319	1.392455	-1.790970	0.014891	-0.036386	0.013999	-0.351750	-0.695401	-0.326379	0.534946
54838	-9.511675	1.278701	-1.768469	-0.079109	0.011498	-0.054198	-0.351755	-0.695370	-0.326422	0.534956
54839	-9.508351	1.328874	-1.846403	0.004358	0.048396	-0.036109	-0.351626	-0.695418	-0.326397	0.534994
54840	-9.529089	1.380344	-1.802073	0.020447	-0.019128	-0.016996	-0.351591	-0.695376	-0.326416	0.535060
54841	-9.538509	1.351321	-1.781497	-0.014895	-0.020807	-0.015632	-0.351659	-0.695295	-0.326499	0.535069
54842	-9.546234	1.347932	-1.799684	-0.008703	-0.003912	-0.005227	-0.351606	-0.695284	-0.326456	0.535145
54843	-9.515270	1.434341	-1.713080	0.025429	-0.120552	-0.039399	-0.351594	-0.695243	-0.326468	0.535199
54844	-9.520688	1.321138	-1.736781	-0.055607	-0.039358	-0.045360	-0.351592	-0.695199	-0.326540	0.535213
54845	-9.509849	1.374112	-1.796056	0.022222	-0.019481	-0.037701	-0.351467	-0.695246	-0.326576	0.535212
54846	-9.529283	1.370835	-1.755184	-0.005314	-0.054850	-0.026776	-0.351519	-0.695182	-0.326726	0.535170
54847	-9.502116	1.375543	-1.779421	0.017529	-0.036775	-0.048108	-0.351412	-0.695231	-0.326798	0.535132
54848	-9.532989	1.370227	-1.790857	0.012928	-0.029139	-0.016690	-0.351409	-0.695197	-0.326964	0.535077
54849	-9.506794	1.300705	-1.824784	-0.020493	0.037546	-0.045447	-0.351402	-0.695171	-0.327093	0.535037
54850	-9.542667	1.305635	-1.801616	-0.035645	0.010860	-0.014136	-0.351331	-0.695189	-0.327166	0.535015
54851	-9.521582	1.375148	-1.789359	0.020308	-0.037527	-0.027416	-0.351297	-0.695194	-0.327261	0.534973
54852	-9.542082	1.344338	-1.822519	0.007938	0.003755	-0.005543	-0.351333	-0.695160	-0.327409	0.534902
54853	-9.513663	1.294901	-1.849044	-0.012743	0.054015	-0.035038	-0.351336	-0.695143	-0.327504	0.534865
54854	-9.540438	1.328353	-1.845235	0.007939	0.028804	-0.005114	-0.351154	-0.695197	-0.327470	0.534935
54855	-9.517956	1.337406	-1.788208	-0.008544	-0.022335	-0.036325	-0.351295	-0.695100	-0.327593	0.534894
54856	-9.512482	1.238564	-1.852633	-0.054805	0.085734	-0.043182	-0.351146	-0.695146	-0.327530	0.534969
54857	-9.544214	1.405129	-1.755621	0.026426	-0.089449	-0.007591	-0.351057	-0.695173	-0.327458	0.535037
54858	-9.502555	1.340761	-1.862058	0.038307	0.038350	-0.037181	-0.351143	-0.695098	-0.327511	0.535046
54859	-9.520422	1.317605	-1.793852	-0.019091	-0.006576	-0.035570	-0.351032	-0.695113	-0.327405	0.535164
54860	-9.535799	1.393516	-1.754442	0.021240	-0.081507	-0.017570	-0.351017	-0.695070	-0.327369	0.535251
54861	-9.503749	1.342387	-1.746765	-0.016782	-0.057175	-0.057131	-0.350933	-0.695073	-0.327359	0.535309
54862	-9.524251	1.351580	-1.796811	0.013439	-0.022658	-0.026678	-0.350926	-0.695053	-0.327398	0.535316
54863	-9.500970	1.312006	-1.788400	-0.017807	-0.006712	-0.056264	-0.350839	-0.695063	-0.327386	0.535368
54864	-9.545697	1.368805	-1.780900	0.016404	-0.048624	-0.006417	-0.350756	-0.695090	-0.327378	0.535391
54865	-9.511123	1.376760	-1.785400	0.033565	-0.047503	-0.038170	-0.350672	-0.695091	-0.327403	0.535430
54866	-9.508767	1.266163	-1.790861	-0.053137	0.016725	-0.054414	-0.350632	-0.695062	-0.327468	0.535454
54867	-9.537182	1.397009	-1.689813	-0.002850	-0.142630	-0.027771	-0.350521	-0.695100	-0.327469	0.535476
54868	-9.533103	1.275641	-1.874869	-0.005161	0.076991	-0.013887	-0.350513	-0.695081	-0.327546	0.535459
54869	-9.505679	1.357096	-1.776424	0.017350	-0.048630	-0.047819	-0.350399	-0.695113	-0.327559	0.535484
54870	-9.537748	1.324432	-1.860447	0.027874	0.035563	-0.005446	-0.350420	-0.695087	-0.327618	0.535468
54871	-9.569905	1.328580	-1.803119	-0.004472	-0.017107	0.015798	-0.350385	-0.695050	-0.327616	0.535540
54872	-9.497211	1.304270	-1.759377	-0.030522	-0.033836	-0.066331	-0.350357	-0.695026	-0.327589	0.535606
54873	-9.528132	1.339667	-1.786982	0.007501	-0.033129	-0.026362	-0.350295	-0.695031	-0.327622	0.535620
54874	-9.564234	1.344985	-1.762455	-0.007528	-0.059863	0.004958	-0.350282	-0.694989	-0.327639	0.535673
54875	-9.491566	1.284413	-1.859124	0.009404	0.060288	-0.056040	-0.350349	-0.694921	-0.327709	0.535675
54876	-9.549256	1.308334	-1.816967	-0.003761	0.007858	-0.004460	-0.350273	-0.694898	-0.327649	0.535791
54877	-9.516495	1.331292	-1.798659	0.014470	-0.016363	-0.036660	-0.350290	-0.694825	-0.327652	0.535873
54878	-9.503206	1.351957	-1.738635	0.004678	-0.075809	-0.057904	-0.350246	-0.694796	-0.327634	0.535950
54879	-9.502128	1.296656	-1.740613	-0.038437	-0.043767	-0.065991	-0.350251	-0.694750	-0.327699	0.535967
54880	-9.531611	1.317175	-1.789114	-0.001478	-0.017665	-0.025596	-0.350160	-0.694772	-0.327691	0.536002
54881	-9.566070	1.347272	-1.803824	0.024978	-0.025855	0.014689	-0.350089	-0.694749	-0.327750	0.536043
54882	-9.545749	1.336169	-1.754179	-0.004233	-0.060566	-0.015742	-0.349986	-0.694751	-0.327754	0.536105
54883	-9.522970	1.301777	-1.791884	-0.006686	-0.009715	-0.035556	-0.349886	-0.694755	-0.327785	0.536146
54884	-9.508749	1.355650	-1.706387	-0.002773	-0.110910	-0.058020	-0.349762	-0.694795	-0.327798	0.536168
54885	-9.506046	1.248407	-1.870978	-0.003956	0.083337	-0.044524	-0.349773	-0.694748	-0.327959	0.536122
54886	-9.541329	1.287384	-1.819900	-0.005341	0.014902	-0.014417	-0.349633	-0.694816	-0.327921	0.536149
54887	-9.536814	1.282729	-1.900255	0.034561	0.083962	-0.004581	-0.349656	-0.694754	-0.327978	0.536179
54888	-9.548573	1.277018	-1.792782	-0.027476	-0.003280	-0.013743	-0.349532	-0.694780	-0.327885	0.536284
54889	-9.523214	1.296890	-1.794131	-0.003624	-0.010507	-0.035556	-0.349508	-0.694741	-0.327837	0.536378
54890	-9.510343	1.323623	-1.780458	0.015411	-0.035067	-0.047076	-0.349386	-0.694768	-0.327744	0.536480
54891	-9.538095	1.323345	-1.802721	0.022492	-0.018548	-0.015981	-0.349313	-0.694748	-0.327680	0.536592
54892	-9.518520	1.279085	-1.779495	-0.020370	-0.011525	-0.045173	-0.349247	-0.694729	-0.327634	0.536688
54893	-9.567729	1.297042	-1.785175	-0.011425	-0.020673	0.006175	-0.349117	-0.694749	-0.327543	0.536801
54894	-9.532792	1.339102	-1.760616	0.019395	-0.061310	-0.026832	-0.349107	-0.694694	-0.327580	0.536858
54895	-9.550202	1.272782	-1.787105	-0.023947	-0.004203	-0.013734	-0.349050	-0.694702	-0.327538	0.536910
54896	-9.522115	1.306127	-1.736236	-0.016303	-0.062777	-0.046063	-0.349010	-0.694686	-0.327559	0.536944
54897	-9.552038	1.329281	-1.672638	-0.036015	-0.131831	-0.025580	-0.348863	-0.694745	-0.327511	0.536993
54898	-9.527160	1.278007	-1.843807	0.017193	0.039556	-0.025050	-0.348899	-0.694706	-0.327627	0.536948
54899	-9.552624	1.257248	-1.842414	-0.005660	0.046477	-0.003223	-0.348778	-0.694759	-0.327604	0.536973
54900	-9.542265	1.353074	-1.807501	0.058105	-0.035637	-0.007177	-0.348664	-0.694778	-0.327578	0.537037
54901	-9.520574	1.288171	-1.759732	-0.014781	-0.038190	-0.045615	-0.348728	-0.694698	-0.327678	0.537039
54902	-9.571848	1.246621	-1.755131	-0.060951	-0.024122	-0.001952	-0.348519	-0.694767	-0.327591	0.537139
54903	-9.536430	1.245946	-1.825538	-0.016036	0.037275	-0.023570	-0.348492	-0.694754	-0.327531	0.537210
54904	-9.481915	1.291369	-1.842712	0.042876	0.031864	-0.067582	-0.348479	-0.694727	-0.327497	0.537273
54905	-9.561789	1.220251	-1.775436	-0.067195	0.009162	-0.011442	-0.348485	-0.694708	-0.327473	0.537309
54906	-9.588000	1.368866	-1.778551	0.052498	-0.071546	0.034085	-0.348386	-0.694719	-0.327353	0.537432
54907	-9.509107	1.363124	-1.695131	0.021722	-0.130627	-0.058860	-0.348395	-0.694671	-0.327382	0.537470
54908	-9.575149	1.272123	-1.822608	0.001033	0.019363	0.017028	-0.348296	-0.694676	-0.327412	0.537510
54909	-9.508608	1.311776	-1.743573	0.008003	-0.063852	-0.057161	-0.348088	-0.694709	-0.327317	0.537660
54910	-9.516352	1.306291	-1.763053	0.014203	-0.046985	-0.046762	-0.347893	-0.694747	-0.327310	0.537742
54911	-9.547489	1.300045	-1.773522	0.009689	-0.039407	-0.015321	-0.347848	-0.694716	-0.327424	0.537740
54912	-9.539914	1.218679	-1.830552	-0.023980	0.052265	-0.022756	-0.347794	-0.694661	-0.327491	0.537806
54913	-9.535478	1.289470	-1.788688	0.015503	-0.022395	-0.025618	-0.347591	-0.694695	-0.327454	0.537915
54914	-9.547033	1.362529	-1.718541	0.038596	-0.123346	-0.017842	-0.347546	-0.694635	-0.327558	0.537959
54915	-9.499481	1.233791	-1.749390	-0.039395	-0.024131	-0.075100	-0.347527	-0.694575	-0.327726	0.537947
54916	-9.556655	1.252693	-1.821640	0.004259	0.018567	-0.003665	-0.347372	-0.694580	-0.327788	0.538003
54917	-9.545267	1.252192	-1.771156	-0.018192	-0.024509	-0.024115	-0.347240	-0.694568	-0.327876	0.538049
54918	-9.546863	1.264656	-1.751590	-0.016607	-0.049996	-0.024570	-0.347170	-0.694538	-0.328010	0.538051
54919	-9.533971	1.172713	-1.843842	-0.039723	0.075988	-0.031877	-0.347061	-0.694548	-0.328107	0.538049
54920	-9.542774	1.299794	-1.740271	0.009719	-0.083093	-0.026189	-0.347026	-0.694533	-0.328241	0.538009
54921	-9.533744	1.170248	-1.846579	-0.038650	0.075705	-0.031870	-0.347076	-0.694478	-0.328414	0.537943
54922	-9.542645	1.180906	-1.846050	-0.031356	0.067185	-0.021926	-0.346963	-0.694512	-0.328419	0.537969
54923	-9.552642	1.280605	-1.814787	0.033244	-0.015248	-0.005290	-0.347022	-0.694438	-0.328519	0.537965
54924	-9.547742	1.230433	-1.830112	0.001663	0.025754	-0.013606	-0.347037	-0.694412	-0.328542	0.537975
54925	-9.543335	1.263520	-1.769277	-0.001397	-0.042039	-0.024925	-0.347104	-0.694341	-0.328598	0.537990
54926	-9.542468	1.174997	-1.798515	-0.058199	0.031750	-0.031605	-0.347155	-0.694294	-0.328644	0.537990
54927	-9.561918	1.293090	-1.811055	0.042045	-0.024175	0.004641	-0.347132	-0.694307	-0.328605	0.538011
54928	-9.514447	1.250043	-1.765061	-0.007508	-0.033752	-0.055559	-0.347274	-0.694206	-0.328694	0.537996
54929	-9.533988	1.208392	-1.704425	-0.077521	-0.062293	-0.052959	-0.347289	-0.694197	-0.328738	0.537969
54930	-9.549329	1.248182	-1.807029	0.005938	-0.000415	-0.014067	-0.347360	-0.694160	-0.328823	0.537921
54931	-9.530168	1.254244	-1.736794	-0.022296	-0.060450	-0.044907	-0.347458	-0.694118	-0.328928	0.537848
54932	-9.569550	1.219249	-1.839279	-0.005839	0.040647	0.007909	-0.347528	-0.694081	-0.329001	0.537805
54933	-9.535921	1.237667	-1.776755	-0.016566	-0.018469	-0.034045	-0.347544	-0.694073	-0.329020	0.537793
54934	-9.524191	1.280650	-1.743808	0.003473	-0.068426	-0.046088	-0.347633	-0.694060	-0.329084	0.537713
54935	-9.528441	1.209101	-1.786592	-0.035008	0.005935	-0.043156	-0.347716	-0.694039	-0.329188	0.537623
54936	-9.557601	1.231228	-1.835853	0.002033	0.032009	-0.002846	-0.347767	-0.694052	-0.329216	0.537556
54937	-9.549271	1.269783	-1.789887	0.010540	-0.026831	-0.014535	-0.347758	-0.694089	-0.329186	0.537533
54938	-9.527587	1.252643	-1.806612	0.009086	-0.001281	-0.034764	-0.347865	-0.694036	-0.329243	0.537498
54939	-9.549529	1.198002	-1.799608	-0.044624	0.021466	-0.021628	-0.347861	-0.694060	-0.329217	0.537485
54940	-9.577779	1.288334	-1.792448	0.019908	-0.035974	0.016088	-0.347919	-0.694043	-0.329203	0.537478
54941	-9.544708	1.273512	-1.756905	-0.004533	-0.053368	-0.024575	-0.348033	-0.693997	-0.329227	0.537449
54942	-9.510570	1.210157	-1.770224	-0.043696	-0.003636	-0.063472	-0.348134	-0.693985	-0.329269	0.537373
54943	-9.550731	1.224905	-1.824725	-0.012411	0.030400	-0.012412	-0.348124	-0.694025	-0.329224	0.537355
54944	-9.515467	1.229084	-1.783189	-0.024271	-0.003320	-0.053901	-0.348122	-0.694057	-0.329174	0.537345
54945	-9.538546	1.309580	-1.810373	0.050736	-0.026473	-0.016105	-0.348141	-0.694089	-0.329117	0.537326
54946	-9.556423	1.294139	-1.788878	0.022236	-0.036512	-0.004615	-0.348250	-0.694047	-0.329144	0.537295
54947	-9.519032	1.195053	-1.797104	-0.047992	0.029030	-0.052228	-0.348270	-0.694051	-0.329079	0.537316
54948	-9.513692	1.302808	-1.727162	0.005185	-0.087371	-0.056506	-0.348240	-0.694083	-0.329041	0.537317
54949	-9.545640	1.231719	-1.792576	-0.026607	0.003631	-0.022438	-0.348421	-0.694011	-0.329173	0.537212
54950	-9.530214	1.279429	-1.773444	0.005116	-0.037331	-0.034876	-0.348375	-0.694070	-0.329171	0.537168
54951	-9.540153	1.346452	-1.770868	0.056021	-0.078037	-0.017066	-0.348454	-0.694061	-0.329281	0.537060
54952	-9.545615	1.206714	-1.869649	-0.009811	0.079796	-0.011461	-0.348489	-0.694060	-0.329319	0.537016
54953	-9.529267	1.281637	-1.776934	0.006596	-0.037799	-0.034878	-0.348394	-0.694125	-0.329284	0.537014
54954	-9.538522	1.259392	-1.804434	0.000261	-0.004600	-0.023641	-0.348388	-0.694147	-0.329311	0.536974
54955	-9.541374	1.249281	-1.746156	-0.039751	-0.048622	-0.032931	-0.348419	-0.694145	-0.329390	0.536906
54956	-9.545395	1.257173	-1.825994	0.007025	0.012037	-0.013243	-0.348354	-0.694209	-0.329380	0.536872
54957	-9.544912	1.298154	-1.845161	0.050161	0.004988	-0.004903	-0.348470	-0.694174	-0.329473	0.536785
54958	-9.520034	1.205549	-1.839043	-0.024918	0.053186	-0.042169	-0.348500	-0.694159	-0.329469	0.536788
54959	-9.562759	1.282723	-1.824073	0.022196	-0.005205	0.006603	-0.348456	-0.694182	-0.329458	0.536793
54960	-9.522273	1.270018	-1.770229	-0.008073	-0.039483	-0.044437	-0.348528	-0.694146	-0.329489	0.536774
54961	-9.531070	1.282225	-1.769055	-0.000775	-0.048029	-0.034515	-0.348518	-0.694171	-0.329522	0.536728
54962	-9.524202	1.334488	-1.703091	0.008803	-0.132220	-0.046714	-0.348507	-0.694199	-0.329598	0.536653
54963	-9.517234	1.309857	-1.760027	0.018812	-0.072731	-0.046137	-0.348542	-0.694201	-0.329781	0.536515
54964	-9.539849	1.226047	-1.829719	-0.019689	0.026628	-0.021942	-0.348540	-0.694223	-0.329948	0.536385
54965	-9.559395	1.229410	-1.836261	-0.018275	0.026134	-0.001249	-0.348504	-0.694254	-0.330033	0.536316
54966	-9.531357	1.268848	-1.833475	0.018144	0.002504	-0.024018	-0.348457	-0.694303	-0.330112	0.536234
54967	-9.543478	1.275586	-1.820711	0.013887	-0.014943	-0.013725	-0.348455	-0.694318	-0.330223	0.536148
54968	-9.534174	1.264038	-1.824061	0.007622	-0.006708	-0.023645	-0.348435	-0.694332	-0.330298	0.536096
54969	-9.548999	1.217379	-1.845584	-0.022940	0.033937	-0.011162	-0.348390	-0.694352	-0.330348	0.536068
54970	-9.503706	1.199630	-1.872911	-0.013698	0.068759	-0.052440	-0.348221	-0.694435	-0.330273	0.536118
54971	-9.538465	1.312912	-1.812177	0.041348	-0.048325	-0.015443	-0.348100	-0.694498	-0.330220	0.536147
54972	-9.526471	1.231996	-1.837651	-0.009658	0.017452	-0.032706	-0.348122	-0.694478	-0.330264	0.536131
54973	-9.582446	1.241308	-1.818101	-0.023600	-0.009710	0.019350	-0.347952	-0.694567	-0.330168	0.536185
54974	-9.498378	1.264975	-1.788058	-0.001538	-0.041173	-0.065134	-0.347865	-0.694582	-0.330122	0.536252
54975	-9.505616	1.261475	-1.808358	0.004686	-0.024313	-0.054737	-0.347739	-0.694681	-0.330091	0.536223
54976	-9.573896	1.277535	-1.775288	-0.014060	-0.068766	0.007613	-0.347624	-0.694752	-0.330077	0.536214
54977	-9.510077	1.271001	-1.778214	-0.004840	-0.058866	-0.054840	-0.347562	-0.694791	-0.330106	0.536187
54978	-9.492415	1.219932	-1.857422	-0.002664	0.034300	-0.063687	-0.347521	-0.694849	-0.330217	0.536069
54979	-9.547748	1.269224	-1.858362	0.025957	0.000318	-0.003342	-0.347383	-0.694957	-0.330212	0.536023
54980	-9.532133	1.199106	-1.944140	0.015428	0.109957	-0.011322	-0.347393	-0.694962	-0.330226	0.536000
54981	-9.555777	1.158412	-1.917234	-0.037266	0.107311	0.001469	-0.347280	-0.695025	-0.330132	0.536050
54982	-9.553886	1.295038	-1.806016	0.018019	-0.059808	-0.003933	-0.347216	-0.695067	-0.329989	0.536126
54983	-9.521589	1.245457	-1.797987	-0.020263	-0.035412	-0.043198	-0.347234	-0.695049	-0.329941	0.536167
54984	-9.500832	1.270722	-1.719970	-0.035918	-0.111846	-0.074873	-0.347180	-0.695098	-0.329870	0.536181
54985	-9.520205	1.315355	-1.743498	0.008166	-0.119218	-0.045909	-0.347213	-0.695134	-0.329938	0.536072
54986	-9.531849	1.246459	-1.852669	0.004428	0.007034	-0.022788	-0.347301	-0.695126	-0.330098	0.535927
54987	-9.543618	1.294214	-1.858068	0.042807	-0.017278	-0.004226	-0.347342	-0.695151	-0.330221	0.535791
54988	-9.521133	1.310404	-1.848878	0.055043	-0.033493	-0.025792	-0.347379	-0.695144	-0.330364	0.535689
54989	-9.541297	1.234057	-1.818452	-0.028720	-0.020314	-0.021631	-0.347444	-0.695114	-0.330539	0.535578
54990	-9.499832	1.178405	-1.860402	-0.044818	0.047344	-0.061160	-0.347487	-0.695116	-0.330664	0.535469
54991	-9.568007	1.241515	-1.891179	0.007999	0.030903	0.019080	-0.347528	-0.695134	-0.330761	0.535360
54992	-9.542908	1.194854	-1.950065	0.004462	0.107131	-0.000143	-0.347606	-0.695106	-0.330827	0.535304
54993	-9.542633	1.189831	-1.904097	-0.023972	0.072082	-0.009762	-0.347586	-0.695128	-0.330744	0.535340
54994	-9.519744	1.274351	-1.836564	0.015587	-0.027624	-0.034065	-0.347531	-0.695158	-0.330631	0.535407
54995	-9.512770	1.244564	-1.844796	-0.003331	-0.002998	-0.043092	-0.347542	-0.695164	-0.330564	0.535434
54996	-9.565709	1.225808	-1.865390	-0.019352	0.020503	0.009953	-0.347491	-0.695200	-0.330438	0.535497
54997	-9.530350	1.309644	-1.858712	0.053856	-0.026936	-0.015039	-0.347428	-0.695244	-0.330292	0.535572
54998	-9.543495	1.283075	-1.870654	0.035917	-0.002676	-0.003374	-0.347365	-0.695247	-0.330174	0.535682
54999	-9.502272	1.261101	-1.881546	0.033409	0.023261	-0.044263	-0.347291	-0.695236	-0.330052	0.535818
55000	-9.527532	1.268245	-1.804569	-0.004559	-0.046402	-0.033291	-0.347104	-0.695287	-0.329890	0.535973
55001	-9.533158	1.283872	-1.815379	0.014381	-0.045977	-0.023780	-0.347122	-0.695227	-0.329878	0.536046
55002	-9.537810	1.204743	-1.810480	-0.052987	-0.006464	-0.030243	-0.346969	-0.695257	-0.329757	0.536181
55003	-9.522882	1.296638	-1.853633	0.050186	-0.019392	-0.024960	-0.347004	-0.695185	-0.329798	0.536227
55004	-9.492216	1.254298	-1.778899	-0.016039	-0.055196	-0.074279	-0.346934	-0.695169	-0.329782	0.536302
55005	-9.565126	1.277545	-1.821467	0.011550	-0.038889	0.007693	-0.347001	-0.695088	-0.329873	0.536309
55006	-9.516608	1.264562	-1.859904	0.032218	0.004872	-0.033980	-0.347058	-0.695012	-0.329972	0.536310
55007	-9.561184	1.192807	-1.863219	-0.033260	0.043648	0.000956	-0.347110	-0.694919	-0.330042	0.536353
55008	-9.520543	1.253584	-1.797879	-0.007377	-0.039275	-0.043195	-0.347244	-0.694806	-0.330151	0.536347
55009	-9.539897	1.169036	-1.831016	-0.063236	0.034154	-0.028837	-0.347319	-0.694746	-0.330189	0.536352
55010	-9.558203	1.198898	-1.872567	-0.020146	0.052123	0.000568	-0.347388	-0.694691	-0.330171	0.536389
55011	-9.526868	1.238400	-1.833328	-0.001116	0.002543	-0.032302	-0.347424	-0.694669	-0.330067	0.536457
55012	-9.565779	1.192436	-1.841879	-0.042262	0.033893	0.001365	-0.347451	-0.694638	-0.329929	0.536566
55013	-9.571171	1.204177	-1.805285	-0.052292	-0.000550	0.001266	-0.347498	-0.694607	-0.329782	0.536666
55014	-9.513008	1.255950	-1.833784	0.017902	0.003088	-0.043492	-0.347565	-0.694566	-0.329635	0.536766
55015	-9.579425	1.211176	-1.864722	-0.016550	0.051041	0.021266	-0.347594	-0.694560	-0.329414	0.536891
55016	-9.526677	1.233306	-1.840608	0.000469	0.027217	-0.031802	-0.347598	-0.694551	-0.329149	0.537062
55017	-9.535770	1.240908	-1.789269	-0.021200	-0.016165	-0.031504	-0.347585	-0.694532	-0.328851	0.537277
55018	-9.564143	1.249552	-1.853718	0.015034	0.035093	0.009177	-0.347661	-0.694463	-0.328602	0.537469
55019	-9.535478	1.231030	-1.800318	-0.021242	0.008839	-0.031002	-0.347736	-0.694401	-0.328333	0.537666
55020	-9.519638	1.225497	-1.777825	-0.033311	0.000058	-0.051289	-0.347743	-0.694382	-0.327972	0.537906
55021	-9.553018	1.327693	-1.731974	0.020794	-0.091747	-0.014024	-0.347728	-0.694380	-0.327614	0.538136
55022	-9.529963	1.331165	-1.736820	0.031944	-0.082522	-0.035116	-0.347820	-0.694302	-0.327389	0.538315
55023	-9.518525	1.246779	-1.711255	-0.048012	-0.051618	-0.061780	-0.347934	-0.694236	-0.327244	0.538414
55024	-9.534146	1.331288	-1.716179	0.021362	-0.091817	-0.034720	-0.347979	-0.694202	-0.327100	0.538516
55025	-9.508632	1.353200	-1.716246	0.045132	-0.099051	-0.056720	-0.348105	-0.694127	-0.327096	0.538534
55026	-9.531206	1.298923	-1.707527	-0.008602	-0.076298	-0.043305	-0.348183	-0.694070	-0.327106	0.538550
55027	-9.547753	1.307778	-1.724045	0.004471	-0.067833	-0.023021	-0.348221	-0.694025	-0.327145	0.538561
55028	-9.531821	1.305487	-1.752285	0.021298	-0.041748	-0.033720	-0.348203	-0.694018	-0.327158	0.538573
55029	-9.556482	1.230714	-1.752098	-0.045098	-0.002580	-0.019383	-0.348271	-0.693960	-0.327231	0.538560
55030	-9.540536	1.228513	-1.780371	-0.028246	0.023582	-0.030079	-0.348283	-0.693935	-0.327274	0.538558
55031	-9.551883	1.309569	-1.755587	0.023813	-0.042537	-0.013037	-0.348272	-0.693915	-0.327270	0.538593
55032	-9.521220	1.230897	-1.821277	0.000699	0.058497	-0.041180	-0.348342	-0.693839	-0.327326	0.538612
55033	-9.536861	1.227378	-1.745848	-0.044121	-0.002773	-0.040062	-0.348238	-0.693864	-0.327203	0.538722
55034	-9.575886	1.308874	-1.743313	0.014662	-0.052262	0.008052	-0.348187	-0.693861	-0.327107	0.538817
55035	-9.555086	1.250898	-1.740113	-0.029468	-0.019810	-0.020285	-0.348332	-0.693743	-0.327185	0.538827
55036	-9.519793	1.294293	-1.715126	0.001087	-0.060430	-0.053607	-0.348295	-0.693755	-0.327121	0.538874
55037	-9.532205	1.301658	-1.699851	-0.003126	-0.077909	-0.043314	-0.348343	-0.693716	-0.327185	0.538855
55038	-9.525346	1.271485	-1.708788	-0.022060	-0.053312	-0.052282	-0.348438	-0.693682	-0.327287	0.538775
55039	-9.557315	1.194093	-1.728715	-0.082607	0.002773	-0.027507	-0.348504	-0.693661	-0.327413	0.538684
55040	-9.535424	1.305171	-1.735219	0.015840	-0.052456	-0.033333	-0.348549	-0.693691	-0.327534	0.538543
55041	-9.543809	1.318226	-1.735335	0.023135	-0.061038	-0.023452	-0.348833	-0.693591	-0.327810	0.538319
55042	-9.529328	1.209676	-1.802535	-0.030017	0.055466	-0.039430	-0.349005	-0.693548	-0.328010	0.538141
55043	-9.558010	1.314945	-1.775916	0.035703	-0.027410	-0.002667	-0.349084	-0.693534	-0.328117	0.538043
55044	-9.523210	1.195923	-1.793070	-0.047432	0.054550	-0.048895	-0.349238	-0.693477	-0.328294	0.537908
55045	-9.566951	1.248605	-1.740074	-0.041688	-0.022449	-0.009057	-0.349362	-0.693437	-0.328452	0.537783
55046	-9.531039	1.250660	-1.811213	0.003075	0.038926	-0.030877	-0.349597	-0.693377	-0.328592	0.537622
55047	-9.548787	1.193859	-1.884141	-0.011125	0.130865	-0.007721	-0.349829	-0.693287	-0.328698	0.537523
55048	-9.551427	1.225741	-1.841607	-0.008488	0.080048	-0.008747	-0.349866	-0.693303	-0.328529	0.537581
55049	-9.577734	1.256500	-1.788887	-0.016397	0.019821	0.011325	-0.349909	-0.693286	-0.328377	0.537668
55050	-9.546849	1.262961	-1.776596	-0.011085	0.012062	-0.020169	-0.349966	-0.693269	-0.328154	0.537789
55051	-9.523535	1.266599	-1.782994	-0.000023	0.021246	-0.041269	-0.350002	-0.693268	-0.327908	0.537917
55052	-9.541953	1.252223	-1.758472	-0.028448	0.011173	-0.029629	-0.350021	-0.693259	-0.327649	0.538074
55053	-9.534776	1.215074	-1.830766	-0.019489	0.096007	-0.028493	-0.349935	-0.693313	-0.327307	0.538269
55054	-9.538065	1.295525	-1.737580	-0.002118	-0.021946	-0.031493	-0.349971	-0.693290	-0.327029	0.538444
55055	-9.566641	1.307239	-1.690680	-0.022663	-0.065718	-0.010491	-0.349809	-0.693390	-0.326600	0.538680
55056	-9.507198	1.393042	-1.692147	0.061120	-0.103820	-0.056857	-0.349842	-0.693399	-0.326395	0.538772
55057	-9.554366	1.305065	-1.701449	-0.016797	-0.048600	-0.020783	-0.349838	-0.693420	-0.326199	0.538865
55058	-9.533838	1.296994	-1.650104	-0.046327	-0.083228	-0.051026	-0.349782	-0.693457	-0.326009	0.538969
55059	-9.563798	1.328555	-1.631359	-0.036875	-0.117526	-0.020984	-0.349766	-0.693506	-0.325925	0.538967
55060	-9.544606	1.338384	-1.720031	0.020569	-0.047526	-0.022560	-0.349834	-0.693526	-0.325950	0.538882
55061	-9.526437	1.317254	-1.724287	0.007436	-0.030935	-0.042308	-0.349926	-0.693541	-0.325985	0.538782
55062	-9.555580	1.389858	-1.724742	0.059586	-0.072112	-0.004180	-0.350175	-0.693469	-0.326147	0.538615
55063	-9.545851	1.237197	-1.759421	-0.047800	0.042263	-0.027728	-0.350338	-0.693424	-0.326254	0.538503
55064	-9.554374	1.250751	-1.758155	-0.040458	0.033786	-0.017854	-0.350432	-0.693423	-0.326275	0.538430
55065	-9.549424	1.291289	-1.744460	-0.014710	0.000823	-0.019739	-0.350500	-0.693444	-0.326290	0.538350
55066	-9.547804	1.279063	-1.765345	-0.015179	0.025975	-0.019215	-0.350704	-0.693394	-0.326352	0.538244
55067	-9.525515	1.208534	-1.784558	-0.060467	0.083764	-0.046933	-0.350749	-0.693435	-0.326271	0.538210
55068	-9.547267	1.332745	-1.717058	0.000554	-0.041422	-0.021207	-0.350666	-0.693540	-0.326060	0.538256
55069	-9.562170	1.328810	-1.754981	0.012646	-0.007621	-0.000421	-0.350719	-0.693567	-0.325945	0.538257
55070	-9.560564	1.268055	-1.823425	-0.002521	0.084680	0.002100	-0.350703	-0.693633	-0.325728	0.538314
55071	-9.553683	1.377079	-1.751948	0.050534	-0.031726	-0.002746	-0.350644	-0.693684	-0.325435	0.538463
55072	-9.535539	1.350030	-1.707276	0.008453	-0.050046	-0.032028	-0.350685	-0.693674	-0.325304	0.538529
55073	-9.508558	1.360239	-1.616154	-0.025809	-0.126911	-0.073175	-0.350798	-0.693640	-0.325247	0.538534
55074	-9.564654	1.281244	-1.737421	-0.040003	0.014916	-0.007536	-0.350843	-0.693666	-0.325166	0.538520
55075	-9.550362	1.399088	-1.694220	0.036251	-0.083557	-0.013251	-0.350881	-0.693687	-0.325091	0.538513
55076	-9.549494	1.346491	-1.696514	-0.006876	-0.051530	-0.020786	-0.351013	-0.693661	-0.325117	0.538444
55077	-9.546766	1.414282	-1.753339	0.077935	-0.040095	-0.004148	-0.351176	-0.693631	-0.325181	0.538338
55078	-9.527908	1.332267	-1.712235	-0.007864	-0.026107	-0.040944	-0.351379	-0.693495	-0.325291	0.538315
55079	-9.530243	1.362981	-1.670036	-0.005238	-0.076966	-0.042001	-0.351426	-0.693495	-0.325306	0.538275
55080	-9.569365	1.412108	-1.696005	0.040127	-0.084811	0.007416	-0.351615	-0.693401	-0.325483	0.538167
55081	-9.468807	1.338644	-1.679328	-0.008334	-0.050764	-0.103528	-0.351722	-0.693338	-0.325662	0.538069
55082	-9.524991	1.354866	-1.705581	0.006933	-0.043057	-0.041904	-0.351755	-0.693311	-0.325816	0.537990
55083	-9.557114	1.364735	-1.696259	0.003790	-0.060893	-0.010927	-0.351680	-0.693324	-0.325956	0.537936
55084	-9.522938	1.426332	-1.699403	0.064287	-0.091984	-0.035359	-0.351737	-0.693245	-0.326228	0.537836
55085	-9.492280	1.340120	-1.721999	0.012223	-0.025807	-0.072884	-0.351908	-0.693109	-0.326637	0.537651
55086	-9.606726	1.345478	-1.735550	0.000716	-0.028840	0.041794	-0.351863	-0.693071	-0.326857	0.537596
55087	-9.512686	1.251362	-1.759812	-0.043000	0.047378	-0.058204	-0.351852	-0.692999	-0.327080	0.537560
55088	-9.557942	1.272889	-1.780942	-0.021877	0.046937	-0.007405	-0.351695	-0.693017	-0.327196	0.537570
55089	-9.547319	1.284289	-1.822916	0.013463	0.073618	-0.008703	-0.351474	-0.693077	-0.327162	0.537658
55090	-9.560035	1.337771	-1.759799	0.023910	-0.010959	-0.000445	-0.351381	-0.693055	-0.327193	0.537728
55091	-9.543237	1.272644	-1.744909	-0.031973	0.012544	-0.028183	-0.351258	-0.693033	-0.327201	0.537831
55092	-9.524960	1.330062	-1.671721	-0.016757	-0.079660	-0.051439	-0.351121	-0.693044	-0.327207	0.537903
55093	-9.541501	1.290608	-1.626183	-0.075180	-0.099224	-0.048729	-0.350982	-0.693077	-0.327238	0.537932
55094	-9.575857	1.464295	-1.608751	0.052784	-0.213795	0.004684	-0.350997	-0.693053	-0.327447	0.537826
55095	-9.523639	1.223098	-1.728021	-0.073486	0.019187	-0.056871	-0.351152	-0.692964	-0.327795	0.537628
55096	-9.527705	1.320545	-1.666766	-0.026161	-0.089253	-0.051005	-0.350944	-0.693092	-0.327900	0.537534
55097	-9.550262	1.315341	-1.774658	0.020812	-0.003710	-0.010311	-0.350817	-0.693150	-0.328141	0.537395
55098	-9.566454	1.369853	-1.748239	0.048758	-0.062391	0.007883	-0.350639	-0.693239	-0.328321	0.537287
55099	-9.548343	1.301862	-1.850319	0.049829	0.056223	-0.000260	-0.350584	-0.693227	-0.328617	0.537157
55100	-9.521981	1.312441	-1.809926	0.044411	0.014129	-0.031875	-0.350342	-0.693279	-0.328743	0.537171
55101	-9.540704	1.297417	-1.837134	0.045019	0.038995	-0.010655	-0.350091	-0.693290	-0.328858	0.537249
55102	-9.547723	1.323194	-1.829867	0.065013	0.014082	-0.001784	-0.349772	-0.693301	-0.328926	0.537402
55103	-9.502370	1.281451	-1.719047	-0.013113	-0.055593	-0.071589	-0.349483	-0.693268	-0.329016	0.537578
55104	-9.532231	1.207966	-1.798689	-0.032938	0.044272	-0.037472	-0.349012	-0.693316	-0.329003	0.537830
55105	-9.493882	1.248866	-1.788762	0.009161	0.012640	-0.071390	-0.348728	-0.693280	-0.329093	0.538006
55106	-9.541029	1.146525	-1.755286	-0.097627	0.032990	-0.044568	-0.348290	-0.693342	-0.329056	0.538232
55107	-9.532712	1.264076	-1.792041	0.025052	-0.004760	-0.031008	-0.347843	-0.693441	-0.328985	0.538437
55108	-9.579527	1.416278	-1.576688	0.032285	-0.276110	-0.005453	-0.347530	-0.693459	-0.329093	0.538550
55109	-9.492931	1.193898	-1.678666	-0.076750	-0.067035	-0.099364	-0.347410	-0.693407	-0.329458	0.538471
55110	-9.496081	1.177528	-1.623770	-0.116777	-0.111003	-0.108421	-0.346955	-0.693531	-0.329621	0.538504
55111	-9.500550	1.191277	-1.800457	-0.011744	0.019204	-0.069961	-0.346696	-0.693634	-0.329965	0.538327
55112	-9.590019	1.181523	-1.738301	-0.070565	-0.044229	0.004604	-0.346318	-0.693834	-0.330187	0.538178
55113	-9.600376	1.175538	-1.797800	-0.046757	-0.001528	0.024944	-0.346119	-0.693942	-0.330520	0.537961
55114	-9.641155	1.154384	-1.774790	-0.085636	-0.020998	0.057803	-0.345925	-0.694082	-0.330808	0.537729
55115	-9.413613	1.133104	-1.855241	-0.016072	0.070826	-0.151597	-0.345829	-0.694178	-0.331073	0.537504
55116	-9.477911	1.002448	-1.972323	-0.078462	0.227512	-0.082948	-0.345695	-0.694362	-0.331273	0.537229
55117	-9.706379	1.225774	-1.916577	0.026758	0.031703	0.156658	-0.345528	-0.694567	-0.331297	0.537055
55118	-9.581218	1.231400	-1.790260	-0.012128	-0.068472	0.011583	-0.345604	-0.694619	-0.331444	0.536850
55119	-9.521965	1.125730	-1.910791	-0.026792	0.092621	-0.036343	-0.345649	-0.694669	-0.331607	0.536655
55120	-9.376171	1.201514	-1.770213	-0.010447	-0.055879	-0.195690	-0.345530	-0.694844	-0.331657	0.536474
55121	-9.488348	1.171651	-1.929154	0.021701	0.077844	-0.059912	-0.345416	-0.695020	-0.331697	0.536295
55122	-9.573115	1.124204	-1.926349	-0.040186	0.090436	0.016320	-0.345463	-0.695135	-0.331748	0.536084
55123	-9.640612	1.020695	-1.953109	-0.129419	0.161555	0.074425	-0.345362	-0.695319	-0.331570	0.536020
55124	-9.573827	1.070603	-1.921091	-0.094516	0.113419	0.009387	-0.345169	-0.695571	-0.331164	0.536069
55125	-9.589543	1.205671	-1.882197	-0.010246	0.005997	0.033911	-0.345008	-0.695830	-0.330726	0.536107
55126	-9.401767	1.187167	-1.872230	0.003416	0.027371	-0.153129	-0.345169	-0.695960	-0.330484	0.535984
55127	-9.529284	1.221510	-1.851446	-0.011527	-0.018455	-0.028685	-0.345205	-0.696165	-0.330206	0.535865
55128	-9.530681	1.303387	-1.875937	0.062655	-0.041358	-0.012371	-0.345368	-0.696300	-0.329978	0.535726
55129	-9.552323	1.254462	-1.869724	0.009033	-0.018619	0.001383	-0.345624	-0.696348	-0.329884	0.535556
55130	-9.566088	1.254092	-1.908448	0.021290	0.015169	0.022163	-0.345747	-0.696455	-0.329691	0.535455
55131	-9.511042	1.352993	-1.877921	0.094207	-0.057276	-0.024688	-0.345857	-0.696540	-0.329504	0.535389
55132	-9.495970	1.458457	-1.855404	0.169424	-0.130458	-0.030186	-0.345902	-0.696615	-0.329316	0.535378
55133	-9.502133	1.404157	-1.875689	0.132119	-0.081365	-0.027171	-0.346156	-0.696523	-0.329320	0.535331
55134	-9.530362	1.167845	-2.057818	0.026725	0.201352	0.004900	-0.346307	-0.696407	-0.329249	0.535428
55135	-9.480932	1.129400	-2.021154	-0.011974	0.200847	-0.055219	-0.346218	-0.696386	-0.328906	0.535724
55136	-9.524988	1.167939	-1.981980	-0.007154	0.149189	-0.014963	-0.346240	-0.696288	-0.328500	0.536086
55137	-9.618573	1.098584	-1.959241	-0.093201	0.169226	0.062794	-0.346314	-0.696200	-0.327942	0.536495
55138	-9.572702	1.270833	-1.815573	-0.015092	-0.029865	0.013137	-0.346320	-0.696165	-0.327154	0.537017
55139	-9.545743	1.310861	-1.753497	-0.007944	-0.088349	-0.019505	-0.346606	-0.696020	-0.326550	0.537387
55140	-9.528779	1.150701	-1.777578	-0.122258	0.034548	-0.052290	-0.346757	-0.695915	-0.325935	0.537798
55141	-9.553488	1.394283	-1.743118	0.055264	-0.120354	-0.002791	-0.346779	-0.695938	-0.325261	0.538164
55142	-9.532122	1.321091	-1.707024	-0.019124	-0.097280	-0.039729	-0.347103	-0.695752	-0.324868	0.538432
55143	-9.479945	1.256814	-1.708227	-0.059970	-0.046985	-0.098719	-0.347149	-0.695756	-0.324386	0.538687
55144	-9.531247	1.353732	-1.574938	-0.062616	-0.208978	-0.060247	-0.347170	-0.695798	-0.323991	0.538858
55145	-9.498009	1.386655	-1.601567	-0.015793	-0.198269	-0.083328	-0.347240	-0.695831	-0.323762	0.538908
55146	-9.571258	1.429814	-1.624114	0.013452	-0.207492	-0.002088	-0.347212	-0.695979	-0.323560	0.538857
55147	-9.577871	1.332493	-1.740112	-0.009554	-0.056537	0.012579	-0.347543	-0.695922	-0.323676	0.538647
55148	-9.491643	1.292902	-1.620950	-0.090200	-0.125232	-0.098443	-0.347514	-0.696037	-0.323555	0.538589
55149	-9.473548	1.277717	-1.673014	-0.074443	-0.073743	-0.108633	-0.347513	-0.696179	-0.323590	0.538385
55150	-9.561324	1.460522	-1.594859	0.010651	-0.250411	-0.013055	-0.347545	-0.696349	-0.323718	0.538068
55151	-9.484924	1.365749	-1.693502	-0.004173	-0.114265	-0.082121	-0.347757	-0.696441	-0.324069	0.537600
55152	-9.590692	1.489005	-1.690685	0.066326	-0.198921	0.036828	-0.347945	-0.696569	-0.324510	0.537047
55153	-9.600117	1.241722	-1.832472	-0.069240	0.049296	0.038954	-0.348090	-0.696617	-0.324880	0.536667
55154	-9.524510	1.346566	-1.785620	0.003435	-0.047999	-0.029250	-0.348073	-0.696804	-0.325261	0.536203
55155	-9.498075	1.381406	-1.776735	0.028032	-0.080529	-0.051989	-0.348041	-0.696969	-0.325603	0.535802
55156	-9.468587	1.325716	-1.765415	-0.022083	-0.064981	-0.090361	-0.348035	-0.697126	-0.326061	0.535324
55157	-9.435078	1.279908	-1.815353	-0.031574	-0.005631	-0.119735	-0.347865	-0.697400	-0.326465	0.534830
55158	-9.473312	1.389940	-1.786988	0.029642	-0.106019	-0.073244	-0.347605	-0.697749	-0.326913	0.534271
55159	-9.597093	1.348684	-1.802860	-0.029747	-0.094316	0.044475	-0.347692	-0.697924	-0.327665	0.533524
55160	-9.466030	1.092550	-1.948203	-0.143332	0.166383	-0.089178	-0.347573	-0.698206	-0.328165	0.532925
55161	-9.476048	1.364097	-2.002289	0.099115	0.047664	-0.032437	-0.347345	-0.698581	-0.328572	0.532331
55162	-9.462758	1.276976	-1.994412	0.019000	0.078706	-0.058429	-0.347398	-0.698742	-0.329105	0.531755
55163	-9.492821	1.177029	-2.145413	0.003038	0.246260	-0.012627	-0.347173	-0.699017	-0.329386	0.531367
55164	-9.509521	1.330736	-2.028387	0.060384	0.053394	0.001063	-0.346947	-0.699299	-0.329557	0.531038
55165	-9.543191	1.199805	-2.091843	-0.026175	0.167628	0.029012	-0.346874	-0.699451	-0.329721	0.530783
55166	-9.499156	1.245317	-2.054804	-0.001714	0.110147	-0.014991	-0.346615	-0.699714	-0.329719	0.530607
55167	-9.507884	1.217935	-2.040508	-0.036998	0.108537	-0.013006	-0.346642	-0.699810	-0.329741	0.530449
55168	-9.517986	1.212450	-2.049399	-0.042114	0.116390	-0.002142	-0.346508	-0.699995	-0.329566	0.530401
55169	-9.484909	1.347620	-2.029280	0.063082	0.027721	-0.020200	-0.346466	-0.700146	-0.329378	0.530347
55170	-9.565625	1.260640	-1.940423	-0.076146	-0.004670	0.028543	-0.346586	-0.700207	-0.329221	0.530286
55171	-9.489871	1.299107	-1.907492	-0.048169	-0.044446	-0.046441	-0.346516	-0.700379	-0.328967	0.530261
55172	-9.426885	1.311435	-1.744061	-0.113082	-0.180620	-0.138890	-0.346466	-0.700570	-0.328756	0.530173
55173	-9.443604	1.392378	-1.888304	0.019532	-0.108988	-0.082641	-0.346427	-0.700838	-0.328661	0.529902
55174	-9.471012	1.406157	-1.852008	-0.000928	-0.152878	-0.061590	-0.346502	-0.701021	-0.328796	0.529527
55175	-9.471272	1.417458	-1.938582	0.046120	-0.092357	-0.042242	-0.346547	-0.701273	-0.328977	0.529051
55176	-9.544931	1.407702	-2.006068	0.049277	-0.043469	0.041617	-0.346619	-0.701451	-0.329154	0.528659
55177	-9.521815	1.303346	-2.059298	-0.009767	0.056061	0.015900	-0.346736	-0.701563	-0.329382	0.528290
55178	-9.430655	1.290951	-1.996152	-0.037246	0.014786	-0.087112	-0.346548	-0.701834	-0.329358	0.528068
55179	-9.374408	1.378314	-2.070528	0.081078	0.028467	-0.114287	-0.346527	-0.702023	-0.329522	0.527730
55180	-9.418076	1.309790	-2.083496	0.016038	0.067154	-0.078629	-0.346416	-0.702272	-0.329562	0.527445
55181	-9.583716	1.410264	-2.123035	0.076655	0.022924	0.103831	-0.346234	-0.702526	-0.329504	0.527263
55182	-9.543480	1.343598	-2.075413	0.002238	0.021047	0.045819	-0.346314	-0.702607	-0.329570	0.527062
55183	-9.515138	1.173828	-2.161459	-0.089963	0.187238	0.013018	-0.346235	-0.702769	-0.329444	0.526976
55184	-9.446732	1.378782	-2.042524	0.029468	-0.018414	-0.049876	-0.346131	-0.702955	-0.329228	0.526932
55185	-9.437173	1.425136	-2.043708	0.066793	-0.042412	-0.052476	-0.346195	-0.703063	-0.329162	0.526787
55186	-9.468425	1.330490	-2.040659	-0.023538	0.004170	-0.035930	-0.346289	-0.703136	-0.329122	0.526652
55187	-9.499095	1.350902	-2.078263	0.002568	0.021083	0.004464	-0.346209	-0.703289	-0.328918	0.526628
55188	-9.486854	1.395628	-2.045512	0.022485	-0.028827	-0.008047	-0.346196	-0.703401	-0.328682	0.526634
55189	-9.433049	1.136586	-2.134732	-0.134115	0.194820	-0.077422	-0.346200	-0.703487	-0.328495	0.526633
55190	-9.475161	1.437306	-1.967177	0.013831	-0.113725	-0.029989	-0.345856	-0.703793	-0.327990	0.526765
55191	-9.431483	1.340008	-2.102161	0.011767	0.055967	-0.057469	-0.345673	-0.704008	-0.327600	0.526841
55192	-9.495119	1.516718	-1.952249	0.060836	-0.172040	-0.002708	-0.345500	-0.704232	-0.327262	0.526865
55193	-9.520793	1.327988	-2.057448	-0.047312	0.017628	0.017856	-0.345399	-0.704354	-0.326947	0.526964
55194	-9.485941	1.421622	-1.984627	-0.002320	-0.089964	-0.018060	-0.345240	-0.704537	-0.326618	0.527027
55195	-9.462206	1.391019	-2.021430	-0.005048	-0.039021	-0.037571	-0.345353	-0.704571	-0.326513	0.526973
55196	-9.396532	1.316686	-2.044647	-0.041273	0.028605	-0.106683	-0.345299	-0.704716	-0.326370	0.526903
55197	-9.492200	1.606637	-1.980752	0.137211	-0.195746	0.013267	-0.345255	-0.704860	-0.326277	0.526796
55198	-9.460322	1.420468	-2.052257	0.026530	-0.030078	-0.028743	-0.345543	-0.704799	-0.326449	0.526583
55199	-9.446503	1.285502	-2.047475	-0.085714	0.042126	-0.062202	-0.345534	-0.704867	-0.326479	0.526479
55200	-9.477397	1.441835	-2.007969	0.012472	-0.082081	-0.018557	-0.345468	-0.704979	-0.326448	0.526392
55201	-9.444360	1.322232	-2.024991	-0.070930	0.000018	-0.063852	-0.345499	-0.705025	-0.326515	0.526269
55202	-9.397773	1.476543	-1.947322	0.023420	-0.147854	-0.103518	-0.345408	-0.705169	-0.326582	0.526093
55203	-9.452119	1.384552	-1.983864	-0.048301	-0.075812	-0.056296	-0.345395	-0.705255	-0.326734	0.525892
55204	-9.482881	1.553398	-2.071780	0.125395	-0.104530	0.016030	-0.345409	-0.705380	-0.326983	0.525560
55205	-9.462899	1.297348	-2.109191	-0.063843	0.066455	-0.031595	-0.345671	-0.705311	-0.327413	0.525212
55206	-9.496321	1.399299	-2.107242	0.008065	0.000307	0.014752	-0.345412	-0.705545	-0.327458	0.525042
55207	-9.530322	1.405885	-2.233017	0.068096	0.094306	0.075506	-0.345846	-0.705384	-0.327853	0.524725
55208	-9.392465	1.297245	-2.132888	-0.042717	0.085099	-0.094592	-0.345746	-0.705482	-0.327837	0.524669
55209	-9.461868	1.467200	-2.147481	0.086928	-0.005208	-0.000261	-0.345857	-0.705444	-0.327972	0.524563
55210	-9.406535	1.396668	-2.123264	0.028546	0.019263	-0.068938	-0.345953	-0.705422	-0.328072	0.524466
55211	-9.527093	1.403423	-2.159048	0.023742	0.032939	0.056200	-0.346039	-0.705365	-0.328157	0.524433
55212	-9.389311	1.382095	-2.026543	-0.029728	-0.050197	-0.108419	-0.346165	-0.705272	-0.328297	0.524387
55213	-9.412980	1.395641	-2.143285	0.036001	0.035799	-0.058555	-0.346222	-0.705271	-0.328478	0.524238
55214	-9.541807	1.392726	-2.152869	0.008044	0.031549	0.067573	-0.346373	-0.705146	-0.328648	0.524199
55215	-9.436651	1.450963	-2.131927	0.070382	-0.006171	-0.030265	-0.346522	-0.705053	-0.328789	0.524139
55216	-9.466372	1.386140	-2.064994	-0.023902	-0.027276	-0.025121	-0.346712	-0.704898	-0.328907	0.524146
55217	-9.481000	1.387046	-2.002565	-0.057145	-0.079588	-0.024228	-0.346574	-0.704901	-0.328799	0.524301
55218	-9.471056	1.593141	-1.815171	0.019250	-0.347197	-0.044733	-0.346682	-0.704802	-0.328970	0.524256
55219	-9.408673	1.344816	-1.978187	-0.085231	-0.070738	-0.105339	-0.346605	-0.704816	-0.329161	0.524169
55220	-9.533156	1.755631	-1.912630	0.188969	-0.368485	0.058988	-0.346726	-0.704784	-0.329652	0.523822
55221	-9.540467	1.294483	-2.108635	-0.092454	0.043733	0.042873	-0.347363	-0.704415	-0.330506	0.523358
55222	-9.554380	1.235367	-2.330406	-0.031685	0.256386	0.095711	-0.347543	-0.704332	-0.330989	0.523046
55223	-9.460746	1.407688	-2.114772	0.021338	-0.010048	-0.016820	-0.347572	-0.704279	-0.331193	0.522968
55224	-9.427718	1.414729	-1.973846	-0.036648	-0.129648	-0.078149	-0.347629	-0.704203	-0.331493	0.522842
55225	-9.336744	1.396977	-2.051313	0.010244	-0.049983	-0.151858	-0.347475	-0.704268	-0.331711	0.522719
55226	-9.464492	1.662742	-1.874671	0.108952	-0.362331	-0.029408	-0.347407	-0.704305	-0.332203	0.522402
55227	-9.545782	1.482551	-2.146817	0.079134	-0.053108	0.082749	-0.347785	-0.704093	-0.333026	0.521912
55228	-9.404509	1.108632	-2.156932	-0.192302	0.168703	-0.103889	-0.347893	-0.703971	-0.333604	0.521636
55229	-9.433921	1.332973	-2.109157	-0.037712	-0.004229	-0.054472	-0.347364	-0.704268	-0.333691	0.521532
55230	-9.402097	1.529893	-2.069630	0.112098	-0.150492	-0.066501	-0.347172	-0.704368	-0.334081	0.521274
55231	-9.417406	1.396927	-2.031698	-0.021202	-0.121863	-0.078652	-0.346851	-0.704511	-0.334537	0.521002
55232	-9.459463	1.516775	-1.980021	0.041143	-0.247613	-0.033142	-0.346442	-0.704756	-0.334982	0.520657
55233	-9.614944	1.468162	-2.009175	-0.022216	-0.228595	0.116395	-0.346171	-0.704913	-0.335566	0.520248
55234	-9.502516	1.175331	-2.313618	-0.085675	0.185450	0.035678	-0.346339	-0.704829	-0.336357	0.519740
55235	-9.336064	0.950584	-2.380455	-0.199269	0.371078	-0.140312	-0.345503	-0.705230	-0.336334	0.519767
55236	-9.334926	1.580132	-2.166748	0.215363	-0.163614	-0.103965	-0.344357	-0.705871	-0.336095	0.519812
55237	-9.353726	1.371936	-2.175241	0.043191	-0.060499	-0.112145	-0.343808	-0.706120	-0.336327	0.519687
55238	-9.492289	1.114840	-2.222312	-0.177864	0.088687	-0.002204	-0.343052	-0.706533	-0.336382	0.519590
55239	-9.456689	1.245513	-2.255730	-0.043738	0.034805	-0.011389	-0.342070	-0.707035	-0.336220	0.519659
55240	-9.345233	1.191410	-2.264397	-0.057438	0.070563	-0.123929	-0.341355	-0.707434	-0.336337	0.519511
55241	-9.367670	1.251060	-2.213575	-0.039997	-0.022509	-0.106186	-0.340466	-0.707928	-0.336378	0.519395
55242	-9.337017	1.479159	-2.153770	0.123327	-0.210501	-0.120063	-0.339734	-0.708379	-0.336638	0.519090
55243	-9.406930	1.336266	-2.288991	0.055746	-0.045969	-0.039757	-0.339343	-0.708645	-0.337200	0.518618
55244	-9.309347	0.808031	-2.273484	-0.366896	0.228671	-0.205468	-0.338840	-0.708900	-0.337642	0.518311
55245	-9.263325	1.257105	-2.312445	0.034228	-0.001398	-0.182751	-0.336911	-0.709986	-0.337124	0.518419
55246	-9.539119	1.769155	-2.084266	0.271138	-0.532046	0.092475	-0.336430	-0.710314	-0.337760	0.517868
55247	-9.511047	1.048071	-2.598920	-0.055460	0.275646	0.098608	-0.336342	-0.710450	-0.338702	0.517122
55248	-9.656738	1.366659	-2.553293	0.145469	0.025423	0.267879	-0.335786	-0.710775	-0.339144	0.516748
55249	-9.470644	1.121163	-2.650835	0.035385	0.253930	0.082326	-0.335915	-0.710690	-0.339902	0.516282
55250	-9.421908	1.047447	-2.520035	-0.080524	0.183416	-0.005550	-0.335121	-0.711036	-0.339825	0.516373
55251	-9.337560	1.348401	-2.132428	-0.008218	-0.301549	-0.144986	-0.334211	-0.711414	-0.339663	0.516549
55252	-9.345883	1.318617	-2.202935	0.003102	-0.242599	-0.123605	-0.333477	-0.711783	-0.339908	0.516354
55253	-9.523529	1.447698	-2.182538	0.055769	-0.372086	0.057233	-0.333254	-0.711905	-0.340713	0.515798
55254	-9.308619	0.851158	-2.504871	-0.221163	0.239393	-0.140924	-0.333330	-0.711827	-0.341657	0.515232
55255	-9.175551	1.198000	-2.466314	0.076741	0.016516	-0.236549	-0.331667	-0.712685	-0.341473	0.515241
55256	-9.458986	1.827995	-2.121027	0.349903	-0.681609	0.022233	-0.331123	-0.713028	-0.342281	0.514579
55257	-9.507523	0.929275	-2.707813	-0.103879	0.271340	0.112249	-0.331374	-0.712823	-0.343591	0.513828
55258	-9.355944	1.098031	-2.511417	-0.031745	0.024297	-0.063588	-0.331134	-0.712970	-0.344504	0.513168
55259	-9.458221	0.754010	-2.875883	-0.155103	0.481021	0.088915	-0.330737	-0.713058	-0.345094	0.512905
55260	-9.439632	1.341686	-2.706349	0.249403	0.005945	0.095332	-0.330080	-0.713390	-0.345437	0.512635
55261	-9.266011	0.959553	-2.605745	-0.076331	0.150661	-0.141023	-0.330388	-0.713097	-0.346237	0.512304
55262	-9.316889	0.903947	-2.729490	-0.070324	0.267454	-0.066141	-0.330033	-0.713207	-0.346604	0.512132
55263	-9.301538	0.984248	-2.766362	0.021199	0.245415	-0.061820	-0.329260	-0.713501	-0.346509	0.512284
55264	-9.490324	1.259217	-2.543280	0.094611	-0.128158	0.091593	-0.328589	-0.713726	-0.346345	0.512513
55265	-9.418230	1.024973	-2.486605	-0.107151	-0.040745	-0.018624	-0.328165	-0.713839	-0.346359	0.512618
55266	-9.499826	1.335690	-2.574068	0.176281	-0.159862	0.117063	-0.328090	-0.713874	-0.346685	0.512397
55267	-9.568864	1.137380	-2.424792	-0.079683	-0.187406	0.121845	-0.328204	-0.713726	-0.347014	0.512308
55268	-9.773071	1.234682	-2.677024	0.082257	-0.069170	0.394774	-0.328315	-0.713634	-0.347306	0.512166
55269	-9.722389	1.161979	-2.371235	-0.121040	-0.268961	0.257606	-0.328900	-0.713254	-0.347654	0.512085
55270	-9.616805	1.114286	-2.575330	-0.030740	-0.052538	0.204956	-0.329405	-0.712922	-0.348004	0.511985
55271	-9.566402	1.379016	-2.280259	0.051652	-0.428083	0.108572	-0.329840	-0.712630	-0.348467	0.511797
55272	-9.388411	1.060785	-2.377976	-0.120819	-0.143003	-0.071678	-0.330622	-0.712136	-0.349364	0.511368
55273	-9.384948	1.004575	-2.350523	-0.181602	-0.136851	-0.088507	-0.330800	-0.712046	-0.350017	0.510931
55274	-9.309721	1.069536	-2.455452	-0.059929	-0.080380	-0.125892	-0.331155	-0.711887	-0.350901	0.510315
55275	-9.152890	0.748426	-2.557397	-0.242737	0.195429	-0.284902	-0.331319	-0.711798	-0.351693	0.509787
55276	-9.163331	0.983150	-2.635440	-0.013663	0.118504	-0.228089	-0.330789	-0.712176	-0.352085	0.509333
55277	-9.193207	0.892982	-2.626286	-0.103106	0.139664	-0.211661	-0.330322	-0.712439	-0.352431	0.509028
55278	-9.189386	1.021859	-2.705900	0.044057	0.119266	-0.179687	-0.329057	-0.713174	-0.352216	0.508967
55279	-9.318759	1.199678	-2.603902	0.108888	-0.101288	-0.064013	-0.328436	-0.713582	-0.352449	0.508635
55280	-9.222524	0.872118	-2.865695	-0.012646	0.292948	-0.120332	-0.327825	-0.713974	-0.352645	0.508344
55281	-9.262050	0.939980	-2.801439	0.000189	0.182489	-0.092405	-0.327270	-0.714323	-0.352792	0.508109
55282	-9.297885	0.846232	-2.809847	-0.083193	0.220572	-0.065564	-0.326407	-0.714825	-0.352663	0.508048
55283	-9.242685	1.088183	-2.810660	0.131180	0.085826	-0.092265	-0.325575	-0.715305	-0.352400	0.508089
55284	-9.306401	0.977291	-2.881662	0.059752	0.182581	-0.023344	-0.324941	-0.715670	-0.352237	0.508094
55285	-9.245482	0.793057	-2.863656	-0.086498	0.271563	-0.105619	-0.324263	-0.716002	-0.351880	0.508306
55286	-9.114319	0.929202	-2.852430	0.053699	0.203729	-0.219659	-0.323451	-0.716457	-0.351385	0.508525
55287	-9.128866	0.861278	-2.950167	0.045705	0.312397	-0.185549	-0.322729	-0.716844	-0.350753	0.508874
55288	-9.314590	1.098928	-2.887738	0.168790	0.092509	-0.000898	-0.321722	-0.717407	-0.349830	0.509353
55289	-9.383237	0.939553	-2.720629	-0.061862	0.032030	0.001836	-0.321320	-0.717596	-0.349123	0.509826
55290	-9.377033	0.835269	-2.799841	-0.102284	0.157033	0.007212	-0.320481	-0.718045	-0.348134	0.510398
55291	-9.317352	1.009174	-2.715166	0.014856	0.002323	-0.055465	-0.319841	-0.718357	-0.347234	0.510973
55292	-9.419664	1.094181	-2.655466	0.031555	-0.109483	0.034435	-0.319386	-0.718642	-0.346463	0.511380
55293	-9.524052	1.068350	-2.616865	-0.033400	-0.139801	0.120905	-0.319263	-0.718716	-0.345856	0.511764
55294	-9.360373	0.999233	-2.688217	-0.011374	-0.008577	-0.022828	-0.319013	-0.718817	-0.345156	0.512250
55295	-9.296592	1.235555	-2.581091	0.143556	-0.212502	-0.089032	-0.318783	-0.718939	-0.344573	0.512613
55296	-9.312675	0.950316	-2.693049	-0.033636	0.042104	-0.072121	-0.318888	-0.718892	-0.344215	0.512856
55297	-9.403309	0.938064	-2.691314	-0.063699	0.038498	0.012781	-0.318568	-0.719005	-0.343501	0.513375
55298	-9.365969	1.026831	-2.690055	0.020649	0.000133	-0.014131	-0.318459	-0.719013	-0.342878	0.513846
55299	-9.315559	1.068920	-2.650789	0.049507	-0.039857	-0.068721	-0.318256	-0.719091	-0.342209	0.514310
55300	-9.414374	0.994335	-2.622217	-0.047506	-0.029032	0.010349	-0.318433	-0.718969	-0.341835	0.514619
55301	-9.423658	0.920427	-2.707586	-0.062476	0.088091	0.034742	-0.318335	-0.718993	-0.341297	0.515002
55302	-9.460617	1.062290	-2.683485	0.034862	-0.010815	0.078293	-0.318179	-0.719005	-0.340577	0.515559
55303	-9.347988	1.131879	-2.578805	0.067258	-0.108055	-0.050512	-0.317897	-0.719054	-0.339790	0.516184
55304	-9.295856	1.212219	-2.558084	0.138681	-0.154905	-0.097597	-0.317739	-0.719037	-0.339194	0.516696
55305	-9.423593	1.008381	-2.691892	0.018879	0.056581	0.039402	-0.317890	-0.718841	-0.338933	0.517047
55306	-9.341375	0.910049	-2.731937	-0.014116	0.167160	-0.039008	-0.317719	-0.718751	-0.338308	0.517686
55307	-9.269395	1.114517	-2.630042	0.121151	-0.011969	-0.113918	-0.317617	-0.718626	-0.337721	0.518306
55308	-9.250020	1.075842	-2.607221	0.089113	0.004263	-0.142634	-0.317560	-0.718466	-0.337218	0.518889
55309	-9.433026	1.137718	-2.543122	0.068461	-0.102559	0.022385	-0.317600	-0.718255	-0.336826	0.519411
55310	-9.416940	0.931538	-2.572836	-0.071471	0.053124	-0.006666	-0.317794	-0.717931	-0.336552	0.519919
55311	-9.436903	0.954972	-2.527011	-0.074644	0.010193	0.002974	-0.317853	-0.717702	-0.336154	0.520456
55312	-9.407073	0.994704	-2.378628	-0.108674	-0.116706	-0.060001	-0.318007	-0.717422	-0.335827	0.520958
55313	-9.425349	1.187219	-2.347315	0.031169	-0.247437	-0.030337	-0.318114	-0.717248	-0.335608	0.521273
55314	-9.475582	1.167871	-2.298104	-0.019005	-0.275915	0.003389	-0.318537	-0.716908	-0.335720	0.521411
55315	-9.505000	0.971231	-2.507009	-0.068600	0.008213	0.064996	-0.318977	-0.716554	-0.335919	0.521499
55316	-9.335633	1.045743	-2.402848	-0.021590	-0.087125	-0.116645	-0.319113	-0.716345	-0.335923	0.521702
55317	-9.197068	0.896889	-2.444560	-0.083842	0.057600	-0.254655	-0.319381	-0.716084	-0.336084	0.521792
55318	-9.307564	1.015317	-2.442702	-0.012335	-0.027346	-0.136557	-0.319265	-0.716102	-0.336063	0.521853
55319	-9.361959	1.084508	-2.438579	0.030003	-0.078170	-0.078105	-0.319557	-0.715898	-0.336311	0.521792
55320	-9.367254	0.971945	-2.490365	-0.033517	0.028932	-0.071533	-0.319588	-0.715841	-0.336371	0.521814
55321	-9.533663	0.991625	-2.507618	-0.045597	0.006992	0.094889	-0.319586	-0.715803	-0.336346	0.521884
55322	-9.522568	0.910172	-2.558958	-0.079331	0.098686	0.088825	-0.319542	-0.715747	-0.336194	0.522085
55323	-9.438652	0.993995	-2.532256	-0.003582	0.044367	0.010068	-0.319399	-0.715748	-0.335886	0.522370
55324	-9.397124	1.080698	-2.469973	0.045806	-0.045801	-0.036675	-0.319341	-0.715689	-0.335601	0.522669
55325	-9.439231	1.088523	-2.508917	0.066487	-0.020982	0.014508	-0.319298	-0.715645	-0.335324	0.522933
55326	-9.562280	0.997363	-2.556017	-0.006577	0.057385	0.135268	-0.319486	-0.715424	-0.335131	0.523243
55327	-9.299377	0.871733	-2.560879	-0.040058	0.181162	-0.129610	-0.319451	-0.715282	-0.334659	0.523762
55328	-9.305064	1.091803	-2.517447	0.118077	0.026115	-0.112215	-0.319486	-0.715161	-0.334280	0.524147
55329	-9.294660	0.937890	-2.536117	0.010377	0.140635	-0.133724	-0.319741	-0.714903	-0.334013	0.524513
55330	-9.399393	0.988793	-2.480491	0.002152	0.061497	-0.041539	-0.319820	-0.714736	-0.333544	0.524992
55331	-9.502336	1.079703	-2.444220	0.036678	-0.024593	0.058098	-0.320072	-0.714517	-0.333196	0.525358
55332	-9.496787	0.745053	-2.563942	-0.162347	0.280675	0.046963	-0.320609	-0.714064	-0.332832	0.525875
55333	-9.374237	0.935088	-2.449961	-0.036789	0.111021	-0.079275	-0.320402	-0.714041	-0.331880	0.526635
55334	-9.403272	1.212119	-2.360481	0.137412	-0.111544	-0.043794	-0.320757	-0.713703	-0.331326	0.527225
55335	-9.472925	0.950745	-2.478795	-0.018346	0.142648	0.024179	-0.321173	-0.713321	-0.330827	0.527802
55336	-9.497674	1.099392	-2.327940	0.020554	-0.050804	0.027574	-0.321352	-0.713013	-0.330058	0.528590
55337	-9.558655	1.114820	-2.292469	0.007665	-0.078289	0.079729	-0.321708	-0.712628	-0.329427	0.529286
55338	-9.489509	1.073440	-2.088575	-0.114714	-0.190409	-0.039471	-0.322050	-0.712242	-0.328848	0.529957
55339	-9.418018	1.204100	-1.978716	-0.047479	-0.329671	-0.119738	-0.322389	-0.711906	-0.328455	0.530446
55340	-9.452029	1.164378	-1.958080	-0.093970	-0.315375	-0.095568	-0.322751	-0.711620	-0.328297	0.530707
55341	-9.437149	1.238616	-2.003712	-0.003334	-0.311957	-0.090986	-0.323071	-0.711404	-0.328297	0.530803
55342	-9.375620	0.999607	-2.115832	-0.118857	-0.069718	-0.150430	-0.323257	-0.711253	-0.328305	0.530886
55343	-9.396033	1.137467	-2.190682	0.029792	-0.090601	-0.098303	-0.323168	-0.711287	-0.328213	0.530952
55344	-9.476673	1.067174	-2.348324	0.042606	0.067798	0.008433	-0.323401	-0.711129	-0.328384	0.530916
55345	-9.480896	1.029251	-2.359146	0.017890	0.100427	0.010851	-0.323488	-0.711048	-0.328356	0.530988
55346	-9.522654	0.998718	-2.345801	-0.021720	0.106211	0.044767	-0.323744	-0.710841	-0.328369	0.531101
55347	-9.497258	0.935986	-2.447234	-0.009019	0.233834	0.036585	-0.324014	-0.710659	-0.328244	0.531258
55348	-9.587005	1.031443	-2.326901	-0.015470	0.079237	0.106107	-0.324196	-0.710471	-0.327849	0.531642
55349	-9.508990	1.110931	-2.235534	0.019527	-0.018821	0.018483	-0.324615	-0.710141	-0.327542	0.532017
55350	-9.376464	1.031547	-2.174499	-0.044757	0.007750	-0.132371	-0.325011	-0.709828	-0.327233	0.532381
55351	-9.436158	1.137329	-2.118984	-0.000235	-0.093786	-0.075343	-0.325358	-0.709594	-0.326953	0.532654
55352	-9.558792	1.130145	-2.197820	0.012464	-0.029320	0.060362	-0.325863	-0.709274	-0.326794	0.532869
55353	-9.471365	0.999916	-2.168202	-0.086977	0.045483	-0.045495	-0.326267	-0.708985	-0.326478	0.533201
55354	-9.392369	1.114371	-2.051651	-0.038334	-0.094353	-0.135017	-0.326370	-0.708855	-0.326000	0.533602
55355	-9.462746	1.256857	-1.879563	-0.031449	-0.315584	-0.088726	-0.326445	-0.708786	-0.325635	0.533871
55356	-9.447091	1.197792	-1.856033	-0.087630	-0.291923	-0.115565	-0.326681	-0.708661	-0.325516	0.533964
55357	-9.490805	1.143527	-2.027327	-0.047423	-0.123035	-0.041521	-0.326916	-0.708609	-0.325525	0.533884
55358	-9.556824	1.014819	-2.166407	-0.091324	0.059256	0.038414	-0.327183	-0.708559	-0.325550	0.533773
55359	-9.535325	1.054777	-2.180153	-0.049433	0.052578	0.025140	-0.327281	-0.708610	-0.325349	0.533767
55360	-9.530142	1.122855	-2.237789	0.035620	0.063835	0.040574	-0.327552	-0.708571	-0.325268	0.533701
55361	-9.506284	1.128981	-2.243310	0.046445	0.073137	0.019350	-0.327963	-0.708433	-0.325224	0.533659
55362	-9.513292	1.041670	-2.284215	-0.004520	0.163827	0.024923	-0.328370	-0.708261	-0.325068	0.533732
55363	-9.448880	1.265769	-2.064507	0.068696	-0.127619	-0.059500	-0.328728	-0.708133	-0.324870	0.533803
55364	-9.466729	1.116001	-2.110198	-0.031598	0.003405	-0.049679	-0.329252	-0.707875	-0.324791	0.533869
55365	-9.400339	1.084283	-2.141873	-0.025583	0.064277	-0.110890	-0.329631	-0.707718	-0.324575	0.533976
55366	-9.368107	1.114079	-2.118453	-0.008277	0.040222	-0.143729	-0.329973	-0.707596	-0.324373	0.534049
55367	-9.506433	1.127314	-2.120545	-0.028238	0.027166	-0.007674	-0.330280	-0.707501	-0.324128	0.534133
55368	-9.502489	1.073016	-2.226918	-0.014202	0.154144	0.004841	-0.330732	-0.707328	-0.323895	0.534223
55369	-9.499913	1.205275	-2.132654	0.039666	0.012415	-0.002105	-0.331218	-0.707160	-0.323644	0.534298
55370	-9.488856	1.146712	-2.093276	-0.028156	0.027125	-0.028333	-0.331807	-0.706904	-0.323469	0.534377
55371	-9.533465	1.213111	-2.080427	0.007348	-0.015287	0.020241	-0.332202	-0.706760	-0.323196	0.534487
55372	-9.494661	1.278030	-1.963447	0.003248	-0.132680	-0.034168	-0.332754	-0.706517	-0.323030	0.534565
55373	-9.512715	1.308584	-1.954047	0.017812	-0.149706	-0.014743	-0.333160	-0.706355	-0.322867	0.534625
55374	-9.481556	1.298721	-1.911756	-0.007407	-0.166867	-0.054948	-0.333558	-0.706198	-0.322757	0.534651
55375	-9.495189	1.167650	-1.920371	-0.112706	-0.078178	-0.056099	-0.333878	-0.706071	-0.322601	0.534712
55376	-9.458513	1.189658	-2.011817	-0.038059	-0.007192	-0.069758	-0.333857	-0.706165	-0.322192	0.534848
55377	-9.514924	1.205411	-1.990220	-0.050870	-0.034700	-0.017588	-0.333841	-0.706227	-0.321746	0.535045
55378	-9.496687	1.136342	-2.035928	-0.079045	0.049208	-0.034413	-0.333885	-0.706304	-0.321356	0.535149
55379	-9.442106	1.175529	-1.959239	-0.079555	-0.025513	-0.098426	-0.333880	-0.706419	-0.320918	0.535264
55380	-9.463664	1.221052	-1.968422	-0.046469	-0.042084	-0.069861	-0.334085	-0.706507	-0.320661	0.535174
55381	-9.518984	1.179626	-2.094162	-0.028362	0.083508	0.004660	-0.334363	-0.706556	-0.320382	0.535103
55382	-9.624893	1.310668	-2.086066	0.043539	-0.001629	0.122411	-0.334821	-0.706545	-0.320084	0.535010
55383	-9.466483	1.264537	-1.972324	-0.026437	-0.041975	-0.060716	-0.335450	-0.706436	-0.319895	0.534873
55384	-9.585862	1.340327	-2.047076	0.042878	-0.026196	0.080402	-0.336083	-0.706320	-0.319741	0.534721
55385	-9.417252	1.291383	-2.025502	0.024271	0.011311	-0.093930	-0.336793	-0.706125	-0.319632	0.534597
55386	-9.470553	1.333663	-1.994547	0.024062	-0.032604	-0.043010	-0.337471	-0.705981	-0.319572	0.534394
55387	-9.440758	1.258204	-2.007276	-0.028671	0.033792	-0.079334	-0.338089	-0.705843	-0.319433	0.534269
55388	-9.436956	1.372374	-1.922076	0.012664	-0.091601	-0.085131	-0.338625	-0.705765	-0.319303	0.534110
55389	-9.537585	1.383521	-1.948600	0.007649	-0.077886	0.019431	-0.339160	-0.705690	-0.319246	0.533905
55390	-9.487641	1.332230	-1.885830	-0.061924	-0.087588	-0.048722	-0.339788	-0.705538	-0.319291	0.533679
55391	-9.473887	1.358176	-1.970689	0.002643	-0.026139	-0.041194	-0.340124	-0.705584	-0.319191	0.533464
55392	-9.474117	1.505949	-1.927713	0.092804	-0.141562	-0.029324	-0.340528	-0.705570	-0.319185	0.533228
55393	-9.583220	1.402583	-1.977779	0.006170	-0.046502	0.072390	-0.341034	-0.705463	-0.319251	0.533007
55394	-9.462160	1.397628	-1.896794	-0.018206	-0.094771	-0.062080	-0.341213	-0.705522	-0.319139	0.532881
55395	-9.494214	1.583970	-1.771497	0.053333	-0.304659	-0.030479	-0.341394	-0.705571	-0.319152	0.532693
55396	-9.537421	1.484589	-1.962405	0.061425	-0.094633	0.036409	-0.341870	-0.705483	-0.319460	0.532319
55397	-9.458060	1.322184	-1.897350	-0.091505	-0.047171	-0.076548	-0.342260	-0.705419	-0.319757	0.531976
55398	-9.492763	1.360025	-1.948241	-0.046413	-0.030086	-0.027249	-0.342589	-0.705417	-0.319998	0.531621
55399	-9.473259	1.343137	-2.144467	0.044101	0.142203	-0.008442	-0.343016	-0.705386	-0.320268	0.531224
55400	-9.502251	1.305634	-2.104374	-0.019818	0.130605	0.006090	-0.343501	-0.705270	-0.320421	0.530972
55401	-9.508664	1.309056	-2.122757	-0.013129	0.147296	0.016481	-0.343828	-0.705254	-0.320380	0.530807
55402	-9.494427	1.346098	-1.962967	-0.069191	0.002049	-0.024706	-0.344151	-0.705212	-0.320168	0.530781
55403	-9.492823	1.454490	-2.055520	0.064794	0.023240	0.008191	-0.344508	-0.705188	-0.320007	0.530679
55404	-9.446005	1.360992	-1.974429	-0.047549	0.020529	-0.067176	-0.344869	-0.705130	-0.319782	0.530657
55405	-9.462844	1.342420	-2.016158	-0.047422	0.070522	-0.045130	-0.344961	-0.705208	-0.319348	0.530755
55406	-9.418248	1.422506	-1.896844	-0.039163	-0.063192	-0.100870	-0.345050	-0.705307	-0.318940	0.530810
55407	-9.493231	1.445546	-1.881308	-0.050403	-0.091321	-0.028032	-0.345018	-0.705508	-0.318474	0.530843
55408	-9.606359	1.530170	-2.017891	0.059847	-0.031852	0.121638	-0.345353	-0.705521	-0.318216	0.530763
55409	-9.444590	1.410765	-1.942471	-0.043503	-0.005717	-0.067853	-0.345523	-0.705574	-0.317813	0.530825
55410	-9.478627	1.530219	-1.866765	0.000791	-0.132091	-0.032437	-0.345776	-0.705603	-0.317547	0.530779
55411	-9.383068	1.396414	-1.944724	-0.047664	0.020778	-0.129135	-0.345985	-0.705662	-0.317297	0.530715
55412	-9.469989	1.657428	-1.875142	0.101127	-0.188126	-0.019920	-0.346094	-0.705795	-0.317103	0.530583
55413	-9.443966	1.488642	-1.923242	-0.008902	-0.047663	-0.060710	-0.346636	-0.705687	-0.317260	0.530279
55414	-9.514288	1.516829	-1.922912	-0.008415	-0.066821	0.011543	-0.346807	-0.705799	-0.317178	0.530067
55415	-9.508139	1.532654	-1.983190	0.032813	-0.023371	0.020173	-0.347169	-0.705766	-0.317199	0.529862
55416	-9.446174	1.425158	-2.032157	-0.017620	0.086345	-0.046256	-0.347452	-0.705759	-0.317158	0.529709
55417	-9.422426	1.514980	-1.998323	0.039011	0.012546	-0.062359	-0.347577	-0.705823	-0.317016	0.529627
55418	-9.397242	1.458098	-1.930320	-0.040907	-0.006488	-0.109151	-0.347755	-0.705853	-0.316898	0.529541
55419	-9.332207	1.327594	-1.921732	-0.139288	0.068010	-0.193871	-0.348006	-0.705854	-0.316915	0.529365
55420	-9.307220	1.308020	-2.052552	-0.083800	0.188586	-0.194702	-0.347900	-0.706099	-0.316725	0.529221
55421	-9.530058	1.713128	-1.902245	0.105353	-0.183367	0.052941	-0.348018	-0.706237	-0.316749	0.528945
55422	-9.635144	1.733363	-1.900503	0.090006	-0.203963	0.157405	-0.348603	-0.706093	-0.317108	0.528537
55423	-9.497997	1.495843	-2.079620	0.021052	0.093198	0.024242	-0.349468	-0.705743	-0.317611	0.528131
55424	-9.391943	1.154691	-1.995229	-0.277899	0.229749	-0.148691	-0.349872	-0.705558	-0.317702	0.528056
55425	-9.412261	1.636241	-2.072565	0.146936	0.023166	-0.038163	-0.349791	-0.705754	-0.317603	0.527908
55426	-9.455002	1.627375	-1.897033	0.033708	-0.117022	-0.033663	-0.350683	-0.705300	-0.318141	0.527599
55427	-9.176857	1.143261	-2.047105	-0.215093	0.304967	-0.348380	-0.351083	-0.705109	-0.318464	0.527393
55428	-9.238030	1.428149	-1.768335	-0.146687	-0.091732	-0.300701	-0.350568	-0.705485	-0.318227	0.527375
55429	-9.349773	1.601225	-1.625028	-0.111120	-0.322160	-0.194644	-0.350475	-0.705622	-0.318405	0.527146
55430	-9.568351	2.138707	-1.259685	0.075172	-0.956132	0.025723	-0.349048	-0.706606	-0.317957	0.527045
55431	-9.731671	2.770266	-1.554983	0.697341	-1.092802	0.341980	-0.350581	-0.706113	-0.319812	0.525564
55432	-9.443799	0.627567	-2.702462	-0.384795	1.076008	-0.036359	-0.352654	-0.704896	-0.321986	0.524483
55433	-9.677888	1.276907	-2.293039	-0.127000	0.350863	0.207830	-0.351209	-0.705787	-0.321389	0.524620
55434	-9.508036	2.179695	-1.997837	0.498887	-0.392664	0.124219	-0.350544	-0.706086	-0.321163	0.524801
55435	-9.443410	1.662051	-2.148914	0.174555	0.020668	0.012145	-0.350664	-0.705792	-0.321647	0.524820
55436	-9.296265	1.384360	-2.031959	-0.070244	0.084265	-0.197398	-0.349491	-0.706123	-0.321387	0.525317
55437	-9.285694	1.726961	-1.452246	-0.082591	-0.600085	-0.275992	-0.347852	-0.706639	-0.321127	0.525869
55438	-9.248381	1.474745	-1.034568	-0.492122	-0.823645	-0.439475	-0.346143	-0.707307	-0.321393	0.525936
55439	-9.396666	2.239555	-1.323557	0.248723	-1.065638	-0.124183	-0.343879	-0.708464	-0.321765	0.525636
55440	-9.505789	1.967780	-2.037180	0.379953	-0.380882	0.091489	-0.342667	-0.708943	-0.323327	0.524822
55441	-9.627237	1.715447	-2.394048	0.340148	-0.006210	0.249218	-0.340200	-0.709868	-0.324319	0.524565
55442	-9.478210	1.699105	-2.084533	0.211243	-0.284896	0.033262	-0.338036	-0.710366	-0.325574	0.524513
55443	-9.539469	1.466829	-2.167476	0.071193	-0.147972	0.077898	-0.334097	-0.711622	-0.325958	0.525095
55444	-9.292428	2.258472	-1.590784	0.482825	-1.106368	-0.193803	-0.330322	-0.712717	-0.326876	0.525428
55445	-9.274112	1.713730	-1.447452	-0.010839	-0.978693	-0.321499	-0.326690	-0.713681	-0.328838	0.525166
55446	-9.155675	2.031722	-0.839539	-0.037633	-1.726954	-0.556642	-0.321311	-0.715498	-0.330789	0.524786
55447	-8.949404	2.401063	0.257884	-0.278033	-2.909236	-1.016044	-0.314185	-0.718008	-0.333301	0.524083
55448	-8.786922	2.217142	2.029206	-1.365325	-4.330094	-1.711656	-0.304126	-0.722011	-0.336402	0.522534
55449	-9.662689	5.446471	5.063123	-0.761038	-8.991553	-1.613582	-0.287968	-0.729742	-0.338493	0.519590
55450	-9.774811	7.039893	1.887346	2.193626	-7.840515	-0.736962	-0.277631	-0.735622	-0.349593	0.509476
55451	-13.168314	2.224989	1.681628	-2.332806	-5.965885	2.024599	-0.270707	-0.740470	-0.365460	0.494835
55452	-14.088301	-1.816844	-5.772180	-1.925447	1.237154	5.347134	-0.264517	-0.745544	-0.381375	0.478275
55453	-15.254541	-4.102235	-8.871677	-2.699007	3.762429	7.701013	-0.248229	-0.753556	-0.392410	0.465349
55454	-16.581995	-1.947414	-5.615498	-3.045601	-1.174884	7.495688	-0.225066	-0.763341	-0.396352	0.457778
55455	-13.869681	0.069406	-6.845366	-0.028184	-1.009517	5.621010	-0.209906	-0.768757	-0.395260	0.456861
55456	-9.844283	1.642534	-7.607431	2.809427	-0.101067	2.417196	-0.196238	-0.772942	-0.392090	0.458602
55457	-6.112468	2.560760	-9.455638	5.678171	1.902256	0.059755	-0.187642	-0.775409	-0.389462	0.460273
55458	-3.380188	2.824770	-7.045625	5.323465	1.255003	-3.557218	-0.184114	-0.775162	-0.387110	0.464081
55459	-2.010291	1.386153	-4.486519	3.131856	1.124741	-5.937395	-0.187114	-0.774386	-0.385330	0.465657
55460	-3.408887	-1.406111	-4.883868	0.846264	2.629846	-4.352216	-0.193678	-0.771992	-0.382809	0.469015
55461	-3.635035	-1.556416	-5.534927	1.086381	3.142779	-3.878654	-0.196062	-0.770400	-0.376360	0.475811
55462	-5.358962	3.728787	-2.537697	2.919587	-2.814214	-4.101536	-0.202487	-0.768220	-0.369815	0.481740
55463	-5.053857	2.861040	-4.019209	3.222923	-0.919544	-3.596839	-0.228737	-0.758106	-0.378205	0.479495
55464	-5.314026	-1.868765	-5.189206	-0.067958	3.030777	-2.780210	-0.260185	-0.744377	-0.392365	0.473558
55465	-5.624086	-5.414319	-6.930495	-2.531745	6.413685	-1.975981	-0.285850	-0.730592	-0.404197	0.470265
55466	-4.361409	-3.809631	-5.381978	-1.800817	4.862292	-3.844880	-0.295236	-0.723404	-0.406080	0.473943
55467	-4.127102	0.834962	-6.940659	2.965183	3.932430	-3.359334	-0.297862	-0.720306	-0.404768	0.478123
55468	-4.692914	1.140774	-3.497116	1.540050	0.907321	-4.124239	-0.309366	-0.713440	-0.411251	0.475573
55469	-4.704984	-9.018285	-13.537534	-3.361155	14.126984	-1.104747	-0.325303	-0.702606	-0.421600	0.471992
55470	-0.090426	3.155701	-1.941942	3.594054	0.086660	-8.915373	-0.292721	-0.717439	-0.404907	0.485434
55471	-10.746637	5.481203	4.428698	0.760761	-9.563378	-1.263787	-0.315199	-0.706696	-0.430203	0.464924
55472	-13.829956	-7.225346	-3.824545	-7.939113	1.739351	4.044015	-0.335792	-0.696358	-0.450008	0.447015
55473	-19.496990	-5.793383	-1.440615	-8.754731	-3.178258	8.325973	-0.322168	-0.705446	-0.450220	0.442555
55474	-21.209173	-1.418835	-1.548439	-5.150220	-5.808082	10.035873	-0.313395	-0.711293	-0.451982	0.437674
55475	-15.190127	-2.366657	-6.230993	-3.215785	0.412228	6.455392	-0.310442	-0.713266	-0.455733	0.432649
55476	-7.816610	1.068571	-9.015612	2.464347	3.939119	1.229280	-0.298063	-0.720540	-0.452985	0.432185
55477	-6.688506	3.214176	-8.978933	4.722617	3.262402	0.323415	-0.293012	-0.722821	-0.452518	0.432321
55478	-6.251067	1.505512	-9.996183	3.710229	4.930694	0.345461	-0.291194	-0.721948	-0.452331	0.435194
55479	-8.637085	2.593732	-8.323372	3.693041	2.121759	1.696506	-0.285028	-0.722068	-0.449610	0.441846
55480	-9.859562	3.314674	-5.950420	3.335491	-0.577016	1.682713	-0.284681	-0.717842	-0.450109	0.448398
55481	-10.140623	1.163764	-4.980801	1.124821	-0.416922	1.481225	-0.287454	-0.711151	-0.453071	0.454269
55482	-10.031097	-0.005477	-4.033559	-0.117084	-0.521609	0.985607	-0.289217	-0.704428	-0.455395	0.461249
55483	-9.152168	0.043341	-3.491575	0.023216	-0.554162	-0.032880	-0.289807	-0.698246	-0.457181	0.468455
55484	-9.044654	0.124145	-3.018209	0.088569	-0.848202	-0.315295	-0.289895	-0.692117	-0.458323	0.476314
55485	-8.135094	-0.024280	-1.927211	-0.208126	-1.264963	-1.551449	-0.292038	-0.684469	-0.459829	0.484533
55486	-6.349108	-1.158048	-1.864059	-0.940362	-0.139111	-3.162720	-0.293595	-0.677540	-0.461983	0.491236
55487	-6.304243	-1.184926	-1.449962	-1.023438	-0.425664	-3.330373	-0.289197	-0.674437	-0.462392	0.497688
55488	-6.736072	-1.005740	-2.044901	-0.542308	-0.144077	-2.723832	-0.282651	-0.672581	-0.462912	0.503445
55489	-6.767662	0.177983	-2.651784	0.896321	-0.172980	-2.599489	-0.273892	-0.672096	-0.462199	0.509551
55490	-7.375383	-0.348522	-4.216569	1.198124	1.093560	-1.466176	-0.265984	-0.672097	-0.461777	0.514102
55491	-12.555365	-1.017864	-5.196153	0.974700	0.296411	3.775190	-0.256249	-0.672320	-0.461040	0.519388
55492	-12.940234	-0.688955	-5.480236	1.619907	0.184688	4.162059	-0.249151	-0.670337	-0.458645	0.527463
55493	-13.111737	0.245705	-5.277226	2.600679	-0.416045	4.075538	-0.245709	-0.665538	-0.455893	0.537445
55494	-9.909906	0.196374	-4.312228	2.331539	0.067953	0.741667	-0.247112	-0.658806	-0.454267	0.546398
55495	-8.319515	-0.815089	-5.079194	1.968737	1.847837	-0.411413	-0.248957	-0.655091	-0.450081	0.553446
55496	-9.346809	-0.658601	-6.125592	2.741294	2.438199	0.763598	-0.248211	-0.656914	-0.438338	0.560995
55497	-10.757840	-1.100410	-5.928218	2.358820	2.231412	2.084333	-0.245291	-0.662094	-0.419794	0.570295
55498	-10.022659	-0.331434	-4.991544	2.550886	1.432608	1.000166	-0.238029	-0.670261	-0.394676	0.581655
55499	-10.262608	-2.755404	-7.377395	2.205983	4.724741	2.025512	-0.226717	-0.679650	-0.370025	0.591402
55500	-9.185041	2.355731	-4.901111	4.689100	-0.188076	-0.225990	-0.203828	-0.694026	-0.334797	0.603898
55501	-8.043861	4.563069	-2.641709	4.575102	-3.248931	-2.001836	-0.194051	-0.704395	-0.316148	0.605164
55502	-7.893511	-2.056073	-3.922978	0.909078	2.357692	-1.121371	-0.188824	-0.713220	-0.305613	0.601884
55503	-7.566257	-2.540066	-4.381943	0.930200	3.014702	-1.271789	-0.173350	-0.726824	-0.286932	0.599456
55504	-7.426112	0.397806	-2.939349	1.566437	-0.224450	-1.974513	-0.157252	-0.740427	-0.268940	0.595576
55505	-7.138549	-0.290454	-2.872898	0.998058	0.232105	-2.180926	-0.146301	-0.752232	-0.256667	0.588953
55506	-7.164992	-1.626110	-2.409625	-0.269424	1.008639	-2.151379	-0.135571	-0.763616	-0.245941	0.581398
55507	-7.068594	-1.303214	-2.256442	-0.353202	0.603111	-2.311765	-0.124015	-0.775102	-0.235560	0.573016
55508	-7.286553	-1.123853	-2.062869	-0.634085	0.231880	-2.186819	-0.114044	-0.785220	-0.227036	0.564694
55509	-7.318630	-1.514844	-1.865693	-1.147332	0.414252	-2.206910	-0.104712	-0.794334	-0.219445	0.556698
55510	-7.523400	-0.452410	-1.059078	-1.547624	-0.951109	-2.421755	-0.095548	-0.802367	-0.211967	0.549680
55511	-7.421238	0.459260	-0.997615	-1.311040	-1.798771	-2.648541	-0.091159	-0.808099	-0.207262	0.543790
55512	-6.311620	-0.754355	-1.798678	-0.892364	-0.154557	-3.268973	-0.092699	-0.811065	-0.205699	0.539692
55513	-6.699670	-4.904616	-5.862376	0.555093	5.002268	-0.982232	-0.096417	-0.811494	-0.206332	0.538153
55514	-11.497652	1.575856	6.781791	-9.041322	-6.291438	-2.111815	-0.072693	-0.813571	-0.179196	0.548367
55515	-10.743965	4.022993	3.645733	-5.268613	-7.033101	-1.586136	-0.081361	-0.808757	-0.172811	0.556263
55516	-9.716904	-3.447148	-4.993205	0.014332	3.118072	1.209894	-0.100428	-0.800723	-0.173925	0.564365
55517	-16.222696	-7.632435	-7.948508	-0.802756	7.195815	8.412957	-0.097920	-0.798980	-0.165042	0.569916
55518	-15.593387	-1.725115	4.333961	-8.909976	-1.930241	3.668540	-0.087293	-0.791318	-0.143749	0.587820
55519	-10.885347	0.317504	0.542568	-3.262735	-1.729108	0.446210	-0.095196	-0.786226	-0.139122	0.594500
55520	-14.068922	-5.392941	0.254409	-5.568075	3.598515	3.719799	-0.116945	-0.777401	-0.147473	0.600186
55521	-10.142402	-4.951697	-4.383397	-0.186966	5.330301	1.056967	-0.119337	-0.774713	-0.138548	0.605295
55522	-10.507407	1.747142	-1.597187	-0.384074	-1.758754	0.806461	-0.111407	-0.775218	-0.118786	0.610341
55523	-8.387379	8.603298	-3.167291	3.639380	-7.554249	-0.643042	-0.112915	-0.773624	-0.107483	0.614169
55524	-10.508494	4.872806	1.054759	-1.755337	-5.184244	0.449716	-0.129399	-0.766616	-0.113424	0.618621
55525	-9.274929	-2.709725	0.394504	-3.172603	2.320145	-0.976779	-0.143413	-0.759000	-0.119721	0.623713
55526	-8.441736	-0.101317	3.098288	-4.540979	-0.945434	-2.108501	-0.128380	-0.760941	-0.102161	0.627734
55527	-9.022725	8.861390	4.557868	-3.368814	-9.774050	-1.220663	-0.125414	-0.764546	-0.095963	0.624926
55528	-10.045682	1.663187	-1.646614	-0.003983	-0.956623	0.457540	-0.142312	-0.762359	-0.110638	0.621542
55529	-9.640466	-0.505358	-4.600627	2.029525	2.140822	0.466272	-0.144551	-0.764204	-0.112551	0.618409
55530	-10.604422	1.778767	-2.710959	0.813883	-0.668030	1.226251	-0.141252	-0.765877	-0.109887	0.617581
55531	-9.793618	1.052441	-2.672406	0.694374	-0.020570	0.369737	-0.141819	-0.765453	-0.110939	0.617787
55532	-9.630449	1.023867	-1.965135	0.076480	-0.248783	0.065968	-0.140044	-0.765757	-0.110186	0.617951
55533	-9.477540	1.130597	-1.516444	-0.264368	-0.518618	-0.165784	-0.139587	-0.765665	-0.110711	0.618074
55534	-9.328848	0.639271	-1.944419	-0.002436	0.070505	-0.262200	-0.137895	-0.766073	-0.110609	0.617966
55535	-9.549906	1.725877	-1.298835	-0.289521	-1.200023	-0.099688	-0.135493	-0.766727	-0.110330	0.617736
55536	-9.669310	0.838785	-2.028403	0.058066	-0.150786	0.101311	-0.135041	-0.766870	-0.111986	0.617360
55537	-9.620792	0.713066	-2.220134	0.200731	-0.000901	0.084619	-0.132894	-0.767354	-0.112294	0.617169
55538	-9.766875	0.832962	-2.067606	0.068422	-0.205200	0.202988	-0.130588	-0.767630	-0.112561	0.617270
55539	-9.643057	0.877762	-1.870699	-0.068628	-0.350270	0.042819	-0.128554	-0.767885	-0.113186	0.617264
55540	-9.647165	0.573914	-1.819663	-0.212134	-0.118715	0.018342	-0.127033	-0.768025	-0.114391	0.617183
55541	-9.592449	0.366155	-1.820084	-0.265424	0.041560	-0.045929	-0.125871	-0.768197	-0.115853	0.616934
55542	-9.483714	0.189010	-1.883182	-0.243189	0.197615	-0.147045	-0.125038	-0.768434	-0.117407	0.616514
55543	-9.531131	-0.016142	-1.975508	-0.241048	0.390265	-0.089783	-0.124588	-0.768718	-0.118928	0.615960
55544	-9.310408	-0.140327	-2.409753	0.159787	0.630388	-0.216473	-0.123422	-0.769023	-0.119584	0.615687
55545	-9.493695	0.450350	-2.285378	0.194266	-0.000829	-0.039346	-0.121882	-0.769514	-0.119726	0.615352
55546	-9.468116	0.224896	-2.520529	0.340332	0.266689	-0.021779	-0.121235	-0.769534	-0.120493	0.615306
55547	-9.487756	0.061684	-2.574145	0.335966	0.417706	0.003633	-0.120052	-0.769576	-0.120721	0.615441
55548	-9.663018	0.247653	-2.466048	0.267720	0.180978	0.157878	-0.118899	-0.769400	-0.120777	0.615873
55549	-9.760607	0.162846	-2.410269	0.181949	0.225298	0.238256	-0.118222	-0.769004	-0.120962	0.616462
55550	-9.830002	-0.080955	-2.537192	0.225354	0.486395	0.325627	-0.117724	-0.768346	-0.120997	0.617369
55551	-9.469319	-0.079100	-2.202042	0.018941	0.389205	-0.098195	-0.116938	-0.767601	-0.120446	0.618552
55552	-9.453698	0.102210	-2.159238	0.067822	0.205058	-0.117407	-0.116323	-0.766878	-0.119886	0.619673
55553	-9.500848	0.129544	-2.092139	0.030460	0.159706	-0.084715	-0.116008	-0.766113	-0.119359	0.620779
55554	-9.563164	0.226025	-2.066375	0.051102	0.065108	-0.026565	-0.115921	-0.765243	-0.118894	0.621956
55555	-9.607873	0.129356	-2.123512	0.092131	0.183237	0.025764	-0.116004	-0.764325	-0.118469	0.623150
55556	-9.728296	0.187290	-2.012375	0.013088	0.100249	0.122813	-0.115944	-0.763354	-0.117861	0.624465
55557	-9.540604	0.186324	-1.821131	-0.097075	0.059976	-0.098715	-0.115893	-0.762343	-0.117195	0.625833
55558	-9.438584	0.205607	-1.580229	-0.266044	-0.018975	-0.244247	-0.115513	-0.761505	-0.116294	0.627091
55559	-9.645362	0.427763	-1.489696	-0.295436	-0.255419	-0.051406	-0.115145	-0.760856	-0.115477	0.628097
55560	-9.619407	0.336344	-1.570321	-0.223257	-0.133966	-0.063626	-0.114995	-0.760220	-0.114900	0.628999
55561	-9.529228	0.242272	-1.526891	-0.257910	-0.047990	-0.162432	-0.114671	-0.759721	-0.114271	0.629775
55562	-9.555200	0.229177	-1.465419	-0.310449	-0.051040	-0.148174	-0.114093	-0.759469	-0.113555	0.630313
55563	-9.713684	0.395970	-1.331405	-0.405399	-0.254518	-0.011873	-0.113393	-0.759413	-0.112874	0.630629
55564	-9.728342	0.415478	-1.308241	-0.421144	-0.281367	-0.001050	-0.112993	-0.759464	-0.112526	0.630702
55565	-9.678903	0.367872	-1.393486	-0.348426	-0.209987	-0.035530	-0.112845	-0.759591	-0.112445	0.630590
55566	-9.418752	0.255641	-1.572197	-0.173854	-0.043577	-0.261880	-0.112899	-0.759860	-0.112677	0.630214
55567	-9.668185	0.261403	-1.689668	-0.118778	-0.024955	0.004764	-0.112942	-0.760286	-0.112954	0.629643
55568	-9.637142	0.143400	-1.811415	-0.047623	0.121836	-0.006609	-0.113186	-0.760607	-0.113280	0.629153
55569	-9.461963	-0.034105	-1.843459	-0.049774	0.304672	-0.177702	-0.113232	-0.760908	-0.113242	0.628788
55570	-9.287667	0.038006	-1.792505	-0.053157	0.225187	-0.356380	-0.112878	-0.761380	-0.112743	0.628370
55571	-9.518022	0.198842	-1.850814	-0.004951	0.083381	-0.114708	-0.112676	-0.761838	-0.112162	0.627955
55572	-9.575096	-0.011811	-1.951334	0.002271	0.318119	-0.045954	-0.112908	-0.762181	-0.111626	0.627592
55573	-9.725876	-0.066572	-2.304032	0.275226	0.482788	0.167132	-0.113132	-0.762523	-0.110861	0.627272
55574	-9.713744	-0.003492	-2.129343	0.126528	0.384512	0.123461	-0.113492	-0.762591	-0.109872	0.627298
55575	-9.671596	0.116924	-2.298197	0.326336	0.341577	0.117667	-0.113891	-0.762609	-0.108592	0.627427
55576	-9.582725	0.107534	-2.111970	0.168336	0.321760	-0.006125	-0.114550	-0.762369	-0.107153	0.627845
55577	-9.675179	0.123625	-1.920691	-0.017534	0.278057	0.048130	-0.115368	-0.762049	-0.105602	0.628347
55578	-9.428262	0.297791	-1.777349	-0.047206	0.107131	-0.214460	-0.116354	-0.761768	-0.104045	0.628766
55579	-9.532969	0.493510	-1.800187	0.015935	-0.038517	-0.098786	-0.117674	-0.761459	-0.102771	0.629103
55580	-9.564511	0.546964	-1.784603	0.013310	-0.057040	-0.067930	-0.119407	-0.761154	-0.101827	0.629299
55581	-9.580712	0.481835	-1.751824	-0.037827	0.033349	-0.061358	-0.121171	-0.760779	-0.100964	0.629555
55582	-9.580925	0.596129	-1.704942	-0.045978	-0.052075	-0.063258	-0.122837	-0.760494	-0.100020	0.629726
55583	-9.745066	0.461382	-1.932008	0.096492	0.184002	0.130579	-0.124515	-0.760143	-0.099011	0.629981
55584	-9.524282	0.488916	-1.646190	-0.117674	0.107388	-0.136147	-0.125837	-0.759799	-0.097712	0.630335
55585	-9.628447	0.516196	-1.651821	-0.122191	0.120215	-0.031456	-0.126910	-0.759629	-0.096212	0.630556
55586	-9.451999	0.678588	-1.418145	-0.260579	-0.073944	-0.234669	-0.127827	-0.759558	-0.094655	0.630692
55587	-9.320198	0.629266	-1.373887	-0.297391	-0.011946	-0.375476	-0.128647	-0.759710	-0.093222	0.630555
55588	-9.341154	0.833680	-1.274796	-0.347193	-0.209831	-0.356862	-0.129401	-0.760190	-0.091922	0.630013
55589	-9.496438	0.654227	-1.539870	-0.201224	0.068999	-0.172345	-0.130290	-0.760732	-0.090885	0.629326
55590	-9.605553	0.748894	-1.537670	-0.219724	0.004708	-0.058534	-0.131351	-0.761386	-0.089909	0.628454
55591	-9.638855	0.232039	-1.843210	-0.116694	0.616801	-0.016534	-0.132852	-0.761890	-0.089258	0.627620
55592	-9.241187	0.004223	-2.033119	0.047164	0.906630	-0.394153	-0.134047	-0.762634	-0.088205	0.626611
55593	-9.055940	0.379135	-2.008821	0.141163	0.559409	-0.546827	-0.134549	-0.763738	-0.086685	0.625369
55594	-9.533246	0.896272	-1.253011	-0.551452	-0.125431	-0.172352	-0.135592	-0.765055	-0.085527	0.623691
55595	-10.144280	1.495608	-0.858075	-0.918771	-0.761621	0.407637	-0.138526	-0.766059	-0.085214	0.621854
55596	-9.725717	0.621149	-2.925526	0.797163	0.750931	0.303345	-0.144531	-0.766063	-0.087026	0.620230
55597	-9.741512	0.241463	-2.854385	0.578937	1.149551	0.259352	-0.146053	-0.766683	-0.084800	0.619415
55598	-10.151157	1.572764	-2.163931	0.227167	-0.259875	0.679345	-0.146798	-0.767038	-0.081359	0.619260
55599	-9.830160	1.277029	-2.311669	0.338164	0.102134	0.359906	-0.146873	-0.766877	-0.077295	0.619962
55600	-9.628697	2.873519	-0.582794	-0.768822	-1.914282	0.038849	-0.145158	-0.767032	-0.071952	0.620817
55601	-9.100111	3.491963	-0.871867	-0.222545	-2.405168	-0.329468	-0.146774	-0.766969	-0.070354	0.620698
55602	-9.666997	2.214137	-1.138731	-0.465188	-1.032824	0.105313	-0.149149	-0.766806	-0.070751	0.620289
55603	-9.995720	2.350520	-1.358611	-0.303690	-1.048178	0.487518	-0.149518	-0.767172	-0.070040	0.619827
55604	-9.586358	2.618727	-1.543509	0.029892	-1.261257	0.164623	-0.151817	-0.767017	-0.071396	0.619305
55605	-9.626947	1.253605	-2.066979	0.112785	0.208664	0.110305	-0.152951	-0.766897	-0.072575	0.619038
55606	-9.291166	2.119432	-0.901189	-0.652407	-1.010934	-0.316256	-0.151576	-0.767712	-0.072081	0.618424
55607	-9.422439	2.061196	-1.489173	-0.170701	-0.779475	-0.085831	-0.151460	-0.768346	-0.073329	0.617517
55608	-9.399039	1.667077	-1.476113	-0.311440	-0.435565	-0.168353	-0.152110	-0.769140	-0.075837	0.616064
55609	-9.409080	1.087477	-2.269890	0.226288	0.336615	-0.081236	-0.151677	-0.770085	-0.077719	0.614755
55610	-9.363649	1.592892	-2.230058	0.322857	-0.194064	-0.063520	-0.150386	-0.771329	-0.079104	0.613334
55611	-9.353259	1.267354	-2.376432	0.337946	0.120248	-0.086010	-0.149926	-0.772152	-0.081429	0.612106
55612	-9.379508	0.889839	-2.571530	0.377269	0.501859	-0.066643	-0.148883	-0.773014	-0.083267	0.611023
55613	-9.161214	1.068900	-2.442959	0.349012	0.236619	-0.280612	-0.147232	-0.773765	-0.084760	0.610267
55614	-9.184676	1.326494	-2.045528	0.040912	-0.181755	-0.311787	-0.145119	-0.774654	-0.086097	0.609458
55615	-9.049366	1.403389	-1.645062	-0.287544	-0.442275	-0.523544	-0.142487	-0.775673	-0.087380	0.608600
55616	-9.488349	1.716641	-1.477479	-0.478965	-0.837543	-0.105616	-0.139773	-0.777079	-0.089038	0.607193
55617	-9.881103	1.212532	-2.427331	0.118683	-0.112477	0.432860	-0.138285	-0.778179	-0.091928	0.605693
55618	-9.968663	1.216004	-2.710382	0.333541	-0.092481	0.583408	-0.135891	-0.779276	-0.094192	0.604475
55619	-9.687130	1.524539	-2.126950	-0.055099	-0.645933	0.200700	-0.133550	-0.780118	-0.096601	0.603530
55620	-9.712162	1.437096	-1.791862	-0.409955	-0.743039	0.131226	-0.131076	-0.781058	-0.099505	0.602384
55621	-9.700376	1.412639	-1.384120	-0.806700	-0.933200	0.010056	-0.127919	-0.782287	-0.102471	0.600968
55622	-9.677253	1.520796	-1.279527	-0.890425	-1.163829	-0.042788	-0.124719	-0.783889	-0.106010	0.598937
55623	-9.633146	1.332754	-1.106137	-1.133718	-1.144664	-0.158647	-0.121535	-0.785898	-0.110245	0.596188
55624	-9.617494	0.851679	-1.403840	-1.060661	-0.710805	-0.140020	-0.118138	-0.788432	-0.114859	0.592643
55625	-9.992311	0.486474	-1.569980	-1.199254	-0.458801	0.232056	-0.113676	-0.791591	-0.119038	0.588466
55626	-10.167335	0.241338	-1.992516	-1.031967	-0.249944	0.496189	-0.108817	-0.795065	-0.123281	0.583808
55627	-9.933275	-0.398579	-1.944848	-1.305377	0.205213	0.230336	-0.103034	-0.798762	-0.127039	0.578985
55628	-9.876740	-0.181226	-1.731569	-1.518609	-0.222671	0.098010	-0.095350	-0.803256	-0.129667	0.573475
55629	-9.777846	-0.259628	-1.386538	-1.941937	-0.409970	-0.135235	-0.087187	-0.808049	-0.132520	0.567356
55630	-10.136558	-0.271853	-0.976706	-2.570223	-0.737687	0.016966	-0.077797	-0.813758	-0.135131	0.559897
55631	-10.651558	0.186974	-1.603072	-2.228609	-1.280102	0.649023	-0.068406	-0.820098	-0.138214	0.551051
55632	-11.017543	0.274536	-1.977922	-2.210353	-1.539771	1.055111	-0.062625	-0.826099	-0.143833	0.541249
55633	-10.352647	-1.242627	-4.645657	-0.306756	0.491681	1.587297	-0.060993	-0.831603	-0.151938	0.530689
55634	-10.914237	-2.904882	-6.046343	-0.086348	2.133614	2.818573	-0.058047	-0.836550	-0.158321	0.521295
55635	-10.296567	-3.966979	-5.332424	-0.988037	2.911225	2.050513	-0.054242	-0.839995	-0.162121	0.514959
55636	-9.467910	-3.574215	-5.389025	-0.582548	2.579418	1.343590	-0.046376	-0.843509	-0.161565	0.510136
55637	-9.677435	-1.946639	-4.441137	-1.044306	0.634825	0.942343	-0.040465	-0.846185	-0.161496	0.506214
55638	-8.990475	-1.785785	-2.081682	-2.754816	0.043055	-0.826041	-0.042922	-0.847072	-0.165390	0.503263
55639	-8.447322	-3.283605	-0.996747	-3.950283	1.312325	-1.700618	-0.049074	-0.846492	-0.170208	0.502068
55640	-7.504700	-3.958464	-1.113332	-3.687705	2.194755	-2.409084	-0.053531	-0.845203	-0.172945	0.502847
55641	-8.824166	-3.907168	-1.624891	-3.800118	1.979068	-1.014153	-0.056382	-0.842924	-0.173618	0.506120
55642	-8.597759	-2.800112	-0.285152	-4.358926	0.700549	-1.916455	-0.060455	-0.838556	-0.172274	0.513314
55643	-8.390873	-2.897063	-1.215404	-3.383141	1.186037	-1.601656	-0.065469	-0.832717	-0.169776	0.522945
55644	-8.288056	-3.421003	-2.138981	-2.538814	2.086497	-1.200779	-0.069393	-0.825355	-0.165435	0.535355
55645	-8.923254	-2.968979	-2.605844	-1.939249	1.820116	-0.424135	-0.069183	-0.816996	-0.157489	0.550389
55646	-9.024437	-2.188069	-2.534099	-1.421429	1.203601	-0.369934	-0.066230	-0.807097	-0.146938	0.567994
55647	-9.037977	-1.468756	-3.059340	-0.321631	0.801423	-0.198159	-0.060488	-0.796278	-0.133736	0.586854
55648	-9.558719	-0.465753	-3.317980	0.492697	-0.047801	0.303213	-0.053056	-0.784435	-0.118194	0.606528
55649	-9.326448	0.461305	-3.198110	1.101617	-0.832653	-0.040265	-0.045500	-0.771588	-0.101329	0.626350
55650	-8.749992	0.917718	-3.229780	1.732660	-1.114957	-0.670528	-0.039075	-0.759015	-0.083739	0.644483
55651	-8.719092	0.282003	-4.240326	2.968410	-0.238158	-0.582169	-0.034048	-0.747229	-0.065309	0.660473
55652	-8.321114	0.502790	-4.945326	4.049214	-0.297667	-1.011664	-0.027251	-0.737426	-0.044310	0.673421
55653	-7.977995	1.055800	-4.908850	4.319976	-0.846274	-1.477337	-0.019832	-0.729188	-0.023736	0.683614
55654	-7.131306	1.163170	-5.081414	4.694191	-0.984613	-2.394958	-0.011697	-0.722914	-0.003846	0.690828
55655	-6.365243	1.598156	-5.398687	5.112100	-1.506569	-3.193620	-0.004027	-0.718955	0.014192	0.694900
55656	-6.432215	2.033894	-5.156736	4.844665	-2.019686	-3.137995	0.002731	-0.717423	0.030130	0.695981
55657	-6.495028	2.154895	-4.972673	4.588542	-2.186217	-3.050936	0.007815	-0.718319	0.043661	0.694299
55658	-9.084753	0.369977	-2.543355	2.132557	-0.071430	-0.615720	0.007743	-0.721959	0.048940	0.690160
55659	-10.834894	-3.891124	2.093259	-2.313850	4.655698	0.669902	0.003177	-0.725194	0.040153	0.687366
55660	-12.321645	-2.373039	5.141392	-5.697404	3.393193	2.015747	0.008911	-0.730132	0.043041	0.681891
55661	-11.831795	7.620285	3.309128	-4.973596	-6.615650	2.040014	0.012930	-0.738718	0.053114	0.671794
55662	-12.832679	1.811704	-3.142710	1.607601	-1.231995	3.367915	-0.006866	-0.746507	0.036023	0.664366
55663	-9.436942	-3.563795	-4.561232	3.431208	4.033263	-0.091175	-0.021146	-0.753734	0.024782	0.656372
55664	-8.881193	-2.676447	-7.801810	6.408566	3.185284	-0.030829	-0.021302	-0.761945	0.027551	0.646705
55665	-9.749849	3.183256	-6.463081	4.538253	-2.583104	1.127471	-0.018068	-0.769505	0.034391	0.637458
55666	-10.220424	0.141127	-6.662301	4.556917	0.554356	1.491604	-0.026763	-0.772538	0.028984	0.633742
55667	-10.982393	-3.612549	-5.491982	3.252808	4.481684	1.726739	-0.029721	-0.773566	0.030103	0.632303
55668	-10.392643	-0.311543	-3.737610	1.543370	1.184099	1.063409	-0.023262	-0.775495	0.041033	0.629589
55669	-10.046039	3.200524	-2.471940	0.163760	-2.274859	0.773815	-0.022930	-0.776692	0.046947	0.627710
55670	-9.442076	1.168753	-3.639040	1.501773	-0.254280	0.259060	-0.029818	-0.776819	0.047339	0.627234
55671	-9.804859	0.455927	-3.304920	1.131672	0.620434	0.463446	-0.034869	-0.776583	0.049549	0.627095
55672	-9.843611	0.463667	-3.318560	1.148037	0.720899	0.496824	-0.038216	-0.775782	0.052814	0.627625
55673	-9.715996	0.446737	-2.953748	0.845802	0.809219	0.284543	-0.038938	-0.774599	0.057954	0.628587
55674	-9.437304	1.108559	-2.399324	0.362747	0.190762	-0.020854	-0.038245	-0.773086	0.063811	0.629923
55675	-9.268234	1.377865	-1.602027	-0.365325	-0.014480	-0.313686	-0.038071	-0.771614	0.069375	0.631149
55676	-8.944970	1.865629	-0.686237	-1.208312	-0.439487	-0.740186	-0.038658	-0.770616	0.074695	0.631726
55677	-8.983339	1.673198	-0.086207	-1.782149	-0.137024	-0.850992	-0.041901	-0.770438	0.077883	0.631351
55678	-9.198773	1.487656	-0.285652	-1.627955	0.157011	-0.634636	-0.043502	-0.770976	0.082257	0.630030
55679	-9.156585	1.209929	-2.467816	0.502827	0.397922	-0.274060	-0.044182	-0.771964	0.086901	0.628146
55680	-9.370698	2.317257	-2.380798	0.215020	-0.594226	0.109399	-0.038729	-0.773280	0.096326	0.625507
55681	-9.650974	4.620287	-1.403262	-1.135921	-2.674174	0.580332	-0.036937	-0.774612	0.102345	0.623006
55682	-9.822173	1.594486	-2.093465	-0.183847	0.319795	0.349189	-0.040928	-0.774874	0.101794	0.622521
55683	-9.199414	0.589246	-2.664035	0.593874	1.162959	-0.306468	-0.037597	-0.775944	0.107280	0.620475
55684	-9.449275	2.925195	-1.882677	-0.596311	-0.979314	0.191019	-0.030015	-0.777700	0.116446	0.617026
55685	-9.303119	3.899036	-1.262249	-1.419352	-1.864042	0.079417	-0.026075	-0.778953	0.122458	0.614457
55686	-9.196009	2.023922	-2.443641	-0.021393	-0.184506	-0.086464	-0.023593	-0.780094	0.126775	0.612230
55687	-9.389649	2.595863	-1.307369	-1.333628	-0.525422	-0.088610	-0.017961	-0.781795	0.133790	0.608748
55688	-9.383222	2.974188	-1.429876	-1.389830	-0.878702	-0.002973	-0.013701	-0.783639	0.139519	0.605191
55689	-9.579253	2.666678	-1.720270	-1.202466	-0.557243	0.191063	-0.009325	-0.785963	0.144685	0.601033
55690	-9.306673	2.655714	-1.197098	-1.747659	-0.504040	-0.231961	-0.004004	-0.788526	0.150212	0.596361
55691	-9.212910	2.678225	-0.573847	-2.446772	-0.411011	-0.527083	0.001673	-0.791727	0.155691	0.590699
55692	-8.647811	3.121136	-0.264759	-2.856201	-0.879612	-1.114294	0.006582	-0.796004	0.160304	0.583641
55693	-9.375486	2.305007	-0.729427	-2.580925	0.004463	-0.481005	0.008802	-0.801712	0.161946	0.575286
55694	-9.650141	2.007611	-1.140849	-2.414597	0.287548	-0.192950	0.010157	-0.808676	0.162462	0.565285
55695	-10.171948	1.522748	-1.444832	-2.421196	0.828664	0.253049	0.011343	-0.816528	0.162082	0.553970
55696	-9.655644	0.773271	-1.866542	-1.945981	1.331771	-0.234330	0.012667	-0.825272	0.161582	0.540978
55697	-10.078479	1.563082	-2.283165	-2.307326	0.616212	0.361535	0.016671	-0.835365	0.162507	0.524860
55698	-10.785340	1.777340	-2.098175	-3.227182	0.637493	0.819647	0.017710	-0.846275	0.160478	0.507693
55699	-11.866305	0.923977	-2.024735	-3.987749	1.734153	1.449062	0.019741	-0.858125	0.158354	0.488013
55700	-13.512295	0.757117	-1.614542	-5.643450	2.377455	2.361888	0.022367	-0.870761	0.155947	0.465784
55701	-16.396006	-0.142141	-0.434533	-8.520091	4.163312	3.568061	0.025094	-0.883799	0.153665	0.441200
55702	-18.562867	-1.870004	-0.493687	-9.989470	6.324272	4.624969	0.029302	-0.896377	0.152640	0.415150
55703	-22.994194	-1.428167	-0.805956	-13.523027	6.985103	7.496931	0.045165	-0.907618	0.158926	0.385917
55704	-24.978033	1.629115	-1.964776	-16.029560	4.453743	8.988520	0.063209	-0.915971	0.166820	0.359407
55705	-16.805953	3.065773	-7.082308	-8.507812	-0.227811	6.604301	0.079898	-0.919782	0.175566	0.341752
55706	-6.890686	6.873316	-6.878625	-3.613029	-6.398584	-0.430434	0.089641	-0.923884	0.178823	0.326230
55707	-7.662544	1.470072	-7.057069	-2.324180	-1.254283	0.370200	0.086527	-0.930689	0.175625	0.309010
55708	-8.574095	0.127044	-5.068039	-3.886849	0.816278	-0.678482	0.092222	-0.935063	0.175231	0.294019
55709	-6.341937	1.572844	-1.285971	-4.859273	-0.076167	-5.259883	0.095432	-0.937644	0.173977	0.285393
55710	-4.184962	0.144867	-6.687170	0.032810	-0.933842	-1.978185	0.098134	-0.936649	0.171393	0.289281
55711	0.445669	0.027901	-8.855783	4.802433	-2.825054	-2.915232	0.110505	-0.933260	0.172456	0.295083
55712	-3.691506	3.010766	-0.908915	-3.593723	-2.088132	-7.314451	0.133629	-0.930075	0.178204	0.292144
55713	-4.030489	5.349086	0.962127	-5.767249	-3.438790	-8.978241	0.140720	-0.925051	0.176622	0.305424
55714	-2.507897	2.399229	-1.925674	-1.835996	-2.287827	-7.139332	0.136695	-0.920587	0.169251	0.324328
55715	-2.911310	1.020772	-3.331240	-0.611700	-1.513312	-5.576489	0.129178	-0.914816	0.158213	0.348415
55716	-2.555439	-0.829794	-4.267467	1.168700	-0.223863	-4.912964	0.118907	-0.907684	0.143721	0.375919
55717	-3.192129	-2.290263	-4.853443	1.920266	1.072807	-3.969361	0.111967	-0.898481	0.128956	0.404433
55718	-4.353262	-1.836204	-3.753389	0.572435	1.118398	-3.911627	0.110943	-0.886532	0.116467	0.433807
55719	-5.691249	-0.148882	-3.428626	-0.605327	-0.354309	-3.205327	0.111440	-0.871683	0.104959	0.465546
55720	-7.216893	1.921177	-3.545735	-1.409365	-2.398461	-2.029996	0.107103	-0.854674	0.091432	0.499701
55721	-8.801739	2.446045	-5.853735	0.419771	-3.567459	0.421244	0.090362	-0.836762	0.069833	0.535526
55722	-9.819794	2.992293	-8.097446	2.993380	-4.481475	2.093586	0.065054	-0.817687	0.039488	0.570611
55723	-11.123275	3.308624	-9.058873	4.771832	-4.588188	3.328858	0.033618	-0.796350	-0.002021	0.603898
55724	-10.294212	4.775511	-10.131631	7.417306	-5.442607	2.292972	0.000840	-0.775167	-0.051055	0.629690
55725	-11.616426	4.730679	-11.867895	10.210400	-4.377580	3.394974	-0.037596	-0.752814	-0.109289	0.648007
55726	-14.033632	5.363911	-12.455683	11.800263	-3.838651	5.240145	-0.073287	-0.730408	-0.166200	0.658416
55727	-12.519056	5.602598	-11.852759	12.403208	-2.554180	3.147401	-0.111959	-0.706356	-0.221893	0.662789
55728	-8.097548	1.048899	-12.047030	10.894563	3.724086	-0.919298	-0.148253	-0.684037	-0.265271	0.663133
55729	-4.583059	0.671200	-14.199890	12.146439	6.783561	-4.382144	-0.168711	-0.673739	-0.277175	0.663917
55730	-6.541190	-0.341472	-11.358935	8.964923	6.184740	-2.513711	-0.187991	-0.672610	-0.290242	0.654229
55731	-8.896896	-7.013035	-15.192179	7.627915	13.527669	1.048032	-0.185459	-0.678984	-0.282011	0.651963
55732	-6.222378	10.327014	-10.232486	14.166616	-3.655170	-3.842403	-0.144936	-0.702950	-0.225822	0.658680
55733	-9.468379	12.755497	-4.752626	10.122598	-9.788410	-1.057584	-0.151157	-0.707301	-0.221644	0.654027
55734	-14.112734	-2.322102	-3.186303	0.729713	1.918489	4.695668	-0.171056	-0.705105	-0.243018	0.643823
55735	-13.502254	-5.725345	-2.336998	-2.039156	4.343304	4.241804	-0.180811	-0.701057	-0.251231	0.642425
55736	-12.793971	-3.054706	-0.486382	-2.162774	1.190023	3.116059	-0.192154	-0.704024	-0.257697	0.633261
55737	-12.313416	-7.441883	-3.918405	-2.339456	6.845133	3.226188	-0.212747	-0.698465	-0.264936	0.629837
55738	-7.942899	-4.833359	-3.244598	-1.076757	5.014335	-1.405961	-0.212269	-0.702846	-0.251731	0.630540
55739	-9.061824	2.318670	-1.643260	1.883880	-1.617912	-0.646284	-0.202957	-0.711645	-0.229562	0.632196
55740	-10.452235	8.461224	-0.627632	4.277599	-7.262300	0.684551	-0.206346	-0.714852	-0.222452	0.630018
55741	-10.427768	3.879955	-0.629781	1.650153	-3.333745	0.691872	-0.225033	-0.708577	-0.232000	0.627260
55742	-9.894788	-2.145544	-2.258313	-0.641719	2.644436	0.197459	-0.243927	-0.701751	-0.243734	0.623409
55743	-9.573840	-2.571943	-0.906606	-1.973437	2.223148	-0.312294	-0.245374	-0.701996	-0.238281	0.624671
55744	-8.982184	2.660725	2.252889	-1.085825	-3.720619	-0.991672	-0.241381	-0.706396	-0.228256	0.625012
55745	-9.125143	3.624350	1.386471	0.092517	-3.882042	-0.688690	-0.248628	-0.705843	-0.230721	0.621882
55746	-9.227950	1.642807	1.115648	-0.969945	-2.145503	-0.671872	-0.255707	-0.705758	-0.235193	0.617417
55747	-9.587964	1.488787	-0.958227	0.402567	-0.692625	-0.095615	-0.260671	-0.706848	-0.238655	0.612748
55748	-9.939546	1.490760	-1.235140	0.492583	-0.518616	0.288329	-0.265380	-0.707536	-0.242782	0.608296
55749	-10.030512	0.489652	-2.238522	0.480375	0.898151	0.425661	-0.273264	-0.706738	-0.250117	0.602735
55750	-10.446864	-0.297163	-3.065252	0.391865	2.027961	0.880964	-0.277418	-0.707045	-0.254121	0.598790
55751	-9.573102	1.393635	-1.398690	0.433992	-0.321369	-0.053025	-0.280385	-0.707535	-0.256246	0.595917
55752	-9.074977	0.900060	-1.837971	0.439598	0.358649	-0.527138	-0.284293	-0.707243	-0.259550	0.592975
55753	-9.856846	2.625510	-1.020542	0.901593	-1.478245	0.291464	-0.284281	-0.708960	-0.260326	0.590584
55754	-9.895630	3.361134	-0.833885	1.254853	-2.145736	0.372460	-0.287942	-0.708276	-0.264706	0.587677
55755	-10.012437	1.014442	-1.167873	-0.197598	-0.268480	0.313061	-0.292327	-0.706505	-0.269905	0.585275
55756	-9.621154	-0.655809	-1.019633	-1.428043	0.782623	-0.253163	-0.292292	-0.706268	-0.271073	0.585039
55757	-9.366691	1.437164	-0.598189	-0.179886	-0.985636	-0.370548	-0.287148	-0.709461	-0.267987	0.585145
55758	-9.455559	0.980580	-0.931247	-0.313746	-0.469623	-0.277630	-0.289345	-0.708795	-0.271884	0.583067
55759	-9.680623	0.485704	-2.407999	0.269147	0.891329	0.131238	-0.288930	-0.710027	-0.273714	0.580914
55760	-10.049160	1.132655	-2.324037	0.590328	0.336185	0.541450	-0.290141	-0.709676	-0.275957	0.579678
55761	-8.884554	0.357473	-2.739233	0.508670	1.226777	-0.603847	-0.290555	-0.709474	-0.277162	0.579142
55762	-9.720377	1.251149	-1.812598	0.386176	-0.121805	0.145857	-0.290272	-0.709656	-0.278275	0.578528
55763	-9.539141	1.192433	-1.696888	0.300018	-0.167873	-0.056749	-0.291430	-0.708927	-0.280351	0.577836
55764	-9.741497	1.475639	-1.878779	0.594391	-0.243372	0.196886	-0.293540	-0.707876	-0.283364	0.576585
55765	-9.410476	-0.000773	-1.963175	-0.375031	0.838294	-0.243585	-0.297256	-0.705765	-0.287281	0.575329
55766	-9.405532	0.425500	-2.254195	0.127234	0.769451	-0.162909	-0.297492	-0.705721	-0.288409	0.574697
55767	-9.801652	1.273996	-2.190674	0.647718	0.126942	0.289731	-0.298152	-0.705193	-0.289440	0.574485
55768	-9.565482	0.729093	-1.814113	0.051616	0.227952	-0.052239	-0.299168	-0.704051	-0.290516	0.574814
55769	-9.768325	1.139209	-1.934078	0.416956	0.036557	0.201473	-0.298909	-0.703568	-0.291138	0.575225
55770	-9.968727	1.466088	-1.758110	0.538318	-0.322760	0.396223	-0.299634	-0.702141	-0.292544	0.575878
55771	-9.679406	1.178850	-1.397591	0.174954	-0.381142	0.028952	-0.299653	-0.700794	-0.293749	0.576894
55772	-9.495222	1.772114	-1.090286	0.492264	-0.996837	-0.155969	-0.297945	-0.700124	-0.294279	0.578321
55773	-9.451835	1.634181	-0.871399	0.296737	-1.085511	-0.247098	-0.297593	-0.698672	-0.296640	0.579051
55774	-9.382007	0.627806	-1.713406	0.128981	0.187387	-0.257584	-0.296924	-0.697408	-0.299535	0.579428
55775	-9.772704	1.101235	-1.946730	0.618695	-0.007397	0.193566	-0.295882	-0.696145	-0.302406	0.579988
55776	-9.403570	0.780996	-1.943800	0.476904	0.197697	-0.192467	-0.295902	-0.693977	-0.306335	0.580515
55777	-9.399863	0.936197	-1.941881	0.650921	0.068600	-0.191044	-0.294958	-0.692006	-0.309764	0.581527
55778	-9.491748	1.419881	-1.529810	0.814758	-0.596306	-0.146781	-0.293675	-0.689971	-0.313237	0.582732
55779	-9.569711	0.914049	-1.574309	0.518353	-0.279872	-0.089227	-0.293195	-0.687049	-0.317915	0.583892
55780	-9.715290	0.644430	-1.087106	0.071802	-0.536747	-0.030565	-0.291977	-0.684352	-0.322584	0.585108
55781	-9.763598	0.879724	-1.366614	0.511249	-0.523735	0.058116	-0.290541	-0.681439	-0.327907	0.586263
55782	-9.780684	1.214707	-1.132872	0.726447	-0.972047	0.033473	-0.288708	-0.678316	-0.333681	0.587530
55783	-9.423537	0.756974	-1.807438	0.918272	-0.182980	-0.233289	-0.286442	-0.674803	-0.339615	0.589282
55784	-9.870992	0.903337	-1.595601	0.990788	-0.560921	0.162295	-0.282719	-0.671530	-0.345099	0.591629
55785	-10.106137	0.971870	-1.260539	0.967688	-0.975266	0.325231	-0.277966	-0.667927	-0.350399	0.594835
55786	-10.130875	0.722660	-0.822457	0.663515	-1.256095	0.277517	-0.272719	-0.663879	-0.356029	0.598441
55787	-10.277757	0.916950	-0.194210	0.599776	-1.987898	0.296508	-0.264654	-0.660880	-0.360224	0.602856
55788	-11.121026	1.531315	-0.112958	1.199186	-2.689623	1.020493	-0.255041	-0.658049	-0.364492	0.607512
55789	-11.760487	2.623585	1.450295	1.259454	-4.839769	1.245359	-0.243248	-0.656074	-0.367936	0.612390
55790	-11.802584	2.234396	1.319064	1.206637	-4.698187	1.255186	-0.231895	-0.653796	-0.373100	0.616094
55791	-12.523162	3.367092	1.475190	2.152406	-5.897221	1.629513	-0.217278	-0.652961	-0.376529	0.620208
55792	-12.295936	4.922887	-1.614264	5.461174	-4.802767	1.373379	-0.202931	-0.652358	-0.379352	0.623971
55793	-11.372131	5.839285	-5.250000	8.635631	-2.777655	0.612567	-0.191895	-0.650946	-0.385067	0.625435
55794	-9.266308	7.711029	-7.465509	11.416239	-2.077036	-1.663682	-0.180985	-0.653468	-0.390348	0.622778
55795	-8.147808	9.005132	-9.822085	13.856559	-1.135815	-2.695518	-0.173488	-0.658138	-0.396660	0.615968
