// General information: 
//  MT Manager version: 2021.0.0 
//  XDA version: 2021.0.0 build 5908 rev 109668 built on 2021-04-19
// Device information: 
//  DeviceId: 00B43DF3
//  ProductCode: MTW2-3A7G6
//  Firmware Version: 4.3.5
//  Hardware Version: 1.1.0
// Device settings: 
//  Filter Profile: human(46.1)
//  Option Flags: Orientation Smoother Disabled, Position/Velocity Smoother Disabled, Continuous Zero Rotation Update Disabled, AHS Disabled, ICC Disabled
// Coordinate system: ENU
PacketCounter	Acc_X	Acc_Y	Acc_Z	FreeAcc_E	FreeAcc_N	FreeAcc_U	Quat_q0	Quat_q1	Quat_q2	Quat_q3
54636	9.774683	0.592492	0.163581	-0.104443	0.075088	-0.019543	-0.462253	0.500657	0.499462	0.534979
54637	9.763376	0.583052	0.179372	-0.110827	0.091467	-0.031328	-0.462298	0.500672	0.499444	0.534943
54638	9.745164	0.579325	0.206587	-0.110370	0.119126	-0.049483	-0.462347	0.500678	0.499466	0.534873
54639	9.727913	0.576108	0.178654	-0.113408	0.092088	-0.067187	-0.462360	0.500693	0.499484	0.534832
54640	9.758379	0.575562	0.159804	-0.116888	0.073324	-0.037017	-0.462367	0.500711	0.499454	0.534838
54641	9.792374	0.588181	0.192209	-0.104100	0.104561	-0.001891	-0.462393	0.500717	0.499455	0.534809
54642	9.792434	0.587059	0.192575	-0.104549	0.104968	-0.001900	-0.462411	0.500736	0.499430	0.534799
54643	9.752357	0.568295	0.196135	-0.119457	0.109872	-0.043165	-0.462424	0.500756	0.499412	0.534786
54644	9.716799	0.563019	0.195103	-0.121580	0.110079	-0.079017	-0.462399	0.500813	0.499431	0.534736
54645	9.723079	0.565907	0.158644	-0.120811	0.075150	-0.072901	-0.462372	0.500881	0.499463	0.534666
54646	9.751907	0.574474	0.169767	-0.112746	0.087030	-0.043437	-0.462349	0.500947	0.499454	0.534631
54647	9.783323	0.512871	0.162052	-0.176311	0.083852	-0.016536	-0.462337	0.500963	0.499441	0.534640
54648	9.834441	0.495707	0.108201	-0.200335	0.031266	0.032745	-0.462393	0.500933	0.499496	0.534568
54649	9.882006	0.610091	0.063126	-0.092656	-0.021822	0.087877	-0.462510	0.500821	0.499557	0.534515
54650	9.733311	0.588730	0.097964	-0.100994	0.013094	-0.061628	-0.462575	0.500767	0.499466	0.534593
54651	9.696719	0.583481	0.154207	-0.099617	0.067986	-0.097954	-0.462618	0.500753	0.499448	0.534587
54652	9.699156	0.563294	0.146798	-0.119683	0.061806	-0.097013	-0.462640	0.500779	0.499450	0.534542
54653	9.699229	0.561892	0.147301	-0.120133	0.062209	-0.097021	-0.462658	0.500810	0.499377	0.534565
54654	9.725867	0.538100	0.156144	-0.144475	0.072210	-0.072033	-0.462608	0.500875	0.499329	0.534593
54655	9.754654	0.547055	0.168210	-0.136429	0.084108	-0.042572	-0.462546	0.500952	0.499296	0.534604
54656	9.740446	0.515516	0.155656	-0.167135	0.074527	-0.059083	-0.462471	0.501051	0.499232	0.534636
54657	9.768555	0.534075	0.143933	-0.151022	0.062371	-0.029849	-0.462396	0.501132	0.499208	0.534648
54658	9.777178	0.518194	0.100404	-0.169874	0.020867	-0.022768	-0.462359	0.501202	0.499173	0.534647
54659	9.784120	0.511565	0.089012	-0.177174	0.010002	-0.016406	-0.462369	0.501212	0.499139	0.534660
54660	9.770376	0.521826	0.113458	-0.163944	0.032965	-0.029158	-0.462441	0.501169	0.499128	0.534649
54661	9.771583	0.552830	0.174420	-0.128522	0.089974	-0.025182	-0.462536	0.501119	0.499062	0.534675
54662	9.757805	0.562782	0.200887	-0.115285	0.112940	-0.037935	-0.462623	0.501061	0.498950	0.534758
54663	9.743333	0.582663	0.204103	-0.093987	0.111850	-0.050907	-0.462645	0.501046	0.498824	0.534871
54664	9.759491	0.551457	0.176104	-0.127748	0.083127	-0.037231	-0.462676	0.501043	0.498683	0.534980
54665	9.765327	0.544308	0.222633	-0.131567	0.126964	-0.031378	-0.462692	0.501062	0.498500	0.535118
54666	9.767696	0.523596	0.218459	-0.151634	0.120789	-0.030450	-0.462732	0.501088	0.498292	0.535252
54667	9.746514	0.496724	0.221935	-0.175484	0.122477	-0.053347	-0.462787	0.501091	0.498090	0.535390
54668	9.774778	0.462892	0.203215	-0.211399	0.101858	-0.027659	-0.462882	0.501052	0.497916	0.535506
54669	9.767856	0.466656	0.219022	-0.205005	0.113546	-0.034046	-0.463016	0.500989	0.497804	0.535553
54670	9.757407	0.508704	0.195575	-0.162848	0.083710	-0.041787	-0.463166	0.500909	0.497697	0.535598
54671	9.767715	0.514124	0.239126	-0.153900	0.122864	-0.030511	-0.463340	0.500826	0.497587	0.535627
54672	9.767719	0.512045	0.243361	-0.154352	0.123275	-0.030523	-0.463515	0.500722	0.497492	0.535660
54673	9.762585	0.506454	0.227794	-0.159511	0.104314	-0.036178	-0.463704	0.500604	0.497427	0.535669
54674	9.760229	0.523727	0.239504	-0.140341	0.111324	-0.037125	-0.463844	0.500523	0.497342	0.535701
54675	9.767174	0.516276	0.231778	-0.147641	0.100471	-0.030762	-0.463992	0.500452	0.497223	0.535751
54676	9.762063	0.510795	0.216174	-0.152806	0.081519	-0.036414	-0.464113	0.500375	0.497109	0.535823
54677	9.750495	0.501784	0.235400	-0.159189	0.097886	-0.048240	-0.464212	0.500298	0.497018	0.535894
54678	9.769455	0.493526	0.235166	-0.168647	0.095130	-0.029864	-0.464274	0.500235	0.496955	0.535956
54679	9.778622	0.519482	0.230732	-0.143571	0.086188	-0.018990	-0.464370	0.500169	0.496877	0.536008
54680	9.740595	0.533376	0.241207	-0.126023	0.092942	-0.055775	-0.464484	0.500080	0.496789	0.536074
54681	9.738192	0.551502	0.252721	-0.106862	0.099945	-0.056715	-0.464564	0.500009	0.496703	0.536151
54682	9.719258	0.506991	0.247321	-0.150315	0.095021	-0.078697	-0.464610	0.499953	0.496629	0.536232
54683	9.728088	0.491810	0.206865	-0.169158	0.053509	-0.071594	-0.464636	0.499899	0.496596	0.536290
54684	9.756285	0.510879	0.197605	-0.153084	0.041390	-0.042324	-0.464662	0.499871	0.496582	0.536306
54685	9.770682	0.489432	0.199123	-0.175319	0.043319	-0.029395	-0.464702	0.499838	0.496569	0.536314
54686	9.771461	0.520980	0.258867	-0.139922	0.100342	-0.025439	-0.464740	0.499805	0.496607	0.536278
54687	9.776103	0.533572	0.255612	-0.127615	0.096086	-0.020001	-0.464789	0.499791	0.496610	0.536245
54688	9.754560	0.465784	0.220228	-0.195377	0.065188	-0.046701	-0.464825	0.499785	0.496586	0.536241
54689	9.772410	0.499054	0.308002	-0.157441	0.149688	-0.025108	-0.464864	0.499743	0.496601	0.536233
54690	9.846150	0.568222	0.189877	-0.101572	0.025706	0.051117	-0.464952	0.499666	0.496653	0.536181
54691	9.796534	0.574986	0.214247	-0.089931	0.048396	0.002513	-0.464922	0.499675	0.496483	0.536355
54692	9.738061	0.545258	0.270660	-0.111876	0.104484	-0.056819	-0.464887	0.499706	0.496303	0.536523
54693	9.719747	0.583881	0.335905	-0.067469	0.164680	-0.071252	-0.464872	0.499750	0.496148	0.536639
54694	9.702402	0.538922	0.274868	-0.114388	0.105051	-0.092684	-0.464815	0.499843	0.495955	0.536780
54695	9.708239	0.521752	0.343824	-0.126296	0.172940	-0.086717	-0.464763	0.499936	0.495755	0.536924
54696	9.721937	0.467501	0.286563	-0.184386	0.118243	-0.077763	-0.464638	0.500077	0.495598	0.537046
54697	9.802194	0.460051	0.246140	-0.200070	0.077310	0.001040	-0.464511	0.500168	0.495508	0.537153
54698	9.844792	0.458878	0.236251	-0.205812	0.066739	0.043249	-0.464447	0.500154	0.495486	0.537241
54699	9.834305	0.461824	0.174661	-0.207575	0.004352	0.031816	-0.464438	0.500118	0.495456	0.537311
54700	9.751631	0.487842	0.225631	-0.173183	0.052706	-0.047932	-0.464475	0.500051	0.495398	0.537395
54701	9.725197	0.510551	0.219734	-0.149693	0.043490	-0.072867	-0.464488	0.500017	0.495335	0.537473
54702	9.718182	0.515664	0.233082	-0.143305	0.055178	-0.079254	-0.464484	0.500030	0.495275	0.537520
54703	9.751194	0.496443	0.207462	-0.166479	0.029899	-0.048126	-0.464481	0.500024	0.495264	0.537537
54704	9.755842	0.509247	0.204571	-0.154188	0.025647	-0.042672	-0.464486	0.500037	0.495227	0.537556
54705	9.755870	0.508095	0.206072	-0.154653	0.026072	-0.042681	-0.464528	0.500038	0.495134	0.537603
54706	9.746189	0.540836	0.203882	-0.120567	0.020288	-0.050140	-0.464595	0.500036	0.495090	0.537588
54707	9.743631	0.516506	0.176975	-0.145325	-0.005280	-0.054855	-0.464664	0.500031	0.495101	0.537523
54708	9.795730	0.488567	0.146971	-0.177545	-0.033695	-0.005345	-0.464753	0.500019	0.495152	0.537411
54709	9.788821	0.492211	0.158860	-0.171155	-0.022006	-0.011731	-0.464902	0.499959	0.495189	0.537303
54710	9.795504	0.545650	0.137554	-0.118394	-0.048398	-0.001867	-0.465133	0.499819	0.495242	0.537186
54711	9.734285	0.542887	0.177056	-0.112629	-0.009811	-0.062323	-0.465354	0.499705	0.495264	0.537079
54712	9.706039	0.521693	0.190007	-0.129573	0.003098	-0.091645	-0.465567	0.499553	0.495328	0.536977
54713	9.706073	0.520564	0.191372	-0.130042	0.003515	-0.091651	-0.465778	0.499373	0.495507	0.536797
54714	9.734756	0.529263	0.204268	-0.122081	0.015494	-0.062191	-0.466039	0.499158	0.495757	0.536539
54715	9.777475	0.526423	0.193675	-0.127849	0.004959	-0.019972	-0.466319	0.498942	0.496010	0.536262
54716	9.808203	0.576511	0.187377	-0.079435	-0.005164	0.013908	-0.466683	0.498667	0.496265	0.535966
54717	9.779935	0.607110	0.211423	-0.044415	0.016274	-0.011760	-0.467083	0.498349	0.496518	0.535679
54718	9.754013	0.618467	0.228001	-0.028992	0.031111	-0.036520	-0.467477	0.498068	0.496737	0.535394
54719	9.801717	0.566881	0.227737	-0.082094	0.031444	0.007656	-0.467902	0.497745	0.496952	0.535122
54720	9.818682	0.515579	0.246547	-0.132055	0.050843	0.021594	-0.468365	0.497363	0.497239	0.534807
54721	9.821253	0.485973	0.265733	-0.160228	0.068715	0.022627	-0.468849	0.496910	0.497507	0.534555
54722	9.846868	0.482299	0.232458	-0.168520	0.030667	0.047237	-0.469377	0.496323	0.497830	0.534335
54723	9.884630	0.468454	0.232883	-0.187081	0.024821	0.083978	-0.470069	0.495547	0.498237	0.534068
54724	9.865737	0.459151	0.292952	-0.194697	0.076490	0.065857	-0.470931	0.494595	0.498649	0.533806
54725	9.813516	0.469497	0.381004	-0.179573	0.153792	0.016594	-0.471845	0.493586	0.499086	0.533524
54726	9.850742	0.517101	0.374664	-0.138056	0.132412	0.056876	-0.472776	0.492581	0.499459	0.533280
54727	9.956560	0.388151	0.182531	-0.285309	-0.068666	0.148785	-0.473836	0.491431	0.499962	0.532929
54728	10.067797	0.373489	0.164241	-0.312347	-0.104508	0.257988	-0.475023	0.490022	0.500504	0.532661
54729	10.183130	0.547383	0.134221	-0.154513	-0.167468	0.383478	-0.476542	0.488173	0.500949	0.532584
54730	10.229102	0.623391	0.294918	-0.084035	-0.045277	0.439184	-0.478176	0.486203	0.500901	0.532966
54731	10.057197	0.547628	0.559146	-0.147530	0.184644	0.272139	-0.479771	0.484245	0.500620	0.533579
54732	9.768934	0.528841	0.814358	-0.148659	0.409303	-0.005285	-0.481258	0.482268	0.500537	0.534108
54733	9.281702	0.620103	0.602070	-0.039871	0.181221	-0.492683	-0.482301	0.480618	0.500587	0.534608
54734	9.432231	0.710694	0.433104	0.023588	-0.020686	-0.343864	-0.482702	0.479577	0.500535	0.535228
54735	9.426539	0.574275	0.702099	-0.117817	0.235700	-0.346278	-0.483341	0.478363	0.501036	0.535270
54736	9.613513	0.719369	0.628806	-0.000871	0.140813	-0.152839	-0.483940	0.477160	0.501863	0.535028
54737	9.573890	0.618161	0.594044	-0.111507	0.104359	-0.201701	-0.484428	0.476084	0.502589	0.534862
54738	9.532561	0.612221	0.601066	-0.126296	0.109067	-0.243050	-0.484832	0.475057	0.503391	0.534656
54739	9.629790	0.626910	0.572229	-0.131604	0.071709	-0.146724	-0.485354	0.473969	0.504244	0.534342
54740	9.730701	0.635515	0.687475	-0.140286	0.175924	-0.039643	-0.486024	0.472876	0.504893	0.534089
54741	9.755810	0.687923	0.765525	-0.096601	0.244562	-0.006264	-0.486891	0.471825	0.505526	0.533631
54742	9.595511	0.644664	0.806869	-0.129885	0.288173	-0.166935	-0.487814	0.470904	0.506105	0.533053
54743	9.540521	0.715577	0.772847	-0.054699	0.251741	-0.217662	-0.488770	0.470116	0.506625	0.532378
54744	9.518331	0.730122	0.711091	-0.034654	0.187730	-0.241851	-0.489645	0.469593	0.506973	0.531704
54745	9.617004	0.726465	0.681100	-0.039993	0.150375	-0.145516	-0.490422	0.469205	0.507275	0.531041
54746	9.694307	0.628969	0.690310	-0.136827	0.153744	-0.075678	-0.491158	0.468857	0.507543	0.530412
54747	9.717875	0.619936	0.709987	-0.141744	0.170402	-0.051726	-0.491903	0.468452	0.507833	0.529801
54748	9.839893	0.553744	0.713705	-0.211576	0.164826	0.064942	-0.492708	0.467982	0.508187	0.529129
54749	9.845448	0.578391	0.762580	-0.183164	0.210586	0.075236	-0.493585	0.467380	0.508572	0.528474
54750	9.856094	0.624943	0.786338	-0.133905	0.227630	0.090934	-0.494484	0.466713	0.508732	0.528068
54751	9.773332	0.630339	0.834725	-0.119071	0.269190	0.012050	-0.495376	0.466078	0.508629	0.527892
54752	9.777187	0.578187	0.860488	-0.166913	0.280436	0.013889	-0.496207	0.465544	0.508474	0.527732
54753	9.705654	0.554335	0.793112	-0.178487	0.206087	-0.062729	-0.496862	0.465197	0.508338	0.527554
54754	9.642252	0.551264	0.835357	-0.172588	0.244596	-0.123254	-0.497356	0.464972	0.508249	0.527372
54755	9.576383	0.471958	0.697737	-0.239612	0.106991	-0.202909	-0.497622	0.464899	0.508323	0.527114
54756	9.658151	0.483518	0.543318	-0.227922	-0.049344	-0.129998	-0.497733	0.464881	0.508615	0.526743
54757	9.750173	0.609084	0.483633	-0.106349	-0.106409	-0.032702	-0.497744	0.464968	0.508843	0.526436
54758	9.789663	0.668203	0.508511	-0.048729	-0.077725	0.012492	-0.497670	0.465187	0.508843	0.526313
54759	9.853360	0.619618	0.537540	-0.099495	-0.049738	0.074133	-0.497522	0.465510	0.508724	0.526282
54760	9.810432	0.478712	0.427761	-0.231083	-0.155476	0.014782	-0.497380	0.465823	0.508646	0.526214
54761	9.784905	0.394520	0.495364	-0.311455	-0.083569	-0.012616	-0.497220	0.466177	0.508545	0.526149
54762	9.724637	0.313619	0.535460	-0.385224	-0.036059	-0.075956	-0.497102	0.466491	0.508557	0.525970
54763	9.690643	0.270458	0.569122	-0.422944	0.005588	-0.110796	-0.497043	0.466768	0.508687	0.525655
54764	9.705796	0.305528	0.547833	-0.385225	-0.007960	-0.094278	-0.497022	0.466954	0.508940	0.525265
54765	9.697087	0.345971	0.605990	-0.342919	0.060364	-0.096764	-0.496951	0.467183	0.509224	0.524854
54766	9.739587	0.436913	0.625928	-0.252896	0.090925	-0.046931	-0.496902	0.467414	0.509666	0.524264
54767	9.763986	0.480773	0.539932	-0.205994	0.017975	-0.024157	-0.496781	0.467699	0.510098	0.523704
54768	9.669446	0.467159	0.626784	-0.212842	0.123560	-0.114816	-0.496538	0.468078	0.510476	0.523228
54769	9.627527	0.467038	0.620487	-0.207900	0.134851	-0.157069	-0.496190	0.468555	0.510868	0.522748
54770	9.653824	0.484038	0.548669	-0.188698	0.079378	-0.133343	-0.495802	0.469104	0.511271	0.522229
54771	9.762869	0.507452	0.488792	-0.168785	0.032849	-0.025939	-0.495405	0.469654	0.511668	0.521724
54772	9.806310	0.494500	0.487183	-0.182766	0.046519	0.016351	-0.494985	0.470159	0.512048	0.521293
54773	9.823199	0.549332	0.506248	-0.128741	0.082931	0.037684	-0.494503	0.470692	0.512390	0.520935
54774	9.843861	0.607360	0.447373	-0.070294	0.040568	0.059700	-0.493988	0.471246	0.512638	0.520678
54775	9.823504	0.588969	0.410443	-0.086077	0.018162	0.036619	-0.493442	0.471811	0.512739	0.520584
54776	9.811914	0.581640	0.414759	-0.092412	0.034526	0.024703	-0.492883	0.472394	0.512733	0.520591
54777	9.803076	0.562001	0.390106	-0.110385	0.020276	0.013590	-0.492321	0.472992	0.512669	0.520642
54778	9.792929	0.512310	0.462696	-0.160356	0.102324	0.002699	-0.491776	0.473540	0.512652	0.520677
54779	9.777044	0.559861	0.432770	-0.111370	0.083593	-0.011059	-0.491232	0.474069	0.512633	0.520727
54780	9.772884	0.606096	0.412157	-0.064575	0.073019	-0.012842	-0.490656	0.474657	0.512520	0.520846
54781	9.799500	0.538311	0.384596	-0.133126	0.050833	0.008086	-0.490114	0.475223	0.512268	0.521089
54782	9.827918	0.487710	0.409357	-0.185321	0.078638	0.033778	-0.489709	0.475650	0.512039	0.521305
54783	9.830029	0.503952	0.456562	-0.169416	0.129076	0.038532	-0.489349	0.476014	0.511824	0.521522
54784	9.784937	0.473238	0.461660	-0.196795	0.138512	-0.008394	-0.488970	0.476395	0.511637	0.521713
54785	9.773108	0.466201	0.473829	-0.203067	0.154890	-0.020330	-0.488599	0.476748	0.511505	0.521867
54786	9.730479	0.468472	0.479182	-0.198074	0.166155	-0.062587	-0.488240	0.477093	0.511417	0.521974
54787	9.707083	0.470794	0.457460	-0.194212	0.150270	-0.086533	-0.487892	0.477411	0.511377	0.522047
54788	9.709750	0.555551	0.461953	-0.110311	0.160847	-0.078046	-0.487545	0.477726	0.511381	0.522080
54789	9.745651	0.559416	0.457945	-0.109404	0.161731	-0.042209	-0.487165	0.478068	0.511354	0.522148
54790	9.729290	0.547492	0.448594	-0.120412	0.158727	-0.059721	-0.486767	0.478451	0.511285	0.522236
54791	9.762589	0.502400	0.490355	-0.167768	0.205971	-0.028495	-0.486364	0.478862	0.511265	0.522254
54792	9.784710	0.497544	0.401971	-0.173135	0.124589	-0.009413	-0.486012	0.479248	0.511287	0.522206
54793	9.811386	0.497877	0.333487	-0.173781	0.062602	0.015246	-0.485709	0.479568	0.511311	0.522171
54794	9.795004	0.581718	0.364845	-0.088720	0.100233	0.005444	-0.485490	0.479806	0.511323	0.522144
54795	9.771405	0.575889	0.367890	-0.092800	0.108439	-0.018456	-0.485240	0.480043	0.511312	0.522170
54796	9.778823	0.585090	0.304482	-0.084296	0.049487	-0.012133	-0.484951	0.480300	0.511316	0.522197
54797	9.752705	0.539291	0.329643	-0.128712	0.080002	-0.040698	-0.484680	0.480549	0.511300	0.522236
54798	9.759941	0.561126	0.395072	-0.107996	0.149789	-0.030392	-0.484430	0.480762	0.511332	0.522241
54799	9.760125	0.560872	0.390869	-0.108492	0.150234	-0.030405	-0.484191	0.481002	0.511334	0.522240
54800	9.769789	0.542283	0.345414	-0.127663	0.108894	-0.023203	-0.483865	0.481313	0.511236	0.522350
54801	9.767594	0.545626	0.396025	-0.124368	0.163997	-0.024017	-0.483582	0.481570	0.511236	0.522376
54802	9.841308	0.513212	0.283128	-0.162009	0.054194	0.044579	-0.483396	0.481758	0.511279	0.522333
54803	9.836640	0.499662	0.285035	-0.175215	0.059382	0.039021	-0.483225	0.481919	0.511210	0.522410
54804	9.772473	0.485370	0.270548	-0.185455	0.047769	-0.026302	-0.483074	0.482035	0.511147	0.522505
54805	9.765483	0.536160	0.313753	-0.134894	0.091726	-0.028825	-0.482968	0.482098	0.511114	0.522576
54806	9.770330	0.601434	0.318066	-0.070656	0.095658	-0.019420	-0.482889	0.482155	0.511028	0.522681
54807	9.784538	0.579971	0.321535	-0.092991	0.097824	-0.006632	-0.482830	0.482232	0.510877	0.522812
54808	9.727479	0.550077	0.322516	-0.118120	0.099110	-0.065551	-0.482779	0.482338	0.510739	0.522896
54809	9.734635	0.550070	0.288458	-0.117645	0.064283	-0.059179	-0.482700	0.482468	0.510587	0.522997
54810	9.760878	0.586603	0.284768	-0.082235	0.058684	-0.030575	-0.482600	0.482591	0.510387	0.523171
54811	9.775074	0.556821	0.312850	-0.112514	0.084909	-0.017784	-0.482472	0.482713	0.510181	0.523378
54812	9.782145	0.541528	0.328194	-0.127939	0.098206	-0.011396	-0.482379	0.482824	0.509961	0.523575
54813	9.760690	0.523752	0.307349	-0.143775	0.075779	-0.034475	-0.482275	0.482953	0.509723	0.523785
54814	9.779691	0.522827	0.283065	-0.145503	0.049053	-0.016144	-0.482187	0.483071	0.509519	0.523955
54815	9.765468	0.534437	0.307174	-0.132067	0.071825	-0.028938	-0.482096	0.483195	0.509329	0.524109
54816	9.725069	0.524470	0.287983	-0.138755	0.052397	-0.070359	-0.481988	0.483327	0.509139	0.524270
54817	9.722663	0.498858	0.263129	-0.163734	0.026958	-0.075093	-0.481928	0.483418	0.509020	0.524358
54818	9.737065	0.537084	0.250758	-0.126158	0.013175	-0.058423	-0.481879	0.483487	0.508913	0.524443
54819	9.720406	0.516253	0.271238	-0.145096	0.034209	-0.075944	-0.481824	0.483572	0.508867	0.524460
54820	9.749094	0.541823	0.234753	-0.121429	-0.001959	-0.046482	-0.481780	0.483630	0.508903	0.524412
54821	9.751461	0.513414	0.250499	-0.149520	0.016095	-0.045665	-0.481750	0.483675	0.508977	0.524326
54822	9.758650	0.506325	0.237777	-0.156990	0.005296	-0.039281	-0.481760	0.483673	0.509067	0.524231
54823	9.744293	0.458422	0.273941	-0.203532	0.043997	-0.055993	-0.481842	0.483586	0.509240	0.524068
54824	9.763468	0.485944	0.326347	-0.176986	0.097795	-0.033778	-0.481977	0.483464	0.509491	0.523812
54825	9.804000	0.502597	0.321094	-0.163446	0.093932	0.007628	-0.482097	0.483321	0.509751	0.523581
54826	9.780461	0.557693	0.311312	-0.107526	0.086118	-0.012362	-0.482238	0.483157	0.509982	0.523377
54827	9.725836	0.562249	0.311291	-0.100247	0.089043	-0.066563	-0.482308	0.483022	0.510214	0.523211
54828	9.749613	0.568469	0.302280	-0.097227	0.081708	-0.042665	-0.482322	0.482924	0.510432	0.523076
54829	9.759025	0.543560	0.282592	-0.124394	0.064484	-0.035456	-0.482317	0.482856	0.510624	0.522957
54830	9.794850	0.600403	0.290553	-0.071554	0.073544	0.004312	-0.482332	0.482768	0.510806	0.522846
54831	9.785296	0.582514	0.274401	-0.089548	0.059284	-0.006817	-0.482388	0.482713	0.510919	0.522735
54832	9.766347	0.590034	0.276529	-0.080954	0.062674	-0.025161	-0.482424	0.482661	0.510998	0.522672
54833	9.754316	0.523023	0.307444	-0.147139	0.094909	-0.041091	-0.482493	0.482582	0.511117	0.522564
54834	9.775821	0.547226	0.306373	-0.124449	0.094056	-0.018012	-0.482542	0.482551	0.511185	0.522482
54835	9.768570	0.517031	0.261059	-0.154216	0.049214	-0.028300	-0.482550	0.482530	0.511187	0.522492
54836	9.780441	0.507408	0.294464	-0.164862	0.081938	-0.016397	-0.482615	0.482445	0.511238	0.522460
54837	9.856528	0.535829	0.269615	-0.142096	0.054471	0.060904	-0.482772	0.482283	0.511340	0.522365
54838	9.811458	0.581566	0.216139	-0.093571	-0.000272	0.017923	-0.482901	0.482158	0.511306	0.522394
54839	9.678117	0.507726	0.293226	-0.157687	0.076966	-0.118415	-0.483001	0.482077	0.511234	0.522448
54840	9.689962	0.513888	0.280327	-0.152458	0.061450	-0.106452	-0.483111	0.481943	0.511277	0.522428
54841	9.730417	0.538369	0.254858	-0.131076	0.033491	-0.064995	-0.483251	0.481813	0.511336	0.522360
54842	9.768567	0.573896	0.259905	-0.097954	0.036120	-0.024383	-0.483401	0.481690	0.511374	0.522298
54843	9.768450	0.548888	0.333824	-0.122242	0.108844	-0.024504	-0.483516	0.481614	0.511404	0.522232
54844	9.718415	0.504865	0.346790	-0.162148	0.122920	-0.077117	-0.483583	0.481573	0.511476	0.522137
54845	9.737255	0.444276	0.335066	-0.223870	0.112125	-0.062759	-0.483610	0.481529	0.511614	0.522017
54846	9.751677	0.475441	0.344107	-0.194240	0.122460	-0.046064	-0.483696	0.481421	0.511794	0.521861
54847	9.756471	0.480554	0.362713	-0.190040	0.142195	-0.040538	-0.483803	0.481293	0.511974	0.521704
54848	9.744706	0.489728	0.328497	-0.180440	0.110269	-0.052445	-0.483903	0.481184	0.512229	0.521460
54849	9.785323	0.514072	0.298123	-0.159054	0.082296	-0.010972	-0.483996	0.481097	0.512499	0.521189
54850	9.785685	0.573486	0.279489	-0.099650	0.066776	-0.006962	-0.484124	0.480988	0.512726	0.520948
54851	9.802449	0.584279	0.282343	-0.089670	0.070635	0.010554	-0.484254	0.480886	0.512838	0.520811
54852	9.762033	0.566386	0.286077	-0.104186	0.075225	-0.030897	-0.484386	0.480795	0.512914	0.520698
54853	9.809677	0.575060	0.272327	-0.097733	0.060229	0.016934	-0.484503	0.480751	0.512944	0.520600
54854	9.802669	0.579623	0.284291	-0.091295	0.071792	0.010531	-0.484626	0.480711	0.512941	0.520526
54855	9.740959	0.580427	0.322532	-0.084907	0.109925	-0.050110	-0.484759	0.480663	0.512884	0.520502
54856	9.731412	0.560201	0.309952	-0.102880	0.095627	-0.061249	-0.484820	0.480674	0.512789	0.520528
54857	9.754981	0.511415	0.296225	-0.151915	0.080108	-0.041328	-0.484818	0.480725	0.512712	0.520559
54858	9.769232	0.496809	0.275190	-0.166386	0.058157	-0.028548	-0.484829	0.480765	0.512645	0.520577
54859	9.769152	0.479582	0.324459	-0.182789	0.106769	-0.028681	-0.484879	0.480771	0.512609	0.520561
54860	9.750602	0.545971	0.311676	-0.114174	0.094264	-0.042961	-0.484907	0.480798	0.512581	0.520537
54861	9.752959	0.524575	0.305618	-0.134337	0.088194	-0.042172	-0.484923	0.480864	0.512533	0.520509
54862	9.743445	0.504784	0.290619	-0.152327	0.073913	-0.053316	-0.484889	0.480929	0.512513	0.520500
54863	9.760174	0.507022	0.318086	-0.150330	0.101893	-0.035864	-0.484902	0.480991	0.512502	0.520442
54864	9.748407	0.506936	0.308939	-0.148638	0.094087	-0.047806	-0.484883	0.481034	0.512522	0.520400
54865	9.760369	0.504245	0.316517	-0.151367	0.102706	-0.035889	-0.484895	0.481082	0.512548	0.520319
54866	9.765386	0.523624	0.286859	-0.131312	0.074289	-0.030230	-0.484914	0.481105	0.512586	0.520242
54867	9.767598	0.486847	0.328005	-0.167352	0.116424	-0.029589	-0.484969	0.481113	0.512637	0.520133
54868	9.770404	0.525322	0.304584	-0.127601	0.094455	-0.024719	-0.485037	0.481139	0.512697	0.519987
54869	9.775088	0.491741	0.266868	-0.159512	0.057823	-0.023071	-0.485109	0.481158	0.512726	0.519873
54870	9.777508	0.477841	0.235807	-0.171822	0.027647	-0.022216	-0.485160	0.481187	0.512752	0.519773
54871	9.839560	0.501725	0.279946	-0.151107	0.070858	0.042219	-0.485277	0.481119	0.512798	0.519681
54872	9.851756	0.530136	0.193460	-0.122192	-0.016947	0.054447	-0.485452	0.480994	0.512822	0.519610
54873	9.754315	0.528086	0.231519	-0.116963	0.020609	-0.042067	-0.485574	0.480931	0.512719	0.519655
54874	9.721209	0.547641	0.258966	-0.094298	0.046314	-0.073189	-0.485710	0.480857	0.512697	0.519620
54875	9.721265	0.545670	0.261017	-0.094836	0.046722	-0.073196	-0.485857	0.480806	0.512675	0.519551
54876	9.699628	0.511100	0.287819	-0.126457	0.072433	-0.096432	-0.485975	0.480767	0.512643	0.519508
54877	9.735246	0.505115	0.314634	-0.133689	0.097440	-0.060673	-0.486045	0.480752	0.512632	0.519467
54878	9.718683	0.500121	0.286842	-0.136764	0.070249	-0.078133	-0.486072	0.480740	0.512694	0.519393
54879	9.716524	0.519006	0.292706	-0.117593	0.077094	-0.078926	-0.486082	0.480738	0.512732	0.519346
54880	9.735516	0.510264	0.289830	-0.127345	0.074531	-0.060617	-0.486042	0.480792	0.512722	0.519344
54881	9.820720	0.459334	0.238114	-0.183407	0.021341	0.019919	-0.485994	0.480819	0.512723	0.519362
54882	9.844314	0.448567	0.279685	-0.196311	0.062279	0.043658	-0.486029	0.480770	0.512738	0.519361
54883	9.818012	0.447384	0.343091	-0.196514	0.125013	0.018741	-0.486110	0.480674	0.512740	0.519372
54884	9.713724	0.476727	0.318578	-0.160515	0.101452	-0.083908	-0.486196	0.480580	0.512762	0.519357
54885	9.659829	0.548062	0.280769	-0.085203	0.064261	-0.133839	-0.486268	0.480554	0.512754	0.519321
54886	9.676758	0.565998	0.261096	-0.067362	0.044080	-0.116210	-0.486268	0.480604	0.512715	0.519313
54887	9.772015	0.576806	0.256762	-0.061978	0.037923	-0.020567	-0.486268	0.480636	0.512706	0.519293
54888	9.816906	0.545087	0.265664	-0.095864	0.045324	0.022357	-0.486280	0.480669	0.512624	0.519331
54889	9.814247	0.511210	0.265272	-0.128744	0.043970	0.017503	-0.486239	0.480740	0.512522	0.519405
54890	9.759014	0.454556	0.283749	-0.181232	0.062626	-0.040855	-0.486194	0.480813	0.512409	0.519492
54891	9.735205	0.448348	0.292006	-0.185253	0.070685	-0.064807	-0.486182	0.480867	0.512327	0.519534
54892	9.756883	0.471631	0.291971	-0.162640	0.069887	-0.041653	-0.486161	0.480924	0.512264	0.519563
54893	9.749682	0.469430	0.327412	-0.164085	0.105536	-0.048170	-0.486107	0.480990	0.512215	0.519599
54894	9.752055	0.456884	0.296997	-0.176384	0.075331	-0.047303	-0.486095	0.481011	0.512212	0.519595
54895	9.733162	0.464049	0.299454	-0.167720	0.078714	-0.065629	-0.486092	0.481038	0.512213	0.519572
54896	9.730896	0.474708	0.329455	-0.156536	0.109700	-0.066524	-0.486062	0.481105	0.512214	0.519537
54897	9.778688	0.482992	0.314038	-0.150200	0.094790	-0.018654	-0.486069	0.481175	0.512241	0.519439
54898	9.800489	0.505470	0.312054	-0.127609	0.093993	0.004509	-0.486105	0.481225	0.512260	0.519340
54899	9.823900	0.456111	0.295847	-0.176715	0.078501	0.024344	-0.486152	0.481260	0.512308	0.519217
54900	9.841224	0.488909	0.226331	-0.143037	0.010154	0.042230	-0.486235	0.481269	0.512357	0.519081
54901	9.789504	0.523456	0.229001	-0.103213	0.014687	-0.007078	-0.486371	0.481258	0.512369	0.518953
54902	9.768145	0.524676	0.310132	-0.098643	0.096795	-0.026523	-0.486523	0.481252	0.512429	0.518757
54903	9.787417	0.521298	0.282266	-0.100473	0.070183	-0.008100	-0.486547	0.481358	0.512444	0.518621
54904	9.770123	0.433881	0.164876	-0.183691	-0.045776	-0.033377	-0.486572	0.481423	0.512420	0.518560
54905	9.737139	0.453199	0.190691	-0.161028	-0.020097	-0.064493	-0.486715	0.481349	0.512360	0.518554
54906	9.821020	0.509059	0.213967	-0.109390	-0.002055	0.023236	-0.486889	0.481243	0.512222	0.518626
54907	9.847826	0.552268	0.190752	-0.066237	-0.031643	0.052183	-0.487048	0.481176	0.511926	0.518830
54908	9.719927	0.449086	0.333223	-0.160676	0.106346	-0.078594	-0.487154	0.481130	0.511641	0.519055
54909	9.662862	0.463883	0.370051	-0.141496	0.139687	-0.133664	-0.487281	0.481061	0.511539	0.519100
54910	9.651675	0.516239	0.372328	-0.087754	0.140099	-0.141461	-0.487314	0.481050	0.511473	0.519145
54911	9.686673	0.466878	0.366810	-0.139037	0.132823	-0.109740	-0.487272	0.481079	0.511457	0.519174
54912	9.702084	0.403007	0.434905	-0.204959	0.200844	-0.096739	-0.487189	0.481096	0.511490	0.519203
54913	9.702569	0.419616	0.384766	-0.189600	0.153064	-0.096485	-0.487071	0.481118	0.511649	0.519137
54914	9.722244	0.465268	0.386348	-0.147337	0.158788	-0.074061	-0.486942	0.481131	0.511899	0.518999
54915	9.775219	0.497454	0.338374	-0.120384	0.115117	-0.020388	-0.486822	0.481147	0.512162	0.518837
54916	9.832048	0.474588	0.326345	-0.148620	0.106719	0.034517	-0.486742	0.481136	0.512400	0.518687
54917	9.831612	0.431401	0.290999	-0.193230	0.074754	0.030506	-0.486708	0.481082	0.512589	0.518583
54918	9.838187	0.381715	0.246519	-0.244811	0.031674	0.032894	-0.486725	0.480955	0.512758	0.518517
54919	9.843023	0.396544	0.242858	-0.232680	0.027376	0.038528	-0.486839	0.480705	0.512892	0.518510
54920	9.796421	0.493271	0.276014	-0.136038	0.059590	-0.001096	-0.486969	0.480443	0.512979	0.518544
54921	9.760529	0.491684	0.278568	-0.137733	0.059331	-0.036963	-0.487119	0.480177	0.513039	0.518591
54922	9.745938	0.469726	0.248356	-0.160404	0.025626	-0.053628	-0.487274	0.479930	0.513098	0.518615
54923	9.771597	0.448259	0.263410	-0.185100	0.036068	-0.029085	-0.487479	0.479663	0.513145	0.518623
54924	9.764105	0.447979	0.303290	-0.186544	0.071730	-0.035650	-0.487674	0.479402	0.513167	0.518660
54925	9.761753	0.468364	0.314040	-0.167409	0.078629	-0.036410	-0.487841	0.479174	0.513200	0.518680
54926	9.749548	0.462561	0.333569	-0.173628	0.094861	-0.048478	-0.488036	0.478939	0.513257	0.518657
54927	9.768365	0.454652	0.334291	-0.183389	0.092302	-0.030190	-0.488212	0.478739	0.513344	0.518591
54928	9.780081	0.453263	0.345510	-0.186173	0.100957	-0.018304	-0.488412	0.478518	0.513434	0.518516
54929	9.790151	0.486789	0.314191	-0.153391	0.067855	-0.006842	-0.488595	0.478316	0.513560	0.518406
54930	9.745102	0.509488	0.331754	-0.128430	0.085271	-0.049855	-0.488748	0.478151	0.513627	0.518347
54931	9.735436	0.490734	0.319221	-0.146399	0.070960	-0.061023	-0.488891	0.478018	0.513663	0.518300
54932	9.744445	0.456139	0.328094	-0.181537	0.077862	-0.054055	-0.489003	0.477908	0.513729	0.518231
54933	9.761177	0.467309	0.332941	-0.171672	0.081856	-0.036510	-0.489129	0.477772	0.513843	0.518123
54934	9.773540	0.517915	0.349968	-0.122448	0.098772	-0.020443	-0.489239	0.477654	0.513925	0.518047
54935	9.752097	0.500726	0.328059	-0.138069	0.076215	-0.043507	-0.489341	0.477540	0.513967	0.518014
54936	9.752057	0.500546	0.329520	-0.138556	0.076621	-0.043517	-0.489404	0.477460	0.514004	0.517991
54937	9.749548	0.512520	0.360757	-0.127358	0.107602	-0.044437	-0.489503	0.477342	0.514107	0.517905
54938	9.756676	0.505566	0.350517	-0.134897	0.096808	-0.038046	-0.489564	0.477273	0.514158	0.517860
54939	9.759171	0.492966	0.320692	-0.147139	0.066649	-0.037147	-0.489569	0.477274	0.514160	0.517852
54940	9.799530	0.501216	0.341762	-0.141816	0.087102	0.004191	-0.489610	0.477238	0.514227	0.517781
54941	9.874314	0.517981	0.242468	-0.128007	-0.014055	0.077338	-0.489758	0.477112	0.514297	0.517687
54942	9.815006	0.553457	0.282504	-0.089000	0.025676	0.021532	-0.489881	0.477012	0.514200	0.517760
54943	9.687444	0.438193	0.293505	-0.195607	0.034673	-0.112932	-0.489950	0.476952	0.514082	0.517867
54944	9.689824	0.462737	0.322079	-0.171743	0.061009	-0.108187	-0.490008	0.476883	0.514062	0.517895
54945	9.749969	0.522617	0.326087	-0.115773	0.062726	-0.044165	-0.490086	0.476835	0.514036	0.517890
54946	9.747461	0.533475	0.357934	-0.104493	0.093750	-0.045088	-0.490127	0.476848	0.513988	0.517888
54947	9.754324	0.517647	0.371967	-0.119958	0.107121	-0.038881	-0.490142	0.476891	0.513963	0.517859
54948	9.780823	0.508951	0.334660	-0.128821	0.069403	-0.014008	-0.490136	0.476930	0.513955	0.517837
54949	9.752344	0.497880	0.322045	-0.137479	0.058082	-0.043473	-0.490133	0.476937	0.513986	0.517802
54950	9.740599	0.498812	0.313147	-0.135758	0.050310	-0.055373	-0.490139	0.476916	0.514047	0.517756
54951	9.735666	0.485589	0.317023	-0.148941	0.055486	-0.061060	-0.490134	0.476913	0.514148	0.517663
54952	9.779204	0.534098	0.313598	-0.103338	0.053661	-0.014582	-0.490131	0.476922	0.514245	0.517561
54953	9.779623	0.540901	0.288188	-0.095987	0.030066	-0.014395	-0.490129	0.476938	0.514292	0.517501
54954	9.791112	0.531283	0.320662	-0.106683	0.062861	-0.002711	-0.490119	0.476957	0.514296	0.517489
54955	9.774721	0.526516	0.293089	-0.109740	0.035646	-0.020090	-0.490152	0.476933	0.514294	0.517482
54956	9.760811	0.546728	0.290986	-0.088266	0.034283	-0.032705	-0.490166	0.476944	0.514311	0.517442
54957	9.753413	0.507742	0.270110	-0.125876	0.013616	-0.043154	-0.490201	0.476934	0.514356	0.517373
54958	9.797782	0.431196	0.247844	-0.204012	-0.011050	-0.004418	-0.490327	0.476856	0.514406	0.517276
54959	9.794932	0.434692	0.303884	-0.200588	0.044070	-0.005556	-0.490489	0.476727	0.514452	0.517195
54960	9.730685	0.457370	0.346738	-0.174087	0.088436	-0.067046	-0.490613	0.476637	0.514555	0.517058
54961	9.715025	0.504531	0.325601	-0.125120	0.069361	-0.080174	-0.490701	0.476577	0.514676	0.516910
54962	9.707966	0.510367	0.335461	-0.118614	0.080972	-0.086589	-0.490763	0.476537	0.514796	0.516768
54963	9.736944	0.527217	0.322589	-0.103190	0.069100	-0.056937	-0.490806	0.476501	0.514896	0.516660
54964	9.727017	0.500849	0.331388	-0.129012	0.078937	-0.068323	-0.490822	0.476482	0.514976	0.516582
54965	9.760621	0.486284	0.281726	-0.144985	0.030135	-0.037022	-0.490792	0.476483	0.515114	0.516473
54966	9.782082	0.503654	0.302768	-0.130314	0.053517	-0.013983	-0.490790	0.476430	0.515288	0.516351
54967	9.778195	0.550735	0.288227	-0.083621	0.042711	-0.015205	-0.490753	0.476443	0.515420	0.516242
54968	9.721566	0.612685	0.348012	-0.019963	0.108132	-0.066239	-0.490636	0.476535	0.515486	0.516203
54969	9.749869	0.577672	0.326040	-0.056553	0.088185	-0.040842	-0.490445	0.476723	0.515499	0.516196
54970	9.774126	0.552101	0.236146	-0.082160	0.000584	-0.020478	-0.490249	0.476877	0.515502	0.516238
54971	9.742414	0.502428	0.244819	-0.131022	0.011577	-0.055141	-0.490057	0.476991	0.515499	0.516318
54972	9.713235	0.478185	0.278992	-0.155416	0.048445	-0.085049	-0.489872	0.477108	0.515526	0.516359
54973	9.698485	0.477471	0.345504	-0.157621	0.119402	-0.098324	-0.489654	0.477281	0.515640	0.516292
54974	9.743594	0.454442	0.324977	-0.183826	0.102969	-0.055364	-0.489406	0.477501	0.515715	0.516249
54975	9.755296	0.445459	0.352919	-0.194443	0.135853	-0.043730	-0.489158	0.477737	0.515742	0.516238
54976	9.784003	0.485574	0.440281	-0.158395	0.228562	-0.010697	-0.488986	0.477876	0.515895	0.516120
54977	9.821677	0.540594	0.267310	-0.102815	0.060873	0.026762	-0.488857	0.478027	0.515972	0.516026
54978	9.813973	0.494203	0.268397	-0.148320	0.064392	0.016056	-0.488682	0.478215	0.515879	0.516110
54979	9.760835	0.426126	0.254657	-0.212293	0.052520	-0.041684	-0.488564	0.478344	0.515857	0.516123
54980	9.718854	0.481499	0.269742	-0.154798	0.071537	-0.079669	-0.488452	0.478423	0.515889	0.516123
54981	9.700233	0.497255	0.245757	-0.138183	0.050732	-0.097725	-0.488322	0.478511	0.515954	0.516101
54982	9.752568	0.504765	0.272018	-0.135106	0.079572	-0.044536	-0.488163	0.478654	0.516027	0.516046
54983	9.806855	0.484771	0.315727	-0.159575	0.126137	0.009111	-0.488034	0.478779	0.516130	0.515949
54984	9.809086	0.464461	0.306742	-0.179791	0.120233	0.009797	-0.488016	0.478809	0.516223	0.515845
54985	9.722476	0.403228	0.365533	-0.236013	0.181742	-0.079548	-0.488066	0.478783	0.516333	0.515711
54986	9.710971	0.410892	0.330652	-0.226492	0.149794	-0.091196	-0.488148	0.478743	0.516550	0.515455
54987	9.763834	0.431755	0.308253	-0.207841	0.130376	-0.037531	-0.488292	0.478661	0.516820	0.515123
54988	9.802958	0.480859	0.259284	-0.159361	0.084936	0.003821	-0.488475	0.478538	0.517086	0.514797
54989	9.863633	0.547083	0.234414	-0.095699	0.062404	0.068226	-0.488721	0.478344	0.517341	0.514487
54990	9.816358	0.551227	0.200123	-0.087170	0.029707	0.020741	-0.488915	0.478165	0.517499	0.514311
54991	9.769425	0.593843	0.223170	-0.042327	0.053330	-0.022923	-0.489108	0.477938	0.517604	0.514232
54992	9.748384	0.621686	0.234517	-0.013846	0.062953	-0.041898	-0.489294	0.477741	0.517627	0.514216
54993	9.734800	0.679871	0.291063	0.043938	0.117856	-0.050646	-0.489389	0.477670	0.517535	0.514283
54994	9.710458	0.659308	0.350333	0.024383	0.174086	-0.075156	-0.489413	0.477700	0.517368	0.514401
54995	9.697849	0.606465	0.337284	-0.025915	0.158195	-0.091363	-0.489350	0.477838	0.517182	0.514519
54996	9.713926	0.563637	0.334771	-0.068148	0.154174	-0.078125	-0.489210	0.478052	0.517007	0.514630
54997	9.787756	0.555872	0.307208	-0.078558	0.125587	-0.005466	-0.489045	0.478291	0.516813	0.514760
54998	9.787627	0.546553	0.331614	-0.086976	0.150139	-0.005740	-0.488874	0.478525	0.516598	0.514920
54999	9.738133	0.562557	0.327723	-0.066643	0.147940	-0.054164	-0.488669	0.478776	0.516396	0.515084
55000	9.746507	0.482255	0.302762	-0.146027	0.122909	-0.051427	-0.488426	0.479046	0.516256	0.515203
55001	9.772551	0.466440	0.287431	-0.162984	0.109393	-0.026759	-0.488206	0.479252	0.516202	0.515274
55002	9.812884	0.444970	0.226355	-0.186388	0.049515	0.010995	-0.488027	0.479397	0.516150	0.515362
55003	9.788795	0.433110	0.257008	-0.198048	0.081660	-0.013286	-0.487896	0.479469	0.516115	0.515454
55004	9.729188	0.425956	0.262618	-0.202890	0.088917	-0.073158	-0.487806	0.479465	0.516149	0.515508
55005	9.755308	0.419700	0.224184	-0.212039	0.051306	-0.048219	-0.487715	0.479451	0.516271	0.515486
55006	9.819623	0.434549	0.236625	-0.203465	0.064315	0.017078	-0.487688	0.479385	0.516378	0.515465
55007	9.827261	0.473805	0.257253	-0.166841	0.085745	0.027564	-0.487725	0.479265	0.516481	0.515439
55008	9.791501	0.471379	0.256501	-0.168473	0.085427	-0.008311	-0.487771	0.479149	0.516585	0.515398
55009	9.739784	0.509401	0.259268	-0.128285	0.089524	-0.057400	-0.487831	0.479042	0.516669	0.515356
55010	9.747442	0.547633	0.280406	-0.091758	0.110951	-0.046909	-0.487824	0.479025	0.516681	0.515367
55011	9.766542	0.546471	0.254721	-0.093922	0.084449	-0.028368	-0.487775	0.479072	0.516594	0.515457
55012	9.781067	0.569555	0.290063	-0.072181	0.118901	-0.011746	-0.487692	0.479178	0.516440	0.515592
55013	9.821778	0.584554	0.288250	-0.059091	0.115289	0.029840	-0.487610	0.479308	0.516245	0.515744
55014	9.879151	0.580540	0.211485	-0.064323	0.034927	0.085495	-0.487489	0.479501	0.515886	0.516038
55015	9.739387	0.466168	0.215702	-0.168089	0.035853	-0.061279	-0.487319	0.479738	0.515412	0.516451
55016	9.745219	0.529735	0.223256	-0.104055	0.039444	-0.051163	-0.487162	0.479935	0.515000	0.516827
55017	9.738373	0.542665	0.214922	-0.089747	0.026836	-0.057289	-0.486957	0.480178	0.514532	0.517261
55018	9.762232	0.545935	0.212969	-0.087051	0.019672	-0.033290	-0.486738	0.480448	0.514037	0.517708
55019	9.780514	0.491421	0.184069	-0.141153	-0.014765	-0.019135	-0.486533	0.480713	0.513550	0.518138
55020	9.781959	0.454821	0.231388	-0.176942	0.027667	-0.019064	-0.486337	0.480973	0.513070	0.518556
55021	9.732035	0.463364	0.256739	-0.164254	0.049490	-0.067756	-0.486160	0.481195	0.512618	0.518963
55022	9.755886	0.466825	0.254116	-0.161564	0.042387	-0.043761	-0.486013	0.481362	0.512287	0.519272
55023	9.772306	0.469608	0.286106	-0.159556	0.070525	-0.026477	-0.485944	0.481448	0.512019	0.519522
55024	9.735286	0.405666	0.305117	-0.220857	0.086462	-0.067063	-0.485932	0.481457	0.511820	0.519721
55025	9.740226	0.418218	0.303863	-0.208759	0.082120	-0.061333	-0.485982	0.481392	0.511767	0.519785
55026	9.748132	0.463741	0.303460	-0.164372	0.079350	-0.050520	-0.486022	0.481311	0.511724	0.519866
55027	9.715665	0.501326	0.281442	-0.125839	0.056491	-0.081004	-0.486033	0.481221	0.511752	0.519911
55028	9.728967	0.568440	0.250797	-0.061077	0.024854	-0.064125	-0.486021	0.481150	0.511785	0.519956
55029	9.724720	0.608865	0.263826	-0.022214	0.037965	-0.065454	-0.485961	0.481116	0.511836	0.519993
55030	9.691163	0.624158	0.311398	-0.006885	0.087492	-0.096851	-0.485802	0.481165	0.511885	0.520047
55031	9.657530	0.602710	0.301352	-0.028093	0.080756	-0.132055	-0.485555	0.481303	0.511923	0.520114
55032	9.751148	0.511225	0.278452	-0.127600	0.059375	-0.045192	-0.485237	0.481492	0.511963	0.520197
55033	9.763521	0.424475	0.317004	-0.217616	0.102217	-0.037760	-0.484919	0.481663	0.512049	0.520250
55034	9.798760	0.385554	0.282010	-0.261495	0.071356	-0.006036	-0.484690	0.481739	0.512220	0.520225
55035	9.810902	0.393903	0.262337	-0.256482	0.055962	0.006114	-0.484551	0.481757	0.512407	0.520154
55036	9.782546	0.422121	0.302549	-0.228477	0.100736	-0.019548	-0.484476	0.481756	0.512597	0.520037
55037	9.787621	0.435771	0.294509	-0.216291	0.096335	-0.013805	-0.484471	0.481723	0.512819	0.519854
55038	9.746195	0.367525	0.286630	-0.282399	0.092876	-0.059884	-0.484534	0.481630	0.513100	0.519602
55039	9.756289	0.393740	0.273450	-0.257728	0.083739	-0.048388	-0.484643	0.481472	0.513492	0.519261
55040	9.754548	0.421787	0.251645	-0.230727	0.066327	-0.048733	-0.484781	0.481267	0.513886	0.518933
55041	9.769886	0.498093	0.290181	-0.156889	0.108692	-0.027671	-0.484958	0.481068	0.514259	0.518582
55042	9.803854	0.528452	0.270725	-0.128989	0.092038	0.007853	-0.485175	0.480861	0.514607	0.518226
55043	9.783506	0.570690	0.228180	-0.084898	0.053196	-0.010406	-0.485411	0.480653	0.514956	0.517851
55044	9.788358	0.575159	0.245247	-0.080604	0.072991	-0.004983	-0.485631	0.480455	0.515271	0.517514
55045	9.788779	0.611812	0.299532	-0.044621	0.129574	-0.001192	-0.485822	0.480261	0.515521	0.517268
55046	9.767861	0.639575	0.306801	-0.016059	0.139029	-0.020103	-0.485924	0.480126	0.515731	0.517086
55047	9.736969	0.641346	0.323658	-0.012660	0.157997	-0.050540	-0.485969	0.480098	0.515827	0.516974
55048	9.784433	0.612816	0.252798	-0.043338	0.087170	-0.006307	-0.485956	0.480099	0.515874	0.516939
55049	9.832587	0.659191	0.294271	-0.000867	0.128654	0.045525	-0.485945	0.480117	0.515841	0.516965
55050	9.866627	0.666254	0.175106	0.005887	0.007475	0.077954	-0.485964	0.480135	0.515692	0.517080
55051	9.796501	0.616463	0.243212	-0.039371	0.072469	0.005857	-0.485878	0.480245	0.515347	0.517402
55052	9.719178	0.543569	0.242588	-0.106380	0.068259	-0.076119	-0.485767	0.480382	0.515033	0.517692
55053	9.694956	0.530463	0.277695	-0.117768	0.100338	-0.100492	-0.485647	0.480510	0.514758	0.517959
55054	9.713766	0.521586	0.279275	-0.127579	0.097970	-0.082249	-0.485532	0.480632	0.514439	0.518271
55055	9.715735	0.501363	0.277799	-0.147716	0.092063	-0.081616	-0.485429	0.480731	0.514116	0.518594
55056	9.707694	0.455344	0.285044	-0.193133	0.095774	-0.092531	-0.485290	0.480869	0.513865	0.518846
55057	9.754921	0.419341	0.241494	-0.231724	0.049218	-0.048644	-0.485205	0.480965	0.513699	0.519000
55058	9.769415	0.412559	0.197762	-0.238768	0.003265	-0.035481	-0.485198	0.480989	0.513558	0.519125
55059	9.793632	0.424066	0.169275	-0.228421	-0.027992	-0.011118	-0.485260	0.480943	0.513479	0.519189
55060	9.795874	0.440576	0.222804	-0.212000	0.022244	-0.006696	-0.485414	0.480819	0.513390	0.519247
55061	9.746254	0.457430	0.223544	-0.191401	0.019738	-0.055042	-0.485614	0.480640	0.513332	0.519282
55062	9.728396	0.487563	0.157723	-0.159465	-0.049748	-0.072237	-0.485852	0.480407	0.513363	0.519246
55063	9.769599	0.547627	0.190537	-0.102145	-0.021447	-0.026454	-0.486080	0.480210	0.513342	0.519234
55064	9.761144	0.588155	0.163933	-0.060373	-0.052092	-0.032791	-0.486297	0.480017	0.513280	0.519271
55065	9.737256	0.619715	0.231708	-0.027283	0.011829	-0.053025	-0.486407	0.479940	0.513141	0.519377
55066	9.730087	0.625635	0.246556	-0.020613	0.023268	-0.059440	-0.486405	0.479953	0.512976	0.519530
55067	9.782976	0.647132	0.231226	-0.002271	0.003830	-0.005606	-0.486393	0.479980	0.512803	0.519687
55068	9.754825	0.680883	0.254766	0.033572	0.024227	-0.030898	-0.486345	0.480053	0.512484	0.519979
55069	9.734529	0.628265	0.279089	-0.017197	0.043726	-0.054027	-0.486231	0.480188	0.512110	0.520330
55070	9.766283	0.545941	0.276231	-0.101213	0.035774	-0.027846	-0.486032	0.480376	0.511777	0.520669
55071	9.791848	0.485630	0.234542	-0.162716	-0.009516	-0.007353	-0.485877	0.480546	0.511486	0.520943
55072	9.786735	0.471809	0.243184	-0.175790	-0.004352	-0.013147	-0.485830	0.480612	0.511186	0.521220
55073	9.759016	0.512622	0.243918	-0.132233	-0.008188	-0.038071	-0.485879	0.480639	0.510856	0.521473
55074	9.749198	0.529694	0.291110	-0.113501	0.033639	-0.045489	-0.485898	0.480664	0.510567	0.521715
55075	9.783517	0.435022	0.258578	-0.209671	-0.004647	-0.018336	-0.485923	0.480641	0.510364	0.521912
55076	9.778856	0.429371	0.243898	-0.215138	-0.023611	-0.023763	-0.486064	0.480476	0.510303	0.521993
55077	9.728236	0.482015	0.202160	-0.159477	-0.068273	-0.071964	-0.486307	0.480224	0.510326	0.521974
55078	9.724858	0.572943	0.227253	-0.068469	-0.047728	-0.068673	-0.486621	0.479932	0.510347	0.521930
55079	9.759305	0.646690	0.248025	0.003676	-0.032668	-0.028891	-0.486925	0.479702	0.510339	0.521867
55080	9.794399	0.640595	0.278777	-0.003635	-0.007296	0.006593	-0.487246	0.479436	0.510379	0.521771
55081	9.803040	0.605095	0.291169	-0.038732	0.000047	0.013248	-0.487532	0.479198	0.510342	0.521760
55082	9.722287	0.542216	0.222843	-0.095306	-0.071826	-0.073474	-0.487778	0.478964	0.510245	0.521840
55083	9.721621	0.573933	0.407465	-0.064956	0.107001	-0.066423	-0.488060	0.478635	0.510286	0.521837
55084	9.721882	0.624308	0.321215	-0.015114	0.016843	-0.065513	-0.488320	0.478329	0.510427	0.521737
55085	9.769993	0.678939	0.342505	0.034985	0.034103	-0.013267	-0.488459	0.478129	0.510481	0.521738
55086	9.675219	0.634075	0.391064	-0.005396	0.082457	-0.109182	-0.488506	0.477987	0.510450	0.521854
55087	9.685256	0.661395	0.383723	0.019195	0.073244	-0.097589	-0.488428	0.477938	0.510486	0.521936
55088	9.720573	0.621595	0.355261	-0.024902	0.042667	-0.065909	-0.488292	0.477954	0.510403	0.522130
55089	9.787939	0.544811	0.351823	-0.108077	0.035713	-0.003946	-0.488138	0.477995	0.510336	0.522302
55090	9.812445	0.471580	0.356505	-0.184915	0.038962	0.015733	-0.488003	0.478016	0.510310	0.522435
55091	9.773035	0.429364	0.378225	-0.226202	0.061357	-0.025722	-0.487944	0.478010	0.510272	0.522532
55092	9.718401	0.434643	0.379214	-0.218085	0.063586	-0.079834	-0.487969	0.477964	0.510304	0.522520
55093	9.740967	0.466102	0.354493	-0.188147	0.038551	-0.056024	-0.488001	0.477948	0.510358	0.522451
55094	9.832129	0.515442	0.363999	-0.144472	0.045642	0.038504	-0.488099	0.477905	0.510398	0.522361
55095	9.862945	0.548478	0.403344	-0.112263	0.083539	0.072737	-0.488252	0.477860	0.510390	0.522266
55096	9.822924	0.536741	0.384001	-0.118587	0.063751	0.031461	-0.488511	0.477771	0.510356	0.522139
55097	9.794755	0.567679	0.406032	-0.082659	0.084071	0.006195	-0.488834	0.477635	0.510330	0.521987
55098	9.833783	0.685984	0.378318	0.037012	0.052131	0.052042	-0.489231	0.477477	0.510271	0.521816
55099	9.865904	0.854838	0.395391	0.208319	0.063028	0.095681	-0.489678	0.477322	0.510004	0.521801
55100	9.870204	0.809147	0.394005	0.168242	0.051027	0.096902	-0.490054	0.477246	0.509480	0.522028
55101	9.759716	0.597963	0.542772	-0.031700	0.190660	-0.021525	-0.490353	0.477148	0.509009	0.522296
55102	9.688678	0.551041	0.492368	-0.070774	0.133409	-0.097043	-0.490614	0.476970	0.508809	0.522408
55103	9.682791	0.571397	0.462236	-0.048887	0.096467	-0.102646	-0.490798	0.476792	0.508619	0.522583
55104	9.605703	0.631176	0.458866	0.015810	0.089579	-0.175769	-0.490944	0.476642	0.508420	0.522777
55105	9.484102	0.555464	0.489819	-0.052255	0.119874	-0.300613	-0.490984	0.476603	0.508291	0.522901
55106	9.393807	0.355884	0.575363	-0.246394	0.208509	-0.400084	-0.490829	0.476753	0.508395	0.522808
55107	9.432966	0.347478	0.538140	-0.258298	0.179400	-0.363229	-0.490415	0.477041	0.508888	0.522454
55108	9.680297	0.415940	0.427872	-0.207910	0.076002	-0.116543	-0.489869	0.477401	0.509388	0.522150
55109	9.833076	0.449757	0.436566	-0.187793	0.094563	0.038101	-0.489360	0.477718	0.509768	0.521966
55110	9.867976	0.357777	0.387280	-0.284096	0.056579	0.065117	-0.488859	0.478137	0.509979	0.521845
55111	9.813780	0.321820	0.441635	-0.318551	0.125235	0.010332	-0.488354	0.478547	0.510241	0.521687
55112	9.781068	0.263365	0.364344	-0.376551	0.062656	-0.028738	-0.487790	0.478966	0.510574	0.521505
55113	9.908569	0.276989	0.428774	-0.374642	0.137117	0.100997	-0.487448	0.479151	0.511045	0.521193
55114	10.002342	0.308899	0.420308	-0.350760	0.138063	0.196149	-0.487281	0.479299	0.511450	0.520815
55115	9.893994	0.242146	0.300608	-0.407712	0.030117	0.080389	-0.487381	0.479415	0.511705	0.520364
55116	9.638663	0.356260	0.386533	-0.273232	0.130680	-0.164453	-0.487496	0.479590	0.511906	0.519898
55117	9.759946	0.430754	0.229127	-0.200773	-0.021013	-0.042640	-0.487596	0.479714	0.512281	0.519319
55118	10.044406	0.479318	0.218953	-0.167628	-0.031410	0.244086	-0.487753	0.479638	0.512538	0.518989
55119	10.004004	0.381969	0.232545	-0.260902	-0.016521	0.197893	-0.487977	0.479481	0.512619	0.518843
55120	9.688985	0.416584	0.221368	-0.203933	-0.021407	-0.114392	-0.488230	0.479394	0.512581	0.518723
55121	9.474592	0.473910	0.201728	-0.129779	-0.036819	-0.325065	-0.488368	0.479425	0.512494	0.518651
55122	9.602522	0.660323	0.086066	0.051688	-0.154103	-0.188476	-0.488156	0.479718	0.512266	0.518804
55123	9.939404	0.762770	0.143976	0.132674	-0.104051	0.155556	-0.487800	0.480062	0.511899	0.519183
55124	9.999442	0.482209	0.265542	-0.152485	0.011986	0.200727	-0.487432	0.480406	0.511426	0.519677
55125	9.889602	0.280134	0.283481	-0.346505	0.029427	0.078831	-0.487218	0.480710	0.511037	0.519979
55126	9.657510	0.226608	0.442281	-0.382784	0.191758	-0.151881	-0.487144	0.481034	0.510574	0.520203
55127	9.540606	0.305669	0.593010	-0.292430	0.342792	-0.259403	-0.487087	0.481318	0.510131	0.520429
55128	9.655310	0.428238	0.611624	-0.174003	0.356205	-0.136670	-0.487042	0.481453	0.509914	0.520558
55129	9.892054	0.518668	0.533913	-0.097029	0.270215	0.103178	-0.487147	0.481366	0.509866	0.520588
55130	9.860674	0.598605	0.545150	-0.013955	0.278632	0.077235	-0.487381	0.481262	0.509722	0.520605
55131	9.850876	0.656332	0.524171	0.047381	0.254050	0.070556	-0.487586	0.481250	0.509581	0.520563
55132	9.905354	0.805775	0.508770	0.196931	0.231727	0.133753	-0.487600	0.481403	0.509039	0.520938
55133	9.953085	0.854337	0.442947	0.244981	0.150793	0.182672	-0.487478	0.481538	0.507986	0.521955
55134	9.921017	0.820247	0.426973	0.211700	0.113781	0.148431	-0.487306	0.481495	0.506827	0.523280
55135	9.911411	0.662513	0.411867	0.049969	0.072360	0.128983	-0.487096	0.481330	0.505504	0.524904
55136	9.813495	0.445376	0.356277	-0.168021	-0.006123	0.015926	-0.486864	0.481118	0.504364	0.526409
55137	9.793335	0.540401	0.372584	-0.079653	-0.013576	0.002286	-0.486689	0.480852	0.503545	0.527595
55138	9.735337	0.607326	0.357428	-0.016758	-0.047527	-0.052011	-0.486465	0.480678	0.502704	0.528761
55139	9.694355	0.648940	0.387174	0.021510	-0.035674	-0.089016	-0.486161	0.480660	0.501781	0.529933
55140	9.636731	0.642101	0.452209	0.014596	0.014948	-0.144031	-0.485795	0.480771	0.500866	0.531033
55141	9.545849	0.567181	0.471903	-0.057248	0.026718	-0.238576	-0.485239	0.481119	0.499939	0.532099
55142	9.490098	0.441665	0.479785	-0.180430	0.031993	-0.301976	-0.484552	0.481711	0.499087	0.532988
55143	9.526036	0.356479	0.419648	-0.269249	-0.029970	-0.274598	-0.483768	0.482475	0.498306	0.533739
55144	9.588081	0.343723	0.408187	-0.285800	-0.042188	-0.214114	-0.483034	0.483206	0.497743	0.534268
55145	9.642838	0.337824	0.404828	-0.295031	-0.043354	-0.160050	-0.482219	0.483980	0.497235	0.534776
55146	9.667189	0.378769	0.350541	-0.257621	-0.092569	-0.135604	-0.481414	0.484736	0.496957	0.535075
55147	9.735647	0.396506	0.376727	-0.244370	-0.059807	-0.064936	-0.480600	0.485458	0.496798	0.535300
55148	9.752998	0.321812	0.302911	-0.323693	-0.119089	-0.055777	-0.479920	0.486060	0.496888	0.535280
55149	9.768250	0.273705	0.309186	-0.373565	-0.098226	-0.043347	-0.479464	0.486448	0.497172	0.535073
55150	9.863726	0.279325	0.221565	-0.379226	-0.177203	0.048599	-0.479254	0.486538	0.497700	0.534688
55151	9.916955	0.224084	0.300719	-0.438455	-0.087626	0.101278	-0.479241	0.486338	0.498371	0.534256
55152	9.825609	0.258399	0.272396	-0.403532	-0.104490	0.011252	-0.479445	0.485905	0.499305	0.533595
55153	9.749307	0.374540	0.362061	-0.284398	-0.006089	-0.053618	-0.479894	0.485258	0.500522	0.532639
55154	9.667986	0.433776	0.421161	-0.222286	0.065495	-0.128588	-0.480384	0.484623	0.501796	0.531575
55155	9.610095	0.445422	0.462287	-0.209274	0.122255	-0.184225	-0.480858	0.484040	0.503204	0.530346
55156	9.629870	0.528612	0.508563	-0.130192	0.183426	-0.157542	-0.481230	0.483550	0.504698	0.529034
55157	9.653479	0.609122	0.496494	-0.055824	0.190031	-0.129304	-0.481482	0.483130	0.506254	0.527700
55158	9.696632	0.689917	0.456038	0.016568	0.169804	-0.082349	-0.481628	0.482791	0.507743	0.526445
55159	9.735733	0.772862	0.371946	0.091361	0.106005	-0.040250	-0.481782	0.482486	0.509106	0.525266
55160	9.742697	0.797360	0.421057	0.113066	0.175586	-0.030582	-0.481832	0.482381	0.510204	0.524250
55161	9.819540	0.773070	0.368105	0.081940	0.141508	0.042755	-0.481837	0.482370	0.511237	0.523249
55162	9.851751	0.779221	0.307637	0.084680	0.099350	0.073756	-0.481801	0.482364	0.512090	0.522452
55163	9.844564	0.779544	0.327013	0.083892	0.134996	0.066826	-0.481684	0.482380	0.512810	0.521839
55164	9.820906	0.777145	0.319921	0.080380	0.142912	0.042747	-0.481450	0.482445	0.513441	0.521374
55165	9.810806	0.717341	0.260619	0.017652	0.097220	0.027264	-0.481140	0.482549	0.513963	0.521051
55166	9.819755	0.657436	0.176747	-0.047035	0.024797	0.030494	-0.480787	0.482659	0.514368	0.520874
55167	9.807507	0.655333	0.184575	-0.052832	0.041052	0.018195	-0.480422	0.482780	0.514561	0.520909
55168	9.769849	0.683586	0.159987	-0.026773	0.022462	-0.017709	-0.479999	0.482931	0.514649	0.521071
55169	9.734817	0.605411	0.165252	-0.107428	0.032691	-0.058310	-0.479558	0.483083	0.514694	0.521292
55170	9.726419	0.556666	0.188664	-0.160343	0.060994	-0.070035	-0.479112	0.483280	0.514767	0.521447
55171	9.739388	0.486703	0.179136	-0.235060	0.056379	-0.062497	-0.478725	0.483482	0.514780	0.521602
55172	9.744834	0.407280	0.230203	-0.317453	0.111239	-0.062431	-0.478416	0.483645	0.514748	0.521767
55173	9.744295	0.394028	0.276927	-0.332959	0.160164	-0.063497	-0.478186	0.483737	0.514733	0.521907
55174	9.740790	0.457784	0.216070	-0.271425	0.100173	-0.063045	-0.478081	0.483759	0.514744	0.521970
55175	9.781201	0.467111	0.236577	-0.266298	0.121043	-0.021851	-0.478062	0.483729	0.514825	0.521937
55176	9.772794	0.546435	0.260510	-0.187726	0.145957	-0.024051	-0.478094	0.483618	0.515017	0.521822
55177	9.764634	0.633630	0.259045	-0.101652	0.146618	-0.025715	-0.478166	0.483480	0.515313	0.521591
55178	9.758166	0.685604	0.298282	-0.050337	0.189672	-0.027887	-0.478202	0.483402	0.515617	0.521330
55179	9.725050	0.678580	0.238980	-0.056376	0.134533	-0.062154	-0.478216	0.483298	0.515864	0.521169
55180	9.708155	0.669141	0.233261	-0.067153	0.131441	-0.079823	-0.478187	0.483144	0.516098	0.521107
55181	9.805724	0.679652	0.172954	-0.068253	0.071894	0.017584	-0.478116	0.482976	0.516341	0.521087
55182	9.949084	0.727004	0.081234	-0.036172	-0.020574	0.163167	-0.478204	0.482706	0.516584	0.521016
55183	9.874773	0.719519	0.158764	-0.040756	0.056731	0.089291	-0.478297	0.482496	0.516692	0.521018
55184	9.836600	0.729694	0.190052	-0.029774	0.086561	0.052347	-0.478415	0.482283	0.516799	0.521000
55185	9.767477	0.741329	0.240145	-0.014374	0.134748	-0.015112	-0.478505	0.482128	0.516777	0.521082
55186	9.712945	0.754268	0.221365	0.001445	0.112574	-0.068636	-0.478532	0.482029	0.516639	0.521286
55187	9.698141	0.723729	0.216219	-0.029099	0.103368	-0.085769	-0.478511	0.481985	0.516489	0.521495
55188	9.713165	0.770478	0.181331	0.015282	0.065016	-0.067554	-0.478397	0.482052	0.516295	0.521729
55189	9.741687	0.780735	0.196553	0.022748	0.077464	-0.038122	-0.478216	0.482205	0.516045	0.522001
55190	9.750896	0.754079	0.182461	-0.004916	0.060900	-0.031165	-0.478003	0.482403	0.515725	0.522330
55191	9.785995	0.675440	0.099752	-0.086596	-0.024998	-0.003317	-0.477789	0.482594	0.515373	0.522696
55192	9.776014	0.649611	0.113311	-0.112212	-0.014765	-0.015113	-0.477611	0.482718	0.515062	0.523051
55193	9.823017	0.607675	0.096489	-0.158979	-0.036412	0.028229	-0.477499	0.482749	0.514774	0.523409
55194	9.812949	0.582806	0.112190	-0.184552	-0.026181	0.016426	-0.477481	0.482675	0.514518	0.523744
55195	9.779261	0.561186	0.111438	-0.205573	-0.032846	-0.018917	-0.477508	0.482519	0.514333	0.524045
55196	9.716967	0.567055	0.154326	-0.197374	0.004302	-0.079968	-0.477561	0.482296	0.514209	0.524324
55197	9.644637	0.547613	0.206331	-0.214171	0.051154	-0.152823	-0.477653	0.482007	0.514167	0.524546
55198	9.627821	0.583637	0.240187	-0.180305	0.079559	-0.166216	-0.477780	0.481695	0.514226	0.524660
55199	9.624996	0.598244	0.274387	-0.168510	0.110308	-0.167317	-0.477879	0.481447	0.514354	0.524671
55200	9.713075	0.582190	0.227075	-0.194692	0.060547	-0.081667	-0.478021	0.481157	0.514628	0.524540
55201	9.776716	0.590861	0.265485	-0.194168	0.098262	-0.016953	-0.478214	0.480792	0.515022	0.524312
55202	9.798224	0.618251	0.264920	-0.171973	0.097448	0.006606	-0.478483	0.480358	0.515415	0.524078
55203	9.742780	0.655330	0.346674	-0.133822	0.179401	-0.044304	-0.478820	0.479850	0.515863	0.523794
55204	9.758028	0.667610	0.253574	-0.126561	0.085197	-0.029751	-0.479211	0.479277	0.516358	0.523474
55205	9.829500	0.684920	0.234971	-0.118249	0.063452	0.042534	-0.479737	0.478622	0.516837	0.523119
55206	9.850388	0.614333	0.199180	-0.192801	0.023771	0.056937	-0.480418	0.477827	0.517399	0.522666
55207	9.824076	0.675780	0.248175	-0.131878	0.069154	0.036605	-0.481245	0.476912	0.518036	0.522108
55208	9.788675	0.770805	0.289711	-0.036350	0.107415	0.009907	-0.482128	0.475971	0.518675	0.521517
55209	9.801044	0.740219	0.224204	-0.068940	0.036232	0.018518	-0.482957	0.475035	0.519274	0.521008
55210	9.776859	0.692082	0.206788	-0.117015	0.012559	-0.009889	-0.483868	0.473989	0.519912	0.520478
55211	9.774483	0.711581	0.342349	-0.102722	0.141452	-0.007918	-0.484875	0.472826	0.520645	0.519866
55212	9.853043	0.869399	0.142357	0.049381	-0.065717	0.079320	-0.485869	0.471686	0.521178	0.519439
55213	9.692742	0.835915	0.292037	0.023743	0.073544	-0.079893	-0.486862	0.470615	0.521335	0.519323
55214	9.609982	0.744573	0.331159	-0.062542	0.098570	-0.168924	-0.487892	0.469542	0.521741	0.518920
55215	9.707706	0.645528	0.272419	-0.168168	0.024603	-0.081213	-0.488898	0.468509	0.522286	0.518359
55216	9.797083	0.637985	0.307165	-0.184518	0.048845	0.008095	-0.489982	0.467396	0.522968	0.517651
55217	9.794940	0.803580	0.261989	-0.018964	0.003190	0.018633	-0.491031	0.466229	0.523753	0.516915
55218	9.800044	0.869964	0.268517	0.044959	0.006017	0.029454	-0.492056	0.465131	0.524396	0.516278
55219	9.795751	0.955766	0.193252	0.133531	-0.072440	0.030305	-0.493042	0.464107	0.524941	0.515705
55220	9.833679	0.839638	0.165141	0.016978	-0.115847	0.057459	-0.494032	0.463163	0.525242	0.515299
55221	9.832534	0.680130	0.162296	-0.139909	-0.137258	0.042728	-0.495013	0.462213	0.525549	0.514897
55222	9.854214	0.604380	0.138349	-0.214521	-0.176993	0.057094	-0.496059	0.461156	0.525963	0.514415
55223	9.805158	0.588387	0.187335	-0.228337	-0.137682	0.008275	-0.497126	0.460062	0.526492	0.513824
55224	9.677570	0.724560	0.278226	-0.087173	-0.043471	-0.104532	-0.498221	0.458946	0.527090	0.513147
55225	9.528199	0.836886	0.367634	0.031314	0.051991	-0.240936	-0.499147	0.457984	0.527720	0.512460
55226	9.475611	0.920779	0.398229	0.116744	0.086425	-0.285225	-0.499896	0.457196	0.528260	0.511877
55227	9.546912	0.912746	0.331732	0.107385	0.014982	-0.217120	-0.500474	0.456616	0.528694	0.511381
55228	9.652670	0.848585	0.287273	0.039097	-0.038451	-0.118686	-0.500945	0.456214	0.529029	0.510932
55229	9.726068	0.780728	0.283359	-0.032188	-0.049360	-0.051399	-0.501302	0.455955	0.529309	0.510524
55230	9.771685	0.754508	0.269217	-0.059412	-0.064910	-0.008615	-0.501510	0.455796	0.529590	0.510168
55231	9.767176	0.793786	0.275169	-0.020447	-0.052360	-0.009607	-0.501583	0.455665	0.529911	0.509880
55232	9.738948	0.798555	0.332294	-0.019153	0.009988	-0.035431	-0.501614	0.455547	0.530196	0.509659
55233	9.759871	0.817236	0.351145	-0.004531	0.033297	-0.012426	-0.501635	0.455525	0.530422	0.509422
55234	9.792106	0.780677	0.375090	-0.044437	0.057934	0.017376	-0.501620	0.455656	0.530539	0.509199
55235	9.780493	0.725303	0.358695	-0.094836	0.042609	0.000668	-0.501614	0.455818	0.530606	0.508990
55236	9.723041	0.656655	0.424976	-0.160851	0.109906	-0.060181	-0.501592	0.455986	0.530633	0.508833
55237	9.651128	0.624992	0.369656	-0.180124	0.058479	-0.136135	-0.501598	0.456091	0.530681	0.508683
55238	9.729519	0.568935	0.358955	-0.239125	0.042896	-0.062967	-0.501627	0.456188	0.530647	0.508602
55239	9.795399	0.507565	0.364088	-0.303210	0.043097	-0.002172	-0.501738	0.456226	0.530748	0.508354
55240	9.732865	0.594593	0.354856	-0.208166	0.044913	-0.057547	-0.501948	0.456177	0.530873	0.508060
55241	9.683144	0.717417	0.476424	-0.088056	0.178862	-0.093366	-0.502179	0.456158	0.530966	0.507751
55242	9.644413	0.770519	0.531236	-0.032162	0.239998	-0.125996	-0.502417	0.456172	0.530961	0.507508
55243	9.546499	0.721451	0.536509	-0.069015	0.244387	-0.227308	-0.502601	0.456243	0.530794	0.507437
55244	9.571016	0.735875	0.604358	-0.056871	0.311428	-0.199629	-0.502795	0.456335	0.530709	0.507251
55245	9.689840	0.644983	0.372950	-0.132783	0.070218	-0.095407	-0.502968	0.456463	0.530629	0.507048
55246	9.855311	0.713645	0.310463	-0.066594	0.007061	0.073077	-0.503214	0.456511	0.530506	0.506889
55247	9.899533	0.692803	0.207443	-0.076568	-0.100518	0.112422	-0.503462	0.456577	0.530326	0.506771
55248	9.956973	0.567415	0.150499	-0.195447	-0.170518	0.158203	-0.503654	0.456643	0.530207	0.506646
55249	9.905444	0.631140	0.104060	-0.120095	-0.209894	0.110442	-0.503847	0.456647	0.530252	0.506404
55250	9.770475	0.668344	0.185488	-0.075555	-0.119384	-0.018643	-0.504007	0.456696	0.530293	0.506157
55251	9.684762	0.719107	0.227631	-0.017904	-0.067829	-0.098851	-0.504122	0.456822	0.530317	0.505905
55252	9.681089	0.770335	0.306350	0.031052	0.018629	-0.096235	-0.504116	0.457037	0.530350	0.505681
55253	9.633397	0.804974	0.342897	0.069437	0.065213	-0.140106	-0.503975	0.457361	0.530389	0.505487
55254	9.662553	0.780499	0.394126	0.042008	0.120082	-0.111489	-0.503735	0.457791	0.530334	0.505395
55255	9.602063	0.695442	0.531957	-0.046134	0.260092	-0.174407	-0.503424	0.458267	0.530283	0.505326
55256	9.588953	0.665504	0.492023	-0.069261	0.226595	-0.191001	-0.503059	0.458779	0.530255	0.505255
55257	9.664465	0.690527	0.390459	-0.039124	0.132215	-0.116701	-0.502626	0.459408	0.529992	0.505390
55258	9.730226	0.549100	0.408501	-0.182571	0.143427	-0.061186	-0.502189	0.460041	0.529684	0.505573
55259	9.720961	0.479000	0.360137	-0.245322	0.097832	-0.076854	-0.501759	0.460607	0.529626	0.505544
55260	9.673767	0.505020	0.295078	-0.209458	0.046218	-0.123628	-0.501406	0.461072	0.529725	0.505367
55261	9.719065	0.623980	0.141992	-0.080665	-0.089351	-0.073322	-0.501087	0.461607	0.529692	0.505231
55262	9.839449	0.600923	0.171246	-0.109338	-0.058926	0.045799	-0.500918	0.462133	0.529361	0.505264
55263	9.953461	0.511145	0.205749	-0.202559	-0.030848	0.153907	-0.500892	0.462524	0.529128	0.505176
55264	9.980726	0.572312	0.151882	-0.133461	-0.079039	0.184384	-0.500969	0.462757	0.528966	0.505056
55265	9.940994	0.565534	0.229405	-0.137038	-0.000938	0.146079	-0.501116	0.462914	0.528767	0.504975
55266	9.954072	0.513199	0.065197	-0.172364	-0.170234	0.151874	-0.501397	0.462955	0.528606	0.504826
55267	10.038765	0.563803	0.086245	-0.122265	-0.151873	0.240377	-0.501844	0.462875	0.528407	0.504663
55268	10.088125	0.459692	0.115713	-0.223842	-0.136923	0.283159	-0.502241	0.462836	0.528123	0.504602
55269	10.045292	0.368638	0.048196	-0.299500	-0.213909	0.232742	-0.502591	0.462848	0.527968	0.504404
55270	10.004090	0.396532	0.205166	-0.273236	-0.055825	0.197476	-0.502726	0.463063	0.527737	0.504315
55271	10.077099	0.328265	0.175923	-0.337381	-0.090648	0.265238	-0.502791	0.463322	0.527620	0.504134
55272	10.060777	0.399392	0.251952	-0.266278	-0.006531	0.255643	-0.502628	0.463660	0.527442	0.504172
55273	9.754547	0.411260	0.336323	-0.238571	0.091495	-0.047026	-0.502303	0.464069	0.527360	0.504206
55274	9.489205	0.512128	0.421646	-0.126006	0.199001	-0.303240	-0.501850	0.464596	0.527410	0.504119
55275	9.428859	0.519741	0.297095	-0.105238	0.089191	-0.365850	-0.501264	0.465248	0.527536	0.503969
55276	9.375141	0.451503	0.274325	-0.168495	0.077669	-0.424506	-0.500606	0.465877	0.527712	0.503858
55277	9.476867	0.329103	0.233772	-0.296694	0.041704	-0.331960	-0.499883	0.466427	0.527974	0.503792
55278	9.559581	0.331162	0.253879	-0.306076	0.077145	-0.249213	-0.499212	0.466824	0.528576	0.503458
55279	9.571920	0.375249	0.294831	-0.271704	0.141747	-0.233782	-0.498528	0.467201	0.529412	0.502907
55280	9.586981	0.404905	0.303611	-0.249738	0.176055	-0.217224	-0.497869	0.467597	0.530285	0.502272
55281	9.516626	0.443058	0.329325	-0.213949	0.229881	-0.285240	-0.497242	0.468006	0.531167	0.501580
55282	9.588037	0.475146	0.435057	-0.198534	0.361078	-0.211872	-0.496585	0.468445	0.531975	0.500965
55283	9.684680	0.523393	0.484596	-0.165551	0.436443	-0.113004	-0.495900	0.468858	0.532751	0.500431
55284	9.737413	0.579581	0.396724	-0.113540	0.374855	-0.057839	-0.495204	0.469230	0.533511	0.499963
55285	9.744551	0.727717	0.356677	0.029693	0.366501	-0.041412	-0.494489	0.469648	0.534179	0.499564
55286	9.617992	0.689630	0.281622	0.000180	0.310183	-0.170881	-0.493700	0.470216	0.534673	0.499281
55287	9.552071	0.614842	0.292110	-0.075504	0.338722	-0.242685	-0.492760	0.470880	0.535358	0.498850
55288	9.505094	0.623363	0.227379	-0.066800	0.305235	-0.289592	-0.491499	0.471693	0.536405	0.498201
55289	9.643238	0.659166	0.076567	-0.041125	0.193854	-0.148681	-0.490055	0.472599	0.537386	0.497709
55290	9.731863	0.783426	-0.148308	0.080456	0.013234	-0.048561	-0.488633	0.473584	0.538133	0.497363
55291	9.706955	0.697322	-0.024894	-0.019274	0.159379	-0.082013	-0.487315	0.474573	0.538436	0.497385
55292	9.710721	0.649153	-0.007760	-0.074260	0.196285	-0.082554	-0.486078	0.475608	0.538534	0.497500
55293	9.885055	0.575653	-0.002619	-0.164422	0.218521	0.085338	-0.484850	0.476717	0.538264	0.497929
55294	10.283386	0.695097	-0.087662	-0.073667	0.161275	0.493012	-0.483672	0.477778	0.537789	0.498571
55295	10.350461	0.699538	-0.292223	-0.066487	-0.037200	0.565221	-0.482809	0.478595	0.536955	0.499521
55296	9.897940	0.648046	-0.150314	-0.091979	0.083839	0.106802	-0.482326	0.479096	0.535798	0.500748
55297	9.595157	0.660362	0.047040	-0.065952	0.260319	-0.198469	-0.481859	0.479578	0.534603	0.502012
55298	9.721292	0.594802	0.025368	-0.139489	0.224441	-0.076769	-0.481296	0.480186	0.533461	0.503185
55299	9.852798	0.594492	0.079508	-0.150824	0.269631	0.053513	-0.480877	0.480671	0.532508	0.504130
55300	9.841535	0.664955	0.011579	-0.074891	0.195914	0.049062	-0.480568	0.481181	0.531747	0.504741
55301	10.045488	0.771991	-0.207350	0.027892	-0.022347	0.264491	-0.480321	0.481689	0.530964	0.505316
55302	10.008463	0.784369	-0.193751	0.046701	-0.017080	0.228210	-0.480062	0.482176	0.530080	0.506025
55303	9.925508	0.717067	-0.252158	-0.009567	-0.089142	0.141479	-0.479838	0.482554	0.529189	0.506809
55304	9.723940	0.674881	-0.160577	-0.037007	-0.014509	-0.064115	-0.479648	0.482892	0.528175	0.507725
55305	9.613920	0.676120	-0.040075	-0.028599	0.091453	-0.175416	-0.479342	0.483311	0.527204	0.508624
55306	9.524067	0.656248	0.045898	-0.042338	0.164729	-0.267444	-0.478871	0.483832	0.526196	0.509615
55307	9.505518	0.605882	-0.002176	-0.090370	0.105923	-0.288897	-0.478251	0.484407	0.525223	0.510653
55308	9.522883	0.532653	0.045617	-0.167438	0.145397	-0.277389	-0.477509	0.484981	0.524369	0.511679
55309	9.611435	0.495949	-0.006043	-0.214288	0.090182	-0.191272	-0.476712	0.485476	0.523791	0.512545
55310	9.665634	0.503194	-0.030470	-0.216819	0.065160	-0.136564	-0.475913	0.485945	0.523303	0.513340
55311	9.599696	0.407003	0.071049	-0.314405	0.166610	-0.210696	-0.475076	0.486473	0.522929	0.513996
55312	9.727396	0.392688	0.060019	-0.343336	0.162275	-0.084593	-0.474262	0.487024	0.522770	0.514387
55313	9.861502	0.436310	0.072683	-0.315122	0.184417	0.051975	-0.473465	0.487518	0.522663	0.514763
55314	9.941831	0.566983	-0.003987	-0.196111	0.117749	0.142671	-0.472767	0.487949	0.522717	0.514941
55315	10.012605	0.599567	-0.083323	-0.173878	0.047811	0.216577	-0.472128	0.488345	0.522675	0.515195
55316	9.895915	0.537690	0.013447	-0.229826	0.151571	0.094009	-0.471713	0.488630	0.522881	0.515095
55317	9.744634	0.538530	0.063279	-0.219357	0.212645	-0.057763	-0.471270	0.488945	0.523418	0.514655
55318	9.615480	0.596566	-0.068003	-0.154778	0.096490	-0.180207	-0.470785	0.489201	0.524047	0.514216
55319	9.450065	0.709677	-0.136143	-0.033342	0.040703	-0.335181	-0.470419	0.489317	0.524603	0.513874
55320	9.416695	0.864418	-0.049238	0.119803	0.139933	-0.358067	-0.469996	0.489539	0.525036	0.513607
55321	9.649719	0.876443	-0.062530	0.111759	0.145249	-0.124781	-0.469518	0.490011	0.525325	0.513299
55322	9.907930	0.820453	-0.175296	0.036635	0.051461	0.130499	-0.469192	0.490451	0.525469	0.513029
55323	10.038176	0.707327	-0.211565	-0.084145	0.028199	0.252210	-0.468858	0.490897	0.525438	0.512939
55324	10.035120	0.672202	-0.218898	-0.116978	0.027599	0.246584	-0.468550	0.491289	0.525319	0.512967
55325	9.918935	0.684963	-0.126753	-0.093562	0.120081	0.129513	-0.468291	0.491590	0.525095	0.513146
55326	9.830947	0.723085	-0.069074	-0.047692	0.176084	0.043370	-0.468065	0.491843	0.524859	0.513350
55327	9.709980	0.733217	-0.072723	-0.027174	0.170356	-0.076320	-0.467767	0.492210	0.524610	0.513526
55328	9.600709	0.673392	-0.027531	-0.075698	0.214633	-0.191043	-0.467527	0.492613	0.524291	0.513683
55329	9.495990	0.632588	-0.011505	-0.104462	0.229723	-0.298990	-0.467403	0.492955	0.524058	0.513705
55330	9.633534	0.717309	-0.121265	-0.027311	0.125612	-0.152579	-0.467341	0.493247	0.523957	0.513584
55331	9.801157	0.795961	-0.169488	0.042937	0.082169	0.021761	-0.467356	0.493545	0.523603	0.513646
55332	9.896821	0.735030	-0.212149	-0.018854	0.040535	0.113558	-0.467475	0.493819	0.523239	0.513645
55333	9.854155	0.599242	-0.196174	-0.143671	0.054909	0.060422	-0.467521	0.494141	0.522892	0.513646
55334	9.930752	0.629176	-0.326039	-0.114391	-0.074432	0.142380	-0.467654	0.494333	0.522639	0.513598
55335	9.827525	0.503656	-0.348579	-0.227585	-0.102573	0.030742	-0.467780	0.494379	0.522271	0.513813
55336	9.704614	0.529830	-0.259721	-0.189289	-0.023581	-0.092023	-0.467887	0.494347	0.521988	0.514034
55337	9.674109	0.538176	-0.258225	-0.177776	-0.029257	-0.121855	-0.467894	0.494386	0.521632	0.514352
55338	9.682653	0.563867	-0.126908	-0.150393	0.094727	-0.114429	-0.467878	0.494457	0.521160	0.514777
55339	9.662604	0.564346	0.041627	-0.145367	0.255171	-0.137984	-0.467733	0.494637	0.520630	0.515271
55340	9.638727	0.494506	0.017674	-0.213186	0.225657	-0.166262	-0.467492	0.494879	0.520142	0.515750
55341	9.665279	0.519498	0.117753	-0.188203	0.323003	-0.139962	-0.467159	0.495223	0.519753	0.516113
55342	9.737370	0.535496	0.016628	-0.178706	0.222866	-0.064775	-0.466804	0.495600	0.519393	0.516437
55343	9.739196	0.469790	-0.153868	-0.247032	0.052765	-0.064225	-0.466598	0.495835	0.519060	0.516731
55344	9.727023	0.477663	-0.182948	-0.237959	0.020442	-0.075154	-0.466688	0.495821	0.518889	0.516835
55345	9.806492	0.542302	-0.229940	-0.178618	-0.029027	0.009812	-0.466903	0.495712	0.518888	0.516746
55346	9.943385	0.577645	-0.340455	-0.153810	-0.140063	0.151108	-0.467148	0.495545	0.518888	0.516685
55347	9.941012	0.625884	-0.425430	-0.105362	-0.230786	0.153861	-0.467520	0.495286	0.518836	0.516648
55348	9.818330	0.635246	-0.288416	-0.081525	-0.103314	0.029518	-0.467983	0.495034	0.518724	0.516583
55349	9.801149	0.600076	-0.157854	-0.108797	0.020930	0.007457	-0.468425	0.494837	0.518643	0.516454
55350	9.838411	0.529611	-0.245348	-0.178935	-0.069075	0.041156	-0.468743	0.494739	0.518596	0.516306
55351	9.802641	0.466247	-0.302990	-0.237151	-0.131363	0.001968	-0.469101	0.494525	0.518470	0.516312
55352	9.575706	0.422055	-0.153812	-0.261143	0.004691	-0.230010	-0.469427	0.494238	0.518114	0.516648
55353	9.336424	0.453128	0.002808	-0.210840	0.145117	-0.468779	-0.469630	0.493997	0.517777	0.517032
55354	9.299563	0.488207	0.200601	-0.170902	0.333183	-0.505688	-0.469580	0.493984	0.517459	0.517408
55355	9.488828	0.562118	0.332623	-0.109590	0.464489	-0.313387	-0.469195	0.494262	0.517271	0.517680
55356	9.843637	0.632595	0.039889	-0.071766	0.179185	0.049447	-0.468672	0.494660	0.517118	0.517925
55357	10.008158	0.572630	-0.132993	-0.148810	0.011883	0.211609	-0.468297	0.494929	0.516792	0.518332
55358	9.949912	0.577400	-0.226649	-0.143010	-0.084775	0.155154	-0.468202	0.495018	0.516562	0.518563
55359	9.896682	0.616723	-0.396014	-0.102992	-0.259212	0.107176	-0.468343	0.494969	0.516411	0.518633
55360	9.875196	0.494046	-0.332333	-0.219795	-0.197442	0.076030	-0.468588	0.494911	0.516271	0.518606
55361	9.775383	0.507054	-0.205972	-0.193134	-0.077309	-0.024206	-0.468876	0.494849	0.516101	0.518575
55362	9.661807	0.541932	-0.082114	-0.144295	0.040216	-0.136505	-0.469107	0.494760	0.516033	0.518517
55363	9.660424	0.679762	0.029965	-0.002953	0.145234	-0.129420	-0.469187	0.494699	0.515829	0.518707
55364	9.680964	0.691565	0.137691	0.009714	0.247479	-0.109238	-0.469163	0.494712	0.515532	0.519011
55365	9.812011	0.663350	0.028045	-0.030197	0.134495	0.020795	-0.469085	0.494787	0.515187	0.519354
55366	9.830856	0.621210	-0.102378	-0.076098	-0.001697	0.038014	-0.469081	0.494848	0.514711	0.519770
55367	9.740799	0.486551	-0.145888	-0.204010	-0.051504	-0.060923	-0.469186	0.494817	0.514320	0.520091
55368	9.648965	0.499462	-0.108807	-0.182751	-0.021072	-0.151942	-0.469338	0.494716	0.514302	0.520069
55369	9.642348	0.457107	-0.182907	-0.225964	-0.095511	-0.160895	-0.469358	0.494685	0.514323	0.520059
55370	9.507581	0.515194	-0.032790	-0.154661	0.054488	-0.292514	-0.469364	0.494721	0.514573	0.519772
55371	9.597951	0.591042	-0.049872	-0.085228	0.043762	-0.196903	-0.469246	0.494839	0.514904	0.519439
55372	9.708650	0.688167	0.009109	0.004710	0.110526	-0.080303	-0.468930	0.495077	0.515103	0.519300
55373	9.739224	0.679053	0.009602	-0.007943	0.117190	-0.050521	-0.468568	0.495342	0.514972	0.519505
55374	9.674417	0.644397	0.067985	-0.038258	0.177094	-0.118287	-0.468092	0.495698	0.514650	0.519911
55375	9.795127	0.585244	-0.014107	-0.110355	0.098348	-0.001195	-0.467524	0.496092	0.514253	0.520440
55376	9.743820	0.490855	-0.062487	-0.205760	0.050872	-0.058614	-0.466877	0.496508	0.513723	0.521146
55377	9.631279	0.441142	0.038826	-0.248501	0.149551	-0.175596	-0.466250	0.496879	0.513166	0.521903
55378	9.549380	0.531789	0.149236	-0.152211	0.255789	-0.251980	-0.465549	0.497392	0.512787	0.522412
55379	9.762115	0.428137	-0.103329	-0.281865	0.012870	-0.044717	-0.464858	0.497965	0.512376	0.522885
55380	9.899903	0.468445	-0.215067	-0.257504	-0.097970	0.096797	-0.464531	0.498212	0.511974	0.523335
55381	9.894943	0.447592	-0.179538	-0.277699	-0.068258	0.089872	-0.464511	0.498215	0.511457	0.523854
55382	9.876527	0.295018	-0.148754	-0.426843	-0.042484	0.060050	-0.464669	0.498146	0.510967	0.524258
55383	10.009628	0.286219	-0.146963	-0.443904	-0.051184	0.192136	-0.465055	0.497841	0.510603	0.524560
55384	10.009868	0.435060	-0.125152	-0.293327	-0.049373	0.202995	-0.465571	0.497437	0.510286	0.524794
55385	9.913051	0.592720	-0.091588	-0.125978	-0.037079	0.117620	-0.466159	0.496989	0.510047	0.524928
55386	9.808100	0.649511	-0.121670	-0.060675	-0.082270	0.017116	-0.466684	0.496611	0.509898	0.524965
55387	9.713664	0.719178	0.036391	0.023516	0.063970	-0.072607	-0.467063	0.496337	0.509838	0.524945
55388	9.657823	0.607981	-0.005282	-0.084238	0.021435	-0.136135	-0.467317	0.496072	0.509955	0.524855
55389	9.660160	0.613660	-0.080813	-0.082902	-0.056900	-0.133241	-0.467706	0.495563	0.510325	0.524630
55390	9.687241	0.724964	-0.067620	0.023296	-0.049879	-0.098278	-0.467980	0.495079	0.510663	0.524513
55391	9.608474	0.649956	-0.046271	-0.049427	-0.029716	-0.182317	-0.468047	0.494772	0.510734	0.524675
55392	9.457999	0.561489	-0.004860	-0.129841	0.012087	-0.338933	-0.468111	0.494469	0.511043	0.524603
55393	9.487574	0.682121	0.075625	-0.013116	0.092975	-0.300787	-0.468118	0.494274	0.511641	0.524197
55394	9.740809	0.729315	0.103229	0.012936	0.128052	-0.044916	-0.468009	0.494221	0.512062	0.523932
55395	9.974258	0.677465	0.066488	-0.060782	0.097182	0.184115	-0.467870	0.494134	0.512068	0.524133
55396	9.946750	0.565184	0.083646	-0.175314	0.115439	0.148246	-0.467794	0.493901	0.512136	0.524354
55397	9.917607	0.561001	0.073988	-0.183575	0.103760	0.118810	-0.467805	0.493589	0.512378	0.524402
55398	9.858701	0.598279	-0.039133	-0.150740	-0.011402	0.063070	-0.467986	0.493167	0.512768	0.524256
55399	9.811184	0.696293	-0.102055	-0.055537	-0.080960	0.023213	-0.468237	0.492726	0.512847	0.524370
55400	9.740564	0.729510	-0.040301	-0.018905	-0.027700	-0.044818	-0.468567	0.492224	0.512942	0.524453
55401	9.713695	0.803270	0.043219	0.055326	0.047237	-0.066011	-0.468839	0.491762	0.513115	0.524475
55402	9.748953	0.888925	0.039487	0.134159	0.037502	-0.024203	-0.468973	0.491444	0.513291	0.524480
55403	9.774266	0.956061	0.019944	0.195465	0.013320	0.006292	-0.468985	0.491295	0.513255	0.524644
55404	9.711467	0.938330	0.132815	0.183096	0.122748	-0.057581	-0.468809	0.491337	0.513018	0.524993
55405	9.701548	0.842417	0.131493	0.085851	0.120323	-0.074867	-0.468507	0.491502	0.512693	0.525427
55406	9.677694	0.671817	0.184580	-0.082812	0.175415	-0.111886	-0.468173	0.491728	0.512357	0.525839
55407	9.651044	0.563080	0.177098	-0.190079	0.169379	-0.146961	-0.467925	0.491967	0.512052	0.526135
55408	9.728775	0.525163	0.113575	-0.235352	0.106286	-0.072509	-0.467807	0.492131	0.511871	0.526262
55409	9.813061	0.550799	0.053756	-0.216183	0.045119	0.013485	-0.467844	0.492261	0.511703	0.526271
55410	9.811425	0.566053	0.061617	-0.196883	0.051489	0.013139	-0.467980	0.492351	0.511571	0.526195
55411	9.775199	0.621945	0.100410	-0.132913	0.087646	-0.018502	-0.468198	0.492362	0.511542	0.526018
55412	9.726104	0.635552	0.097319	-0.111458	0.084090	-0.066355	-0.468428	0.492360	0.511583	0.525775
55413	9.722378	0.662464	0.134272	-0.079514	0.120644	-0.067912	-0.468669	0.492299	0.511667	0.525536
55414	9.729900	0.739625	0.090281	-0.001173	0.074414	-0.054583	-0.468915	0.492241	0.511718	0.525321
55415	9.817482	0.787794	0.056047	0.042961	0.038523	0.036342	-0.469199	0.492182	0.511763	0.525079
55416	9.803540	0.788662	0.103635	0.050167	0.084935	0.022576	-0.469483	0.492101	0.511753	0.524911
55417	9.746820	0.793751	0.162037	0.064690	0.140788	-0.033485	-0.469765	0.492007	0.511704	0.524794
55418	9.707173	0.717844	0.105240	-0.005926	0.083474	-0.078799	-0.470083	0.491908	0.511685	0.524621
55419	9.662950	0.736786	0.124534	0.020693	0.099260	-0.121419	-0.470448	0.491763	0.511651	0.524462
55420	9.632712	0.741985	0.123083	0.032327	0.093413	-0.151163	-0.470833	0.491636	0.511527	0.524357
55421	9.701426	0.768141	0.015704	0.055825	-0.019981	-0.081067	-0.471339	0.491457	0.511430	0.524165
55422	9.870242	0.749222	0.039107	0.031390	-0.002745	0.085976	-0.471793	0.491344	0.511197	0.524090
55423	9.939157	0.723899	0.024639	0.006142	-0.024775	0.152794	-0.472161	0.491212	0.510894	0.524178
55424	9.929397	0.773382	0.033564	0.059995	-0.026037	0.146624	-0.472571	0.490959	0.510695	0.524238
55425	9.897478	0.828904	0.125147	0.121916	0.053759	0.119334	-0.472952	0.490658	0.510394	0.524471
55426	9.825676	1.037688	0.180403	0.336848	0.089600	0.063128	-0.473250	0.490333	0.509851	0.525033
55427	9.862162	1.170590	0.106160	0.464305	-0.011492	0.108401	-0.473490	0.490074	0.508695	0.526179
55428	9.776366	1.112659	0.022996	0.410301	-0.127395	0.017427	-0.473828	0.489771	0.506977	0.527812
55429	9.746795	1.235002	0.112467	0.538742	-0.089408	-0.002519	-0.474377	0.489419	0.504638	0.529883
55430	9.767196	0.760004	0.389826	0.079701	0.145526	-0.009635	-0.475148	0.489179	0.501852	0.532056
55431	9.707907	0.762937	0.569555	0.104859	0.275211	-0.062661	-0.476353	0.488648	0.500250	0.532974
55432	9.897888	0.993708	0.389467	0.328243	0.040698	0.137076	-0.477448	0.488262	0.498749	0.533754
55433	9.807240	0.938487	0.389908	0.292346	0.009473	0.042721	-0.478406	0.487962	0.497279	0.534541
55434	9.553713	0.987118	0.232239	0.363418	-0.172727	-0.213741	-0.479337	0.487631	0.496136	0.535072
55435	9.425807	1.360832	0.051499	0.749200	-0.388593	-0.326487	-0.480101	0.487556	0.495112	0.535403
55436	9.299529	1.498211	-0.088811	0.902672	-0.550289	-0.452342	-0.480690	0.487823	0.493830	0.535814
55437	9.396889	1.656055	-0.172277	1.067287	-0.664800	-0.352635	-0.481105	0.488429	0.492354	0.536249
55438	9.522224	1.833370	-0.092956	1.260727	-0.619342	-0.217401	-0.481333	0.489502	0.490483	0.536780
55439	9.435277	1.947084	0.195185	1.418353	-0.354042	-0.288166	-0.481226	0.491129	0.488170	0.537498
55440	9.366488	1.733802	0.212068	1.239333	-0.339081	-0.371759	-0.480664	0.493261	0.485844	0.538156
55441	9.427668	1.263202	0.106454	0.789830	-0.426414	-0.342619	-0.479814	0.495605	0.483735	0.538661
55442	9.567060	0.960944	0.336775	0.524553	-0.181422	-0.207620	-0.478938	0.497920	0.481969	0.538888
55443	9.489415	0.609079	0.577626	0.224255	0.097846	-0.289366	-0.478266	0.500164	0.480676	0.538562
55444	9.220220	0.492171	0.758200	0.165515	0.317992	-0.555210	-0.477810	0.502367	0.479869	0.537635
55445	9.017959	0.768493	0.841769	0.489692	0.416094	-0.745735	-0.477649	0.504398	0.479699	0.536025
55446	8.946711	0.938232	0.869370	0.699915	0.467469	-0.814294	-0.477520	0.506597	0.479721	0.534043
55447	8.908778	1.002096	1.164951	0.828758	0.796247	-0.845721	-0.477553	0.509033	0.479602	0.531799
55448	8.546910	1.010123	1.457817	0.917177	1.135528	-1.206627	-0.477364	0.512032	0.478919	0.529702
55449	8.229082	1.067066	1.768851	1.057872	1.482983	-1.526157	-0.476548	0.515593	0.477629	0.528144
55450	8.330487	0.718152	1.715191	0.755614	1.485626	-1.441526	-0.474406	0.519623	0.475542	0.528005
55451	8.124656	0.281517	0.859983	0.273754	0.690377	-1.671601	-0.471900	0.521938	0.473132	0.530130
55452	7.394509	0.295875	0.427917	0.239790	0.254895	-2.408178	-0.469772	0.521509	0.471151	0.534189
55453	8.426205	0.121796	0.809046	0.047313	0.592321	-1.367758	-0.467563	0.520130	0.469472	0.538930
55454	10.521308	-0.654444	0.142301	-0.900766	-0.082886	0.691015	-0.467172	0.518116	0.468725	0.541852
55455	13.745086	-1.621359	-0.890797	-2.098061	-1.140923	3.849158	-0.467778	0.517469	0.467807	0.542739
55456	16.764532	-2.441927	-2.160670	-3.123350	-2.464624	6.796066	-0.470299	0.516362	0.467204	0.542134
55457	16.392856	-0.759968	-2.495280	-1.430436	-3.062902	6.438498	-0.474123	0.513908	0.466996	0.541313
55458	15.196121	0.806611	-2.529796	0.189938	-3.309723	5.253217	-0.477590	0.510859	0.467093	0.541069
55459	14.013669	1.257000	-2.359484	0.694797	-3.215389	4.069243	-0.480388	0.507786	0.466919	0.541634
55460	13.077861	0.918045	-1.841353	0.422295	-2.705133	3.139802	-0.482784	0.504715	0.466259	0.542942
55461	12.021796	0.163932	-1.250862	-0.264981	-2.074881	2.092730	-0.484859	0.501762	0.465166	0.544764
55462	10.703747	-0.393769	-0.586541	-0.743568	-1.357610	0.802052	-0.486634	0.499273	0.463696	0.546718
55463	9.202582	-1.130824	-0.163069	-1.407526	-0.826448	-0.684252	-0.488257	0.497432	0.461647	0.548679
55464	7.655267	-1.924928	0.354474	-2.109483	-0.166602	-2.199790	-0.490053	0.495723	0.459899	0.550091
55465	6.319420	-2.037259	0.578825	-2.165868	0.144346	-3.511214	-0.492014	0.493390	0.459358	0.550890
55466	5.125672	-1.889870	0.860011	-1.971277	0.491025	-4.669091	-0.493744	0.490442	0.459671	0.551712
55467	4.397733	-2.318810	0.978315	-2.384131	0.684959	-5.394471	-0.495649	0.486860	0.460562	0.552433
55468	3.612556	-2.674735	1.075342	-2.725446	0.853392	-6.178879	-0.499001	0.482161	0.462889	0.551591
55469	2.973787	-2.453647	0.861244	-2.513510	0.651484	-6.835585	-0.503541	0.477107	0.465781	0.549420
55470	2.608469	-1.896872	1.254982	-1.942910	1.010523	-7.132953	-0.509112	0.472046	0.469614	0.545380
55471	2.462465	0.545505	1.892340	0.497548	1.561036	-7.118655	-0.514772	0.467623	0.473603	0.540406
55472	5.026343	2.887323	2.772040	2.736556	2.117611	-4.398674	-0.519040	0.464867	0.477916	0.534876
55473	10.153510	4.977695	3.415645	4.651760	2.239189	0.811972	-0.520882	0.464050	0.482511	0.529645
55474	17.639530	6.934887	2.391016	6.428977	0.573203	8.167808	-0.521268	0.464776	0.486562	0.524901
55475	18.462847	5.537253	0.506672	5.088533	-1.313367	8.739305	-0.520945	0.466069	0.485501	0.525057
55476	17.758085	2.424829	-0.310450	2.015872	-2.107961	7.873986	-0.519352	0.467049	0.485529	0.525738
55477	15.986682	1.184147	0.080859	0.781351	-1.552641	6.123481	-0.518296	0.467208	0.484994	0.527132
55478	14.116320	1.518580	0.777774	1.135678	-0.673911	4.344910	-0.518344	0.467063	0.484724	0.527460
55479	14.730218	2.293793	0.819801	1.905172	-0.694716	4.979219	-0.518983	0.467264	0.484236	0.527101
55480	14.577135	2.758564	0.783068	2.398733	-0.731715	4.830612	-0.520215	0.466795	0.483247	0.527211
55481	12.756791	3.170697	0.951852	2.863167	-0.412694	3.045254	-0.521754	0.465264	0.482056	0.528132
55482	10.273523	3.658570	1.013991	3.403771	-0.125249	0.596775	-0.522998	0.463510	0.480652	0.529721
55483	8.138149	3.700160	0.983509	3.487826	0.041358	-1.522871	-0.523721	0.462089	0.479036	0.531709
55484	5.849189	4.018260	1.361199	3.850134	0.656140	-3.733375	-0.523436	0.461766	0.476849	0.534231
55485	4.085309	4.465122	1.785222	4.341677	1.260028	-5.410867	-0.521312	0.463511	0.474084	0.537248
55486	3.292913	4.385151	1.623166	4.299885	1.143915	-6.219705	-0.517575	0.467177	0.470129	0.541147
55487	2.914128	4.012946	1.667579	3.963022	1.170665	-6.603306	-0.512538	0.472172	0.465186	0.545858
55488	3.376523	3.309121	2.196253	3.299466	1.579730	-6.098933	-0.506338	0.478310	0.458913	0.551580
55489	4.494461	0.933339	1.688481	0.907748	1.017792	-5.115648	-0.499480	0.484859	0.451638	0.558081
55490	6.831136	-0.635112	3.369994	-0.539617	2.498486	-2.609168	-0.492958	0.490146	0.445277	0.564339
55491	10.744173	-2.489728	4.073396	-2.381869	2.918398	1.324530	-0.485864	0.495223	0.439601	0.570475
55492	15.829285	-4.747012	3.351157	-4.863614	1.948305	6.214744	-0.479088	0.500183	0.434658	0.575643
55493	17.106371	-4.592411	0.864179	-5.111659	-0.561669	7.158452	-0.474881	0.504386	0.430596	0.578507
55494	14.519524	-1.600690	0.229542	-2.113065	-1.299086	4.584473	-0.471587	0.509634	0.425553	0.580330
55495	12.637178	-0.726084	-0.457604	-1.243909	-1.848187	2.656121	-0.467347	0.516135	0.420093	0.581991
55496	11.948806	-1.477669	-0.549243	-1.930260	-1.636217	1.971007	-0.462258	0.522225	0.415160	0.584158
55497	12.102024	-2.427890	0.032279	-2.703001	-0.793290	2.204727	-0.456427	0.528193	0.410510	0.586659
55498	12.439146	-3.082426	0.855898	-3.112196	0.217898	2.646528	-0.450569	0.533919	0.405173	0.589705
55499	11.876581	-3.607079	1.220919	-3.456346	0.855063	2.140408	-0.445182	0.539169	0.399651	0.592781
55500	10.801396	-3.035387	1.150736	-2.845262	0.821724	1.070169	-0.439794	0.544185	0.394318	0.595783
55501	9.310855	-2.153967	1.275927	-1.883273	0.900348	-0.399834	-0.433941	0.549341	0.389012	0.598823
55502	8.038919	-1.609357	1.140368	-1.337171	0.785625	-1.681936	-0.427618	0.554752	0.383708	0.601798
55503	7.117793	-1.452672	0.866897	-1.225122	0.619805	-2.626634	-0.420811	0.560205	0.378599	0.604774
55504	6.742751	-1.905412	0.670353	-1.682416	0.690364	-3.012898	-0.413685	0.565432	0.373900	0.607742
55505	6.801648	-2.143158	0.710433	-1.866148	0.877981	-2.949274	-0.406633	0.570245	0.369949	0.610416
55506	6.862159	-2.458370	0.495197	-2.220634	0.873543	-2.907387	-0.399611	0.574893	0.366552	0.612739
55507	7.174022	-2.500308	0.554111	-2.222053	1.001804	-2.595803	-0.392806	0.579394	0.363646	0.614628
55508	7.453241	-2.551387	0.539107	-2.261299	1.073226	-2.323687	-0.386374	0.583507	0.361281	0.616207
55509	7.940885	-2.753926	0.465388	-2.471558	1.147524	-1.848246	-0.380563	0.587015	0.359750	0.617385
55510	8.542788	-2.767105	0.631088	-2.415408	1.349508	-1.246565	-0.375689	0.589690	0.359406	0.618022
55511	9.218530	-2.867548	0.344996	-2.651117	1.185841	-0.599219	-0.371732	0.591657	0.360057	0.618155
55512	9.774226	-2.655927	0.292797	-2.509480	1.092945	-0.056524	-0.368735	0.592911	0.361552	0.617876
55513	9.925092	-2.116820	0.439182	-1.983227	1.033988	0.095825	-0.366308	0.593528	0.363395	0.617647
55514	9.968808	-1.507494	0.546424	-1.415657	0.903198	0.143623	-0.364163	0.593876	0.365314	0.617449
55515	10.079634	-1.402890	0.422658	-1.404989	0.796821	0.243980	-0.362066	0.594303	0.367260	0.617116
55516	10.227149	-0.993730	0.582651	-0.994334	0.801230	0.399591	-0.359956	0.594699	0.369060	0.616894
55517	10.177273	-0.290945	0.757538	-0.312608	0.682838	0.369216	-0.357610	0.594972	0.370536	0.617111
55518	10.168592	0.450996	0.860902	0.363030	0.476476	0.384654	-0.355185	0.595052	0.371956	0.617581
55519	10.059839	1.263887	0.534700	0.902313	-0.153576	0.298977	-0.353466	0.594666	0.373202	0.618186
55520	9.893274	1.227800	0.294613	0.738985	-0.340542	0.127587	-0.352774	0.594200	0.372681	0.619343
55521	9.197072	0.359059	0.500716	0.097940	0.234104	-0.598495	-0.353477	0.594338	0.371607	0.619455
55522	9.787224	-1.086306	0.667195	-1.103871	1.044463	-0.060488	-0.354792	0.595299	0.371585	0.617791
55523	10.688601	-1.654132	0.046397	-1.903735	0.752428	0.807769	-0.356193	0.595478	0.372067	0.616522
55524	10.854242	-0.663737	0.222289	-0.947333	0.442798	1.013716	-0.357924	0.594002	0.374092	0.615716
55525	11.149224	0.859383	0.416569	0.454295	-0.091392	1.367758	-0.360107	0.591071	0.376804	0.615611
55526	11.395295	2.432519	1.023964	2.078110	-0.279351	1.694772	-0.362242	0.588217	0.378048	0.616329
55527	11.270054	2.644747	0.606009	2.061861	-0.782901	1.567632	-0.363964	0.586605	0.377679	0.617076
55528	10.601696	2.194368	-0.054047	1.398715	-1.202342	0.855584	-0.365322	0.586038	0.376851	0.617319
55529	9.504345	1.657531	-0.791965	0.656917	-1.629276	-0.293177	-0.366157	0.585919	0.376390	0.617218
55530	9.011957	1.907004	-0.965343	0.834937	-1.889564	-0.784047	-0.366260	0.585913	0.376748	0.616945
55531	8.999995	2.049913	-1.034541	0.932351	-2.001757	-0.790715	-0.365504	0.586187	0.377509	0.616667
55532	9.221466	2.398645	-1.044708	1.224651	-2.142715	-0.550438	-0.363878	0.587120	0.378178	0.616332
55533	9.159568	2.806351	-1.257374	1.495178	-2.479299	-0.594678	-0.361770	0.588646	0.378533	0.615899
55534	8.977679	2.754996	-0.836388	1.646589	-2.044600	-0.757493	-0.359435	0.590739	0.378223	0.615452
55535	9.181123	1.766670	-0.246496	1.031794	-1.042543	-0.575627	-0.357066	0.593369	0.377428	0.614789
55536	9.797692	0.816149	0.019177	0.303702	-0.337649	0.008452	-0.354835	0.596139	0.376626	0.613892
55537	10.480001	0.175871	0.197753	-0.179474	0.160271	0.667880	-0.353000	0.598568	0.376247	0.612817
55538	10.792678	-0.348660	0.316697	-0.571715	0.553547	0.960905	-0.351755	0.600297	0.376397	0.611749
55539	10.618285	-0.275284	0.424734	-0.429429	0.650033	0.789062	-0.351097	0.601282	0.377085	0.610735
55540	9.932400	0.186727	0.325070	-0.030859	0.366578	0.119972	-0.350846	0.601743	0.378109	0.609792
55541	9.387764	0.698819	0.251255	0.414466	0.076868	-0.405038	-0.350934	0.601952	0.379063	0.608943
55542	9.194635	0.896153	0.362173	0.654941	0.095477	-0.591109	-0.351075	0.602286	0.379528	0.608240
55543	9.433408	0.728484	0.303495	0.483842	0.136133	-0.359681	-0.351261	0.602859	0.379744	0.607430
55544	9.694295	0.574804	0.284744	0.347701	0.205763	-0.105599	-0.351543	0.603480	0.379930	0.606533
55545	9.728260	0.489301	0.211520	0.255514	0.189767	-0.075035	-0.351875	0.604054	0.380080	0.605675
55546	9.721000	0.572843	0.230667	0.356566	0.175847	-0.080210	-0.352192	0.604611	0.380125	0.604906
55547	9.709929	0.384772	0.086386	0.140405	0.138962	-0.096763	-0.352397	0.605165	0.380048	0.604281
55548	9.963248	0.267178	-0.147840	-0.062749	-0.005158	0.155039	-0.352694	0.605531	0.380067	0.603729
55549	10.155454	0.173477	-0.147985	-0.139642	0.043670	0.344272	-0.352824	0.605806	0.379853	0.603512
55550	10.095096	-0.004345	-0.286461	-0.353359	-0.003517	0.280288	-0.352939	0.605915	0.379407	0.603615
55551	10.040672	0.010813	-0.260849	-0.323769	0.003452	0.226158	-0.353013	0.605979	0.378870	0.603845
55552	9.986305	0.027130	-0.232714	-0.294173	0.010413	0.172028	-0.353005	0.605988	0.378235	0.604239
55553	9.962148	0.147694	-0.233895	-0.188766	-0.055876	0.151356	-0.352833	0.605979	0.377629	0.604726
55554	9.924211	0.240952	-0.172695	-0.082477	-0.052043	0.115471	-0.352423	0.605914	0.377195	0.605303
55555	9.842761	0.305232	-0.063202	0.017181	0.009503	0.034988	-0.351753	0.605844	0.376733	0.606050
55556	9.644892	0.352379	-0.057463	0.054180	-0.014559	-0.161353	-0.350863	0.605852	0.376145	0.606921
55557	9.639100	0.282361	-0.041502	-0.012452	0.028062	-0.169413	-0.349844	0.605969	0.375264	0.607938
55558	9.737824	0.170278	0.080726	-0.068058	0.184633	-0.075029	-0.348860	0.606103	0.374267	0.608983
55559	9.713436	0.086519	0.121994	-0.131853	0.253651	-0.102307	-0.347938	0.606235	0.373334	0.609951
55560	9.680790	0.051791	-0.110993	-0.280492	0.059278	-0.135368	-0.347345	0.606253	0.372764	0.610620
55561	9.692234	-0.050275	-0.220166	-0.427510	0.008494	-0.127257	-0.347122	0.606298	0.372426	0.610907
55562	9.698678	-0.137641	-0.203534	-0.496534	0.059777	-0.123797	-0.347345	0.606269	0.372106	0.611005
55563	9.397397	-0.088528	0.301304	-0.199000	0.468834	-0.423849	-0.347705	0.606446	0.371780	0.610823
55564	9.397889	-0.196878	0.304096	-0.280326	0.525010	-0.426671	-0.347831	0.607101	0.371907	0.610022
55565	9.742091	0.175787	-0.030863	-0.101172	0.074859	-0.069778	-0.347836	0.608055	0.372385	0.608776
55566	9.913799	0.250013	-0.192664	-0.096360	-0.082185	0.105324	-0.347329	0.609111	0.372022	0.608231
55567	9.924152	0.148704	-0.139688	-0.147477	0.018662	0.112448	-0.346395	0.610014	0.370677	0.608680
55568	9.645820	-0.109445	0.177456	-0.211692	0.410282	-0.175667	-0.345200	0.610707	0.368990	0.609689
55569	9.767214	-0.241626	0.138037	-0.348157	0.438467	-0.057563	-0.343745	0.611525	0.367478	0.610604
55570	9.975372	-0.234328	-0.003349	-0.417341	0.314347	0.151748	-0.342439	0.612043	0.366121	0.611633
55571	10.027439	-0.189336	-0.120078	-0.444048	0.186389	0.205689	-0.341236	0.612341	0.364697	0.612856
55572	9.971355	-0.251727	-0.029676	-0.462813	0.284732	0.147076	-0.340195	0.612442	0.363241	0.614197
55573	9.912523	-0.225408	0.121993	-0.375038	0.387870	0.088458	-0.339372	0.612363	0.361840	0.615556
55574	9.824141	-0.095625	0.090258	-0.289702	0.277266	0.004144	-0.338693	0.612162	0.360556	0.616882
55575	9.967934	-0.041150	0.101054	-0.256131	0.242049	0.149610	-0.338084	0.611825	0.359206	0.618338
55576	9.923739	-0.042079	0.173490	-0.235988	0.281926	0.105841	-0.337664	0.611319	0.357925	0.619808
55577	9.844877	-0.071625	0.217326	-0.255515	0.308422	0.026696	-0.337403	0.610619	0.356671	0.621361
55578	9.762380	-0.077256	0.326759	-0.222538	0.376699	-0.054344	-0.337181	0.609809	0.355407	0.623000
55579	9.782327	-0.188862	0.315649	-0.346438	0.394871	-0.037558	-0.337083	0.608917	0.354156	0.624635
55580	9.741993	0.018806	0.388666	-0.151861	0.318868	-0.069333	-0.337156	0.607903	0.353012	0.626228
55581	9.820923	0.157065	0.282821	-0.115030	0.122689	0.012115	-0.337147	0.606874	0.351641	0.627999
55582	9.772350	0.149971	0.404189	-0.082128	0.192682	-0.033086	-0.336983	0.605786	0.349972	0.630068
55583	9.627172	0.037891	0.529697	-0.132421	0.321604	-0.177163	-0.336609	0.604843	0.348237	0.632131
55584	9.537860	0.055366	0.608006	-0.097443	0.346103	-0.262080	-0.336157	0.603979	0.346653	0.634066
55585	9.490035	0.132062	0.535363	-0.091642	0.213861	-0.309501	-0.335643	0.603247	0.345063	0.635899
55586	9.613892	0.129930	0.642230	-0.064348	0.273150	-0.180585	-0.334979	0.602713	0.343225	0.637749
55587	9.734198	0.180676	0.645358	-0.045837	0.214851	-0.057927	-0.334308	0.602198	0.341284	0.639626
55588	9.703537	0.144007	0.600918	-0.118336	0.166189	-0.091641	-0.333613	0.601683	0.339339	0.641505
55589	9.693802	0.021785	0.536284	-0.274734	0.146638	-0.109040	-0.332940	0.601172	0.337318	0.643397
55590	9.676314	-0.000364	0.548324	-0.304716	0.137730	-0.126626	-0.332350	0.600627	0.335392	0.645215
55591	9.626025	0.038124	0.640047	-0.237618	0.164887	-0.169674	-0.331739	0.600131	0.333573	0.646932
55592	9.325142	-0.118052	0.769626	-0.294180	0.346002	-0.466126	-0.331165	0.599632	0.332323	0.648331
55593	8.960143	-0.258225	0.817965	-0.376003	0.463253	-0.831379	-0.330567	0.599138	0.331633	0.649445
55594	8.882213	0.083805	0.802599	-0.110946	0.256077	-0.898261	-0.330249	0.598567	0.331584	0.650158
55595	9.194077	0.536347	0.528864	0.072665	-0.247464	-0.591417	-0.329709	0.597880	0.330591	0.651568
55596	9.240063	0.372379	0.421895	-0.145847	-0.274074	-0.560720	-0.329732	0.597042	0.328843	0.653208
55597	9.649439	-0.264639	0.377193	-0.738501	-0.004661	-0.180527	-0.330923	0.596342	0.328364	0.653486
55598	10.392742	-0.186338	0.412599	-0.709842	-0.072515	0.565410	-0.332780	0.595470	0.329874	0.652576
55599	11.000232	0.546735	0.297787	-0.210770	-0.608487	1.186314	-0.334434	0.594334	0.331651	0.651866
55600	10.441109	1.150858	0.210071	0.281772	-0.984616	0.643721	-0.336030	0.593036	0.333560	0.651252
55601	10.088028	1.922926	-0.002322	0.835686	-1.562006	0.303030	-0.336930	0.592286	0.334701	0.650884
55602	10.157696	1.904467	0.105632	0.871056	-1.458534	0.381962	-0.337175	0.592003	0.335478	0.650615
55603	10.495985	1.946230	-0.022077	0.806219	-1.592326	0.711973	-0.336817	0.591833	0.336394	0.650482
55604	10.590043	1.852199	0.015526	0.725044	-1.495641	0.808856	-0.336021	0.591415	0.337460	0.650722
55605	10.277853	1.739374	0.069828	0.658201	-1.353554	0.502307	-0.335230	0.590563	0.338937	0.651136
55606	9.973860	1.646997	0.253470	0.671639	-1.116332	0.215139	-0.334683	0.589383	0.340546	0.651646
55607	9.680701	1.548480	0.362039	0.639740	-0.945262	-0.068871	-0.334659	0.588002	0.342156	0.652063
55608	9.390925	1.614479	0.708314	0.878875	-0.666508	-0.321585	-0.335063	0.586728	0.343725	0.652178
55609	9.411743	1.725745	0.688599	0.942147	-0.733941	-0.293920	-0.335637	0.585698	0.345236	0.652011
55610	9.420683	1.672935	0.611319	0.842524	-0.762334	-0.292674	-0.336397	0.584620	0.346797	0.651758
55611	9.374253	1.699110	0.481407	0.789157	-0.877072	-0.346785	-0.337486	0.583351	0.348458	0.651446
55612	9.293630	1.653916	0.592558	0.805475	-0.751624	-0.418839	-0.338999	0.581934	0.350123	0.651034
55613	9.162801	1.626454	0.533439	0.758353	-0.780539	-0.555123	-0.340733	0.580671	0.351770	0.650369
55614	9.141522	1.698887	0.447160	0.779217	-0.889592	-0.579322	-0.342627	0.579608	0.353251	0.649519
55615	9.056383	1.974949	0.479788	1.047858	-0.998575	-0.644616	-0.344659	0.578683	0.354498	0.648589
55616	8.866092	2.233074	0.545120	1.334737	-1.063484	-0.813864	-0.346552	0.578213	0.355444	0.647480
55617	8.873617	2.193690	0.654021	1.375403	-0.944191	-0.801705	-0.348055	0.578428	0.356277	0.646023
55618	9.431584	1.559378	0.701428	0.827295	-0.600728	-0.282051	-0.349128	0.579282	0.356919	0.644322
55619	10.038163	0.961523	0.667501	0.273004	-0.344825	0.283907	-0.350337	0.580123	0.357812	0.642410
55620	10.447925	0.737558	0.759884	0.124668	-0.154575	0.686883	-0.351666	0.580842	0.358801	0.640481
55621	10.804748	0.652236	0.812307	0.081783	-0.068183	1.041638	-0.353182	0.581341	0.359682	0.638697
55622	11.011999	0.620982	1.000662	0.161794	0.109027	1.260384	-0.354938	0.581562	0.360343	0.637148
55623	10.892314	0.977662	0.895569	0.463470	-0.151394	1.149181	-0.356356	0.581889	0.360409	0.636020
55624	10.619544	1.485432	1.067126	1.037534	-0.241409	0.910426	-0.357330	0.582278	0.359820	0.635451
55625	10.313550	1.343643	1.101135	0.972713	-0.143516	0.599823	-0.357231	0.583062	0.358419	0.635579
55626	9.782814	0.844749	1.072954	0.576092	0.082327	0.047819	-0.356377	0.584143	0.356519	0.636134
55627	9.212846	0.443378	1.148270	0.316350	0.355754	-0.530179	-0.355313	0.585343	0.354249	0.636895
55628	8.955847	0.335410	1.246959	0.306249	0.490261	-0.782715	-0.354271	0.586732	0.351506	0.637716
55629	8.942303	-0.003894	1.374509	0.100917	0.747719	-0.796886	-0.353000	0.588475	0.347848	0.638819
55630	8.929823	-0.407001	1.267597	-0.269744	0.832165	-0.826654	-0.351632	0.590240	0.343721	0.640178
55631	8.967177	-0.849035	0.922871	-0.801141	0.729882	-0.823353	-0.350589	0.591393	0.339667	0.641847
55632	9.030472	-0.970451	1.061067	-0.819992	0.870452	-0.746992	-0.349932	0.592019	0.335670	0.643729
55633	9.121957	-0.965853	1.214353	-0.723303	0.949706	-0.637052	-0.349379	0.592846	0.331380	0.645489
55634	9.708600	-1.530643	1.043996	-1.299786	1.023384	-0.068318	-0.349143	0.593857	0.327366	0.646734
55635	10.278643	-1.674970	1.041320	-1.421575	1.019307	0.506240	-0.349187	0.594951	0.323893	0.647453
55636	10.837565	-1.499108	0.874126	-1.356092	0.707136	1.055845	-0.349481	0.596040	0.320977	0.647745
55637	11.051551	-0.970285	0.732395	-0.961328	0.252624	1.260996	-0.349810	0.597165	0.318378	0.647813
55638	10.984541	-0.621568	0.733199	-0.629460	0.038689	1.195772	-0.349759	0.598338	0.315630	0.648104
55639	10.657386	-0.526187	0.550761	-0.605726	-0.166104	0.853402	-0.349296	0.599443	0.312678	0.648763
55640	10.414251	-0.599916	0.583658	-0.616559	-0.101767	0.616436	-0.348198	0.600636	0.309568	0.649740
55641	10.294021	-0.703957	0.414911	-0.775676	-0.190226	0.482782	-0.346551	0.601944	0.306353	0.650933
55642	10.293508	-0.900093	0.387916	-0.938499	-0.113573	0.484072	-0.344716	0.603331	0.303189	0.652103
55643	10.149710	-1.296352	0.303796	-1.290333	0.049764	0.342211	-0.342741	0.604801	0.299816	0.653341
55644	9.852370	-1.611265	0.254921	-1.547324	0.215160	0.050873	-0.340901	0.606159	0.296688	0.654472
55645	9.519771	-1.828997	0.232619	-1.710341	0.353312	-0.274591	-0.339291	0.607195	0.294051	0.655538
55646	9.140869	-1.820232	0.336730	-1.618368	0.467133	-0.639641	-0.337627	0.608062	0.291763	0.656615
55647	8.884587	-1.744465	0.379732	-1.518101	0.483591	-0.891659	-0.335817	0.608773	0.289830	0.657739
55648	8.825986	-1.821287	0.250377	-1.657085	0.439611	-0.961777	-0.333661	0.609335	0.288050	0.659096
55649	8.663765	-1.815536	0.507650	-1.498044	0.664974	-1.098999	-0.331201	0.609764	0.286315	0.660695
55650	8.499907	-1.897244	0.533420	-1.550758	0.764903	-1.260346	-0.328427	0.610200	0.284823	0.662319
55651	8.414466	-1.904873	0.640206	-1.499668	0.882275	-1.338364	-0.325031	0.610779	0.283350	0.664090
55652	8.384575	-1.862820	0.638647	-1.479745	0.886838	-1.374510	-0.320918	0.611584	0.281772	0.666019
55653	8.452691	-1.810718	0.676863	-1.432814	0.913734	-1.309934	-0.316419	0.612517	0.280277	0.667942
55654	8.648934	-1.870443	0.625828	-1.535050	0.938667	-1.126111	-0.311541	0.613700	0.278692	0.669809
55655	8.748513	-2.056849	0.406265	-1.835147	0.934454	-1.055351	-0.306349	0.615056	0.277000	0.671660
55656	8.748897	-2.253022	0.338496	-2.036690	1.069288	-1.069571	-0.300810	0.616520	0.275218	0.673551
55657	8.614294	-2.335402	0.155318	-2.219286	1.060212	-1.231624	-0.295267	0.617889	0.273768	0.675338
55658	8.563757	-1.945103	0.416180	-1.766006	1.059933	-1.265644	-0.289703	0.618963	0.273038	0.677057
55659	8.835929	-1.560980	0.270963	-1.617206	0.747598	-1.014451	-0.283447	0.620595	0.272169	0.678560
55660	10.072088	-0.845592	0.278564	-1.202703	0.268409	0.223279	-0.276255	0.622616	0.269380	0.680784
55661	10.955391	-0.504077	0.548650	-0.865908	0.224852	1.131500	-0.268495	0.624367	0.263108	0.684727
55662	11.266879	-0.576105	0.649374	-0.875974	0.346411	1.448253	-0.262502	0.627139	0.256967	0.686846
55663	11.883185	-0.810921	1.061942	-0.757882	0.780309	2.095795	-0.258413	0.629819	0.252296	0.687675
55664	11.508276	-0.784477	0.961059	-0.744121	0.719860	1.715861	-0.253846	0.632244	0.247878	0.688758
55665	11.219446	0.166886	1.373522	0.245621	0.319006	1.484578	-0.250007	0.634213	0.245438	0.689225
55666	11.807085	1.649442	1.774947	1.495714	-0.529758	2.135556	-0.246338	0.636125	0.243457	0.689486
55667	12.381887	2.751026	1.965477	2.328823	-1.247361	2.747688	-0.242372	0.638327	0.240658	0.689839
55668	12.072566	2.736162	1.203533	1.772781	-1.722149	2.376380	-0.237648	0.640827	0.236473	0.690612
55669	11.369939	2.572549	0.891788	1.478403	-1.778228	1.647724	-0.231725	0.643485	0.231811	0.691733
55670	10.546496	2.644746	0.633486	1.361233	-1.964894	0.813257	-0.224260	0.646079	0.227304	0.693269
55671	10.230572	2.753282	0.633995	1.406472	-2.020900	0.511293	-0.215187	0.648513	0.222716	0.695359
55672	9.948142	2.378317	0.545291	1.071984	-1.737209	0.224829	-0.205214	0.650580	0.217691	0.698028
55673	9.568732	1.934387	0.436105	0.689197	-1.403004	-0.166506	-0.195380	0.652157	0.212330	0.701023
55674	8.941945	1.502015	0.405787	0.412110	-1.034283	-0.804956	-0.186128	0.653460	0.206652	0.704018
55675	8.265078	1.300873	0.455863	0.353650	-0.824468	-1.481624	-0.177531	0.654767	0.200566	0.706779
55676	7.885309	1.141135	0.443559	0.255757	-0.689076	-1.866827	-0.169399	0.656145	0.194450	0.709201
55677	7.825135	1.162572	0.548149	0.330871	-0.651633	-1.916447	-0.161508	0.657501	0.188138	0.711486
55678	8.132717	1.241203	0.460867	0.236562	-0.758115	-1.611266	-0.153873	0.658970	0.181758	0.713474
55679	8.678178	1.514182	0.636951	0.440031	-0.912205	-1.038668	-0.146106	0.660507	0.174841	0.715411
55680	9.084545	1.471663	0.724038	0.434337	-0.836691	-0.629538	-0.138179	0.662204	0.167636	0.717141
55681	9.405054	1.180944	0.475635	0.036634	-0.679853	-0.346308	-0.130037	0.664004	0.160135	0.718711
55682	9.395931	0.895425	0.209427	-0.332288	-0.524653	-0.392311	-0.122112	0.665915	0.152851	0.719919
55683	9.374642	0.695268	-0.010906	-0.612609	-0.414324	-0.441430	-0.114426	0.667907	0.145796	0.720799
55684	9.244011	0.337579	-0.293011	-0.987110	-0.170850	-0.612256	-0.107066	0.669924	0.138928	0.721414
55685	9.074905	0.382360	-0.651972	-1.280162	-0.319407	-0.802456	-0.100222	0.671977	0.132418	0.721711
55686	8.938165	0.292223	-0.785753	-1.407104	-0.258267	-0.950020	-0.093955	0.674178	0.126131	0.721628
55687	8.771343	0.284364	-0.944202	-1.520245	-0.282821	-1.122601	-0.088233	0.676635	0.120137	0.721074
55688	8.663761	0.411859	-0.889429	-1.387009	-0.371979	-1.212737	-0.083078	0.679448	0.114309	0.719988
55689	8.617265	0.444009	-1.021541	-1.456584	-0.429380	-1.257470	-0.078574	0.682543	0.108415	0.718475
55690	8.712940	0.639062	-0.843883	-1.188691	-0.564060	-1.134873	-0.074888	0.685701	0.102598	0.716714
55691	8.905895	0.394033	-0.714720	-1.078904	-0.299446	-0.939865	-0.072168	0.688904	0.096996	0.714699
55692	9.106105	0.167899	-0.604741	-0.969576	-0.069794	-0.736917	-0.070345	0.692089	0.091804	0.712486
55693	9.577698	0.220921	-0.517867	-0.818259	-0.120341	-0.254201	-0.069301	0.695210	0.087101	0.710137
55694	9.742916	-0.071030	-0.822534	-1.105514	0.061806	-0.097785	-0.068838	0.698428	0.082757	0.707539
55695	10.002655	-0.515176	-1.383095	-1.666636	0.337527	0.154206	-0.068702	0.701786	0.078462	0.704713
55696	10.215595	-0.227964	-1.615525	-1.739118	-0.030960	0.385047	-0.069465	0.705160	0.075168	0.701622
55697	10.715939	0.350536	-1.388113	-1.300321	-0.586670	0.903895	-0.070495	0.708311	0.072719	0.698597
55698	11.028670	0.279876	-1.179042	-1.015068	-0.510589	1.223986	-0.071524	0.711162	0.070864	0.695782
55699	11.556953	0.299157	-0.464131	-0.215159	-0.413998	1.748007	-0.072640	0.713756	0.069602	0.693132
55700	12.277515	0.267850	-0.277800	0.063330	-0.369376	2.465146	-0.073695	0.716161	0.069341	0.690561
55701	12.256985	0.726081	1.054715	1.547572	-0.540694	2.401458	-0.072732	0.718698	0.068776	0.688079
55702	12.527423	1.052930	1.980680	2.615799	-0.639527	2.625794	-0.069754	0.721530	0.068638	0.685433
55703	11.887417	1.203912	1.091137	1.832324	-0.902889	2.010046	-0.066515	0.724160	0.069948	0.682843
55704	10.187767	1.438562	0.699551	1.481135	-1.147893	0.328186	-0.063924	0.726265	0.072145	0.680623
55705	9.041178	0.792621	1.074938	1.699651	-0.394348	-0.841510	-0.061504	0.727465	0.073877	0.679378
55706	9.376040	0.204120	1.628919	2.158106	0.348028	-0.548429	-0.058666	0.727799	0.074721	0.679179
55707	10.423686	-0.448306	1.666810	2.126015	1.070994	0.481257	-0.056391	0.727831	0.076103	0.679184
55708	11.581693	-0.928279	1.069349	1.507588	1.517624	1.657472	-0.056187	0.727830	0.079077	0.678862
55709	11.943696	-1.218237	0.799175	1.191729	1.810009	2.022774	-0.058263	0.727338	0.083139	0.678728
55710	11.289267	-1.389896	0.421382	0.715123	1.898969	1.387278	-0.062149	0.726016	0.087542	0.679246
55711	10.316371	-1.297708	0.652855	0.853694	1.819951	0.409661	-0.067818	0.724045	0.092325	0.680174
55712	9.721446	-1.292189	0.646787	0.751222	1.773552	-0.175040	-0.074659	0.721515	0.097268	0.681454
55713	9.404727	-1.027614	0.672139	0.755786	1.484071	-0.475532	-0.082717	0.718845	0.102555	0.682570
55714	9.053645	-0.836783	0.593060	0.651989	1.231650	-0.808361	-0.091478	0.716143	0.107923	0.683464
55715	8.918223	-0.686757	0.456320	0.500850	1.004687	-0.927087	-0.100654	0.713342	0.113754	0.684158
55716	8.874385	-0.710612	0.338525	0.322190	0.951268	-0.960278	-0.109925	0.710270	0.120316	0.684804
55717	9.038309	-1.078828	0.380584	0.175552	1.280863	-0.794500	-0.119396	0.706719	0.127855	0.685526
55718	9.279885	-1.442069	0.315521	-0.098237	1.569415	-0.548685	-0.129249	0.702593	0.136603	0.686292
55719	9.507155	-1.532947	0.302224	-0.249035	1.619355	-0.318385	-0.139601	0.697974	0.146306	0.686978
55720	9.528204	-1.370038	-0.049478	-0.617436	1.293474	-0.293724	-0.150468	0.692909	0.156986	0.687453
55721	9.383546	-0.948271	-0.207467	-0.682997	0.807345	-0.438576	-0.161531	0.687464	0.168459	0.687694
55722	9.271930	-0.888206	-0.794957	-1.269387	0.444118	-0.561734	-0.172600	0.681772	0.180796	0.687538
55723	8.759891	-0.766092	-0.486543	-1.020124	0.450909	-1.076866	-0.183629	0.675580	0.193866	0.687232
55724	8.393394	-1.247985	-0.323684	-1.215726	0.918354	-1.458702	-0.194357	0.669547	0.207214	0.686290
55725	8.457681	-1.569901	-0.408884	-1.562349	1.111356	-1.417019	-0.205458	0.663687	0.221430	0.684307
55726	8.887623	-1.681180	-0.550126	-1.850981	1.087513	-1.008753	-0.216952	0.657917	0.236193	0.681388
55727	9.591235	-1.625062	-0.528054	-1.918056	1.022087	-0.315998	-0.229194	0.651855	0.251447	0.677739
55728	9.871197	-1.567560	-0.545641	-1.991797	0.920520	-0.046416	-0.241939	0.645237	0.266649	0.673820
55729	9.960939	-0.725415	-0.254971	-1.282514	0.456871	0.084668	-0.255076	0.638492	0.281905	0.669174
55730	11.053973	1.016601	-0.409514	-0.248204	-0.880941	1.257716	-0.267936	0.632154	0.295621	0.664228
55731	11.529482	2.669712	-0.457927	0.933936	-2.018444	1.820001	-0.280258	0.625635	0.307025	0.660130
55732	11.082134	2.454001	-0.350017	0.905840	-1.797700	1.363447	-0.291464	0.619161	0.316068	0.657107
55733	10.377984	1.919327	0.265298	0.940525	-0.991480	0.655794	-0.302645	0.612948	0.325227	0.653398
55734	10.560430	1.906655	0.517867	1.078826	-0.788452	0.847550	-0.314071	0.606527	0.333884	0.649620
55735	10.703586	2.247164	1.147332	1.713780	-0.475512	1.039488	-0.326064	0.599890	0.342151	0.645560
55736	10.769386	2.917984	1.398889	2.417128	-0.624050	1.151764	-0.338142	0.593172	0.350272	0.641184
55737	10.903697	3.414748	1.593392	2.947952	-0.696038	1.319026	-0.349655	0.586588	0.357639	0.636985
55738	10.294535	3.039720	1.362741	2.573402	-0.667682	0.675694	-0.360054	0.580795	0.364027	0.632868
55739	9.011969	2.343961	0.957724	1.881457	-0.625079	-0.664119	-0.368999	0.575531	0.370507	0.628752
55740	8.082247	2.035853	0.797877	1.609769	-0.559427	-1.615150	-0.377473	0.569842	0.378073	0.624383
55741	7.876580	2.082540	0.666168	1.611372	-0.650705	-1.825123	-0.385976	0.563450	0.386482	0.619821
55742	8.254652	2.253640	0.783068	1.781725	-0.584467	-1.427284	-0.394234	0.556946	0.395154	0.615015
55743	8.886392	2.349921	0.629494	1.762700	-0.744691	-0.800227	-0.402558	0.550254	0.403827	0.609993
55744	9.360624	2.343578	0.687327	1.737198	-0.668633	-0.319480	-0.410963	0.543540	0.411817	0.605046
55745	9.650002	3.015450	0.714826	2.360259	-0.827189	0.009287	-0.419738	0.536500	0.419492	0.600012
55746	9.326394	3.598456	0.806793	2.972191	-0.832596	-0.270466	-0.428108	0.529714	0.426473	0.595187
55747	8.715527	3.592640	0.723439	2.998612	-0.809262	-0.882741	-0.435597	0.523736	0.432824	0.590439
55748	8.415488	3.091997	0.274520	2.446432	-1.045632	-1.246615	-0.442123	0.518816	0.438617	0.585639
55749	8.618339	2.826006	0.136355	2.167614	-1.080192	-1.071124	-0.448264	0.514386	0.444650	0.580304
55750	8.899242	2.715636	0.248124	2.089203	-0.908172	-0.788121	-0.454313	0.510232	0.450553	0.574687
55751	9.096935	2.315484	0.824965	1.807095	-0.225775	-0.567183	-0.459932	0.506876	0.455826	0.569000
55752	9.683831	1.421370	0.994091	0.934721	0.092684	-0.019703	-0.465155	0.503772	0.461330	0.563044
55753	10.483572	0.845204	1.096410	0.344427	0.269488	0.752835	-0.469634	0.500894	0.466946	0.557234
55754	11.230885	0.438076	1.221234	-0.084882	0.446722	1.483731	-0.473682	0.497830	0.472992	0.551425
55755	11.907934	-0.299277	0.642243	-0.916194	-0.040375	2.080991	-0.477153	0.494551	0.479763	0.545501
55756	11.984087	0.418502	0.570781	-0.234934	-0.115910	2.189409	-0.481310	0.489282	0.487408	0.539794
55757	10.700818	1.268970	0.935600	0.658148	0.308161	0.979193	-0.486716	0.482027	0.494911	0.534622
55758	9.333442	2.174330	1.703998	1.601547	1.149688	-0.280780	-0.492646	0.474300	0.501679	0.529771
55759	8.962299	2.285426	1.539853	1.672512	1.033376	-0.644719	-0.498329	0.466998	0.507721	0.525168
55760	9.098918	2.277425	1.145512	1.614312	0.645023	-0.524686	-0.503834	0.459941	0.512487	0.521501
55761	9.044776	1.765243	0.291734	1.112448	-0.233722	-0.662993	-0.508906	0.453243	0.516214	0.518756
55762	9.317046	1.455532	0.139528	0.766326	-0.442688	-0.423223	-0.514097	0.445576	0.521251	0.515232
55763	9.641962	1.072763	-0.282508	0.364325	-0.940122	-0.159640	-0.518911	0.437619	0.526416	0.511963
55764	9.498674	0.985248	-0.396181	0.270845	-1.074062	-0.319246	-0.523932	0.429497	0.532064	0.507874
55765	9.068620	1.087640	-0.373021	0.386526	-1.013155	-0.736009	-0.528993	0.422226	0.537483	0.502995
55766	8.671146	1.839699	-0.128029	1.117769	-0.615032	-1.039894	-0.533911	0.416012	0.542633	0.497416
55767	8.752517	2.936051	0.000922	2.163104	-0.269660	-0.841906	-0.538420	0.410657	0.547526	0.491609
55768	9.074330	3.729536	0.144968	2.882783	0.055693	-0.433991	-0.542231	0.406372	0.551704	0.486282
55769	9.345122	3.696840	0.202593	2.815052	0.150821	-0.164302	-0.545229	0.403078	0.555336	0.481514
55770	9.676197	3.181243	0.102125	2.307933	-0.023558	0.108608	-0.547387	0.400440	0.558737	0.477314
55771	9.770296	2.525433	0.019193	1.680501	-0.204688	0.135711	-0.549132	0.398103	0.562068	0.473336
55772	9.635825	2.424245	0.122802	1.560697	-0.062373	0.000632	-0.550696	0.395843	0.565437	0.469386
55773	9.279777	2.534340	-0.028299	1.726944	-0.097430	-0.349819	-0.551997	0.394087	0.568389	0.465757
55774	9.156258	3.080079	0.129519	2.213825	0.262235	-0.412121	-0.553322	0.392465	0.571174	0.462133
55775	9.203446	3.331185	0.043264	2.473012	0.298639	-0.347124	-0.554679	0.391127	0.573439	0.458823
55776	9.193785	2.998128	0.013589	2.169218	0.225173	-0.391527	-0.556325	0.389838	0.575307	0.455578
55777	9.129492	2.915937	0.090570	2.085649	0.320258	-0.463577	-0.558493	0.388340	0.576959	0.452102
55778	9.043675	3.036376	0.192386	2.193833	0.497615	-0.539934	-0.561095	0.386684	0.578518	0.448291
55779	8.974564	3.393151	0.219570	2.549518	0.678706	-0.585359	-0.563653	0.385257	0.579958	0.444434
55780	9.114173	3.759434	0.294220	2.884744	0.902482	-0.423780	-0.566063	0.384070	0.581344	0.440570
55781	9.212027	3.835973	0.302268	2.970791	0.978267	-0.331937	-0.568347	0.383127	0.582571	0.436814
55782	9.243408	3.531719	0.180310	2.749648	0.807680	-0.339937	-0.570621	0.382386	0.583529	0.433205
55783	9.182527	3.486201	0.014887	2.794494	0.683627	-0.421422	-0.573169	0.381129	0.584596	0.429495
55784	9.186820	3.324699	-0.115903	2.714964	0.544746	-0.442695	-0.575946	0.379351	0.585765	0.425745
55785	9.315608	3.013750	0.311278	2.288747	0.860733	-0.326868	-0.578648	0.377518	0.586961	0.422047
55786	9.779793	2.254450	0.089511	1.664796	0.387194	0.077373	-0.580807	0.375905	0.588549	0.418293
55787	10.486475	1.705480	0.134025	1.127105	0.221218	0.750142	-0.582823	0.373916	0.590455	0.414569
55788	11.017932	1.617846	-0.028966	1.085438	0.049182	1.270286	-0.583714	0.371632	0.593373	0.411188
55789	11.656269	1.669751	-0.949695	1.438347	-0.769185	1.887648	-0.583785	0.368668	0.596611	0.409065
55790	11.553720	1.242362	0.059985	0.597912	-0.005250	1.792387	-0.584326	0.365107	0.598706	0.408425
55791	10.881315	-0.105304	0.644894	-0.876837	-0.016188	1.052886	-0.585752	0.361286	0.600252	0.407510
55792	10.678186	-1.550785	1.012168	-2.348393	-0.314800	0.762700	-0.587632	0.358023	0.601116	0.406408
55793	10.953321	-2.308081	1.179584	-3.119574	-0.551553	0.988130	-0.589926	0.354276	0.602373	0.404503
55794	11.202937	-2.223742	1.085803	-3.017822	-0.672822	1.235823	-0.592154	0.350078	0.604254	0.402089
55795	11.754947	-1.836277	0.618630	-2.495201	-1.003902	1.793321	-0.594380	0.345926	0.606625	0.398816
55796	11.815502	-1.763683	0.562359	-2.393769	-1.057799	1.857090	-0.597286	0.342410	0.608475	0.394670
55797	11.473041	-2.077177	0.088884	-2.386999	-1.618194	1.484945	-0.600820	0.339693	0.609913	0.389396
55798	10.927583	-2.168772	-0.199010	-2.228967	-1.889700	0.939766	-0.604951	0.337245	0.610883	0.383564
55799	10.194171	-1.996680	-0.162084	-1.979955	-1.738881	0.236663	-0.609290	0.334989	0.611283	0.377996
55800	9.508221	-1.361136	0.047842	-1.429450	-1.212559	-0.392121	-0.613622	0.332570	0.611431	0.372851
55801	9.254103	-1.071194	-0.045037	-1.053778	-1.144215	-0.627492	-0.617661	0.330057	0.611424	0.368398
55802	8.929253	-1.201476	-0.052077	-1.090191	-1.219962	-0.952634	-0.621743	0.327251	0.611011	0.364702
55803	8.395400	-1.004154	0.293847	-1.039769	-0.823018	-1.456939	-0.625905	0.324220	0.610196	0.361642
55804	7.777344	-0.704189	0.312167	-0.743507	-0.643211	-2.059391	-0.629716	0.321344	0.609286	0.359119
55805	7.457022	-0.068843	0.256832	-0.141290	-0.354154	-2.360685	-0.633023	0.318390	0.608749	0.356839
55806	7.569797	0.363440	0.038535	0.369816	-0.329520	-2.250282	-0.635610	0.315892	0.608459	0.354951
55807	8.158933	0.566817	-0.151307	0.674526	-0.431515	-1.671979	-0.637555	0.313983	0.608461	0.353148
55808	8.426327	0.755849	-0.368471	0.974655	-0.529672	-1.417478	-0.638967	0.312576	0.608635	0.351539
55809	8.654173	0.782226	-0.491947	1.081834	-0.633712	-1.200102	-0.639906	0.311396	0.608959	0.350316
55810	8.804779	0.691397	-0.536733	1.036150	-0.734311	-1.056122	-0.640316	0.309929	0.609712	0.349558
55811	8.790619	0.378936	-0.659906	0.836274	-1.015209	-1.087780	-0.640188	0.308241	0.610910	0.349192
55812	8.841138	0.467372	-0.550214	0.818991	-0.883236	-1.024290	-0.639573	0.306145	0.612723	0.348987
55813	8.614403	0.904375	-0.700891	1.215598	-0.737140	-1.239719	-0.638303	0.303615	0.615456	0.348714
55814	8.690541	1.449259	-0.801585	1.654715	-0.504368	-1.136544	-0.636286	0.300938	0.618840	0.348732
55815	8.721902	1.790591	-0.627657	1.748620	-0.162489	-1.061289	-0.633576	0.298234	0.622474	0.349519
55816	8.927122	1.727291	-0.583607	1.571664	-0.181695	-0.839751	-0.630394	0.295329	0.626273	0.350950
55817	9.143824	2.157799	-0.597494	1.812954	0.030575	-0.575061	-0.627166	0.291839	0.630087	0.352823
55818	9.771364	2.033445	-0.458425	1.495056	-0.011045	0.065983	-0.624004	0.289015	0.632705	0.356053
55819	10.222914	1.576910	0.269800	0.577893	0.218016	0.516156	-0.621422	0.287064	0.633652	0.360436
55820	10.652363	1.399116	0.553467	0.158882	0.255975	0.941161	-0.619050	0.285277	0.635238	0.363134
55821	12.934038	1.470938	2.326447	-1.052027	1.504482	3.282906	-0.617040	0.284293	0.637448	0.363455
55822	14.541696	1.341574	2.321509	-1.320622	1.318414	4.855896	-0.615585	0.285832	0.638791	0.362355
55823	14.168641	-0.279967	1.589365	-2.154338	-0.094561	4.283539	-0.615016	0.290507	0.637554	0.361780
55824	11.698960	-1.579099	2.139325	-3.286681	-0.102060	1.725170	-0.615225	0.295530	0.635130	0.361622
55825	10.661802	-0.590953	2.466878	-2.533918	0.871587	0.814064	-0.615405	0.299147	0.633300	0.361552
55826	10.569357	1.491972	2.845931	-0.976445	2.405856	0.924846	-0.614771	0.303124	0.631212	0.362965
55827	10.887369	2.099495	2.582530	-0.277167	2.529708	1.283951	-0.613076	0.308606	0.628304	0.366244
55828	11.211149	1.933806	2.154183	-0.121019	2.074571	1.578141	-0.610345	0.315539	0.624402	0.371532
55829	10.633395	1.773320	1.727217	0.068336	1.666672	0.976857	-0.606891	0.322588	0.620015	0.378421
55830	10.047768	2.033396	1.501844	0.486850	1.619779	0.409195	-0.602435	0.329740	0.615254	0.387047
55831	8.984200	2.437187	1.306954	1.025937	1.665874	-0.618360	-0.597223	0.336619	0.610148	0.397154
55832	8.769834	2.527671	1.073071	1.252650	1.436611	-0.822865	-0.590833	0.344064	0.604508	0.408787
55833	9.212897	2.114646	0.800523	0.983058	0.890242	-0.419580	-0.583738	0.351759	0.598528	0.421047
55834	9.255616	1.458469	0.509210	0.492479	0.276847	-0.446085	-0.576244	0.360225	0.591695	0.433679
55835	9.257232	1.284232	0.576775	0.295146	0.210007	-0.456045	-0.568768	0.369128	0.584384	0.445806
55836	9.054148	0.995764	0.591875	0.035594	0.092620	-0.685287	-0.561334	0.378637	0.576231	0.457707
55837	8.728690	1.013622	0.725131	0.052260	0.209687	-0.998132	-0.553949	0.388601	0.567477	0.469149
55838	8.414665	1.240175	0.869967	0.287286	0.393081	-1.276641	-0.546648	0.398741	0.558287	0.480101
55839	8.335174	1.497760	0.971252	0.565677	0.507636	-1.322483	-0.539161	0.409323	0.548574	0.490742
