// General information: 
//  MT Manager version: 2021.0.0 
//  XDA version: 2021.0.0 build 5908 rev 109668 built on 2021-04-19
// Device information: 
//  DeviceId: 00B43DF0
//  ProductCode: MTW2-3A7G6
//  Firmware Version: 4.3.5
//  Hardware Version: 1.1.0
// Device settings: 
//  Filter Profile: human(46.1)
//  Option Flags: Orientation Smoother Disabled, Position/Velocity Smoother Disabled, Continuous Zero Rotation Update Disabled, AHS Disabled, ICC Disabled
// Coordinate system: ENU
PacketCounter	Acc_X	Acc_Y	Acc_Z	FreeAcc_E	FreeAcc_N	FreeAcc_U	Quat_q0	Quat_q1	Quat_q2	Quat_q3
54636	-8.984771	2.714581	2.505751	0.125506	-0.057138	-0.099046	0.406631	0.586263	0.153935	-0.683557
54637	-8.926191	2.757560	2.512879	0.152546	-0.102867	-0.139956	0.406833	0.586150	0.153597	-0.683611
54638	-8.975095	2.722638	2.561047	0.092286	-0.088427	-0.091180	0.407173	0.585997	0.153411	-0.683581
54639	-9.035481	2.717584	2.579565	0.074221	-0.068140	-0.031625	0.407552	0.585833	0.153306	-0.683519
54640	-9.044779	2.705933	2.579689	0.065298	-0.050177	-0.026058	0.407918	0.585639	0.153179	-0.683496
54641	-9.036483	2.671120	2.520939	0.079756	0.015275	-0.058640	0.408285	0.585462	0.153134	-0.683438
54642	-9.023890	2.679822	2.482594	0.112204	0.037811	-0.078146	0.408572	0.585330	0.152986	-0.683412
54643	-9.025196	2.708569	2.548671	0.087912	-0.018666	-0.051635	0.408899	0.585206	0.152858	-0.683352
54644	-9.062491	2.663241	2.552118	0.050269	0.027520	-0.028434	0.409273	0.585076	0.152756	-0.683262
54645	-9.080794	2.637643	2.532021	0.043197	0.070780	-0.023804	0.409652	0.584947	0.152624	-0.683175
54646	-8.978630	2.598842	2.524269	0.020075	0.068629	-0.130921	0.410033	0.584836	0.152413	-0.683088
54647	-9.007049	2.575321	2.486678	0.024718	0.128193	-0.121159	0.410406	0.584740	0.152098	-0.683017
54648	-9.068615	2.639525	2.420048	0.111884	0.166458	-0.064699	0.410685	0.584721	0.151713	-0.682951
54649	-9.064714	2.586362	2.445994	0.050820	0.187269	-0.075976	0.410977	0.584717	0.151437	-0.682840
54650	-9.068858	2.584996	2.535577	-0.014835	0.133806	-0.048600	0.411116	0.584771	0.151177	-0.682768
54651	-9.024334	2.640603	2.521321	0.033681	0.095302	-0.078303	0.411233	0.584804	0.151110	-0.682684
54652	-8.990096	2.601832	2.524239	0.002391	0.104669	-0.119794	0.411308	0.584824	0.151189	-0.682605
54653	-8.979757	2.601691	2.540817	-0.009268	0.088469	-0.124929	0.411335	0.584852	0.151276	-0.682545
54654	-8.989492	2.617325	2.508713	0.023143	0.103307	-0.120227	0.411340	0.584894	0.151348	-0.682490
54655	-9.005453	2.599584	2.516902	0.003340	0.113473	-0.108156	0.411400	0.584923	0.151424	-0.682411
54656	-9.044458	2.622695	2.539497	0.003168	0.098074	-0.059730	0.411402	0.584972	0.151409	-0.682372
54657	-9.111590	2.643046	2.554844	0.004903	0.100698	0.011967	0.411325	0.585043	0.151301	-0.682381
54658	-9.144685	2.623336	2.573795	-0.024707	0.112569	0.042175	0.411193	0.585126	0.151136	-0.682427
54659	-9.109148	2.625974	2.611931	-0.049000	0.071231	0.020268	0.410993	0.585217	0.150928	-0.682515
54660	-9.068728	2.620422	2.574527	-0.028175	0.084938	-0.028587	0.410754	0.585323	0.150680	-0.682623
54661	-9.043012	2.669660	2.569382	0.010382	0.047779	-0.040150	0.410489	0.585477	0.150445	-0.682702
54662	-9.031262	2.686234	2.572056	0.019341	0.029989	-0.045715	0.410259	0.585593	0.150303	-0.682771
54663	-9.035004	2.653490	2.596128	-0.021935	0.033166	-0.044852	0.410052	0.585691	0.150268	-0.682820
54664	-9.014697	2.651621	2.629893	-0.045368	0.000668	-0.055119	0.409830	0.585744	0.150287	-0.682904
54665	-8.996557	2.637339	2.616631	-0.045351	0.007998	-0.079331	0.409653	0.585796	0.150419	-0.682936
54666	-9.006956	2.644967	2.644313	-0.057129	-0.015804	-0.060253	0.409348	0.585856	0.150476	-0.683055
54667	-9.059776	2.647322	2.661325	-0.066238	-0.013376	-0.006264	0.409092	0.585904	0.150585	-0.683143
54668	-9.093534	2.668611	2.655214	-0.044721	-0.013637	0.029153	0.408753	0.585929	0.150617	-0.683318
54669	-9.100901	2.681315	2.609716	-0.001494	0.008518	0.027352	0.408406	0.585934	0.150645	-0.683515
54670	-9.079417	2.693049	2.632163	-0.004302	-0.025584	0.016653	0.408103	0.585921	0.150638	-0.683708
54671	-9.075011	2.676459	2.617199	-0.003296	-0.009147	0.004078	0.407796	0.585923	0.150578	-0.683903
54672	-9.068987	2.676313	2.589380	0.018295	0.005453	-0.008928	0.407555	0.585903	0.150571	-0.684065
54673	-9.057046	2.659025	2.606459	-0.003329	-0.002071	-0.020134	0.407323	0.585909	0.150558	-0.684200
54674	-9.094794	2.664075	2.629263	-0.013360	-0.008490	0.022218	0.407108	0.585874	0.150568	-0.684357
54675	-9.095685	2.583877	2.667100	-0.095029	0.013992	0.011370	0.406902	0.585851	0.150600	-0.684492
54676	-9.101101	2.563155	2.695301	-0.126485	0.008171	0.018304	0.406616	0.585815	0.150520	-0.684710
54677	-9.055813	2.566738	2.693330	-0.118406	-0.010922	-0.023112	0.406316	0.585772	0.150412	-0.684949
54678	-9.009726	2.539854	2.703862	-0.140810	-0.019433	-0.070168	0.406013	0.585701	0.150295	-0.685215
54679	-8.994395	2.554306	2.696960	-0.121063	-0.029832	-0.082237	0.405719	0.585602	0.150177	-0.685500
54680	-8.992206	2.608033	2.721864	-0.093497	-0.082101	-0.063089	0.405410	0.585473	0.150178	-0.685792
54681	-9.033429	2.581830	2.713210	-0.100530	-0.046524	-0.034246	0.405144	0.585287	0.150353	-0.686070
54682	-9.117943	2.527961	2.768081	-0.169662	-0.021335	0.044315	0.404901	0.585021	0.150621	-0.686381
54683	-9.171028	2.432172	2.842042	-0.280933	0.005796	0.087891	0.404651	0.584747	0.150799	-0.686723
54684	-9.219874	2.365093	2.951529	-0.395147	-0.008777	0.144975	0.404355	0.584429	0.150794	-0.687169
54685	-9.219201	2.292838	3.059068	-0.511189	-0.033750	0.154569	0.403976	0.584084	0.150445	-0.687762
54686	-9.259500	2.223399	3.098830	-0.580123	0.006643	0.184712	0.403296	0.583786	0.149536	-0.688611
54687	-9.390976	2.268736	3.465137	-0.789154	-0.206173	0.418610	0.402486	0.583379	0.148319	-0.689692
54688	-9.444051	2.267394	4.061348	-1.186799	-0.566426	0.632231	0.401899	0.582648	0.147040	-0.690925
54689	-9.702852	2.611143	4.930923	-1.507978	-1.241642	1.208271	0.402327	0.580806	0.146750	-0.692288
54690	-9.716448	2.070307	5.170500	-2.001439	-1.026845	1.158581	0.404411	0.577222	0.148635	-0.693667
54691	-9.687793	2.055533	5.362667	-2.039812	-1.132245	1.205145	0.407235	0.572384	0.151412	-0.695421
54692	-9.481933	1.633164	5.304157	-2.182232	-0.885404	0.918595	0.410750	0.566383	0.155384	-0.697389
54693	-9.466696	1.395018	5.762466	-2.513666	-1.033817	1.021560	0.413903	0.560052	0.159065	-0.699803
54694	-9.680190	1.190492	6.355593	-2.882418	-1.202978	1.401523	0.416726	0.553166	0.162675	-0.702769
54695	-9.960522	0.739976	6.639290	-3.211494	-0.979227	1.700938	0.418936	0.545773	0.165951	-0.706459
54696	-10.029177	0.444308	6.757301	-3.309680	-0.806152	1.799155	0.420180	0.538000	0.168289	-0.711115
54697	-9.884635	0.346967	6.627036	-3.102133	-0.648702	1.663168	0.420392	0.529845	0.169796	-0.716732
54698	-9.840919	0.428922	6.547040	-2.773089	-0.571973	1.670737	0.419581	0.521472	0.170238	-0.723213
54699	-9.971123	0.624594	6.548552	-2.379736	-0.527165	1.881333	0.417985	0.512846	0.169866	-0.730358
54700	-10.137946	0.646425	6.640547	-2.156487	-0.408239	2.123342	0.415819	0.503719	0.168893	-0.738131
54701	-10.122416	0.631865	6.551819	-1.859596	-0.210880	2.115377	0.413157	0.494045	0.167295	-0.746480
54702	-10.254217	0.672991	6.504156	-1.506100	0.004448	2.255000	0.410046	0.483930	0.165048	-0.755270
54703	-10.181436	0.793553	6.886341	-1.370940	-0.186626	2.426156	0.406631	0.473264	0.162323	-0.764411
54704	-10.059657	0.912537	7.162134	-1.170556	-0.318095	2.509799	0.403251	0.461810	0.159626	-0.773718
54705	-9.991371	0.897478	7.112785	-0.854744	-0.132705	2.453734	0.400001	0.449605	0.157056	-0.783063
54706	-9.956834	0.860792	7.031531	-0.514407	0.101614	2.395295	0.396894	0.436711	0.154667	-0.792361
54707	-9.970224	0.890909	7.119825	-0.191101	0.214927	2.467182	0.393807	0.423194	0.152504	-0.801602
54708	-9.871399	0.844645	7.404973	-0.053600	0.207388	2.553858	0.390809	0.408936	0.150789	-0.810741
54709	-9.772119	0.691250	7.622462	0.060189	0.310040	2.595327	0.387995	0.393905	0.149483	-0.819728
54710	-9.836033	0.646880	7.686625	0.421723	0.513939	2.668952	0.385057	0.378157	0.148331	-0.828690
54711	-9.616284	0.370549	7.554661	0.607019	0.828291	2.377942	0.381871	0.361877	0.147110	-0.837603
54712	-9.349108	0.076099	7.412860	0.748477	1.135579	2.040411	0.378179	0.345647	0.144874	-0.846475
54713	-9.275589	0.197610	7.570616	1.122261	1.124193	2.055365	0.373943	0.329796	0.141297	-0.855241
54714	-9.035856	0.249194	7.905002	1.269041	0.995100	2.086109	0.369370	0.313945	0.137080	-0.863836
54715	-8.649138	0.508699	8.247588	1.480505	0.646294	2.039052	0.364766	0.297732	0.132797	-0.872162
54716	-8.365690	0.537437	8.385841	1.671737	0.601821	1.910061	0.360479	0.280773	0.129633	-0.880009
54717	-8.161836	0.372015	8.102526	1.944592	0.905993	1.491588	0.356330	0.263288	0.126987	-0.887458
54718	-7.737456	0.058637	7.763293	1.983316	1.195913	0.900010	0.352146	0.245634	0.124523	-0.894512
54719	-7.378365	-0.225526	7.550718	2.002162	1.441011	0.454061	0.347540	0.228407	0.121062	-0.901327
54720	-6.986720	-0.040924	7.691273	2.167421	1.193130	0.278808	0.342838	0.211576	0.116865	-0.907766
54721	-6.577029	0.027575	8.062963	2.150361	0.941019	0.323794	0.338233	0.194900	0.112587	-0.913749
54722	-6.245269	-0.065906	8.419299	2.085075	0.864065	0.423831	0.333745	0.177978	0.108876	-0.919285
54723	-5.769062	-0.250859	8.320829	1.977583	0.918233	0.077512	0.329358	0.160920	0.105492	-0.924391
54724	-5.425260	-0.300404	7.925386	2.097250	1.024209	-0.491837	0.325031	0.144107	0.102034	-0.929073
54725	-5.064245	-0.412644	7.506987	2.125271	1.161727	-1.077861	0.320734	0.127941	0.097820	-0.933377
54726	-4.657684	-0.329920	7.656000	2.099025	0.965403	-1.148282	0.316601	0.112376	0.093132	-0.937263
54727	-4.244299	-0.127877	8.077651	2.087869	0.607905	-0.950244	0.312691	0.096972	0.088846	-0.940706
54728	-3.864517	-0.298596	8.132564	1.932569	0.640920	-1.037172	0.308938	0.081421	0.086128	-0.943668
54729	-3.275433	-0.675421	7.840027	1.517679	0.782496	-1.462306	0.305065	0.066119	0.083167	-0.946386
54730	-2.932507	-0.739863	7.465020	1.458252	0.828711	-1.935174	0.301169	0.051648	0.079391	-0.948856
54731	-2.720455	-0.686431	7.469317	1.515600	0.787020	-2.018984	0.297290	0.038195	0.074241	-0.951130
54732	-2.244015	-0.488991	7.755358	1.410869	0.443268	-1.861019	0.293369	0.025383	0.068830	-0.953180
54733	-1.626714	-0.222393	7.987513	1.223246	-0.023459	-1.750721	0.289400	0.012979	0.063998	-0.954978
54734	-1.240541	-0.144391	7.708897	1.112293	-0.155131	-2.084653	0.285264	0.000913	0.060812	-0.956517
54735	-1.069678	-0.264958	7.631234	1.065586	-0.053779	-2.176652	0.280987	-0.010620	0.058500	-0.957868
54736	-0.992043	-0.606775	7.799482	0.987874	0.246219	-1.993159	0.276492	-0.021696	0.056585	-0.959104
54737	-0.812799	-0.709107	8.079043	0.965411	0.282135	-1.724421	0.271859	-0.032425	0.054597	-0.960240
54738	-0.422922	-0.884577	8.010762	0.695795	0.307696	-1.778242	0.267125	-0.042686	0.052269	-0.961296
54739	-0.198257	-0.868435	7.626391	0.612803	0.291076	-2.164617	0.262626	-0.052115	0.048784	-0.962253
54740	-0.032863	-0.629529	7.515431	0.699336	0.101103	-2.304164	0.258324	-0.061016	0.044552	-0.963100
54741	0.018954	-0.818022	7.778509	0.711254	0.321287	-2.030418	0.254273	-0.069324	0.040005	-0.963815
54742	0.382259	-0.740352	7.864486	0.557184	0.174298	-1.925886	0.250379	-0.077374	0.035147	-0.964411
54743	0.639095	-0.635372	7.789409	0.474982	0.067252	-1.986123	0.246665	-0.085023	0.030083	-0.964895
54744	0.997321	-0.566884	7.708068	0.277779	-0.056110	-2.024983	0.243050	-0.092341	0.025053	-0.965283
54745	1.103974	-0.546852	7.517465	0.245217	-0.017946	-2.199004	0.239551	-0.099094	0.019913	-0.965608
54746	1.185597	-0.630049	7.342712	0.178721	0.116803	-2.351374	0.236115	-0.105303	0.014987	-0.965886
54747	1.675315	-0.293019	7.334032	-0.028051	-0.307814	-2.290465	0.232886	-0.110848	0.009671	-0.966118
54748	1.871488	0.124859	7.765852	0.142519	-0.662180	-1.852358	0.229759	-0.115876	0.005791	-0.966307
54749	1.765638	0.077838	7.927295	0.313174	-0.500762	-1.712310	0.226562	-0.120734	0.004163	-0.966476
54750	1.863254	-0.067056	7.507931	0.135245	-0.399398	-2.088246	0.223310	-0.125475	0.004312	-0.966628
54751	2.436940	-0.210029	7.188499	-0.438309	-0.516284	-2.249731	0.220240	-0.129668	0.004748	-0.966777
54752	2.363831	-0.346748	7.463467	-0.305351	-0.339505	-1.989485	0.217130	-0.133336	0.006022	-0.966975
54753	2.190594	-0.867580	6.953278	-0.454453	0.188486	-2.487576	0.214450	-0.136164	0.006354	-0.967176
54754	2.476283	-1.039132	6.535789	-0.853338	0.231954	-2.802256	0.212277	-0.138056	0.004371	-0.967398
54755	2.871119	-0.553492	6.518601	-0.996667	-0.316100	-2.745290	0.210851	-0.138709	-0.000639	-0.967627
54756	2.842626	0.287073	6.946121	-0.527772	-0.966544	-2.383139	0.209548	-0.138689	-0.006102	-0.967894
54757	2.941432	-0.132054	7.306070	-0.714898	-0.524205	-1.985697	0.208089	-0.137752	-0.010501	-0.968304
54758	3.005769	-0.083430	7.450520	-0.751982	-0.508266	-1.829749	0.206814	-0.136085	-0.015919	-0.968739
54759	2.795986	0.391951	7.979374	-0.291218	-0.731248	-1.385280	0.205552	-0.133924	-0.021255	-0.969206
54760	2.835121	0.615009	8.173882	-0.244214	-0.855784	-1.185069	0.204231	-0.131571	-0.025720	-0.969700
54761	2.583556	0.574669	8.564901	-0.001554	-0.617488	-0.869495	0.202842	-0.129173	-0.029292	-0.970212
54762	2.618861	0.593582	8.510533	-0.095162	-0.604005	-0.909563	0.201560	-0.126678	-0.032224	-0.970715
54763	2.344871	0.480668	9.091264	0.178120	-0.285758	-0.417652	0.200473	-0.124054	-0.035014	-0.971182
54764	2.334499	0.694137	9.550434	0.315732	-0.383295	0.030864	0.199505	-0.121580	-0.037398	-0.971606
54765	2.216388	0.742085	9.646559	0.403544	-0.337119	0.099039	0.198699	-0.119170	-0.039390	-0.971991
54766	2.211908	0.678418	9.878064	0.375562	-0.217887	0.323390	0.198193	-0.116786	-0.041398	-0.972300
54767	2.363788	0.720630	10.069419	0.242103	-0.260575	0.549417	0.197808	-0.114616	-0.043151	-0.972560
54768	2.246606	0.698442	9.812217	0.239383	-0.210685	0.272590	0.197437	-0.112746	-0.044042	-0.972814
54769	2.319148	0.538483	9.929272	0.096515	-0.069367	0.397338	0.197105	-0.111115	-0.044460	-0.973050
54770	2.315476	0.409093	10.092416	0.047933	0.074415	0.549635	0.196834	-0.109690	-0.044849	-0.973249
54771	2.059099	0.490727	10.245204	0.312605	0.116914	0.643577	0.196495	-0.108601	-0.045102	-0.973428
54772	2.182899	0.467657	10.264115	0.176570	0.093898	0.689493	0.195941	-0.107928	-0.045092	-0.973615
54773	2.264333	0.304488	10.283396	0.030102	0.215351	0.719210	0.195389	-0.107425	-0.045173	-0.973778
54774	2.247018	0.266858	10.105211	-0.014042	0.237613	0.540038	0.194889	-0.106977	-0.045616	-0.973906
54775	2.244985	0.361289	9.749543	-0.052105	0.109884	0.197771	0.194222	-0.106619	-0.045694	-0.974075
54776	2.257194	0.447604	9.665563	-0.050786	0.013465	0.122886	0.193353	-0.106480	-0.045398	-0.974277
54777	2.273622	0.509490	9.642694	-0.046776	-0.064248	0.107199	0.192334	-0.106411	-0.044328	-0.974535
54778	2.164359	0.300939	9.542071	-0.045590	0.134467	-0.024636	0.191271	-0.106321	-0.043056	-0.974812
54779	2.113718	0.290818	9.461015	-0.017079	0.128906	-0.114944	0.190120	-0.106214	-0.041695	-0.975107
54780	2.211506	0.225476	9.194560	-0.180677	0.098666	-0.355462	0.188888	-0.105954	-0.040427	-0.975428
54781	2.214693	0.270218	9.217913	-0.164073	0.038350	-0.330104	0.187562	-0.105704	-0.039265	-0.975759
54782	2.168236	0.161111	9.210999	-0.167687	0.139229	-0.351071	0.186310	-0.105340	-0.038507	-0.976068
54783	2.010691	0.188436	9.228323	-0.020580	0.169785	-0.367527	0.185291	-0.104728	-0.038971	-0.976310
54784	2.042628	0.432866	9.229778	0.025278	-0.054142	-0.349872	0.184475	-0.104033	-0.040101	-0.976493
54785	2.066678	0.533679	9.344211	0.043555	-0.120001	-0.228645	0.183917	-0.103348	-0.041559	-0.976610
54786	2.092020	0.713320	9.315840	0.062662	-0.275097	-0.242391	0.183439	-0.102635	-0.042837	-0.976720
54787	2.108027	0.800508	9.151397	0.031800	-0.363063	-0.394631	0.182899	-0.101883	-0.043742	-0.976859
54788	2.132953	0.806479	9.200955	0.001815	-0.359629	-0.340196	0.182296	-0.101037	-0.044289	-0.977035
54789	2.139380	0.804291	9.437259	0.019274	-0.328570	-0.108187	0.181537	-0.100176	-0.044171	-0.977271
54790	2.092320	0.628442	9.354924	-0.033485	-0.167155	-0.207572	0.180715	-0.099249	-0.043595	-0.977543
54791	2.057500	0.613115	9.368700	-0.022067	-0.151358	-0.202364	0.179905	-0.098286	-0.043080	-0.977813
54792	2.084356	0.709205	9.519886	-0.004831	-0.241443	-0.044505	0.179081	-0.097247	-0.042822	-0.978079
54793	2.018207	0.703858	9.410753	0.013930	-0.230164	-0.165012	0.178382	-0.096190	-0.042979	-0.978305
54794	1.953036	0.841854	9.411496	0.099620	-0.330439	-0.170066	0.177879	-0.095041	-0.043775	-0.978473
54795	1.841735	1.060695	9.634567	0.291813	-0.457252	0.038589	0.177555	-0.093903	-0.044680	-0.978601
54796	1.832636	1.042464	9.581094	0.261113	-0.431717	-0.015339	0.177517	-0.092908	-0.045378	-0.978671
54797	1.917490	1.050265	9.505386	0.153019	-0.468421	-0.071572	0.177737	-0.091978	-0.045941	-0.978693
54798	1.966779	1.003005	9.498961	0.071952	-0.437427	-0.070616	0.178100	-0.091131	-0.046215	-0.978693
54799	1.902010	0.959332	9.554158	0.108571	-0.371465	-0.031578	0.178470	-0.090218	-0.045949	-0.978723
54800	1.725912	1.093452	9.838834	0.349349	-0.415633	0.221366	0.178846	-0.089410	-0.045141	-0.978766
54801	1.652598	0.713066	9.920920	0.283392	-0.053483	0.266049	0.179087	-0.088725	-0.043499	-0.978858
54802	1.775370	0.682241	9.928316	0.155351	-0.103007	0.294438	0.179262	-0.088249	-0.041653	-0.978950
54803	1.776894	0.392895	9.768912	0.022021	0.113140	0.123609	0.179495	-0.087761	-0.040154	-0.979013
54804	1.786603	0.386625	9.786385	0.009921	0.088731	0.142549	0.179695	-0.087366	-0.038896	-0.979063
54805	1.756226	0.349600	10.034636	0.059585	0.134424	0.379407	0.179900	-0.086958	-0.037701	-0.979108
54806	1.702150	0.223372	10.003920	0.056008	0.243130	0.334397	0.180082	-0.086612	-0.036615	-0.979147
54807	1.699520	0.147422	9.921471	0.015515	0.285464	0.250311	0.180152	-0.086300	-0.035735	-0.979194
54808	1.688208	0.153147	9.917085	0.024129	0.267226	0.244652	0.180204	-0.086009	-0.035078	-0.979234
54809	1.674287	0.121239	9.853342	0.013183	0.282491	0.178624	0.180169	-0.085822	-0.034508	-0.979277
54810	1.665482	0.180030	9.756860	0.026327	0.210279	0.084668	0.180061	-0.085689	-0.034006	-0.979326
54811	1.677027	0.101050	9.599407	-0.036459	0.252060	-0.070698	0.179752	-0.085627	-0.033206	-0.979415
54812	1.687137	0.111932	9.531264	-0.051109	0.216748	-0.135170	0.179262	-0.085540	-0.032376	-0.979541
54813	1.742376	0.015283	9.506517	-0.141062	0.273264	-0.152698	0.178664	-0.085328	-0.031866	-0.979685
54814	1.723070	0.182342	9.573621	-0.057461	0.124498	-0.084499	0.177995	-0.085056	-0.031757	-0.979834
54815	1.705987	0.247760	9.611647	-0.019363	0.071427	-0.047952	0.177321	-0.084664	-0.031736	-0.979991
54816	1.708168	0.371063	9.531184	0.000830	-0.051606	-0.122676	0.176661	-0.084190	-0.031853	-0.980147
54817	1.660911	0.477132	9.415744	0.053531	-0.144415	-0.240918	0.176045	-0.083636	-0.031925	-0.980303
54818	1.772264	0.401673	9.232054	-0.115232	-0.128980	-0.405076	0.175422	-0.083023	-0.031918	-0.980467
54819	1.707373	0.510929	9.324556	-0.015309	-0.202124	-0.321511	0.174852	-0.082414	-0.031901	-0.980621
54820	1.653591	0.506845	9.368827	0.028380	-0.179306	-0.287289	0.174359	-0.081862	-0.031700	-0.980761
54821	1.537344	0.405417	9.447296	0.101957	-0.039309	-0.233165	0.174039	-0.081358	-0.031887	-0.980854
54822	1.599274	0.473834	9.425448	0.053860	-0.121324	-0.241709	0.173837	-0.080817	-0.032377	-0.980918
54823	1.612303	0.636871	9.589673	0.109394	-0.256467	-0.071579	0.173739	-0.080208	-0.032812	-0.980971
54824	1.616235	0.633103	9.655613	0.100868	-0.245829	-0.005890	0.173639	-0.079558	-0.032835	-0.981041
54825	1.610075	0.522456	9.574396	0.043514	-0.151304	-0.091084	0.173505	-0.078824	-0.032648	-0.981130
54826	1.666158	0.416153	9.436624	-0.079365	-0.087249	-0.221795	0.173344	-0.078003	-0.032650	-0.981224
54827	1.528521	0.474589	9.641155	0.080673	-0.077049	-0.040225	0.173159	-0.077179	-0.032936	-0.981313
54828	1.571767	0.583998	9.832458	0.087694	-0.173817	0.159815	0.172945	-0.076386	-0.033205	-0.981403
54829	1.602983	0.603445	9.779925	0.042498	-0.206253	0.113857	0.172755	-0.075662	-0.033288	-0.981490
54830	1.539785	0.589390	9.903317	0.099477	-0.165147	0.225082	0.172498	-0.075002	-0.032967	-0.981597
54831	1.538853	0.518818	9.869348	0.060758	-0.112930	0.188553	0.172172	-0.074442	-0.032328	-0.981718
54832	1.445693	0.518949	9.917910	0.145720	-0.093181	0.221969	0.171779	-0.073972	-0.031532	-0.981848
54833	1.555381	0.515007	9.826873	0.025076	-0.154795	0.148599	0.171305	-0.073617	-0.030299	-0.981997
54834	1.404549	0.420026	9.884172	0.138140	-0.035407	0.178591	0.170907	-0.073345	-0.029061	-0.982124
54835	1.306834	0.281053	9.868547	0.178678	0.104364	0.143827	0.170691	-0.073154	-0.028111	-0.982203
54836	1.352612	0.241266	9.737139	0.103246	0.105803	0.019799	0.170740	-0.072978	-0.028071	-0.982209
54837	1.443967	0.381043	9.730228	0.060268	-0.052324	0.031153	0.170944	-0.072771	-0.028618	-0.982173
54838	1.463699	0.552667	9.779390	0.101595	-0.206821	0.088384	0.171226	-0.072608	-0.029130	-0.982121
54839	1.419238	0.552381	9.820726	0.145231	-0.184005	0.122657	0.171456	-0.072516	-0.029141	-0.982087
54840	1.477628	0.423789	9.839713	0.048979	-0.083340	0.145907	0.171706	-0.072499	-0.028945	-0.982051
54841	1.509139	0.379914	9.872791	0.009989	-0.054389	0.181850	0.171938	-0.072523	-0.028716	-0.982015
54842	1.470413	0.276007	9.734345	-0.006730	0.043925	0.035855	0.172149	-0.072549	-0.028875	-0.981971
54843	1.345649	0.373098	9.856390	0.158693	0.008944	0.140861	0.172388	-0.072608	-0.029192	-0.981916
54844	1.395791	0.364539	9.820117	0.105436	0.003113	0.112266	0.172705	-0.072736	-0.029475	-0.981842
54845	1.450273	0.462306	9.781712	0.086039	-0.106954	0.085801	0.173086	-0.072902	-0.029502	-0.981762
54846	1.449645	0.330654	9.753604	0.042099	0.013683	0.053499	0.173480	-0.073140	-0.029373	-0.981678
54847	1.428803	0.198635	9.739979	0.019700	0.141548	0.032499	0.173777	-0.073408	-0.029266	-0.981609
54848	1.429769	0.304716	9.665876	0.051650	0.034931	-0.037087	0.173944	-0.073714	-0.029233	-0.981558
54849	1.461129	0.149230	9.609876	-0.033494	0.166412	-0.092704	0.174002	-0.073940	-0.029281	-0.981529
54850	1.562074	0.197270	9.668769	-0.099809	0.096695	-0.017548	0.174071	-0.074094	-0.029642	-0.981494
54851	1.479326	0.442965	9.747463	0.074285	-0.092602	0.055624	0.174143	-0.074223	-0.029916	-0.981463
54852	1.471499	0.354864	9.707462	0.048269	-0.007550	0.011958	0.174156	-0.074401	-0.029922	-0.981447
54853	1.525064	0.321505	9.574580	-0.027087	-0.006023	-0.112121	0.174142	-0.074583	-0.029808	-0.981439
54854	1.481628	0.304276	9.435539	-0.008010	0.013420	-0.256697	0.174180	-0.074743	-0.029905	-0.981418
54855	1.486235	0.385261	9.620401	0.042984	-0.044788	-0.070738	0.174273	-0.074893	-0.030139	-0.981382
54856	1.491924	0.422802	9.588717	0.049855	-0.080499	-0.099854	0.174431	-0.075148	-0.030278	-0.981331
54857	1.511737	0.368058	9.538632	0.010292	-0.036981	-0.148069	0.174622	-0.075399	-0.030408	-0.981273
54858	1.537016	0.336804	9.451259	-0.031904	-0.019724	-0.231417	0.174867	-0.075605	-0.030655	-0.981206
54859	1.572970	0.352835	9.391797	-0.066226	-0.044572	-0.283878	0.175158	-0.075670	-0.031200	-0.981132
54860	1.528711	0.544903	9.441964	0.047865	-0.196204	-0.234391	0.175422	-0.075669	-0.031627	-0.981071
54861	1.549330	0.526120	9.499760	0.029424	-0.176592	-0.174710	0.175645	-0.075656	-0.031650	-0.981032
54862	1.530119	0.438313	9.479821	0.014152	-0.091788	-0.200624	0.175842	-0.075641	-0.031431	-0.981005
54863	1.513264	0.317601	9.424011	-0.020679	0.018882	-0.262711	0.176091	-0.075513	-0.031375	-0.980972
54864	1.528774	0.336412	9.506133	-0.020439	0.003876	-0.178558	0.176381	-0.075326	-0.031596	-0.980927
54865	1.491867	0.457804	9.623175	0.068416	-0.084683	-0.064411	0.176639	-0.075159	-0.031694	-0.980890
54866	1.531504	0.321909	9.548357	-0.029252	0.021837	-0.137000	0.176873	-0.074980	-0.031648	-0.980863
54867	1.531584	0.407880	9.619214	0.007687	-0.055588	-0.063931	0.177067	-0.074813	-0.031446	-0.980847
54868	1.515318	0.314092	9.581021	-0.018287	0.029507	-0.107554	0.177248	-0.074585	-0.031241	-0.980839
54869	1.521103	0.332169	9.682650	-0.007351	0.014188	-0.005673	0.177345	-0.074349	-0.030992	-0.980847
54870	1.481699	0.278288	9.682779	0.006886	0.071878	-0.013510	0.177401	-0.074140	-0.030685	-0.980862
54871	1.419948	0.280667	9.660536	0.058824	0.083710	-0.044857	0.177460	-0.073935	-0.030531	-0.980872
54872	1.525997	0.283350	9.611066	-0.049247	0.039431	-0.077311	0.177499	-0.073691	-0.030665	-0.980879
54873	1.601964	0.408817	9.611455	-0.080514	-0.102454	-0.060943	0.177507	-0.073435	-0.030785	-0.980893
54874	1.502783	0.357315	9.703286	-0.000053	-0.013426	0.012770	0.177427	-0.073144	-0.030639	-0.980934
54875	1.449154	0.378866	9.884615	0.076206	-0.006191	0.184480	0.177262	-0.072865	-0.030192	-0.980998
54876	1.354605	0.293280	9.825736	0.123151	0.089613	0.109149	0.177030	-0.072664	-0.029506	-0.981076
54877	1.375982	0.312262	9.919481	0.122363	0.057991	0.205725	0.176754	-0.072643	-0.028738	-0.981150
54878	1.464722	0.060665	9.773720	-0.064640	0.237143	0.067306	0.176557	-0.072682	-0.028051	-0.981202
54879	1.474251	0.208690	9.818783	-0.012542	0.090051	0.117932	0.176486	-0.072799	-0.027772	-0.981214
54880	1.427868	0.167257	9.752671	0.010031	0.136804	0.044419	0.176492	-0.072906	-0.027738	-0.981206
54881	1.502706	0.232339	9.820910	-0.025850	0.056399	0.125045	0.176513	-0.072987	-0.027809	-0.981195
54882	1.497005	0.264151	9.821140	-0.007366	0.029144	0.125355	0.176510	-0.073115	-0.027758	-0.981187
54883	1.520149	0.273300	9.848235	-0.018622	0.013397	0.155900	0.176400	-0.073304	-0.027597	-0.981197
54884	1.483323	0.289177	9.713918	0.008577	-0.001340	0.018080	0.176201	-0.073608	-0.027470	-0.981214
54885	1.484835	0.304645	9.514492	-0.008009	-0.031414	-0.178267	0.175996	-0.073917	-0.027550	-0.981225
54886	1.502767	0.474204	9.443615	0.030171	-0.197560	-0.240588	0.175845	-0.074209	-0.027808	-0.981223
54887	1.560534	0.453448	9.297589	-0.045882	-0.204596	-0.376477	0.175808	-0.074458	-0.027975	-0.981206
54888	1.499860	0.538854	9.388300	0.055730	-0.252652	-0.293592	0.175913	-0.074624	-0.028153	-0.981169
54889	1.483669	0.527758	9.360217	0.066394	-0.237725	-0.324139	0.176163	-0.074802	-0.028074	-0.981113
54890	1.498856	0.447924	9.280964	0.017213	-0.177268	-0.402492	0.176432	-0.074913	-0.027850	-0.981063
54891	1.492347	0.338305	9.337533	-0.005497	-0.072797	-0.350883	0.176724	-0.074902	-0.027560	-0.981019
54892	1.512731	0.305653	9.341490	-0.035403	-0.053870	-0.344791	0.177023	-0.074792	-0.027380	-0.980979
54893	1.553587	0.231297	9.409650	-0.092458	0.002767	-0.273291	0.177316	-0.074572	-0.027197	-0.980948
54894	1.547344	0.250722	9.597342	-0.058587	-0.003612	-0.088354	0.177570	-0.074278	-0.026954	-0.980931
54895	1.470874	0.113162	9.626775	-0.037000	0.147446	-0.074723	0.177725	-0.073976	-0.026678	-0.980933
54896	1.407748	0.163952	9.616251	0.032779	0.115929	-0.093304	0.177745	-0.073661	-0.026561	-0.980956
54897	1.478869	0.121350	9.656165	-0.048534	0.131302	-0.044182	0.177745	-0.073346	-0.026474	-0.980982
54898	1.403592	0.189837	9.773438	0.054785	0.100673	0.062183	0.177755	-0.073024	-0.026502	-0.981004
54899	1.457368	0.146171	9.773365	-0.016436	0.122633	0.069045	0.177794	-0.072745	-0.026555	-0.981016
54900	1.393927	0.084899	9.812050	0.021078	0.204986	0.096102	0.177803	-0.072559	-0.026604	-0.981027
54901	1.424718	0.178897	9.734988	0.011881	0.101568	0.027097	0.177712	-0.072391	-0.026732	-0.981052
54902	1.451858	0.136053	9.677954	-0.039270	0.128908	-0.026420	0.177465	-0.072236	-0.026752	-0.981108
54903	1.531426	0.100545	9.650610	-0.132867	0.134924	-0.042642	0.177200	-0.072059	-0.026998	-0.981162
54904	1.521360	0.291814	9.727926	-0.050431	-0.030640	0.037630	0.176928	-0.071898	-0.027174	-0.981218
54905	1.506691	0.326310	9.693152	-0.032642	-0.058799	0.002060	0.176561	-0.071768	-0.027193	-0.981293
54906	1.468047	0.348372	9.492805	-0.017596	-0.082720	-0.201094	0.176144	-0.071638	-0.027087	-0.981380
54907	1.558763	0.307152	9.482359	-0.121147	-0.075478	-0.199215	0.175738	-0.071437	-0.027244	-0.981464
54908	1.621638	0.450775	9.611415	-0.118891	-0.216560	-0.058142	0.175450	-0.071137	-0.027621	-0.981526
54909	1.576908	0.482973	9.568137	-0.079429	-0.229667	-0.106500	0.175182	-0.070772	-0.027869	-0.981594
54910	1.531154	0.499632	9.585450	-0.037523	-0.224414	-0.095530	0.174930	-0.070363	-0.028134	-0.981660
54911	1.501133	0.526874	9.594634	-0.007307	-0.235403	-0.089903	0.174723	-0.070019	-0.028351	-0.981715
54912	1.475405	0.582334	9.518508	0.018755	-0.282191	-0.167069	0.174611	-0.069657	-0.028509	-0.981757
54913	1.500960	0.639748	9.574874	0.015335	-0.340125	-0.105759	0.174621	-0.069354	-0.028466	-0.981778
54914	1.457150	0.604599	9.671289	0.051567	-0.290006	-0.018000	0.174725	-0.069127	-0.028048	-0.981787
54915	1.483324	0.461795	9.682997	-0.023010	-0.174362	-0.007434	0.174908	-0.068947	-0.027493	-0.981783
54916	1.429047	0.392056	9.690763	0.002971	-0.100396	-0.009796	0.175183	-0.068803	-0.027051	-0.981756
54917	1.406048	0.359112	9.724264	0.016110	-0.067084	0.019021	0.175498	-0.068695	-0.026749	-0.981716
54918	1.429762	0.358434	9.836112	0.007143	-0.072343	0.132991	0.175820	-0.068623	-0.026467	-0.981671
54919	1.453380	0.244576	9.792852	-0.060036	0.015917	0.090253	0.176119	-0.068535	-0.026099	-0.981633
54920	1.382949	0.239657	9.903538	0.016486	0.046386	0.189693	0.176431	-0.068415	-0.025870	-0.981592
54921	1.366514	0.212511	9.869710	0.017375	0.070409	0.153177	0.176686	-0.068374	-0.025706	-0.981553
54922	1.400865	0.227390	9.799394	-0.017654	0.036979	0.088857	0.176906	-0.068390	-0.025655	-0.981514
54923	1.357392	0.169088	9.738799	-0.003912	0.101670	0.021180	0.177126	-0.068488	-0.025683	-0.981466
54924	1.313770	0.216951	9.845570	0.068877	0.081528	0.121944	0.177356	-0.068646	-0.025806	-0.981410
54925	1.328791	0.254624	9.783119	0.064335	0.037517	0.063262	0.177586	-0.068879	-0.025751	-0.981354
54926	1.394210	0.256149	9.691116	-0.002018	0.005955	-0.018448	0.177771	-0.069141	-0.025674	-0.981304
54927	1.374679	0.227430	9.687603	0.010418	0.038375	-0.025474	0.177918	-0.069343	-0.025591	-0.981265
54928	1.450945	0.215359	9.570293	-0.076430	0.016204	-0.130951	0.178020	-0.069444	-0.025815	-0.981234
54929	1.426131	0.395191	9.516883	0.004041	-0.144148	-0.182511	0.178076	-0.069462	-0.025926	-0.981220
54930	1.383945	0.484018	9.581055	0.083229	-0.208242	-0.122698	0.178136	-0.069501	-0.025762	-0.981210
54931	1.421573	0.352284	9.614339	0.008501	-0.100463	-0.087960	0.178312	-0.069622	-0.025399	-0.981179
54932	1.414352	0.404400	9.596732	0.035156	-0.154168	-0.105155	0.178624	-0.069748	-0.025102	-0.981121
54933	1.371636	0.313043	9.554616	0.040806	-0.062951	-0.155336	0.179040	-0.069863	-0.024780	-0.981045
54934	1.433156	0.233629	9.572220	-0.038503	-0.014479	-0.131044	0.179493	-0.069990	-0.024521	-0.980960
54935	1.390226	0.236371	9.655592	0.015631	0.000032	-0.054674	0.179957	-0.070058	-0.024385	-0.980873
54936	1.409934	0.192602	9.581341	-0.025457	0.026289	-0.126317	0.180417	-0.070142	-0.024314	-0.980785
54937	1.491436	0.174265	9.638050	-0.097978	0.015964	-0.058873	0.180830	-0.070214	-0.024105	-0.980709
54938	1.443362	0.160255	9.746281	-0.042146	0.047893	0.040987	0.181148	-0.070287	-0.023728	-0.980654
54939	1.381096	0.123668	9.717839	0.001954	0.094175	0.003128	0.181387	-0.070387	-0.023310	-0.980613
54940	1.368543	0.083611	9.538912	-0.020533	0.116353	-0.176465	0.181536	-0.070462	-0.023003	-0.980587
54941	1.414997	0.124306	9.557283	-0.045320	0.059036	-0.150711	0.181641	-0.070425	-0.022871	-0.980573
54942	1.358256	0.224975	9.750287	0.067252	-0.004421	0.034090	0.181720	-0.070333	-0.022708	-0.980569
54943	1.438471	0.154327	9.741198	-0.034413	0.028124	0.035256	0.181802	-0.070247	-0.022461	-0.980566
54944	1.410640	0.103859	9.708678	-0.031619	0.077467	-0.001871	0.181829	-0.070170	-0.022195	-0.980572
54945	1.396151	0.099912	9.704414	-0.021029	0.084589	-0.008235	0.181867	-0.070136	-0.022343	-0.980564
54946	1.311299	0.160576	9.635837	0.068959	0.058610	-0.087131	0.181974	-0.070109	-0.022775	-0.980536
54947	1.404553	0.250877	9.684367	0.020469	-0.046947	-0.023916	0.182202	-0.070182	-0.023217	-0.980478
54948	1.399320	0.342582	9.648092	0.055269	-0.127140	-0.058616	0.182573	-0.070350	-0.023398	-0.980393
54949	1.455788	0.229159	9.569641	-0.044029	-0.045679	-0.130444	0.182983	-0.070568	-0.023341	-0.980302
54950	1.404496	0.165731	9.539946	-0.018703	0.027443	-0.168542	0.183348	-0.070771	-0.023152	-0.980224
54951	1.463719	0.122457	9.490870	-0.091410	0.039857	-0.209347	0.183661	-0.070893	-0.022980	-0.980161
54952	1.443829	0.132904	9.547394	-0.059640	0.038412	-0.156083	0.183899	-0.070949	-0.022860	-0.980115
54953	1.391292	0.153032	9.499417	-0.009249	0.032939	-0.210767	0.184170	-0.070920	-0.022788	-0.980068
54954	1.396082	0.085525	9.336546	-0.060439	0.083221	-0.372514	0.184471	-0.070819	-0.023000	-0.980013
54955	1.450947	0.108682	9.444276	-0.091992	0.054015	-0.257583	0.184767	-0.070666	-0.023348	-0.979960
54956	1.444175	0.113955	9.511323	-0.080030	0.062793	-0.192212	0.185058	-0.070447	-0.023801	-0.979910
54957	1.343257	0.119243	9.577591	0.017437	0.107331	-0.141236	0.185327	-0.070216	-0.024357	-0.979862
54958	1.375486	0.116427	9.627965	-0.012765	0.110448	-0.086904	0.185597	-0.070011	-0.024802	-0.979815
54959	1.411461	0.082165	9.539711	-0.075286	0.129567	-0.169938	0.185833	-0.069763	-0.025197	-0.979778
54960	1.404041	0.034050	9.643586	-0.079588	0.191264	-0.069571	0.186077	-0.069481	-0.025621	-0.979740
54961	1.386498	0.051643	9.681749	-0.058481	0.190127	-0.034051	0.186172	-0.069245	-0.025947	-0.979731
54962	1.498499	0.046562	9.626533	-0.176200	0.154997	-0.072937	0.186074	-0.068989	-0.026222	-0.979760
54963	1.487324	0.142580	9.681032	-0.129360	0.076076	-0.018182	0.185812	-0.068734	-0.026234	-0.979827
54964	1.447171	0.141133	9.794318	-0.084394	0.100318	0.088106	0.185438	-0.068456	-0.026244	-0.979917
54965	1.360411	0.065722	9.715260	-0.047842	0.196735	-0.004511	0.184970	-0.068155	-0.026403	-0.980022
54966	1.421621	0.144300	9.803554	-0.073142	0.115663	0.093510	0.184498	-0.067771	-0.027052	-0.980120
54967	1.363867	0.372977	9.957371	0.072544	-0.053095	0.244170	0.184004	-0.067431	-0.027635	-0.980220
54968	1.400065	0.314573	9.887736	0.001914	-0.007518	0.178629	0.183564	-0.067235	-0.028079	-0.980304
54969	1.418863	0.418431	9.757168	0.002251	-0.112741	0.055335	0.183210	-0.067168	-0.028515	-0.980362
54970	1.322226	0.351478	9.727144	0.060977	-0.008331	0.010009	0.182925	-0.067176	-0.029099	-0.980397
54971	1.337008	0.463327	9.716828	0.084806	-0.103956	0.005713	0.182716	-0.067270	-0.029986	-0.980403
54972	1.367841	0.540765	9.686892	0.079183	-0.172389	-0.016603	0.182629	-0.067339	-0.030829	-0.980388
54973	1.377500	0.631955	9.610736	0.092711	-0.251841	-0.086893	0.182709	-0.067394	-0.031565	-0.980347
54974	1.383247	0.590666	9.544243	0.063406	-0.209279	-0.153132	0.182943	-0.067423	-0.032081	-0.980284
54975	1.408228	0.601293	9.619051	0.053671	-0.215642	-0.075058	0.183207	-0.067541	-0.032180	-0.980223
54976	1.381086	0.517544	9.479787	0.035748	-0.141823	-0.219970	0.183447	-0.067767	-0.031880	-0.980173
54977	1.443774	0.365112	9.506264	-0.069459	-0.023547	-0.190761	0.183644	-0.067971	-0.031744	-0.980126
54978	1.476527	0.379404	9.501903	-0.092191	-0.047730	-0.189826	0.183845	-0.068063	-0.031975	-0.980075
54979	1.564148	0.521944	9.475633	-0.125076	-0.207088	-0.197695	0.184055	-0.067993	-0.032487	-0.980023
54980	1.424685	0.536622	9.557921	0.014531	-0.156967	-0.135566	0.184200	-0.067734	-0.032777	-0.980004
54981	1.433873	0.532090	9.623176	0.005815	-0.146737	-0.069841	0.184298	-0.067410	-0.032978	-0.980001
54982	1.358468	0.425127	9.580822	0.024264	-0.022608	-0.126759	0.184381	-0.067041	-0.033081	-0.980007
54983	1.355109	0.410205	9.690093	0.027878	0.004633	-0.019746	0.184532	-0.066761	-0.033363	-0.979989
54984	1.289777	0.422156	9.733508	0.092151	0.025712	0.014508	0.184700	-0.066575	-0.033699	-0.979958
54985	1.352504	0.419358	9.738209	0.028941	0.013279	0.027883	0.184842	-0.066399	-0.034172	-0.979927
54986	1.369244	0.479736	9.788567	0.036306	-0.037324	0.082680	0.184896	-0.066186	-0.034496	-0.979920
54987	1.368393	0.527486	9.847388	0.055343	-0.071702	0.142893	0.184795	-0.065886	-0.034706	-0.979952
54988	1.349961	0.514536	9.801789	0.055491	-0.056290	0.094681	0.184562	-0.065534	-0.034704	-0.980019
54989	1.358443	0.513206	9.855182	0.045918	-0.054779	0.148651	0.184315	-0.065155	-0.034653	-0.980093
54990	1.246577	0.517101	9.837840	0.141216	-0.020560	0.116264	0.184057	-0.064804	-0.034766	-0.980161
54991	1.344934	0.601566	9.799790	0.069901	-0.134958	0.096072	0.183899	-0.064527	-0.035029	-0.980199
54992	1.285593	0.694028	9.857635	0.159879	-0.191688	0.149496	0.183908	-0.064360	-0.035126	-0.980205
54993	1.257057	0.746511	9.901398	0.209568	-0.228756	0.191257	0.184094	-0.064400	-0.034808	-0.980179
54994	1.179369	0.603134	9.758560	0.217100	-0.089145	0.032570	0.184454	-0.064578	-0.034256	-0.980119
54995	1.275043	0.398999	9.766264	0.061764	0.057850	0.044172	0.184951	-0.064887	-0.033797	-0.980021
54996	1.359917	0.502475	9.777607	0.031370	-0.075435	0.071480	0.185538	-0.065263	-0.033386	-0.979899
54997	1.430069	0.398173	9.700312	-0.069710	-0.019132	0.000286	0.186154	-0.065760	-0.032832	-0.979767
54998	1.485527	0.407299	9.585157	-0.116897	-0.069358	-0.105504	0.186764	-0.066384	-0.032051	-0.979635
54999	1.534737	0.203838	9.500090	-0.232005	0.080990	-0.190408	0.187415	-0.067037	-0.031289	-0.979491
55000	1.559912	0.198470	9.490768	-0.243904	0.064368	-0.195841	0.188109	-0.067596	-0.030696	-0.979338
55001	1.533540	0.136095	9.386436	-0.242308	0.112296	-0.304581	0.188782	-0.068130	-0.030065	-0.979191
55002	1.532709	0.023590	9.237874	-0.290607	0.196898	-0.455079	0.189381	-0.068556	-0.029827	-0.979053
55003	1.521738	0.075228	9.352219	-0.239625	0.161343	-0.341579	0.189956	-0.068901	-0.029871	-0.978916
55004	1.517104	0.266114	9.445014	-0.146626	-0.004908	-0.244031	0.190475	-0.069142	-0.029907	-0.978797
55005	1.443672	0.230896	9.412354	-0.091562	0.049015	-0.288029	0.190929	-0.069319	-0.029544	-0.978707
55006	1.474112	0.082426	9.471769	-0.164631	0.174025	-0.229535	0.191309	-0.069389	-0.029270	-0.978636
55007	1.483100	0.221471	9.540301	-0.110884	0.044038	-0.155993	0.191621	-0.069332	-0.029194	-0.978582
55008	1.464694	0.221844	9.590809	-0.088946	0.051522	-0.108689	0.191745	-0.069189	-0.029002	-0.978573
55009	1.472025	0.240702	9.589713	-0.090994	0.025804	-0.108130	0.191656	-0.068988	-0.028690	-0.978614
55010	1.393102	0.232065	9.677891	-0.014403	0.063809	-0.032510	0.191438	-0.068741	-0.028381	-0.978683
55011	1.411361	0.280390	9.765362	-0.006404	0.013878	0.058109	0.191151	-0.068478	-0.028174	-0.978764
55012	1.362721	0.315384	9.728550	0.043079	-0.008101	0.015803	0.190916	-0.068275	-0.027960	-0.978830
55013	1.312616	0.423408	9.648473	0.117847	-0.100689	-0.067369	0.190711	-0.068166	-0.027722	-0.978884
55014	1.417781	0.408980	9.612342	0.010854	-0.136128	-0.088705	0.190575	-0.068091	-0.027242	-0.978929
55015	1.439167	0.285271	9.618061	-0.054695	-0.038323	-0.083597	0.190592	-0.067995	-0.026774	-0.978946
55016	1.394983	0.327131	9.761383	0.018584	-0.058141	0.053105	0.190647	-0.067888	-0.026388	-0.978953
55017	1.422624	0.239430	9.771617	-0.039020	0.005285	0.064768	0.190659	-0.067794	-0.025955	-0.978968
55018	1.453789	0.188596	9.648347	-0.102029	0.023867	-0.054169	0.190638	-0.067706	-0.025643	-0.978987
55019	1.391125	0.182013	9.547464	-0.060914	0.043497	-0.162981	0.190621	-0.067573	-0.025790	-0.978996
55020	1.455990	0.237991	9.502960	-0.108618	-0.030486	-0.196552	0.190597	-0.067415	-0.026252	-0.978999
55021	1.471253	0.444647	9.606437	-0.037326	-0.211914	-0.086453	0.190584	-0.067222	-0.026658	-0.979004
55022	1.476250	0.515245	9.683066	-0.009508	-0.272081	-0.007973	0.190510	-0.067106	-0.026423	-0.979032
55023	1.469965	0.342232	9.566228	-0.083837	-0.125449	-0.129307	0.190422	-0.066993	-0.025971	-0.979069
55024	1.451713	0.273470	9.509363	-0.101363	-0.066506	-0.190030	0.190335	-0.066806	-0.025714	-0.979106
55025	1.378641	0.411375	9.528104	0.015792	-0.168601	-0.178064	0.190313	-0.066524	-0.025759	-0.979128
55026	1.461771	0.439969	9.578430	-0.049660	-0.222257	-0.116049	0.190288	-0.066219	-0.025797	-0.979153
55027	1.489515	0.436329	9.479181	-0.094051	-0.238383	-0.210696	0.190314	-0.065895	-0.025698	-0.979172
55028	1.470595	0.352701	9.530907	-0.107845	-0.151979	-0.164346	0.190475	-0.065586	-0.025729	-0.979161
55029	1.453304	0.314843	9.503405	-0.115754	-0.110047	-0.194974	0.190802	-0.065281	-0.026126	-0.979107
55030	1.409206	0.442332	9.548438	-0.028448	-0.200807	-0.152820	0.191348	-0.065034	-0.026692	-0.979002
55031	1.372370	0.429013	9.528524	-0.005886	-0.169474	-0.177779	0.192135	-0.064952	-0.027000	-0.978844
55032	1.271251	0.402797	9.474068	0.070078	-0.109046	-0.246106	0.193142	-0.064943	-0.027101	-0.978644
55033	1.266877	0.233600	9.459397	0.008469	0.047340	-0.266095	0.194260	-0.064942	-0.027078	-0.978424
55034	1.316168	0.256163	9.483572	-0.025278	0.007670	-0.234830	0.195329	-0.064846	-0.027024	-0.978218
55035	1.376279	0.198613	9.568164	-0.094341	0.039684	-0.144550	0.196162	-0.064648	-0.026745	-0.978073
55036	1.474582	0.089252	9.511005	-0.236830	0.091199	-0.190985	0.196666	-0.064296	-0.026449	-0.978003
55037	1.375567	0.115041	9.527986	-0.142692	0.100920	-0.186817	0.196889	-0.063675	-0.026408	-0.977999
55038	1.276427	0.160109	9.622783	-0.037516	0.102962	-0.104916	0.196828	-0.062885	-0.026581	-0.978058
55039	1.316327	0.318656	9.742432	-0.015716	-0.049068	0.023295	0.196558	-0.062037	-0.026727	-0.978163
55040	1.343312	0.436252	9.731786	-0.014339	-0.168413	0.019599	0.196177	-0.061081	-0.026918	-0.978294
55041	1.278725	0.531844	9.863475	0.076880	-0.223846	0.144727	0.195809	-0.060154	-0.026860	-0.978427
55042	1.203433	0.554337	9.883210	0.139498	-0.220163	0.155533	0.195520	-0.059320	-0.026658	-0.978541
55043	1.161741	0.535541	9.833976	0.150596	-0.197073	0.101040	0.195354	-0.058597	-0.026502	-0.978622
55044	1.176293	0.597648	9.807467	0.145051	-0.265397	0.078509	0.195425	-0.057926	-0.026569	-0.978646
55045	1.159089	0.693710	9.861469	0.191844	-0.344460	0.133057	0.195730	-0.057420	-0.026644	-0.978613
55046	1.119874	0.728788	9.840645	0.231325	-0.365221	0.108837	0.196278	-0.057049	-0.026588	-0.978526
55047	1.174403	0.684221	9.830494	0.159358	-0.351946	0.103801	0.197012	-0.056845	-0.026160	-0.978402
55048	1.169462	0.554396	9.725724	0.102811	-0.248615	-0.004919	0.197876	-0.056720	-0.025638	-0.978249
55049	1.153718	0.527617	9.680140	0.103050	-0.233031	-0.053096	0.198763	-0.056593	-0.025051	-0.978092
55050	1.233404	0.512058	9.715398	0.028790	-0.260991	-0.009449	0.199675	-0.056472	-0.024308	-0.977932
55051	1.194222	0.330212	9.644308	-0.012577	-0.098795	-0.089625	0.200676	-0.056339	-0.023617	-0.977751
55052	1.169598	0.412943	9.784117	0.056889	-0.169338	0.048119	0.201799	-0.056165	-0.023038	-0.977544
55053	1.175616	0.360107	9.868806	0.039940	-0.132857	0.131447	0.202937	-0.056059	-0.022198	-0.977334
55054	1.166058	0.366352	9.780156	0.046712	-0.160981	0.042120	0.204050	-0.056089	-0.021063	-0.977125
55055	1.109211	0.113549	9.613888	-0.012561	0.059971	-0.134553	0.205188	-0.056212	-0.019928	-0.976904
55056	1.096213	0.112111	9.639254	0.007707	0.050104	-0.110787	0.206434	-0.056332	-0.019245	-0.976648
55057	1.162422	0.209849	9.704849	-0.000558	-0.075402	-0.036510	0.207781	-0.056445	-0.018588	-0.976369
55058	1.153513	0.210800	9.766049	0.020312	-0.084603	0.023122	0.209106	-0.056556	-0.017712	-0.976096
55059	1.135305	0.062244	9.702180	-0.023925	0.035668	-0.044207	0.210330	-0.056652	-0.016708	-0.975845
55060	1.138282	-0.067168	9.653873	-0.080047	0.131742	-0.092930	0.211432	-0.056637	-0.015954	-0.975620
55061	1.149531	-0.095926	9.664815	-0.100049	0.141553	-0.080821	0.212413	-0.056482	-0.015578	-0.975422
55062	1.135857	0.006480	9.816598	-0.031613	0.054299	0.069208	0.213269	-0.056267	-0.015309	-0.975252
55063	1.108307	-0.032369	9.897192	-0.017053	0.096766	0.145934	0.213986	-0.056068	-0.014872	-0.975113
55064	1.161666	-0.035907	9.862425	-0.071836	0.065904	0.117502	0.214660	-0.055880	-0.014440	-0.974982
55065	1.049914	-0.004566	9.878835	0.042958	0.074110	0.121414	0.215351	-0.055745	-0.013903	-0.974845
55066	1.143541	-0.125456	9.923800	-0.086864	0.135219	0.176276	0.216037	-0.055723	-0.013355	-0.974702
55067	1.210879	-0.023999	9.852447	-0.108359	-0.000552	0.113326	0.216773	-0.055815	-0.012742	-0.974542
55068	1.107082	-0.233626	9.793922	-0.103825	0.217863	0.043421	0.217512	-0.056036	-0.012106	-0.974372
55069	1.128231	-0.199279	9.720083	-0.108885	0.165555	-0.027323	0.218281	-0.056314	-0.011816	-0.974188
55070	1.052822	-0.189842	9.672799	-0.035766	0.184139	-0.082717	0.219028	-0.056604	-0.011799	-0.974004
55071	1.136259	-0.067645	9.750445	-0.045061	0.041911	0.003781	0.219734	-0.056847	-0.011784	-0.973831
55072	1.178238	0.043540	9.813814	-0.021809	-0.077639	0.071369	0.220408	-0.057148	-0.011317	-0.973667
55073	1.191389	-0.103258	9.714758	-0.098111	0.035941	-0.025162	0.221043	-0.057529	-0.010810	-0.973506
55074	1.073541	-0.075523	9.689878	0.026957	0.051045	-0.063401	0.221563	-0.057940	-0.010228	-0.973369
55075	1.088345	-0.125425	9.633680	-0.003201	0.077254	-0.117224	0.221895	-0.058365	-0.009624	-0.973275
55076	1.209240	-0.108244	9.646592	-0.091774	-0.000951	-0.090430	0.222009	-0.058765	-0.008881	-0.973232
55077	1.282886	-0.118346	9.489235	-0.169774	-0.040880	-0.237988	0.221972	-0.059059	-0.008355	-0.973227
55078	1.238857	0.017409	9.513910	-0.063432	-0.150529	-0.219832	0.221839	-0.059154	-0.007994	-0.973255
55079	1.258268	-0.079423	9.408177	-0.132583	-0.079952	-0.321672	0.221542	-0.059146	-0.007881	-0.973324
55080	1.181328	0.101266	9.184670	-0.011560	-0.220914	-0.554447	0.221280	-0.058960	-0.007791	-0.973395
55081	1.118929	0.078597	9.316446	0.045731	-0.172260	-0.430652	0.221075	-0.058736	-0.007504	-0.973458
55082	1.030247	0.121567	9.398016	0.150063	-0.178980	-0.360474	0.221089	-0.058490	-0.006870	-0.973474
55083	1.074008	-0.052498	9.276679	0.021846	-0.061850	-0.474128	0.221268	-0.058270	-0.005831	-0.973453
55084	1.147105	-0.199730	9.056785	-0.131687	0.012950	-0.682322	0.221566	-0.057974	-0.004970	-0.973408
55085	1.124923	-0.221215	9.100637	-0.119565	0.029425	-0.640948	0.222059	-0.057591	-0.004470	-0.973321
55086	1.159630	-0.227769	9.289851	-0.138464	0.017087	-0.449009	0.222762	-0.057177	-0.004161	-0.973186
55087	1.096422	-0.085898	9.425622	-0.009702	-0.092180	-0.323575	0.223600	-0.056860	-0.003281	-0.973016
55088	1.181400	-0.165080	9.272459	-0.136116	-0.085949	-0.465202	0.224455	-0.056649	-0.001853	-0.972835
55089	1.056988	-0.355279	9.211976	-0.112737	0.105718	-0.534759	0.225170	-0.056286	0.000002	-0.972692
55090	0.920132	-0.439785	9.395045	-0.009025	0.211149	-0.364822	0.225739	-0.055721	0.001700	-0.972591
55091	0.916988	-0.426381	9.551921	0.010941	0.169783	-0.208895	0.226087	-0.054936	0.003317	-0.972551
55092	1.056273	-0.449379	9.708177	-0.116604	0.097104	-0.038066	0.226102	-0.053934	0.004964	-0.972597
55093	0.970714	-0.360383	9.785341	-0.006999	0.021997	0.027253	0.225819	-0.052768	0.006397	-0.972718
55094	0.852117	-0.424996	9.876087	0.062399	0.102798	0.108465	0.225367	-0.051506	0.007604	-0.972882
55095	0.818971	-0.285899	9.795234	0.123827	-0.030996	0.020049	0.224926	-0.050181	0.008201	-0.973048
55096	0.949612	0.081908	9.419679	0.109049	-0.435887	-0.355579	0.224654	-0.049005	0.008612	-0.973168
55097	1.095261	0.378539	8.710770	0.020990	-0.782035	-1.060068	0.224804	-0.047905	0.009048	-0.973184
55098	0.749242	0.845248	7.424149	0.395841	-1.063311	-2.389316	0.225794	-0.046641	0.009147	-0.973015
55099	0.251451	1.441717	5.934781	0.951311	-1.387157	-3.936108	0.228252	-0.045101	0.009102	-0.972514
55100	-0.248939	0.897039	4.364334	1.001091	-0.673535	-5.516390	0.232917	-0.042479	0.007614	-0.971539
55101	0.154891	0.276457	4.064565	0.309766	-0.279581	-5.757225	0.239925	-0.038626	0.002459	-0.970020
55102	0.600982	1.310941	4.463308	0.392448	-1.355343	-5.339480	0.248639	-0.033432	-0.003941	-0.968011
55103	0.212380	1.512460	3.818133	0.759402	-1.317959	-5.992102	0.258395	-0.027068	-0.008716	-0.965621
55104	-0.488790	1.457340	2.687693	1.260071	-0.917605	-7.137536	0.268733	-0.019243	-0.013226	-0.962932
55105	-1.386206	1.144974	1.663889	1.808113	-0.179338	-8.169763	0.279302	-0.009037	-0.018638	-0.959980
55106	-1.142038	1.347750	2.359453	1.667845	-0.401431	-7.416008	0.289617	0.003952	-0.026395	-0.956770
55107	-0.834726	1.821537	3.972588	1.546438	-0.837072	-5.725813	0.299124	0.019173	-0.032815	-0.953457
55108	-0.894727	2.318207	4.747078	1.703119	-1.138465	-4.861865	0.307472	0.035968	-0.036111	-0.950191
55109	-1.995926	2.424314	4.877838	2.486035	-0.572240	-4.602736	0.314521	0.054217	-0.035709	-0.947028
55110	-2.853194	2.113206	4.116599	2.913510	0.139950	-5.225615	0.320336	0.074181	-0.033004	-0.943818
55111	-4.607165	2.107407	4.905009	3.951666	1.178088	-4.092990	0.325164	0.096051	-0.029504	-0.940304
55112	-5.501917	1.889290	5.893262	4.037157	1.805240	-2.812599	0.329316	0.118934	-0.023941	-0.936393
55113	-6.131937	2.321948	6.854059	4.213880	1.688565	-1.485291	0.333135	0.142258	-0.018093	-0.931910
55114	-6.496542	2.224489	6.040493	4.293769	1.886012	-1.962165	0.336820	0.166277	-0.011435	-0.926701
55115	-8.456912	1.892855	5.433117	5.303490	3.283562	-1.707905	0.340279	0.191863	-0.006630	-0.920519
55116	-9.700638	2.158586	6.321167	5.547877	3.608190	-0.071712	0.342543	0.218169	-0.003706	-0.913812
55117	-9.283227	2.126304	6.989400	4.440491	3.100106	0.684272	0.343885	0.245115	-0.001619	-0.906454
55118	-8.966149	2.852803	7.870256	3.708219	1.992385	1.707334	0.344652	0.272240	0.000678	-0.898387
55119	-9.245825	2.667515	7.373824	3.391677	2.171490	1.620376	0.345464	0.299658	0.003444	-0.889296
55120	-10.508710	3.069213	6.508490	4.197054	2.574545	1.931331	0.345223	0.327843	0.006536	-0.879373
55121	-12.147018	3.272296	6.172822	4.715801	3.206487	2.984986	0.343480	0.356477	0.008966	-0.868830
55122	-12.394154	3.668378	5.901553	4.501870	2.806912	3.366414	0.340774	0.385549	0.011345	-0.857378
55123	-12.503859	4.208624	7.776064	2.831907	1.575452	5.152198	0.338414	0.414220	0.013769	-0.844812
55124	-10.889813	4.939499	10.084045	0.138238	-0.994285	5.794937	0.338008	0.440697	0.019076	-0.831368
55125	-11.137323	5.343074	10.874232	-0.848437	-1.937535	6.505877	0.341646	0.464736	0.031558	-0.816274
55126	-11.373316	4.399828	9.778184	-1.129972	-1.289692	5.721972	0.347905	0.485956	0.048622	-0.800278
55127	-12.167392	4.453169	12.093280	-3.081233	-2.595539	7.444887	0.357413	0.503495	0.069190	-0.783557
55128	-12.464162	4.768410	14.278349	-4.700136	-4.584536	8.593017	0.371499	0.516067	0.094907	-0.765934
55129	-12.662817	4.135065	14.346371	-5.109324	-5.070766	8.390442	0.390751	0.522943	0.125064	-0.747130
55130	-13.022232	2.166132	14.283805	-6.164417	-4.593676	8.050481	0.414809	0.523736	0.157601	-0.727184
55131	-12.975046	-0.768854	12.844391	-7.194115	-2.879278	6.733963	0.440371	0.519672	0.188050	-0.707567
55132	-12.645121	-3.533454	11.294168	-8.377256	-1.275639	5.289705	0.462800	0.513953	0.211926	-0.690475
55133	-11.599158	-5.155579	9.383410	-8.764107	-0.104267	3.314706	0.478852	0.510095	0.225610	-0.677941
55134	-11.009257	-4.050596	9.082051	-7.722366	-0.907300	2.821934	0.487820	0.510500	0.227725	-0.670495
55135	-10.554016	-1.913829	9.217913	-6.038792	-2.150993	2.793764	0.492829	0.513610	0.223227	-0.665953
55136	-10.300536	-0.223387	8.636950	-4.479959	-2.405895	2.632514	0.496194	0.517820	0.214705	-0.662991
55137	-9.774149	1.614038	7.921539	-2.738285	-2.684654	2.277733	0.500435	0.520913	0.205604	-0.660259
55138	-9.529567	2.622135	6.854650	-1.518656	-2.209696	1.912556	0.507244	0.521513	0.198741	-0.656680
55139	-9.382644	2.794481	5.749021	-0.947705	-1.313492	1.424221	0.516435	0.519471	0.194561	-0.652373
55140	-9.277128	2.424398	4.882087	-0.924277	-0.373890	0.900912	0.526839	0.515515	0.192333	-0.647837
55141	-9.066681	2.110289	4.305318	-0.962686	0.247970	0.395334	0.537203	0.510716	0.191048	-0.643493
55142	-8.662565	1.707274	3.793674	-1.085235	0.728185	-0.292316	0.546710	0.505779	0.190164	-0.639635
55143	-8.403095	1.585648	3.461053	-1.050617	1.016190	-0.704027	0.554723	0.501337	0.188969	-0.636580
55144	-8.216367	1.717168	3.223275	-0.835727	1.168084	-0.936697	0.561160	0.497511	0.187682	-0.634317
55145	-8.116027	1.829181	2.895154	-0.602835	1.429381	-1.141435	0.566323	0.493989	0.186737	-0.632758
55146	-8.030242	2.015621	2.693328	-0.345921	1.563423	-1.254813	0.570418	0.490568	0.186355	-0.631852
55147	-7.956594	2.011017	2.557528	-0.276481	1.692417	-1.389412	0.573653	0.487199	0.186760	-0.631411
55148	-7.853706	1.750029	2.298687	-0.376587	1.957069	-1.685254	0.575973	0.484199	0.187700	-0.631328
55149	-7.769066	1.721269	2.288926	-0.367112	1.955075	-1.775077	0.577122	0.482220	0.188167	-0.631654
55150	-7.642005	1.793839	2.385851	-0.304401	1.806281	-1.815498	0.577474	0.481037	0.188555	-0.632119
55151	-7.645691	1.932954	2.492393	-0.206600	1.691249	-1.719363	0.577136	0.480830	0.188849	-0.632497
55152	-7.948320	2.322289	2.737820	0.019122	1.548786	-1.229836	0.576342	0.481489	0.189343	-0.632572
55153	-8.245867	2.292053	3.350328	-0.287242	1.204925	-0.705653	0.575041	0.482925	0.190104	-0.632433
55154	-8.383579	2.751925	4.114354	-0.190608	0.505121	-0.091900	0.573431	0.484724	0.191268	-0.632168
55155	-8.333467	3.131521	4.600480	-0.027525	-0.068766	0.207876	0.572237	0.486045	0.193838	-0.631452
55156	-8.451638	3.557739	4.973811	0.219976	-0.485650	0.605651	0.571701	0.486623	0.197771	-0.630271
55157	-8.475882	4.027025	5.643925	0.437487	-1.204779	1.062410	0.572450	0.485678	0.203488	-0.628499
55158	-8.696880	3.882817	5.960657	0.253941	-1.365959	1.336737	0.574957	0.482719	0.211169	-0.625951
55159	-8.943172	3.616127	6.116919	0.050750	-1.340611	1.530674	0.578490	0.478385	0.219087	-0.623296
55160	-8.842711	3.171020	5.905775	-0.136184	-1.129643	1.225010	0.582632	0.473072	0.226561	-0.620816
55161	-8.716173	2.726112	5.519827	-0.283156	-0.770243	0.826733	0.586566	0.467805	0.232416	-0.618936
55162	-8.522721	2.268774	5.128259	-0.473411	-0.425808	0.369511	0.589716	0.463433	0.235965	-0.617888
55163	-8.373544	2.194593	5.030867	-0.440865	-0.371632	0.182782	0.591739	0.460658	0.236674	-0.617758
55164	-8.450369	2.654285	5.099762	-0.016012	-0.430601	0.398857	0.593126	0.458974	0.235345	-0.618189
55165	-8.396271	2.769944	4.861695	0.162721	-0.224328	0.273388	0.594360	0.457787	0.232752	-0.618865
55166	-8.229524	2.907535	4.600261	0.368707	-0.055541	0.046408	0.595567	0.456867	0.229373	-0.619646
55167	-8.151127	2.979303	4.242687	0.522081	0.252618	-0.170039	0.596857	0.456079	0.225660	-0.620347
55168	-8.070493	2.904056	4.021010	0.493204	0.471796	-0.364479	0.598211	0.455472	0.221910	-0.620842
55169	-8.147555	2.774103	3.887720	0.363891	0.708930	-0.402201	0.599484	0.455045	0.218185	-0.621247
55170	-8.169382	2.782421	3.824858	0.351465	0.828276	-0.415864	0.600662	0.454707	0.214713	-0.621566
55171	-8.249271	2.669115	3.649198	0.254644	1.088291	-0.472356	0.601805	0.454352	0.211723	-0.621746
55172	-8.119415	2.597518	3.639418	0.180019	1.082622	-0.608738	0.602864	0.453979	0.209270	-0.621823
55173	-7.996848	2.466488	3.714887	0.028899	1.014934	-0.713100	0.603937	0.453457	0.207577	-0.621731
55174	-7.759788	2.295335	3.723642	-0.114549	0.935933	-0.954966	0.605099	0.452734	0.206708	-0.621417
55175	-7.590981	2.003058	3.517549	-0.306173	1.079252	-1.283335	0.606234	0.451989	0.206827	-0.620813
55176	-7.580031	1.915714	3.592373	-0.412641	1.035761	-1.281046	0.607002	0.451687	0.207173	-0.620166
55177	-7.657639	2.003330	3.960119	-0.458495	0.763681	-1.006900	0.607423	0.451832	0.207877	-0.619413
55178	-7.787322	2.019971	4.357527	-0.586488	0.497884	-0.695735	0.607595	0.452268	0.208978	-0.618555
55179	-7.894102	2.262327	4.728169	-0.488391	0.191615	-0.351438	0.607656	0.452848	0.210369	-0.617599
55180	-7.981884	2.382046	4.763191	-0.394959	0.161776	-0.226742	0.607820	0.453182	0.212378	-0.616504
55181	-8.135610	2.530850	4.890849	-0.303417	0.082940	0.006410	0.607952	0.453356	0.214913	-0.615366
55182	-8.217524	2.661568	5.130520	-0.242071	-0.129616	0.230135	0.607936	0.453400	0.217835	-0.614321
55183	-8.301687	2.698018	5.339672	-0.251358	-0.304075	0.412454	0.607825	0.453250	0.220979	-0.613417
55184	-8.332999	2.777540	5.401787	-0.162761	-0.393790	0.490277	0.607556	0.453003	0.224025	-0.612762
55185	-8.293155	2.812405	5.440967	-0.096695	-0.491816	0.484822	0.607092	0.452662	0.226718	-0.612482
55186	-8.242491	2.842979	5.413490	-0.016837	-0.532172	0.436382	0.606435	0.452378	0.228672	-0.612618
55187	-8.206772	2.827311	5.232941	0.051846	-0.420408	0.313959	0.605600	0.452213	0.229749	-0.613162
55188	-8.178119	2.878849	5.139374	0.147823	-0.377256	0.257982	0.604622	0.452304	0.229692	-0.614081
55189	-8.285045	2.987353	5.061689	0.260362	-0.273631	0.338385	0.603611	0.452659	0.228526	-0.615247
55190	-8.162380	2.983266	4.822282	0.329950	-0.129568	0.119735	0.602633	0.453240	0.226320	-0.616593
55191	-8.114519	3.021694	4.550476	0.425852	0.081448	-0.040544	0.601689	0.454218	0.223150	-0.617949
55192	-8.129598	3.032070	4.412708	0.435458	0.224010	-0.090765	0.600748	0.455605	0.219324	-0.619212
55193	-8.039141	3.035125	4.250595	0.451464	0.330517	-0.242211	0.599829	0.457300	0.215230	-0.620289
55194	-7.863080	3.106557	4.069004	0.546229	0.388086	-0.453934	0.598851	0.459308	0.211236	-0.621123
55195	-7.657331	3.193692	4.016116	0.621812	0.312061	-0.621423	0.598033	0.461263	0.208065	-0.621531
55196	-7.558341	3.246754	4.024083	0.637049	0.242067	-0.680404	0.597403	0.463141	0.205861	-0.621475
55197	-7.523565	3.337580	4.226828	0.623914	0.032537	-0.581266	0.597196	0.464584	0.205136	-0.620837
55198	-7.654399	3.284410	4.297766	0.512433	0.042370	-0.454079	0.597619	0.465250	0.206099	-0.619611
55199	-7.730630	3.056269	4.367028	0.264475	0.051743	-0.426438	0.598427	0.465346	0.208399	-0.617987
55200	-7.770794	2.769563	4.384703	-0.003484	0.086800	-0.470649	0.599351	0.465194	0.211430	-0.616174
55201	-7.856771	2.664179	4.403457	-0.105235	0.103234	-0.421454	0.600140	0.465175	0.214602	-0.614321
55202	-8.096379	2.730378	4.680964	-0.152259	-0.048813	-0.071434	0.600777	0.465370	0.217649	-0.612476
55203	-8.191457	2.696304	4.952414	-0.267906	-0.257906	0.125017	0.601402	0.465518	0.220618	-0.610686
55204	-8.242229	2.601800	4.909962	-0.337720	-0.219202	0.119542	0.601892	0.465767	0.223257	-0.609052
55205	-8.231098	2.656914	4.842520	-0.254644	-0.217104	0.094283	0.602089	0.466307	0.225418	-0.607646
55206	-8.225914	2.750490	4.981250	-0.203124	-0.389009	0.179861	0.602029	0.467088	0.227082	-0.606485
55207	-8.285246	2.946621	5.282126	-0.116251	-0.679559	0.422220	0.601908	0.467912	0.228494	-0.605438
55208	-8.234878	3.071957	5.368459	-0.012171	-0.830678	0.452801	0.602092	0.468280	0.230136	-0.604348
55209	-8.207055	2.937215	5.204297	-0.078060	-0.709588	0.314406	0.602448	0.468323	0.231877	-0.603294
55210	-8.120475	2.930993	5.133853	-0.038264	-0.714229	0.206178	0.602805	0.468272	0.233408	-0.602385
55211	-8.181350	2.926340	5.061606	-0.022039	-0.638828	0.222710	0.603169	0.468193	0.234750	-0.601560
55212	-8.210381	2.930729	5.003458	0.002428	-0.589715	0.221570	0.603579	0.468064	0.235933	-0.600786
55213	-8.202957	2.992918	4.991092	0.074421	-0.603257	0.226615	0.604127	0.467776	0.237040	-0.600023
55214	-8.241152	3.134587	5.000291	0.209535	-0.620153	0.302481	0.604906	0.467239	0.238201	-0.599197
55215	-8.239050	2.991340	4.907599	0.111743	-0.521241	0.218783	0.605938	0.466421	0.239432	-0.598299
55216	-8.274722	2.927296	4.782601	0.089966	-0.384701	0.175169	0.606998	0.465641	0.240410	-0.597440
55217	-8.290440	2.842677	4.613751	0.059630	-0.214303	0.089303	0.608101	0.464836	0.241121	-0.596659
55218	-8.331431	2.964591	4.491447	0.203524	-0.097173	0.103147	0.609180	0.464171	0.241407	-0.595959
55219	-8.246626	2.925923	4.338657	0.219565	0.009443	-0.048288	0.610399	0.463495	0.241559	-0.595176
55220	-8.211692	3.039503	4.316467	0.333930	0.009597	-0.056114	0.611684	0.462946	0.241580	-0.594275
55221	-8.227349	2.966852	4.375201	0.239642	-0.008673	-0.036372	0.613148	0.462331	0.241790	-0.593159
55222	-8.271372	3.003998	4.565131	0.211561	-0.140091	0.097692	0.614651	0.461728	0.242005	-0.591984
55223	-8.308451	2.961452	4.602901	0.150357	-0.135068	0.134493	0.616260	0.460876	0.242601	-0.590731
55224	-8.348992	2.939967	4.497188	0.149106	-0.008038	0.114621	0.617891	0.459820	0.243334	-0.589547
55225	-8.313675	2.888001	4.450109	0.120313	0.035383	0.048624	0.619417	0.458769	0.243934	-0.588515
55226	-8.261727	2.818180	4.271029	0.108546	0.186502	-0.097062	0.620818	0.457739	0.244343	-0.587670
55227	-8.312647	2.878742	4.160554	0.180733	0.317121	-0.088275	0.622021	0.457028	0.244260	-0.586985
55228	-8.369222	2.895173	4.123424	0.187069	0.393597	-0.053662	0.623201	0.456419	0.243989	-0.586321
55229	-8.346259	2.898464	4.045065	0.202276	0.467922	-0.108886	0.624382	0.455888	0.243473	-0.585691
55230	-8.270235	2.916860	4.043701	0.220956	0.448609	-0.168712	0.625634	0.455460	0.242875	-0.584936
55231	-8.346508	2.987494	4.027804	0.258354	0.514974	-0.092580	0.627016	0.455102	0.242067	-0.584068
55232	-8.368613	2.745550	3.965126	0.016092	0.624596	-0.174041	0.628489	0.454767	0.241355	-0.583041
55233	-8.589928	2.871761	3.988574	0.058533	0.727084	0.056983	0.629723	0.454844	0.239970	-0.582220
55234	-8.523199	2.846524	4.304605	-0.053867	0.448342	0.140866	0.631198	0.454647	0.238890	-0.581220
55235	-8.470645	2.506119	3.940511	-0.314248	0.784428	-0.177031	0.632455	0.454765	0.237492	-0.580333
55236	-8.187653	2.698218	3.845248	-0.083153	0.721379	-0.401176	0.633559	0.455129	0.236049	-0.579433
55237	-8.104381	2.560267	3.795853	-0.218198	0.745990	-0.536899	0.634559	0.455615	0.234882	-0.578429
55238	-8.099073	2.636131	3.913356	-0.203528	0.644338	-0.463792	0.635402	0.456221	0.234016	-0.577376
55239	-8.109830	2.529778	4.104043	-0.379337	0.497152	-0.398806	0.636079	0.456963	0.233521	-0.576243
55240	-8.027616	2.691676	4.443021	-0.309315	0.146572	-0.257010	0.636695	0.457614	0.233546	-0.575035
55241	-8.008437	2.659312	4.516553	-0.366843	0.066108	-0.248834	0.637485	0.457841	0.234359	-0.573647
55242	-8.019400	2.580195	4.594601	-0.464878	-0.002706	-0.228200	0.638370	0.457710	0.235851	-0.572153
55243	-8.076230	2.579470	4.609302	-0.474081	-0.001158	-0.174221	0.639434	0.457075	0.237862	-0.570639
55244	-8.129574	2.431612	4.643352	-0.619487	-0.007156	-0.159731	0.640422	0.456379	0.239871	-0.569245
55245	-8.125690	2.179010	4.605719	-0.836579	0.024237	-0.258260	0.640965	0.456073	0.241464	-0.568204
55246	-8.109613	2.253262	4.674131	-0.769573	-0.064883	-0.216123	0.640822	0.456442	0.242328	-0.567701
55247	-8.159997	2.609489	4.776732	-0.462312	-0.169186	-0.016271	0.640191	0.457090	0.242899	-0.567648
55248	-8.178003	2.748755	4.763314	-0.326877	-0.178440	0.035450	0.639378	0.457688	0.243610	-0.567778
55249	-8.331989	2.924266	4.898561	-0.213889	-0.250683	0.279915	0.638521	0.458008	0.244526	-0.568091
55250	-8.293956	2.812305	4.876481	-0.288467	-0.263362	0.203609	0.637721	0.458065	0.245681	-0.568445
55251	-8.211437	2.754131	4.871958	-0.303796	-0.314590	0.114930	0.636818	0.458195	0.246526	-0.568987
55252	-8.071493	2.884994	5.031389	-0.165047	-0.545578	0.110122	0.635799	0.458479	0.246873	-0.569745
55253	-8.078636	3.090096	5.279862	-0.013497	-0.782968	0.290617	0.634864	0.458777	0.247001	-0.570492
55254	-8.206139	3.239836	5.433330	0.077146	-0.870952	0.511740	0.634199	0.458767	0.247171	-0.571166
55255	-8.312205	3.398157	5.497878	0.203537	-0.886196	0.677312	0.633940	0.458255	0.247413	-0.571759
55256	-8.349248	3.318718	5.454118	0.146658	-0.814298	0.665222	0.634043	0.457259	0.247602	-0.572361
55257	-8.330729	3.292516	5.286907	0.177922	-0.657072	0.566600	0.634374	0.456121	0.247322	-0.573023
55258	-8.327492	3.271022	5.060621	0.214067	-0.432574	0.454910	0.634759	0.455126	0.246218	-0.573863
55259	-8.221865	3.329566	5.026072	0.296783	-0.423216	0.369608	0.635215	0.454347	0.244326	-0.574783
55260	-8.188400	3.484384	4.842322	0.475195	-0.251071	0.304123	0.635814	0.453758	0.241844	-0.575635
55261	-8.067261	3.652802	4.836659	0.639237	-0.272711	0.253775	0.636719	0.453122	0.239026	-0.576312
55262	-7.926240	3.679874	4.778641	0.681074	-0.244116	0.121011	0.638060	0.452219	0.236233	-0.576691
55263	-7.945040	3.768212	4.805160	0.726827	-0.204197	0.179423	0.639763	0.451049	0.233525	-0.576822
55264	-7.898376	3.555250	4.528666	0.568477	0.083798	-0.055517	0.641757	0.449750	0.230899	-0.576679
55265	-7.925541	3.626407	4.466798	0.609567	0.208196	-0.040177	0.643645	0.448859	0.227762	-0.576517
55266	-7.914963	3.680279	4.557340	0.598494	0.184471	0.014199	0.645449	0.448346	0.224210	-0.576291
55267	-7.953016	3.683830	4.536845	0.544200	0.282271	0.037573	0.647187	0.448184	0.220350	-0.575956
55268	-7.902769	3.767148	4.459588	0.591944	0.371138	-0.012466	0.648893	0.448331	0.216358	-0.575435
55269	-7.732952	3.820689	4.304348	0.657845	0.456236	-0.206326	0.650759	0.448452	0.212772	-0.574571
55270	-7.582089	3.801887	4.243369	0.635996	0.472274	-0.361726	0.652851	0.448292	0.210039	-0.573326
55271	-7.599697	3.639241	4.139076	0.458925	0.619867	-0.456603	0.655101	0.447793	0.208394	-0.571748
55272	-7.743191	3.500505	4.231982	0.235741	0.664072	-0.345718	0.657252	0.447201	0.207661	-0.570007
55273	-7.932325	3.169831	4.227672	-0.147048	0.812409	-0.317365	0.659200	0.446621	0.207662	-0.568209
55274	-7.973702	3.061601	4.354308	-0.306557	0.749151	-0.259777	0.660974	0.446034	0.208009	-0.566480
55275	-7.775935	2.829467	4.601238	-0.538722	0.451156	-0.370830	0.662697	0.445442	0.208664	-0.564688
55276	-7.813636	2.770270	4.816121	-0.662328	0.301365	-0.252729	0.664414	0.444842	0.209335	-0.562893
55277	-7.809687	2.629006	5.120915	-0.866269	0.055677	-0.149710	0.666286	0.443932	0.210292	-0.561039
55278	-7.997844	2.579144	5.341855	-1.012862	-0.013912	0.093211	0.668248	0.442670	0.211314	-0.559316
55279	-8.207711	2.583009	5.546401	-1.104699	-0.053271	0.364630	0.670322	0.440945	0.212376	-0.557792
55280	-8.364886	2.491759	5.733811	-1.260580	-0.097525	0.553513	0.672351	0.438883	0.213083	-0.556707
55281	-8.286986	2.379260	5.717309	-1.324135	-0.094308	0.446956	0.674191	0.436638	0.213313	-0.556157
55282	-8.069120	2.208636	5.487505	-1.362827	0.013299	0.099116	0.675484	0.434750	0.212662	-0.556317
55283	-7.730489	2.212299	5.296111	-1.222329	0.022076	-0.262358	0.675933	0.433728	0.210879	-0.557247
55284	-7.497501	2.477863	5.236950	-0.905194	-0.021188	-0.380932	0.675719	0.433396	0.208398	-0.558697
55285	-7.409699	2.875176	5.212677	-0.519021	-0.015988	-0.322033	0.675150	0.433308	0.205793	-0.560416
55286	-7.331325	3.029314	5.150115	-0.350186	0.021260	-0.361466	0.674518	0.432941	0.203698	-0.562223
55287	-7.236077	3.044507	4.970169	-0.270663	0.139652	-0.526159	0.673754	0.432414	0.202222	-0.564074
55288	-7.227353	3.065400	4.899249	-0.223768	0.211751	-0.563957	0.672767	0.431911	0.201336	-0.565952
55289	-7.223362	3.072237	5.035093	-0.229932	0.111582	-0.490541	0.671570	0.431503	0.200814	-0.567866
55290	-7.214066	3.184112	5.116149	-0.119142	0.044875	-0.413749	0.670333	0.431021	0.200804	-0.569695
55291	-7.397042	3.277343	5.135875	-0.056621	0.136322	-0.230801	0.669169	0.430333	0.201364	-0.571383
55292	-7.681915	3.173958	5.221142	-0.210795	0.236844	-0.002209	0.668097	0.429421	0.202394	-0.572958
55293	-7.838638	3.213233	5.584081	-0.251773	0.033340	0.330606	0.667072	0.428396	0.203582	-0.574497
55294	-7.983551	3.265802	5.841461	-0.245983	-0.089966	0.601551	0.666405	0.426850	0.205157	-0.575858
55295	-8.018943	3.362499	6.170681	-0.176973	-0.328984	0.843169	0.666264	0.424668	0.206840	-0.577033
55296	-8.140975	3.164956	6.204468	-0.336307	-0.256442	0.892850	0.666696	0.421727	0.208444	-0.578112
55297	-8.137565	2.855818	5.907664	-0.505535	0.023855	0.628560	0.667235	0.418846	0.209143	-0.579332
55298	-7.986419	2.710709	5.546120	-0.491952	0.271343	0.265725	0.667486	0.416705	0.208387	-0.580856
55299	-7.798589	2.974729	5.582922	-0.188332	0.170621	0.225801	0.667407	0.415379	0.206422	-0.582595
55300	-7.602316	3.275157	5.684931	0.121759	0.010649	0.228487	0.667249	0.414370	0.204052	-0.584328
55301	-7.431052	3.593183	5.771392	0.444455	-0.124629	0.248486	0.667344	0.412999	0.202217	-0.585826
55302	-7.255385	3.614697	5.685555	0.535905	-0.117790	0.073206	0.667905	0.410806	0.201256	-0.587058
55303	-6.976568	3.370692	5.544221	0.425531	-0.123782	-0.295557	0.668769	0.408059	0.201113	-0.588039
55304	-6.842914	3.109654	5.324225	0.286157	0.017703	-0.606148	0.669519	0.405472	0.200910	-0.589043
55305	-6.793854	3.034421	5.243263	0.269815	0.093455	-0.714651	0.670051	0.403266	0.200476	-0.590100
55306	-6.976273	3.160239	5.319768	0.353839	0.183642	-0.496231	0.670268	0.401508	0.199633	-0.591336
55307	-6.952102	3.168140	5.296096	0.387932	0.222761	-0.527364	0.670368	0.399914	0.198661	-0.592629
55308	-6.913856	3.136460	5.097535	0.419281	0.387282	-0.685926	0.670366	0.398613	0.197365	-0.593940
55309	-6.910950	3.246140	4.982707	0.552810	0.503278	-0.726045	0.670280	0.397750	0.195735	-0.595153
55310	-7.031066	3.393571	5.098569	0.640908	0.516445	-0.524518	0.670187	0.397123	0.194086	-0.596215
55311	-7.111147	3.431181	5.141292	0.646378	0.559809	-0.429561	0.670161	0.396598	0.192704	-0.597042
55312	-7.182673	3.545436	5.274264	0.709175	0.523453	-0.262724	0.670256	0.395982	0.191761	-0.597648
55313	-7.188448	3.486097	5.300394	0.647565	0.528121	-0.261638	0.670424	0.395297	0.191214	-0.598088
55314	-7.304517	3.457200	5.454568	0.565814	0.503171	-0.092236	0.670578	0.394710	0.190808	-0.598432
55315	-7.373690	3.475624	5.700458	0.518063	0.374322	0.113942	0.670724	0.394281	0.190430	-0.598672
55316	-7.452990	3.567527	5.904097	0.546006	0.281968	0.324128	0.671040	0.393770	0.190095	-0.598761
55317	-7.429234	3.541532	6.046836	0.497495	0.176274	0.386410	0.671697	0.392915	0.189826	-0.598671
55318	-7.208842	3.315861	5.997288	0.341580	0.099348	0.127292	0.672687	0.391854	0.189365	-0.598400
55319	-7.028871	3.067879	5.830883	0.173415	0.141401	-0.181179	0.673828	0.391052	0.188320	-0.597971
55320	-6.953719	2.957871	5.821651	0.067282	0.131112	-0.274712	0.674862	0.390791	0.186548	-0.597531
55321	-6.849538	2.933589	5.900377	0.017550	0.032490	-0.308214	0.675702	0.391017	0.184278	-0.597138
55322	-6.652701	3.052698	6.050230	0.104102	-0.186874	-0.318649	0.676422	0.391376	0.182162	-0.596737
55323	-6.531065	3.098209	6.119201	0.126051	-0.299599	-0.347352	0.677056	0.391673	0.180557	-0.596311
55324	-6.444742	3.073037	6.282425	0.061861	-0.463878	-0.313841	0.677642	0.391757	0.179690	-0.595851
55325	-6.483875	3.032913	6.531579	-0.050648	-0.613607	-0.142029	0.678206	0.391480	0.179591	-0.595422
55326	-6.622840	3.047108	6.633763	-0.087144	-0.591222	0.025836	0.678701	0.390836	0.180096	-0.595129
55327	-6.822400	3.012388	6.739921	-0.171981	-0.530595	0.223995	0.679203	0.389756	0.180937	-0.595009
55328	-6.978788	2.996699	6.894497	-0.230414	-0.531326	0.428518	0.679659	0.388368	0.181783	-0.595138
55329	-6.985746	2.952369	6.790008	-0.223484	-0.431371	0.355165	0.680206	0.386754	0.182302	-0.595405
55330	-6.995778	2.805699	6.610816	-0.306257	-0.266119	0.204850	0.680693	0.385395	0.182054	-0.595805
55331	-7.104106	2.813565	6.528554	-0.302954	-0.104880	0.232393	0.680905	0.384818	0.180653	-0.596363
55332	-7.171034	3.104988	6.634880	-0.081129	-0.110962	0.437545	0.680966	0.384767	0.178386	-0.597007
55333	-7.156097	3.337361	6.614778	0.120396	-0.075503	0.486955	0.681180	0.384614	0.176049	-0.597555
55334	-7.083828	3.385772	6.478593	0.187709	0.010364	0.364776	0.681663	0.384171	0.173995	-0.597891
55335	-7.016152	3.393127	6.444964	0.198393	0.025281	0.298551	0.682370	0.383432	0.172287	-0.598054
55336	-6.950643	3.362025	6.533550	0.151332	-0.047439	0.300505	0.683293	0.382446	0.171016	-0.597996
55337	-6.885537	3.279687	6.449768	0.101593	0.005312	0.175106	0.684439	0.381150	0.170225	-0.597738
55338	-6.769033	3.164318	6.374094	0.037333	0.016165	0.008719	0.685785	0.379585	0.169763	-0.597323
55339	-6.741071	3.075724	6.253770	-0.008362	0.119521	-0.117468	0.687268	0.377902	0.169449	-0.596774
55340	-6.780615	2.872574	6.168483	-0.186980	0.242536	-0.211400	0.688687	0.376351	0.169015	-0.596242
55341	-6.806054	2.841505	6.130266	-0.211921	0.320487	-0.229944	0.690009	0.374906	0.168511	-0.595766
55342	-6.828360	2.836054	6.054911	-0.204212	0.420959	-0.267392	0.691125	0.373571	0.168057	-0.595439
55343	-6.729038	2.773072	6.008856	-0.227583	0.412348	-0.386430	0.692092	0.372291	0.167657	-0.595230
55344	-6.680207	2.786166	5.989921	-0.196448	0.417532	-0.428974	0.692923	0.371195	0.167231	-0.595068
55345	-6.675452	2.805833	5.985808	-0.173448	0.440982	-0.429743	0.693722	0.370145	0.166826	-0.594905
55346	-6.694374	2.742561	5.899219	-0.218587	0.536759	-0.495974	0.694499	0.369232	0.166421	-0.594678
55347	-6.696581	2.673676	5.860572	-0.277764	0.583031	-0.543278	0.695162	0.368594	0.165991	-0.594420
55348	-6.703085	2.703167	5.922049	-0.268081	0.557456	-0.489249	0.695536	0.368346	0.165592	-0.594247
55349	-6.658429	2.706780	6.130292	-0.300517	0.383396	-0.378467	0.695656	0.368327	0.165557	-0.594129
55350	-6.615637	2.782272	6.408231	-0.273657	0.154766	-0.196333	0.695562	0.368313	0.166059	-0.594107
55351	-6.527139	2.761047	6.591011	-0.298891	-0.046173	-0.139175	0.695403	0.368132	0.167050	-0.594128
55352	-6.396857	2.839241	6.839203	-0.225395	-0.322239	-0.035107	0.695330	0.367702	0.168275	-0.594134
55353	-6.340793	2.761774	6.771130	-0.247882	-0.322289	-0.142327	0.695440	0.367005	0.169618	-0.594054
55354	-6.408594	2.673325	6.589255	-0.287597	-0.151155	-0.245586	0.695576	0.366275	0.170703	-0.594035
55355	-6.527931	2.631406	6.485494	-0.316284	0.003692	-0.247137	0.695541	0.365804	0.171373	-0.594173
55356	-6.728501	2.727144	6.484651	-0.259682	0.145710	-0.082730	0.695205	0.365629	0.171633	-0.594598
55357	-6.757698	2.884595	6.439945	-0.098198	0.200897	-0.044871	0.694709	0.365495	0.171742	-0.595229
55358	-6.767966	2.938771	6.193382	0.007968	0.385079	-0.187130	0.694109	0.365440	0.171644	-0.595991
55359	-6.784585	2.961893	6.119324	0.044152	0.449337	-0.218643	0.693337	0.365767	0.171159	-0.596827
55360	-6.813817	3.092217	6.170473	0.148993	0.433558	-0.124836	0.692558	0.366246	0.170577	-0.597605
55361	-6.753746	3.135202	6.184034	0.196486	0.378263	-0.142985	0.691822	0.366792	0.170108	-0.598256
55362	-6.657767	3.093191	6.358606	0.139871	0.179544	-0.103219	0.691238	0.367212	0.170005	-0.598702
55363	-6.673155	3.071119	6.462822	0.094235	0.107748	-0.029521	0.690768	0.367563	0.170129	-0.598994
55364	-6.572086	2.873252	6.474170	-0.071036	0.017236	-0.150523	0.690409	0.367825	0.170506	-0.599140
55365	-6.490413	2.833962	6.542302	-0.101424	-0.099684	-0.172237	0.690014	0.368243	0.170808	-0.599252
55366	-6.363741	2.829623	6.640594	-0.094644	-0.270532	-0.193992	0.689633	0.368582	0.171296	-0.599343
55367	-6.411595	2.885499	6.673193	-0.051549	-0.273222	-0.123062	0.689247	0.368779	0.172079	-0.599441
55368	-6.637350	2.817684	6.726245	-0.164105	-0.168417	0.045344	0.688818	0.368784	0.173067	-0.599646
55369	-6.805163	2.827186	6.920310	-0.213740	-0.203307	0.292107	0.688322	0.368615	0.174012	-0.600047
55370	-6.898234	2.776167	6.827890	-0.245318	-0.082356	0.279182	0.687729	0.368459	0.174698	-0.600622
55371	-6.922402	2.676711	6.795060	-0.326221	-0.051080	0.244560	0.686952	0.368702	0.174906	-0.601302
55372	-6.984446	2.950298	6.890302	-0.096196	-0.084223	0.431660	0.686045	0.369376	0.174575	-0.602019
55373	-6.763084	3.204877	7.093701	0.150404	-0.392217	0.490452	0.685425	0.369725	0.174504	-0.602532
55374	-6.644432	3.264764	7.319709	0.194485	-0.640868	0.576573	0.685420	0.369230	0.175131	-0.602659
55375	-6.687105	3.037467	7.264120	0.001900	-0.567126	0.501831	0.685920	0.367988	0.176125	-0.602560
55376	-6.726347	2.839654	7.094851	-0.132885	-0.405755	0.358935	0.686625	0.366385	0.176938	-0.602497
55377	-6.791262	2.635809	6.809179	-0.259987	-0.135558	0.154639	0.687240	0.364797	0.177108	-0.602708
55378	-6.748261	2.560229	6.423247	-0.233020	0.137460	-0.154601	0.687613	0.363544	0.176401	-0.603247
55379	-6.599294	2.667381	6.192593	-0.052907	0.229495	-0.380919	0.687741	0.362746	0.174813	-0.604043
55380	-6.512345	2.825794	5.965264	0.152543	0.362767	-0.548500	0.687715	0.362253	0.172812	-0.604944
55381	-6.503736	2.861400	5.688287	0.229614	0.582652	-0.732461	0.687547	0.362021	0.170649	-0.605886
55382	-6.409613	2.927004	5.548592	0.325438	0.640417	-0.872818	0.687318	0.361875	0.168694	-0.606780
55383	-6.366705	2.960062	5.470540	0.369652	0.686398	-0.946128	0.687100	0.361714	0.167048	-0.607578
55384	-6.382840	2.781876	5.235262	0.236336	0.880747	-1.149210	0.686817	0.361607	0.165674	-0.608337
55385	-6.439713	2.605772	5.066124	0.081822	1.052460	-1.279741	0.686163	0.362119	0.164050	-0.609211
55386	-6.498084	2.641313	5.000441	0.100174	1.144109	-1.275301	0.684971	0.363499	0.162083	-0.610256
55387	-6.580699	2.766536	5.161008	0.141237	1.084037	-1.071969	0.683300	0.365645	0.159986	-0.611400
55388	-6.473439	2.908583	5.476529	0.192215	0.768339	-0.883511	0.681360	0.368384	0.157932	-0.612453
55389	-6.426066	3.217967	5.692896	0.407594	0.549829	-0.669928	0.679457	0.371229	0.156471	-0.613225
55390	-6.437717	3.330715	5.856641	0.440737	0.404782	-0.513235	0.677799	0.373858	0.156005	-0.613581
55391	-6.629459	3.404165	6.212022	0.363276	0.246741	-0.120720	0.676427	0.376126	0.156594	-0.613558
55392	-6.662597	3.240696	6.362305	0.157109	0.120032	-0.048882	0.675372	0.377970	0.158297	-0.613150
55393	-6.621246	3.137641	6.636063	0.002145	-0.154427	0.071588	0.674462	0.379726	0.160418	-0.612516
55394	-6.757746	3.221821	7.053602	-0.042311	-0.417042	0.464694	0.673758	0.381315	0.162730	-0.611692
55395	-6.848917	3.102973	7.330410	-0.229840	-0.602765	0.668468	0.673348	0.382432	0.165130	-0.610803
55396	-6.900527	2.946255	7.294520	-0.363943	-0.584220	0.629235	0.673082	0.383218	0.167353	-0.609998
55397	-7.074930	2.819433	7.266040	-0.499248	-0.479243	0.690652	0.672644	0.384051	0.168878	-0.609536
55398	-7.149020	2.758988	7.218097	-0.556696	-0.423934	0.691204	0.671829	0.385136	0.169459	-0.609589
55399	-7.132945	2.889444	7.141932	-0.420539	-0.410279	0.670144	0.670645	0.386550	0.169107	-0.610096
55400	-7.032114	3.068505	6.943996	-0.200939	-0.362772	0.527206	0.669227	0.388061	0.168157	-0.610956
55401	-6.950673	3.289814	6.891176	0.013643	-0.406485	0.505139	0.667689	0.389679	0.166840	-0.611969
55402	-6.846460	3.470168	6.884725	0.182766	-0.497358	0.484628	0.666302	0.391011	0.165840	-0.612903
55403	-6.781609	3.575460	6.835074	0.294297	-0.524416	0.440640	0.665346	0.391713	0.165449	-0.613597
55404	-6.739606	3.469748	6.662178	0.246824	-0.429901	0.267011	0.664863	0.391825	0.165626	-0.614002
55405	-6.739117	3.236821	6.395132	0.102881	-0.226591	0.022377	0.664642	0.391700	0.165909	-0.614245
55406	-6.820006	3.139665	6.326953	0.018186	-0.118311	0.004949	0.664377	0.391773	0.165936	-0.614478
55407	-6.906208	3.209888	6.152251	0.115743	0.059709	-0.023289	0.664061	0.391925	0.165984	-0.614708
55408	-6.975439	3.191856	6.150511	0.089423	0.104615	0.018616	0.663681	0.392009	0.166181	-0.615013
55409	-6.942251	3.137715	6.034508	0.081737	0.162780	-0.095578	0.663234	0.392078	0.166595	-0.615339
55410	-6.911095	3.075516	5.929995	0.063167	0.213451	-0.203457	0.662671	0.392270	0.166799	-0.615767
55411	-6.912116	2.983011	5.920762	-0.019942	0.219542	-0.237588	0.661957	0.392725	0.166609	-0.616296
55412	-6.966336	2.991483	5.825097	-0.001425	0.319320	-0.257135	0.661080	0.393433	0.165920	-0.616972
55413	-6.985693	2.986308	5.631844	0.029583	0.467720	-0.367268	0.659929	0.394524	0.164738	-0.617823
55414	-6.845004	3.106421	5.699030	0.130468	0.306113	-0.385488	0.658470	0.396084	0.163147	-0.618803
55415	-6.761445	3.310858	5.526607	0.360517	0.344896	-0.486740	0.656886	0.397927	0.161640	-0.619699
55416	-6.621706	3.521243	5.530351	0.556907	0.209246	-0.513392	0.655382	0.399863	0.160563	-0.620325
55417	-6.702561	3.643520	5.629572	0.608143	0.156006	-0.352382	0.654210	0.401537	0.160377	-0.620529
55418	-6.729995	3.590904	5.705154	0.521297	0.095649	-0.301892	0.653439	0.402759	0.161058	-0.620374
55419	-6.793844	3.375288	5.703645	0.305499	0.129742	-0.327424	0.652864	0.403807	0.162190	-0.620002
55420	-6.735737	3.305708	5.802952	0.221514	-0.007953	-0.329919	0.652292	0.404957	0.163333	-0.619555
55421	-6.687868	3.401685	6.015157	0.257352	-0.238625	-0.202386	0.651758	0.406155	0.164471	-0.619031
55422	-6.706933	3.394423	6.108553	0.220404	-0.328321	-0.134722	0.651353	0.407167	0.165916	-0.618407
55423	-6.905102	3.349777	6.196981	0.123460	-0.292715	0.046469	0.650977	0.407981	0.167710	-0.617782
55424	-7.069125	3.181946	6.115294	-0.030097	-0.144373	0.060117	0.650460	0.408773	0.169512	-0.617311
55425	-7.256711	3.138140	6.102182	-0.091975	-0.044692	0.173995	0.649618	0.409811	0.170993	-0.617100
55426	-7.283944	3.169563	6.183273	-0.086684	-0.129242	0.252624	0.648447	0.411173	0.171926	-0.617167
55427	-7.240999	3.356352	6.171030	0.094944	-0.203658	0.273352	0.647156	0.412770	0.172191	-0.617382
55428	-7.110336	3.478145	6.040965	0.255925	-0.236018	0.138510	0.646044	0.414414	0.172027	-0.617491
55429	-7.062230	3.556455	5.974730	0.336904	-0.252141	0.089014	0.645214	0.416006	0.171644	-0.617394
55430	-7.165699	3.609389	6.080784	0.316432	-0.291092	0.245441	0.644765	0.417221	0.171483	-0.617089
55431	-7.178778	3.491307	6.073776	0.191949	-0.281548	0.212216	0.644562	0.417971	0.171736	-0.616723
55432	-7.240778	3.304320	5.961838	0.034847	-0.151129	0.130494	0.644405	0.418332	0.172309	-0.616481
55433	-7.168106	3.108596	5.799361	-0.087404	-0.067752	-0.083070	0.643890	0.418855	0.172554	-0.616596
55434	-7.280237	3.230104	5.810476	0.001751	-0.031238	0.046119	0.642998	0.419573	0.172560	-0.617037
55435	-7.388053	3.373981	5.750463	0.135557	0.051997	0.137881	0.641792	0.420219	0.172535	-0.617860
55436	-7.437923	3.333602	5.730848	0.097494	0.088974	0.150284	0.640186	0.420946	0.172148	-0.619137
55437	-7.454720	3.526021	5.781117	0.261023	0.025661	0.254993	0.638253	0.421761	0.171285	-0.620816
55438	-7.633963	3.673143	5.750786	0.377891	0.136690	0.418608	0.636166	0.422417	0.170040	-0.622852
55439	-8.000446	3.549364	5.617867	0.244286	0.488932	0.573208	0.633985	0.422885	0.168308	-0.625223
55440	-8.477662	3.432759	5.536461	0.085753	0.887132	0.841542	0.631644	0.423233	0.165645	-0.628062
55441	-8.585054	3.262608	5.345784	-0.029383	1.149768	0.751509	0.629100	0.423599	0.162017	-0.631306
55442	-8.559676	3.021766	4.905302	-0.109181	1.533255	0.390163	0.626101	0.424216	0.157225	-0.635073
55443	-8.241954	2.784437	4.648845	-0.207705	1.594356	-0.080815	0.622445	0.425401	0.151271	-0.639307
55444	-8.174660	2.683708	4.551199	-0.276200	1.682616	-0.229730	0.618148	0.427156	0.144630	-0.643827
55445	-7.596632	2.475336	4.372130	-0.345740	1.501967	-0.836271	0.613388	0.429058	0.138325	-0.648483
55446	-6.961853	2.253714	4.299980	-0.456326	1.197709	-1.422594	0.608181	0.430996	0.132943	-0.653211
55447	-6.264543	2.177673	4.374243	-0.476919	0.700542	-1.913160	0.602809	0.432360	0.129715	-0.657921
55448	-5.827367	2.190117	4.429653	-0.418177	0.352330	-2.191831	0.597551	0.432561	0.129591	-0.662593
55449	-5.656641	1.699192	4.571100	-0.848289	0.232233	-2.396105	0.592175	0.432054	0.132470	-0.667165
55450	-6.007064	1.651351	5.274326	-1.128067	-0.059004	-1.728563	0.586436	0.431387	0.137517	-0.671630
55451	-6.115666	1.809051	5.955868	-1.159668	-0.584524	-1.183808	0.580876	0.429808	0.145110	-0.675864
55452	-6.332687	1.889489	6.112183	-1.005044	-0.678923	-0.893203	0.575688	0.427075	0.154717	-0.679892
55453	-6.645588	1.759305	6.143039	-0.960244	-0.578304	-0.662006	0.570614	0.423761	0.165193	-0.683767
55454	-7.628193	1.688599	6.226581	-0.873030	-0.117670	0.138707	0.565199	0.421080	0.174987	-0.687475
55455	-8.687667	2.152540	6.586430	-0.389928	0.008961	1.292877	0.558887	0.419994	0.182835	-0.691247
55456	-9.458685	2.920559	6.684127	0.460842	0.016124	2.122851	0.551619	0.420590	0.189189	-0.695002
55457	-9.798827	3.784050	6.992382	1.286570	-0.469716	2.731189	0.543533	0.422533	0.194843	-0.698623
55458	-9.829672	4.319074	7.175402	1.820013	-0.987314	2.933701	0.534951	0.425261	0.200631	-0.701946
55459	-9.149313	4.608508	7.318661	2.072666	-1.829272	2.469954	0.526166	0.428554	0.206448	-0.704890
55460	-8.072774	4.737210	7.343016	2.153911	-2.738751	1.562096	0.517576	0.432249	0.212097	-0.707312
55461	-7.010273	4.619259	7.246161	2.012591	-3.418841	0.543260	0.509607	0.436326	0.216919	-0.709131
55462	-6.173025	4.769434	7.426733	1.981908	-4.239357	-0.111792	0.502613	0.440747	0.220192	-0.710378
55463	-5.499512	4.816844	7.396653	1.927269	-4.726606	-0.751766	0.497247	0.444849	0.222331	-0.710931
55464	-4.815171	4.590431	7.162530	1.697842	-4.903873	-1.528467	0.493643	0.448405	0.223447	-0.710860
55465	-4.132637	4.437182	6.808081	1.591054	-4.972800	-2.338950	0.491928	0.451109	0.223967	-0.710173
55466	-3.569391	4.050917	6.196466	1.411629	-4.654192	-3.187553	0.491973	0.452964	0.224178	-0.708894
55467	-3.188741	3.718768	5.747707	1.245611	-4.367493	-3.778876	0.493504	0.454210	0.223857	-0.707131
55468	-3.365962	3.490338	5.405882	1.188940	-3.913370	-3.812053	0.496361	0.455043	0.222929	-0.704886
55469	-3.811330	3.506041	5.272507	1.287238	-3.569404	-3.470757	0.500590	0.455349	0.221521	-0.702136
55470	-4.208234	3.687337	5.206107	1.500788	-3.345028	-3.106923	0.506525	0.454887	0.220018	-0.698643
55471	-5.086782	4.028250	5.133011	1.898254	-2.901371	-2.300844	0.514628	0.453227	0.219033	-0.694096
55472	-6.466439	4.184539	4.914857	2.208151	-1.971198	-1.168729	0.524855	0.450191	0.219391	-0.688276
55473	-8.990318	4.161033	4.435364	2.466027	-0.127374	0.756742	0.536015	0.446091	0.221303	-0.681700
55474	-11.829802	4.023700	3.842845	2.588332	2.043763	2.837340	0.546563	0.441567	0.224888	-0.675065
55475	-15.010500	3.862622	3.262432	2.606311	4.388132	5.181589	0.554932	0.437641	0.229315	-0.669279
55476	-17.317525	3.789458	3.064544	2.533120	5.901862	6.992035	0.560380	0.434578	0.232707	-0.665555
55477	-17.363806	3.846371	2.622366	2.678936	6.328765	6.798837	0.563410	0.432831	0.233936	-0.663702
55478	-16.473364	4.114393	2.154105	3.042707	6.201737	5.846818	0.565003	0.432662	0.232880	-0.662829
55479	-15.155983	3.964604	2.159644	2.849929	5.558633	4.715382	0.565934	0.433970	0.230027	-0.662175
55480	-13.472469	3.537352	2.339460	2.326430	4.634401	3.325138	0.566404	0.436582	0.225753	-0.661527
55481	-11.542655	3.205953	2.621371	1.861915	3.457527	1.804557	0.566508	0.439994	0.220783	-0.660855
55482	-9.687390	2.771857	2.727382	1.371148	2.477561	0.234611	0.566501	0.443504	0.216103	-0.660060
55483	-7.871185	2.225662	2.757657	0.826116	1.603712	-1.371188	0.566425	0.446881	0.211498	-0.659340
55484	-6.327902	1.785348	2.771236	0.401597	0.867060	-2.741894	0.566570	0.449881	0.206951	-0.658617
55485	-5.083514	1.294446	2.764229	-0.053386	0.330925	-3.892718	0.567140	0.452155	0.202279	-0.658021
55486	-4.235802	0.986608	3.017367	-0.437283	-0.230523	-4.542461	0.568190	0.453809	0.197069	-0.657557
55487	-4.048178	0.703851	3.084570	-0.757296	-0.274085	-4.738358	0.570124	0.454340	0.191839	-0.657063
55488	-4.567759	0.642538	3.367212	-0.993573	-0.129030	-4.190305	0.572625	0.453918	0.186487	-0.656720
55489	-5.530908	0.911965	4.064470	-1.112393	-0.113300	-2.979550	0.575732	0.452111	0.181909	-0.656535
55490	-6.775564	0.792513	4.329264	-1.430319	0.528880	-1.878408	0.579430	0.448667	0.179151	-0.656402
55491	-7.763399	0.506611	3.801491	-1.564487	1.673601	-1.462282	0.582332	0.445215	0.176912	-0.656791
55492	-9.375125	0.573693	3.451426	-1.485298	2.961109	-0.370236	0.582913	0.443771	0.174738	-0.657834
55493	-11.481715	0.708132	3.796348	-1.640317	3.988838	1.507294	0.580102	0.445262	0.171982	-0.660035
55494	-12.333258	1.114302	4.848622	-1.716659	3.611701	2.870712	0.574414	0.448402	0.169402	-0.663541
55495	-12.105477	1.700088	6.026113	-1.609281	2.387161	3.508652	0.567129	0.452132	0.167735	-0.667687
55496	-11.567408	2.097304	7.407157	-1.751426	0.841625	3.945685	0.560045	0.454940	0.168126	-0.671649
55497	-11.108852	2.058304	8.185963	-2.027178	-0.094677	3.990687	0.554774	0.455848	0.171167	-0.674633
55498	-10.839951	1.871334	8.123144	-2.046507	-0.249983	3.705403	0.551877	0.454582	0.176357	-0.676524
55499	-10.204123	1.259446	7.214689	-2.056510	0.161474	2.576989	0.550933	0.451485	0.182902	-0.677629
55500	-9.522114	0.388314	6.371558	-2.335336	0.603475	1.394346	0.551042	0.447159	0.190182	-0.678404
55501	-8.924866	-0.507915	6.345773	-2.991934	0.505893	0.721561	0.551030	0.442767	0.196392	-0.679525
55502	-8.051072	-1.170005	6.933574	-3.701610	-0.264353	0.211787	0.550129	0.439139	0.200223	-0.681488
55503	-6.989744	-1.348653	7.164014	-3.871727	-0.989095	-0.537484	0.548439	0.436583	0.201421	-0.684134
55504	-6.388168	-1.082810	7.099300	-3.556569	-1.335140	-0.983810	0.546378	0.434526	0.200494	-0.687358
55505	-5.924593	-0.979588	6.713741	-3.293505	-1.287407	-1.528385	0.544496	0.432400	0.198292	-0.690822
55506	-5.801330	-0.728153	6.077979	-2.800245	-0.892082	-1.907649	0.542886	0.430046	0.194715	-0.694565
55507	-5.799486	-0.442327	5.638770	-2.350912	-0.575630	-2.081807	0.541596	0.427446	0.190184	-0.698422
55508	-5.853281	-0.401093	5.056090	-2.071770	-0.033733	-2.350010	0.540146	0.425161	0.184346	-0.702494
55509	-5.930895	-0.014767	4.972423	-1.678460	0.044260	-2.257520	0.538465	0.423200	0.177588	-0.706697
55510	-5.969502	0.072727	4.589931	-1.443149	0.412656	-2.433401	0.536450	0.421671	0.170558	-0.710863
55511	-6.229447	0.306048	4.433254	-1.156158	0.695425	-2.280602	0.533853	0.421056	0.163064	-0.714929
55512	-6.408909	0.578009	4.325897	-0.868650	0.867499	-2.156719	0.530512	0.421554	0.155282	-0.718844
55513	-6.565102	0.762736	4.307263	-0.710346	0.982628	-2.017549	0.526488	0.423184	0.147391	-0.722497
55514	-6.692753	1.056967	3.978286	-0.327137	1.221340	-2.057829	0.522017	0.426004	0.139480	-0.725647
55515	-6.684287	1.594701	3.823904	0.164914	1.129168	-2.031785	0.517549	0.429771	0.132122	-0.728000
55516	-6.947824	2.367314	4.211365	0.602714	0.733826	-1.403776	0.513769	0.433841	0.126066	-0.729336
55517	-6.918460	2.674641	4.754267	0.517319	0.235244	-1.020733	0.511313	0.437506	0.122542	-0.729473
55518	-7.150749	2.402906	5.394227	-0.087677	0.086664	-0.539646	0.510008	0.440785	0.121088	-0.728655
55519	-7.446071	2.169244	6.144194	-0.705480	-0.119213	0.055874	0.509786	0.443467	0.121119	-0.727176
55520	-7.449049	2.122737	6.280423	-0.857588	-0.216767	0.119856	0.510517	0.445338	0.122238	-0.725331
55521	-7.828231	2.296172	6.914174	-1.031896	-0.492694	0.819892	0.512130	0.446107	0.124257	-0.723375
55522	-8.165767	2.618902	7.123717	-0.832231	-0.590078	1.288881	0.514331	0.445464	0.127195	-0.721697
55523	-8.477644	2.769824	6.664656	-0.403156	-0.193421	1.312048	0.516727	0.443608	0.131210	-0.720409
55524	-8.606202	2.417333	5.956332	-0.282856	0.471113	0.915119	0.518154	0.441836	0.134998	-0.719773
55525	-8.781450	2.291829	5.970775	-0.342354	0.595670	1.029098	0.517562	0.441454	0.136843	-0.720085
55526	-8.673034	2.427672	6.021086	-0.243690	0.408579	1.010538	0.514725	0.442774	0.136275	-0.721414
55527	-8.488114	3.081820	6.055802	0.270827	-0.041946	1.056680	0.510236	0.445307	0.133902	-0.723486
55528	-8.160637	3.610073	5.878738	0.745916	-0.398544	0.839666	0.504904	0.448346	0.130729	-0.725925
55529	-7.960697	4.294116	5.950200	1.223237	-0.922408	0.905030	0.499676	0.451226	0.127922	-0.728255
55530	-7.976612	4.598462	6.027355	1.404020	-1.157574	1.040406	0.495177	0.453245	0.126937	-0.730244
55531	-7.960992	4.459764	5.956873	1.322284	-1.118238	0.946120	0.491573	0.454097	0.128085	-0.731947
55532	-7.986914	4.140344	5.909535	1.113386	-0.983266	0.847936	0.488523	0.454205	0.130285	-0.733531
55533	-8.024591	3.999463	5.907565	1.042965	-0.952522	0.831258	0.485535	0.454105	0.132282	-0.735218
55534	-7.748222	3.717286	5.703161	0.924622	-0.896034	0.420649	0.482403	0.453914	0.133136	-0.737241
55535	-7.558257	3.747804	5.479979	1.073449	-0.911752	0.148227	0.479181	0.453810	0.132495	-0.739518
55536	-7.603626	4.100184	5.338662	1.463058	-0.987369	0.187937	0.476101	0.453450	0.130833	-0.742020
55537	-7.557374	4.081622	5.376207	1.438308	-1.028410	0.164825	0.473544	0.452410	0.129287	-0.744558
55538	-7.872154	3.926801	5.536746	1.293485	-0.852400	0.465753	0.471183	0.450960	0.127588	-0.747224
55539	-8.035051	3.473570	5.362576	1.071131	-0.393229	0.389415	0.468456	0.449748	0.125198	-0.750068
55540	-7.917619	3.280208	5.162399	1.018727	-0.213308	0.137963	0.464749	0.449543	0.120933	-0.753189
55541	-7.450384	3.406137	5.376889	0.903397	-0.655788	-0.077466	0.460266	0.450405	0.115089	-0.756337
55542	-6.817022	3.477962	5.520586	0.719880	-1.119534	-0.470695	0.455708	0.451977	0.108376	-0.759145
55543	-6.344491	3.517741	5.591018	0.551846	-1.422481	-0.781753	0.451483	0.454214	0.101098	-0.761336
55544	-6.242573	4.239642	6.159129	0.673192	-2.176082	-0.342206	0.448662	0.455712	0.095471	-0.762833
55545	-6.298432	4.202493	6.539434	0.376626	-2.301286	-0.083476	0.448097	0.455663	0.093632	-0.763422
55546	-6.361738	3.633092	6.555518	-0.050739	-1.926049	-0.172483	0.449298	0.454232	0.094652	-0.763443
55547	-6.560770	3.205787	6.404671	-0.210182	-1.471460	-0.214198	0.451378	0.452236	0.096849	-0.763126
55548	-6.841142	2.904162	5.999770	-0.100907	-0.904616	-0.304589	0.453591	0.450363	0.099266	-0.762610
55549	-7.129689	2.678251	5.731659	-0.030394	-0.452303	-0.291560	0.455227	0.449260	0.100723	-0.762095
55550	-7.398941	2.829029	5.771938	0.125949	-0.395526	-0.020308	0.456183	0.448944	0.101167	-0.761651
55551	-7.543146	3.033267	5.770031	0.314610	-0.418977	0.143140	0.456912	0.448865	0.101400	-0.761229
55552	-7.633589	3.051711	5.740653	0.363000	-0.354885	0.201403	0.457635	0.448666	0.101731	-0.760868
55553	-7.664029	2.875288	5.579033	0.327087	-0.140776	0.086980	0.458490	0.448342	0.101940	-0.760516
55554	-7.653678	2.639107	5.461205	0.206662	0.063506	-0.049406	0.459260	0.448151	0.101410	-0.760235
55555	-7.679641	2.593137	5.350960	0.226732	0.188464	-0.104597	0.459906	0.448340	0.099859	-0.759938
55556	-7.662632	2.609863	5.228063	0.283888	0.267513	-0.184207	0.460523	0.448827	0.097652	-0.759564
55557	-7.703372	2.508995	5.040942	0.290365	0.486567	-0.287623	0.461322	0.449383	0.095429	-0.759032
55558	-7.559960	2.273066	4.732111	0.231606	0.734493	-0.641024	0.462334	0.449957	0.093443	-0.758324
55559	-7.532218	2.377680	4.634235	0.335191	0.741808	-0.691227	0.463542	0.450557	0.091849	-0.757424
55560	-7.411897	2.070955	4.869332	-0.093345	0.727686	-0.735399	0.465004	0.450896	0.091121	-0.756413
55561	-7.379109	1.646449	5.122971	-0.605723	0.814752	-0.736559	0.466378	0.451211	0.090613	-0.755440
55562	-7.483929	1.746388	5.400486	-0.694867	0.680541	-0.470401	0.467702	0.451373	0.090454	-0.754543
55563	-7.821642	1.647469	5.363924	-0.716662	0.972880	-0.262620	0.468772	0.451800	0.090181	-0.753656
55564	-7.868112	1.585651	5.327392	-0.760919	1.061484	-0.268225	0.469485	0.452691	0.089559	-0.752751
55565	-8.041876	1.825110	5.595423	-0.736790	0.892621	0.085385	0.470152	0.453701	0.089046	-0.751786
55566	-8.040540	2.245385	6.362763	-0.886770	0.231463	0.643738	0.471219	0.453973	0.089547	-0.750894
55567	-7.991603	2.272791	6.782482	-1.115908	-0.060798	0.854287	0.473017	0.453062	0.091728	-0.750050
55568	-7.895298	1.943375	6.842458	-1.393744	0.004799	0.722443	0.475017	0.451563	0.094341	-0.749366
55569	-7.825344	1.784145	6.778627	-1.453309	0.068191	0.591738	0.476855	0.449913	0.096595	-0.748904
55570	-7.734828	1.769056	6.592395	-1.337675	0.124246	0.415310	0.478191	0.448626	0.097516	-0.748705
55571	-7.694853	2.082761	6.496893	-1.015382	0.002328	0.420944	0.479241	0.447413	0.097553	-0.748755
55572	-7.670455	2.119190	6.422333	-0.930086	0.036663	0.370961	0.480160	0.446036	0.096863	-0.749076
55573	-7.605415	2.369697	6.427845	-0.723107	-0.100426	0.397202	0.481175	0.444277	0.095839	-0.749603
55574	-7.543479	2.305728	6.161908	-0.606735	0.090943	0.177954	0.482349	0.442038	0.094845	-0.750298
55575	-7.426189	2.237270	5.985228	-0.549235	0.202682	-0.033446	0.483493	0.439604	0.093546	-0.751154
55576	-7.271448	2.026982	5.603849	-0.501660	0.483449	-0.437185	0.484299	0.437579	0.091357	-0.752086
55577	-7.209108	1.972127	5.348642	-0.405807	0.676614	-0.655961	0.484416	0.436506	0.087593	-0.753081
55578	-7.111768	2.325601	5.286523	-0.117091	0.531778	-0.667413	0.484025	0.436184	0.082845	-0.754056
55579	-7.078444	2.352082	5.180194	-0.069263	0.619961	-0.752804	0.483347	0.436312	0.077842	-0.754949
55580	-7.103687	2.438245	4.998147	0.076318	0.750517	-0.822725	0.482476	0.436595	0.072998	-0.755825
55581	-7.060148	2.637984	4.706009	0.371144	0.824554	-0.973383	0.481580	0.436776	0.068769	-0.756689
55582	-6.984229	2.459724	4.288987	0.442595	1.128902	-1.341876	0.480516	0.437219	0.064886	-0.757452
55583	-6.981396	2.400487	4.018052	0.529722	1.331498	-1.530579	0.478848	0.438492	0.060636	-0.758124
55584	-7.090318	2.313557	3.926953	0.494846	1.521075	-1.536977	0.476488	0.440739	0.056100	-0.758657
55585	-7.169882	2.221046	3.771730	0.480051	1.716852	-1.603675	0.473371	0.444053	0.051124	-0.759028
55586	-7.145979	2.573703	3.890450	0.606088	1.451994	-1.425287	0.469693	0.448170	0.046090	-0.759215
55587	-7.191919	2.691796	3.998399	0.559217	1.355189	-1.279992	0.465798	0.452658	0.041782	-0.759201
55588	-7.406645	2.872333	4.308893	0.452614	1.223510	-0.869929	0.462165	0.456872	0.038925	-0.759050
55589	-7.615100	2.568181	4.463670	0.099701	1.425910	-0.731599	0.458984	0.460395	0.037749	-0.758911
55590	-7.430260	2.129604	4.189255	-0.108577	1.644429	-1.176855	0.455758	0.463703	0.037467	-0.758855
55591	-7.536700	2.100528	4.126690	-0.111626	1.712664	-1.135270	0.451935	0.467635	0.036578	-0.758772
55592	-7.561309	2.201855	4.364082	-0.250605	1.505697	-0.939340	0.447292	0.472439	0.034696	-0.758635
55593	-7.592907	2.314337	4.707147	-0.476055	1.247682	-0.681339	0.441880	0.477986	0.031754	-0.758461
55594	-7.643228	2.965660	5.199877	-0.449326	0.604027	-0.133586	0.436288	0.483616	0.028637	-0.758253
55595	-7.528597	3.319677	5.262520	-0.366816	0.231634	-0.055389	0.430997	0.488981	0.026113	-0.757929
55596	-7.349095	3.538344	5.295427	-0.365786	-0.091853	-0.095316	0.426223	0.494220	0.024493	-0.757285
55597	-7.556429	4.010850	5.714250	-0.424167	-0.524100	0.452946	0.421776	0.499594	0.023459	-0.756281
55598	-7.819496	4.288922	6.521824	-0.898802	-0.993648	1.154394	0.417894	0.504685	0.023776	-0.755045
55599	-7.847934	4.365790	6.811176	-1.148016	-1.258605	1.329070	0.414343	0.509352	0.025394	-0.753814
55600	-8.080599	4.695398	7.179392	-1.243642	-1.620145	1.793926	0.411326	0.513222	0.028206	-0.752740
55601	-7.915267	4.550889	6.987230	-1.253569	-1.655845	1.495221	0.408683	0.516285	0.032003	-0.751933
55602	-7.900131	4.631121	6.464824	-0.826853	-1.595172	1.251841	0.406164	0.518791	0.036153	-0.751385
55603	-7.933029	4.895633	6.232193	-0.478178	-1.763297	1.250825	0.403523	0.520868	0.040438	-0.751153
55604	-8.005664	4.715799	6.292393	-0.622607	-1.750283	1.253987	0.400559	0.522633	0.044593	-0.751279
55605	-8.001970	4.589029	6.337357	-0.732274	-1.800249	1.208871	0.396866	0.524381	0.047584	-0.751836
55606	-8.046656	4.855820	6.363910	-0.577407	-2.068534	1.332449	0.392662	0.526118	0.049422	-0.752711
55607	-8.069499	4.858511	6.098626	-0.387336	-2.010664	1.220077	0.388026	0.527831	0.049924	-0.753882
55608	-8.117257	5.300644	5.883550	0.039422	-2.253417	1.301404	0.383316	0.529349	0.049393	-0.755261
55609	-7.943829	5.975604	5.781578	0.497075	-2.822279	1.324025	0.379347	0.529996	0.049014	-0.756834
55610	-7.833878	5.787443	5.463848	0.611119	-2.640009	1.021262	0.376573	0.529596	0.049783	-0.758448
55611	-7.565536	5.738244	5.268734	0.723961	-2.687201	0.683926	0.374793	0.528180	0.051120	-0.760225
55612	-7.426675	5.328587	5.004527	0.703712	-2.365590	0.311692	0.373740	0.526147	0.052749	-0.762040
55613	-7.306600	5.073136	4.859082	0.693607	-2.188350	0.059677	0.372747	0.524015	0.053559	-0.763937
55614	-7.300511	4.946480	4.592537	0.865549	-1.976351	-0.106956	0.371647	0.522056	0.053550	-0.765812
55615	-7.209697	4.934355	4.476772	0.968661	-1.953078	-0.241054	0.370338	0.520201	0.052695	-0.767766
55616	-7.096615	4.872540	4.299901	1.075884	-1.871190	-0.435387	0.368930	0.518336	0.051381	-0.769791
55617	-7.107390	5.201873	4.412231	1.231227	-2.139317	-0.275942	0.367696	0.516035	0.050219	-0.772001
55618	-7.258165	5.188884	4.423348	1.294899	-2.042438	-0.152314	0.366931	0.513098	0.050219	-0.774319
55619	-7.571259	4.847479	4.073045	1.483577	-1.465589	-0.165811	0.366300	0.509737	0.051119	-0.776775
55620	-8.041484	4.538376	3.988915	1.536323	-0.959003	0.081410	0.365326	0.506354	0.052170	-0.779372
55621	-8.215783	4.294038	3.674270	1.738574	-0.553913	-0.009209	0.363502	0.503443	0.052570	-0.782079
55622	-8.333686	4.077922	3.250146	2.010988	-0.156104	-0.191120	0.360479	0.501571	0.051642	-0.784739
55623	-8.554439	3.967319	3.233994	2.041675	0.028867	-0.055258	0.355978	0.500971	0.048905	-0.787347
55624	-8.911894	4.259707	3.540630	2.077502	-0.157388	0.471387	0.350507	0.501599	0.044517	-0.789659
55625	-8.896051	4.347712	3.605407	2.046786	-0.273149	0.520616	0.344952	0.503106	0.039097	-0.791431
55626	-8.966770	4.865161	4.014836	1.995984	-0.800404	0.937507	0.340359	0.504893	0.033518	-0.792537
55627	-8.828945	5.095036	4.425118	1.712337	-1.197328	1.101769	0.337932	0.506126	0.029606	-0.792945
55628	-8.677008	4.585406	4.720514	1.116418	-0.972498	0.976540	0.338126	0.506357	0.027779	-0.792781
55629	-8.828999	4.256731	4.916438	0.813456	-0.679707	1.101452	0.341027	0.505211	0.027628	-0.792275
55630	-8.883287	3.124203	5.031561	0.122913	0.224399	0.860837	0.346403	0.502469	0.028748	-0.791646
55631	-9.035992	2.599593	5.065459	-0.118160	0.765178	0.839329	0.353212	0.498326	0.029212	-0.791239
55632	-8.863242	2.231375	4.596829	0.040251	1.239211	0.342524	0.361309	0.493169	0.029702	-0.790796
55633	-8.859717	1.443849	4.055612	0.031157	2.153357	-0.200826	0.369733	0.487523	0.029530	-0.790409
55634	-8.780463	1.035828	4.321796	-0.392755	2.422117	-0.282479	0.377799	0.481674	0.028369	-0.790223
55635	-8.587200	0.177037	4.471281	-1.045352	2.982049	-0.659702	0.385443	0.475795	0.027515	-0.790124
55636	-8.406120	-0.485719	4.593404	-1.564936	3.393984	-0.979282	0.391758	0.470522	0.025986	-0.790227
55637	-8.203674	-0.800247	4.479800	-1.706746	3.625576	-1.330302	0.396468	0.466200	0.024346	-0.790492
55638	-7.875375	-1.114381	4.129034	-1.718692	3.851617	-1.905530	0.399275	0.463270	0.022860	-0.790846
55639	-7.416693	-1.182677	4.179364	-1.902141	3.645285	-2.265057	0.399810	0.462248	0.020469	-0.791239
55640	-7.017821	-0.712384	4.888571	-2.203108	2.826172	-2.014325	0.398745	0.462708	0.018668	-0.791553
55641	-6.668016	-0.537003	5.329540	-2.499832	2.319416	-1.968841	0.397038	0.463897	0.018701	-0.791714
55642	-6.691918	-0.189445	5.830305	-2.637242	1.868440	-1.544445	0.395049	0.465550	0.020329	-0.791698
55643	-6.828870	-0.339937	5.801869	-2.685086	2.009217	-1.496220	0.393206	0.467416	0.023639	-0.791424
55644	-7.158176	-0.288425	5.924255	-2.663429	2.043770	-1.143893	0.390995	0.469641	0.027333	-0.791084
55645	-7.402474	-0.179272	5.814769	-2.459164	2.068101	-0.963113	0.388368	0.472029	0.031415	-0.790804
55646	-7.469741	-0.322382	5.528714	-2.331571	2.233239	-1.092405	0.384755	0.474592	0.035036	-0.790884
55647	-7.457888	-0.265152	5.472629	-2.258456	2.124179	-1.093356	0.379817	0.477348	0.037575	-0.791496
55648	-7.515934	-0.356821	5.705284	-2.469644	2.051905	-0.932538	0.373417	0.480193	0.038696	-0.792765
55649	-7.311207	-0.268665	5.365026	-2.213718	1.965599	-1.236841	0.365511	0.483248	0.038066	-0.794621
55650	-7.007801	-0.123860	4.769071	-1.761572	1.910030	-1.743161	0.355923	0.486856	0.035123	-0.796905
55651	-6.897695	0.327959	4.507377	-1.334531	1.604985	-1.834893	0.344678	0.491284	0.029760	-0.799344
55652	-7.016060	0.664515	4.650303	-1.248549	1.352071	-1.572247	0.331947	0.496439	0.022375	-0.801785
55653	-7.107377	0.712516	4.745648	-1.320002	1.334126	-1.444827	0.318291	0.502001	0.013894	-0.804048
55654	-6.924660	1.012548	4.466655	-1.054238	1.111544	-1.653042	0.303895	0.507851	0.004492	-0.806049
55655	-7.018423	1.562155	4.328857	-0.719975	0.757498	-1.485336	0.289400	0.513765	-0.004975	-0.807631
55656	-7.171749	1.922782	4.318346	-0.591296	0.525547	-1.259763	0.275226	0.519630	-0.013749	-0.808731
55657	-7.372702	1.991761	4.422363	-0.690608	0.519419	-1.030122	0.261351	0.525472	-0.022326	-0.809368
55658	-7.497685	1.948553	4.284509	-0.657862	0.635105	-1.007462	0.247731	0.531435	-0.031029	-0.809471
55659	-7.704858	2.044182	4.198274	-0.599974	0.655831	-0.847330	0.234121	0.537656	-0.040658	-0.808987
55660	-8.041019	2.408095	4.245836	-0.555848	0.475696	-0.434695	0.220353	0.544232	-0.051624	-0.807831
55661	-8.282574	2.529999	4.211836	-0.579861	0.496233	-0.212881	0.206316	0.551252	-0.063692	-0.805915
55662	-8.870640	3.223617	4.371186	-0.566638	0.126162	0.572192	0.191510	0.558597	-0.077360	-0.803311
55663	-9.717493	4.681754	5.246811	-1.057973	-0.895229	2.101579	0.176823	0.565345	-0.090229	-0.800610
55664	-10.314780	6.022244	6.184222	-1.794075	-1.911545	3.379277	0.163983	0.570691	-0.098674	-0.798551
55665	-10.901312	6.649239	6.338438	-1.899503	-2.312893	4.125235	0.154041	0.574569	-0.100956	-0.797464
55666	-11.732282	6.353882	5.705931	-1.241311	-1.847545	4.526722	0.145667	0.577241	-0.100166	-0.797208
55667	-12.456585	5.659486	5.210778	-0.734870	-1.088212	4.768877	0.137204	0.579079	-0.100080	-0.797387
55668	-12.651361	5.435097	5.246878	-0.809497	-0.919084	4.871526	0.127632	0.579893	-0.103508	-0.797947
55669	-11.904173	5.130505	5.363500	-1.229244	-0.891837	4.133343	0.116955	0.579537	-0.111211	-0.798806
55670	-11.083018	5.300904	5.491086	-1.650418	-1.220967	3.486491	0.105297	0.577989	-0.123697	-0.799712
55671	-10.527342	6.154920	5.443904	-1.826966	-2.021474	3.260761	0.093638	0.574848	-0.139435	-0.800837
55672	-10.038573	6.786722	5.369065	-1.975288	-2.535704	3.045074	0.083905	0.569947	-0.155235	-0.802510
55673	-9.570980	6.671816	4.930538	-1.713122	-2.395174	2.506015	0.076778	0.563334	-0.169344	-0.805036
55674	-8.921466	6.144654	4.513282	-1.449831	-1.959227	1.666575	0.071655	0.555286	-0.182673	-0.808179
55675	-8.391305	5.849174	4.400575	-1.401911	-1.661877	1.107894	0.068197	0.546017	-0.195397	-0.811810
55676	-7.957455	5.193611	4.206695	-1.178130	-1.033774	0.459994	0.065862	0.535718	-0.208464	-0.815605
55677	-7.597362	4.870780	3.934285	-0.876376	-0.709602	-0.032894	0.064050	0.524562	-0.222934	-0.819166
55678	-7.481493	4.648919	3.231152	-0.097978	-0.533126	-0.446530	0.062823	0.512727	-0.238043	-0.822496
55679	-7.254289	4.752542	2.320178	0.751930	-0.788635	-0.901938	0.062093	0.500454	-0.253459	-0.825499
55680	-7.195330	5.025639	1.832391	1.268307	-1.026354	-0.996772	0.062131	0.488170	-0.267771	-0.828329
55681	-7.354885	4.985362	1.801425	1.555353	-0.773297	-0.914859	0.062825	0.476118	-0.280237	-0.831163
55682	-7.520540	4.550865	1.594284	2.066264	-0.288882	-1.126287	0.064093	0.464613	-0.290443	-0.834068
55683	-7.466717	3.847342	1.203389	2.642026	0.212133	-1.752070	0.065189	0.453826	-0.299256	-0.836802
55684	-7.209462	3.499288	0.800039	3.021937	0.298976	-2.353615	0.065554	0.443999	-0.307917	-0.838901
55685	-6.761036	3.533546	0.540746	3.070274	0.045014	-2.808398	0.065113	0.435388	-0.316642	-0.840200
55686	-6.305330	3.593896	0.285881	3.063691	-0.245906	-3.231832	0.064304	0.428249	-0.324758	-0.840833
55687	-6.006183	3.675778	0.233920	2.960317	-0.407087	-3.432188	0.063325	0.422738	-0.331674	-0.840996
55688	-5.824935	3.997549	0.552787	2.588602	-0.531347	-3.237546	0.062517	0.418781	-0.336208	-0.841236
55689	-5.608032	4.036890	0.748434	2.327332	-0.531895	-3.285268	0.062298	0.416399	-0.336993	-0.842120
55690	-5.385769	3.579924	0.912321	2.164038	-0.195574	-3.653684	0.062102	0.415606	-0.335222	-0.843233
55691	-5.466581	3.423123	1.392880	1.891030	0.171638	-3.493209	0.061392	0.416433	-0.331952	-0.844170
55692	-5.806196	3.243883	1.872881	1.766610	0.636003	-3.163129	0.059838	0.418810	-0.327743	-0.844750
55693	-6.430031	3.198079	2.405951	1.733549	1.110451	-2.524164	0.056849	0.422386	-0.323459	-0.844827
55694	-6.842586	3.435811	2.426872	1.869444	1.006680	-2.066335	0.052196	0.426964	-0.319373	-0.844380
55695	-7.152270	3.800505	2.153838	2.108278	0.594892	-1.723377	0.046062	0.432574	-0.314687	-0.843641
55696	-7.274939	4.079530	1.895149	2.205796	0.161673	-1.550486	0.038790	0.439310	-0.308797	-0.842702
55697	-7.507730	4.170846	2.327000	1.847235	0.224285	-1.111562	0.030352	0.447284	-0.302255	-0.841224
55698	-8.060246	4.325179	3.460274	1.078012	0.644136	-0.114011	0.020669	0.456094	-0.295548	-0.839168
55699	-8.552167	4.422350	4.503884	0.300230	1.004497	0.764332	0.009992	0.465354	-0.288247	-0.836815
55700	-9.176731	4.508741	4.726678	0.197672	0.975586	1.406938	-0.001573	0.474869	-0.280221	-0.834250
55701	-9.943927	4.871616	4.677308	0.270662	0.573796	2.190402	-0.014334	0.484364	-0.271975	-0.831394
55702	-10.625604	4.953277	4.412494	0.499207	0.231871	2.700783	-0.027907	0.494127	-0.262895	-0.828219
55703	-11.424798	4.825568	4.198822	0.767247	0.073367	3.257393	-0.042701	0.503715	-0.254488	-0.824429
55704	-11.684675	5.592040	4.703925	-0.140866	-0.659687	3.951454	-0.058525	0.512534	-0.246776	-0.820357
55705	-10.615433	5.768251	5.090968	-1.380534	-1.131965	3.174724	-0.074016	0.520271	-0.239402	-0.816411
55706	-9.163631	5.500036	5.229974	-2.353139	-1.276738	1.780298	-0.088755	0.526554	-0.234119	-0.812436
55707	-8.462016	5.419374	5.049689	-2.729334	-1.534513	0.988438	-0.101814	0.531625	-0.230795	-0.808543
55708	-8.367458	5.444900	5.057924	-2.995799	-1.671488	0.839597	-0.112618	0.535642	-0.228785	-0.805023
55709	-8.593490	5.540350	4.963738	-3.042122	-1.861778	0.978928	-0.121018	0.538768	-0.227464	-0.802087
55710	-9.017418	5.630720	4.713158	-2.851040	-2.107868	1.262485	-0.126758	0.541393	-0.225484	-0.799990
55711	-9.008073	5.374977	4.313054	-2.517647	-2.158179	1.033545	-0.130084	0.543756	-0.222439	-0.798705
55712	-8.774541	5.038919	4.050095	-2.311006	-2.078401	0.633619	-0.131673	0.545939	-0.219058	-0.797889
55713	-8.307947	4.860222	3.929633	-2.352683	-2.060615	0.102153	-0.131965	0.547946	-0.215670	-0.797387
55714	-7.670049	4.648858	3.766059	-2.386463	-2.027629	-0.603019	-0.130801	0.549923	-0.212174	-0.797156
55715	-7.183172	4.526574	3.569074	-2.361169	-2.067318	-1.153755	-0.128599	0.551723	-0.209468	-0.796986
55716	-6.947499	4.807009	3.590219	-2.588235	-2.335491	-1.320854	-0.124937	0.553630	-0.206808	-0.796941
55717	-6.994586	4.764948	3.471528	-2.446145	-2.374490	-1.323954	-0.119649	0.555812	-0.203558	-0.797070
55718	-7.117583	4.724470	3.344730	-2.261114	-2.417113	-1.256248	-0.112841	0.558382	-0.199221	-0.797363
55719	-7.340618	4.691820	3.109793	-1.944511	-2.514310	-1.125593	-0.104731	0.561400	-0.193549	-0.797747
55720	-7.388757	4.641094	2.817057	-1.623497	-2.629993	-1.180399	-0.095408	0.564885	-0.186410	-0.798157
55721	-7.508411	4.401489	2.510214	-1.191366	-2.569117	-1.208586	-0.085187	0.568743	-0.178360	-0.798413
55722	-7.606746	4.113949	2.279664	-0.823532	-2.417137	-1.241623	-0.074336	0.572944	-0.170013	-0.798314
55723	-7.665572	4.078385	2.260980	-0.748491	-2.406750	-1.201445	-0.063047	0.577446	-0.161791	-0.797750
55724	-7.752041	4.188369	2.291424	-0.755245	-2.507079	-1.093095	-0.050937	0.582317	-0.153150	-0.796780
55725	-7.822194	4.375161	2.331008	-0.789773	-2.681198	-0.983776	-0.037536	0.587565	-0.143374	-0.795489
55726	-7.884769	4.423044	2.208561	-0.630814	-2.772167	-0.951106	-0.022559	0.593067	-0.132167	-0.793911
55727	-8.155099	4.527983	2.032357	-0.356185	-2.898274	-0.723595	-0.005779	0.598740	-0.119300	-0.791988
55728	-8.638079	4.531818	1.760875	0.100903	-2.896089	-0.333419	0.012981	0.604367	-0.104559	-0.789709
55729	-9.281328	4.314359	1.348739	0.761641	-2.632143	0.140556	0.033689	0.609805	-0.088022	-0.786928
55730	-10.163568	4.014877	1.119300	1.281101	-2.166056	0.880140	0.055397	0.614755	-0.070964	-0.783563
55731	-11.126601	4.030160	1.201870	1.471388	-1.930682	1.831825	0.077516	0.618882	-0.053771	-0.779798
55732	-11.595299	3.771001	1.276831	1.522377	-1.498643	2.259485	0.099991	0.621964	-0.036267	-0.775788
55733	-11.781661	3.474281	1.201394	1.628605	-1.065366	2.374730	0.122255	0.623836	-0.019311	-0.771693
55734	-11.790075	3.371789	1.006963	1.827695	-0.820312	2.327079	0.143859	0.624472	-0.003639	-0.767676
55735	-11.807788	3.336826	0.896609	1.960964	-0.619763	2.317052	0.164663	0.623906	0.010371	-0.763884
55736	-11.951851	3.455299	0.854293	2.098810	-0.520463	2.468879	0.184763	0.622158	0.022842	-0.760434
55737	-12.105283	3.461113	0.898012	2.143015	-0.310396	2.622390	0.204603	0.619053	0.034528	-0.757442
55738	-11.698352	3.212347	0.783602	2.176230	0.049218	2.147324	0.224218	0.614480	0.045154	-0.755051
55739	-11.161769	2.995530	0.645121	2.222925	0.364101	1.540519	0.243476	0.608694	0.054118	-0.753181
55740	-10.863168	2.801754	0.483079	2.322985	0.751870	1.147419	0.262056	0.602018	0.060858	-0.751796
55741	-10.480619	2.536766	0.253232	2.416782	1.215724	0.628441	0.279530	0.594899	0.064806	-0.750839
55742	-10.193181	2.254716	-0.033179	2.529168	1.754600	0.162456	0.295022	0.588149	0.064816	-0.750227
55743	-10.050229	2.695136	0.158773	2.602500	1.544286	0.143763	0.308257	0.582090	0.060780	-0.749970
55744	-9.808534	3.208812	0.318731	2.729999	1.260499	0.064362	0.320631	0.576284	0.054979	-0.749713
55745	-9.763641	3.527068	0.199738	3.007575	1.345289	0.033412	0.332462	0.570714	0.048033	-0.749297
55746	-9.594377	3.689113	-0.062486	3.292878	1.563785	-0.201780	0.343994	0.565407	0.040758	-0.748547
55747	-9.386804	3.701389	-0.248923	3.414893	1.831060	-0.493179	0.355090	0.560646	0.033361	-0.747311
55748	-9.169290	3.881601	-0.195130	3.422214	1.838214	-0.642943	0.365573	0.556536	0.026133	-0.745614
55749	-8.824649	4.091023	-0.075349	3.373538	1.705719	-0.850469	0.375569	0.552912	0.019737	-0.743537
55750	-8.448598	4.221212	-0.069569	3.370396	1.636273	-1.143126	0.385349	0.549578	0.014743	-0.741116
55751	-8.077445	4.261442	-0.113872	3.361434	1.626479	-1.477815	0.395048	0.546407	0.011453	-0.738407
55752	-7.908307	4.312016	-0.240587	3.449987	1.736099	-1.671828	0.404830	0.543257	0.010227	-0.735445
55753	-7.910897	4.347702	-0.354114	3.539185	1.931641	-1.728693	0.414616	0.540101	0.011312	-0.732295
55754	-8.075150	4.196956	-0.491953	3.544800	2.339016	-1.748801	0.424128	0.537125	0.014516	-0.728973
55755	-8.374579	3.951317	-0.706553	3.544605	2.900011	-1.733683	0.432484	0.535031	0.018740	-0.725499
55756	-8.642103	4.049817	-0.805127	3.653821	3.137966	-1.533961	0.439081	0.534456	0.023232	-0.721820
55757	-8.518028	4.158297	-0.779132	3.643049	3.036969	-1.568912	0.444055	0.535534	0.027824	-0.717805
55758	-8.041220	4.360532	-0.693590	3.628233	2.603647	-1.799394	0.447658	0.538404	0.032205	-0.713223
55759	-7.565603	4.691691	-0.362575	3.513135	1.943005	-1.858848	0.450722	0.542657	0.036794	-0.707827
55760	-7.127312	4.781565	-0.014083	3.222597	1.425308	-1.986798	0.454229	0.547697	0.042318	-0.701365
55761	-6.944140	4.736675	0.348050	2.830213	1.121908	-1.969953	0.458832	0.553079	0.049225	-0.693653
55762	-7.004653	4.813635	0.579585	2.611017	0.956792	-1.760466	0.464841	0.558360	0.058009	-0.684684
55763	-7.526073	5.148335	0.939416	2.458679	0.823314	-1.020320	0.472363	0.563064	0.069125	-0.674577
55764	-8.182640	5.210392	1.307971	2.105505	0.886439	-0.294550	0.481783	0.566265	0.083623	-0.663503
55765	-8.840160	4.906395	1.723131	1.468385	1.067808	0.281530	0.492255	0.567869	0.100483	-0.652007
55766	-9.367281	5.069947	2.509340	0.997706	0.632267	1.066241	0.503462	0.567379	0.119231	-0.640618
55767	-9.666193	4.504078	2.817560	0.362230	0.716507	1.187977	0.515425	0.564300	0.139616	-0.629610
55768	-9.793921	4.040064	2.644454	0.134761	0.999370	1.060114	0.526722	0.559845	0.159404	-0.619457
55769	-10.020417	4.051676	2.272508	0.371459	1.300701	1.148989	0.536918	0.554897	0.177652	-0.610121
55770	-10.215920	4.159290	1.785512	0.718433	1.676775	1.211132	0.545590	0.550491	0.193416	-0.601566
55771	-10.324351	4.091070	1.813352	0.655957	1.665722	1.296412	0.552668	0.547190	0.206265	-0.593798
55772	-10.290849	3.813230	2.337870	0.210474	1.230574	1.338501	0.558460	0.545011	0.216258	-0.586786
55773	-10.239531	3.551640	2.782198	-0.189861	0.841948	1.343369	0.563546	0.543653	0.223722	-0.580349
55774	-9.985077	3.490420	3.209998	-0.363843	0.338513	1.230039	0.568378	0.542523	0.228971	-0.574619
55775	-9.429186	3.453134	3.217169	-0.293271	0.098960	0.727141	0.573088	0.541547	0.232525	-0.569411
55776	-9.086963	3.631076	3.102704	-0.046713	0.023308	0.452861	0.577551	0.541026	0.234428	-0.564597
55777	-8.822392	3.663939	3.060549	0.015064	-0.035199	0.218478	0.582069	0.540473	0.235463	-0.560037
55778	-8.575624	3.607064	3.079718	-0.028559	-0.109638	-0.013516	0.586911	0.539489	0.236172	-0.555617
55779	-8.401866	3.399417	3.019843	-0.195121	-0.045564	-0.261435	0.591961	0.537930	0.236874	-0.551457
55780	-8.175811	3.248732	2.899823	-0.266682	0.043578	-0.553430	0.596827	0.535975	0.237545	-0.547814
55781	-8.003285	3.111561	2.807829	-0.337696	0.124504	-0.785585	0.601159	0.533757	0.238413	-0.544859
55782	-8.034095	2.964599	3.092804	-0.572009	-0.057991	-0.725867	0.604576	0.531386	0.239485	-0.542921
55783	-8.222243	2.958169	3.305642	-0.679205	-0.140497	-0.495923	0.606984	0.528614	0.241057	-0.542245
55784	-8.173501	2.883227	3.309777	-0.689991	-0.123358	-0.561630	0.608426	0.525286	0.243404	-0.542814
55785	-8.161753	2.920048	3.292333	-0.573158	-0.091761	-0.558355	0.608944	0.521341	0.246508	-0.544632
55786	-8.270684	2.894472	3.190163	-0.495331	0.071030	-0.500992	0.608703	0.516743	0.250470	-0.547468
55787	-8.526453	2.909432	3.143375	-0.403754	0.233650	-0.282397	0.607550	0.511630	0.255257	-0.551327
55788	-8.778205	2.719453	2.981655	-0.438820	0.517361	-0.175282	0.605300	0.506249	0.260905	-0.556105
55789	-9.152013	2.589246	2.796721	-0.415126	0.847487	0.056008	0.601135	0.501657	0.266594	-0.562053
55790	-9.591994	2.753647	3.093254	-0.219398	0.705545	0.608776	0.594989	0.498138	0.272085	-0.569048
55791	-9.758910	2.893551	3.380793	0.032411	0.437968	0.903715	0.587206	0.495771	0.276878	-0.576835
55792	-9.675389	3.347314	3.679998	0.618223	-0.013466	1.048879	0.578476	0.494549	0.280611	-0.584845
55793	-9.639787	3.719668	3.751272	1.149177	-0.248124	1.116535	0.569883	0.493971	0.283649	-0.592257
55794	-9.790693	4.065654	3.860307	1.592945	-0.448421	1.347417	0.562366	0.493524	0.286368	-0.598475
55795	-10.011197	4.329336	3.879024	1.954581	-0.522389	1.585500	0.556586	0.492812	0.289299	-0.603038
55796	-10.342359	4.492740	3.883546	2.200698	-0.509088	1.897443	0.552730	0.491565	0.292813	-0.605899
55797	-10.508598	4.186421	3.769358	2.039582	-0.333497	1.930072	0.550772	0.489607	0.297193	-0.607135
55798	-10.183747	3.617807	3.724483	1.634652	-0.334120	1.495915	0.549867	0.487763	0.301450	-0.607339
55799	-9.522675	3.470721	3.899682	1.575039	-0.740293	0.906715	0.549707	0.486379	0.305149	-0.606746
55800	-8.651324	3.287912	3.989807	1.491763	-1.128638	0.090595	0.550335	0.485367	0.308214	-0.605437
55801	-7.906182	3.134863	4.135850	1.390946	-1.514492	-0.581659	0.551802	0.484629	0.310447	-0.603549
55802	-7.407423	3.288114	4.317629	1.546895	-1.887611	-0.960143	0.554571	0.483497	0.312326	-0.600944
55803	-6.972055	2.989911	4.259828	1.316322	-1.912365	-1.427861	0.558830	0.481624	0.313994	-0.597624
55804	-6.653922	2.843539	4.009765	1.261716	-1.731646	-1.822202	0.564300	0.479292	0.315089	-0.593770
55805	-6.411629	2.429257	3.620111	0.955065	-1.341617	-2.236205	0.570634	0.476969	0.315314	-0.589453
55806	-6.385374	1.975404	3.189846	0.568898	-0.833086	-2.475644	0.577083	0.475564	0.314060	-0.584963
55807	-6.760010	1.939588	2.985250	0.462561	-0.448560	-2.199837	0.582935	0.475808	0.311118	-0.580516
55808	-7.017680	2.103279	3.118501	0.468365	-0.447467	-1.876944	0.588114	0.477175	0.307260	-0.576209
55809	-6.961609	2.238900	3.261286	0.477781	-0.575617	-1.840733	0.592886	0.478859	0.303483	-0.571907
55810	-6.850458	2.246213	3.270487	0.400926	-0.594833	-1.928848	0.597361	0.480569	0.300213	-0.567525
55811	-6.785986	2.332934	3.206216	0.414086	-0.545509	-1.983114	0.601527	0.482344	0.297473	-0.563045
55812	-6.793971	2.444147	3.071830	0.456348	-0.413560	-1.990403	0.605502	0.484085	0.295426	-0.558348
55813	-6.880212	2.393945	2.897591	0.339072	-0.207842	-1.982897	0.609271	0.485860	0.294141	-0.553362
55814	-6.946302	2.536652	2.966617	0.367319	-0.260695	-1.857622	0.612608	0.488104	0.293127	-0.548218
55815	-6.994575	2.965357	3.231460	0.638755	-0.529845	-1.598646	0.615942	0.490312	0.292684	-0.542722
55816	-7.119246	3.124458	3.457424	0.646764	-0.716064	-1.358800	0.619595	0.492032	0.293216	-0.536686
55817	-7.511367	2.937702	3.589210	0.279654	-0.698323	-1.016842	0.623509	0.493343	0.294455	-0.530231
55818	-7.906475	2.858907	3.696857	0.017605	-0.672828	-0.653046	0.627510	0.494416	0.295993	-0.523615
55819	-8.261213	2.788585	3.604179	-0.200392	-0.481936	-0.392439	0.631503	0.495308	0.297465	-0.517096
55820	-8.628778	2.812923	3.382619	-0.324556	-0.172047	-0.134103	0.635192	0.496331	0.298589	-0.510912
55821	-9.501803	2.998729	3.237751	-0.471758	0.236240	0.650612	0.638366	0.497597	0.299406	-0.505215
55822	-10.995675	3.283534	3.388548	-0.769334	0.568558	2.114291	0.640868	0.498914	0.300431	-0.500113
55823	-12.899730	3.558113	3.848196	-1.240238	0.732264	4.036390	0.642833	0.499382	0.302358	-0.495947
55824	-14.141225	3.899715	4.286129	-1.386302	0.693803	5.390918	0.644729	0.497801	0.305703	-0.493015
55825	-14.260747	4.004287	4.286586	-1.267218	0.726761	5.537986	0.647258	0.493446	0.310600	-0.491015
55826	-13.595393	3.755888	3.738140	-1.128995	1.057496	4.696641	0.650501	0.487241	0.315810	-0.489600
55827	-13.000139	3.331649	3.128360	-1.189813	1.490931	3.834667	0.654219	0.480680	0.320032	-0.488390
