// General information: 
//  MT Manager version: 2021.0.0 
//  XDA version: 2021.0.0 build 5908 rev 109668 built on 2021-04-19
// Device information: 
//  DeviceId: 00B43DEE
//  ProductCode: MTW2-3A7G6
//  Firmware Version: 4.3.5
//  Hardware Version: 1.1.0
// Device settings: 
//  Filter Profile: human(46.1)
//  Option Flags: Orientation Smoother Disabled, Position/Velocity Smoother Disabled, Continuous Zero Rotation Update Disabled, AHS Disabled, ICC Disabled
// Coordinate system: ENU
PacketCounter	Acc_X	Acc_Y	Acc_Z	FreeAcc_E	FreeAcc_N	FreeAcc_U	Quat_q0	Quat_q1	Quat_q2	Quat_q3
47597	-9.638671	0.504022	-1.403668	-0.088478	0.165667	-0.061122	0.502988	0.520075	0.543908	-0.425075
47598	-9.618565	0.609357	-1.274164	0.029643	0.050185	-0.091154	0.503014	0.520016	0.543900	-0.425127
47599	-9.611263	0.603472	-1.338768	0.018386	0.114535	-0.090579	0.502986	0.520046	0.543932	-0.425083
47600	-9.640529	0.608138	-1.327407	0.022535	0.099464	-0.062752	0.503003	0.520042	0.543915	-0.425090
47601	-9.662909	0.615346	-1.446358	0.017258	0.215514	-0.025161	0.503118	0.519926	0.543960	-0.425036
47602	-9.649364	0.570382	-1.397354	-0.022496	0.166544	-0.047448	0.503267	0.519748	0.544047	-0.424967
47603	-9.647186	0.570102	-1.440476	-0.026822	0.211577	-0.044233	0.503460	0.519525	0.544144	-0.424888
47604	-9.629985	0.498210	-1.371744	-0.090626	0.141750	-0.074196	0.503501	0.519436	0.544147	-0.424943
47605	-9.617710	0.580309	-1.280861	0.001255	0.062794	-0.092926	0.503498	0.519382	0.544111	-0.425060
47606	-9.580122	0.588991	-1.395399	0.001939	0.183687	-0.115314	0.503596	0.519221	0.544165	-0.425070
47607	-9.611074	0.578934	-1.411340	-0.010506	0.196597	-0.083297	0.503730	0.519050	0.544242	-0.425022
47608	-9.591244	0.609699	-1.281968	0.033108	0.075978	-0.117314	0.503920	0.518854	0.544339	-0.424913
47609	-9.641659	0.520872	-1.325763	-0.062337	0.106061	-0.067155	0.504001	0.518784	0.544371	-0.424860
47610	-9.595067	0.601159	-1.336573	0.017971	0.130856	-0.107241	0.504173	0.518618	0.544472	-0.424730
47611	-9.629713	0.518075	-1.477141	-0.081024	0.259097	-0.060353	0.504371	0.518458	0.544539	-0.424603
47612	-9.590222	0.494587	-1.461453	-0.101993	0.247327	-0.102834	0.504415	0.518422	0.544580	-0.424543
47613	-9.593549	0.546479	-1.379335	-0.042821	0.169744	-0.106672	0.504318	0.518547	0.544522	-0.424580
47614	-9.599168	0.529987	-1.324343	-0.054251	0.111552	-0.108904	0.504191	0.518699	0.544473	-0.424608
47615	-9.581869	0.623025	-1.392611	0.032050	0.188047	-0.111999	0.504111	0.518843	0.544377	-0.424649
47616	-9.581432	0.596863	-1.499367	-0.005362	0.288909	-0.100598	0.504024	0.519011	0.544371	-0.424557
47617	-9.599159	0.598615	-1.430944	0.000916	0.216413	-0.091424	0.503968	0.519135	0.544348	-0.424501
47618	-9.692117	0.620503	-1.375074	0.022342	0.149331	-0.005028	0.503849	0.519349	0.544200	-0.424569
47619	-9.668412	0.640331	-1.366250	0.043192	0.144055	-0.028402	0.503729	0.519524	0.544093	-0.424635
47620	-9.609099	0.621340	-1.326597	0.030924	0.109988	-0.093240	0.503598	0.519660	0.543994	-0.424750
47621	-9.631063	0.655019	-1.343889	0.061772	0.126386	-0.067295	0.503593	0.519679	0.544012	-0.424710
47622	-9.605099	0.682313	-1.446140	0.080230	0.232870	-0.078514	0.503719	0.519530	0.544143	-0.424577
47623	-9.597588	0.670028	-1.442176	0.068351	0.229085	-0.087188	0.503739	0.519531	0.544133	-0.424563
47624	-9.620908	0.675459	-1.351646	0.081269	0.137228	-0.075151	0.503703	0.519546	0.544116	-0.424609
47625	-9.601288	0.720265	-1.360360	0.126201	0.152668	-0.090812	0.503816	0.519405	0.544228	-0.424505
47626	-9.625609	0.644692	-1.369358	0.048884	0.151974	-0.070119	0.503967	0.519217	0.544408	-0.424324
47627	-9.626891	0.704920	-1.398287	0.105623	0.186147	-0.061618	0.504240	0.518887	0.544688	-0.424043
47628	-9.621828	0.658147	-1.384899	0.059954	0.170296	-0.071123	0.504547	0.518538	0.544979	-0.423733
47629	-9.616195	0.469569	-1.443847	-0.133690	0.212591	-0.080610	0.504781	0.518262	0.545212	-0.423490
47630	-9.633624	0.516712	-1.307825	-0.074364	0.080520	-0.077591	0.504883	0.518112	0.545365	-0.423355
47631	-9.621011	0.457768	-1.290607	-0.130576	0.059566	-0.095770	0.504948	0.518046	0.545426	-0.423281
47632	-9.623456	0.497079	-1.281412	-0.091144	0.053668	-0.092151	0.505044	0.517945	0.545533	-0.423151
47633	-9.627948	0.475829	-1.367002	-0.121593	0.135298	-0.078244	0.505091	0.517913	0.545567	-0.423091
47634	-9.647866	0.529216	-1.255873	-0.058370	0.027613	-0.069257	0.505006	0.518002	0.545517	-0.423148
47635	-9.680656	0.533674	-1.367072	-0.066369	0.133094	-0.022555	0.504902	0.518116	0.545416	-0.423263
47636	-9.648803	0.554117	-1.321804	-0.039626	0.094670	-0.058556	0.504749	0.518301	0.545222	-0.423469
47637	-9.594862	0.629461	-1.395399	0.030991	0.182210	-0.098235	0.504574	0.518513	0.544960	-0.423755
47638	-9.645399	0.648102	-1.402881	0.046704	0.186015	-0.046160	0.504421	0.518722	0.544702	-0.424012
47639	-9.663797	0.614203	-1.366218	0.015914	0.145139	-0.034577	0.504261	0.518922	0.544491	-0.424228
47640	-9.649472	0.656579	-1.286490	0.067080	0.073067	-0.056221	0.504108	0.519078	0.544275	-0.424497
47641	-9.628817	0.729040	-1.400589	0.130124	0.196746	-0.058118	0.504078	0.519084	0.544171	-0.424659
47642	-9.642436	0.737598	-1.483645	0.130762	0.279940	-0.033815	0.504067	0.519090	0.544067	-0.424798
47643	-9.605790	0.711878	-1.422735	0.113046	0.224324	-0.079289	0.504145	0.518999	0.544060	-0.424825
47644	-9.612790	0.613744	-1.464010	0.011388	0.257439	-0.073112	0.504196	0.518935	0.544035	-0.424875
47645	-9.587064	0.584960	-1.394783	-0.009079	0.191176	-0.108937	0.504142	0.518990	0.543948	-0.424983
47646	-9.588188	0.562729	-1.357319	-0.027555	0.152286	-0.113802	0.504059	0.519104	0.543850	-0.425067
47647	-9.564709	0.581418	-1.348042	-0.006666	0.146845	-0.137083	0.503957	0.519183	0.543858	-0.425082
47648	-9.694742	0.591934	-1.386900	-0.005986	0.168557	-0.002822	0.503978	0.519183	0.543849	-0.425069
47649	-9.669045	0.604612	-1.351663	0.011153	0.138704	-0.031909	0.503948	0.519213	0.543780	-0.425157
47650	-9.627640	0.600308	-1.208039	0.022606	0.002578	-0.091028	0.503990	0.519157	0.543806	-0.425141
47651	-9.634222	0.509845	-1.318378	-0.078311	0.103841	-0.076190	0.504195	0.518936	0.543939	-0.424997
47652	-9.622152	0.525736	-1.297584	-0.060207	0.087758	-0.089796	0.504299	0.518809	0.543995	-0.424958
47653	-9.599516	0.456196	-1.318255	-0.130171	0.105519	-0.113794	0.504256	0.518859	0.543957	-0.424996
47654	-9.619064	0.442639	-1.277326	-0.140795	0.061057	-0.100307	0.504164	0.518990	0.543851	-0.425081
47655	-9.639117	0.503608	-1.234479	-0.077030	0.021429	-0.082130	0.503989	0.519198	0.543650	-0.425292
47656	-9.602105	0.526966	-1.277166	-0.056296	0.070390	-0.112113	0.503991	0.519244	0.543614	-0.425280
47657	-9.627824	0.546908	-1.279883	-0.038927	0.071142	-0.085117	0.504013	0.519273	0.543601	-0.425235
47658	-9.651543	0.635112	-1.256959	0.048972	0.052298	-0.059203	0.503973	0.519347	0.543586	-0.425212
47659	-9.656086	0.647141	-1.308095	0.055498	0.102361	-0.047630	0.503914	0.519436	0.543525	-0.425250
47660	-9.651557	0.634737	-1.427833	0.031873	0.219179	-0.037971	0.503840	0.519536	0.543492	-0.425259
47661	-9.680043	0.604274	-1.285695	0.013821	0.071596	-0.029228	0.503631	0.519753	0.543303	-0.425482
47662	-9.648977	0.577524	-1.305302	-0.012679	0.092742	-0.059158	0.503582	0.519823	0.543214	-0.425568
47663	-9.621131	0.624902	-1.278660	0.038211	0.074967	-0.087228	0.503586	0.519831	0.543146	-0.425640
47664	-9.677605	0.594163	-1.263418	0.006474	0.051145	-0.035027	0.503582	0.519824	0.543107	-0.425702
47665	-9.658312	0.639004	-1.270945	0.051540	0.066413	-0.050539	0.503660	0.519735	0.543097	-0.425731
47666	-9.615366	0.718387	-1.403204	0.120447	0.211211	-0.071989	0.503725	0.519660	0.543098	-0.425745
47667	-9.636647	0.724588	-1.355283	0.130182	0.163117	-0.056498	0.503757	0.519615	0.543078	-0.425788
47668	-9.610386	0.669589	-1.389133	0.073706	0.196547	-0.081629	0.503832	0.519527	0.543106	-0.425772
47669	-9.639895	0.632354	-1.343160	0.039992	0.145166	-0.060311	0.503852	0.519459	0.543138	-0.425790
47670	-9.614825	0.556148	-1.338730	-0.033708	0.138472	-0.090236	0.503973	0.519304	0.543225	-0.425724
47671	-9.630166	0.611311	-1.314385	0.023248	0.118242	-0.074778	0.504112	0.519071	0.543424	-0.425590
47672	-9.635535	0.574878	-1.428398	-0.023484	0.228110	-0.057599	0.504294	0.518842	0.543569	-0.425468
47673	-9.581476	0.568082	-1.434963	-0.027775	0.242371	-0.110780	0.504282	0.518812	0.543538	-0.425558
47674	-9.628497	0.552509	-1.355512	-0.037233	0.157354	-0.074901	0.504279	0.518791	0.543544	-0.425579
47675	-9.618360	0.492531	-1.293990	-0.090463	0.092727	-0.096049	0.504321	0.518750	0.543591	-0.425521
47676	-9.590206	0.546794	-1.336689	-0.038694	0.143036	-0.115481	0.504188	0.518844	0.543522	-0.425651
47677	-9.663558	0.674046	-1.360023	0.083104	0.167050	-0.032425	0.504120	0.518890	0.543543	-0.425649
47678	-9.697881	0.561143	-1.395677	-0.033908	0.187820	-0.000692	0.504190	0.518807	0.543573	-0.425630
47679	-9.566291	0.528718	-1.363991	-0.056791	0.171720	-0.136881	0.504260	0.518714	0.543598	-0.425629
47680	-9.643337	0.600269	-1.338436	0.013776	0.143523	-0.059488	0.504231	0.518684	0.543641	-0.425643
47681	-9.629510	0.602932	-1.392260	0.012488	0.199170	-0.066429	0.504334	0.518569	0.543697	-0.425590
47682	-9.588247	0.518157	-1.349090	-0.066036	0.154280	-0.117593	0.504339	0.518571	0.543748	-0.425515
47683	-9.599769	0.459301	-1.338936	-0.124092	0.136565	-0.110872	0.504264	0.518640	0.543726	-0.425550
47684	-9.624964	0.573165	-1.379573	-0.015086	0.182203	-0.074195	0.504006	0.518889	0.543577	-0.425741
47685	-9.614084	0.608443	-1.356770	0.023368	0.162335	-0.085677	0.503882	0.519026	0.543533	-0.425778
47686	-9.660028	0.607877	-1.249606	0.030204	0.049353	-0.053393	0.503965	0.518978	0.543598	-0.425655
47687	-9.674551	0.589711	-1.228286	0.012633	0.024367	-0.042701	0.504090	0.518844	0.543745	-0.425484
47688	-9.650896	0.616461	-1.286401	0.034485	0.086883	-0.057386	0.504170	0.518753	0.543832	-0.425388
47689	-9.658726	0.620540	-1.390438	0.028409	0.189509	-0.036560	0.504137	0.518780	0.543764	-0.425481
47690	-9.620642	0.574885	-1.335504	-0.009497	0.137273	-0.083767	0.504131	0.518768	0.543711	-0.425569
47691	-9.629533	0.563786	-1.301759	-0.017405	0.103477	-0.079788	0.504218	0.518661	0.543726	-0.425579
47692	-9.625547	0.583920	-1.217703	0.010452	0.024149	-0.092902	0.504401	0.518482	0.543850	-0.425421
47693	-9.642803	0.524508	-1.284370	-0.056487	0.083401	-0.071116	0.504581	0.518285	0.543996	-0.425262
47694	-9.599039	0.570051	-1.285800	-0.009429	0.095246	-0.111624	0.504653	0.518190	0.544050	-0.425222
47695	-9.558800	0.602049	-1.439927	0.009438	0.255968	-0.130699	0.504689	0.518145	0.544091	-0.425183
47696	-9.654256	0.553180	-1.409502	-0.040790	0.209314	-0.042739	0.504677	0.518170	0.544068	-0.425195
47697	-9.628070	0.532079	-1.409875	-0.060356	0.211059	-0.069875	0.504560	0.518288	0.543968	-0.425319
47698	-9.657101	0.588964	-1.235790	0.012042	0.040172	-0.059129	0.504447	0.518408	0.543875	-0.425424
47699	-9.642978	0.592093	-1.290747	0.010757	0.095794	-0.066184	0.504360	0.518511	0.543823	-0.425470
47700	-9.608645	0.614379	-1.290000	0.034642	0.100711	-0.098971	0.504268	0.518628	0.543730	-0.425555
47701	-9.613823	0.612542	-1.370935	0.024829	0.178866	-0.083985	0.504239	0.518666	0.543762	-0.425502
47702	-9.623334	0.629833	-1.402593	0.038076	0.209612	-0.069632	0.504319	0.518591	0.543841	-0.425397
47703	-9.625978	0.580542	-1.425796	-0.013328	0.226960	-0.067038	0.504216	0.518690	0.543821	-0.425424
47704	-9.606950	0.624367	-1.268794	0.046429	0.077574	-0.102641	0.504177	0.518726	0.543773	-0.425488
47705	-9.591362	0.560088	-1.393061	-0.028208	0.196763	-0.106554	0.504104	0.518801	0.543709	-0.425564
47706	-9.664750	0.605586	-1.349554	0.017918	0.147960	-0.036532	0.504001	0.518917	0.543629	-0.425646
47707	-9.653388	0.607778	-1.360762	0.019680	0.159794	-0.046263	0.503953	0.518980	0.543620	-0.425639
47708	-9.563192	0.557992	-1.436855	-0.032729	0.241028	-0.129125	0.503949	0.518962	0.543696	-0.425569
47709	-9.570294	0.615730	-1.380485	0.029843	0.187496	-0.125617	0.503848	0.519058	0.543733	-0.425524
47710	-9.582474	0.625360	-1.468393	0.030558	0.270813	-0.102034	0.503829	0.519069	0.543855	-0.425378
47711	-9.650619	0.529393	-1.376795	-0.059412	0.160200	-0.051485	0.503722	0.519168	0.543901	-0.425325
47712	-9.635348	0.546194	-1.403599	-0.044166	0.187674	-0.062243	0.503542	0.519360	0.543809	-0.425421
47713	-9.617953	0.603471	-1.341847	0.020373	0.130824	-0.083750	0.503231	0.519645	0.543742	-0.425526
47714	-9.589320	0.664076	-1.290329	0.087860	0.084509	-0.114949	0.503035	0.519822	0.543782	-0.425490
47715	-9.611436	0.602302	-1.274563	0.026725	0.056351	-0.098621	0.503026	0.519839	0.543968	-0.425242
47716	-9.616568	0.594214	-1.290479	0.015887	0.066381	-0.091981	0.503165	0.519706	0.544285	-0.424834
47717	-9.688354	0.560829	-1.350381	-0.027852	0.109371	-0.015263	0.503287	0.519606	0.544532	-0.424495
47718	-9.641444	0.513460	-1.362560	-0.075405	0.120142	-0.062942	0.503307	0.519632	0.544641	-0.424301
47719	-9.670088	0.532060	-1.324022	-0.055343	0.077244	-0.038349	0.503237	0.519715	0.544670	-0.424244
47720	-9.670501	0.524134	-1.260233	-0.057571	0.010269	-0.046517	0.503095	0.519890	0.544692	-0.424170
47721	-9.661320	0.539121	-1.200758	-0.036540	-0.049828	-0.062315	0.502932	0.520038	0.544726	-0.424138
47722	-9.643765	0.549567	-1.204008	-0.025167	-0.046775	-0.078673	0.502860	0.520079	0.544835	-0.424034
47723	-9.632596	0.518108	-1.374587	-0.071710	0.117668	-0.069698	0.502797	0.520123	0.544898	-0.423974
47724	-9.666306	0.595206	-1.319648	0.009138	0.063739	-0.038791	0.502614	0.520299	0.544809	-0.424088
47725	-9.625043	0.694220	-1.282934	0.113262	0.039930	-0.078475	0.502581	0.520342	0.544853	-0.424019
47726	-9.637763	0.595112	-1.363341	0.005830	0.106768	-0.061385	0.502626	0.520326	0.544980	-0.423822
47727	-9.628845	0.610505	-1.302594	0.026818	0.046633	-0.077123	0.502498	0.520455	0.544989	-0.423803
47728	-9.665114	0.680126	-1.302924	0.095044	0.045303	-0.037027	0.502314	0.520594	0.544997	-0.423840
47729	-9.664399	0.617497	-1.401483	0.024267	0.134608	-0.028652	0.502241	0.520654	0.545045	-0.423792
47730	-9.627715	0.531765	-1.437937	-0.062800	0.166576	-0.065296	0.502306	0.520592	0.545136	-0.423673
47731	-9.588038	0.549122	-1.456152	-0.045530	0.190694	-0.101150	0.502325	0.520546	0.545216	-0.423605
47732	-9.590061	0.615423	-1.389138	0.026671	0.128344	-0.103901	0.502305	0.520558	0.545332	-0.423464
47733	-9.587067	0.580925	-1.306586	0.000372	0.040563	-0.119656	0.502183	0.520660	0.545446	-0.423336
47734	-9.595028	0.509389	-1.373583	-0.077151	0.094885	-0.107235	0.502037	0.520782	0.545534	-0.423245
47735	-9.606895	0.607222	-1.431411	0.014298	0.154738	-0.082017	0.501953	0.520857	0.545653	-0.423101
47736	-9.554666	0.540139	-1.492954	-0.056248	0.212901	-0.129516	0.501940	0.520892	0.545777	-0.422912
47737	-9.609449	0.578615	-1.457733	-0.018047	0.169776	-0.077589	0.501845	0.521015	0.545890	-0.422728
47738	-9.652496	0.606738	-1.339398	0.018189	0.044413	-0.048954	0.501729	0.521187	0.545960	-0.422564
47739	-9.615519	0.495289	-1.439451	-0.101564	0.132697	-0.078849	0.501599	0.521367	0.546073	-0.422349
47740	-9.615778	0.529307	-1.411862	-0.066106	0.102094	-0.080170	0.501416	0.521590	0.546152	-0.422190
47741	-9.617971	0.596604	-1.471859	-0.005497	0.160483	-0.065797	0.501245	0.521770	0.546276	-0.422010
47742	-9.610786	0.646005	-1.502148	0.040672	0.189264	-0.065714	0.501083	0.521956	0.546390	-0.421824
47743	-9.627798	0.695284	-1.416091	0.096321	0.100689	-0.057493	0.500951	0.522134	0.546444	-0.421691
47744	-9.617731	0.664524	-1.422504	0.064240	0.100530	-0.068375	0.500932	0.522213	0.546612	-0.421397
47745	-9.639944	0.591136	-1.437580	-0.013310	0.100642	-0.048760	0.500983	0.522238	0.546800	-0.421062
47746	-9.607361	0.554042	-1.368810	-0.044323	0.028808	-0.092646	0.501009	0.522278	0.547022	-0.420692
47747	-9.670272	0.536889	-1.366952	-0.066107	0.010744	-0.031763	0.501019	0.522303	0.547246	-0.420359
47748	-9.693324	0.578771	-1.412954	-0.031677	0.051765	-0.000029	0.501107	0.522248	0.547466	-0.420035
47749	-9.677627	0.570409	-1.499371	-0.049154	0.135474	-0.004060	0.501231	0.522135	0.547661	-0.419774
47750	-9.675299	0.577372	-1.448318	-0.037830	0.084234	-0.013000	0.501198	0.522174	0.547708	-0.419703
47751	-9.677044	0.581976	-1.352775	-0.023674	-0.010801	-0.024266	0.501125	0.522226	0.547674	-0.419771
47752	-9.656524	0.578935	-1.302949	-0.019978	-0.056654	-0.051659	0.501176	0.522119	0.547718	-0.419785
47753	-9.646807	0.614072	-1.398329	0.006980	0.044223	-0.045841	0.501304	0.521922	0.547763	-0.419819
47754	-9.612805	0.689735	-1.395887	0.085176	0.057174	-0.075145	0.501462	0.521680	0.547821	-0.419856
47755	-9.644959	0.725774	-1.346158	0.125271	0.010766	-0.048041	0.501684	0.521392	0.547922	-0.419815
47756	-9.608202	0.654626	-1.591699	0.031865	0.256432	-0.054983	0.502057	0.520967	0.548045	-0.419735
47757	-9.646773	0.600704	-1.608148	-0.024582	0.266986	-0.018030	0.502052	0.520916	0.547936	-0.419948
47758	-9.604269	0.589284	-1.602510	-0.031297	0.270285	-0.061624	0.502021	0.520857	0.547817	-0.420214
47759	-9.570436	0.676787	-1.570317	0.063312	0.255020	-0.094244	0.501909	0.520853	0.547696	-0.420510
47760	-9.572797	0.678938	-1.471033	0.077445	0.159948	-0.105383	0.501973	0.520723	0.547695	-0.420596
47761	-9.560026	0.673497	-1.454235	0.075391	0.147230	-0.120673	0.502104	0.520516	0.547790	-0.420572
47762	-9.546986	0.683408	-1.652823	0.066891	0.348106	-0.106084	0.502315	0.520188	0.547999	-0.420454
47763	-9.599597	0.707127	-1.685274	0.085672	0.377141	-0.048321	0.502411	0.520017	0.548080	-0.420445
47764	-9.566417	0.645926	-1.615422	0.034408	0.309065	-0.094331	0.502485	0.519879	0.548133	-0.420458
47765	-9.514351	0.576594	-1.549999	-0.024438	0.246347	-0.158851	0.502468	0.519839	0.548169	-0.420482
47766	-9.536409	0.635994	-1.507535	0.038855	0.206713	-0.139218	0.502465	0.519782	0.548263	-0.420432
47767	-9.603455	0.669310	-1.461056	0.073783	0.153297	-0.077182	0.502591	0.519623	0.548503	-0.420165
47768	-9.586332	0.586465	-1.549106	-0.017932	0.232650	-0.087104	0.502912	0.519269	0.548918	-0.419676
47769	-9.591528	0.510451	-1.590939	-0.099267	0.262851	-0.080776	0.503013	0.519126	0.549227	-0.419328
47770	-9.600050	0.621350	-1.416250	0.028577	0.096505	-0.089382	0.502978	0.519132	0.549401	-0.419135
47771	-9.599496	0.660590	-1.331291	0.076473	0.013289	-0.099139	0.502930	0.519178	0.549495	-0.419011
47772	-9.614378	0.614014	-1.250771	0.037328	-0.076013	-0.098237	0.502965	0.519173	0.549659	-0.418761
47773	-9.600648	0.503987	-1.356511	-0.084316	0.015933	-0.103970	0.503197	0.518975	0.549968	-0.418322
47774	-9.653080	0.486692	-1.660436	-0.138550	0.303199	-0.011425	0.503393	0.518781	0.550253	-0.417952
47775	-9.739238	0.513848	-1.519531	-0.101171	0.151775	0.056076	0.503403	0.518731	0.550462	-0.417726
47776	-9.620838	0.499424	-1.473918	-0.105319	0.119958	-0.068104	0.503585	0.518498	0.550733	-0.417439
47777	-9.552972	0.491313	-1.466165	-0.109813	0.119613	-0.136742	0.503687	0.518363	0.550947	-0.417201
47778	-9.575681	0.536250	-1.332476	-0.051612	-0.012775	-0.130028	0.503627	0.518415	0.551006	-0.417131
47779	-9.538877	0.554331	-1.430157	-0.042645	0.088255	-0.151777	0.503481	0.518578	0.550956	-0.417169
47780	-9.568030	0.542715	-1.751175	-0.090799	0.396545	-0.079093	0.503290	0.518827	0.550827	-0.417261
47781	-9.654771	0.605543	-1.819749	-0.039560	0.455115	0.020118	0.503067	0.519065	0.550755	-0.417329
47782	-9.693089	0.725827	-1.577364	0.105148	0.220201	0.031668	0.502989	0.519112	0.550835	-0.417260
47783	-9.539038	0.714989	-1.533570	0.106280	0.195172	-0.127291	0.502992	0.519090	0.551028	-0.417029
47784	-9.542672	0.671245	-1.463362	0.070110	0.116352	-0.136111	0.502957	0.519083	0.551301	-0.416718
47785	-9.547155	0.662312	-1.481269	0.059222	0.126554	-0.129638	0.502878	0.519103	0.551559	-0.416448
47786	-9.622088	0.729030	-1.561122	0.113435	0.195619	-0.040174	0.502839	0.519106	0.551775	-0.416204
47787	-9.631647	0.685781	-1.648268	0.060154	0.271125	-0.020927	0.502838	0.519090	0.551969	-0.415969
47788	-9.624417	0.654628	-1.732026	0.019599	0.348223	-0.017985	0.502888	0.519040	0.552118	-0.415773
47789	-9.592968	0.615094	-1.660196	-0.011395	0.276317	-0.061629	0.502979	0.518994	0.552211	-0.415596
47790	-9.588181	0.553690	-1.558074	-0.062058	0.167895	-0.084617	0.502980	0.519026	0.552324	-0.415404
47791	-9.590101	0.545483	-1.495139	-0.064424	0.100947	-0.092159	0.502937	0.519114	0.552441	-0.415192
47792	-9.606369	0.547154	-1.473533	-0.062026	0.072500	-0.079040	0.502837	0.519232	0.552571	-0.414992
47793	-9.593107	0.579160	-1.550425	-0.038785	0.148838	-0.079071	0.502765	0.519307	0.552673	-0.414849
47794	-9.574408	0.619069	-1.615856	-0.005842	0.216288	-0.085575	0.502649	0.519424	0.552742	-0.414752
47795	-9.591986	0.613622	-1.647300	-0.015876	0.240541	-0.063933	0.502611	0.519477	0.552824	-0.414622
47796	-9.579549	0.549149	-1.687996	-0.084455	0.272441	-0.074243	0.502488	0.519644	0.552821	-0.414566
47797	-9.619259	0.556076	-1.618387	-0.071833	0.194892	-0.044607	0.502240	0.519940	0.552738	-0.414606
47798	-9.619358	0.581331	-1.563717	-0.040375	0.139788	-0.050822	0.501982	0.520222	0.552644	-0.414690
47799	-9.612682	0.608015	-1.473600	-0.003139	0.051308	-0.068859	0.501776	0.520446	0.552600	-0.414717
47800	-9.640861	0.604798	-1.441784	-0.003825	0.012435	-0.045878	0.501652	0.520571	0.552589	-0.414723
47801	-9.624896	0.622280	-1.467779	0.011663	0.039600	-0.056739	0.501537	0.520686	0.552605	-0.414698
47802	-9.597742	0.588448	-1.499271	-0.023845	0.069101	-0.081018	0.501414	0.520814	0.552559	-0.414748
47803	-9.614117	0.542663	-1.618292	-0.082752	0.177844	-0.050202	0.501321	0.520912	0.552496	-0.414821
47804	-9.581052	0.558322	-1.669815	-0.070825	0.234828	-0.074289	0.501242	0.520978	0.552443	-0.414904
47805	-9.612540	0.567931	-1.683825	-0.063627	0.244731	-0.040543	0.501181	0.521031	0.552393	-0.414978
47806	-9.565875	0.586524	-1.664650	-0.040122	0.234908	-0.088272	0.501096	0.521083	0.552353	-0.415068
47807	-9.519686	0.618177	-1.616094	-0.000267	0.196877	-0.139034	0.500997	0.521153	0.552339	-0.415118
47808	-9.511849	0.659827	-1.615960	0.042113	0.200974	-0.144191	0.500913	0.521231	0.552325	-0.415141
47809	-9.559796	0.658424	-1.634386	0.036485	0.209426	-0.094187	0.500783	0.521401	0.552305	-0.415109
47810	-9.588679	0.649307	-1.657335	0.023409	0.223079	-0.062774	0.500566	0.521660	0.552237	-0.415137
47811	-9.587867	0.648597	-1.662308	0.022283	0.224247	-0.062798	0.500321	0.521951	0.552130	-0.415210
47812	-9.587096	0.647684	-1.667104	0.021192	0.225473	-0.062824	0.500077	0.522226	0.552025	-0.415297
47813	-9.582935	0.674750	-1.655473	0.049964	0.214045	-0.066908	0.499902	0.522398	0.552009	-0.415312
47814	-9.571441	0.690333	-1.638461	0.068213	0.197456	-0.079756	0.499771	0.522525	0.552033	-0.415277
47815	-9.598467	0.681000	-1.581836	0.063590	0.134006	-0.062070	0.499726	0.522590	0.552070	-0.415201
47816	-9.622156	0.679978	-1.592891	0.060242	0.138867	-0.037072	0.499656	0.522647	0.552120	-0.415148
47817	-9.618388	0.652784	-1.577174	0.034890	0.119354	-0.044805	0.499610	0.522720	0.552128	-0.415101
47818	-9.574236	0.631306	-1.605467	0.012225	0.150426	-0.085443	0.499556	0.522799	0.552109	-0.415090
47819	-9.620999	0.623228	-1.598701	0.002647	0.134510	-0.040800	0.499472	0.522893	0.552073	-0.415122
47820	-9.688733	0.642355	-1.582705	0.020733	0.109587	0.024827	0.499396	0.522941	0.552026	-0.415215
47821	-9.675806	0.671732	-1.654276	0.044148	0.185835	0.024619	0.499390	0.522892	0.551993	-0.415327
47822	-9.616378	0.673339	-1.645952	0.050586	0.190120	-0.035235	0.499518	0.522695	0.551991	-0.415425
47823	-9.524130	0.691747	-1.686044	0.070282	0.250155	-0.119247	0.499666	0.522451	0.552016	-0.415521
47824	-9.533365	0.707187	-1.713758	0.083607	0.281061	-0.105157	0.499722	0.522330	0.552026	-0.415593
47825	-9.572036	0.733942	-1.676938	0.113593	0.243546	-0.070899	0.499723	0.522257	0.552026	-0.415683
47826	-9.568947	0.704834	-1.657746	0.088304	0.224029	-0.078641	0.499726	0.522189	0.552018	-0.415774
47827	-9.564500	0.669414	-1.614159	0.059057	0.180067	-0.091712	0.499753	0.522113	0.552026	-0.415828
47828	-9.574748	0.602698	-1.578632	-0.003220	0.138381	-0.090961	0.499843	0.521974	0.552109	-0.415785
47829	-9.580177	0.592616	-1.589642	-0.014067	0.148571	-0.084600	0.499941	0.521813	0.552207	-0.415737
47830	-9.606547	0.555416	-1.588841	-0.051440	0.141778	-0.060975	0.500093	0.521580	0.552336	-0.415676
47831	-9.598022	0.534911	-1.558785	-0.067017	0.113381	-0.075099	0.500230	0.521324	0.552506	-0.415606
47832	-9.563911	0.542689	-1.583651	-0.058837	0.145865	-0.104644	0.500402	0.521010	0.552704	-0.415530
47833	-9.592361	0.524590	-1.577213	-0.075923	0.135266	-0.078617	0.500526	0.520783	0.552855	-0.415463
47834	-9.593228	0.535192	-1.547345	-0.060807	0.108253	-0.081536	0.500579	0.520633	0.552943	-0.415472
47835	-9.591421	0.567241	-1.555570	-0.028129	0.121376	-0.080196	0.500563	0.520565	0.552944	-0.415574
47836	-9.537030	0.560383	-1.559885	-0.031317	0.134562	-0.133683	0.500511	0.520547	0.552920	-0.415691
47837	-9.560012	0.605307	-1.546942	0.015381	0.123144	-0.110221	0.500419	0.520566	0.552937	-0.415755
47838	-9.580018	0.582344	-1.483688	0.000132	0.054675	-0.101137	0.500298	0.520629	0.552943	-0.415814
47839	-9.566011	0.564231	-1.501342	-0.018181	0.070145	-0.113425	0.500144	0.520772	0.552956	-0.415802
47840	-9.630802	0.569850	-1.439381	-0.008129	-0.003562	-0.058262	0.499962	0.520940	0.552970	-0.415793
47841	-9.678890	0.587379	-1.375116	0.014740	-0.075823	-0.019276	0.499813	0.521070	0.552996	-0.415775
47842	-9.701384	0.578653	-1.361926	0.007311	-0.095264	0.000437	0.499724	0.521119	0.553005	-0.415808
47843	-9.686851	0.546811	-1.407648	-0.027311	-0.051515	-0.009006	0.499669	0.521102	0.553005	-0.415896
47844	-9.704537	0.545053	-1.380692	-0.025031	-0.079873	0.004360	0.499645	0.521024	0.553023	-0.415999
47845	-9.676997	0.550386	-1.440866	-0.022645	-0.013978	-0.013576	0.499641	0.520901	0.553039	-0.416136
47846	-9.594050	0.599696	-1.482351	0.028004	0.047266	-0.086445	0.499649	0.520772	0.553031	-0.416298
47847	-9.557723	0.683275	-1.546854	0.107859	0.127798	-0.107960	0.499696	0.520631	0.553022	-0.416430
47848	-9.603050	0.687452	-1.628608	0.103263	0.204988	-0.050985	0.499766	0.520449	0.553057	-0.416527
47849	-9.588612	0.696309	-1.703264	0.106474	0.285005	-0.053852	0.499882	0.520232	0.553100	-0.416603
47850	-9.529428	0.636942	-1.746366	0.046663	0.333965	-0.109504	0.500034	0.519993	0.553186	-0.416604
47851	-9.515474	0.508788	-1.753951	-0.079784	0.333402	-0.129612	0.500119	0.519826	0.553243	-0.416635
47852	-9.500632	0.483360	-1.743700	-0.101975	0.324365	-0.147258	0.500067	0.519814	0.553245	-0.416710
47853	-9.528985	0.485068	-1.655177	-0.090479	0.232861	-0.132085	0.499967	0.519860	0.553258	-0.416755
47854	-9.555408	0.460684	-1.627819	-0.111569	0.197912	-0.111335	0.499825	0.519958	0.553270	-0.416787
47855	-9.561846	0.476936	-1.582801	-0.089898	0.151614	-0.110597	0.499651	0.520119	0.553272	-0.416793
47856	-9.578197	0.518252	-1.592933	-0.049859	0.159560	-0.090552	0.499431	0.520326	0.553270	-0.416800
47857	-9.594163	0.566166	-1.548900	0.002528	0.114691	-0.078498	0.499222	0.520531	0.553247	-0.416825
47858	-9.589430	0.579921	-1.567605	0.015008	0.131589	-0.079583	0.499032	0.520720	0.553232	-0.416836
47859	-9.624366	0.574624	-1.571588	0.008295	0.126357	-0.044757	0.498864	0.520897	0.553204	-0.416853
47860	-9.610027	0.557270	-1.589900	-0.009980	0.141822	-0.057138	0.498699	0.521070	0.553181	-0.416865
47861	-9.617377	0.526373	-1.566891	-0.038419	0.112067	-0.055018	0.498545	0.521255	0.553138	-0.416874
47862	-9.655179	0.499762	-1.532202	-0.062731	0.066814	-0.024354	0.498377	0.521438	0.553085	-0.416917
47863	-9.619056	0.502379	-1.536429	-0.058400	0.074699	-0.059214	0.498235	0.521547	0.553062	-0.416981
47864	-9.603716	0.573669	-1.563682	0.011296	0.109934	-0.066234	0.498138	0.521618	0.553002	-0.417088
47865	-9.576684	0.593948	-1.595201	0.030084	0.147548	-0.087070	0.498121	0.521617	0.552960	-0.417165
47866	-9.589542	0.588516	-1.666344	0.017345	0.215891	-0.064074	0.498102	0.521619	0.552925	-0.417231
47867	-9.592549	0.552044	-1.738324	-0.026113	0.282826	-0.052419	0.498024	0.521711	0.552864	-0.417291
47868	-9.606451	0.525648	-1.694362	-0.048050	0.233777	-0.046721	0.497848	0.521907	0.552760	-0.417393
47869	-9.553056	0.492294	-1.638466	-0.072519	0.182216	-0.109629	0.497648	0.522102	0.552656	-0.417525
47870	-9.541010	0.501017	-1.595509	-0.058196	0.141082	-0.127428	0.497499	0.522256	0.552585	-0.417605
47871	-9.588816	0.505551	-1.559237	-0.051856	0.097304	-0.085404	0.497425	0.522366	0.552515	-0.417649
47872	-9.598317	0.529302	-1.615663	-0.034686	0.152913	-0.066220	0.497392	0.522425	0.552481	-0.417657
47873	-9.592935	0.530112	-1.661135	-0.038467	0.198113	-0.064659	0.497362	0.522468	0.552455	-0.417675
47874	-9.578184	0.560827	-1.655554	-0.006527	0.197031	-0.078309	0.497258	0.522565	0.552419	-0.417724
47875	-9.628975	0.536567	-1.635514	-0.030144	0.166031	-0.032529	0.497149	0.522664	0.552380	-0.417782
47876	-9.653902	0.547547	-1.615882	-0.017508	0.142959	-0.010241	0.497045	0.522742	0.552345	-0.417855
47877	-9.592085	0.592439	-1.564677	0.035532	0.105851	-0.076424	0.496973	0.522808	0.552296	-0.417923
47878	-9.527050	0.597504	-1.602258	0.039777	0.153644	-0.134685	0.496925	0.522876	0.552194	-0.418028
47879	-9.546988	0.610715	-1.625144	0.049844	0.174397	-0.110824	0.496836	0.522994	0.552108	-0.418102
47880	-9.567977	0.534536	-1.637763	-0.028059	0.175459	-0.092471	0.496775	0.523062	0.552117	-0.418076
47881	-9.600273	0.557753	-1.623936	-0.004916	0.157587	-0.061347	0.496722	0.523116	0.552119	-0.418070
47882	-9.613713	0.572888	-1.612651	0.010890	0.144853	-0.048917	0.496659	0.523173	0.552100	-0.418097
47883	-9.607646	0.621533	-1.636733	0.057248	0.173489	-0.048534	0.496644	0.523199	0.552080	-0.418109
47884	-9.581076	0.601510	-1.635496	0.038305	0.174762	-0.076072	0.496642	0.523233	0.552022	-0.418145
47885	-9.536715	0.579983	-1.661461	0.016039	0.205651	-0.117162	0.496642	0.523230	0.552010	-0.418166
47886	-9.581363	0.550992	-1.659507	-0.014196	0.194067	-0.075018	0.496615	0.523235	0.552032	-0.418162
47887	-9.575294	0.496598	-1.702169	-0.072041	0.231345	-0.077620	0.496588	0.523266	0.552039	-0.418146
47888	-9.557121	0.501065	-1.677831	-0.064227	0.209502	-0.098948	0.496511	0.523327	0.552050	-0.418147
47889	-9.563152	0.511909	-1.607115	-0.046571	0.138715	-0.103036	0.496476	0.523371	0.552059	-0.418121
47890	-9.565079	0.530884	-1.604310	-0.027561	0.136278	-0.100476	0.496424	0.523427	0.552055	-0.418119
47891	-9.592336	0.562777	-1.579504	0.005243	0.109463	-0.075519	0.496383	0.523500	0.552034	-0.418105
47892	-9.627614	0.557913	-1.581370	-0.001630	0.104437	-0.040685	0.496342	0.523563	0.552005	-0.418111
47893	-9.583547	0.591169	-1.611563	0.030201	0.143242	-0.077722	0.496275	0.523642	0.551969	-0.418140
47894	-9.592257	0.559717	-1.665214	-0.006696	0.190984	-0.062759	0.496229	0.523699	0.551951	-0.418146
47895	-9.562473	0.560623	-1.703436	-0.007975	0.232295	-0.086288	0.496138	0.523769	0.551943	-0.418177
47896	-9.575903	0.575607	-1.692554	0.007830	0.219565	-0.073811	0.496071	0.523839	0.551937	-0.418176
47897	-9.565241	0.591594	-1.673695	0.026086	0.202909	-0.086269	0.496037	0.523869	0.551960	-0.418149
47898	-9.579417	0.565745	-1.629565	0.004057	0.153919	-0.080418	0.496017	0.523896	0.551978	-0.418116
47899	-9.584964	0.618083	-1.591780	0.059507	0.119350	-0.077722	0.495966	0.523944	0.552002	-0.418084
47900	-9.613769	0.607940	-1.613256	0.046079	0.133676	-0.046586	0.495934	0.523983	0.552019	-0.418051
47901	-9.588003	0.594199	-1.637719	0.031144	0.159453	-0.069043	0.495873	0.524043	0.552009	-0.418061
47902	-9.629048	0.538968	-1.617931	-0.023327	0.127262	-0.034650	0.495771	0.524146	0.551987	-0.418081
47903	-9.654138	0.550161	-1.598485	-0.010776	0.104274	-0.012217	0.495664	0.524237	0.551915	-0.418190
47904	-9.621857	0.578840	-1.618889	0.017908	0.132714	-0.039353	0.495643	0.524243	0.551834	-0.418314
47905	-9.565029	0.553944	-1.627140	-0.004984	0.149282	-0.095593	0.495697	0.524195	0.551798	-0.418357
47906	-9.530512	0.563191	-1.652047	0.003521	0.181515	-0.125369	0.495672	0.524204	0.551736	-0.418457
47907	-9.559990	0.559124	-1.617173	0.002383	0.142982	-0.101826	0.495615	0.524231	0.551702	-0.418537
47908	-9.603969	0.570663	-1.648153	0.009849	0.167821	-0.053075	0.495579	0.524238	0.551692	-0.418583
47909	-9.613048	0.545381	-1.646292	-0.014787	0.162740	-0.045820	0.495558	0.524233	0.551670	-0.418644
47910	-9.620495	0.554753	-1.652501	-0.005537	0.169354	-0.037018	0.495507	0.524255	0.551607	-0.418759
47911	-9.625290	0.592385	-1.642386	0.033655	0.163129	-0.031746	0.495458	0.524278	0.551531	-0.418889
47912	-9.604075	0.562575	-1.650316	0.005052	0.173355	-0.053168	0.495465	0.524241	0.551470	-0.419006
47913	-9.620302	0.589548	-1.684949	0.028727	0.209745	-0.030458	0.495514	0.524159	0.551427	-0.419109
47914	-9.606791	0.571037	-1.696992	0.010578	0.225194	-0.043067	0.495594	0.524032	0.551393	-0.419217
47915	-9.507872	0.593088	-1.701864	0.037156	0.250616	-0.138829	0.495656	0.523915	0.551366	-0.419326
47916	-9.509321	0.597201	-1.724894	0.039948	0.276517	-0.133791	0.495770	0.523747	0.551388	-0.419371
47917	-9.472661	0.586436	-1.753966	0.028326	0.312489	-0.166280	0.495898	0.523594	0.551433	-0.419352
47918	-9.553033	0.553442	-1.750295	-0.007870	0.294901	-0.089353	0.495995	0.523519	0.551477	-0.419273
47919	-9.595411	0.512486	-1.699458	-0.046223	0.234475	-0.057402	0.495993	0.523551	0.551485	-0.419224
47920	-9.584457	0.481006	-1.622786	-0.069736	0.156976	-0.081444	0.495863	0.523681	0.551411	-0.419313
47921	-9.590949	0.491438	-1.551716	-0.052197	0.086148	-0.085124	0.495746	0.523789	0.551342	-0.419407
47922	-9.615173	0.496182	-1.507165	-0.043690	0.038634	-0.067643	0.495718	0.523805	0.551330	-0.419437
47923	-9.647668	0.511898	-1.546102	-0.033010	0.073834	-0.028852	0.495776	0.523751	0.551332	-0.419433
47924	-9.652392	0.495252	-1.611358	-0.056198	0.137207	-0.015318	0.495838	0.523697	0.551308	-0.419459
47925	-9.607406	0.514707	-1.668877	-0.040370	0.204186	-0.050055	0.495816	0.523721	0.551205	-0.419590
47926	-9.578424	0.521965	-1.649885	-0.029283	0.192466	-0.081147	0.495728	0.523783	0.551064	-0.419802
47927	-9.546831	0.557103	-1.614933	0.011769	0.167884	-0.115676	0.495658	0.523799	0.550974	-0.419983
47928	-9.514854	0.585500	-1.634377	0.040587	0.196186	-0.142822	0.495658	0.523786	0.550907	-0.420086
47929	-9.530009	0.558593	-1.667222	0.010202	0.224734	-0.124441	0.495641	0.523832	0.550861	-0.420109
47930	-9.582937	0.547605	-1.695752	-0.005865	0.243274	-0.068514	0.495540	0.523974	0.550766	-0.420177
47931	-9.583949	0.560355	-1.668508	0.009154	0.216296	-0.070864	0.495410	0.524145	0.550663	-0.420251
47932	-9.565417	0.558425	-1.699022	0.004772	0.247218	-0.084657	0.495295	0.524314	0.550601	-0.420256
47933	-9.575947	0.506954	-1.636572	-0.041519	0.177598	-0.086390	0.495171	0.524479	0.550537	-0.420283
47934	-9.618947	0.520477	-1.590810	-0.025892	0.125125	-0.050035	0.495049	0.524639	0.550467	-0.420317
47935	-9.619440	0.534263	-1.485054	-0.002631	0.020638	-0.064661	0.494933	0.524783	0.550380	-0.420389
47936	-9.660116	0.575730	-1.422379	0.042852	-0.044682	-0.031653	0.494833	0.524883	0.550313	-0.420468
47937	-9.692623	0.590837	-1.461298	0.053478	-0.009401	0.007113	0.494835	0.524870	0.550233	-0.420587
47938	-9.632327	0.579415	-1.560950	0.036305	0.099923	-0.038092	0.494870	0.524801	0.550136	-0.420758
47939	-9.578739	0.572662	-1.640642	0.025611	0.189935	-0.079489	0.494910	0.524727	0.550026	-0.420948
47940	-9.578408	0.555283	-1.746864	-0.000018	0.297215	-0.064999	0.494927	0.524663	0.549906	-0.421164
47941	-9.611932	0.576583	-1.728738	0.022831	0.279564	-0.033549	0.494914	0.524640	0.549794	-0.421356
47942	-9.539051	0.570907	-1.679057	0.025512	0.244125	-0.113284	0.494919	0.524638	0.549679	-0.421501
47943	-9.500698	0.506812	-1.626154	-0.031782	0.194692	-0.162528	0.494909	0.524674	0.549566	-0.421615
47944	-9.527765	0.483504	-1.596141	-0.053261	0.160147	-0.141531	0.494815	0.524784	0.549444	-0.421747
47945	-9.597728	0.466711	-1.572672	-0.070258	0.124756	-0.076826	0.494650	0.524955	0.549327	-0.421881
47946	-9.641658	0.429552	-1.625631	-0.113038	0.166602	-0.027585	0.494516	0.525090	0.549217	-0.422013
47947	-9.650934	0.460246	-1.548617	-0.075408	0.091909	-0.028188	0.494462	0.525128	0.549161	-0.422102
47948	-9.629346	0.479376	-1.536024	-0.053798	0.085344	-0.050346	0.494473	0.525100	0.549121	-0.422175
47949	-9.622958	0.521015	-1.533510	-0.011315	0.089323	-0.054802	0.494540	0.525003	0.549092	-0.422256
47950	-9.649819	0.538183	-1.535025	0.005021	0.091016	-0.027155	0.494643	0.524875	0.549074	-0.422317
47951	-9.645689	0.543940	-1.601676	0.005343	0.160859	-0.021127	0.494812	0.524671	0.549131	-0.422300
47952	-9.544279	0.499561	-1.632930	-0.037812	0.206339	-0.119119	0.495028	0.524468	0.549188	-0.422224
47953	-9.505240	0.477487	-1.613580	-0.057162	0.193056	-0.161745	0.495117	0.524379	0.549246	-0.422155
47954	-9.511473	0.481897	-1.596328	-0.051910	0.175132	-0.157883	0.495086	0.524429	0.549254	-0.422118
47955	-9.563154	0.464704	-1.601275	-0.072095	0.169343	-0.107015	0.495032	0.524526	0.549234	-0.422088
47956	-9.619359	0.391978	-1.558962	-0.143907	0.111938	-0.061645	0.494965	0.524670	0.549135	-0.422115
47957	-9.608524	0.401512	-1.593783	-0.137776	0.148127	-0.066705	0.494829	0.524869	0.548954	-0.422264
47958	-9.669011	0.546000	-1.564350	0.006659	0.121901	-0.003499	0.494632	0.525058	0.548750	-0.422525
47959	-9.687730	0.688821	-1.552957	0.150622	0.120996	0.020976	0.494544	0.525099	0.548585	-0.422790
47960	-9.609661	0.771557	-1.637032	0.230782	0.226165	-0.039441	0.494572	0.525004	0.548450	-0.423051
47961	-9.576517	0.778029	-1.737055	0.231406	0.335688	-0.057375	0.494717	0.524812	0.548369	-0.423224
47962	-9.579891	0.650507	-1.790625	0.100157	0.383596	-0.053249	0.494974	0.524524	0.548391	-0.423253
47963	-9.561639	0.592925	-1.810461	0.041841	0.406696	-0.071686	0.495216	0.524248	0.548413	-0.423282
47964	-9.510190	0.559750	-1.826277	0.009703	0.431985	-0.122196	0.495347	0.524095	0.548371	-0.423374
47965	-9.466835	0.504333	-1.761330	-0.037759	0.373370	-0.177504	0.495419	0.524016	0.548320	-0.423452
47966	-9.477402	0.493438	-1.728104	-0.046227	0.340008	-0.172499	0.495497	0.523945	0.548343	-0.423420
47967	-9.505567	0.484785	-1.669546	-0.051619	0.277140	-0.153560	0.495538	0.523941	0.548409	-0.423291
47968	-9.595508	0.442481	-1.636545	-0.095654	0.225455	-0.071647	0.495481	0.524050	0.548453	-0.423165
47969	-9.611757	0.437628	-1.589008	-0.097782	0.172780	-0.062666	0.495305	0.524285	0.548351	-0.423213
47970	-9.608529	0.425912	-1.465020	-0.098782	0.047480	-0.084404	0.495021	0.524642	0.548134	-0.423383
47971	-9.653172	0.452921	-1.389852	-0.067262	-0.033248	-0.049751	0.494727	0.524994	0.547877	-0.423625
47972	-9.684514	0.510556	-1.385191	-0.010679	-0.039184	-0.016383	0.494547	0.525215	0.547699	-0.423790
47973	-9.692992	0.575453	-1.395908	0.052608	-0.024759	-0.002977	0.494532	0.525254	0.547618	-0.423864
47974	-9.651981	0.580129	-1.439579	0.055040	0.026488	-0.036903	0.494622	0.525176	0.547578	-0.423908
47975	-9.669233	0.565147	-1.519742	0.032594	0.104404	-0.009060	0.494678	0.525121	0.547505	-0.424005
47976	-9.641592	0.579131	-1.523829	0.047864	0.117044	-0.035072	0.494677	0.525110	0.547330	-0.424245
47977	-9.625186	0.581598	-1.572738	0.047651	0.172478	-0.044170	0.494699	0.525101	0.547104	-0.424522
47978	-9.610796	0.556803	-1.558040	0.025671	0.163319	-0.061914	0.494716	0.525061	0.546912	-0.424798
47979	-9.575496	0.551172	-1.609085	0.018440	0.223686	-0.089895	0.494767	0.524987	0.546738	-0.425055
47980	-9.564549	0.503779	-1.635106	-0.029453	0.252091	-0.099627	0.494831	0.524889	0.546647	-0.425219
47981	-9.612180	0.493379	-1.623819	-0.040067	0.237443	-0.054807	0.494931	0.524767	0.546567	-0.425357
47982	-9.601268	0.494608	-1.629386	-0.037884	0.249019	-0.064845	0.494987	0.524660	0.546468	-0.425551
47983	-9.553745	0.494273	-1.610567	-0.033581	0.241919	-0.114614	0.495055	0.524566	0.546343	-0.425745
47984	-9.552210	0.528764	-1.538000	0.007292	0.177330	-0.124640	0.495096	0.524542	0.546197	-0.425916
47985	-9.546432	0.529820	-1.501223	0.011901	0.145004	-0.135519	0.495072	0.524574	0.546054	-0.426089
47986	-9.584884	0.591833	-1.474437	0.074849	0.119845	-0.098046	0.494994	0.524649	0.545899	-0.426285
47987	-9.552567	0.564568	-1.569542	0.041766	0.217717	-0.118122	0.494966	0.524690	0.545810	-0.426380
47988	-9.581462	0.504891	-1.609627	-0.021920	0.249374	-0.087074	0.494907	0.524761	0.545728	-0.426467
47989	-9.594203	0.513869	-1.573407	-0.010291	0.212192	-0.079072	0.494780	0.524900	0.545637	-0.426560
47990	-9.617262	0.513291	-1.504832	-0.006069	0.140300	-0.065893	0.494641	0.525065	0.545518	-0.426670
47991	-9.618727	0.485418	-1.443734	-0.029024	0.077104	-0.074458	0.494490	0.525265	0.545345	-0.426820
47992	-9.660952	0.492788	-1.372143	-0.017801	0.000338	-0.042360	0.494307	0.525487	0.545166	-0.426987
47993	-9.635299	0.527483	-1.375337	0.017674	0.009064	-0.065463	0.494134	0.525695	0.544988	-0.427158
47994	-9.612046	0.533330	-1.394310	0.023261	0.030772	-0.085484	0.493999	0.525837	0.544900	-0.427251
47995	-9.634334	0.516866	-1.434173	0.003199	0.064930	-0.058705	0.493922	0.525913	0.544856	-0.427304
47996	-9.662721	0.497709	-1.508811	-0.022615	0.132849	-0.021148	0.493889	0.525952	0.544822	-0.427337
47997	-9.620541	0.495740	-1.529274	-0.024016	0.159418	-0.060085	0.493851	0.525972	0.544763	-0.427433
47998	-9.592562	0.509654	-1.535926	-0.008656	0.171979	-0.086105	0.493788	0.526007	0.544684	-0.427563
47999	-9.553039	0.527186	-1.551197	0.010094	0.194672	-0.122141	0.493730	0.526051	0.544625	-0.427649
48000	-9.575822	0.518591	-1.536387	0.002123	0.175870	-0.102134	0.493661	0.526118	0.544610	-0.427666
48001	-9.570430	0.526099	-1.528793	0.010722	0.168133	-0.108114	0.493554	0.526217	0.544608	-0.427671
48002	-9.565647	0.491271	-1.567373	-0.026722	0.201896	-0.109176	0.493440	0.526359	0.544622	-0.427610
48003	-9.555951	0.514366	-1.575756	-0.004370	0.209582	-0.116305	0.493312	0.526513	0.544650	-0.427532
48004	-9.515236	0.484976	-1.616265	-0.035633	0.249120	-0.152258	0.493154	0.526723	0.544670	-0.427430
48005	-9.615088	0.522364	-1.566596	0.000397	0.182534	-0.058525	0.492916	0.527011	0.544685	-0.427331
48006	-9.642523	0.514408	-1.514026	-0.005288	0.119862	-0.039216	0.492713	0.527236	0.544747	-0.427207
48007	-9.716235	0.492080	-1.428082	-0.024592	0.016685	0.020211	0.492513	0.527455	0.544810	-0.427087
48008	-9.725824	0.483955	-1.322053	-0.025185	-0.094199	0.014020	0.492400	0.527549	0.544841	-0.427063
48009	-9.609731	0.520352	-1.330125	0.015780	-0.069180	-0.097653	0.492364	0.527554	0.544948	-0.426961
48010	-9.652363	0.525849	-1.339551	0.018741	-0.068189	-0.053895	0.492419	0.527485	0.545125	-0.426757
48011	-9.622211	0.525173	-1.457738	0.009971	0.050425	-0.066657	0.492514	0.527381	0.545334	-0.426508
48012	-9.644849	0.515373	-1.523795	-0.006099	0.109260	-0.035229	0.492564	0.527296	0.545518	-0.426321
48013	-9.644420	0.512285	-1.605951	-0.015332	0.188342	-0.023885	0.492613	0.527207	0.545672	-0.426178
48014	-9.619611	0.463590	-1.621031	-0.063753	0.202344	-0.048746	0.492642	0.527142	0.545778	-0.426089
48015	-9.551644	0.407806	-1.630799	-0.116296	0.216734	-0.117369	0.492506	0.527208	0.545813	-0.426120
48016	-9.624460	0.460611	-1.505736	-0.055772	0.083656	-0.060789	0.492330	0.527334	0.545842	-0.426129
48017	-9.623895	0.460598	-1.431645	-0.048911	0.007473	-0.072120	0.492196	0.527405	0.545930	-0.426084
48018	-9.568579	0.456142	-1.439018	-0.050773	0.019437	-0.125913	0.492092	0.527480	0.546010	-0.426008
48019	-9.558121	0.472741	-1.422849	-0.032397	0.002519	-0.137740	0.492008	0.527556	0.546129	-0.425860
48020	-9.595365	0.485185	-1.502293	-0.027774	0.072024	-0.088627	0.491974	0.527570	0.546303	-0.425658
48021	-9.663487	0.459006	-1.616311	-0.065613	0.168170	-0.005877	0.491900	0.527640	0.546432	-0.425490
48022	-9.694476	0.425028	-1.680377	-0.105259	0.220858	0.032480	0.491791	0.527695	0.546501	-0.425460
48023	-9.673337	0.492365	-1.649975	-0.033442	0.197066	0.010669	0.491692	0.527702	0.546539	-0.425516
48024	-9.620981	0.549345	-1.604284	0.030797	0.163590	-0.044828	0.491663	0.527639	0.546601	-0.425549
48025	-9.562738	0.517925	-1.588179	0.004796	0.154778	-0.106373	0.491670	0.527542	0.546667	-0.425576
48026	-9.576161	0.525680	-1.551895	0.016279	0.117671	-0.098087	0.491632	0.527504	0.546730	-0.425586
48027	-9.580820	0.603940	-1.578293	0.093299	0.147447	-0.085539	0.491577	0.527494	0.546815	-0.425553
48028	-9.592860	0.561891	-1.643207	0.046683	0.204953	-0.066168	0.491538	0.527502	0.546902	-0.425477
48029	-9.536974	0.466656	-1.715142	-0.051131	0.275324	-0.115526	0.491457	0.527565	0.546969	-0.425406
48030	-9.531416	0.474461	-1.708917	-0.042504	0.267528	-0.121453	0.491337	0.527690	0.547003	-0.425346
48031	-9.549695	0.480979	-1.711648	-0.036779	0.264135	-0.102557	0.491202	0.527800	0.547090	-0.425253
48032	-9.550629	0.494246	-1.688399	-0.021867	0.237067	-0.104300	0.491082	0.527928	0.547231	-0.425051
48033	-9.560276	0.484236	-1.662815	-0.030522	0.203833	-0.098995	0.490946	0.528043	0.547396	-0.424853
48034	-9.611739	0.514713	-1.652392	-0.001242	0.181765	-0.048067	0.490794	0.528155	0.547565	-0.424670
48035	-9.651016	0.542451	-1.625182	0.027470	0.145188	-0.011884	0.490687	0.528201	0.547766	-0.424479
48036	-9.636455	0.573460	-1.623838	0.059620	0.143615	-0.024798	0.490663	0.528160	0.547998	-0.424259
48037	-9.643861	0.543157	-1.600962	0.030826	0.114236	-0.022480	0.490748	0.528055	0.548232	-0.423988
48038	-9.580627	0.486304	-1.647275	-0.027273	0.162309	-0.080713	0.490743	0.528019	0.548442	-0.423766
48039	-9.550516	0.489793	-1.608634	-0.019844	0.125453	-0.116099	0.490741	0.528020	0.548608	-0.423554
48040	-9.580204	0.404216	-1.590977	-0.105599	0.092933	-0.093885	0.490725	0.528037	0.548815	-0.423283
48041	-9.622670	0.327067	-1.614976	-0.186754	0.099548	-0.052251	0.490666	0.528101	0.548956	-0.423088
48042	-9.565718	0.358604	-1.631376	-0.154533	0.122778	-0.104238	0.490520	0.528238	0.549004	-0.423024
48043	-9.617648	0.388977	-1.619274	-0.125326	0.100774	-0.053249	0.490354	0.528417	0.549031	-0.422957
48044	-9.634617	0.430149	-1.631437	-0.085713	0.108952	-0.032440	0.490154	0.528606	0.549027	-0.422957
48045	-9.603965	0.473306	-1.626071	-0.040322	0.108168	-0.061229	0.489933	0.528812	0.548978	-0.423021
48046	-9.622424	0.479033	-1.628617	-0.034659	0.104840	-0.042287	0.489722	0.529003	0.548956	-0.423055
48047	-9.610269	0.570306	-1.654118	0.055622	0.135390	-0.045539	0.489569	0.529130	0.548948	-0.423083
48048	-9.594487	0.593142	-1.703875	0.075765	0.186889	-0.052128	0.489533	0.529142	0.548979	-0.423070
48049	-9.613400	0.562935	-1.773405	0.039513	0.249768	-0.024155	0.489600	0.529077	0.549038	-0.422998
48050	-9.576707	0.518184	-1.794576	-0.005258	0.273720	-0.059361	0.489636	0.529013	0.549067	-0.422998
48051	-9.559192	0.480614	-1.813595	-0.043197	0.292988	-0.075616	0.489633	0.529006	0.549072	-0.423004
48052	-9.604662	0.415455	-1.803521	-0.108264	0.271195	-0.035696	0.489561	0.529017	0.549069	-0.423078
48053	-9.569613	0.460474	-1.758838	-0.057076	0.236508	-0.074934	0.489498	0.529025	0.549020	-0.423205
48054	-9.552610	0.547804	-1.720281	0.034858	0.208592	-0.093269	0.489491	0.528985	0.549002	-0.423286
48055	-9.525900	0.527340	-1.717187	0.016495	0.209348	-0.121171	0.489558	0.528881	0.549074	-0.423245
48056	-9.563620	0.498274	-1.758867	-0.016947	0.242953	-0.078962	0.489615	0.528800	0.549125	-0.423214
48057	-9.539563	0.498074	-1.751876	-0.015212	0.239825	-0.103791	0.489583	0.528791	0.549170	-0.423203
48058	-9.554708	0.524747	-1.790775	0.008361	0.276516	-0.081390	0.489531	0.528815	0.549216	-0.423175
48059	-9.554213	0.523876	-1.793666	0.007166	0.277918	-0.081429	0.489547	0.528817	0.549279	-0.423071
48060	-9.538163	0.495455	-1.760224	-0.018705	0.244019	-0.103902	0.489555	0.528845	0.549319	-0.422974
48061	-9.491260	0.516354	-1.820274	-0.001841	0.310145	-0.139641	0.489539	0.528908	0.549365	-0.422854
48062	-9.580971	0.467375	-1.765747	-0.051143	0.235106	-0.062128	0.489464	0.529038	0.549442	-0.422678
48063	-9.591221	0.457738	-1.738540	-0.059873	0.201812	-0.056702	0.489370	0.529146	0.549512	-0.422563
48064	-9.567642	0.424381	-1.726741	-0.092067	0.187142	-0.083453	0.489240	0.529334	0.549561	-0.422412
48065	-9.606266	0.435498	-1.624823	-0.075711	0.076796	-0.060845	0.489126	0.529511	0.549572	-0.422308
48066	-9.591162	0.425440	-1.667558	-0.089463	0.116737	-0.069459	0.489014	0.529664	0.549590	-0.422223
48067	-9.619499	0.541172	-1.634721	0.026466	0.084692	-0.040683	0.488971	0.529740	0.549649	-0.422102
48068	-9.551528	0.499996	-1.693241	-0.017524	0.147880	-0.100501	0.489039	0.529703	0.549776	-0.421902
48069	-9.583513	0.475427	-1.702301	-0.045298	0.147726	-0.068781	0.489077	0.529706	0.549865	-0.421740
48070	-9.602468	0.489040	-1.728259	-0.035581	0.169061	-0.045212	0.489064	0.529747	0.549915	-0.421637
48071	-9.558580	0.535357	-1.807866	0.005524	0.255888	-0.073286	0.488986	0.529840	0.549914	-0.421613
48072	-9.558705	0.546838	-1.860223	0.012442	0.306510	-0.064139	0.488948	0.529909	0.549910	-0.421575
48073	-9.582007	0.545073	-1.871572	0.008327	0.312467	-0.039405	0.488937	0.529943	0.549925	-0.421525
48074	-9.568549	0.582680	-1.890762	0.044620	0.335270	-0.047585	0.488897	0.529978	0.549928	-0.421524
48075	-9.532695	0.586816	-1.891957	0.049955	0.342062	-0.082496	0.488911	0.529981	0.549940	-0.421487
48076	-9.540853	0.556696	-1.866114	0.021061	0.312703	-0.080168	0.488929	0.529993	0.549950	-0.421440
48077	-9.525847	0.540108	-1.880841	0.003343	0.327998	-0.093456	0.488960	0.529983	0.549977	-0.421381
48078	-9.510385	0.517625	-1.871608	-0.018457	0.318627	-0.111326	0.488946	0.530030	0.550018	-0.421284
48079	-9.524072	0.527768	-1.837620	-0.007112	0.281452	-0.102689	0.488912	0.530102	0.550060	-0.421179
48080	-9.539386	0.509447	-1.819372	-0.025661	0.257448	-0.091442	0.488917	0.530151	0.550096	-0.421064
48081	-9.541401	0.523785	-1.793046	-0.010790	0.230295	-0.092886	0.488922	0.530213	0.550119	-0.420949
48082	-9.522316	0.535117	-1.872349	-0.006533	0.310141	-0.098249	0.488930	0.530263	0.550169	-0.420813
48083	-9.592772	0.531749	-1.902779	-0.016713	0.325354	-0.023997	0.488906	0.530344	0.550242	-0.420642
48084	-9.630096	0.540753	-1.878507	-0.008432	0.292827	0.009437	0.488849	0.530425	0.550288	-0.420545
48085	-9.558021	0.544531	-1.856277	-0.000533	0.280314	-0.064894	0.488778	0.530528	0.550319	-0.420457
48086	-9.535924	0.553591	-1.797603	0.013264	0.223886	-0.095620	0.488714	0.530632	0.550361	-0.420347
48087	-9.517049	0.588892	-1.758506	0.051250	0.188143	-0.118600	0.488719	0.530668	0.550447	-0.420182
48088	-9.567921	0.565889	-1.741469	0.026144	0.158816	-0.072454	0.488762	0.530682	0.550527	-0.420010
48089	-9.553946	0.515731	-1.748555	-0.025499	0.162628	-0.087761	0.488811	0.530704	0.550568	-0.419871
48090	-9.566938	0.490150	-1.783735	-0.056032	0.191820	-0.070597	0.488816	0.530776	0.550548	-0.419800
48091	-9.559346	0.491592	-1.829650	-0.059313	0.237074	-0.070478	0.488806	0.530845	0.550536	-0.419741
48092	-9.585768	0.516512	-1.860436	-0.039371	0.263846	-0.038037	0.488829	0.530885	0.550515	-0.419690
48093	-9.507318	0.527877	-1.903322	-0.029525	0.319771	-0.107676	0.488875	0.530908	0.550479	-0.419655
48094	-9.563184	0.579068	-1.883024	0.019433	0.294079	-0.053142	0.488905	0.530933	0.550465	-0.419606
48095	-9.537804	0.621614	-1.909679	0.059313	0.326798	-0.071400	0.488969	0.530927	0.550524	-0.419463
48096	-9.551909	0.632171	-1.874493	0.070594	0.289605	-0.062637	0.489025	0.530919	0.550561	-0.419360
48097	-9.555529	0.604984	-1.813662	0.047448	0.226335	-0.070510	0.489035	0.530920	0.550605	-0.419289
48098	-9.544645	0.650692	-1.778315	0.095672	0.195939	-0.084455	0.489084	0.530888	0.550662	-0.419196
48099	-9.564918	0.623064	-1.769520	0.067343	0.181250	-0.067449	0.489152	0.530832	0.550742	-0.419084
48100	-9.564582	0.623187	-1.771293	0.066193	0.182600	-0.067466	0.489282	0.530742	0.550838	-0.418920
48101	-9.598463	0.653101	-1.782419	0.092364	0.190082	-0.030592	0.489418	0.530617	0.550941	-0.418784
48102	-9.602813	0.644261	-1.794010	0.081371	0.200705	-0.024906	0.489583	0.530465	0.551044	-0.418647
48103	-9.565953	0.606424	-1.838629	0.040905	0.249053	-0.056046	0.489744	0.530273	0.551165	-0.418543
48104	-9.520238	0.585254	-1.861237	0.020033	0.278840	-0.098600	0.489890	0.530057	0.551305	-0.418462
48105	-9.487599	0.525602	-1.867628	-0.038326	0.287220	-0.133077	0.490035	0.529876	0.551441	-0.418342
48106	-9.524069	0.478971	-1.836930	-0.084140	0.247222	-0.104782	0.490123	0.529787	0.551570	-0.418182
48107	-9.523138	0.389393	-1.827984	-0.173302	0.229614	-0.112144	0.490097	0.529835	0.551657	-0.418036
48108	-9.558954	0.414117	-1.739096	-0.143408	0.134655	-0.089990	0.489946	0.530041	0.551639	-0.417975
48109	-9.550269	0.384572	-1.664668	-0.167085	0.056692	-0.112403	0.489738	0.530344	0.551532	-0.417975
48110	-9.586192	0.415633	-1.601296	-0.133119	-0.013587	-0.085711	0.489394	0.530767	0.551342	-0.418093
48111	-9.581048	0.513302	-1.608629	-0.036495	-0.002617	-0.084054	0.489047	0.531184	0.551138	-0.418239
48112	-9.601110	0.587473	-1.665131	0.031220	0.050977	-0.050745	0.488763	0.531580	0.550925	-0.418348
48113	-9.573674	0.581030	-1.715140	0.021241	0.100821	-0.069797	0.488502	0.531915	0.550742	-0.418468
48114	-9.595259	0.619905	-1.761808	0.054978	0.142958	-0.038549	0.488292	0.532176	0.550604	-0.418563
48115	-9.645084	0.642496	-1.802770	0.071806	0.174530	0.018630	0.488215	0.532289	0.550542	-0.418590
48116	-9.595880	0.602172	-1.831811	0.030958	0.208191	-0.027251	0.488275	0.532252	0.550559	-0.418544
48117	-9.540824	0.521930	-1.869865	-0.050037	0.249651	-0.079687	0.488320	0.532210	0.550575	-0.418525
48118	-9.515619	0.550794	-1.845969	-0.018231	0.233060	-0.106848	0.488336	0.532176	0.550587	-0.418534
48119	-9.522943	0.554353	-1.828202	-0.013197	0.215155	-0.102403	0.488332	0.532161	0.550574	-0.418574
48120	-9.504926	0.529711	-1.896256	-0.042751	0.283578	-0.110226	0.488378	0.532167	0.550571	-0.418517
48121	-9.501495	0.515688	-1.927972	-0.059858	0.313451	-0.109102	0.488297	0.532283	0.550528	-0.418521
48122	-9.529113	0.594488	-1.964074	0.014047	0.347788	-0.071340	0.488148	0.532488	0.550448	-0.418540
48123	-9.500215	0.598164	-1.923750	0.021675	0.310427	-0.106202	0.488032	0.532640	0.550445	-0.418485
48124	-9.490187	0.526204	-1.894330	-0.047839	0.274259	-0.124988	0.487907	0.532804	0.550492	-0.418360
48125	-9.546833	0.530494	-1.821354	-0.041195	0.188055	-0.081104	0.487693	0.533087	0.550471	-0.418276
48126	-9.587256	0.547578	-1.745713	-0.021175	0.102489	-0.052980	0.487523	0.533332	0.550474	-0.418159
48127	-9.535800	0.531035	-1.738503	-0.036166	0.098180	-0.105735	0.487380	0.533555	0.550457	-0.418063
48128	-9.536145	0.491191	-1.711272	-0.075357	0.063474	-0.112272	0.487224	0.533806	0.550473	-0.417904
48129	-9.636654	0.402461	-1.723822	-0.170852	0.045872	-0.016396	0.486981	0.534127	0.550474	-0.417775
48130	-9.623264	0.412531	-1.763786	-0.164340	0.081856	-0.022150	0.486671	0.534516	0.550357	-0.417793
48131	-9.573227	0.455719	-1.785467	-0.121199	0.109676	-0.065096	0.486325	0.534942	0.550157	-0.417913
48132	-9.574021	0.503621	-1.770020	-0.072458	0.093923	-0.064128	0.486037	0.535290	0.549948	-0.418078
48133	-9.511316	0.577931	-1.781119	0.004193	0.118349	-0.119520	0.485790	0.535539	0.549795	-0.418248
48134	-9.500374	0.634591	-1.796729	0.060655	0.137160	-0.124264	0.485609	0.535734	0.549720	-0.418308
48135	-9.595850	0.581588	-1.779783	0.004824	0.097068	-0.036351	0.485418	0.535952	0.549686	-0.418294
48136	-9.662400	0.561821	-1.702037	-0.012318	0.004974	0.014539	0.485307	0.536078	0.549634	-0.418330
48137	-9.572088	0.474745	-1.828229	-0.103938	0.138697	-0.057554	0.485254	0.536139	0.549560	-0.418410
48138	-9.490059	0.469776	-1.898420	-0.109589	0.222765	-0.126395	0.485170	0.536215	0.549420	-0.418594
48139	-9.540057	0.585647	-1.974862	-0.000817	0.298033	-0.057333	0.485092	0.536266	0.549292	-0.418787
48140	-9.538508	0.718964	-2.046219	0.128165	0.378966	-0.038895	0.485072	0.536269	0.549171	-0.418966
48141	-9.559299	0.790234	-2.097602	0.195840	0.432538	-0.005590	0.485026	0.536269	0.549080	-0.419138
48142	-9.459367	0.842445	-2.082823	0.255225	0.441271	-0.103536	0.485024	0.536204	0.549016	-0.419307
48143	-9.416833	0.833657	-2.074839	0.250629	0.442253	-0.147374	0.485025	0.536123	0.549056	-0.419357
48144	-9.472706	0.805479	-2.091612	0.219397	0.447331	-0.091188	0.485097	0.536021	0.549197	-0.419219
48145	-9.498762	0.734817	-2.084547	0.147174	0.430733	-0.070789	0.485316	0.535825	0.549411	-0.418935
48146	-9.570178	0.607011	-1.952279	0.023944	0.279858	-0.030598	0.485658	0.535484	0.549745	-0.418537
48147	-9.544871	0.453351	-1.877581	-0.124215	0.200767	-0.077203	0.486016	0.535065	0.550153	-0.418121
48148	-9.472147	0.402868	-1.847377	-0.169844	0.180084	-0.156840	0.486300	0.534711	0.550510	-0.417774
48149	-9.558309	0.390603	-1.766374	-0.180500	0.083563	-0.086725	0.486482	0.534501	0.550772	-0.417485
48150	-9.630806	0.428594	-1.750921	-0.145446	0.057614	-0.015883	0.486621	0.534348	0.550903	-0.417347
48151	-9.596761	0.589397	-1.815879	0.010380	0.139660	-0.028873	0.486798	0.534198	0.550954	-0.417265
48152	-9.622848	0.530377	-1.856105	-0.053740	0.172492	0.000212	0.486973	0.534037	0.551013	-0.417188
48153	-9.546607	0.483481	-1.927099	-0.103006	0.254333	-0.065387	0.487022	0.533993	0.550961	-0.417258
48154	-9.517706	0.520988	-1.890743	-0.061289	0.228203	-0.097893	0.487019	0.534001	0.550879	-0.417358
48155	-9.506508	0.505252	-1.824678	-0.071095	0.165478	-0.121145	0.487033	0.533991	0.550844	-0.417400
48156	-9.554642	0.572682	-1.782352	-0.002991	0.121424	-0.077125	0.487081	0.533971	0.550792	-0.417438
48157	-9.538591	0.584823	-1.778540	0.009357	0.123296	-0.092881	0.487200	0.533909	0.550738	-0.417451
48158	-9.548287	0.544701	-1.839900	-0.037155	0.181294	-0.075262	0.487309	0.533867	0.550680	-0.417454
48159	-9.528695	0.549564	-1.890123	-0.036685	0.236423	-0.085747	0.487411	0.533827	0.550619	-0.417466
48160	-9.556771	0.538610	-1.909454	-0.050914	0.252045	-0.055543	0.487461	0.533773	0.550559	-0.417555
48161	-9.512870	0.565787	-1.909378	-0.021437	0.264300	-0.097224	0.487561	0.533648	0.550537	-0.417627
48162	-9.557333	0.541723	-1.931090	-0.049123	0.279379	-0.051298	0.487665	0.533565	0.550474	-0.417696
48163	-9.542939	0.518662	-1.917219	-0.070790	0.269915	-0.069251	0.487764	0.533508	0.550372	-0.417788
48164	-9.564188	0.484584	-1.880278	-0.103450	0.230790	-0.056664	0.487774	0.533578	0.550161	-0.417964
48165	-9.539251	0.430656	-1.865216	-0.155332	0.219783	-0.086980	0.487695	0.533750	0.549842	-0.418257
48166	-9.503170	0.457360	-1.821536	-0.123840	0.188130	-0.128335	0.487541	0.533991	0.549474	-0.418611
48167	-9.574950	0.528901	-1.811861	-0.054928	0.173688	-0.055175	0.487407	0.534177	0.549200	-0.418890
48168	-9.521115	0.508698	-1.876878	-0.077396	0.247120	-0.098470	0.487279	0.534379	0.548955	-0.419102
48169	-9.470141	0.508807	-1.938179	-0.079805	0.316531	-0.138369	0.487071	0.534689	0.548662	-0.419331
48170	-9.516386	0.510202	-1.844846	-0.073967	0.215767	-0.108393	0.486765	0.535096	0.548367	-0.419554
48171	-9.566411	0.514768	-1.812658	-0.069776	0.173752	-0.064258	0.486411	0.535574	0.547997	-0.419839
48172	-9.579563	0.559650	-1.788091	-0.024709	0.148046	-0.052771	0.486058	0.536091	0.547586	-0.420124
48173	-9.525783	0.517395	-1.757560	-0.063518	0.122754	-0.113298	0.485745	0.536589	0.547175	-0.420385
48174	-9.558946	0.458526	-1.757817	-0.125628	0.111770	-0.084104	0.485456	0.537056	0.546825	-0.420578
48175	-9.574331	0.452245	-1.788663	-0.136133	0.137336	-0.064136	0.485188	0.537456	0.546490	-0.420810
48176	-9.557630	0.559761	-1.826705	-0.031686	0.182651	-0.067734	0.485009	0.537748	0.546242	-0.420966
48177	-9.494533	0.563552	-1.896016	-0.030289	0.261847	-0.117887	0.485048	0.537765	0.546181	-0.420980
48178	-9.497047	0.594728	-1.941380	-0.003183	0.308642	-0.105922	0.485138	0.537696	0.546209	-0.420927
48179	-9.542662	0.625812	-1.969782	0.023121	0.331313	-0.054420	0.485248	0.537580	0.546281	-0.420855
48180	-9.563995	0.675501	-1.924104	0.074294	0.286324	-0.038181	0.485363	0.537440	0.546386	-0.420765
48181	-9.526585	0.726548	-1.842452	0.131581	0.216620	-0.085710	0.485575	0.537261	0.546479	-0.420627
48182	-9.474152	0.667435	-1.873345	0.071181	0.253855	-0.135656	0.485779	0.537147	0.546548	-0.420449
48183	-9.469687	0.671502	-1.839645	0.075772	0.221158	-0.145448	0.485795	0.537181	0.546600	-0.420319
48184	-9.487238	0.702270	-1.801961	0.106934	0.180134	-0.132603	0.485756	0.537250	0.546694	-0.420155
48185	-9.592964	0.681143	-1.787138	0.080750	0.142298	-0.032299	0.485731	0.537278	0.546853	-0.419939
48186	-9.691080	0.660044	-1.676502	0.061811	0.011684	0.044259	0.485702	0.537301	0.546975	-0.419786
48187	-9.750497	0.635341	-1.616399	0.038080	-0.060799	0.091022	0.485751	0.537250	0.547031	-0.419722
48188	-9.644466	0.644033	-1.586588	0.053806	-0.069541	-0.017789	0.485883	0.537128	0.546989	-0.419778
48189	-9.603249	0.602563	-1.706302	0.006197	0.056579	-0.040599	0.486042	0.536966	0.546964	-0.419834
48190	-9.637714	0.635812	-1.738610	0.036122	0.089184	0.000737	0.486223	0.536702	0.546975	-0.419948
48191	-9.603608	0.626976	-1.822032	0.024490	0.182754	-0.019415	0.486494	0.536361	0.546999	-0.420038
48192	-9.557710	0.526948	-1.874193	-0.075493	0.242677	-0.062020	0.486776	0.535995	0.547049	-0.420114
48193	-9.487114	0.457078	-1.762575	-0.133084	0.147606	-0.154457	0.487073	0.535659	0.547053	-0.420194
48194	-9.409478	0.460427	-1.773538	-0.126288	0.177813	-0.228944	0.487318	0.535361	0.547104	-0.420223
48195	-9.455840	0.485297	-1.774823	-0.104164	0.175885	-0.181663	0.487483	0.535221	0.547182	-0.420108
48196	-9.569952	0.363070	-1.789833	-0.233941	0.162907	-0.074205	0.487463	0.535313	0.547208	-0.419980
48197	-9.606089	0.317885	-1.762465	-0.280164	0.123451	-0.045879	0.487198	0.535682	0.547060	-0.420011
48198	-9.616115	0.337555	-1.719871	-0.259304	0.077064	-0.041894	0.486827	0.536204	0.546726	-0.420210
48199	-9.522209	0.314738	-1.702690	-0.276995	0.071659	-0.138556	0.486398	0.536754	0.546325	-0.420525
48200	-9.491412	0.382372	-1.655742	-0.205288	0.031850	-0.172592	0.485962	0.537315	0.545930	-0.420826
48201	-9.540185	0.416130	-1.610115	-0.171431	-0.023354	-0.130187	0.485560	0.537793	0.545692	-0.420988
48202	-9.680440	0.412409	-1.558377	-0.179181	-0.103730	-0.001129	0.485149	0.538279	0.545486	-0.421108
48203	-9.769234	0.425837	-1.501587	-0.166342	-0.178982	0.077425	0.484663	0.538785	0.545180	-0.421416
48204	-9.705050	0.551830	-1.457276	-0.033599	-0.206619	0.014436	0.484353	0.539104	0.544854	-0.421785
48205	-9.662385	0.638384	-1.487935	0.054231	-0.162562	-0.017086	0.484310	0.539126	0.544659	-0.422059
48206	-9.628482	0.712359	-1.561629	0.126520	-0.074979	-0.033517	0.484537	0.538833	0.544627	-0.422214
48207	-9.664276	0.721198	-1.631365	0.130637	-0.004305	0.013940	0.484931	0.538334	0.544747	-0.422243
48208	-9.834416	0.608992	-1.685885	0.008194	0.023283	0.183722	0.485385	0.537765	0.544904	-0.422243
48209	-9.756886	0.526877	-1.703004	-0.068746	0.059330	0.105295	0.485794	0.537200	0.544930	-0.422458
48210	-9.705912	0.580102	-1.721548	-0.011150	0.101797	0.061241	0.486128	0.536710	0.544801	-0.422864
48211	-9.603985	0.751998	-1.657433	0.172582	0.080637	-0.039623	0.486611	0.536095	0.544616	-0.423327
48212	-9.459713	0.717055	-1.734038	0.142343	0.196190	-0.171709	0.487212	0.535401	0.544422	-0.423763
48213	-9.482711	0.608208	-1.741575	0.034003	0.212511	-0.154610	0.487844	0.534679	0.544270	-0.424143
48214	-9.549278	0.599775	-1.795762	0.020854	0.273034	-0.081388	0.488450	0.533931	0.544176	-0.424507
48215	-9.614838	0.619588	-1.834840	0.037555	0.320219	-0.010052	0.489089	0.533101	0.544180	-0.424810
48216	-9.506527	0.685567	-1.863011	0.109746	0.386901	-0.109435	0.489679	0.532293	0.544152	-0.425179
48217	-9.436087	0.800275	-1.896969	0.228910	0.456236	-0.168098	0.490285	0.531424	0.544191	-0.425517
48218	-9.378470	0.834463	-2.098651	0.255345	0.683267	-0.193733	0.490911	0.530526	0.544332	-0.425737
48219	-9.398268	0.828916	-2.137781	0.248880	0.733624	-0.169841	0.491532	0.529675	0.544541	-0.425811
48220	-9.299608	0.744988	-2.261175	0.162103	0.876495	-0.254649	0.492012	0.529045	0.544722	-0.425808
48221	-9.295695	0.681152	-2.306615	0.095225	0.923717	-0.255906	0.492219	0.528830	0.544810	-0.425725
48222	-9.352553	0.631472	-2.363206	0.037782	0.967487	-0.194149	0.492134	0.529007	0.544773	-0.425650
48223	-9.337609	0.588109	-2.180401	0.007370	0.781013	-0.237672	0.491807	0.529462	0.544698	-0.425558
48224	-9.465935	0.572180	-1.985432	-0.001712	0.558611	-0.139984	0.491369	0.530068	0.544629	-0.425398
48225	-9.656078	0.509975	-1.907666	-0.068719	0.437654	0.033268	0.490883	0.530717	0.544511	-0.425302
48226	-9.658595	0.315788	-1.773402	-0.256241	0.283760	0.004998	0.490637	0.531274	0.544248	-0.425226
48227	-9.357221	0.692923	-1.943362	0.112022	0.517327	-0.245337	0.491717	0.530588	0.544963	-0.423918
48228	-9.153148	0.536455	-2.329620	-0.073341	0.913825	-0.397032	0.491980	0.530472	0.545494	-0.423073
48229	-9.487844	0.360125	-1.432032	-0.201583	-0.050335	-0.212876	0.491262	0.531334	0.545679	-0.422588
48230	-9.621785	0.335397	-1.401495	-0.229873	-0.126259	-0.087124	0.489518	0.533085	0.545159	-0.423077
48231	-9.771844	0.803506	-1.651685	0.215032	0.103597	0.127414	0.488235	0.534395	0.544718	-0.423474
48232	-9.550440	0.876012	-1.522044	0.309971	-0.002309	-0.107081	0.486775	0.535912	0.543988	-0.424177
48233	-9.491285	0.694587	-1.511387	0.133712	-0.029435	-0.177727	0.485945	0.536888	0.543728	-0.424226
48234	-9.628787	0.491656	-1.757213	-0.094621	0.165152	-0.014381	0.485875	0.537251	0.543959	-0.423550
48235	-9.614615	0.486518	-1.842126	-0.113542	0.239007	-0.014682	0.486409	0.537077	0.544557	-0.422389
48236	-9.646349	0.401649	-1.979614	-0.219054	0.353873	0.034090	0.486922	0.536807	0.545253	-0.421241
48237	-9.636014	0.414382	-1.919983	-0.208841	0.286915	0.015073	0.487029	0.536781	0.545750	-0.420506
48238	-9.727919	0.432952	-1.790018	-0.188806	0.133992	0.085313	0.486750	0.537091	0.545911	-0.420226
48239	-9.658497	0.603551	-1.610764	-0.002843	-0.029095	-0.002258	0.486228	0.537608	0.545723	-0.420413
48240	-9.531160	0.763310	-1.481925	0.172214	-0.130047	-0.139261	0.485881	0.538014	0.545466	-0.420628
48241	-9.546301	0.757234	-1.513013	0.161602	-0.104272	-0.119520	0.486115	0.537912	0.545581	-0.420339
48242	-9.655739	0.600482	-1.736071	-0.019564	0.087330	0.015832	0.486787	0.537348	0.546112	-0.419592
48243	-9.742512	0.547507	-1.873560	-0.091920	0.204930	0.120897	0.487521	0.536693	0.546692	-0.418821
48244	-9.681767	0.598328	-1.895052	-0.044275	0.241700	0.067872	0.488083	0.536173	0.547029	-0.418392
48245	-9.562619	0.653495	-1.903246	0.014073	0.277788	-0.044591	0.488396	0.535854	0.547120	-0.418318
48246	-9.440515	0.687057	-1.915548	0.052444	0.317792	-0.160695	0.488632	0.535597	0.547140	-0.418345
48247	-9.468811	0.676201	-1.932913	0.038037	0.333836	-0.130803	0.488964	0.535279	0.547263	-0.418202
48248	-9.470136	0.648280	-1.946431	0.007075	0.348631	-0.129158	0.489358	0.534924	0.547456	-0.417942
48249	-9.530547	0.625201	-1.881838	-0.017196	0.276612	-0.081978	0.489867	0.534483	0.547715	-0.417572
48250	-9.497541	0.569700	-1.885198	-0.074923	0.284565	-0.117574	0.490410	0.534012	0.548044	-0.417107
48251	-9.483130	0.527690	-1.913527	-0.122099	0.312896	-0.129868	0.490805	0.533672	0.548367	-0.416652
48252	-9.494050	0.548704	-1.867324	-0.101383	0.266321	-0.125389	0.491049	0.533510	0.548570	-0.416303
48253	-9.559249	0.577556	-1.846709	-0.077371	0.235685	-0.062733	0.491215	0.533436	0.548693	-0.416040
48254	-9.580669	0.533431	-1.764765	-0.118547	0.147315	-0.058078	0.491400	0.533358	0.548776	-0.415812
48255	-9.552730	0.545637	-1.745321	-0.106393	0.134002	-0.088016	0.491610	0.533270	0.548815	-0.415626
48256	-9.524837	0.557845	-1.725607	-0.094234	0.120679	-0.117947	0.491805	0.533193	0.548867	-0.415425
48257	-9.565941	0.600301	-1.743597	-0.058535	0.134360	-0.071731	0.491958	0.533133	0.548937	-0.415229
48258	-9.614877	0.647172	-1.742992	-0.016828	0.128857	-0.020557	0.492091	0.533084	0.548961	-0.415101
48259	-9.543856	0.643192	-1.804690	-0.024926	0.202021	-0.080557	0.492320	0.532971	0.548998	-0.414926
48260	-9.502705	0.582122	-1.829048	-0.088598	0.229213	-0.121181	0.492514	0.532888	0.549039	-0.414750
48261	-9.548422	0.609791	-1.833050	-0.066897	0.227678	-0.073695	0.492621	0.532925	0.548998	-0.414630
48262	-9.602638	0.630324	-1.770256	-0.047491	0.157554	-0.029299	0.492718	0.533012	0.548958	-0.414454
48263	-9.604405	0.569648	-1.779818	-0.112462	0.161101	-0.030140	0.492793	0.533107	0.548868	-0.414362
48264	-9.552883	0.583479	-1.751286	-0.096787	0.142474	-0.084617	0.492821	0.533266	0.548718	-0.414322
48265	-9.494780	0.637062	-1.835166	-0.050497	0.237757	-0.124269	0.492749	0.533496	0.548560	-0.414323
48266	-9.504651	0.669618	-1.839177	-0.021504	0.240522	-0.111603	0.492634	0.533777	0.548379	-0.414337
48267	-9.535140	0.658778	-1.898751	-0.041683	0.290708	-0.072467	0.492488	0.534114	0.548152	-0.414377
48268	-9.579371	0.714943	-1.889252	0.009809	0.275673	-0.026540	0.492278	0.534543	0.547822	-0.414509
48269	-9.598039	0.739940	-1.825663	0.036548	0.209877	-0.016896	0.492013	0.535018	0.547420	-0.414742
48270	-9.564405	0.682246	-1.833935	-0.021068	0.217813	-0.052630	0.491657	0.535527	0.547011	-0.415046
48271	-9.551982	0.701817	-1.779205	0.003159	0.165945	-0.072516	0.491311	0.535992	0.546603	-0.415392
48272	-9.527046	0.714496	-1.821545	0.013885	0.211329	-0.089093	0.491021	0.536361	0.546315	-0.415637
48273	-9.470638	0.724519	-1.873172	0.022118	0.270609	-0.135241	0.490960	0.536546	0.546215	-0.415603
48274	-9.546123	0.767722	-1.919660	0.054531	0.304620	-0.050147	0.491047	0.536585	0.546231	-0.415429
48275	-9.529090	0.804756	-1.877322	0.092738	0.267976	-0.071275	0.491164	0.536608	0.546169	-0.415342
48276	-9.516034	0.838830	-1.868719	0.125251	0.265527	-0.083122	0.491250	0.536684	0.545973	-0.415400
48277	-9.474117	0.789536	-1.940747	0.070006	0.341976	-0.115940	0.491239	0.536923	0.545661	-0.415513
48278	-9.562485	0.807701	-2.017192	0.072826	0.404444	-0.015051	0.491197	0.537283	0.545230	-0.415663
48279	-9.500326	0.832234	-2.193982	0.081841	0.591200	-0.045080	0.491223	0.537662	0.544808	-0.415696
48280	-9.454848	0.834447	-2.326387	0.068914	0.728339	-0.067571	0.491295	0.538104	0.544433	-0.415531
48281	-9.511862	0.681523	-2.275367	-0.093349	0.655294	-0.031115	0.491378	0.538637	0.544066	-0.415224
48282	-9.445918	0.424695	-2.108722	-0.344254	0.482102	-0.143070	0.491519	0.539150	0.543709	-0.414859
48283	-9.585056	0.187749	-2.116697	-0.600703	0.446237	-0.023460	0.491323	0.539913	0.543210	-0.414752
48284	-9.807155	0.178443	-1.888229	-0.613841	0.177659	0.155721	0.490749	0.540768	0.542627	-0.415080
48285	-10.080054	0.283926	-1.596620	-0.508908	-0.153111	0.383138	0.490471	0.541233	0.542262	-0.415279
48286	-10.334713	0.174882	-1.429708	-0.625131	-0.366292	0.596731	0.490392	0.541456	0.541881	-0.415579
48287	-10.147885	0.141722	-1.249580	-0.634475	-0.502499	0.380743	0.490337	0.541690	0.540949	-0.416553
48288	-9.717340	0.289728	-1.122284	-0.451335	-0.523698	-0.050918	0.490648	0.541688	0.539693	-0.417815
48289	-9.548599	0.307476	-0.955644	-0.416076	-0.628222	-0.241080	0.491652	0.541105	0.538709	-0.418660
48290	-9.581419	0.339502	-1.010493	-0.398111	-0.541844	-0.195633	0.493285	0.540023	0.537862	-0.419225
48291	-9.690295	0.432609	-1.317165	-0.343371	-0.211367	-0.032035	0.494931	0.538941	0.536935	-0.419864
48292	-9.640425	0.627096	-1.770553	-0.186237	0.296087	0.002780	0.496285	0.538132	0.535756	-0.420809
48293	-9.685577	0.759968	-1.979536	-0.079210	0.543637	0.087039	0.497346	0.537584	0.534431	-0.421940
48294	-9.750662	0.590298	-1.692601	-0.240822	0.284259	0.094370	0.498262	0.537244	0.532633	-0.423563
48295	-9.958527	0.346598	-1.073959	-0.466324	-0.317541	0.193672	0.499131	0.536960	0.530276	-0.425852
48296	-10.188858	0.283986	-0.541180	-0.521133	-0.817916	0.348289	0.500474	0.536090	0.528229	-0.427911
48297	-10.343464	0.207699	-0.142165	-0.590062	-1.168657	0.450658	0.502656	0.534102	0.526921	-0.429449
48298	-10.903841	0.141578	0.816387	-0.638558	-2.115674	0.896930	0.504853	0.531682	0.525854	-0.431178
48299	-11.723483	-0.611214	2.093380	-1.361752	-3.413013	1.531535	0.506397	0.529375	0.523151	-0.435474
48300	-12.066145	-0.697684	2.999886	-1.421790	-4.178339	1.831767	0.507218	0.527532	0.516725	-0.444337
48301	-12.493810	-0.289978	3.206512	-1.044348	-4.142009	2.361286	0.509818	0.523609	0.509177	-0.454596
48302	-12.448765	-0.196332	3.435465	-0.918831	-4.040559	2.419699	0.514194	0.516743	0.502705	-0.464617
48303	-13.258863	-1.090583	5.122131	-1.709496	-5.427483	3.257434	0.522564	0.504178	0.501483	-0.470368
48304	-14.723656	-3.450842	3.550874	-4.012862	-3.558705	4.765150	0.532870	0.488227	0.500014	-0.477148
48305	-15.103757	-0.482608	1.840738	-0.990641	-1.143568	5.334002	0.542364	0.473280	0.494148	-0.487509
48306	-16.036977	0.476900	1.182925	-0.030593	0.380086	6.268458	0.549917	0.463087	0.476379	-0.506167
48307	-14.098701	2.868653	3.719902	2.468274	-1.398234	4.772554	0.556493	0.455569	0.448935	-0.530312
48308	-14.272862	1.040602	2.277535	0.541276	0.901668	4.637703	0.565976	0.443258	0.427108	-0.548427
48309	-14.775779	1.850084	3.578952	1.253690	0.667346	5.434146	0.573516	0.433000	0.401316	-0.567922
48310	-14.428058	3.113122	4.227306	2.447549	0.843258	5.318541	0.585510	0.416133	0.381305	-0.581909
48311	-14.624607	2.648468	2.124249	2.079889	3.840142	4.548760	0.597111	0.398060	0.358957	-0.596789
48312	-14.358046	3.576665	4.588948	2.868971	2.451898	5.209810	0.608285	0.379522	0.335915	-0.610830
48313	-14.914745	0.898324	5.692082	0.157892	2.948542	5.898145	0.622441	0.353783	0.318261	-0.621381
48314	-12.686118	-0.806688	4.906835	-1.367945	3.468154	3.290012	0.633823	0.329913	0.295305	-0.634209
48315	-13.496143	-0.860772	6.170984	-1.457200	3.973902	4.433666	0.641990	0.308097	0.271559	-0.647442
48316	-11.514816	-3.525094	2.558722	-3.800248	6.332364	0.033807	0.648533	0.286745	0.244565	-0.661340
48317	-10.713236	-2.860410	3.819781	-3.185084	5.633822	-0.035460	0.651714	0.270580	0.212869	-0.675827
48318	-7.388532	-1.690628	4.413966	-2.128888	3.324189	-1.982721	0.653503	0.257266	0.176731	-0.689575
48319	-6.847358	-0.440037	5.210836	-1.087769	2.920091	-1.782119	0.655350	0.243481	0.143379	-0.700483
48320	-5.703073	0.752893	4.341917	0.116977	2.779102	-3.165386	0.655628	0.231334	0.108141	-0.710593
48321	-6.016543	0.274734	5.544810	-0.641640	3.049798	-2.244203	0.656201	0.215907	0.078604	-0.718752
48322	-5.047672	0.777553	5.053409	-0.133094	2.755784	-3.180176	0.655134	0.201602	0.047363	-0.726577
48323	-4.171584	1.644358	4.742797	0.682873	2.309551	-3.747412	0.652657	0.187514	0.017289	-0.733879
48324	-3.720359	2.126433	5.622449	0.855770	1.942427	-3.070515	0.649937	0.171271	-0.008351	-0.740391
48325	-2.425604	1.638830	4.846169	0.475943	1.254027	-4.312837	0.646338	0.154897	-0.031428	-0.746503
48326	-0.950072	1.610705	4.385636	0.402151	0.143305	-5.064614	0.642172	0.139468	-0.052633	-0.751926
48327	-0.160775	1.815631	4.418809	0.469679	-0.454855	-5.077984	0.637780	0.124450	-0.070290	-0.756841
48328	0.471073	1.220412	3.438307	0.080872	-0.760034	-6.214432	0.632673	0.111423	-0.085971	-0.761524
48329	0.955426	1.685579	3.175274	0.488663	-1.200412	-6.326216	0.627063	0.100482	-0.099939	-0.765968
48330	1.915594	1.818504	1.972662	0.740263	-2.132671	-7.410405	0.621687	0.091728	-0.111307	-0.769871
48331	3.694177	2.331069	1.692857	0.875122	-3.951745	-7.453936	0.617035	0.084982	-0.118815	-0.773259
48332	3.603458	2.486701	0.375411	1.369911	-4.001605	-8.621121	0.612759	0.080239	-0.120085	-0.776961
48333	4.347547	2.223135	-1.299031	1.372969	-4.841087	-10.270509	0.608755	0.080768	-0.120239	-0.780024
48334	3.811538	2.703534	-0.399733	1.660762	-4.358337	-9.319712	0.605771	0.083770	-0.114346	-0.782911
48335	2.351517	2.717593	0.401505	1.804536	-2.907378	-8.643820	0.603308	0.089275	-0.103046	-0.785768
48336	1.295774	2.525049	0.679138	1.820057	-1.865137	-8.499624	0.600888	0.097639	-0.088199	-0.788429
48337	0.081387	2.568303	1.598912	1.931741	-0.745398	-7.605580	0.598825	0.109019	-0.071834	-0.790167
48338	-0.761761	2.684329	3.158502	1.849939	-0.105075	-6.027672	0.597477	0.121629	-0.052663	-0.790856
48339	-1.919915	2.632066	3.930841	1.906941	0.782990	-5.142410	0.596658	0.135662	-0.031314	-0.790325
48340	-2.413356	2.997662	4.413963	2.253437	0.850161	-4.475437	0.596033	0.151085	-0.008623	-0.788570
48341	-3.280224	2.491504	4.679846	1.924136	1.486182	-4.072563	0.595499	0.167275	0.014876	-0.785607
48342	-4.680231	1.828312	6.046121	1.275872	2.331463	-2.415206	0.595025	0.183975	0.039765	-0.781356
48343	-5.838900	2.111603	6.700634	1.628267	2.666539	-1.229900	0.594205	0.201015	0.066129	-0.775977
48344	-6.588010	1.588896	4.931130	1.691705	3.612797	-2.443190	0.592769	0.218731	0.090004	-0.769858
48345	-6.371164	2.480249	5.802667	2.251998	2.385328	-1.468055	0.591858	0.234595	0.116051	-0.762366
48346	-6.942779	1.307424	7.618434	0.810820	1.834974	0.380070	0.590739	0.251709	0.142968	-0.753147
48347	-9.060395	-0.822722	6.105269	-0.564272	4.257465	0.264722	0.589433	0.268536	0.170173	-0.742629
48348	-10.153559	-0.388281	6.207809	-0.097840	4.304737	1.286941	0.585748	0.288326	0.189242	-0.733454
48349	-10.162075	0.407953	5.125947	0.747225	4.158814	0.761780	0.581585	0.307964	0.207867	-0.723677
48350	-10.650162	1.660235	4.924694	1.910906	3.744526	1.265509	0.577709	0.326752	0.225950	-0.713044
48351	-9.795819	2.414966	5.032267	2.381123	2.328112	0.957357	0.573347	0.344091	0.245316	-0.701922
48352	-9.666484	1.645374	6.300508	1.269467	0.871077	1.738741	0.568648	0.360410	0.268096	-0.689107
48353	-11.734189	-2.221261	7.218158	-2.604797	1.461729	3.815865	0.561169	0.381501	0.287511	-0.675932
48354	-13.692842	0.263509	6.242578	-0.019136	1.915979	5.113627	0.553627	0.401300	0.304149	-0.663286
48355	-13.551591	0.527933	1.792535	0.963816	4.789842	2.963275	0.548947	0.415508	0.321483	-0.650122
48356	-12.488306	2.332161	1.792400	2.509294	3.368805	2.309038	0.542407	0.431469	0.332023	-0.639837
48357	-10.956095	2.808506	3.454072	2.425085	0.661659	1.742155	0.537661	0.445098	0.344991	-0.627527
48358	-10.817703	0.961284	3.318153	0.498999	0.589885	1.515821	0.532480	0.459668	0.358420	-0.613763
48359	-11.338513	1.200184	4.864222	0.284521	-1.289677	2.511397	0.525024	0.476210	0.371856	-0.599414
48360	-12.547702	1.742275	5.140359	0.638807	-1.982812	3.697286	0.519045	0.489297	0.390111	-0.582232
48361	-12.804288	1.797371	3.261834	0.975308	-0.805818	3.460824	0.516261	0.496719	0.411262	-0.563567
48362	-11.628278	1.388960	0.768625	0.931782	0.915623	1.849684	0.515667	0.501227	0.431458	-0.544705
48363	-11.519818	0.449498	-1.145229	0.126875	2.424386	1.514582	0.513277	0.507802	0.446750	-0.528297
48364	-11.460601	0.283156	-1.102916	-0.161974	1.958830	1.534681	0.509852	0.515656	0.458118	-0.514079
48365	-11.339935	0.150620	-0.279467	-0.466509	0.742104	1.497180	0.507154	0.522853	0.468280	-0.500133
48366	-11.666686	-0.487063	0.886314	-1.291426	-0.768938	1.800282	0.505572	0.528527	0.479240	-0.485165
48367	-13.176840	-1.207392	1.176335	-2.207395	-1.475460	3.202774	0.505050	0.532660	0.491034	-0.469130
48368	-15.169590	-2.408783	1.784338	-3.625963	-2.615185	4.989193	0.502434	0.537165	0.500495	-0.456638
48369	-13.384099	-2.413346	3.726501	-3.487757	-4.814654	2.973677	0.496794	0.541752	0.506817	-0.450374
48370	-11.366581	-1.326827	4.037515	-2.158914	-5.221602	0.926345	0.493518	0.541807	0.517160	-0.442076
48371	-10.290942	0.414491	2.144520	-0.241493	-3.433385	0.128245	0.492596	0.538728	0.529958	-0.431586
48372	-10.025491	2.158031	0.698984	1.565385	-2.075091	0.132024	0.492765	0.534978	0.542108	-0.420832
48373	-11.712204	2.116568	0.534647	1.495160	-2.323027	1.776407	0.492877	0.532286	0.551728	-0.411510
48374	-13.115832	1.957291	2.217797	1.488648	-4.346268	2.823272	0.493739	0.530148	0.557405	-0.405542
48375	-12.455071	0.097234	0.999389	-0.413974	-3.262575	2.242237	0.496186	0.527495	0.560201	-0.402147
48376	-11.538915	-1.188241	-0.386880	-1.795381	-1.868414	1.500742	0.494925	0.528467	0.558482	-0.404808
48377	-10.772927	-0.210937	0.150591	-0.715462	-2.112678	0.729970	0.491354	0.531025	0.554772	-0.410866
48378	-10.027612	0.392401	-0.286169	-0.094561	-1.456687	0.119973	0.488352	0.532153	0.552350	-0.416216
48379	-9.539806	0.261780	-0.844093	-0.204626	-0.800131	-0.267713	0.487089	0.530941	0.552381	-0.419191
48380	-9.182334	-0.031910	-1.916461	-0.522846	0.319683	-0.452488	0.488043	0.527194	0.554906	-0.419476
48381	-8.966207	0.202080	-2.880980	-0.339231	1.344808	-0.495493	0.490997	0.521498	0.559173	-0.417476
48382	-8.799910	0.126409	-3.834722	-0.514218	2.320885	-0.511693	0.495075	0.515315	0.563705	-0.414231
48383	-9.147853	-0.378721	-3.755906	-1.028848	2.145128	-0.206785	0.497220	0.511554	0.566122	-0.413026
48384	-9.575850	-0.466178	-2.991312	-1.008619	1.337186	0.089667	0.496335	0.511043	0.565751	-0.415225
48385	-9.802091	-0.791113	-2.467585	-1.218920	0.781774	0.222172	0.492502	0.513347	0.562987	-0.420668
48386	-9.543449	-0.357030	-1.999798	-0.665770	0.442952	-0.088277	0.487266	0.516737	0.559536	-0.427170
48387	-9.248163	-0.265988	-2.542362	-0.552166	1.052575	-0.291678	0.482768	0.519315	0.556976	-0.432464
48388	-9.067603	-0.044659	-3.616408	-0.345798	2.172864	-0.301612	0.479843	0.520629	0.555215	-0.436386
48389	-9.078689	0.135245	-3.844697	-0.124643	2.425315	-0.256294	0.477630	0.521720	0.553594	-0.439558
48390	-9.342453	0.253576	-3.800293	0.047978	2.361075	-0.003981	0.474610	0.523999	0.551088	-0.443252
48391	-9.503575	0.001597	-4.022100	-0.146290	2.557085	0.184040	0.470094	0.527595	0.547104	-0.448702
48392	-9.586542	0.447022	-3.359160	0.407260	1.906849	0.166433	0.463750	0.532189	0.542658	-0.455228
48393	-9.336940	0.716979	-2.278702	0.768966	0.860563	-0.244375	0.457527	0.536133	0.539345	-0.460801
48394	-8.657986	0.894548	-2.172292	1.004829	0.819593	-0.935867	0.452558	0.538823	0.538373	-0.463698
48395	-8.770688	1.262711	-2.478324	1.424389	1.040924	-0.782260	0.449661	0.539616	0.540922	-0.462627
48396	-9.040288	1.822233	-3.188580	2.018159	1.616541	-0.403769	0.449549	0.537598	0.547848	-0.456900
48397	-9.777142	1.132990	-3.813922	1.339848	2.010131	0.462762	0.449676	0.533992	0.558289	-0.448282
48398	-10.313933	-0.239728	-3.132500	0.014660	1.028512	0.919671	0.446737	0.530148	0.572136	-0.438212
48399	-10.922885	-2.403486	-1.049912	-1.940276	-1.496170	1.149797	0.442474	0.526250	0.585462	-0.429549
48400	-10.752458	-3.976534	-0.719223	-3.340136	-2.130293	0.969006	0.438981	0.521735	0.595484	-0.424837
48401	-11.798265	-3.164342	0.467308	-2.199407	-3.636067	1.648869	0.434554	0.517944	0.603373	-0.422892
48402	-11.975992	-2.013129	0.802526	-0.830278	-3.990846	1.654746	0.435000	0.511028	0.610775	-0.420213
48403	-12.358644	-3.144929	-0.289562	-1.820718	-3.223542	2.393877	0.436927	0.501227	0.619870	-0.416686
48404	-10.966568	-3.118282	-0.697815	-1.810145	-2.528805	1.178314	0.439313	0.491095	0.628026	-0.414021
48405	-10.221592	-3.128532	-1.861689	-1.928874	-1.257336	0.790702	0.442067	0.481535	0.634775	-0.412021
48406	-10.259361	-2.584679	-2.793647	-1.423451	-0.274957	1.033359	0.442096	0.475331	0.638936	-0.412762
48407	-9.429077	-0.114440	-2.671616	0.966702	0.330804	-0.065213	0.441594	0.471193	0.640161	-0.416131
48408	-8.723403	0.223691	-3.683193	1.079024	1.593474	-0.538553	0.442338	0.466873	0.640977	-0.418945
48409	-9.325284	0.234635	-3.140783	1.344425	1.022219	-0.115933	0.440890	0.465383	0.639126	-0.424915
48410	-8.138339	1.291425	-0.308107	2.664724	-1.151653	-2.094683	0.442782	0.460801	0.639717	-0.427046
48411	-7.844160	-0.817963	-1.729969	0.358618	-0.085431	-1.746921	0.447489	0.453536	0.642998	-0.424986
48412	-7.718098	-1.162722	-1.548838	0.045253	-0.259325	-1.859678	0.452578	0.446051	0.646047	-0.422889
48413	-6.621635	-2.349613	-2.604030	-1.508342	0.713521	-2.507659	0.456122	0.440358	0.647776	-0.422402
48414	-6.891434	-1.494187	-2.134531	-0.533139	0.454134	-2.478511	0.457407	0.437851	0.648090	-0.423137
48415	-7.675848	-1.350571	-2.262686	-0.260098	0.499518	-1.716687	0.457871	0.436574	0.648136	-0.423882
48416	-7.869572	-1.228189	-2.459924	-0.135779	0.700685	-1.507242	0.457168	0.436823	0.647581	-0.425232
48417	-7.946446	-1.210538	-2.660824	-0.133737	0.892466	-1.393840	0.456154	0.437795	0.646769	-0.426555
48418	-7.743661	-1.112926	-2.876692	-0.115209	1.156059	-1.558690	0.454729	0.439610	0.645921	-0.427495
48419	-7.821535	-1.090325	-3.008363	-0.095527	1.260080	-1.456941	0.452756	0.442212	0.645077	-0.428177
48420	-8.117745	-1.572841	-3.133393	-0.513320	1.186833	-1.065257	0.449410	0.446554	0.643938	-0.428909
48421	-8.934379	-1.828367	-2.525111	-0.473262	0.354139	-0.368503	0.444630	0.452517	0.642061	-0.430455
48422	-9.427958	-2.040262	-2.167861	-0.513702	-0.175696	0.059179	0.440052	0.458319	0.640031	-0.432039
48423	-9.990411	-2.297593	-2.370666	-0.687213	-0.183826	0.684987	0.435679	0.464229	0.637349	-0.434121
48424	-10.500262	-2.219999	-2.425564	-0.532810	-0.252264	1.174563	0.431736	0.470329	0.633998	-0.436395
48425	-10.600887	-2.291751	-2.135390	-0.572906	-0.578859	1.211260	0.428494	0.476412	0.629714	-0.439186
48426	-10.948002	-2.285413	-1.563996	-0.485510	-1.191316	1.406613	0.426412	0.481642	0.624892	-0.442384
48427	-10.400376	-1.945202	-1.624527	-0.301377	-0.933026	0.847005	0.426353	0.484509	0.621086	-0.444664
48428	-9.881057	-1.693510	-2.328663	-0.243932	-0.075013	0.476174	0.427058	0.486086	0.618875	-0.445349
48429	-9.594499	-1.675909	-2.598531	-0.328813	0.265149	0.258904	0.427855	0.486969	0.617817	-0.445088
48430	-9.688440	-1.699672	-2.065502	-0.319828	-0.267764	0.229574	0.428100	0.488353	0.616397	-0.445304
48431	-9.451157	-1.467576	-1.625068	-0.120296	-0.611814	-0.131255	0.428900	0.489275	0.615369	-0.444944
48432	-9.138314	-1.630305	-2.506371	-0.435875	0.292078	-0.212002	0.430828	0.489245	0.615327	-0.443170
48433	-8.629815	-1.394140	-3.564250	-0.414518	1.445831	-0.492883	0.432903	0.489093	0.615749	-0.440723
48434	-9.068233	-1.019326	-3.133898	0.014553	0.964214	-0.212525	0.433947	0.489927	0.615714	-0.438814
48435	-9.641113	-1.498826	-2.349960	-0.336907	0.001342	0.217578	0.434332	0.491018	0.615586	-0.437392
48436	-9.868875	-2.353526	-2.233974	-1.163233	-0.283466	0.506756	0.434054	0.492684	0.614738	-0.436986
48437	-9.799581	-2.616629	-1.850145	-1.419352	-0.680562	0.376709	0.432936	0.495173	0.613210	-0.437429
48438	-9.204863	-2.062444	-1.695019	-0.962249	-0.641985	-0.298585	0.432823	0.496837	0.612224	-0.437034
48439	-8.816347	-1.077466	-2.138324	-0.111406	-0.035152	-0.677729	0.433993	0.497628	0.612778	-0.434189
48440	-9.510790	-1.025904	-1.688727	0.018843	-0.653572	-0.120859	0.436173	0.498167	0.613413	-0.430473
48441	-9.714646	-1.977137	-2.217814	-1.006520	-0.334268	0.290625	0.439192	0.497796	0.614148	-0.426769
48442	-9.391371	-2.031265	-2.823752	-1.217354	0.296070	0.123490	0.441423	0.497631	0.614497	-0.424150
48443	-9.179341	-1.648347	-3.660303	-1.006293	1.185030	0.084686	0.443414	0.497694	0.614740	-0.421639
48444	-8.482775	-0.750908	-3.752464	-0.260638	1.545985	-0.639679	0.445103	0.498886	0.613780	-0.419846
48445	-8.483659	-0.788910	-3.277542	-0.297453	1.075459	-0.752236	0.446502	0.500897	0.612186	-0.418290
48446	-8.999532	-1.197828	-3.581059	-0.747105	1.178529	-0.153346	0.448513	0.502020	0.611575	-0.415678
48447	-10.122228	-1.686685	-4.544269	-1.305085	1.747817	1.196231	0.449940	0.502804	0.611767	-0.412896
48448	-10.230209	-0.800794	-3.927585	-0.385317	1.230323	1.098872	0.450276	0.503522	0.611601	-0.411900
48449	-9.326148	0.457441	-2.996833	0.876995	0.720562	-0.072105	0.450152	0.504844	0.610496	-0.412057
48450	-9.308693	0.633147	-1.814950	1.178313	-0.391353	-0.389042	0.449313	0.507098	0.608418	-0.413275
48451	-9.458308	0.777036	-1.496115	1.349645	-0.712937	-0.327338	0.449221	0.508874	0.606165	-0.414502
48452	-9.381770	0.168069	-2.981990	0.546792	0.664108	-0.004629	0.450550	0.508940	0.605887	-0.413384
48453	-9.609662	0.046578	-3.721993	0.325462	1.301569	0.404987	0.451816	0.508915	0.606291	-0.411437
48454	-9.596932	-0.017546	-3.375816	0.265013	0.953188	0.312461	0.453394	0.508658	0.606624	-0.409524
48455	-9.363795	-0.229904	-2.671427	0.089492	0.302015	-0.077662	0.454944	0.508593	0.606296	-0.408368
48456	-9.399421	0.047538	-1.921577	0.430491	-0.380144	-0.235949	0.456187	0.508793	0.605444	-0.407997
48457	-9.463474	0.397986	-1.330963	0.831969	-0.900078	-0.326654	0.457373	0.508766	0.604643	-0.407889
48458	-9.279738	0.445232	-1.161877	0.868086	-0.996106	-0.543606	0.458967	0.508200	0.604347	-0.407243
48459	-9.262902	0.115344	-1.568819	0.465744	-0.630684	-0.449936	0.461052	0.507188	0.604441	-0.406007
48460	-9.470417	-0.066022	-1.935642	0.222789	-0.336939	-0.154705	0.463137	0.506339	0.604392	-0.404765
48461	-9.648688	-0.019787	-2.103734	0.226318	-0.193407	0.058207	0.464892	0.505923	0.603871	-0.404050
48462	-9.705474	0.096157	-2.030649	0.326639	-0.240223	0.095114	0.466383	0.505743	0.603037	-0.403804
48463	-9.612077	0.077917	-2.233252	0.250558	-0.004673	0.052536	0.467741	0.505518	0.602127	-0.403873
48464	-9.704395	0.301848	-2.431209	0.427681	0.225420	0.184480	0.468969	0.505321	0.601014	-0.404351
48465	-9.581101	0.457311	-2.668780	0.523371	0.540205	0.115209	0.470633	0.504525	0.599918	-0.405040
48466	-9.342179	0.279437	-2.998486	0.274474	0.924306	-0.044602	0.472185	0.503494	0.599042	-0.405812
48467	-9.244020	0.214544	-3.080505	0.186081	1.054673	-0.125564	0.473402	0.502502	0.598220	-0.406835
48468	-9.224561	0.414160	-2.978720	0.394104	1.027711	-0.172914	0.474507	0.501428	0.597697	-0.407641
48469	-9.281347	0.592749	-2.778170	0.599640	0.880998	-0.165035	0.475651	0.500273	0.597501	-0.408015
48470	-9.265425	0.632051	-2.641528	0.653880	0.784041	-0.211493	0.476662	0.499303	0.597363	-0.408223
48471	-9.196679	0.660643	-2.493240	0.696140	0.679057	-0.310800	0.477440	0.498732	0.597100	-0.408398
48472	-9.132273	0.687375	-2.166550	0.763577	0.392492	-0.441043	0.477864	0.498566	0.596881	-0.408426
48473	-9.200278	0.624799	-2.046170	0.715948	0.256565	-0.397599	0.478434	0.498312	0.597075	-0.407784
48474	-9.232511	0.272581	-2.294905	0.320667	0.431398	-0.310519	0.479092	0.498023	0.597537	-0.406686
48475	-9.209808	0.007120	-2.509820	0.011095	0.592033	-0.285402	0.479511	0.498125	0.597818	-0.405652
48476	-9.326156	-0.090564	-2.744771	-0.131130	0.766509	-0.121744	0.479691	0.498522	0.598043	-0.404620
48477	-9.518046	-0.124672	-2.868807	-0.188263	0.824731	0.093025	0.479430	0.499314	0.598079	-0.403899
48478	-9.519283	-0.119740	-2.628309	-0.152641	0.575226	0.045552	0.478891	0.500291	0.597918	-0.403567
48479	-9.453430	0.008190	-2.179807	0.035895	0.160074	-0.112583	0.478357	0.501286	0.597702	-0.403285
48480	-9.485224	0.029116	-1.942451	0.087412	-0.087425	-0.131358	0.478114	0.502032	0.597606	-0.402788
48481	-9.422815	0.146152	-1.950487	0.190028	-0.060856	-0.191078	0.478216	0.502382	0.597725	-0.402054
48482	-9.462599	0.252149	-2.165369	0.253288	0.142612	-0.106572	0.478360	0.502534	0.598108	-0.401121
48483	-9.553004	0.276239	-2.241620	0.260019	0.188241	-0.001571	0.478644	0.502442	0.598640	-0.400102
48484	-9.368577	0.367364	-2.309544	0.325352	0.296037	-0.166669	0.478917	0.502241	0.599262	-0.399097
48485	-9.393470	0.340096	-2.167700	0.315408	0.134720	-0.172448	0.479129	0.502132	0.600099	-0.397719
48486	-9.514513	0.112273	-2.088616	0.099890	-0.024646	-0.071524	0.479359	0.502099	0.600867	-0.396321
48487	-9.437582	-0.001279	-2.250306	-0.050225	0.110017	-0.111287	0.479551	0.502106	0.601480	-0.395149
48488	-9.483515	-0.093328	-2.456725	-0.180650	0.266785	-0.020985	0.479421	0.502404	0.601784	-0.394464
48489	-9.709720	0.016003	-2.480154	-0.073031	0.244489	0.205544	0.479187	0.502762	0.601992	-0.393973
48490	-9.712130	-0.006351	-2.349800	-0.074929	0.102067	0.178860	0.478931	0.503046	0.602242	-0.393541
48491	-9.542692	0.011263	-2.154830	-0.030497	-0.057590	-0.029941	0.478535	0.503399	0.602522	-0.393141
48492	-9.484178	0.057995	-2.084905	0.025982	-0.116895	-0.102616	0.478209	0.503674	0.602813	-0.392740
48493	-9.587525	0.103475	-2.125890	0.068227	-0.103728	0.007461	0.478016	0.503752	0.603118	-0.392407
48494	-9.654548	0.207591	-2.245980	0.154839	0.008306	0.100625	0.477856	0.503746	0.603272	-0.392372
48495	-9.653376	0.248133	-2.349468	0.179887	0.114181	0.123300	0.477944	0.503475	0.603444	-0.392349
48496	-9.629759	0.011239	-2.444568	-0.068328	0.173425	0.120769	0.478166	0.503094	0.603537	-0.392425
48497	-9.538574	-0.008697	-2.410308	-0.083280	0.163863	0.023992	0.478354	0.502747	0.603583	-0.392569
48498	-9.365300	0.037491	-2.293713	-0.022297	0.103304	-0.171100	0.478599	0.502314	0.603870	-0.392382
48499	-9.280699	0.031694	-2.342469	-0.038908	0.168324	-0.242437	0.478832	0.501922	0.604250	-0.392016
48500	-9.194898	-0.051163	-2.465258	-0.145022	0.289280	-0.298406	0.478919	0.501770	0.604422	-0.391839
48501	-9.364159	-0.128995	-2.529315	-0.226771	0.296198	-0.119267	0.478798	0.501912	0.604464	-0.391740
48502	-9.380319	-0.070319	-2.694160	-0.197557	0.457682	-0.065620	0.478658	0.502143	0.604375	-0.391753
48503	-9.374498	-0.010573	-2.738488	-0.146759	0.509818	-0.060806	0.478436	0.502454	0.604198	-0.391898
48504	-9.443725	0.004830	-2.580647	-0.101184	0.342927	-0.029239	0.478094	0.502899	0.603983	-0.392076
48505	-9.558154	0.092039	-2.339580	0.031554	0.097718	0.027529	0.477660	0.503392	0.603735	-0.392355
48506	-9.586752	0.139630	-2.176611	0.109173	-0.060186	0.018254	0.477295	0.503763	0.603570	-0.392576
48507	-9.640067	0.176395	-2.071946	0.166988	-0.168100	0.046259	0.477106	0.503919	0.603462	-0.392771
48508	-9.557472	0.161249	-2.168019	0.134673	-0.058990	-0.012179	0.477102	0.503844	0.603456	-0.392882
48509	-9.492262	0.081433	-2.286634	0.034475	0.058346	-0.048786	0.477227	0.503706	0.603441	-0.392930
48510	-9.498646	-0.065814	-2.434735	-0.135853	0.176954	-0.009281	0.477385	0.503584	0.603385	-0.392980
48511	-9.372227	-0.194561	-2.581739	-0.293223	0.328301	-0.099392	0.477484	0.503607	0.603172	-0.393158
48512	-9.397172	-0.205852	-2.603295	-0.308520	0.344844	-0.070395	0.477516	0.503689	0.603003	-0.393273
48513	-9.242660	-0.228096	-2.632606	-0.342475	0.405252	-0.214361	0.477600	0.503701	0.602961	-0.393220
48514	-9.335279	-0.255961	-2.562816	-0.356674	0.311756	-0.140223	0.477620	0.503735	0.603013	-0.393071
48515	-9.490835	-0.198658	-2.362931	-0.262121	0.092139	-0.034054	0.477518	0.503887	0.603012	-0.393001
48516	-9.548434	-0.053126	-2.276019	-0.102586	0.018152	0.002853	0.477428	0.504013	0.602992	-0.392981
48517	-9.512315	0.041585	-2.295429	-0.013759	0.060072	-0.027440	0.477374	0.504067	0.602953	-0.393036
48518	-9.516851	0.145565	-2.277179	0.092555	0.060313	-0.026729	0.477419	0.503966	0.602969	-0.393088
48519	-9.523526	0.118672	-2.276224	0.067294	0.055670	-0.020588	0.477586	0.503702	0.603080	-0.393053
48520	-9.526037	0.108607	-2.322177	0.050235	0.100659	-0.007738	0.477811	0.503383	0.603207	-0.392993
48521	-9.502354	0.117978	-2.367127	0.051318	0.154764	-0.020581	0.478089	0.502993	0.603354	-0.392929
48522	-9.424663	0.130618	-2.404728	0.054761	0.215816	-0.087747	0.478397	0.502593	0.603440	-0.392933
48523	-9.418517	0.074460	-2.436172	-0.006169	0.243803	-0.086976	0.478740	0.502165	0.603538	-0.392912
48524	-9.386478	-0.005085	-2.545557	-0.104492	0.348115	-0.093956	0.479090	0.501687	0.603680	-0.392878
48525	-9.323178	-0.006430	-2.589318	-0.115005	0.409393	-0.145970	0.479347	0.501256	0.603856	-0.392844
48526	-9.329604	0.009750	-2.580983	-0.096396	0.406318	-0.141664	0.479576	0.500857	0.604097	-0.392702
48527	-9.325768	-0.020404	-2.527768	-0.115895	0.351776	-0.157492	0.479727	0.500507	0.604411	-0.392482
48528	-9.347325	-0.027139	-2.398467	-0.097917	0.220798	-0.165536	0.479830	0.500261	0.604690	-0.392240
48529	-9.408755	-0.021667	-2.342099	-0.080031	0.151511	-0.118297	0.479877	0.500146	0.604923	-0.391970
48530	-9.413906	-0.046671	-2.311168	-0.099528	0.112418	-0.120281	0.479860	0.500164	0.605070	-0.391740
48531	-9.370863	-0.091215	-2.310773	-0.146278	0.109171	-0.162416	0.479816	0.500304	0.605122	-0.391535
48532	-9.377740	-0.121973	-2.329203	-0.181516	0.114178	-0.151627	0.479676	0.500549	0.605173	-0.391315
48533	-9.492805	-0.159112	-2.397489	-0.227640	0.139946	-0.024163	0.479488	0.500838	0.605236	-0.391079
48534	-9.528937	-0.139111	-2.393269	-0.207423	0.123929	0.010211	0.479298	0.501124	0.605275	-0.390885
48535	-9.551365	-0.106121	-2.345653	-0.167255	0.073221	0.021365	0.479111	0.501452	0.605195	-0.390816
48536	-9.516517	-0.098100	-2.236269	-0.142698	-0.026055	-0.037536	0.478922	0.501774	0.605031	-0.390888
48537	-9.471847	-0.092780	-2.178904	-0.129799	-0.071931	-0.094143	0.478735	0.502072	0.604836	-0.391037
48538	-9.506560	-0.022582	-2.222417	-0.067463	-0.027000	-0.050052	0.478523	0.502384	0.604647	-0.391187
48539	-9.583968	0.005905	-2.249117	-0.041514	-0.015638	0.031551	0.478325	0.502682	0.604470	-0.391320
48540	-9.406522	-0.013872	-2.268240	-0.070772	0.038369	-0.136878	0.478130	0.502974	0.604240	-0.391539
48541	-9.514107	0.021865	-2.312146	-0.039129	0.061608	-0.021906	0.477849	0.503372	0.603962	-0.391799
48542	-9.478792	0.072694	-2.336996	0.006016	0.101831	-0.050314	0.477631	0.503660	0.603717	-0.392072
48543	-9.492018	0.101046	-2.409006	0.022867	0.173587	-0.020789	0.477493	0.503860	0.603498	-0.392321
48544	-9.455955	0.115636	-2.389904	0.039859	0.168089	-0.060239	0.477381	0.504039	0.603237	-0.392629
48545	-9.435327	0.151801	-2.454224	0.065077	0.243081	-0.065466	0.477191	0.504273	0.602965	-0.392978
48546	-9.434828	0.192057	-2.483528	0.101907	0.280081	-0.059126	0.476916	0.504570	0.602661	-0.393395
48547	-9.452513	0.244922	-2.465478	0.160300	0.269288	-0.045888	0.476666	0.504813	0.602409	-0.393773
48548	-9.436428	0.263042	-2.447224	0.183034	0.260146	-0.065735	0.476493	0.504973	0.602207	-0.394085
48549	-9.465452	0.188358	-2.465020	0.109678	0.260094	-0.033786	0.476366	0.505072	0.602051	-0.394350
48550	-9.409776	0.153354	-2.451985	0.077090	0.256458	-0.091169	0.476281	0.505151	0.601897	-0.394587
48551	-9.345985	0.108276	-2.468720	0.028852	0.281557	-0.149684	0.476229	0.505213	0.601768	-0.394767
48552	-9.350278	0.046512	-2.534490	-0.041962	0.334689	-0.130760	0.476133	0.505346	0.601639	-0.394910
48553	-9.368077	0.014682	-2.601271	-0.083052	0.389684	-0.098319	0.475964	0.505579	0.601453	-0.395099
48554	-9.398301	-0.022932	-2.555761	-0.110820	0.331904	-0.079339	0.475672	0.505932	0.601251	-0.395305
48555	-9.405763	-0.013856	-2.493317	-0.090555	0.269538	-0.086211	0.475338	0.506366	0.600990	-0.395549
48556	-9.399502	-0.034046	-2.430661	-0.100018	0.205296	-0.106619	0.474973	0.506878	0.600649	-0.395848
48557	-9.374400	0.019915	-2.368187	-0.037367	0.157320	-0.145116	0.474541	0.507491	0.600240	-0.396201
48558	-9.393183	0.024522	-2.408269	-0.038668	0.189117	-0.117587	0.474121	0.508144	0.599844	-0.396468
48559	-9.368833	0.071169	-2.467168	-0.003376	0.254446	-0.127531	0.473680	0.508838	0.599429	-0.396732
48560	-9.398966	0.071037	-2.538900	-0.014703	0.311429	-0.081581	0.473268	0.509503	0.599085	-0.396889
48561	-9.362766	0.036362	-2.616465	-0.063096	0.382976	-0.098885	0.472837	0.510166	0.598767	-0.397032
48562	-9.408436	-0.019600	-2.557623	-0.109201	0.300781	-0.068043	0.472406	0.510807	0.598507	-0.397111
48563	-9.464230	-0.073205	-2.516246	-0.155398	0.234042	-0.023429	0.472040	0.511369	0.598229	-0.397243
48564	-9.445584	-0.085333	-2.461291	-0.160543	0.179128	-0.054284	0.471667	0.511913	0.597937	-0.397424
48565	-9.437316	0.026895	-2.419845	-0.044075	0.153980	-0.071350	0.471344	0.512359	0.597704	-0.397583
48566	-9.400954	0.078852	-2.448570	0.001281	0.194091	-0.099708	0.471159	0.512695	0.597553	-0.397597
48567	-9.370329	0.106500	-2.513403	0.016761	0.263280	-0.114131	0.470944	0.513066	0.597430	-0.397558
48568	-9.388320	0.112285	-2.555448	0.015430	0.295065	-0.086631	0.470658	0.513520	0.597257	-0.397571
48569	-9.453563	0.105552	-2.526861	0.013078	0.245330	-0.029760	0.470372	0.513988	0.597113	-0.397521
48570	-9.407728	0.113579	-2.509168	0.020381	0.233946	-0.078263	0.470093	0.514450	0.596943	-0.397509
48571	-9.435538	0.088996	-2.455619	0.002555	0.166533	-0.063861	0.469822	0.514900	0.596783	-0.397486
48572	-9.424760	0.089132	-2.407756	0.007244	0.117438	-0.085535	0.469613	0.515254	0.596687	-0.397419
48573	-9.507152	0.060910	-2.360525	-0.013470	0.043328	-0.016787	0.469422	0.515549	0.596640	-0.397333
48574	-9.549871	0.099750	-2.349040	0.026442	0.023575	0.022287	0.469306	0.515754	0.596579	-0.397295
48575	-9.521432	0.083972	-2.344840	0.009610	0.022159	-0.006444	0.469306	0.515803	0.596556	-0.397266
48576	-9.470840	0.069736	-2.362440	-0.008691	0.049159	-0.051524	0.469338	0.515771	0.596548	-0.397281
48577	-9.456619	0.082119	-2.356604	0.004255	0.049703	-0.066638	0.469413	0.515639	0.596614	-0.397265
48578	-9.494911	0.010570	-2.426849	-0.075080	0.099891	-0.013329	0.469538	0.515493	0.596646	-0.397260
48579	-9.406106	0.064590	-2.407340	-0.021089	0.112129	-0.103863	0.469578	0.515444	0.596582	-0.397372
48580	-9.414840	0.063376	-2.496283	-0.033984	0.197590	-0.074388	0.469576	0.515449	0.596512	-0.397473
48581	-9.387299	0.123833	-2.526639	0.021295	0.243478	-0.093589	0.469606	0.515405	0.596482	-0.397539
48582	-9.372584	0.135393	-2.556295	0.028406	0.278524	-0.100843	0.469652	0.515350	0.596481	-0.397557
48583	-9.407511	0.159784	-2.605578	0.046799	0.321988	-0.055128	0.469677	0.515301	0.596505	-0.397556
48584	-9.429942	0.155420	-2.582677	0.047091	0.294568	-0.038784	0.469666	0.515229	0.596560	-0.397580
48585	-9.440860	0.201450	-2.488670	0.107135	0.208842	-0.050064	0.469741	0.515076	0.596653	-0.397549
48586	-9.415674	0.175997	-2.457614	0.086216	0.182607	-0.082067	0.469896	0.514825	0.596813	-0.397451
48587	-9.444318	0.190920	-2.427917	0.106409	0.151294	-0.061167	0.470110	0.514502	0.597013	-0.397315
48588	-9.414242	0.181355	-2.444119	0.093834	0.174694	-0.086679	0.470384	0.514131	0.597242	-0.397128
48589	-9.382048	0.136508	-2.489807	0.041497	0.221425	-0.107542	0.470641	0.513804	0.597470	-0.396903
48590	-9.447190	0.091453	-2.483964	-0.000779	0.195142	-0.045919	0.470828	0.513521	0.597672	-0.396743
48591	-9.436023	0.052987	-2.459249	-0.035883	0.169295	-0.062852	0.471051	0.513229	0.597886	-0.396534
48592	-9.464949	0.025217	-2.435407	-0.059705	0.136471	-0.040537	0.471270	0.512951	0.598075	-0.396348
48593	-9.439800	0.000646	-2.403956	-0.080563	0.110226	-0.072554	0.471511	0.512636	0.598240	-0.396220
48594	-9.394749	-0.029085	-2.371445	-0.107080	0.087461	-0.124200	0.471789	0.512310	0.598411	-0.396052
48595	-9.429201	-0.038184	-2.376904	-0.116913	0.085300	-0.089519	0.472053	0.512006	0.598597	-0.395850
48596	-9.473207	-0.044725	-2.401195	-0.126842	0.098734	-0.041119	0.472286	0.511742	0.598769	-0.395654
48597	-9.485510	-0.050334	-2.395086	-0.132323	0.090379	-0.030653	0.472491	0.511538	0.598871	-0.395518
48598	-9.448150	-0.069066	-2.369288	-0.148952	0.073490	-0.073168	0.472671	0.511339	0.598925	-0.395479
48599	-9.425558	-0.023738	-2.385927	-0.107778	0.104167	-0.090965	0.472860	0.511113	0.599014	-0.395409
48600	-9.488704	-0.017450	-2.361250	-0.096321	0.069776	-0.035307	0.473099	0.510823	0.599113	-0.395349
48601	-9.494722	-0.000293	-2.388763	-0.083528	0.101403	-0.022965	0.473340	0.510523	0.599193	-0.395327
48602	-9.373806	0.054077	-2.408308	-0.036474	0.160646	-0.135706	0.473587	0.510213	0.599284	-0.395294
48603	-9.447712	0.053683	-2.484595	-0.046759	0.220553	-0.046187	0.473853	0.509899	0.599413	-0.395184
48604	-9.460312	0.003784	-2.518011	-0.101942	0.245173	-0.026605	0.474159	0.509575	0.599544	-0.395037
48605	-9.415060	0.017610	-2.479204	-0.084570	0.223831	-0.079606	0.474372	0.509311	0.599623	-0.395002
48606	-9.467817	0.064607	-2.465637	-0.034971	0.209897	-0.031183	0.474610	0.509062	0.599661	-0.394977
48607	-9.423470	-0.008808	-2.437033	-0.105405	0.185674	-0.081531	0.474950	0.508697	0.599742	-0.394917
48608	-9.370443	-0.049662	-2.432374	-0.147476	0.191602	-0.134586	0.475199	0.508425	0.599787	-0.394899
48609	-9.401378	0.000787	-2.405772	-0.093451	0.171451	-0.110341	0.475475	0.508144	0.599833	-0.394859
48610	-9.403407	0.035112	-2.444459	-0.066633	0.218075	-0.099363	0.475701	0.507911	0.599844	-0.394870
48611	-9.389565	0.048247	-2.471397	-0.059360	0.253067	-0.106684	0.475928	0.507707	0.599869	-0.394822
48612	-9.400192	0.007628	-2.493225	-0.104609	0.268104	-0.091730	0.476186	0.507514	0.599903	-0.394706
48613	-9.385604	0.022057	-2.557259	-0.103161	0.337634	-0.091320	0.476359	0.507400	0.599895	-0.394655
48614	-9.354542	0.101803	-2.597997	-0.033572	0.398454	-0.111784	0.476450	0.507381	0.599850	-0.394639
48615	-9.386619	0.145203	-2.586260	0.010457	0.388066	-0.082952	0.476564	0.507333	0.599841	-0.394577
48616	-9.441894	0.142014	-2.520719	0.017695	0.313365	-0.044113	0.476702	0.507256	0.599828	-0.394529
48617	-9.460976	0.111962	-2.478159	-0.006140	0.265020	-0.035489	0.476824	0.507193	0.599794	-0.394514
48618	-9.482253	0.116953	-2.405410	0.009744	0.193304	-0.031310	0.476978	0.507073	0.599790	-0.394489
48619	-9.438911	0.079075	-2.385231	-0.026598	0.180169	-0.078446	0.477164	0.506874	0.599832	-0.394455
48620	-9.421417	0.108323	-2.353265	0.006373	0.161041	-0.102553	0.477350	0.506654	0.599901	-0.394408
48621	-9.444183	0.147820	-2.321378	0.050399	0.135062	-0.087337	0.477590	0.506412	0.599948	-0.394357
48622	-9.420217	0.115380	-2.372654	0.008054	0.187638	-0.099397	0.477826	0.506197	0.600001	-0.394268
48623	-9.453120	0.071283	-2.371405	-0.035806	0.174311	-0.068025	0.477985	0.506087	0.599988	-0.394233
48624	-9.457318	0.054920	-2.394082	-0.056973	0.194666	-0.059003	0.478125	0.505994	0.599970	-0.394211
48625	-9.445272	0.016947	-2.440679	-0.103619	0.237980	-0.060611	0.478253	0.505903	0.599949	-0.394205
48626	-9.439917	-0.003040	-2.409824	-0.118849	0.208216	-0.072984	0.478292	0.505854	0.599917	-0.394269
48627	-9.398162	0.036897	-2.354766	-0.071482	0.173134	-0.125755	0.478327	0.505818	0.599872	-0.394341
48628	-9.374145	0.090515	-2.323960	-0.014392	0.159366	-0.155670	0.478386	0.505775	0.599850	-0.394358
48629	-9.411992	0.108236	-2.348353	-0.000358	0.178168	-0.113186	0.478438	0.505749	0.599852	-0.394325
48630	-9.456508	0.101561	-2.302215	0.001110	0.122474	-0.080213	0.478405	0.505843	0.599808	-0.394311
48631	-9.530303	0.059453	-2.352501	-0.047507	0.146728	0.002642	0.478350	0.506008	0.599674	-0.394372
48632	-9.518573	0.021573	-2.329110	-0.082525	0.120895	-0.014370	0.478286	0.506197	0.599468	-0.394520
48633	-9.418084	0.039249	-2.321371	-0.067418	0.140329	-0.113906	0.478239	0.506326	0.599266	-0.394717
48634	-9.357064	0.066739	-2.385585	-0.052789	0.222077	-0.158776	0.478244	0.506372	0.599158	-0.394815
48635	-9.442202	0.026560	-2.344915	-0.084170	0.158097	-0.085281	0.478288	0.506372	0.599161	-0.394758
48636	-9.518034	-0.023813	-2.406696	-0.142751	0.192120	0.002017	0.478333	0.506368	0.599166	-0.394701
48637	-9.449781	-0.006243	-2.359138	-0.120624	0.164364	-0.075009	0.478310	0.506466	0.599079	-0.394736
48638	-9.413347	0.054270	-2.335248	-0.059251	0.159833	-0.115349	0.478266	0.506640	0.598886	-0.394857
48639	-9.374681	0.122728	-2.334883	0.006384	0.180132	-0.152517	0.478223	0.506756	0.598750	-0.394968
48640	-9.394102	0.126753	-2.372110	0.004871	0.212137	-0.125216	0.478071	0.506948	0.598632	-0.395084
48641	-9.421352	0.185165	-2.374715	0.062966	0.216811	-0.097521	0.477971	0.507104	0.598558	-0.395117
48642	-9.489220	0.210743	-2.348574	0.093888	0.178680	-0.036964	0.477852	0.507276	0.598514	-0.395107
48643	-9.458485	0.203295	-2.333558	0.087337	0.167426	-0.070300	0.477750	0.507475	0.598432	-0.395099
48644	-9.433779	0.215217	-2.312501	0.100607	0.152189	-0.098941	0.477622	0.507724	0.598310	-0.395120
48645	-9.404960	0.287127	-2.261970	0.177686	0.118893	-0.137641	0.477468	0.507981	0.598206	-0.395131
48646	-9.425585	0.284098	-2.313791	0.166227	0.160681	-0.105857	0.477381	0.508118	0.598197	-0.395074
48647	-9.498853	0.198290	-2.372542	0.073554	0.183662	-0.022011	0.477317	0.508194	0.598291	-0.394912
48648	-9.554848	0.099280	-2.371462	-0.023018	0.150678	0.031376	0.477262	0.508260	0.598357	-0.394793
48649	-9.533295	0.015297	-2.303306	-0.096019	0.073298	-0.005824	0.477127	0.508430	0.598350	-0.394748
48650	-9.454788	0.029944	-2.240213	-0.073644	0.029814	-0.096404	0.476933	0.508672	0.598244	-0.394831
48651	-9.385846	0.133754	-2.182880	0.036468	0.004684	-0.175488	0.476725	0.508922	0.598113	-0.394959
48652	-9.444768	0.147930	-2.223133	0.045914	0.029859	-0.108830	0.476511	0.509209	0.597989	-0.395036
48653	-9.543946	0.085764	-2.276878	-0.021570	0.045594	-0.000660	0.476240	0.509585	0.597852	-0.395084
48654	-9.524943	0.072763	-2.258396	-0.032404	0.025145	-0.023484	0.475867	0.510091	0.597638	-0.395204
48655	-9.487951	0.133406	-2.204129	0.034877	-0.014008	-0.071241	0.475528	0.510517	0.597452	-0.395343
48656	-9.403662	0.207449	-2.219664	0.103845	0.028121	-0.148980	0.475353	0.510722	0.597384	-0.395393
48657	-9.413694	0.200615	-2.289439	0.086705	0.089081	-0.123314	0.475312	0.510753	0.597482	-0.395253
48658	-9.545633	0.181545	-2.295814	0.070013	0.058974	0.006399	0.475314	0.510714	0.597649	-0.395049
48659	-9.613078	0.119804	-2.319057	0.007167	0.052812	0.076741	0.475250	0.510737	0.597788	-0.394886
48660	-9.622999	0.165100	-2.263875	0.061332	0.001574	0.074210	0.475149	0.510785	0.597840	-0.394866
48661	-9.462385	0.166572	-2.221027	0.066183	-0.003609	-0.091934	0.475160	0.510718	0.597893	-0.394860
48662	-9.366255	0.080470	-2.213738	-0.020366	-0.002138	-0.188061	0.475323	0.510536	0.598064	-0.394641
48663	-9.480688	-0.038435	-2.241542	-0.140372	-0.021616	-0.071576	0.475461	0.510384	0.598279	-0.394344
48664	-9.633942	-0.059880	-2.295887	-0.167497	-0.010564	0.089805	0.475475	0.510420	0.598355	-0.394164
48665	-9.753928	-0.029898	-2.300712	-0.136100	-0.029868	0.207984	0.475363	0.510567	0.598211	-0.394329
48666	-9.654743	0.020904	-2.332874	-0.092482	0.035161	0.119433	0.475317	0.510637	0.597913	-0.394746
48667	-9.492822	0.071962	-2.335348	-0.045155	0.090631	-0.037083	0.475477	0.510463	0.597654	-0.395169
48668	-9.233551	0.036782	-2.434970	-0.100374	0.250455	-0.267213	0.475801	0.510024	0.597587	-0.395447
48669	-9.306700	0.042055	-2.494717	-0.101140	0.301219	-0.182574	0.476086	0.509624	0.597627	-0.395559
48670	-9.383382	0.118850	-2.533394	-0.028337	0.339656	-0.098579	0.476354	0.509229	0.597737	-0.395580
48671	-9.469690	0.111103	-2.602995	-0.043463	0.391062	0.000984	0.476531	0.508943	0.597803	-0.395634
48672	-9.429714	0.150650	-2.509517	0.009894	0.321051	-0.058883	0.476695	0.508721	0.597798	-0.395730
48673	-9.407489	0.116179	-2.451863	-0.014989	0.269855	-0.093997	0.476853	0.508481	0.597823	-0.395811
48674	-9.341543	0.079416	-2.488767	-0.058004	0.319423	-0.150426	0.477068	0.508189	0.597836	-0.395907
48675	-9.295304	0.047784	-2.561371	-0.101371	0.400248	-0.179666	0.477315	0.507862	0.597883	-0.395957
48676	-9.298393	0.072113	-2.683361	-0.095936	0.525946	-0.149359	0.477492	0.507606	0.597910	-0.396032
48677	-9.335614	0.139604	-2.651834	-0.022450	0.501904	-0.119752	0.477539	0.507508	0.597882	-0.396143
48678	-9.351188	0.123804	-2.584595	-0.026434	0.434177	-0.119857	0.477582	0.507486	0.597777	-0.396278
48679	-9.529756	0.098642	-2.468653	-0.029577	0.278720	0.028129	0.477499	0.507764	0.597668	-0.396186
48680	-9.433309	-0.032506	-2.621791	-0.192865	0.426977	-0.032982	0.478171	0.507537	0.597591	-0.395782
48681	-9.379106	0.165881	-2.315885	0.045500	0.177432	-0.152205	0.477768	0.507964	0.597349	-0.396086
48682	-9.446645	0.057639	-2.377571	-0.067281	0.204816	-0.073653	0.477653	0.508080	0.597142	-0.396389
48683	-9.434853	0.207386	-2.055841	0.133779	-0.077638	-0.155461	0.477023	0.508683	0.596701	-0.397036
48684	-9.426810	0.139355	-2.176995	0.051552	0.029808	-0.136948	0.476665	0.509034	0.596402	-0.397468
48685	-9.449545	0.079819	-2.278791	-0.019663	0.114911	-0.092628	0.476391	0.509350	0.596055	-0.397911
48686	-9.426238	0.036574	-2.378749	-0.077507	0.211943	-0.093489	0.476392	0.509443	0.595875	-0.398059
48687	-9.404823	0.030848	-2.484861	-0.101407	0.320103	-0.090885	0.476598	0.509323	0.595882	-0.397957
48688	-9.439834	0.066387	-2.448421	-0.061868	0.284973	-0.064632	0.476788	0.509169	0.595893	-0.397909
48689	-9.436272	0.169092	-2.412781	0.044738	0.268928	-0.075182	0.476775	0.509126	0.595904	-0.397963
48690	-9.468404	0.252526	-2.396908	0.132390	0.259905	-0.046699	0.476628	0.509173	0.595869	-0.398132
48691	-9.478573	0.338582	-2.369129	0.224586	0.244516	-0.042297	0.476447	0.509287	0.595763	-0.398361
48692	-9.453336	0.355973	-2.298112	0.253734	0.184764	-0.082575	0.476386	0.509311	0.595728	-0.398455
48693	-9.443335	0.308363	-2.286560	0.208810	0.168752	-0.095283	0.476436	0.509218	0.595819	-0.398379
48694	-9.447776	0.291809	-2.240073	0.199159	0.120039	-0.101381	0.476626	0.508977	0.596055	-0.398105
48695	-9.487453	0.170994	-2.259256	0.076953	0.110406	-0.059373	0.476900	0.508610	0.596403	-0.397725
48696	-9.515019	0.099191	-2.278655	0.003022	0.111264	-0.028756	0.477152	0.508249	0.596723	-0.397405
48697	-9.433705	0.034561	-2.319714	-0.069343	0.158839	-0.099448	0.477345	0.507931	0.596963	-0.397219
48698	-9.504201	0.006638	-2.309172	-0.092880	0.129487	-0.033282	0.477512	0.507648	0.597178	-0.397057
48699	-9.465820	-0.013434	-2.320273	-0.114801	0.146971	-0.068416	0.477712	0.507320	0.597367	-0.396952
48700	-9.422247	0.034547	-2.289168	-0.062842	0.136235	-0.117445	0.477894	0.506998	0.597570	-0.396838
48701	-9.549694	0.037435	-2.254776	-0.050327	0.077414	-0.000779	0.478114	0.506668	0.597779	-0.396680
48702	-9.490896	0.056622	-2.295104	-0.039387	0.134021	-0.049066	0.478371	0.506313	0.597998	-0.396493
48703	-9.434456	0.067398	-2.311624	-0.032672	0.165883	-0.100400	0.478479	0.506112	0.598106	-0.396456
48704	-9.396961	0.134084	-2.275276	0.039065	0.151155	-0.144525	0.478540	0.505923	0.598243	-0.396417
48705	-9.467654	0.148554	-2.258801	0.059385	0.123171	-0.079136	0.478613	0.505745	0.598359	-0.396382
48706	-9.498162	0.153575	-2.241371	0.069030	0.101835	-0.053216	0.478703	0.505575	0.598448	-0.396355
48707	-9.528212	0.159130	-2.259362	0.072947	0.115132	-0.019920	0.478868	0.505342	0.598573	-0.396264
48708	-9.531788	0.184750	-2.312136	0.089972	0.171619	-0.004653	0.479075	0.505045	0.598716	-0.396176
48709	-9.486063	0.197788	-2.309550	0.102304	0.184415	-0.049795	0.479384	0.504572	0.598981	-0.396004
48710	-9.463717	0.199093	-2.366456	0.094224	0.248122	-0.059163	0.479783	0.503960	0.599335	-0.395765
48711	-9.473022	0.250161	-2.362729	0.146670	0.256193	-0.050717	0.480216	0.503236	0.599728	-0.395567
48712	-9.453332	0.154525	-2.370665	0.052229	0.257875	-0.068961	0.480712	0.502416	0.600190	-0.395305
48713	-9.407059	0.036185	-2.384852	-0.067163	0.266844	-0.111869	0.481262	0.501598	0.600663	-0.394956
48714	-9.375543	-0.096114	-2.299923	-0.183717	0.172596	-0.161981	0.481705	0.500913	0.601148	-0.394546
48715	-9.377250	-0.192736	-2.253919	-0.271235	0.111582	-0.170898	0.482039	0.500457	0.601535	-0.394127
48716	-9.434949	-0.257559	-2.222206	-0.328590	0.055581	-0.121880	0.482187	0.500263	0.601775	-0.393825
48717	-9.479112	-0.264895	-2.178192	-0.327695	0.000263	-0.088446	0.482175	0.500322	0.601805	-0.393720
48718	-9.529107	-0.253258	-2.163727	-0.312749	-0.024297	-0.042768	0.482005	0.500580	0.601670	-0.393807
48719	-9.515656	-0.197037	-2.117355	-0.249879	-0.057357	-0.065688	0.481751	0.500929	0.601434	-0.394036
48720	-9.513305	-0.102469	-2.165820	-0.164786	0.005525	-0.056814	0.481476	0.501289	0.601171	-0.394314
48721	-9.485103	0.011568	-2.213124	-0.060820	0.076994	-0.073303	0.481193	0.501676	0.600840	-0.394671
48722	-9.486545	0.089120	-2.284735	0.004333	0.159577	-0.055792	0.480901	0.502075	0.600479	-0.395069
48723	-9.486346	0.130952	-2.314766	0.041314	0.196515	-0.049198	0.480624	0.502483	0.600108	-0.395451
48724	-9.451504	0.182539	-2.374377	0.081731	0.270623	-0.069895	0.480328	0.502915	0.599733	-0.395832
48725	-9.418855	0.225388	-2.410690	0.117900	0.319900	-0.093592	0.480003	0.503350	0.599375	-0.396214
48726	-9.424343	0.198869	-2.412448	0.092548	0.315719	-0.088005	0.479750	0.503722	0.599071	-0.396506
48727	-9.405504	0.184647	-2.425998	0.076107	0.329800	-0.103490	0.479534	0.504037	0.598843	-0.396712
48728	-9.394684	0.137578	-2.416415	0.031162	0.313874	-0.116369	0.479340	0.504307	0.598679	-0.396852
48729	-9.486218	0.106479	-2.421078	0.002648	0.291327	-0.026145	0.479153	0.504570	0.598559	-0.396925
48730	-9.454212	0.106828	-2.358395	0.012223	0.235345	-0.071023	0.478940	0.504855	0.598431	-0.397011
48731	-9.457350	0.141480	-2.260243	0.062170	0.143406	-0.089223	0.478751	0.505132	0.598286	-0.397106
48732	-9.496093	0.115755	-2.185856	0.049034	0.057418	-0.067871	0.478655	0.505357	0.598136	-0.397161
48733	-9.423648	0.056025	-2.246778	-0.023135	0.120630	-0.125521	0.478550	0.505578	0.598013	-0.397192
48734	-9.424179	0.004750	-2.268062	-0.078232	0.130204	-0.120618	0.478355	0.505896	0.597871	-0.397236
48735	-9.391825	-0.001549	-2.326035	-0.095958	0.188129	-0.139414	0.478157	0.506248	0.597756	-0.397199
48736	-9.403503	-0.014329	-2.374253	-0.117357	0.224495	-0.117381	0.477856	0.506709	0.597614	-0.397186
48737	-9.475999	-0.012571	-2.388924	-0.117263	0.216389	-0.043292	0.477453	0.507330	0.597369	-0.397246
48738	-9.370766	0.068563	-2.358354	-0.036902	0.216460	-0.151965	0.477024	0.508019	0.597020	-0.397406
48739	-9.309178	0.142925	-2.352809	0.034047	0.229660	-0.212530	0.476552	0.508759	0.596683	-0.397532
48740	-9.446165	0.187284	-2.353046	0.079624	0.198047	-0.078399	0.476090	0.509475	0.596437	-0.397538
48741	-9.506683	0.187281	-2.423956	0.068414	0.243627	-0.003323	0.475673	0.510118	0.596241	-0.397508
48742	-9.500254	0.249170	-2.439866	0.125394	0.260856	-0.005237	0.475288	0.510675	0.596108	-0.397451
48743	-9.483649	0.317042	-2.388758	0.198346	0.217878	-0.032122	0.475067	0.510999	0.596093	-0.397320
48744	-9.474213	0.316488	-2.305348	0.208878	0.133788	-0.060048	0.475035	0.511028	0.596268	-0.397060
48745	-9.442626	0.222697	-2.302943	0.114871	0.119912	-0.092155	0.475119	0.510888	0.596559	-0.396702
48746	-9.494157	0.140559	-2.279078	0.037564	0.068177	-0.048114	0.475184	0.510787	0.596849	-0.396318
48747	-9.491449	0.097688	-2.326423	-0.013319	0.102627	-0.040345	0.475222	0.510740	0.597094	-0.395964
48748	-9.516450	0.087844	-2.249224	-0.012051	0.016010	-0.033672	0.475219	0.510751	0.597288	-0.395661
48749	-9.485367	0.081441	-2.236291	-0.018247	0.004574	-0.066947	0.475188	0.510775	0.597469	-0.395394
48750	-9.513811	0.054047	-2.183017	-0.036931	-0.062336	-0.051754	0.475145	0.510778	0.597665	-0.395145
48751	-9.554164	0.011960	-2.207211	-0.081615	-0.059147	-0.007392	0.475106	0.510826	0.597774	-0.394965
48752	-9.526275	0.075389	-2.241177	-0.025648	-0.013926	-0.026084	0.475071	0.510886	0.597854	-0.394808
48753	-9.549741	0.064242	-2.234132	-0.035899	-0.031105	-0.004998	0.475049	0.510931	0.597945	-0.394638
48754	-9.564658	0.085270	-2.250426	-0.017670	-0.018272	0.013488	0.474998	0.510973	0.597991	-0.394575
48755	-9.572762	0.051359	-2.229101	-0.047353	-0.047218	0.016088	0.474938	0.511013	0.597989	-0.394600
48756	-9.555579	0.027728	-2.253540	-0.073739	-0.023197	0.004762	0.474884	0.511002	0.597965	-0.394716
48757	-9.520492	0.085805	-2.228383	-0.011732	-0.028314	-0.034555	0.474908	0.510898	0.597945	-0.394852
48758	-9.424159	0.129048	-2.236061	0.028925	0.010908	-0.126076	0.475013	0.510686	0.598005	-0.394909
48759	-9.503551	0.101945	-2.278883	-0.001165	0.032541	-0.039247	0.475125	0.510495	0.598070	-0.394921
48760	-9.508255	0.031284	-2.319346	-0.076289	0.061944	-0.026084	0.475225	0.510339	0.598100	-0.394957
48761	-9.454484	-0.018669	-2.364284	-0.133068	0.112086	-0.068603	0.475219	0.510309	0.598042	-0.395092
48762	-9.456798	0.014281	-2.369305	-0.100357	0.124133	-0.064901	0.475224	0.510308	0.597922	-0.395267
48763	-9.399289	0.076603	-2.366050	-0.039240	0.147050	-0.121065	0.475297	0.510218	0.597862	-0.395388
48764	-9.365751	0.031588	-2.411310	-0.090818	0.193973	-0.143828	0.475331	0.510129	0.597856	-0.395469
48765	-9.474023	0.072419	-2.372465	-0.040619	0.140286	-0.046951	0.475413	0.509967	0.597928	-0.395472
48766	-9.447126	0.090230	-2.406821	-0.028513	0.184365	-0.065159	0.475587	0.509727	0.598030	-0.395419
48767	-9.437358	0.130052	-2.417219	0.008742	0.205518	-0.071985	0.475798	0.509479	0.598120	-0.395348
48768	-9.387328	0.160812	-2.426277	0.035669	0.233204	-0.118414	0.476049	0.509185	0.598258	-0.395216
48769	-9.414182	0.183925	-2.419808	0.059350	0.227099	-0.093582	0.476300	0.508888	0.598403	-0.395077
48770	-9.468952	0.135430	-2.397055	0.015760	0.186683	-0.045898	0.476519	0.508593	0.598632	-0.394845
48771	-9.553297	0.094277	-2.393557	-0.022976	0.158811	0.035040	0.476804	0.508262	0.598832	-0.394624
48772	-9.529178	0.018892	-2.379831	-0.097274	0.141039	0.007691	0.477091	0.507955	0.598981	-0.394445
48773	-9.473530	-0.047309	-2.286266	-0.150744	0.056255	-0.068400	0.477419	0.507621	0.599078	-0.394331
48774	-9.331703	-0.072486	-2.266685	-0.178083	0.069806	-0.211271	0.477764	0.507302	0.599124	-0.394255
48775	-9.332399	-0.123857	-2.317816	-0.238918	0.114257	-0.199616	0.478034	0.507065	0.599186	-0.394138
48776	-9.346992	-0.196909	-2.425191	-0.329995	0.204066	-0.161985	0.478166	0.507023	0.599163	-0.394066
48777	-9.380263	-0.212928	-2.516750	-0.362046	0.282008	-0.109178	0.478172	0.507169	0.599060	-0.394029
48778	-9.339570	-0.098237	-2.618716	-0.268941	0.406858	-0.124703	0.478143	0.507367	0.598925	-0.394014
48779	-9.320494	0.028939	-2.601739	-0.143477	0.414524	-0.145781	0.478155	0.507476	0.598859	-0.393959
48780	-9.318462	0.176755	-2.560918	0.007116	0.399240	-0.155367	0.478226	0.507460	0.598873	-0.393873
48781	-9.370573	0.319501	-2.527526	0.153402	0.378440	-0.110556	0.478328	0.507358	0.598977	-0.393722
48782	-9.409338	0.432611	-2.458357	0.276048	0.320918	-0.087097	0.478461	0.507202	0.599160	-0.393482
