// General information: 
//  MT Manager version: 2021.0.0 
//  XDA version: 2021.0.0 build 5908 rev 109668 built on 2021-04-19
// Device information: 
//  DeviceId: 00B43DED
//  ProductCode: MTW2-3A7G6
//  Firmware Version: 4.3.5
//  Hardware Version: 1.1.0
// Device settings: 
//  Filter Profile: human(46.1)
//  Option Flags: Orientation Smoother Disabled, Position/Velocity Smoother Disabled, Continuous Zero Rotation Update Disabled, AHS Disabled, ICC Disabled
// Coordinate system: ENU
PacketCounter	Acc_X	Acc_Y	Acc_Z	FreeAcc_E	FreeAcc_N	FreeAcc_U	Quat_q0	Quat_q1	Quat_q2	Quat_q3
47597	-9.518306	1.356745	-1.753929	-0.037301	0.012602	-0.039580	-0.383342	-0.675444	-0.362780	0.514991
47598	-9.491841	1.458035	-1.618727	0.001657	-0.153313	-0.075250	-0.382867	-0.675719	-0.362482	0.515193
47599	-9.537374	1.459233	-1.672689	0.016915	-0.113727	-0.021082	-0.382705	-0.675798	-0.362483	0.515209
47600	-9.511993	1.295092	-1.739487	-0.092916	0.019774	-0.057071	-0.382520	-0.675865	-0.362460	0.515273
47601	-9.514376	1.427716	-1.657091	-0.010777	-0.116692	-0.050825	-0.382164	-0.676058	-0.362333	0.515375
47602	-9.527525	1.525154	-1.676933	0.081295	-0.148686	-0.020690	-0.382008	-0.676143	-0.362424	0.515315
47603	-9.458716	1.437621	-1.688536	0.022246	-0.096708	-0.097989	-0.381961	-0.676254	-0.362653	0.515044
47604	-9.563714	1.329392	-1.790098	-0.053610	0.025918	0.007334	-0.381836	-0.676374	-0.362858	0.514834
47605	-9.502051	1.338388	-1.786684	-0.035756	0.019275	-0.052009	-0.381705	-0.676496	-0.363003	0.514668
47606	-9.564606	1.307777	-1.762380	-0.087212	-0.000092	0.000077	-0.381488	-0.676655	-0.363083	0.514564
47607	-9.551915	1.399942	-1.735735	-0.015646	-0.069505	-0.004190	-0.381297	-0.676795	-0.363157	0.514468
47608	-9.547948	1.317976	-1.814512	-0.053971	0.032831	-0.005097	-0.381119	-0.676921	-0.363250	0.514370
47609	-9.526773	1.373760	-1.805057	-0.004973	-0.003294	-0.019587	-0.380930	-0.677040	-0.363309	0.514310
47610	-9.554432	1.302747	-1.895866	-0.034771	0.102660	0.014157	-0.380819	-0.677122	-0.363365	0.514246
47611	-9.553943	1.358283	-1.820565	-0.017918	0.008150	0.007538	-0.380666	-0.677202	-0.363349	0.514265
47612	-9.546792	1.305685	-1.880888	-0.036569	0.084590	0.004405	-0.380618	-0.677212	-0.363368	0.514273
47613	-9.522161	1.346701	-1.809181	-0.025467	0.004517	-0.027105	-0.380532	-0.677250	-0.363293	0.514340
47614	-9.525548	1.315466	-1.891229	-0.018160	0.090936	-0.012960	-0.380402	-0.677335	-0.363118	0.514448
47615	-9.516638	1.389264	-1.819961	0.018639	-0.004370	-0.024513	-0.380238	-0.677421	-0.362895	0.514613
47616	-9.475496	1.408119	-1.692825	-0.010858	-0.121108	-0.085473	-0.380049	-0.677594	-0.362641	0.514705
47617	-9.456247	1.450883	-1.721328	0.041550	-0.114079	-0.092919	-0.379992	-0.677699	-0.362539	0.514681
47618	-9.546577	1.362265	-1.726630	-0.055268	-0.079424	-0.016525	-0.379991	-0.677806	-0.362522	0.514552
47619	-9.527065	1.348762	-1.834548	-0.018981	0.022080	-0.017339	-0.379808	-0.677987	-0.362400	0.514534
47620	-9.474913	1.499496	-1.708928	0.068529	-0.154896	-0.070295	-0.379756	-0.678088	-0.362409	0.514433
47621	-9.511901	1.404150	-1.846258	0.033654	0.003656	-0.022109	-0.379845	-0.678128	-0.362603	0.514179
47622	-9.542359	1.317795	-1.831136	-0.057511	0.023224	-0.007464	-0.379728	-0.678262	-0.362641	0.514061
47623	-9.513113	1.386338	-1.814680	-0.000034	-0.022436	-0.029344	-0.379730	-0.678323	-0.362705	0.513935
47624	-9.540642	1.373274	-1.826495	-0.013739	-0.010912	-0.002208	-0.379737	-0.678354	-0.362814	0.513811
47625	-9.544463	1.392191	-1.819688	-0.001913	-0.027580	0.002886	-0.379781	-0.678355	-0.362908	0.513711
47626	-9.516824	1.400351	-1.799352	0.001270	-0.047880	-0.026662	-0.379854	-0.678343	-0.363085	0.513548
47627	-9.526872	1.368295	-1.835299	-0.014893	-0.003910	-0.014647	-0.379987	-0.678296	-0.363268	0.513382
47628	-9.555328	1.402271	-1.822198	0.002581	-0.034965	0.015326	-0.380031	-0.678274	-0.363390	0.513293
47629	-9.509206	1.397576	-1.839316	0.014900	-0.014285	-0.026939	-0.380092	-0.678251	-0.363556	0.513159
47630	-9.523997	1.329402	-1.876930	-0.032625	0.046981	-0.015064	-0.380125	-0.678233	-0.363681	0.513071
47631	-9.516848	1.333669	-1.858857	-0.035035	0.028910	-0.024819	-0.380138	-0.678208	-0.363751	0.513044
47632	-9.542277	1.342142	-1.840687	-0.040531	0.005789	-0.002343	-0.380089	-0.678236	-0.363724	0.513063
47633	-9.517308	1.381007	-1.836173	-0.002860	-0.013887	-0.021995	-0.380050	-0.678253	-0.363739	0.513058
47634	-9.526874	1.410778	-1.805928	0.008667	-0.055798	-0.014228	-0.379967	-0.678294	-0.363680	0.513108
47635	-9.488207	1.347929	-1.851895	-0.018681	0.017058	-0.051957	-0.379918	-0.678326	-0.363655	0.513119
47636	-9.545387	1.313553	-1.857987	-0.058213	0.031463	-0.000064	-0.379830	-0.678376	-0.363583	0.513169
47637	-9.529131	1.388600	-1.835562	0.002019	-0.021378	-0.009557	-0.379653	-0.678477	-0.363426	0.513279
47638	-9.485042	1.423691	-1.814749	0.033838	-0.051776	-0.051417	-0.379534	-0.678532	-0.363344	0.513350
47639	-9.557475	1.320237	-1.856645	-0.053769	0.023956	0.012384	-0.379424	-0.678579	-0.363284	0.513412
47640	-9.560638	1.398360	-1.849551	0.012366	-0.018158	0.025074	-0.379319	-0.678594	-0.363146	0.513567
47641	-9.491052	1.324130	-1.879653	-0.023654	0.051092	-0.047273	-0.379317	-0.678536	-0.363095	0.513682
47642	-9.538642	1.366729	-1.892012	0.011229	0.039289	0.007276	-0.379236	-0.678504	-0.362962	0.513879
47643	-9.526200	1.421492	-1.826864	0.036653	-0.039472	-0.009440	-0.379289	-0.678371	-0.362937	0.514031
47644	-9.445708	1.389643	-1.767523	0.002284	-0.066102	-0.103297	-0.379314	-0.678299	-0.362867	0.514158
47645	-9.546776	1.272865	-1.815692	-0.099502	0.021239	-0.012305	-0.379341	-0.678257	-0.362817	0.514229
47646	-9.511306	1.398665	-1.764331	-0.002456	-0.076345	-0.038833	-0.379307	-0.678228	-0.362743	0.514345
47647	-9.514316	1.376506	-1.790151	-0.010137	-0.041876	-0.034152	-0.379408	-0.678123	-0.362749	0.514404
47648	-9.543880	1.355991	-1.784112	-0.035406	-0.039056	-0.009390	-0.379394	-0.678066	-0.362723	0.514508
47649	-9.564531	1.352451	-1.785176	-0.040639	-0.037010	0.010408	-0.379357	-0.678036	-0.362602	0.514659
47650	-9.487202	1.444059	-1.762979	0.048303	-0.087722	-0.056132	-0.379469	-0.677895	-0.362596	0.514767
47651	-9.519323	1.300178	-1.818336	-0.058920	0.026330	-0.034643	-0.379487	-0.677810	-0.362559	0.514893
47652	-9.483147	1.435257	-1.712384	0.023103	-0.123178	-0.070686	-0.379596	-0.677718	-0.362584	0.514915
47653	-9.524135	1.221382	-1.772977	-0.146784	0.025637	-0.049380	-0.379685	-0.677654	-0.362596	0.514926
47654	-9.530701	1.370337	-1.813769	-0.000071	-0.006567	-0.014637	-0.379649	-0.677707	-0.362563	0.514906
47655	-9.543703	1.372336	-1.798241	-0.008353	-0.022454	-0.004595	-0.379691	-0.677701	-0.362540	0.514899
47656	-9.537849	1.314525	-1.843058	-0.038529	0.045329	-0.010042	-0.379676	-0.677693	-0.362437	0.514993
47657	-9.527156	1.247199	-1.842115	-0.094993	0.077917	-0.030024	-0.379565	-0.677740	-0.362230	0.515159
47658	-9.533020	1.461051	-1.750190	0.052791	-0.100569	-0.011494	-0.379412	-0.677825	-0.361998	0.515322
47659	-9.523197	1.387489	-1.736394	-0.015365	-0.076787	-0.033866	-0.379481	-0.677783	-0.361956	0.515356
47660	-9.526481	1.312344	-1.773321	-0.065640	-0.008176	-0.034325	-0.379477	-0.677764	-0.361858	0.515453
47661	-9.513529	1.413132	-1.753738	0.017438	-0.069013	-0.036456	-0.379413	-0.677812	-0.361711	0.515540
47662	-9.505855	1.469152	-1.790946	0.084177	-0.060680	-0.029211	-0.379372	-0.677848	-0.361653	0.515563
47663	-9.516972	1.385454	-1.769005	-0.001198	-0.043203	-0.034153	-0.379324	-0.677882	-0.361642	0.515561
47664	-9.534731	1.350952	-1.755563	-0.040776	-0.041829	-0.024186	-0.379239	-0.677918	-0.361599	0.515607
47665	-9.525716	1.367481	-1.763574	-0.020158	-0.042767	-0.029170	-0.379026	-0.678013	-0.361517	0.515697
47666	-9.535176	1.395923	-1.734270	-0.008562	-0.084706	-0.021434	-0.378816	-0.678094	-0.361455	0.515788
47667	-9.529932	1.382587	-1.757479	-0.007616	-0.059552	-0.024109	-0.378656	-0.678134	-0.361451	0.515857
47668	-9.550525	1.324313	-1.772312	-0.055413	-0.023465	-0.009433	-0.378648	-0.678100	-0.361581	0.515814
47669	-9.582654	1.322026	-1.907159	-0.004453	0.092386	0.046507	-0.378613	-0.678056	-0.361630	0.515864
47670	-9.548766	1.329664	-1.931200	0.022235	0.114568	0.019039	-0.378616	-0.677936	-0.361607	0.516036
47671	-9.512032	1.374119	-1.737976	-0.011221	-0.070604	-0.046296	-0.378435	-0.677914	-0.361436	0.516317
47672	-9.496545	1.390955	-1.791235	0.032955	-0.028910	-0.049198	-0.378333	-0.677895	-0.361386	0.516452
47673	-9.456954	1.446750	-1.694283	0.049318	-0.136366	-0.097924	-0.378254	-0.677932	-0.361356	0.516482
47674	-9.522056	1.303116	-1.673419	-0.098917	-0.096377	-0.058256	-0.378243	-0.677929	-0.361449	0.516429
47675	-9.550052	1.384132	-1.783354	0.014504	-0.040539	0.000458	-0.378252	-0.677888	-0.361529	0.516421
47676	-9.488839	1.348818	-1.731656	-0.025636	-0.064911	-0.073533	-0.378159	-0.677928	-0.361578	0.516401
47677	-9.472485	1.370195	-1.722102	-0.008108	-0.083778	-0.088287	-0.378209	-0.677933	-0.361756	0.516234
47678	-9.564780	1.362465	-1.801870	-0.000732	-0.021965	0.015211	-0.378287	-0.677922	-0.361999	0.516020
47679	-9.500172	1.347936	-1.791174	-0.006103	-0.020519	-0.051640	-0.378401	-0.677878	-0.362248	0.515820
47680	-9.565970	1.239953	-1.869708	-0.081540	0.089086	0.012102	-0.378389	-0.677909	-0.362386	0.515692
47681	-9.509656	1.315571	-1.830547	-0.021630	0.023231	-0.039552	-0.378360	-0.677973	-0.362445	0.515587
47682	-9.506380	1.339067	-1.805030	-0.012920	-0.011469	-0.044259	-0.378413	-0.677998	-0.362533	0.515454
47683	-9.569221	1.308603	-1.843689	-0.037473	0.029547	0.019878	-0.378637	-0.677892	-0.362749	0.515276
47684	-9.519261	1.233064	-1.879086	-0.079287	0.100894	-0.032540	-0.378735	-0.677855	-0.362818	0.515204
47685	-9.508752	1.367981	-1.811082	0.011647	-0.019847	-0.036838	-0.378662	-0.677907	-0.362753	0.515235
47686	-9.517641	1.354470	-1.738185	-0.034485	-0.079667	-0.043663	-0.378710	-0.677948	-0.362795	0.515117
47687	-9.534629	1.375349	-1.715197	-0.031415	-0.112137	-0.028564	-0.378756	-0.677976	-0.362845	0.515010
47688	-9.534980	1.468771	-1.736549	0.057928	-0.137019	-0.011330	-0.378954	-0.677915	-0.363084	0.514777
47689	-9.526203	1.323576	-1.844652	-0.022836	0.024646	-0.019730	-0.379095	-0.677847	-0.363320	0.514596
47690	-9.523199	1.346279	-1.818303	-0.014095	-0.010029	-0.024444	-0.379122	-0.677825	-0.363450	0.514513
47691	-9.519003	1.274235	-1.839314	-0.067690	0.040469	-0.034551	-0.379097	-0.677836	-0.363510	0.514474
47692	-9.522475	1.399481	-1.809876	0.029522	-0.044173	-0.019379	-0.379089	-0.677807	-0.363610	0.514449
47693	-9.543932	1.279332	-1.889191	-0.045864	0.077758	-0.000235	-0.379150	-0.677740	-0.363729	0.514408
47694	-9.535763	1.343559	-1.871866	0.005784	0.034276	-0.002560	-0.379171	-0.677676	-0.363769	0.514449
47695	-9.535404	1.296231	-1.894265	-0.024795	0.076757	-0.005247	-0.379208	-0.677602	-0.363766	0.514520
47696	-9.506574	1.372505	-1.819077	0.017522	-0.020754	-0.036849	-0.379048	-0.677654	-0.363642	0.514657
47697	-9.547321	1.421525	-1.746770	0.022666	-0.110999	-0.003995	-0.379010	-0.677620	-0.363600	0.514760
47698	-9.529085	1.253965	-1.828542	-0.084180	0.040586	-0.029502	-0.379019	-0.677561	-0.363600	0.514831
47699	-9.524388	1.342358	-1.814969	-0.009595	-0.010935	-0.024439	-0.378834	-0.677611	-0.363478	0.514986
47700	-9.515356	1.412419	-1.810589	0.053682	-0.045863	-0.024420	-0.378821	-0.677565	-0.363491	0.515048
47701	-9.531565	1.236021	-1.866689	-0.079112	0.083406	-0.022397	-0.378843	-0.677499	-0.363491	0.515118
47702	-9.538564	1.341818	-1.795316	-0.016790	-0.027237	-0.014380	-0.378795	-0.677480	-0.363380	0.515257
47703	-9.558172	1.345105	-1.809531	-0.010314	-0.016570	0.007801	-0.378826	-0.677408	-0.363366	0.515338
47704	-9.521952	1.322752	-1.815072	-0.018267	0.004955	-0.029468	-0.378949	-0.677255	-0.363361	0.515454
47705	-9.507923	1.281145	-1.863551	-0.028411	0.071970	-0.039829	-0.378940	-0.677153	-0.363224	0.515690
47706	-9.554407	1.341973	-1.766056	-0.023368	-0.043490	-0.004318	-0.378877	-0.677098	-0.363060	0.515924
47707	-9.572526	1.358199	-1.804149	0.006383	-0.015648	0.022587	-0.378922	-0.676977	-0.362945	0.516131
47708	-9.462617	1.344235	-1.815583	0.024086	0.015240	-0.084192	-0.378806	-0.676980	-0.362746	0.516352
47709	-9.488152	1.409293	-1.717432	0.034640	-0.102437	-0.068509	-0.378765	-0.677021	-0.362624	0.516413
47710	-9.534636	1.308063	-1.722050	-0.061767	-0.055441	-0.036242	-0.378830	-0.676973	-0.362590	0.516452
47711	-9.584639	1.329867	-1.762726	-0.034794	-0.032621	0.022900	-0.378899	-0.676908	-0.362558	0.516510
47712	-9.556056	1.295074	-1.841917	-0.024505	0.058757	0.004849	-0.378989	-0.676824	-0.362495	0.516597
47713	-9.552286	1.278130	-1.847319	-0.035336	0.075273	-0.000172	-0.379123	-0.676707	-0.362426	0.516701
47714	-9.551626	1.241135	-1.812499	-0.080971	0.065928	-0.012268	-0.379122	-0.676638	-0.362190	0.516958
47715	-9.520169	1.341179	-1.705576	-0.030659	-0.066213	-0.048669	-0.379139	-0.676567	-0.361939	0.517215
47716	-9.521488	1.389435	-1.676385	0.000908	-0.108990	-0.046028	-0.379288	-0.676408	-0.361832	0.517388
47717	-9.541156	1.347131	-1.710233	-0.023727	-0.055743	-0.026491	-0.379578	-0.676167	-0.361828	0.517493
47718	-9.525884	1.369896	-1.693136	-0.006274	-0.074696	-0.041292	-0.379666	-0.676059	-0.361747	0.517626
47719	-9.519674	1.520230	-1.680372	0.122554	-0.151626	-0.028980	-0.379730	-0.676001	-0.361756	0.517649
47720	-9.536693	1.394327	-1.645378	-0.006008	-0.125374	-0.035971	-0.379836	-0.675903	-0.361849	0.517634
47721	-9.541999	1.304734	-1.657410	-0.079563	-0.074029	-0.040928	-0.379746	-0.675915	-0.361832	0.517697
47722	-9.523755	1.392126	-1.661206	0.003748	-0.109758	-0.046037	-0.379648	-0.675930	-0.361833	0.517748
47723	-9.508296	1.356421	-1.727779	0.005231	-0.034220	-0.054019	-0.379663	-0.675892	-0.361965	0.517694
47724	-9.527027	1.312291	-1.768608	-0.019295	0.019059	-0.034468	-0.379727	-0.675832	-0.362137	0.517606
47725	-9.554686	1.250619	-1.802434	-0.063965	0.073032	-0.009861	-0.379651	-0.675843	-0.362191	0.517609
47726	-9.548124	1.401330	-1.726146	0.038226	-0.064428	-0.009404	-0.379436	-0.675912	-0.362128	0.517721
47727	-9.518465	1.375630	-1.687934	0.006665	-0.085370	-0.048706	-0.379320	-0.675935	-0.362162	0.517752
47728	-9.510491	1.384276	-1.683541	0.015691	-0.094883	-0.056114	-0.379060	-0.676015	-0.362145	0.517849
47729	-9.529750	1.387584	-1.634805	-0.004515	-0.144676	-0.045745	-0.378832	-0.676089	-0.362172	0.517901
47730	-9.526696	1.303715	-1.711445	-0.042898	-0.042325	-0.046264	-0.378607	-0.676177	-0.362267	0.517884
47731	-9.554265	1.337678	-1.780776	0.012978	-0.004534	-0.002268	-0.378273	-0.676307	-0.362301	0.517935
47732	-9.567216	1.335212	-1.768603	0.004686	-0.020547	0.007797	-0.377998	-0.676411	-0.362356	0.517961
47733	-9.551787	1.242968	-1.848223	-0.036513	0.089057	-0.005126	-0.377656	-0.676533	-0.362335	0.518066
47734	-9.542833	1.259065	-1.791515	-0.042698	0.027627	-0.021985	-0.377091	-0.676798	-0.362094	0.518301
47735	-9.550093	1.354630	-1.713145	0.008020	-0.091580	-0.016478	-0.376532	-0.677067	-0.361857	0.518520
47736	-9.532225	1.233598	-1.708309	-0.094460	-0.043081	-0.050894	-0.376049	-0.677302	-0.361651	0.518708
47737	-9.547613	1.262713	-1.713387	-0.068138	-0.058500	-0.031124	-0.375604	-0.677530	-0.361498	0.518840
47738	-9.542289	1.346115	-1.772522	0.033155	-0.049635	-0.014444	-0.375232	-0.677720	-0.361412	0.518920
47739	-9.547689	1.244612	-1.841578	-0.025315	0.053520	-0.009865	-0.374988	-0.677827	-0.361399	0.518966
47740	-9.525794	1.207510	-1.810744	-0.065387	0.042040	-0.041731	-0.374538	-0.678044	-0.361203	0.519144
47741	-9.541904	1.284146	-1.792256	-0.007989	-0.015953	-0.019382	-0.374056	-0.678298	-0.360957	0.519331
47742	-9.539898	1.297999	-1.754670	-0.010876	-0.059295	-0.026489	-0.373705	-0.678486	-0.360807	0.519441
47743	-9.537117	1.265140	-1.740288	-0.044956	-0.060004	-0.036177	-0.373403	-0.678671	-0.360695	0.519495
47744	-9.538529	1.250974	-1.717735	-0.067648	-0.077315	-0.040864	-0.373113	-0.678860	-0.360616	0.519511
47745	-9.547104	1.330048	-1.748696	0.013269	-0.092940	-0.016497	-0.372795	-0.679053	-0.360572	0.519519
47746	-9.537608	1.403356	-1.683410	0.049855	-0.188321	-0.028451	-0.372625	-0.679176	-0.360631	0.519438
47747	-9.574024	1.256722	-1.842333	-0.015749	0.012786	0.017627	-0.372778	-0.679092	-0.360947	0.519218
47748	-9.592404	1.367857	-1.840582	0.076232	-0.044620	0.049624	-0.372933	-0.678995	-0.361233	0.519035
47749	-9.577453	1.273376	-1.902647	0.023339	0.056375	0.034415	-0.373479	-0.678670	-0.361709	0.518736
47750	-9.568346	1.195128	-1.874397	-0.056539	0.071586	0.010073	-0.373800	-0.678476	-0.361939	0.518598
47751	-9.539430	1.217469	-1.876328	-0.030291	0.068488	-0.014833	-0.374050	-0.678294	-0.362092	0.518550
47752	-9.529013	1.306569	-1.829463	0.029603	-0.009721	-0.022122	-0.374354	-0.678089	-0.362218	0.518510
47753	-9.555399	1.265872	-1.751024	-0.045126	-0.059366	-0.016331	-0.374460	-0.677986	-0.362239	0.518554
47754	-9.538919	1.351713	-1.672639	-0.000073	-0.164154	-0.035731	-0.374657	-0.677826	-0.362366	0.518532
47755	-9.515379	1.270819	-1.807188	-0.006201	-0.003567	-0.044203	-0.374875	-0.677643	-0.362542	0.518490
47756	-9.525248	1.300902	-1.775363	0.005372	-0.045554	-0.036568	-0.374901	-0.677578	-0.362639	0.518488
47757	-9.508058	1.283758	-1.732937	-0.023379	-0.073731	-0.063416	-0.374910	-0.677501	-0.362795	0.518474
47758	-9.529139	1.269138	-1.790403	-0.013325	-0.019898	-0.034130	-0.374801	-0.677484	-0.362861	0.518529
47759	-9.497544	1.309992	-1.767641	0.020962	-0.057681	-0.063831	-0.374652	-0.677490	-0.362948	0.518567
47760	-9.532672	1.289080	-1.797425	0.010578	-0.028297	-0.026810	-0.374581	-0.677455	-0.363151	0.518522
47761	-9.531320	1.195071	-1.779153	-0.077745	-0.003638	-0.043676	-0.374514	-0.677416	-0.363348	0.518483
47762	-9.491754	1.192016	-1.762595	-0.077679	-0.016671	-0.085677	-0.374214	-0.677503	-0.363447	0.518517
47763	-9.550890	1.292339	-1.768514	0.003165	-0.069800	-0.014095	-0.373974	-0.677573	-0.363615	0.518481
47764	-9.537383	1.233988	-1.799105	-0.030233	-0.020104	-0.029035	-0.373769	-0.677624	-0.363829	0.518412
47765	-9.501945	1.248609	-1.775828	-0.018790	-0.049760	-0.066061	-0.373435	-0.677748	-0.363961	0.518398
47766	-9.516164	1.283160	-1.796319	0.019224	-0.056537	-0.044009	-0.373104	-0.677889	-0.364135	0.518329
47767	-9.535841	1.221741	-1.815564	-0.028461	-0.020581	-0.029031	-0.372833	-0.677964	-0.364364	0.518266
47768	-9.591602	1.296904	-1.818112	0.029442	-0.065635	0.035213	-0.372696	-0.677953	-0.364677	0.518159
47769	-9.566569	1.104325	-1.978895	-0.062029	0.163001	0.017083	-0.372607	-0.677916	-0.364919	0.518101
47770	-9.562523	1.086014	-1.923057	-0.099528	0.118962	0.000332	-0.372299	-0.678016	-0.364908	0.518199
47771	-9.543071	1.251129	-1.824018	0.007971	-0.045862	-0.016749	-0.372090	-0.678066	-0.364918	0.518277
47772	-9.560761	1.214571	-1.811101	-0.031561	-0.044507	-0.006544	-0.371988	-0.678078	-0.364975	0.518293
47773	-9.544433	1.232195	-1.866980	0.012648	-0.003021	-0.009629	-0.372053	-0.677998	-0.365135	0.518239
47774	-9.546277	1.164482	-1.851875	-0.052674	0.013597	-0.019123	-0.371917	-0.678033	-0.365167	0.518269
47775	-9.539666	1.329006	-1.803281	0.072799	-0.106626	-0.014390	-0.371788	-0.678064	-0.365164	0.518322
47776	-9.572959	1.217835	-1.811828	-0.026408	-0.052501	0.005863	-0.371722	-0.678068	-0.365192	0.518344
47777	-9.523552	1.133272	-1.833584	-0.080100	0.010285	-0.048577	-0.371628	-0.678074	-0.365225	0.518381
47778	-9.534984	1.199654	-1.834690	-0.022349	-0.022489	-0.029019	-0.371459	-0.678131	-0.365198	0.518446
47779	-9.495920	1.189232	-1.870227	-0.007210	0.016299	-0.061574	-0.371430	-0.678117	-0.365290	0.518420
47780	-9.528051	1.085015	-1.892066	-0.094722	0.079051	-0.038962	-0.371365	-0.678138	-0.365305	0.518429
47781	-9.583949	1.226992	-1.827188	-0.009150	-0.051913	0.020594	-0.371122	-0.678266	-0.365181	0.518523
47782	-9.557942	1.281437	-1.782759	0.024891	-0.114847	-0.006528	-0.371091	-0.678257	-0.365226	0.518526
47783	-9.567538	1.203814	-1.773272	-0.048920	-0.088848	-0.008548	-0.371125	-0.678235	-0.365313	0.518469
47784	-9.496795	1.183846	-1.795423	-0.042659	-0.053587	-0.075672	-0.371026	-0.678280	-0.365363	0.518445
47785	-9.473455	1.259791	-1.823389	0.041050	-0.064056	-0.083742	-0.370950	-0.678310	-0.365445	0.518403
47786	-9.548794	1.300013	-1.729616	0.020608	-0.176765	-0.023438	-0.370879	-0.678325	-0.365641	0.518295
47787	-9.512690	1.142804	-1.855947	-0.054379	0.007861	-0.053651	-0.370927	-0.678268	-0.365945	0.518122
47788	-9.514551	1.118335	-1.887064	-0.061904	0.042322	-0.048838	-0.370709	-0.678353	-0.366050	0.518092
47789	-9.570667	1.249122	-1.878510	0.038850	-0.036876	0.020110	-0.370576	-0.678399	-0.366190	0.518029
47790	-9.541916	1.090636	-1.956728	-0.059640	0.105251	-0.012086	-0.370464	-0.678445	-0.366282	0.517983
47791	-9.563791	1.136229	-1.872168	-0.060296	0.004148	-0.001547	-0.370231	-0.678545	-0.366264	0.518031
47792	-9.538053	1.243544	-1.818801	0.016414	-0.092777	-0.023918	-0.370001	-0.678657	-0.366215	0.518083
47793	-9.477117	1.198546	-1.821283	-0.009061	-0.065363	-0.088235	-0.369882	-0.678688	-0.366290	0.518075
47794	-9.505048	1.172568	-1.886858	-0.007327	-0.002214	-0.051488	-0.369659	-0.678770	-0.366332	0.518097
47795	-9.582230	1.249582	-1.823944	0.018476	-0.105704	0.020718	-0.369502	-0.678829	-0.366377	0.518099
47796	-9.515533	1.065538	-1.975900	-0.062013	0.118676	-0.036850	-0.369429	-0.678832	-0.366471	0.518082
47797	-9.550367	1.172517	-1.877678	-0.016932	-0.023718	-0.009161	-0.369210	-0.678906	-0.366435	0.518166
47798	-9.550171	1.107785	-1.942686	-0.043932	0.061899	-0.004466	-0.369206	-0.678886	-0.366500	0.518149
47799	-9.541173	1.134365	-1.896337	-0.038310	0.009083	-0.019051	-0.369034	-0.678946	-0.366409	0.518258
47800	-9.501994	1.197748	-1.813348	-0.010701	-0.089811	-0.065763	-0.368840	-0.679047	-0.366287	0.518350
47801	-9.510701	1.179618	-1.807382	-0.030164	-0.089229	-0.060627	-0.368669	-0.679124	-0.366236	0.518407
47802	-9.539737	1.211797	-1.795323	-0.012497	-0.120493	-0.030891	-0.368504	-0.679215	-0.366218	0.518417
47803	-9.602657	1.285614	-1.815037	0.048776	-0.147740	0.042970	-0.368419	-0.679253	-0.366286	0.518379
47804	-9.580696	1.103834	-2.018053	-0.016335	0.116118	0.039570	-0.368466	-0.679214	-0.366415	0.518307
47805	-9.565825	1.065055	-2.003321	-0.053221	0.122520	0.017613	-0.368323	-0.679262	-0.366298	0.518427
47806	-9.540403	1.120111	-1.957266	-0.019249	0.059548	-0.009580	-0.368151	-0.679348	-0.366085	0.518587
47807	-9.508278	1.180356	-1.891420	0.011598	-0.021335	-0.046548	-0.368115	-0.679350	-0.365938	0.518714
47808	-9.543882	1.111632	-1.861047	-0.067978	-0.018536	-0.025965	-0.368043	-0.679364	-0.365826	0.518825
47809	-9.520619	1.145037	-1.842072	-0.042103	-0.046794	-0.048336	-0.367960	-0.679430	-0.365609	0.518952
47810	-9.540104	1.203089	-1.847241	0.007283	-0.070213	-0.021450	-0.367958	-0.679431	-0.365494	0.519033
47811	-9.537866	1.163150	-1.882305	-0.011688	-0.019166	-0.021550	-0.367957	-0.679446	-0.365411	0.519071
47812	-9.526340	1.160234	-1.817558	-0.040723	-0.072539	-0.045708	-0.367855	-0.679512	-0.365279	0.519150
47813	-9.534575	1.257796	-1.803460	0.036941	-0.131352	-0.028822	-0.367813	-0.679534	-0.365188	0.519215
47814	-9.516398	1.121142	-1.901052	-0.035366	0.020811	-0.043803	-0.367816	-0.679522	-0.365198	0.519222
47815	-9.519622	1.155933	-1.852215	-0.026933	-0.039203	-0.046019	-0.367643	-0.679616	-0.365081	0.519305
47816	-9.543409	1.230705	-1.850947	0.033854	-0.079249	-0.014225	-0.367577	-0.679630	-0.365076	0.519336
47817	-9.542995	1.186231	-1.807413	-0.023378	-0.097263	-0.028382	-0.367462	-0.679657	-0.365061	0.519392
47818	-9.544162	1.168550	-1.849146	-0.019295	-0.054227	-0.021233	-0.367292	-0.679715	-0.365045	0.519447
47819	-9.612651	1.199903	-1.856005	-0.000919	-0.072642	0.050492	-0.367189	-0.679728	-0.365046	0.519503
47820	-9.514160	1.193602	-1.867389	0.019103	-0.048807	-0.043945	-0.367175	-0.679692	-0.365092	0.519528
47821	-9.523547	1.155663	-1.967135	0.029902	0.055401	-0.019875	-0.367246	-0.679584	-0.365198	0.519545
47822	-9.571020	1.143855	-1.991100	0.022702	0.077400	0.029609	-0.367284	-0.679491	-0.365231	0.519616
47823	-9.532118	1.090134	-1.978431	-0.020003	0.098334	-0.017087	-0.367327	-0.679368	-0.365199	0.519769
47824	-9.533978	1.147541	-1.897781	-0.003363	0.003762	-0.024167	-0.367333	-0.679277	-0.365075	0.519971
47825	-9.542116	1.156710	-1.792000	-0.041426	-0.090681	-0.035608	-0.367369	-0.679164	-0.365008	0.520140
47826	-9.525895	1.194984	-1.735860	-0.027454	-0.152822	-0.057701	-0.367467	-0.679029	-0.365008	0.520247
47827	-9.526690	1.185076	-1.786744	-0.011667	-0.101219	-0.048247	-0.367587	-0.678892	-0.365083	0.520289
47828	-9.542691	1.163113	-1.796702	-0.027868	-0.082714	-0.033306	-0.367596	-0.678821	-0.365131	0.520341
47829	-9.565636	1.190551	-1.816407	0.001844	-0.080240	-0.003932	-0.367764	-0.678668	-0.365314	0.520294
47830	-9.542506	1.159274	-1.861057	0.000087	-0.022758	-0.021551	-0.367922	-0.678504	-0.365517	0.520252
47831	-9.536955	1.157346	-1.827512	-0.014104	-0.049579	-0.033622	-0.368078	-0.678355	-0.365694	0.520212
47832	-9.542991	1.159506	-1.858425	0.001342	-0.023203	-0.021552	-0.368227	-0.678223	-0.365851	0.520168
47833	-9.563440	1.156044	-1.860188	-0.003548	-0.021262	-0.001691	-0.368350	-0.678074	-0.365999	0.520172
47834	-9.575303	1.106246	-1.932100	-0.016028	0.065780	0.017807	-0.368581	-0.677874	-0.366148	0.520164
47835	-9.526147	1.086730	-1.886089	-0.042217	0.042710	-0.041189	-0.368609	-0.677773	-0.366142	0.520281
47836	-9.529948	1.121348	-1.833662	-0.033729	-0.017350	-0.043439	-0.368695	-0.677654	-0.366118	0.520390
47837	-9.541548	1.145571	-1.786787	-0.033506	-0.068012	-0.038214	-0.368726	-0.677573	-0.366019	0.520544
47838	-9.517392	1.131169	-1.789088	-0.038717	-0.053723	-0.062982	-0.368732	-0.677513	-0.365928	0.520682
47839	-9.549455	1.141249	-1.800102	-0.028995	-0.050404	-0.028439	-0.368633	-0.677488	-0.365795	0.520878
47840	-9.595778	1.263006	-1.709092	0.030827	-0.191414	0.013683	-0.368524	-0.677478	-0.365714	0.521025
47841	-9.535425	1.218440	-1.708111	0.005223	-0.164005	-0.050534	-0.368490	-0.677407	-0.365737	0.521125
47842	-9.541414	1.164978	-1.749469	-0.022063	-0.103576	-0.043083	-0.368366	-0.677399	-0.365744	0.521218
47843	-9.555620	1.207653	-1.777801	0.027770	-0.101820	-0.018927	-0.368190	-0.677396	-0.365771	0.521328
47844	-9.525681	1.178139	-1.805559	0.022791	-0.062198	-0.046303	-0.368053	-0.677368	-0.365870	0.521391
47845	-9.517335	1.142136	-1.756830	-0.026032	-0.089608	-0.067849	-0.367878	-0.677365	-0.365973	0.521446
47846	-9.556795	1.138209	-1.778018	-0.024681	-0.076990	-0.025826	-0.367699	-0.677356	-0.366119	0.521482
47847	-9.587027	1.161406	-1.753051	-0.018367	-0.116930	0.001544	-0.367530	-0.677345	-0.366296	0.521491
47848	-9.532448	1.106403	-1.841721	-0.014100	-0.011009	-0.041131	-0.367379	-0.677323	-0.366486	0.521493
47849	-9.550608	1.175793	-1.810171	0.032005	-0.077668	-0.021556	-0.367121	-0.677362	-0.366629	0.521523
47850	-9.575286	1.122697	-1.871088	0.010941	-0.006549	0.008074	-0.366987	-0.677313	-0.366840	0.521532
47851	-9.485161	1.042588	-1.887190	-0.031970	0.052078	-0.085765	-0.366790	-0.677304	-0.366989	0.521578
47852	-9.581519	1.066954	-1.849770	-0.042416	-0.006774	0.003814	-0.366627	-0.677290	-0.367113	0.521623
47853	-9.548010	1.002720	-1.927087	-0.055260	0.092650	-0.021264	-0.366534	-0.677241	-0.367225	0.521673
47854	-9.584104	1.039260	-1.878261	-0.049186	0.027470	0.008707	-0.366484	-0.677179	-0.367291	0.521743
47855	-9.564248	1.041448	-1.874293	-0.043026	0.025212	-0.011159	-0.366391	-0.677157	-0.367255	0.521861
47856	-9.539442	1.149820	-1.818439	0.033754	-0.071674	-0.033961	-0.366250	-0.677175	-0.367171	0.521997
47857	-9.547042	1.083922	-1.833306	-0.016712	-0.028546	-0.031030	-0.366192	-0.677137	-0.367162	0.522093
47858	-9.573435	1.145126	-1.804483	0.020967	-0.085851	-0.004001	-0.366062	-0.677154	-0.367124	0.522189
47859	-9.505857	1.105105	-1.785623	-0.008061	-0.076258	-0.077948	-0.365982	-0.677127	-0.367155	0.522258
47860	-9.545935	1.106444	-1.738732	-0.033523	-0.123977	-0.047659	-0.365841	-0.677153	-0.367185	0.522302
47861	-9.545236	1.101127	-1.806984	-0.006237	-0.063624	-0.035923	-0.365790	-0.677131	-0.367299	0.522287
47862	-9.552411	1.034963	-1.823951	-0.056845	-0.020370	-0.032971	-0.365681	-0.677158	-0.367337	0.522300
47863	-9.536116	1.051365	-1.880660	-0.012737	0.021257	-0.036228	-0.365450	-0.677232	-0.367292	0.522399
47864	-9.532158	1.148880	-1.817525	0.046875	-0.082026	-0.041483	-0.365207	-0.677325	-0.367247	0.522479
47865	-9.530568	1.099299	-1.842252	0.016301	-0.039519	-0.043745	-0.365071	-0.677348	-0.367310	0.522500
47866	-9.558397	1.083004	-1.852764	0.003000	-0.028149	-0.016373	-0.364964	-0.677357	-0.367369	0.522522
47867	-9.583564	1.035880	-1.845060	-0.044912	-0.017390	0.001571	-0.364850	-0.677370	-0.367394	0.522567
47868	-9.511723	1.031572	-1.825572	-0.042581	-0.025157	-0.072703	-0.364729	-0.677386	-0.367386	0.522636
47869	-9.550792	1.039746	-1.792080	-0.056404	-0.064261	-0.040127	-0.364574	-0.677448	-0.367338	0.522698
47870	-9.561116	1.058794	-1.817118	-0.029633	-0.054386	-0.023200	-0.364436	-0.677506	-0.367331	0.522723
47871	-9.585691	1.073068	-1.813178	-0.023090	-0.069053	0.001550	-0.364414	-0.677516	-0.367378	0.522694
47872	-9.530527	1.021635	-1.900289	-0.018886	0.036941	-0.041093	-0.364350	-0.677558	-0.367359	0.522696
47873	-9.568108	1.097499	-1.883551	0.033418	-0.019003	0.000543	-0.364268	-0.677576	-0.367360	0.522730
47874	-9.587657	1.039791	-1.896700	-0.014121	0.016979	0.015909	-0.364222	-0.677591	-0.367314	0.522775
47875	-9.532556	1.073040	-1.811729	-0.012490	-0.066495	-0.050576	-0.364141	-0.677628	-0.367257	0.522822
47876	-9.525648	1.077819	-1.793254	-0.014994	-0.084591	-0.060352	-0.364088	-0.677653	-0.367244	0.522836
47877	-9.589587	1.091830	-1.808351	-0.007708	-0.086404	0.006421	-0.364043	-0.677677	-0.367246	0.522836
47878	-9.547849	1.041158	-1.879292	-0.012256	0.003723	-0.026114	-0.364004	-0.677685	-0.367265	0.522839
47879	-9.540938	1.045673	-1.860988	-0.014859	-0.014346	-0.035889	-0.363896	-0.677742	-0.367201	0.522886
47880	-9.562275	1.099792	-1.788332	-0.003569	-0.106827	-0.023237	-0.363823	-0.677763	-0.367198	0.522912
47881	-9.531744	1.073136	-1.815937	-0.008577	-0.067160	-0.050576	-0.363810	-0.677771	-0.367218	0.522896
47882	-9.551696	1.069637	-1.820101	-0.013360	-0.065168	-0.030696	-0.363730	-0.677809	-0.367215	0.522904
47883	-9.562924	1.083183	-1.831728	0.001861	-0.063911	-0.016059	-0.363720	-0.677801	-0.367285	0.522872
47884	-9.554423	1.040194	-1.836508	-0.031853	-0.039387	-0.028046	-0.363685	-0.677818	-0.367314	0.522854
47885	-9.548156	1.088603	-1.862827	0.023395	-0.039627	-0.023901	-0.363657	-0.677835	-0.367351	0.522826
47886	-9.569057	1.078635	-1.854025	0.006974	-0.046213	-0.006285	-0.363640	-0.677830	-0.367423	0.522793
47887	-9.527045	1.038386	-1.871241	-0.012648	-0.007861	-0.048254	-0.363625	-0.677843	-0.367430	0.522782
47888	-9.562327	1.023641	-1.833060	-0.049376	-0.038950	-0.022789	-0.363595	-0.677869	-0.367421	0.522775
47889	-9.574740	1.021184	-1.884738	-0.030632	0.005547	-0.000973	-0.363565	-0.677884	-0.367388	0.522800
47890	-9.552386	1.048398	-1.854098	-0.016389	-0.031160	-0.025775	-0.363554	-0.677896	-0.367346	0.522822
47891	-9.524364	1.063805	-1.845202	-0.001955	-0.042682	-0.053172	-0.363522	-0.677931	-0.367290	0.522838
47892	-9.534440	1.095045	-1.815527	0.009768	-0.084604	-0.045725	-0.363529	-0.677944	-0.367283	0.522821
47893	-9.547053	1.043226	-1.809892	-0.041061	-0.066555	-0.040066	-0.363554	-0.677960	-0.367284	0.522782
47894	-9.558693	1.111440	-1.812062	0.016908	-0.099222	-0.020990	-0.363484	-0.678004	-0.367308	0.522756
47895	-9.564617	1.053130	-1.842140	-0.021976	-0.047286	-0.015660	-0.363521	-0.677997	-0.367383	0.522688
47896	-9.553033	1.029673	-1.886779	-0.020889	0.003139	-0.020846	-0.363445	-0.678064	-0.367356	0.522672
47897	-9.550132	1.113107	-1.864360	0.042275	-0.056901	-0.019075	-0.363370	-0.678110	-0.367350	0.522669
47898	-9.585215	1.023611	-1.943403	-0.006885	0.049666	0.020848	-0.363384	-0.678097	-0.367355	0.522673
47899	-9.545892	1.025036	-1.923608	-0.007077	0.036761	-0.021180	-0.363359	-0.678106	-0.367312	0.522708
47900	-9.521519	1.074706	-1.865260	0.015212	-0.034671	-0.050921	-0.363234	-0.678157	-0.367200	0.522808
47901	-9.575709	1.122747	-1.846249	0.039081	-0.080450	0.003391	-0.363232	-0.678157	-0.367173	0.522829
47902	-9.540051	1.034295	-1.836977	-0.035279	-0.041992	-0.042641	-0.363204	-0.678142	-0.367163	0.522875
47903	-9.547514	1.073332	-1.899949	0.026444	-0.006241	-0.019009	-0.363157	-0.678156	-0.367103	0.522930
47904	-9.569674	1.057121	-1.876691	-0.001602	-0.021410	-0.003627	-0.363111	-0.678156	-0.367084	0.522976
47905	-9.536070	1.069823	-1.835197	-0.002068	-0.059542	-0.043064	-0.363036	-0.678170	-0.367019	0.523056
47906	-9.536168	1.069566	-1.834833	-0.001474	-0.059550	-0.043064	-0.363013	-0.678145	-0.367022	0.523102
47907	-9.552740	1.040825	-1.833279	-0.029297	-0.049487	-0.030266	-0.362918	-0.678166	-0.366986	0.523166
47908	-9.564681	1.107921	-1.834466	0.028719	-0.082236	-0.011245	-0.362889	-0.678142	-0.367017	0.523195
47909	-9.549146	1.015115	-1.828902	-0.051129	-0.041583	-0.037352	-0.362851	-0.678134	-0.367048	0.523210
47910	-9.548647	1.074877	-1.832965	0.003856	-0.067076	-0.030701	-0.362744	-0.678169	-0.366997	0.523274
47911	-9.573383	1.089023	-1.828331	0.010428	-0.081673	-0.005972	-0.362706	-0.678157	-0.367057	0.523275
47912	-9.512500	1.035016	-1.882568	-0.000345	-0.002099	-0.060612	-0.362686	-0.678145	-0.367094	0.523279
47913	-9.556844	0.991629	-1.890699	-0.041887	0.019425	-0.020384	-0.362602	-0.678152	-0.367106	0.523319
47914	-9.618717	1.152414	-1.818512	0.055577	-0.128155	0.043034	-0.362501	-0.678184	-0.367052	0.523386
47915	-9.565751	0.963125	-1.937438	-0.045550	0.071904	-0.005668	-0.362567	-0.678117	-0.367118	0.523380
47916	-9.539502	1.025525	-1.904985	-0.000028	0.017774	-0.030947	-0.362496	-0.678128	-0.367028	0.523478
47917	-9.499980	0.962437	-1.947664	-0.027897	0.090756	-0.067931	-0.362532	-0.678095	-0.366991	0.523522
47918	-9.633207	1.083610	-1.849744	0.010165	-0.067001	0.055942	-0.362469	-0.678088	-0.366889	0.523646
47919	-9.528575	1.023395	-1.836821	-0.028116	-0.035508	-0.054976	-0.362522	-0.678045	-0.366844	0.523696
47920	-9.518835	1.058536	-1.802068	-0.011055	-0.079530	-0.067447	-0.362569	-0.678018	-0.366781	0.523743
47921	-9.566800	1.051344	-1.759743	-0.044771	-0.117827	-0.029549	-0.362482	-0.678044	-0.366703	0.523824
47922	-9.540557	1.103378	-1.781699	0.015878	-0.120149	-0.045424	-0.362473	-0.678047	-0.366676	0.523845
47923	-9.583080	0.948567	-1.875552	-0.084398	0.029811	-0.002240	-0.362332	-0.678121	-0.366590	0.523908
47924	-9.578486	1.158412	-1.872560	0.099028	-0.072529	0.014862	-0.362272	-0.678121	-0.366527	0.523993
47925	-9.601157	1.006813	-1.961891	0.004158	0.075371	0.038160	-0.362255	-0.678089	-0.366509	0.524059
47926	-9.546227	0.976129	-1.937907	-0.022108	0.077797	-0.023294	-0.362289	-0.678034	-0.366357	0.524213
47927	-9.550915	0.941110	-1.935894	-0.052891	0.095140	-0.022820	-0.362138	-0.678083	-0.366068	0.524456
47928	-9.589089	1.093092	-1.798399	0.011834	-0.098362	0.004130	-0.362141	-0.678057	-0.365822	0.524658
47929	-9.550782	1.035244	-1.771389	-0.042869	-0.085831	-0.044485	-0.362169	-0.678023	-0.365643	0.524808
47930	-9.490698	1.047312	-1.759033	-0.026185	-0.092189	-0.104174	-0.362118	-0.678043	-0.365427	0.524968
47931	-9.575610	1.112632	-1.765283	0.018667	-0.125877	-0.013183	-0.362016	-0.678099	-0.365196	0.525126
47932	-9.548738	1.056816	-1.804787	-0.006236	-0.060162	-0.037778	-0.361895	-0.678143	-0.365005	0.525286
47933	-9.501373	1.014495	-1.787921	-0.040949	-0.048380	-0.091683	-0.361729	-0.678211	-0.364842	0.525426
47934	-9.599480	1.144205	-1.717333	0.022819	-0.183863	0.004346	-0.361536	-0.678308	-0.364675	0.525550
47935	-9.526447	1.018179	-1.836682	-0.018622	-0.011260	-0.057545	-0.361574	-0.678276	-0.364721	0.525532
47936	-9.589578	1.102667	-1.801810	0.028030	-0.090301	0.006349	-0.361371	-0.678367	-0.364616	0.525627
47937	-9.550555	1.156672	-1.774044	0.070438	-0.137253	-0.031357	-0.361317	-0.678364	-0.364672	0.525630
47938	-9.584422	1.028338	-1.821411	-0.024871	-0.039843	-0.002797	-0.361227	-0.678376	-0.364720	0.525642
47939	-9.569407	1.027992	-1.918243	0.022874	0.045028	0.000947	-0.361159	-0.678376	-0.364735	0.525680
47940	-9.567131	0.985412	-1.954067	0.003961	0.096204	0.001086	-0.361054	-0.678378	-0.364710	0.525765
47941	-9.569758	1.025910	-1.917604	0.023975	0.044927	0.000945	-0.360947	-0.678375	-0.364596	0.525923
47942	-9.552456	0.955761	-1.882526	-0.047741	0.051016	-0.029952	-0.360736	-0.678434	-0.364378	0.526142
47943	-9.575423	0.992892	-1.848097	-0.033040	0.001820	-0.010191	-0.360545	-0.678481	-0.364094	0.526409
47944	-9.554074	0.958884	-1.811131	-0.073400	-0.009501	-0.041581	-0.360331	-0.678551	-0.363795	0.526672
47945	-9.560789	1.078465	-1.769874	0.012388	-0.102872	-0.030383	-0.359952	-0.678733	-0.363369	0.526991
47946	-9.565171	1.107529	-1.707004	0.009111	-0.171418	-0.034982	-0.359875	-0.678763	-0.363238	0.527094
47947	-9.545466	1.100789	-1.756834	0.030174	-0.121791	-0.045478	-0.359874	-0.678763	-0.363179	0.527136
47948	-9.574382	1.015659	-1.814693	-0.022187	-0.033217	-0.015143	-0.359845	-0.678780	-0.363134	0.527165
47949	-9.570150	1.051634	-1.814041	0.009739	-0.050690	-0.015657	-0.359775	-0.678815	-0.363068	0.527214
47950	-9.558297	0.984386	-1.812432	-0.047121	-0.018013	-0.034527	-0.359743	-0.678841	-0.363007	0.527243
47951	-9.552647	1.037249	-1.771851	-0.018748	-0.078664	-0.042229	-0.359530	-0.678961	-0.362840	0.527349
47952	-9.577554	1.106431	-1.758617	0.030627	-0.127343	-0.013232	-0.359519	-0.678988	-0.362816	0.527339
47953	-9.651135	1.032837	-1.815530	-0.020991	-0.051177	0.061737	-0.359545	-0.678999	-0.362853	0.527281
47954	-9.543571	1.045997	-1.835427	0.018246	-0.027908	-0.038152	-0.359590	-0.679016	-0.362838	0.527239
47955	-9.481015	1.005633	-1.915303	0.030572	0.068797	-0.088303	-0.359585	-0.679053	-0.362736	0.527265
47956	-9.562266	0.932376	-1.922893	-0.044555	0.102564	-0.015174	-0.359526	-0.679098	-0.362579	0.527355
47957	-9.611843	0.963021	-1.911433	-0.031849	0.073388	0.034247	-0.359322	-0.679218	-0.362233	0.527578
47958	-9.548279	1.068985	-1.823728	0.031958	-0.044845	-0.033356	-0.359156	-0.679292	-0.361911	0.527815
47959	-9.525879	1.161923	-1.729209	0.073465	-0.167471	-0.063372	-0.359092	-0.679333	-0.361725	0.527934
47960	-9.572638	1.043066	-1.770384	-0.018797	-0.077302	-0.022319	-0.359125	-0.679322	-0.361607	0.528007
47961	-9.563600	1.072111	-1.722824	-0.013483	-0.129956	-0.037059	-0.359027	-0.679343	-0.361464	0.528144
47962	-9.544566	1.053550	-1.825908	0.022886	-0.028494	-0.038164	-0.359024	-0.679320	-0.361417	0.528209
47963	-9.590118	1.054512	-1.876019	0.039372	0.010739	0.015849	-0.359171	-0.679211	-0.361474	0.528210
47964	-9.550502	0.948929	-1.871698	-0.046506	0.065992	-0.034687	-0.359387	-0.679072	-0.361506	0.528219
47965	-9.547840	0.915486	-1.917150	-0.053685	0.125770	-0.032292	-0.359548	-0.678978	-0.361427	0.528284
47966	-9.603385	1.014456	-1.872610	0.001402	0.037311	0.023948	-0.359697	-0.678897	-0.361247	0.528410
47967	-9.559522	1.011100	-1.802901	-0.025625	-0.010754	-0.032275	-0.359885	-0.678786	-0.361070	0.528546
47968	-9.548932	1.054551	-1.778378	0.002968	-0.046204	-0.042597	-0.360023	-0.678701	-0.360877	0.528693
47969	-9.570464	0.993913	-1.771930	-0.056149	-0.018711	-0.029136	-0.360150	-0.678642	-0.360595	0.528874
47970	-9.542090	1.017348	-1.771788	-0.030261	-0.021636	-0.054392	-0.360080	-0.678678	-0.360212	0.529136
47971	-9.566816	1.153820	-1.691185	0.046583	-0.156186	-0.030621	-0.360097	-0.678665	-0.359924	0.529337
47972	-9.548435	1.034439	-1.742177	-0.029417	-0.047011	-0.051807	-0.360264	-0.678580	-0.359808	0.529412
47973	-9.552448	1.115401	-1.734933	0.036879	-0.089181	-0.040581	-0.360284	-0.678555	-0.359596	0.529575
47974	-9.611620	1.064511	-1.775781	0.002082	-0.031721	0.019342	-0.360298	-0.678520	-0.359406	0.529739
47975	-9.590096	1.027417	-1.804530	-0.011418	0.017376	-0.000377	-0.360235	-0.678527	-0.359110	0.529973
47976	-9.596919	1.088726	-1.757380	0.019954	-0.050583	0.004217	-0.360165	-0.678517	-0.358857	0.530205
47977	-9.522775	1.056177	-1.715854	-0.012867	-0.058814	-0.079276	-0.360211	-0.678477	-0.358657	0.530360
47978	-9.580321	1.076631	-1.707618	-0.008526	-0.078652	-0.022315	-0.360205	-0.678446	-0.358489	0.530517
47979	-9.607101	1.134666	-1.664043	0.017548	-0.144522	0.002184	-0.360295	-0.678358	-0.358415	0.530619
47980	-9.578425	1.103060	-1.674424	0.000701	-0.113415	-0.027300	-0.360617	-0.678173	-0.358540	0.530552
47981	-9.546082	1.096774	-1.738493	0.030490	-0.047946	-0.047969	-0.361015	-0.677963	-0.358773	0.530393
47982	-9.555863	1.021912	-1.724206	-0.043337	-0.021739	-0.049012	-0.361296	-0.677793	-0.358936	0.530309
47983	-9.589351	1.021986	-1.709294	-0.056695	-0.035600	-0.018948	-0.361539	-0.677668	-0.359024	0.530243
47984	-9.590336	1.067251	-1.752267	0.001872	-0.017964	-0.005359	-0.361687	-0.677593	-0.359017	0.530243
47985	-9.592346	1.052276	-1.790261	0.006056	0.025175	0.001830	-0.361947	-0.677437	-0.359086	0.530217
47986	-9.584834	1.011068	-1.790536	-0.027774	0.049797	-0.009929	-0.362026	-0.677367	-0.358986	0.530320
47987	-9.571120	1.076504	-1.740320	0.008889	-0.020282	-0.025276	-0.362223	-0.677221	-0.358953	0.530396
47988	-9.594405	1.056247	-1.699685	-0.030801	-0.044019	-0.011957	-0.362282	-0.677155	-0.358823	0.530527
47989	-9.563887	1.149252	-1.651787	0.034133	-0.124253	-0.040251	-0.362393	-0.677047	-0.358774	0.530623
47990	-9.562900	1.054395	-1.692472	-0.027428	-0.038971	-0.044218	-0.362524	-0.676912	-0.358734	0.530733
47991	-9.561727	1.067502	-1.715578	-0.003518	-0.021863	-0.039822	-0.362534	-0.676859	-0.358608	0.530878
47992	-9.583973	1.106769	-1.679887	0.011135	-0.071141	-0.020124	-0.362673	-0.676738	-0.358587	0.530951
47993	-9.586016	1.095353	-1.650677	-0.011620	-0.088408	-0.024517	-0.362779	-0.676634	-0.358627	0.530984
47994	-9.551442	1.056150	-1.697119	-0.016537	-0.023439	-0.054363	-0.362890	-0.676517	-0.358674	0.531025
47995	-9.564884	1.057433	-1.679314	-0.024605	-0.039368	-0.044212	-0.362805	-0.676510	-0.358573	0.531162
47996	-9.576511	1.124140	-1.679867	0.033372	-0.072224	-0.025508	-0.362590	-0.676562	-0.358408	0.531353
47997	-9.593540	1.094555	-1.677026	0.005573	-0.062134	-0.012556	-0.362411	-0.676594	-0.358282	0.531519
47998	-9.593155	1.044786	-1.698490	-0.024985	-0.019513	-0.014522	-0.362149	-0.676661	-0.358102	0.531735
47999	-9.570445	1.069467	-1.668087	-0.011158	-0.056267	-0.039438	-0.361828	-0.676773	-0.357857	0.531975
48000	-9.574705	1.033318	-1.748118	-0.003371	0.030075	-0.025056	-0.361590	-0.676848	-0.357619	0.532201
48001	-9.573136	1.049148	-1.706339	-0.006494	-0.013223	-0.032247	-0.361324	-0.676919	-0.357355	0.532469
48002	-9.594006	1.151621	-1.609977	0.035523	-0.148312	-0.017793	-0.361178	-0.676934	-0.357203	0.532651
48003	-9.569105	1.088106	-1.635618	-0.001080	-0.091159	-0.044439	-0.361292	-0.676812	-0.357286	0.532673
48004	-9.609161	1.033302	-1.661434	-0.042177	-0.044385	-0.006551	-0.361407	-0.676694	-0.357375	0.532685
48005	-9.573806	0.999627	-1.721610	-0.035511	0.029184	-0.034198	-0.361392	-0.676663	-0.357318	0.532773
48006	-9.585683	1.119771	-1.633669	0.026523	-0.106703	-0.025145	-0.361242	-0.676681	-0.357240	0.532904
48007	-9.589001	1.148345	-1.571367	0.023117	-0.175183	-0.029763	-0.361245	-0.676618	-0.357311	0.532934
48008	-9.578115	1.129425	-1.626804	0.035858	-0.116187	-0.032729	-0.361529	-0.676411	-0.357602	0.532809
48009	-9.556516	1.090816	-1.658648	0.022242	-0.067120	-0.052411	-0.361653	-0.676276	-0.357852	0.532728
48010	-9.604721	0.968647	-1.620960	-0.108533	-0.045808	-0.024809	-0.361690	-0.676204	-0.358050	0.532662
48011	-9.571154	1.077678	-1.617908	-0.008682	-0.100308	-0.046630	-0.361623	-0.676205	-0.358153	0.532637
48012	-9.592633	1.222828	-1.569681	0.091327	-0.217738	-0.018707	-0.361664	-0.676138	-0.358426	0.532510
48013	-9.572632	1.054559	-1.809237	0.061524	0.072069	-0.014129	-0.362000	-0.675916	-0.358948	0.532212
48014	-9.641204	0.981546	-1.686771	-0.070444	-0.007557	0.023797	-0.362042	-0.675812	-0.359259	0.532106
48015	-9.585995	1.052106	-1.715675	0.015310	-0.012823	-0.017721	-0.362195	-0.675665	-0.359533	0.532003
48016	-9.591585	1.005174	-1.769748	-0.000196	0.056332	-0.007703	-0.362398	-0.675491	-0.359796	0.531909
48017	-9.592164	0.895389	-1.707206	-0.123728	0.055510	-0.029666	-0.362515	-0.675377	-0.359995	0.531838
48018	-9.554962	0.822957	-1.657830	-0.202087	0.050996	-0.082347	-0.362407	-0.675407	-0.359977	0.531887
48019	-9.509749	1.085271	-1.550092	-0.015837	-0.167442	-0.117965	-0.362030	-0.675618	-0.359762	0.532020
48020	-9.571676	1.277603	-1.499659	0.116390	-0.314761	-0.046132	-0.361986	-0.675666	-0.359941	0.531868
48021	-9.597818	1.107603	-1.632580	0.025464	-0.123512	-0.015019	-0.362065	-0.675619	-0.360318	0.531619
48022	-9.609442	1.113139	-1.635154	0.029010	-0.130850	-0.002681	-0.361863	-0.675731	-0.360550	0.531457
48023	-9.572736	1.022698	-1.712240	-0.007031	-0.023184	-0.034427	-0.361679	-0.675801	-0.360836	0.531299
48024	-9.586087	1.068624	-1.680068	0.015914	-0.081814	-0.022350	-0.361529	-0.675860	-0.361148	0.531114
48025	-9.585179	0.952408	-1.771380	-0.041985	0.046671	-0.018987	-0.361345	-0.675920	-0.361480	0.530937
48026	-9.583730	1.009265	-1.781441	0.012928	0.021118	-0.012717	-0.361192	-0.675969	-0.361748	0.530796
48027	-9.558268	0.937292	-1.800988	-0.035374	0.069693	-0.041482	-0.361036	-0.676017	-0.361999	0.530670
48028	-9.606149	0.974987	-1.741367	-0.037970	-0.011270	-0.001496	-0.360802	-0.676118	-0.362130	0.530611
48029	-9.596258	1.049903	-1.757385	0.036870	-0.037657	-0.000650	-0.360701	-0.676144	-0.362338	0.530505
48030	-9.577934	0.978746	-1.727780	-0.035051	-0.031462	-0.031187	-0.360554	-0.676213	-0.362503	0.530404
48031	-9.579101	0.964186	-1.705755	-0.057862	-0.048725	-0.035535	-0.360359	-0.676305	-0.362644	0.530322
48032	-9.578902	1.020142	-1.634929	-0.041630	-0.143307	-0.043001	-0.360058	-0.676456	-0.362763	0.530252
48033	-9.554762	1.099949	-1.681514	0.053558	-0.145235	-0.050162	-0.359952	-0.676516	-0.363030	0.530067
48034	-9.580240	0.976453	-1.794365	-0.006265	0.003376	-0.017068	-0.359822	-0.676577	-0.363337	0.529866
48035	-9.562585	1.066691	-1.739526	0.049912	-0.092754	-0.035382	-0.359653	-0.676647	-0.363617	0.529700
48036	-9.575252	1.000366	-1.792452	0.014465	-0.022814	-0.019918	-0.359566	-0.676688	-0.363953	0.529475
48037	-9.599134	1.013091	-1.792842	0.021129	-0.037460	0.004754	-0.359599	-0.676650	-0.364382	0.529206
48038	-9.620455	0.880741	-1.779950	-0.104071	0.007057	0.010052	-0.359473	-0.676720	-0.364633	0.529029
48039	-9.530220	0.910735	-1.780492	-0.062558	-0.002177	-0.075092	-0.359380	-0.676797	-0.364843	0.528849
48040	-9.574246	1.034649	-1.778426	0.035940	-0.074337	-0.020207	-0.359170	-0.676917	-0.364961	0.528757
48041	-9.571079	0.926429	-1.882159	-0.010231	0.062758	-0.014611	-0.359096	-0.676964	-0.365239	0.528555
48042	-9.572637	0.966226	-1.851469	0.009664	0.011406	-0.014898	-0.358932	-0.677046	-0.365388	0.528459
48043	-9.613209	0.950814	-1.849092	-0.011949	0.006932	0.022799	-0.358727	-0.677162	-0.365487	0.528381
48044	-9.547532	0.941735	-1.851918	-0.007089	0.017207	-0.041736	-0.358620	-0.677219	-0.365599	0.528302
48045	-9.562701	0.868868	-1.809068	-0.092883	0.009654	-0.042110	-0.358419	-0.677333	-0.365638	0.528266
48046	-9.510136	0.986096	-1.737425	-0.014905	-0.107327	-0.095590	-0.358168	-0.677497	-0.365642	0.528223
48047	-9.581703	1.041337	-1.753798	0.027320	-0.133952	-0.017253	-0.357937	-0.677663	-0.365747	0.528094
48048	-9.618909	1.055415	-1.739129	0.025367	-0.164448	0.017582	-0.357797	-0.677753	-0.366014	0.527888
48049	-9.522089	0.953912	-1.833789	-0.002926	-0.028461	-0.068864	-0.357639	-0.677849	-0.366286	0.527684
48050	-9.567885	0.950255	-1.812497	-0.024847	-0.058129	-0.028591	-0.357366	-0.678034	-0.366454	0.527513
48051	-9.562244	0.907602	-1.935485	-0.004990	0.062025	-0.014602	-0.357085	-0.678198	-0.366622	0.527376
48052	-9.584835	0.947377	-1.843224	-0.017357	-0.047578	-0.006491	-0.356807	-0.678373	-0.366783	0.527228
48053	-9.578440	0.861893	-1.920973	-0.055554	0.054905	-0.005883	-0.356608	-0.678511	-0.366945	0.527072
48054	-9.544534	0.916563	-1.930142	0.001502	0.034494	-0.031968	-0.356369	-0.678662	-0.367034	0.526978
48055	-9.547424	0.950661	-1.886240	0.009696	-0.025474	-0.034435	-0.356346	-0.678691	-0.367271	0.526790
48056	-9.587185	0.882200	-1.893402	-0.054586	0.004172	-0.000738	-0.356205	-0.678802	-0.367409	0.526646
48057	-9.536353	0.922665	-1.859027	-0.027345	-0.044097	-0.053250	-0.356080	-0.678900	-0.367598	0.526472
48058	-9.567946	0.925363	-1.865191	-0.028996	-0.049333	-0.020979	-0.355952	-0.679016	-0.367733	0.526315
48059	-9.553518	0.923511	-1.886104	-0.019889	-0.033549	-0.031151	-0.355807	-0.679147	-0.367844	0.526167
48060	-9.541650	0.952605	-1.925276	0.023936	-0.017249	-0.032280	-0.355673	-0.679279	-0.367962	0.526005
48061	-9.587746	0.950532	-1.902571	0.001995	-0.046993	0.008002	-0.355514	-0.679410	-0.368076	0.525863
48062	-9.604849	0.958669	-1.936989	0.020675	-0.027838	0.032255	-0.355469	-0.679465	-0.368237	0.525710
48063	-9.567396	0.887108	-1.890568	-0.057800	-0.032273	-0.020247	-0.355379	-0.679577	-0.368310	0.525574
48064	-9.561458	0.857433	-1.957076	-0.053279	0.036096	-0.015612	-0.355073	-0.679794	-0.368234	0.525554
48065	-9.593110	1.002640	-1.863552	0.023136	-0.123836	0.010245	-0.354891	-0.679959	-0.368229	0.525466
48066	-9.508104	0.921677	-1.899205	-0.017542	-0.046902	-0.073180	-0.354743	-0.680116	-0.368263	0.525339
48067	-9.543959	0.900142	-1.853015	-0.065885	-0.086510	-0.049530	-0.354474	-0.680340	-0.368305	0.525202
48068	-9.538387	0.995428	-1.862879	0.020329	-0.129627	-0.044126	-0.354328	-0.680503	-0.368429	0.525003
48069	-9.511104	0.915700	-1.936423	-0.012637	-0.029286	-0.063415	-0.354209	-0.680651	-0.368550	0.524806
48070	-9.543047	0.901929	-1.984047	-0.010580	0.008592	-0.023945	-0.354065	-0.680789	-0.368728	0.524599
48071	-9.496229	0.906531	-1.951574	-0.014631	-0.022185	-0.075743	-0.353785	-0.680986	-0.368841	0.524453
48072	-9.575544	0.961611	-1.922767	0.004084	-0.091220	0.000794	-0.353664	-0.681118	-0.369043	0.524221
48073	-9.531862	0.849084	-1.994270	-0.054996	0.024487	-0.037677	-0.353490	-0.681270	-0.369226	0.524012
48074	-9.568376	0.984107	-1.989218	0.051840	-0.057129	0.009396	-0.353243	-0.681459	-0.369336	0.523855
48075	-9.544192	0.884867	-2.023520	-0.016170	0.017481	-0.016328	-0.353136	-0.681585	-0.369533	0.523624
48076	-9.552257	0.850191	-2.062365	-0.031909	0.061384	-0.003661	-0.353034	-0.681698	-0.369668	0.523452
48077	-9.533134	0.901382	-2.041767	0.004860	0.016500	-0.021792	-0.352880	-0.681840	-0.369756	0.523308
48078	-9.561132	0.924421	-2.086699	0.038291	0.036940	0.016925	-0.352984	-0.681864	-0.369896	0.523106
48079	-9.528138	0.818785	-2.039552	-0.071521	0.049938	-0.034753	-0.352993	-0.681912	-0.370008	0.522960
48080	-9.544364	0.862799	-1.991264	-0.060257	-0.017335	-0.024914	-0.352969	-0.682001	-0.370000	0.522865
48081	-9.544550	0.918694	-1.984539	-0.017036	-0.051551	-0.020963	-0.353033	-0.682048	-0.370054	0.522721
48082	-9.508906	0.929596	-2.012033	0.008926	-0.029216	-0.048939	-0.353107	-0.682096	-0.370117	0.522564
48083	-9.558379	0.944254	-2.045499	0.025482	-0.015316	0.007567	-0.353195	-0.682128	-0.370188	0.522413
48084	-9.594408	0.914352	-2.049066	-0.007422	-0.003131	0.040602	-0.353254	-0.682146	-0.370199	0.522342
48085	-9.515850	0.978782	-2.012986	0.044942	-0.054305	-0.037384	-0.353353	-0.682135	-0.370227	0.522269
48086	-9.560117	0.921430	-2.061515	0.007425	0.010418	0.010477	-0.353512	-0.682121	-0.370216	0.522188
48087	-9.550367	0.888456	-2.076786	-0.014772	0.043650	0.001067	-0.353879	-0.681980	-0.370328	0.522045
48088	-9.528863	0.787817	-2.089466	-0.094465	0.109738	-0.026739	-0.354039	-0.681936	-0.370242	0.522054
48089	-9.527278	0.945790	-2.014411	0.007425	-0.027862	-0.028999	-0.354214	-0.681916	-0.370138	0.522035
48090	-9.484854	0.926123	-1.986870	-0.016415	-0.032617	-0.077880	-0.354458	-0.681838	-0.370091	0.522004
48091	-9.476523	0.886736	-1.988380	-0.050356	-0.007996	-0.089425	-0.354603	-0.681832	-0.370023	0.521962
48092	-9.537128	1.020581	-1.899185	0.012597	-0.156505	-0.036152	-0.354611	-0.681894	-0.369913	0.521953
48093	-9.513641	0.985391	-1.931129	-0.001038	-0.107416	-0.055737	-0.354793	-0.681866	-0.369929	0.521856
48094	-9.530683	0.926210	-2.011126	-0.021336	-0.010966	-0.028218	-0.354912	-0.681869	-0.369971	0.521740
48095	-9.539836	0.965350	-1.995353	0.002005	-0.044396	-0.018821	-0.354955	-0.681908	-0.369929	0.521691
48096	-9.490909	0.975157	-2.036314	0.036598	-0.006296	-0.056998	-0.355035	-0.681918	-0.369895	0.521646
48097	-9.510940	0.930166	-1.995530	-0.026114	-0.021963	-0.050302	-0.355105	-0.681912	-0.369917	0.521591
48098	-9.539118	0.971388	-1.995853	0.003642	-0.044703	-0.018822	-0.355233	-0.681874	-0.369963	0.521521
48099	-9.538183	0.848530	-2.054666	-0.077522	0.066664	-0.019418	-0.355359	-0.681838	-0.369984	0.521467
48100	-9.540582	0.952300	-2.022284	-0.003222	-0.010273	-0.013754	-0.355400	-0.681848	-0.369900	0.521487
48101	-9.567802	1.071112	-1.984943	0.077280	-0.101782	0.016544	-0.355587	-0.681779	-0.369948	0.521415
48102	-9.567075	0.949175	-2.042690	-0.003869	0.009577	0.015961	-0.355812	-0.681695	-0.369956	0.521366
48103	-9.521217	1.017658	-2.004931	0.046326	-0.046803	-0.029814	-0.355981	-0.681599	-0.369963	0.521372
48104	-9.523924	1.007217	-1.976379	0.023479	-0.064076	-0.034087	-0.356213	-0.681470	-0.370051	0.521319
48105	-9.522924	1.015443	-1.987436	0.035736	-0.055653	-0.031955	-0.356443	-0.681319	-0.370170	0.521274
48106	-9.501493	0.929459	-1.960059	-0.047690	-0.032748	-0.066880	-0.356669	-0.681176	-0.370293	0.521219
48107	-9.529440	0.916311	-1.968116	-0.060589	-0.021377	-0.039295	-0.356758	-0.681117	-0.370311	0.521223
48108	-9.537079	0.950078	-2.017143	-0.010219	0.005503	-0.018442	-0.356860	-0.681052	-0.370323	0.521229
48109	-9.525594	0.883214	-2.014352	-0.067152	0.038223	-0.036766	-0.356811	-0.681057	-0.370200	0.521344
48110	-9.515164	0.994539	-1.942900	0.000255	-0.074644	-0.050682	-0.356673	-0.681133	-0.370001	0.521480
48111	-9.571959	1.003313	-1.991939	0.020388	-0.042797	0.015569	-0.356637	-0.681143	-0.369859	0.521592
48112	-9.489027	0.932896	-1.967789	-0.035839	-0.017560	-0.077056	-0.356485	-0.681208	-0.369661	0.521752
48113	-9.498000	1.056902	-1.860169	0.022738	-0.171546	-0.078247	-0.356273	-0.681312	-0.369468	0.521898
48114	-9.570667	1.053097	-1.868957	0.010894	-0.172652	-0.006070	-0.356166	-0.681351	-0.369441	0.521939
48115	-9.603075	0.985740	-1.920940	-0.029643	-0.100628	0.029555	-0.356153	-0.681347	-0.369501	0.521911
48116	-9.547302	0.943590	-1.953151	-0.041218	-0.046341	-0.022269	-0.356024	-0.681416	-0.369473	0.521928
48117	-9.500165	0.998141	-1.973080	0.024393	-0.050935	-0.058751	-0.355900	-0.681473	-0.369483	0.521932
48118	-9.527689	0.983007	-1.984139	0.011498	-0.039619	-0.031160	-0.355869	-0.681476	-0.369562	0.521893
48119	-9.482002	0.917013	-1.996208	-0.031718	0.006937	-0.079596	-0.355774	-0.681508	-0.369619	0.521875
48120	-9.591472	0.979030	-2.043239	0.023915	0.001560	0.042721	-0.355779	-0.681498	-0.369680	0.521841
48121	-9.571957	0.851801	-2.086078	-0.063752	0.102261	0.020172	-0.355813	-0.681471	-0.369713	0.521831
48122	-9.506298	0.904938	-2.086990	-0.004730	0.087011	-0.038407	-0.355796	-0.681473	-0.369631	0.521898
48123	-9.533204	0.995510	-1.964566	0.013877	-0.065332	-0.028614	-0.355695	-0.681531	-0.369466	0.522008
48124	-9.555858	0.980572	-1.940733	-0.014118	-0.080510	-0.012906	-0.355811	-0.681476	-0.369462	0.522002
48125	-9.531871	0.906861	-1.940464	-0.074235	-0.040431	-0.043490	-0.355788	-0.681500	-0.369347	0.522069
48126	-9.518042	1.020669	-1.949975	0.032006	-0.084361	-0.043903	-0.355769	-0.681498	-0.369311	0.522110
48127	-9.551778	0.948322	-1.987615	-0.020139	-0.020933	-0.010364	-0.355845	-0.681475	-0.369336	0.522070
48128	-9.599559	1.002488	-1.950397	0.000829	-0.084833	0.033803	-0.355910	-0.681447	-0.369333	0.522065
48129	-9.517972	0.954094	-1.998339	-0.005355	-0.007355	-0.040515	-0.356144	-0.681354	-0.369410	0.521972
48130	-9.486727	0.874815	-2.033358	-0.053467	0.066535	-0.071509	-0.356074	-0.681406	-0.369310	0.522022
48131	-9.583320	1.018461	-1.990653	0.034375	-0.052075	0.027845	-0.356024	-0.681452	-0.369176	0.522091
48132	-9.542160	0.989714	-1.951386	-0.001282	-0.065376	-0.023102	-0.356080	-0.681438	-0.369102	0.522123
48133	-9.492786	0.917799	-1.915947	-0.071347	-0.053939	-0.085499	-0.355987	-0.681519	-0.368970	0.522175
48134	-9.557830	1.051365	-1.859944	0.006791	-0.175928	-0.020554	-0.355895	-0.681611	-0.368873	0.522186
48135	-9.581002	1.073502	-1.869781	0.025178	-0.182047	0.006188	-0.355901	-0.681654	-0.368889	0.522115
48136	-9.537010	0.985620	-1.909686	-0.026001	-0.100895	-0.037103	-0.355783	-0.681752	-0.368878	0.522074
48137	-9.467160	1.012885	-1.909480	0.009878	-0.108041	-0.102517	-0.355541	-0.681912	-0.368833	0.522062
48138	-9.507804	0.970809	-2.001377	0.007633	-0.017598	-0.048163	-0.355309	-0.682046	-0.368819	0.522055
48139	-9.528275	1.002980	-2.039662	0.049478	-0.006594	-0.017193	-0.355096	-0.682166	-0.368810	0.522049
48140	-9.554485	0.851674	-2.164545	-0.029577	0.167998	0.019387	-0.354975	-0.682225	-0.368839	0.522034
48141	-9.573022	0.924812	-2.132893	0.016454	0.101238	0.038035	-0.354846	-0.682298	-0.368729	0.522105
48142	-9.533058	0.959603	-2.031587	0.008102	0.002056	-0.018438	-0.354792	-0.682322	-0.368656	0.522161
48143	-9.512451	0.980524	-1.987322	0.010027	-0.043303	-0.045619	-0.354785	-0.682326	-0.368632	0.522178
48144	-9.527559	1.003863	-1.864288	-0.028868	-0.162806	-0.054084	-0.354851	-0.682287	-0.368698	0.522138
48145	-9.556152	1.027420	-1.905273	0.004729	-0.142412	-0.015474	-0.355025	-0.682194	-0.368876	0.522014
48146	-9.569628	0.958829	-1.940134	-0.042254	-0.081067	-0.001831	-0.355160	-0.682135	-0.369046	0.521880
48147	-9.485169	0.921654	-2.016382	-0.025097	0.013560	-0.071904	-0.355231	-0.682114	-0.369170	0.521771
48148	-9.466780	0.956865	-2.032700	0.015320	0.011869	-0.082990	-0.355279	-0.682118	-0.369302	0.521639
48149	-9.597140	0.912900	-2.035676	-0.046527	0.016475	0.040232	-0.355283	-0.682129	-0.369374	0.521571
48150	-9.522823	0.993187	-1.992088	0.016896	-0.051300	-0.033318	-0.355181	-0.682191	-0.369356	0.521572
48151	-9.494732	1.007283	-1.984166	0.030803	-0.062859	-0.060940	-0.355132	-0.682209	-0.369430	0.521531
48152	-9.573138	0.945428	-2.022329	-0.020167	-0.011890	0.017270	-0.355170	-0.682189	-0.369514	0.521470
48153	-9.554176	0.872110	-2.055966	-0.065136	0.054717	-0.001336	-0.355146	-0.682193	-0.369511	0.521484
48154	-9.506700	0.944326	-2.033561	-0.003457	0.006898	-0.045170	-0.355070	-0.682235	-0.369416	0.521548
48155	-9.536245	0.978083	-2.020196	0.014747	-0.024443	-0.015903	-0.355062	-0.682233	-0.369356	0.521600
48156	-9.547852	0.949222	-1.985749	-0.028061	-0.040869	-0.014563	-0.355089	-0.682219	-0.369309	0.521632
48157	-9.513799	0.898303	-2.005932	-0.056519	0.006977	-0.048475	-0.355029	-0.682244	-0.369175	0.521735
48158	-9.510821	0.998776	-1.941448	0.002598	-0.096526	-0.054964	-0.354900	-0.682306	-0.369058	0.521824
48159	-9.500840	0.978985	-1.917971	-0.023429	-0.106450	-0.071480	-0.354821	-0.682373	-0.368996	0.521835
48160	-9.535982	1.024949	-1.884911	-0.005581	-0.163034	-0.039676	-0.354807	-0.682401	-0.369037	0.521778
48161	-9.539484	0.962136	-1.982088	-0.017171	-0.050736	-0.022219	-0.354806	-0.682424	-0.369142	0.521675
48162	-9.540292	0.956156	-1.971050	-0.028369	-0.059356	-0.024321	-0.354771	-0.682465	-0.369195	0.521607
48163	-9.517135	0.972192	-1.996178	0.000627	-0.044377	-0.040084	-0.354698	-0.682530	-0.369248	0.521534
48164	-9.554717	0.960590	-2.072603	0.018073	0.020028	0.011278	-0.354642	-0.682566	-0.369297	0.521491
48165	-9.531805	0.905226	-2.146469	0.008161	0.112309	-0.000990	-0.354497	-0.682636	-0.369212	0.521557
48166	-9.576741	0.916596	-2.145260	0.009891	0.099699	0.043591	-0.354442	-0.682657	-0.369080	0.521661
48167	-9.548604	0.823687	-2.151771	-0.061593	0.156422	0.008522	-0.354321	-0.682707	-0.368744	0.521916
48168	-9.538626	0.936315	-2.077846	0.005746	0.043542	-0.005670	-0.354314	-0.682688	-0.368431	0.522166
48169	-9.522907	0.869491	-2.038529	-0.066398	0.049822	-0.035649	-0.354395	-0.682645	-0.368110	0.522393
48170	-9.443263	0.957309	-1.968866	-0.006590	-0.035875	-0.119042	-0.354445	-0.682609	-0.367757	0.522655
48171	-9.535124	0.977308	-1.947715	-0.015362	-0.069605	-0.031980	-0.354639	-0.682517	-0.367515	0.522814
48172	-9.561591	0.935626	-1.933513	-0.062936	-0.058684	-0.013173	-0.354739	-0.682478	-0.367220	0.523004
48173	-9.542445	0.996436	-1.915732	-0.014642	-0.095020	-0.029440	-0.354843	-0.682434	-0.366925	0.523198
48174	-9.549333	0.940884	-1.939149	-0.053292	-0.043038	-0.023375	-0.354889	-0.682442	-0.366605	0.523381
48175	-9.575265	1.024366	-1.867802	-0.019212	-0.143710	-0.004390	-0.354970	-0.682456	-0.366318	0.523509
48176	-9.596838	1.018942	-1.854724	-0.035503	-0.150299	0.013487	-0.355135	-0.682448	-0.366102	0.523558
48177	-9.494186	0.927737	-1.919616	-0.067733	-0.032139	-0.082344	-0.355283	-0.682457	-0.365929	0.523567
48178	-9.512458	1.060112	-1.876160	0.021010	-0.133100	-0.060124	-0.355464	-0.682471	-0.365806	0.523512
48179	-9.600512	1.094318	-1.885988	0.035623	-0.149738	0.031124	-0.355718	-0.682450	-0.365786	0.523380
48180	-9.487688	0.984053	-1.928657	-0.023135	-0.041368	-0.081190	-0.356104	-0.682368	-0.365858	0.523175
48181	-9.537260	0.948251	-1.968640	-0.048905	0.006652	-0.028434	-0.356270	-0.682407	-0.365811	0.523044
48182	-9.610737	1.052400	-1.945622	0.013168	-0.071447	0.049056	-0.356519	-0.682416	-0.365784	0.522881
48183	-9.528458	0.969345	-1.962665	-0.039671	-0.002955	-0.036102	-0.356812	-0.682379	-0.365776	0.522734
48184	-9.460686	0.978484	-1.985850	-0.011865	0.024528	-0.096471	-0.357025	-0.682380	-0.365690	0.522649
48185	-9.495256	1.082380	-1.941660	0.048752	-0.066272	-0.061036	-0.357081	-0.682443	-0.365555	0.522622
48186	-9.559843	1.093959	-1.943817	0.045433	-0.076838	0.003513	-0.357190	-0.682460	-0.365501	0.522564
48187	-9.506229	1.058311	-1.908020	0.006487	-0.082794	-0.059634	-0.357174	-0.682517	-0.365419	0.522557
48188	-9.583561	1.140496	-1.845652	0.033543	-0.186582	0.011561	-0.357197	-0.682541	-0.365423	0.522508
48189	-9.540096	1.041530	-1.938539	-0.002221	-0.053583	-0.022219	-0.357083	-0.682627	-0.365378	0.522504
48190	-9.520796	1.092681	-1.914291	0.034355	-0.098481	-0.040628	-0.357062	-0.682636	-0.365450	0.522456
48191	-9.547327	0.976412	-1.957056	-0.052129	-0.010201	-0.018196	-0.356982	-0.682695	-0.365481	0.522413
48192	-9.562430	1.062470	-1.952293	0.017314	-0.059913	0.004464	-0.356973	-0.682693	-0.365578	0.522353
48193	-9.510013	0.926596	-2.061071	-0.041224	0.106439	-0.038542	-0.357130	-0.682623	-0.365700	0.522252
48194	-9.498066	0.930782	-2.009895	-0.059338	0.061905	-0.060153	-0.357025	-0.682697	-0.365575	0.522315
48195	-9.548384	1.009683	-1.978316	-0.015197	-0.010208	-0.009397	-0.356977	-0.682759	-0.365468	0.522341
48196	-9.569825	0.947775	-1.977417	-0.074151	0.017402	0.004859	-0.357000	-0.682788	-0.365330	0.522385
48197	-9.586656	0.975752	-1.965753	-0.059080	-0.006665	0.021778	-0.356908	-0.682882	-0.365068	0.522507
48198	-9.483853	1.017282	-1.920076	-0.025295	-0.051706	-0.083262	-0.356788	-0.683002	-0.364795	0.522624
48199	-9.534283	1.043457	-1.896800	-0.023877	-0.089586	-0.036154	-0.356747	-0.683089	-0.364568	0.522696
48200	-9.529932	0.919187	-1.923158	-0.120068	-0.004672	-0.048026	-0.356685	-0.683202	-0.364390	0.522714
48201	-9.533585	1.048095	-1.897751	-0.022735	-0.089823	-0.036153	-0.356531	-0.683395	-0.364106	0.522766
48202	-9.573306	1.162812	-1.834806	0.037529	-0.205860	0.001743	-0.356395	-0.683585	-0.363899	0.522754
48203	-9.510404	1.090091	-1.817878	-0.024230	-0.178451	-0.070597	-0.356363	-0.683720	-0.363865	0.522623
48204	-9.528961	1.051436	-1.794365	-0.075206	-0.185478	-0.061466	-0.356117	-0.683982	-0.363753	0.522525
48205	-9.539967	1.179006	-1.727029	-0.001667	-0.312989	-0.051249	-0.355912	-0.684243	-0.363790	0.522298
48206	-9.463726	1.150705	-1.709573	-0.023967	-0.312392	-0.132259	-0.355698	-0.684516	-0.364012	0.521931
48207	-9.616225	1.273769	-1.744639	0.064479	-0.373223	0.035895	-0.355552	-0.684774	-0.364471	0.521371
48208	-9.619936	1.149123	-1.849291	-0.001470	-0.235307	0.047745	-0.355461	-0.684983	-0.365052	0.520752
48209	-9.460316	1.073749	-1.898205	-0.019050	-0.148483	-0.105408	-0.355288	-0.685245	-0.365576	0.520157
48210	-9.367190	0.927963	-1.987938	-0.090985	-0.003393	-0.192451	-0.354704	-0.685705	-0.365968	0.519673
48211	-9.490830	1.098478	-2.051399	0.057208	-0.066692	-0.041147	-0.354384	-0.686034	-0.366606	0.519009
48212	-9.541543	0.903207	-2.294867	-0.015550	0.214283	0.040082	-0.354138	-0.686314	-0.367243	0.518355
48213	-9.531907	0.941899	-2.323064	0.027999	0.205238	0.041151	-0.353729	-0.686656	-0.367634	0.517904
48214	-9.496259	0.951351	-2.294706	0.026588	0.167254	0.001638	-0.353293	-0.687003	-0.367854	0.517585
48215	-9.536554	0.980456	-2.166121	-0.017851	0.024647	0.015756	-0.352908	-0.687304	-0.368029	0.517323
48216	-9.481724	0.939627	-2.140060	-0.056895	0.018713	-0.047328	-0.352405	-0.687671	-0.368113	0.517119
48217	-9.496844	1.124894	-2.113482	0.086287	-0.107965	-0.019673	-0.352092	-0.687909	-0.368382	0.516824
48218	-9.422103	1.036934	-2.204081	0.063757	0.013639	-0.081039	-0.351918	-0.688072	-0.368753	0.516461
48219	-9.455521	1.009240	-2.229835	0.042799	0.034368	-0.045673	-0.351672	-0.688240	-0.369111	0.516149
48220	-9.527891	1.034216	-2.266800	0.066107	0.033580	0.035317	-0.351421	-0.688373	-0.369419	0.515922
48221	-9.470385	0.917611	-2.353011	0.015422	0.165317	-0.012724	-0.351308	-0.688412	-0.369746	0.515713
48222	-9.430704	0.898236	-2.377382	0.018125	0.195697	-0.047529	-0.351031	-0.688517	-0.369825	0.515704
48223	-9.547790	0.920946	-2.349765	0.004130	0.138738	0.062057	-0.350740	-0.688606	-0.369816	0.515791
48224	-9.563010	1.131779	-2.188076	0.112642	-0.109333	0.061274	-0.350433	-0.688670	-0.369823	0.515908
48225	-9.643493	0.822806	-2.276342	-0.128372	0.104387	0.128557	-0.350517	-0.688586	-0.369837	0.515953
48226	-9.499818	0.932885	-2.124320	-0.072736	-0.057234	-0.034089	-0.350357	-0.688595	-0.369702	0.516146
48227	-9.509019	0.881679	-2.196326	-0.084469	0.029878	-0.013982	-0.350541	-0.688481	-0.369763	0.516130
48228	-9.455955	0.703065	-2.255950	-0.201313	0.178718	-0.069678	-0.350468	-0.688528	-0.369528	0.516285
48229	-9.485250	0.960209	-2.218729	-0.000599	0.019109	-0.024206	-0.350245	-0.688680	-0.369060	0.516568
48230	-9.493286	0.934076	-2.262112	-0.004480	0.071563	-0.009270	-0.350126	-0.688799	-0.368575	0.516836
48231	-9.506405	0.944345	-2.255819	-0.000807	0.064200	0.003021	-0.350025	-0.688894	-0.368051	0.517151
48232	-9.563113	1.007755	-2.180634	0.008249	-0.033639	0.047468	-0.350061	-0.688934	-0.367571	0.517415
48233	-9.525372	1.013602	-2.153466	0.007138	-0.046455	0.005424	-0.350307	-0.688882	-0.367204	0.517578
48234	-9.458161	1.004308	-2.097823	-0.015577	-0.071116	-0.073026	-0.350695	-0.688772	-0.366963	0.517633
48235	-9.455576	1.003867	-2.046461	-0.041965	-0.106274	-0.086917	-0.351073	-0.688680	-0.366755	0.517648
48236	-9.579327	1.086812	-2.020818	-0.009647	-0.179511	0.035970	-0.351426	-0.688616	-0.366564	0.517628
48237	-9.465303	0.963523	-1.998784	-0.107378	-0.114685	-0.092050	-0.351750	-0.688563	-0.366381	0.517608
48238	-9.512757	1.130952	-1.942968	-0.000886	-0.247071	-0.041010	-0.351858	-0.688623	-0.366180	0.517597
48239	-9.422512	1.182902	-1.894116	0.035857	-0.299425	-0.133858	-0.352024	-0.688673	-0.366118	0.517461
48240	-9.477647	1.124964	-1.995556	0.017530	-0.190248	-0.063991	-0.352381	-0.688615	-0.366303	0.517165
48241	-9.510867	1.054571	-2.036761	-0.034368	-0.126800	-0.030058	-0.352204	-0.688802	-0.366313	0.517029
48242	-9.466788	0.986485	-2.149727	-0.035446	0.006620	-0.054959	-0.352366	-0.688820	-0.366519	0.516749
48243	-9.510521	0.983760	-2.193511	-0.029644	0.037102	-0.003149	-0.352424	-0.688885	-0.366635	0.516541
48244	-9.494271	0.937043	-2.233953	-0.051555	0.095648	-0.014832	-0.352593	-0.688897	-0.366756	0.516322
48245	-9.487227	0.962453	-2.176207	-0.058324	0.034405	-0.031834	-0.352782	-0.688913	-0.366820	0.516127
48246	-9.502948	1.084382	-2.189854	0.046012	-0.014944	-0.000704	-0.353151	-0.688855	-0.367002	0.515822
48247	-9.457955	0.949992	-2.137185	-0.090542	0.013752	-0.070277	-0.353531	-0.688805	-0.367117	0.515547
48248	-9.476831	1.043647	-2.164179	-0.005855	-0.009569	-0.036028	-0.353817	-0.688806	-0.367174	0.515309
48249	-9.494139	1.140202	-2.091991	0.036418	-0.119603	-0.024964	-0.354211	-0.688740	-0.367352	0.515000
48250	-9.484753	0.984186	-2.168238	-0.067392	0.025243	-0.033872	-0.354634	-0.688669	-0.367537	0.514672
48251	-9.513091	1.006869	-2.197509	-0.045188	0.036997	0.002521	-0.354878	-0.688693	-0.367558	0.514456
48252	-9.513267	1.114254	-2.166525	0.028989	-0.040110	0.007455	-0.355192	-0.688674	-0.367605	0.514230
48253	-9.477234	1.091096	-2.159834	0.008293	-0.026832	-0.031454	-0.355544	-0.688642	-0.367643	0.514003
48254	-9.447895	1.009048	-2.181412	-0.051650	0.038538	-0.064082	-0.355785	-0.688643	-0.367602	0.513865
48255	-9.485008	1.155567	-2.102491	0.028323	-0.103654	-0.029558	-0.355920	-0.688715	-0.367484	0.513759
48256	-9.480236	1.088254	-2.120459	-0.025221	-0.052861	-0.037612	-0.356190	-0.688718	-0.367484	0.513569
48257	-9.478210	1.062603	-2.103193	-0.059521	-0.053393	-0.046285	-0.356399	-0.688764	-0.367475	0.513368
48258	-9.485863	1.141940	-2.119331	0.010340	-0.077866	-0.026421	-0.356575	-0.688837	-0.367431	0.513179
48259	-9.492264	1.173454	-2.158246	0.049273	-0.059619	-0.007989	-0.356772	-0.688884	-0.367447	0.512967
48260	-9.487266	1.122369	-2.137149	-0.008122	-0.051977	-0.023277	-0.356920	-0.688953	-0.367437	0.512778
48261	-9.476219	1.075292	-2.096778	-0.068967	-0.062304	-0.048323	-0.357009	-0.689040	-0.367374	0.512644
48262	-9.539643	1.108736	-2.174393	-0.021669	-0.020781	0.034199	-0.356971	-0.689203	-0.367234	0.512552
48263	-9.492437	1.123162	-2.148929	-0.014659	-0.042950	-0.015561	-0.357063	-0.689298	-0.367114	0.512447
48264	-9.453824	1.039916	-2.219830	-0.050847	0.064855	-0.046569	-0.357132	-0.689409	-0.366993	0.512335
48265	-9.447434	1.133814	-2.210028	0.023704	0.013015	-0.044216	-0.357211	-0.689515	-0.366810	0.512269
48266	-9.490858	1.099548	-2.120145	-0.059597	-0.052173	-0.026262	-0.357364	-0.689584	-0.366663	0.512175
48267	-9.455594	1.143465	-2.162710	0.000946	-0.029501	-0.045794	-0.357451	-0.689699	-0.366460	0.512105
48268	-9.528375	1.195346	-2.150344	0.020669	-0.073482	0.027889	-0.357695	-0.689737	-0.366402	0.511924
48269	-9.535673	1.156648	-2.238009	0.020760	0.022106	0.050104	-0.357789	-0.689833	-0.366212	0.511866
48270	-9.471839	1.195521	-2.098999	0.001612	-0.105483	-0.038248	-0.357842	-0.689934	-0.365978	0.511860
48271	-9.435716	1.190303	-2.164178	0.031143	-0.040067	-0.059193	-0.357744	-0.690114	-0.365673	0.511903
48272	-9.500499	1.284082	-2.064861	0.051356	-0.179826	-0.007738	-0.357694	-0.690252	-0.365468	0.511899
48273	-9.473680	1.175760	-2.115437	-0.016453	-0.079779	-0.035088	-0.357673	-0.690355	-0.365354	0.511855
48274	-9.529178	1.235795	-2.145570	0.035224	-0.090842	0.032433	-0.357646	-0.690463	-0.365224	0.511821
48275	-9.464452	1.308957	-2.039996	0.062623	-0.209492	-0.045242	-0.357461	-0.690631	-0.365087	0.511821
48276	-9.490469	1.383132	-1.963465	0.084913	-0.318693	-0.028594	-0.357298	-0.690797	-0.365119	0.511689
48277	-9.488142	1.384852	-1.870770	0.042884	-0.405597	-0.051740	-0.357019	-0.691014	-0.365265	0.511487
48278	-9.456067	1.269416	-1.896557	-0.040220	-0.332010	-0.090872	-0.356617	-0.691275	-0.365450	0.511283
48279	-9.413189	1.340038	-1.852189	0.009106	-0.413670	-0.134713	-0.355602	-0.691852	-0.365568	0.511124
48280	-9.430440	1.105587	-1.768707	-0.235553	-0.396627	-0.165356	-0.354232	-0.692619	-0.365717	0.510930
48281	-8.896611	0.806632	-1.516659	-0.496491	-0.420064	-0.775125	-0.351889	-0.693982	-0.365671	0.510734
48282	-9.148017	1.936223	-1.127168	0.242545	-1.396930	-0.501665	-0.348560	-0.695897	-0.365758	0.510347
48283	-10.166037	2.558767	-1.728099	0.830152	-1.405424	0.685758	-0.348560	-0.696254	-0.368484	0.507894
48284	-10.319631	0.424177	-3.082960	-0.444453	0.734848	0.931688	-0.349265	-0.696183	-0.371479	0.505319
48285	-9.498743	0.448038	-2.825246	-0.379900	0.598335	0.082080	-0.347962	-0.697096	-0.372148	0.504466
48286	-9.268646	0.859391	-2.660227	-0.056680	0.257951	-0.135225	-0.346296	-0.698410	-0.372266	0.503707
48287	-9.038130	0.707663	-2.435121	-0.252970	0.146050	-0.430099	-0.345703	-0.699249	-0.373076	0.502349
48288	-8.798055	0.280021	-2.651128	-0.492571	0.552230	-0.649448	-0.345665	-0.699911	-0.374339	0.500510
48289	-8.712688	0.271509	-2.715914	-0.476578	0.596399	-0.714452	-0.345605	-0.700723	-0.375519	0.498527
48290	-9.436490	1.354913	-3.251803	0.510335	0.372547	0.240074	-0.347014	-0.700824	-0.377004	0.496283
48291	-9.664066	0.088348	-4.009746	-0.349754	1.584673	0.523962	-0.349524	-0.700432	-0.378706	0.493772
48292	-9.538131	-0.021097	-3.856480	-0.520524	1.535172	0.347090	-0.350646	-0.700568	-0.378328	0.493072
48293	-9.302579	0.727702	-3.209220	-0.117554	0.682425	0.030433	-0.351607	-0.700961	-0.377217	0.492679
48294	-9.122754	1.070845	-2.767070	0.006403	0.196653	-0.221589	-0.353553	-0.700863	-0.376375	0.492071
48295	-9.021529	0.389664	-2.877017	-0.546031	0.664393	-0.374610	-0.356093	-0.700491	-0.375892	0.491137
48296	-9.191398	0.869479	-2.692670	-0.275200	0.278267	-0.203578	-0.357443	-0.700764	-0.374512	0.490821
48297	-9.684242	2.138255	-1.959362	0.370357	-1.012143	0.238880	-0.359680	-0.700693	-0.373951	0.489715
48298	-9.424241	1.125098	-2.114046	-0.421258	-0.322173	-0.103422	-0.363827	-0.699553	-0.374655	0.487739
48299	-9.309429	0.612396	-2.318745	-0.794585	0.145595	-0.233317	-0.366293	-0.699386	-0.374300	0.486404
48300	-9.417996	1.989918	-2.060300	0.241625	-0.702769	0.003157	-0.369019	-0.699116	-0.374123	0.484864
48301	-8.954095	1.147824	-2.144174	-0.387395	-0.137140	-0.543294	-0.373186	-0.698117	-0.375146	0.482317
48302	-8.980579	1.072410	-2.046600	-0.543173	-0.170616	-0.557142	-0.375771	-0.698064	-0.375359	0.480217
48303	-9.491312	2.549929	-2.053620	0.585817	-0.886329	0.171076	-0.378506	-0.698027	-0.375584	0.477943
48304	-9.348087	2.193916	-2.280325	0.349303	-0.480075	0.038562	-0.382398	-0.697320	-0.376644	0.475032
48305	-8.893944	1.580895	-2.761532	0.059851	0.315737	-0.372139	-0.386492	-0.696345	-0.377940	0.472111
48306	-9.401171	1.725842	-2.287975	-0.175634	-0.229800	0.011339	-0.389304	-0.696219	-0.378568	0.469477
48307	-9.288750	2.296838	-2.500760	0.390328	-0.240141	0.066576	-0.392886	-0.695614	-0.379505	0.466623
48308	-9.401059	2.297820	-2.575820	0.333642	-0.167298	0.195067	-0.396401	-0.695093	-0.380587	0.463536
48309	-9.472316	2.408934	-2.474479	0.325740	-0.296944	0.259864	-0.399017	-0.694966	-0.381176	0.460992
48310	-9.350465	2.689874	-2.502188	0.579219	-0.356186	0.210540	-0.400238	-0.695385	-0.381229	0.459254
48311	-9.449978	2.934113	-2.266421	0.655273	-0.680523	0.294498	-0.401866	-0.695325	-0.382069	0.457221
48312	-9.511707	2.303616	-2.786046	0.218493	0.028321	0.360447	-0.403188	-0.695203	-0.382886	0.455555
48313	-9.306429	2.037425	-3.066375	0.109341	0.420191	0.186054	-0.403872	-0.695413	-0.382960	0.454565
48314	-9.372123	1.625431	-3.478801	-0.157273	0.941766	0.270422	-0.403480	-0.696068	-0.382093	0.454641
48315	-9.377400	1.888010	-3.425704	0.055363	0.790453	0.316862	-0.402832	-0.696738	-0.380770	0.455299
48316	-9.570379	2.506023	-2.912461	0.378279	0.055764	0.493065	-0.402362	-0.697264	-0.379370	0.456077
48317	-9.331527	2.275857	-2.953204	0.256580	0.235119	0.230081	-0.402485	-0.697352	-0.378182	0.456819
48318	-9.532454	1.582314	-2.326974	-0.632543	-0.072034	0.106027	-0.401663	-0.697915	-0.376444	0.458118
48319	-9.336057	1.751137	-2.134557	-0.482127	-0.280722	-0.092939	-0.398522	-0.699811	-0.373525	0.460353
48320	-9.473248	3.149668	-1.770938	0.588205	-1.222230	0.235156	-0.396138	-0.701635	-0.371440	0.461319
48321	-9.907189	1.575205	-2.541341	-0.670901	0.036435	0.514006	-0.394944	-0.703189	-0.369967	0.461160
48322	-10.275847	1.222275	-2.577047	-1.103715	0.137329	0.793489	-0.391988	-0.706241	-0.366995	0.461393
48323	-10.027136	1.616633	-2.879893	-0.600950	0.243110	0.724402	-0.387411	-0.710906	-0.361593	0.462358
48324	-10.134786	2.469547	-2.643078	-0.036020	-0.405708	0.940542	-0.383418	-0.715735	-0.356282	0.462360
48325	-10.039588	2.362077	-2.579058	-0.193536	-0.434105	0.807947	-0.380257	-0.720224	-0.350585	0.462355
48326	-9.213413	2.743236	-2.454047	0.281948	-0.613600	0.085711	-0.377779	-0.724142	-0.344798	0.462618
48327	-9.401275	2.904852	-2.051229	0.117315	-1.087046	0.178995	-0.374903	-0.728231	-0.339418	0.462518
48328	-9.837210	2.887796	-1.871757	-0.191737	-1.321313	0.523198	-0.372382	-0.731567	-0.335213	0.462357
48329	-8.019349	3.063363	-2.010376	0.598406	-1.047673	-1.078853	-0.369909	-0.734270	-0.332068	0.462327
48330	-8.375031	3.248600	-2.277972	0.709332	-1.004344	-0.627285	-0.367385	-0.736695	-0.330097	0.461893
48331	-7.924850	2.548615	-2.883703	0.536563	-0.097707	-1.019685	-0.365751	-0.738545	-0.328595	0.461305
48332	-7.644568	2.008493	-3.238963	0.331888	0.498230	-1.291780	-0.363861	-0.740615	-0.326800	0.460756
48333	-7.289110	2.192577	-3.307735	0.623948	0.485852	-1.551078	-0.362137	-0.742355	-0.325291	0.460382
48334	-7.535693	1.705124	-3.558740	0.233322	0.900778	-1.357342	-0.362365	-0.742952	-0.325388	0.459169
48335	-7.848089	1.385926	-4.215286	0.134723	1.564126	-0.934780	-0.363165	-0.743048	-0.326048	0.457912
48336	-8.264077	1.178402	-4.242994	-0.195291	1.635772	-0.594625	-0.364414	-0.742738	-0.326678	0.456972
48337	-8.486286	1.446093	-4.083023	-0.145128	1.341604	-0.380917	-0.366034	-0.742016	-0.326955	0.456652
48338	-8.544776	1.603751	-4.037569	-0.062966	1.237141	-0.307287	-0.367253	-0.741325	-0.326565	0.457075
48339	-8.736411	2.880898	-3.506219	0.673740	0.128491	0.008078	-0.369448	-0.740003	-0.326799	0.457280
48340	-9.287919	2.776768	-3.559542	0.410470	0.197608	0.504211	-0.372808	-0.737936	-0.327686	0.457260
48341	-9.505622	2.777058	-3.162046	0.161824	-0.106329	0.581040	-0.376320	-0.735666	-0.328469	0.457479
48342	-9.204744	2.129320	-2.905552	-0.366438	0.112577	0.064370	-0.380258	-0.733171	-0.329577	0.457432
48343	-9.345496	1.984191	-2.886426	-0.542031	0.208133	0.150716	-0.383587	-0.730993	-0.330473	0.457491
48344	-9.494396	2.663150	-2.719240	-0.095513	-0.239150	0.412950	-0.386396	-0.729001	-0.331323	0.457691
48345	-9.597280	3.336974	-2.631153	0.403467	-0.603779	0.658153	-0.389774	-0.726630	-0.332745	0.457565
48346	-9.332308	1.590831	-2.875087	-0.853208	0.539599	0.029542	-0.392843	-0.724585	-0.333329	0.457759
48347	-8.899107	2.566044	-2.133823	-0.176171	-0.481052	-0.322196	-0.392526	-0.724597	-0.331820	0.459105
48348	-9.203361	3.504233	-1.551125	0.268903	-1.453245	0.046481	-0.393871	-0.723589	-0.332223	0.459251
48349	-9.328791	3.043245	-2.140629	0.086568	-0.713211	0.204986	-0.395506	-0.722383	-0.333440	0.458864
48350	-9.057328	3.389744	-2.345284	0.567111	-0.644559	0.101383	-0.397318	-0.720936	-0.335124	0.458346
48351	-9.231534	2.546153	-2.447512	-0.156441	-0.171639	0.068633	-0.397706	-0.720359	-0.336169	0.458151
48352	-8.569072	2.919033	-1.536310	0.040112	-1.064928	-0.692693	-0.397838	-0.719898	-0.337161	0.458033
48353	-8.738896	0.679247	-2.184968	-1.651737	0.511831	-0.946260	-0.397744	-0.719782	-0.338313	0.457447
48354	-9.270974	3.281838	-2.275886	0.404490	-0.704934	0.249143	-0.396434	-0.720344	-0.339226	0.457024
48355	-9.471837	1.757600	-4.137168	-0.223587	1.592736	0.547535	-0.398030	-0.719203	-0.341192	0.455969
48356	-9.448111	2.683521	-3.698999	0.408592	0.778444	0.645691	-0.396018	-0.719827	-0.340516	0.457239
48357	-9.228579	3.788754	-3.581272	1.401892	0.183914	0.691962	-0.395491	-0.719465	-0.340282	0.458439
48358	-9.025240	2.159817	-3.199375	-0.036418	0.641836	-0.017668	-0.395510	-0.718671	-0.339987	0.459883
48359	-9.108703	2.562067	-2.576043	0.056023	-0.089455	-0.006698	-0.393873	-0.718771	-0.338395	0.462300
48360	-9.047575	2.106353	-2.116179	-0.467248	-0.256477	-0.300098	-0.393658	-0.718141	-0.337565	0.464066
48361	-9.554773	2.781908	-2.291133	0.026734	-0.467207	0.388437	-0.392517	-0.718097	-0.336205	0.466083
48362	-9.393450	2.951831	-3.521687	0.757622	0.564269	0.601725	-0.392825	-0.717182	-0.335651	0.467628
48363	-9.271012	2.720491	-3.310888	0.549952	0.527018	0.372319	-0.391829	-0.716672	-0.334252	0.470242
48364	-9.125642	3.433199	-1.944359	0.668433	-0.967177	0.059613	-0.391282	-0.715679	-0.333427	0.472789
48365	-8.695368	0.974027	-1.993584	-1.204958	0.327495	-0.926002	-0.391441	-0.714359	-0.332990	0.474956
48366	-9.076998	2.692251	-1.987079	0.150388	-0.531577	-0.154359	-0.388706	-0.714908	-0.330980	0.477773
48367	-9.595636	2.403582	-3.606454	0.471211	0.972300	0.660725	-0.389372	-0.713493	-0.330991	0.479335
48368	-9.589241	2.040757	-3.753145	0.273670	1.308704	0.599634	-0.388737	-0.712515	-0.329548	0.482290
48369	-9.338259	2.168645	-3.076772	0.217552	0.720394	0.227530	-0.388016	-0.711494	-0.327411	0.485821
48370	-9.009144	2.877852	-1.890805	0.440429	-0.590330	-0.196081	-0.386379	-0.710785	-0.324821	0.489886
48371	-8.544999	3.641608	-0.176081	0.490326	-2.388764	-0.848170	-0.384710	-0.710011	-0.323324	0.493299
48372	-8.536302	2.682344	-0.156476	-0.278291	-1.908383	-1.073787	-0.385218	-0.708271	-0.324512	0.494623
48373	-8.800273	2.583920	-0.903038	-0.060573	-1.243634	-0.681068	-0.382353	-0.708434	-0.324641	0.496524
48374	-9.533210	4.280969	-0.157437	0.836441	-2.832956	0.212681	-0.380913	-0.707770	-0.327090	0.496969
48375	-9.440700	2.468957	-0.909867	-0.260712	-1.303423	-0.102732	-0.380499	-0.706488	-0.331134	0.496433
48376	-9.574224	2.037943	-1.353887	-0.415312	-0.769793	0.030404	-0.378029	-0.706354	-0.334147	0.496491
48377	-9.876556	1.834503	-1.735333	-0.455767	-0.439297	0.361879	-0.374778	-0.706584	-0.336950	0.496735
48378	-9.552729	1.656011	-1.039935	-0.787675	-0.994811	-0.144824	-0.369426	-0.707846	-0.338615	0.497813
48379	-9.139029	2.280708	-1.540826	0.127223	-0.929730	-0.314475	-0.364028	-0.709228	-0.340940	0.498236
48380	-9.136712	2.253067	-0.958888	-0.127828	-1.520488	-0.477498	-0.358022	-0.710942	-0.343794	0.498184
48381	-9.277435	2.459410	-1.174685	0.144651	-1.589264	-0.275862	-0.352108	-0.712672	-0.347642	0.497255
48382	-9.498753	2.100459	-1.357410	-0.097411	-1.423993	-0.094581	-0.346381	-0.714408	-0.352353	0.495468
48383	-10.098358	1.636281	-0.866504	-0.845943	-1.856748	0.249077	-0.339322	-0.716781	-0.357159	0.493481
48384	-10.558742	1.540028	-0.255755	-1.312250	-2.595264	0.456815	-0.331226	-0.720079	-0.362216	0.490485
48385	-11.787444	1.912226	-0.145748	-1.355527	-3.370310	1.563540	-0.322253	-0.723847	-0.368067	0.486545
48386	-13.449901	0.886765	-0.229538	-2.602639	-3.438773	2.959515	-0.312546	-0.728122	-0.374792	0.481336
48387	-14.705651	0.294536	-0.036907	-3.525589	-3.972557	3.902915	-0.300513	-0.733601	-0.380946	0.475817
48388	-15.957277	0.023349	-0.960347	-3.667555	-3.889770	5.252307	-0.286348	-0.740208	-0.386463	0.469833
48389	-15.914221	1.500775	-0.878138	-2.540898	-5.272403	5.086991	-0.269521	-0.748995	-0.390556	0.462419
48390	-17.297035	2.192408	-2.864618	-1.503555	-5.208797	7.003076	-0.257218	-0.755904	-0.397899	0.451801
48391	-17.115607	1.602770	-6.404639	-0.395119	-2.792053	8.313205	-0.249523	-0.760735	-0.407217	0.439538
48392	-15.457641	-2.046130	-11.171892	-0.981756	2.794565	9.137952	-0.245265	-0.764085	-0.418076	0.425712
48393	-18.979113	-3.430593	-15.493238	-1.491141	4.387106	14.486777	-0.230864	-0.772308	-0.422710	0.414196
48394	-18.703899	-1.260396	-11.978808	-1.383838	0.058666	12.389920	-0.216898	-0.781472	-0.421343	0.405866
48395	-16.766193	0.638257	-10.463938	-0.073365	-1.758533	9.881684	-0.198852	-0.792294	-0.416263	0.399315
48396	-15.702074	1.475250	-9.029465	0.050011	-3.237889	8.068674	-0.186153	-0.801530	-0.414045	0.389183
48397	-13.583929	0.613289	-10.279166	0.386712	-1.332372	7.175913	-0.178964	-0.809002	-0.413640	0.377345
48398	-11.577453	-0.917890	-11.012573	-0.058392	0.716755	6.175489	-0.172952	-0.815455	-0.414082	0.365591
48399	-9.211406	-0.365741	-9.817682	0.502267	0.664349	3.628477	-0.166023	-0.821425	-0.414733	0.354534
48400	-7.263015	0.553797	-9.564438	1.722983	0.784622	2.059326	-0.159761	-0.825933	-0.416405	0.344844
48401	-5.303404	2.079818	-8.000726	2.905598	-0.034605	-0.430966	-0.158908	-0.828292	-0.420125	0.334925
48402	-3.412388	1.660530	-7.663261	3.071098	1.110422	-1.909519	-0.163653	-0.828369	-0.425835	0.325094
48403	-2.193472	0.551843	-7.604836	2.504605	2.500568	-2.711939	-0.170955	-0.826368	-0.433185	0.316608
48404	-0.203854	1.314560	-7.357135	3.732490	3.216353	-4.189657	-0.177907	-0.823599	-0.439833	0.310773
48405	-0.353986	0.629728	-6.667482	2.728655	3.206188	-4.592506	-0.185357	-0.819939	-0.446651	0.306342
48406	1.269798	-0.316463	-5.703195	2.172007	4.241122	-6.416610	-0.190935	-0.816300	-0.452540	0.303983
48407	1.879351	-0.156134	-4.202843	1.992285	3.711484	-7.948389	-0.194285	-0.812689	-0.457679	0.303841
48408	2.644063	0.784523	-3.113589	2.707105	3.108494	-9.256339	-0.198704	-0.808933	-0.462389	0.303875
48409	3.379946	-0.715052	-2.248071	1.376406	3.830074	-10.464556	-0.203649	-0.805290	-0.466439	0.304089
48410	4.472308	-0.659607	-0.573528	1.286449	3.483698	-12.453586	-0.206028	-0.802684	-0.469441	0.304756
48411	4.770272	-1.336008	0.877290	0.337292	3.102902	-13.758344	-0.209518	-0.800206	-0.472300	0.304477
48412	4.927350	-2.253447	1.658812	-0.663924	3.135732	-14.485459	-0.211890	-0.798563	-0.474207	0.304182
48413	4.968464	-1.859084	2.192945	-0.468303	2.635049	-14.890880	-0.212383	-0.797822	-0.475184	0.304260
48414	4.472300	-1.643358	1.875148	-0.372020	2.418910	-14.310325	-0.212305	-0.797581	-0.475825	0.303943
48415	3.706110	-1.318800	1.733519	-0.323423	1.878084	-13.665966	-0.211459	-0.797827	-0.476105	0.303448
48416	3.340180	-1.878732	0.621185	-0.627882	2.603291	-12.623548	-0.210723	-0.798344	-0.476356	0.302205
48417	2.576519	-1.793092	-0.851741	-0.400389	2.996604	-11.012318	-0.208297	-0.799318	-0.476328	0.301355
48418	1.385703	-1.128533	-2.258003	0.164507	2.793028	-9.131329	-0.205904	-0.800072	-0.476779	0.300282
48419	0.568226	-1.939400	-3.646449	-0.443469	3.486282	-7.569946	-0.203686	-0.800651	-0.477169	0.299632
48420	-0.421122	-2.234011	-4.398536	-0.831304	3.430888	-6.340927	-0.200474	-0.801163	-0.477123	0.300502
48421	-1.465244	-1.928023	-4.753701	-0.802170	2.813113	-5.351231	-0.196531	-0.801410	-0.476749	0.303032
48422	-1.756282	-1.734594	-5.930196	-0.319239	3.229268	-4.269221	-0.193132	-0.800999	-0.475927	0.307562
48423	-2.501948	-1.329830	-6.133755	-0.081808	2.679786	-3.610882	-0.189703	-0.799926	-0.475059	0.313768
48424	-3.771385	-1.066429	-6.524599	-0.062451	1.992322	-2.467181	-0.187598	-0.797689	-0.474578	0.321364
48425	-4.826122	-1.448135	-7.748334	-0.207355	2.294081	-0.861879	-0.187113	-0.794315	-0.474415	0.330125
48426	-4.797455	-2.709824	-7.619517	-1.174645	2.927447	-0.954792	-0.185109	-0.790837	-0.473505	0.340741
48427	-6.170778	-2.240990	-7.288532	-1.108191	1.723476	-0.220032	-0.181481	-0.787306	-0.471805	0.353007
48428	-7.772056	-2.328586	-7.675422	-1.253648	1.142361	1.226025	-0.180072	-0.782517	-0.469569	0.367077
48429	-8.830360	-1.228965	-6.606018	-0.753233	-0.532897	1.244569	-0.178870	-0.777262	-0.466480	0.382447
48430	-10.176796	0.202240	-7.627031	0.847840	-1.143135	2.826029	-0.185245	-0.769076	-0.465536	0.396842
48431	-10.037101	0.002567	-8.107758	1.176286	-0.266554	3.032770	-0.196187	-0.759803	-0.465562	0.409221
48432	-10.687390	-1.577872	-8.889284	0.174263	1.136171	4.129613	-0.210246	-0.750278	-0.465994	0.419202
48433	-10.903265	-1.973685	-8.967788	-0.058005	1.726277	4.336409	-0.221607	-0.742240	-0.464560	0.429132
48434	-12.747673	-1.300934	-9.806609	0.678745	1.567256	6.231698	-0.232243	-0.734755	-0.460881	0.440213
48435	-13.739559	0.158303	-6.504069	0.487424	-1.539273	5.302689	-0.241648	-0.728370	-0.455338	0.451387
48436	-13.855855	-0.112889	-7.884593	0.972816	0.158650	6.098155	-0.258704	-0.718258	-0.452504	0.460888
48437	-13.023223	-0.275097	-7.003842	0.669339	0.506955	4.952177	-0.273902	-0.709119	-0.448815	0.469779
48438	-14.338011	-0.222559	-7.717385	0.881889	1.156873	6.405702	-0.289281	-0.699963	-0.444604	0.478222
48439	-14.842353	0.324865	-6.264677	0.759348	0.159223	6.281217	-0.302450	-0.691900	-0.438248	0.487583
48440	-14.709269	0.049978	-5.184744	0.175561	-0.006226	5.781847	-0.312363	-0.685558	-0.429357	0.498088
48441	-13.756453	1.786964	-7.694066	3.036798	2.156799	5.605945	-0.321103	-0.679381	-0.420208	0.508685
48442	-13.867910	0.796637	-2.556442	-0.002797	-1.473656	4.234128	-0.321373	-0.680117	-0.410172	0.515674
48443	-16.814563	1.882802	1.775909	-1.402917	-6.026408	6.034189	-0.320746	-0.680496	-0.394308	0.527796
48444	-14.628745	6.100562	4.183431	1.325978	-9.287871	3.628882	-0.325538	-0.678109	-0.380834	0.537734
48445	-14.773563	-0.963515	0.605742	-3.080910	-2.268947	4.501333	-0.341977	-0.669379	-0.374799	0.542687
48446	-16.794821	-9.264081	1.661326	-11.030598	1.138367	5.924531	-0.351305	-0.663671	-0.366823	0.549150
48447	-11.742233	-7.093087	-1.224033	-6.970545	3.615465	1.500916	-0.342970	-0.667466	-0.345736	0.563318
48448	-10.196363	5.129681	3.493096	0.962605	-6.470483	0.170732	-0.325844	-0.678410	-0.319800	0.575598
48449	-7.168032	12.057697	4.177818	6.243741	-10.884858	-2.279223	-0.329859	-0.678629	-0.311648	0.577522
48450	-7.238692	8.221790	3.225557	3.758085	-7.704471	-2.268732	-0.343741	-0.673889	-0.317914	0.571530
48451	-9.229144	0.975025	2.123070	-1.723568	-2.639991	-0.829658	-0.354957	-0.669353	-0.324270	0.566411
48452	-9.719651	1.336870	1.518170	-1.181534	-2.338464	-0.236727	-0.355863	-0.670874	-0.323530	0.564463
48453	-10.225051	2.151758	-0.531849	0.463147	-1.093350	0.582238	-0.357425	-0.671836	-0.324850	0.561565
48454	-10.476352	1.850697	-1.544525	0.660080	-0.093225	0.916710	-0.362946	-0.670379	-0.329799	0.556861
48455	-9.992842	-0.676477	-4.032675	-0.177254	3.381540	0.439633	-0.368157	-0.668709	-0.333590	0.553179
48456	-9.450165	0.653320	-2.885667	0.407053	1.740471	-0.072847	-0.367885	-0.670278	-0.332275	0.552250
48457	-9.313814	1.400174	-2.165135	0.672234	0.741266	-0.200507	-0.367014	-0.671936	-0.329675	0.552374
48458	-9.559630	1.968565	-0.722448	0.349723	-0.790805	-0.064050	-0.366607	-0.673231	-0.327561	0.552325
48459	-9.657488	1.183178	-0.952297	-0.238791	-0.174587	-0.040980	-0.367808	-0.673507	-0.326697	0.551702
48460	-9.740641	1.300859	-1.031002	-0.141139	-0.156257	0.066121	-0.368949	-0.673918	-0.326081	0.550802
48461	-9.614000	1.667399	-1.065442	0.179962	-0.300361	-0.003421	-0.370437	-0.674127	-0.325819	0.549701
48462	-9.581317	1.752026	-1.330866	0.363987	-0.104434	0.010701	-0.371799	-0.674395	-0.325692	0.548526
48463	-9.703117	1.562128	-1.287051	0.133325	-0.035710	0.098323	-0.373245	-0.674434	-0.325686	0.547499
48464	-9.632395	1.388581	-1.338953	0.004460	0.109086	0.010348	-0.373369	-0.675144	-0.324751	0.547095
48465	-9.592328	2.013926	-0.916754	0.306995	-0.572013	0.010124	-0.373421	-0.675797	-0.324019	0.546688
48466	-9.413402	1.732367	-0.913209	0.085858	-0.422380	-0.207408	-0.373876	-0.676127	-0.323904	0.546036
48467	-9.451216	1.824020	-1.017720	0.193253	-0.382713	-0.142917	-0.374486	-0.676342	-0.324257	0.545141
48468	-9.572004	1.516337	-1.389541	0.082520	0.088005	-0.022958	-0.375228	-0.676409	-0.324807	0.544219
48469	-9.548695	1.549423	-1.531208	0.173099	0.189563	-0.022030	-0.375569	-0.676627	-0.325134	0.543518
48470	-9.736438	1.613664	-1.573271	0.200146	0.183125	0.177494	-0.376016	-0.676711	-0.325415	0.542935
48471	-9.620304	1.469212	-1.636162	0.123930	0.315397	0.049920	-0.376398	-0.676763	-0.325494	0.542559
48472	-9.530760	1.447025	-1.216810	-0.092357	-0.029434	-0.096695	-0.376472	-0.676989	-0.325341	0.542317
48473	-9.425509	1.244311	-1.447151	-0.134424	0.274909	-0.200761	-0.376272	-0.677335	-0.324937	0.542266
48474	-9.652897	1.981868	-0.979284	0.203128	-0.515610	0.074582	-0.376103	-0.677679	-0.324771	0.542053
48475	-9.535646	1.377591	-1.600112	0.020749	0.330920	-0.051708	-0.376527	-0.677553	-0.324887	0.541847
48476	-9.748772	1.957419	-1.132035	0.230683	-0.377878	0.185089	-0.375610	-0.678193	-0.324207	0.542090
48477	-9.651454	1.641538	-1.294539	0.064018	-0.074891	0.062095	-0.375747	-0.678079	-0.324127	0.542186
48478	-9.530781	1.746492	-1.133288	0.097427	-0.265490	-0.061258	-0.374739	-0.678620	-0.323572	0.542538
48479	-9.605580	1.584942	-0.969550	-0.134345	-0.330230	-0.035564	-0.374660	-0.678584	-0.323696	0.542563
48480	-9.511129	1.432865	-1.268963	-0.091474	0.002020	-0.111318	-0.373930	-0.678957	-0.323530	0.542699
48481	-9.648953	1.839031	-1.112556	0.144511	-0.355817	0.065299	-0.373696	-0.679057	-0.323802	0.542572
48482	-9.579538	1.363535	-1.373649	-0.109206	0.110566	-0.040813	-0.373856	-0.678906	-0.324335	0.542334
48483	-9.557819	1.480593	-1.501740	0.059183	0.153672	-0.026362	-0.373345	-0.679145	-0.324396	0.542350
48484	-9.649146	1.770986	-1.182345	0.126532	-0.279825	0.063852	-0.373368	-0.679056	-0.324792	0.542209
48485	-9.531504	1.056895	-1.585392	-0.246048	0.435812	-0.105495	-0.373386	-0.678906	-0.325111	0.542192
48486	-9.579511	1.542156	-1.370177	0.048536	-0.006889	-0.013695	-0.372507	-0.679283	-0.324802	0.542511
48487	-9.617395	1.930282	-1.275848	0.323847	-0.297429	0.069353	-0.372232	-0.679278	-0.324960	0.542610
48488	-9.532861	1.393661	-1.302971	-0.092076	0.002878	-0.091217	-0.372006	-0.679208	-0.325250	0.542678
48489	-9.523209	1.587108	-1.190588	0.022007	-0.201202	-0.087106	-0.370955	-0.679555	-0.324999	0.543114
48490	-9.605734	1.816355	-1.038797	0.128356	-0.464604	0.006479	-0.370249	-0.679680	-0.325194	0.543322
48491	-9.598467	1.520308	-1.367482	0.054477	-0.040178	0.000942	-0.369808	-0.679631	-0.325640	0.543417
48492	-9.695650	1.491457	-1.337862	0.004283	-0.065775	0.087595	-0.369046	-0.679734	-0.325932	0.543632
48493	-9.650470	1.594630	-1.198132	0.038348	-0.249203	0.038523	-0.368265	-0.679819	-0.326202	0.543893
48494	-9.525810	1.450568	-1.281140	-0.006538	-0.108899	-0.092883	-0.367742	-0.679745	-0.326687	0.544047
48495	-9.583189	1.158899	-1.372050	-0.207139	0.106757	-0.065443	-0.366965	-0.679826	-0.327028	0.544267
48496	-9.623528	1.384830	-1.346317	-0.029162	-0.048889	0.002574	-0.366069	-0.679998	-0.327240	0.544528
48497	-9.649116	1.445581	-1.292761	-0.002246	-0.140088	0.028387	-0.365709	-0.679916	-0.327877	0.544489
48498	-9.665643	1.226281	-1.432073	-0.111800	0.081647	0.034143	-0.365451	-0.679789	-0.328569	0.544404
48499	-9.480443	1.273283	-1.371949	-0.060346	0.004196	-0.149426	-0.364860	-0.679864	-0.328953	0.544475
48500	-9.417970	1.483619	-1.316787	0.106553	-0.161874	-0.190024	-0.364329	-0.679934	-0.329409	0.544467
48501	-9.629509	1.153049	-1.561884	-0.081722	0.197618	0.008245	-0.364076	-0.679847	-0.329987	0.544394
48502	-9.578282	0.934737	-1.727929	-0.165205	0.447371	-0.046649	-0.363693	-0.679810	-0.330329	0.544489
48503	-9.664673	0.947703	-1.931837	-0.059959	0.602507	0.070097	-0.362979	-0.679953	-0.330089	0.544933
48504	-9.712324	1.147590	-1.816075	0.048025	0.395005	0.126427	-0.362585	-0.679929	-0.329720	0.545448
48505	-9.630116	1.187780	-1.659443	0.025325	0.249558	0.028084	-0.362350	-0.679792	-0.329317	0.546018
48506	-9.558683	1.175511	-1.538268	-0.025193	0.164557	-0.061340	-0.362250	-0.679561	-0.328894	0.546626
48507	-9.600785	1.220349	-1.289614	-0.115180	-0.063589	-0.049997	-0.362042	-0.679444	-0.328334	0.547246
48508	-9.584292	1.341217	-1.182933	-0.059108	-0.209836	-0.065415	-0.361664	-0.679438	-0.327681	0.547895
48509	-9.698767	1.605910	-0.979430	0.042427	-0.521827	0.052919	-0.361535	-0.679290	-0.327274	0.548407
48510	-9.587573	1.443005	-1.172008	0.031452	-0.259948	-0.050062	-0.361809	-0.678958	-0.327333	0.548601
48511	-9.623385	1.290289	-1.163748	-0.101873	-0.181815	-0.035916	-0.361977	-0.678649	-0.327416	0.548823
48512	-9.652276	1.286237	-1.191118	-0.090927	-0.153461	-0.004131	-0.362135	-0.678364	-0.327528	0.549005
48513	-9.584112	1.215922	-1.382517	-0.033604	0.053857	-0.053538	-0.362320	-0.678073	-0.327575	0.549213
48514	-9.610119	1.201071	-1.209764	-0.134900	-0.081907	-0.053816	-0.362151	-0.678002	-0.327387	0.549525
48515	-9.602505	1.319281	-1.220120	-0.025042	-0.132492	-0.044417	-0.362230	-0.677823	-0.327364	0.549707
48516	-9.597180	1.280627	-1.231042	-0.047646	-0.099413	-0.053119	-0.362369	-0.677647	-0.327464	0.549773
48517	-9.593517	1.340284	-1.234695	0.007572	-0.124767	-0.048428	-0.362655	-0.677381	-0.327667	0.549791
48518	-9.542690	1.230553	-1.305028	-0.036732	-0.002535	-0.102953	-0.362735	-0.677271	-0.327787	0.549804
48519	-9.590433	1.420346	-1.150550	0.036269	-0.235975	-0.052536	-0.362816	-0.677138	-0.327993	0.549791
48520	-9.606893	1.225925	-1.181840	-0.111971	-0.108624	-0.057294	-0.362867	-0.677062	-0.328252	0.549696
48521	-9.610436	1.351980	-1.195136	0.001321	-0.166533	-0.035728	-0.362921	-0.676966	-0.328554	0.549598
48522	-9.659636	1.245064	-1.320324	-0.031710	-0.008669	0.015890	-0.363033	-0.676846	-0.328895	0.549468
48523	-9.588645	1.104225	-1.453467	-0.067640	0.180072	-0.053743	-0.362991	-0.676817	-0.329018	0.549458
48524	-9.620688	1.249669	-1.412131	0.029035	0.064932	-0.009200	-0.362813	-0.676854	-0.328992	0.549545
48525	-9.615323	1.251248	-1.473593	0.064683	0.115966	-0.005858	-0.362838	-0.676766	-0.329045	0.549604
48526	-9.596561	1.222153	-1.308637	-0.038692	-0.007031	-0.050586	-0.362752	-0.676729	-0.329004	0.549732
48527	-9.592655	1.213515	-1.341140	-0.026399	0.026724	-0.051084	-0.362889	-0.676575	-0.329072	0.549790
48528	-9.667027	1.257442	-1.166196	-0.090681	-0.146351	0.003775	-0.362962	-0.676473	-0.329107	0.549847
48529	-9.641825	1.258001	-1.210279	-0.062002	-0.105900	-0.014877	-0.363201	-0.676316	-0.329236	0.549805
48530	-9.627822	1.226299	-1.205353	-0.088164	-0.090721	-0.033339	-0.363289	-0.676253	-0.329263	0.549808
48531	-9.617344	1.322116	-1.213060	-0.001508	-0.133331	-0.030304	-0.363356	-0.676205	-0.329332	0.549781
48532	-9.670736	1.225950	-1.301676	-0.046249	-0.009367	0.021855	-0.363458	-0.676126	-0.329401	0.549770
48533	-9.642296	1.301694	-1.253861	-0.001590	-0.088453	-0.002865	-0.363218	-0.676261	-0.329191	0.549888
48534	-9.621745	1.304015	-1.252560	0.003619	-0.090536	-0.022941	-0.363136	-0.676294	-0.329131	0.549938
48535	-9.628685	1.263261	-1.238605	-0.038960	-0.082074	-0.023239	-0.363049	-0.676355	-0.329106	0.549934
48536	-9.612727	1.314836	-1.249756	0.012787	-0.100078	-0.030815	-0.363039	-0.676359	-0.329149	0.549912
48537	-9.628386	1.263326	-1.240865	-0.037924	-0.082334	-0.023237	-0.363036	-0.676367	-0.329238	0.549851
48538	-9.656429	1.234746	-1.349412	-0.011598	0.023145	0.015409	-0.363190	-0.676278	-0.329370	0.549779
48539	-9.687479	1.205593	-1.315795	-0.058995	0.008335	0.037616	-0.363058	-0.676361	-0.329275	0.549821
48540	-9.630372	1.288788	-1.248614	-0.013134	-0.090598	-0.016990	-0.362939	-0.676420	-0.329189	0.549878
48541	-9.629743	1.199306	-1.364171	-0.028505	0.054098	-0.013325	-0.362795	-0.676477	-0.329066	0.549976
48542	-9.637144	1.293776	-1.295164	0.014771	-0.055644	-0.003378	-0.362452	-0.676657	-0.328785	0.550150
48543	-9.624222	1.295742	-1.325071	0.035188	-0.031169	-0.011758	-0.362392	-0.676630	-0.328719	0.550261
48544	-9.638778	1.186741	-1.368515	-0.035170	0.063009	-0.005444	-0.362152	-0.676729	-0.328471	0.550445
48545	-9.604126	1.296947	-1.321526	0.040883	-0.033382	-0.031841	-0.361940	-0.676785	-0.328267	0.550638
48546	-9.592208	1.246988	-1.276559	-0.020341	-0.044121	-0.056014	-0.361778	-0.676825	-0.328107	0.550791
48547	-9.633258	1.336607	-1.178215	-0.001622	-0.176545	-0.017627	-0.361663	-0.676826	-0.328012	0.550922
48548	-9.598001	1.289163	-1.272891	0.015590	-0.068930	-0.045455	-0.361700	-0.676728	-0.328070	0.550982
48549	-9.591367	1.282225	-1.227096	-0.010737	-0.104251	-0.059063	-0.361521	-0.676763	-0.328067	0.551059
48550	-9.624058	1.259182	-1.300562	0.003839	-0.032723	-0.019914	-0.361513	-0.676690	-0.328169	0.551093
48551	-9.638866	1.216672	-1.317212	-0.023524	0.002320	-0.008478	-0.361358	-0.676681	-0.328174	0.551204
48552	-9.646721	1.214330	-1.348729	-0.007822	0.028773	0.003218	-0.361185	-0.676666	-0.328139	0.551356
48553	-9.640259	1.206318	-1.302531	-0.034131	-0.006562	-0.010383	-0.360889	-0.676723	-0.327953	0.551590
48554	-9.616034	1.198080	-1.333971	-0.017149	0.025283	-0.030967	-0.360632	-0.676739	-0.327766	0.551850
48555	-9.609954	1.163044	-1.360824	-0.028143	0.067050	-0.037696	-0.360325	-0.676805	-0.327507	0.552123
48556	-9.645266	1.259613	-1.337123	0.037315	-0.005589	0.005879	-0.360074	-0.676830	-0.327245	0.552412
48557	-9.662328	1.106211	-1.410768	-0.052616	0.139718	0.013413	-0.359967	-0.676792	-0.327022	0.552660
48558	-9.652969	1.245181	-1.241052	-0.020041	-0.074308	-0.001237	-0.359775	-0.676795	-0.326685	0.552980
48559	-9.698002	1.254403	-1.219458	-0.029002	-0.095838	0.041338	-0.359787	-0.676719	-0.326477	0.553189
48560	-9.606586	1.240689	-1.169135	-0.048088	-0.122269	-0.056899	-0.359847	-0.676584	-0.326343	0.553394
48561	-9.636813	1.222753	-1.157990	-0.072101	-0.119824	-0.030833	-0.359760	-0.676583	-0.326105	0.553592
48562	-9.596752	1.269037	-1.198365	-0.003895	-0.105915	-0.059076	-0.359778	-0.676520	-0.325971	0.553735
48563	-9.649595	1.205029	-1.223375	-0.052243	-0.050398	-0.011761	-0.359731	-0.676508	-0.325823	0.553868
48564	-9.604145	1.207375	-1.266025	-0.018902	-0.011827	-0.050532	-0.359654	-0.676512	-0.325652	0.554013
48565	-9.640746	1.268226	-1.288974	0.038610	-0.024682	-0.003929	-0.359664	-0.676466	-0.325533	0.554133
48566	-9.652076	1.146831	-1.350088	-0.031582	0.094719	0.000088	-0.359794	-0.676355	-0.325455	0.554230
48567	-9.619666	1.147919	-1.360788	-0.018122	0.108639	-0.030289	-0.359771	-0.676323	-0.325190	0.554440
48568	-9.650241	1.216162	-1.221731	-0.037895	-0.042398	-0.009851	-0.359681	-0.676332	-0.324852	0.554686
48569	-9.625194	1.308105	-1.149925	0.006659	-0.146780	-0.032287	-0.359744	-0.676269	-0.324618	0.554858
48570	-9.587977	1.192895	-1.174323	-0.069384	-0.057835	-0.080104	-0.359898	-0.676167	-0.324486	0.554960
48571	-9.606147	1.236492	-1.139740	-0.053885	-0.107218	-0.061196	-0.359848	-0.676186	-0.324227	0.555120
48572	-9.636256	1.350821	-1.063827	-0.003646	-0.231660	-0.026974	-0.359766	-0.676244	-0.324020	0.555224
48573	-9.609753	1.299434	-1.176171	0.017075	-0.106150	-0.045001	-0.359996	-0.676109	-0.324095	0.555196
48574	-9.670884	1.230535	-1.220177	-0.027684	-0.032722	0.012139	-0.359976	-0.676110	-0.324042	0.555238
48575	-9.647788	1.260162	-1.285480	0.035883	0.008397	0.001533	-0.359980	-0.676075	-0.323957	0.555328
48576	-9.615463	1.209098	-1.224392	-0.032342	-0.012883	-0.044526	-0.359880	-0.676117	-0.323798	0.555434
48577	-9.607050	1.282987	-1.179092	0.007604	-0.090059	-0.049309	-0.359727	-0.676168	-0.323646	0.555559
48578	-9.656372	1.273081	-1.200032	0.002345	-0.068442	0.000652	-0.359801	-0.676119	-0.323655	0.555566
48579	-9.618975	1.224356	-1.201138	-0.030746	-0.038589	-0.042117	-0.359836	-0.676081	-0.323646	0.555595
48580	-9.640008	1.217174	-1.188660	-0.046546	-0.045465	-0.023922	-0.359796	-0.676092	-0.323597	0.555636
48581	-9.633544	1.252841	-1.189923	-0.014599	-0.062852	-0.025628	-0.359821	-0.676056	-0.323592	0.555667
48582	-9.648328	1.212525	-1.205752	-0.041931	-0.027850	-0.014129	-0.359786	-0.676062	-0.323546	0.555709
48583	-9.636472	1.272603	-1.181457	-0.001896	-0.079758	-0.021334	-0.359814	-0.676008	-0.323576	0.555740
48584	-9.621556	1.250300	-1.204031	-0.004726	-0.047292	-0.035928	-0.359846	-0.675933	-0.323597	0.555797
48585	-9.659617	1.294819	-1.186885	0.017815	-0.086064	0.004935	-0.359947	-0.675850	-0.323660	0.555796
48586	-9.593517	1.253534	-1.167856	-0.014188	-0.075984	-0.067698	-0.360088	-0.675733	-0.323787	0.555773
48587	-9.621069	1.210576	-1.153728	-0.061401	-0.065642	-0.047778	-0.360097	-0.675705	-0.323865	0.555755
48588	-9.629910	1.330760	-1.092136	0.005173	-0.183397	-0.031829	-0.360200	-0.675644	-0.324067	0.555646
48589	-9.635460	1.221032	-1.245487	-0.006556	0.004484	-0.020640	-0.360498	-0.675456	-0.324377	0.555500
48590	-9.656447	1.213665	-1.233521	-0.022355	-0.002359	-0.002437	-0.360590	-0.675396	-0.324542	0.555417
48591	-9.616950	1.185663	-1.290045	-0.008782	0.062103	-0.037627	-0.360773	-0.675257	-0.324722	0.555362
48592	-9.630560	1.240767	-1.205793	-0.008538	-0.039042	-0.028029	-0.360686	-0.675288	-0.324713	0.555386
48593	-9.590928	1.297470	-1.134978	0.009218	-0.128001	-0.068919	-0.360812	-0.675190	-0.324879	0.555326
48594	-9.642975	1.192338	-1.115773	-0.097427	-0.090504	-0.033327	-0.360908	-0.675144	-0.325064	0.555211
48595	-9.664986	1.288070	-1.111510	-0.023689	-0.147190	-0.000230	-0.361080	-0.675047	-0.325313	0.555071
48596	-9.610196	1.237839	-1.193528	-0.013484	-0.050131	-0.050007	-0.361140	-0.675021	-0.325508	0.554950
48597	-9.625116	1.259587	-1.171519	-0.009603	-0.082850	-0.035422	-0.361197	-0.674987	-0.325707	0.554836
48598	-9.657809	1.191338	-1.185954	-0.064856	-0.037910	-0.009963	-0.361154	-0.675012	-0.325848	0.554752
48599	-9.659778	1.283463	-1.167741	0.001904	-0.105183	0.001136	-0.361174	-0.675025	-0.326003	0.554632
48600	-9.620539	1.182053	-1.240182	-0.039237	0.009759	-0.040869	-0.361307	-0.674980	-0.326257	0.554451
48601	-9.641731	1.236773	-1.190194	-0.023785	-0.064861	-0.019610	-0.361306	-0.674990	-0.326431	0.554336
48602	-9.588757	1.232902	-1.192093	-0.017462	-0.061486	-0.071983	-0.361375	-0.674979	-0.326650	0.554176
48603	-9.659206	1.209436	-1.191706	-0.050722	-0.055212	-0.005673	-0.361396	-0.675019	-0.326851	0.553995
48604	-9.703219	1.218653	-1.177498	-0.059608	-0.076744	0.036914	-0.361483	-0.675026	-0.327034	0.553822
48605	-9.596345	1.155073	-1.232951	-0.067026	0.006569	-0.068989	-0.361534	-0.675050	-0.327186	0.553670
48606	-9.621054	1.202202	-1.250171	-0.024547	-0.007606	-0.036582	-0.361478	-0.675143	-0.327260	0.553548
48607	-9.653354	1.203366	-1.238587	-0.036811	-0.021761	-0.006180	-0.361511	-0.675177	-0.327362	0.553425
48608	-9.595668	1.129843	-1.315320	-0.050017	0.083318	-0.062097	-0.361443	-0.675264	-0.327317	0.553390
48609	-9.655464	1.224657	-1.235223	-0.024141	-0.038610	-0.001904	-0.361428	-0.675348	-0.327284	0.553318
48610	-9.625731	1.171708	-1.257861	-0.053786	0.009186	-0.034813	-0.361419	-0.675444	-0.327235	0.553235
48611	-9.633944	1.231321	-1.237151	-0.018430	-0.040777	-0.021999	-0.361476	-0.675501	-0.327209	0.553143
48612	-9.614666	1.220052	-1.196334	-0.048312	-0.068737	-0.047725	-0.361500	-0.675600	-0.327168	0.553031
48613	-9.622222	1.217405	-1.217020	-0.044290	-0.050975	-0.037934	-0.361531	-0.675704	-0.327143	0.552898
48614	-9.650736	1.274862	-1.199224	-0.013606	-0.099022	-0.005031	-0.361473	-0.675855	-0.327051	0.552806
48615	-9.599143	1.235923	-1.247808	-0.015206	-0.035855	-0.054278	-0.361570	-0.675929	-0.327067	0.552643
48616	-9.619581	1.231285	-1.238120	-0.030997	-0.042681	-0.036054	-0.361673	-0.675985	-0.327069	0.552506
48617	-9.659936	1.208103	-1.330652	-0.012719	0.046719	0.012900	-0.361862	-0.675989	-0.327094	0.552363
48618	-9.650146	1.160021	-1.367132	-0.035319	0.105080	0.001981	-0.361993	-0.676025	-0.327020	0.552276
48619	-9.610356	1.220479	-1.295310	-0.017615	0.016083	-0.038959	-0.362096	-0.676075	-0.326864	0.552240
48620	-9.604977	1.311771	-1.227986	0.022263	-0.086304	-0.041488	-0.362285	-0.676072	-0.326765	0.552178
48621	-9.600047	1.267152	-1.214767	-0.023823	-0.070476	-0.053758	-0.362514	-0.676051	-0.326723	0.552079
48622	-9.624808	1.250208	-1.255192	-0.024306	-0.025517	-0.026257	-0.362736	-0.676029	-0.326696	0.551976
48623	-9.635376	1.268550	-1.265080	-0.008659	-0.024364	-0.012205	-0.362987	-0.676004	-0.326653	0.551867
48624	-9.639028	1.281160	-1.229303	-0.019889	-0.058374	-0.011686	-0.363168	-0.675991	-0.326575	0.551810
48625	-9.598896	1.257190	-1.285252	-0.006407	0.006086	-0.046873	-0.363260	-0.676043	-0.326418	0.551779
48626	-9.629337	1.299757	-1.222964	-0.010727	-0.067954	-0.019608	-0.363360	-0.676067	-0.326259	0.551777
48627	-9.581547	1.212689	-1.287504	-0.043773	0.037718	-0.069434	-0.363417	-0.676114	-0.326061	0.551798
48628	-9.616310	1.303948	-1.237580	-0.001512	-0.052251	-0.029919	-0.363358	-0.676238	-0.325779	0.551853
48629	-9.641964	1.343476	-1.223964	0.017628	-0.083681	-0.001307	-0.363437	-0.676284	-0.325604	0.551847
48630	-9.615251	1.270624	-1.189190	-0.058783	-0.070403	-0.041644	-0.363592	-0.676283	-0.325484	0.551817
48631	-9.571818	1.232930	-1.266138	-0.045210	0.019357	-0.079214	-0.363649	-0.676360	-0.325271	0.551810
48632	-9.636309	1.306044	-1.210063	-0.027294	-0.068015	-0.013551	-0.363549	-0.676511	-0.325006	0.551847
48633	-9.626944	1.320380	-1.205287	-0.018633	-0.077394	-0.021475	-0.363678	-0.676542	-0.324841	0.551823
48634	-9.662617	1.276407	-1.209932	-0.062254	-0.049046	0.008363	-0.363696	-0.676642	-0.324628	0.551812
48635	-9.663546	1.310512	-1.229385	-0.026725	-0.048460	0.016346	-0.363800	-0.676696	-0.324441	0.551789
48636	-9.630773	1.371320	-1.189276	0.006225	-0.110942	-0.012976	-0.363878	-0.676777	-0.324257	0.551746
48637	-9.569354	1.314366	-1.210696	-0.022341	-0.057671	-0.078107	-0.364049	-0.676804	-0.324160	0.551656
48638	-9.678815	1.370451	-1.211252	0.001634	-0.089456	0.037019	-0.364107	-0.676890	-0.324014	0.551599
48639	-9.615709	1.266964	-1.313938	-0.023186	0.057502	-0.025469	-0.364359	-0.676860	-0.323947	0.551508
48640	-9.598235	1.225001	-1.330735	-0.049386	0.097954	-0.046134	-0.364414	-0.676950	-0.323698	0.551507
48641	-9.649278	1.364275	-1.263136	0.019682	-0.032585	0.014004	-0.364411	-0.677062	-0.323394	0.551550
48642	-9.613652	1.365326	-1.182943	-0.017295	-0.096305	-0.031266	-0.364525	-0.677112	-0.323155	0.551553
48643	-9.564168	1.357690	-1.247182	0.016010	-0.032501	-0.072524	-0.364659	-0.677136	-0.322977	0.551541
48644	-9.622925	1.352945	-1.157869	-0.047625	-0.104645	-0.027055	-0.364706	-0.677206	-0.322754	0.551553
48645	-9.620096	1.435697	-1.157431	0.019309	-0.146580	-0.018543	-0.364777	-0.677259	-0.322589	0.551538
48646	-9.631175	1.447460	-1.154738	0.023328	-0.154076	-0.006373	-0.364844	-0.677304	-0.322536	0.551470
48647	-9.606862	1.438628	-1.174600	0.028566	-0.130870	-0.028865	-0.364994	-0.677304	-0.322568	0.551352
48648	-9.648140	1.431063	-1.165809	0.008188	-0.135836	0.009488	-0.365014	-0.677344	-0.322607	0.551267
48649	-9.618053	1.387842	-1.214943	0.001863	-0.070675	-0.019621	-0.365100	-0.677340	-0.322675	0.551174
48650	-9.576482	1.335683	-1.266629	-0.007982	0.001780	-0.060901	-0.365070	-0.677369	-0.322691	0.551149
48651	-9.553527	1.297067	-1.360735	0.012634	0.102074	-0.076503	-0.365026	-0.677394	-0.322669	0.551161
48652	-9.715106	1.261633	-1.382710	-0.035265	0.133834	0.080125	-0.364944	-0.677421	-0.322515	0.551272
48653	-9.670024	1.337099	-1.270943	-0.021250	0.001702	0.031704	-0.364714	-0.677536	-0.322208	0.551462
48654	-9.626823	1.437518	-1.165125	0.016106	-0.138367	-0.010632	-0.364650	-0.677560	-0.322007	0.551593
48655	-9.588259	1.363940	-1.159677	-0.040489	-0.100481	-0.059321	-0.364633	-0.677552	-0.321893	0.551681
48656	-9.554995	1.425981	-1.133370	0.004176	-0.154259	-0.086842	-0.364420	-0.677660	-0.321710	0.551795
48657	-9.645096	1.491222	-1.018700	-0.017588	-0.290991	-0.004304	-0.364192	-0.677772	-0.321628	0.551855
48658	-9.658105	1.585388	-0.984381	0.041015	-0.374203	0.016846	-0.364107	-0.677798	-0.321837	0.551758
48659	-9.622299	1.448161	-1.117624	0.003507	-0.190817	-0.019911	-0.364251	-0.677674	-0.322296	0.551548
48660	-9.593576	1.332692	-1.196055	-0.045793	-0.066521	-0.053754	-0.364193	-0.677673	-0.322677	0.551365
48661	-9.526801	1.274781	-1.298575	-0.027673	0.046597	-0.113803	-0.363895	-0.677795	-0.322908	0.551275
48662	-9.584966	1.329610	-1.189922	-0.048265	-0.084632	-0.063541	-0.363587	-0.677938	-0.323124	0.551177
48663	-9.673697	1.322152	-1.249421	-0.039085	-0.041957	0.030394	-0.363306	-0.678042	-0.323386	0.551080
48664	-9.710884	1.403326	-1.286361	0.041966	-0.062803	0.082746	-0.363161	-0.678083	-0.323686	0.550949
48665	-9.624706	1.380856	-1.184317	-0.012802	-0.140292	-0.018583	-0.362951	-0.678154	-0.323994	0.550819
48666	-9.562504	1.262956	-1.279061	-0.049397	-0.001933	-0.082832	-0.362775	-0.678197	-0.324329	0.550686
48667	-9.548712	1.225188	-1.281607	-0.075660	0.013304	-0.101066	-0.362412	-0.678336	-0.324533	0.550632
48668	-9.577870	1.207627	-1.294516	-0.087826	0.024370	-0.073004	-0.362073	-0.678488	-0.324692	0.550574
48669	-9.637945	1.221091	-1.454296	-0.003942	0.142293	0.009519	-0.361799	-0.678609	-0.324844	0.550515
48670	-9.724686	1.275534	-1.377951	-0.013858	0.039519	0.091529	-0.361670	-0.678687	-0.324963	0.550435
48671	-9.624228	1.228164	-1.284147	-0.083809	-0.013953	-0.026168	-0.361494	-0.678792	-0.325044	0.550372
48672	-9.602473	1.324099	-1.185467	-0.051125	-0.152190	-0.048453	-0.361186	-0.678963	-0.325018	0.550380
48673	-9.608397	1.355522	-1.161711	-0.039035	-0.194177	-0.041859	-0.361008	-0.679109	-0.325088	0.550275
48674	-9.582903	1.285329	-1.240153	-0.053452	-0.094580	-0.065366	-0.360861	-0.679234	-0.325267	0.550110
48675	-9.568395	1.291393	-1.289691	-0.021409	-0.061413	-0.072002	-0.360734	-0.679354	-0.325503	0.549907
48676	-9.621667	1.323863	-1.316940	0.008566	-0.064377	-0.011708	-0.360685	-0.679426	-0.325789	0.549680
48677	-9.619760	1.175519	-1.490654	-0.026419	0.156740	-0.008688	-0.360787	-0.679421	-0.326131	0.549417
48678	-9.624032	1.218531	-1.493532	0.009121	0.132018	0.001584	-0.360588	-0.679547	-0.326142	0.549384
48679	-9.704024	1.350696	-1.464311	0.089045	0.029916	0.093262	-0.360547	-0.679585	-0.326197	0.549332
48680	-9.633280	0.865192	-1.541621	-0.263186	0.358932	-0.028663	-0.360645	-0.679519	-0.326117	0.549397
48681	-9.660235	1.249543	-1.264879	-0.091239	-0.079770	0.009061	-0.360313	-0.679764	-0.325652	0.549587
48682	-9.611128	1.310385	-1.395884	0.035308	0.002712	-0.012782	-0.360527	-0.679699	-0.325559	0.549582
48683	-9.605671	1.145358	-1.474991	-0.061630	0.162687	-0.028716	-0.360652	-0.679689	-0.325305	0.549663
48684	-9.640871	1.237438	-1.423108	-0.019181	0.072708	0.010613	-0.360461	-0.679828	-0.324729	0.549957
48685	-9.587501	1.332683	-1.317139	0.014600	-0.059998	-0.044000	-0.360346	-0.679919	-0.324173	0.550248
48686	-9.621961	1.327176	-1.271320	-0.020987	-0.091503	-0.017231	-0.360323	-0.679978	-0.323698	0.550471
48687	-9.593318	1.402010	-1.206652	0.011827	-0.179099	-0.044312	-0.360375	-0.679998	-0.323318	0.550635
48688	-9.576080	1.422520	-1.180129	0.016848	-0.206353	-0.062062	-0.360601	-0.679936	-0.323175	0.550646
48689	-9.638113	1.352088	-1.210021	-0.039274	-0.141651	-0.006367	-0.360750	-0.679917	-0.323028	0.550659
48690	-9.615845	1.367937	-1.233661	-0.010845	-0.126428	-0.022818	-0.360756	-0.679949	-0.322861	0.550714
48691	-9.590089	1.431955	-1.238603	0.049015	-0.153682	-0.038823	-0.360816	-0.679945	-0.322775	0.550729
48692	-9.575178	1.370901	-1.214752	-0.012302	-0.139135	-0.064891	-0.360892	-0.679937	-0.322812	0.550668
48693	-9.597444	1.331735	-1.263830	-0.024345	-0.077569	-0.041551	-0.361006	-0.679908	-0.322912	0.550570
48694	-9.581366	1.316005	-1.301643	-0.015636	-0.036420	-0.054247	-0.361155	-0.679858	-0.323038	0.550460
48695	-9.614402	1.353363	-1.321354	0.018906	-0.041346	-0.014105	-0.361217	-0.679838	-0.323112	0.550401
48696	-9.593304	1.321230	-1.286467	-0.022690	-0.052648	-0.043918	-0.361313	-0.679809	-0.323209	0.550316
48697	-9.602860	1.243365	-1.318575	-0.073260	0.015573	-0.040589	-0.361341	-0.679817	-0.323240	0.550270
48698	-9.605179	1.325787	-1.272492	-0.029803	-0.068979	-0.033589	-0.361147	-0.679954	-0.323140	0.550287
48699	-9.608882	1.460201	-1.159864	0.021592	-0.238460	-0.027456	-0.361104	-0.680023	-0.323193	0.550199
48700	-9.630702	1.397767	-1.297987	0.036697	-0.091241	0.004607	-0.361337	-0.679910	-0.323531	0.549988
48701	-9.647582	1.256616	-1.403358	-0.029802	0.071335	0.016776	-0.361445	-0.679872	-0.323737	0.549841
48702	-9.618708	1.263733	-1.384954	-0.028322	0.051436	-0.013135	-0.361261	-0.679965	-0.323685	0.549879
48703	-9.601141	1.319410	-1.410306	0.035164	0.042061	-0.019388	-0.361175	-0.679983	-0.323674	0.549920
48704	-9.583746	1.299601	-1.354669	-0.006500	0.005516	-0.046818	-0.361009	-0.680064	-0.323583	0.549982
48705	-9.601982	1.237407	-1.317634	-0.080457	0.005984	-0.042381	-0.360936	-0.680080	-0.323553	0.550026
48706	-9.619701	1.278516	-1.287554	-0.064724	-0.043302	-0.023664	-0.360689	-0.680208	-0.323386	0.550129
48707	-9.589628	1.394065	-1.289385	0.038135	-0.104378	-0.037487	-0.360512	-0.680309	-0.323297	0.550173
48708	-9.574765	1.330309	-1.268656	-0.023107	-0.089796	-0.063495	-0.360173	-0.680510	-0.323164	0.550224
48709	-9.570639	1.468469	-1.139460	0.024724	-0.277306	-0.067206	-0.359887	-0.680668	-0.323159	0.550219
48710	-9.600571	1.322510	-1.217414	-0.061639	-0.139402	-0.046477	-0.359734	-0.680758	-0.323326	0.550109
48711	-9.653127	1.422892	-1.217581	0.011428	-0.201566	0.018347	-0.359576	-0.680878	-0.323527	0.549946
48712	-9.596414	1.339919	-1.282973	-0.013696	-0.105108	-0.039186	-0.359594	-0.680894	-0.323921	0.549683
48713	-9.612730	1.259483	-1.351455	-0.048893	-0.010297	-0.024184	-0.359722	-0.680849	-0.324386	0.549380
48714	-9.632418	1.220737	-1.325408	-0.099573	-0.017802	-0.013700	-0.359623	-0.680940	-0.324642	0.549181
48715	-9.619390	1.188185	-1.421134	-0.075440	0.075145	-0.017141	-0.359497	-0.681043	-0.324833	0.549023
48716	-9.627703	1.176268	-1.430665	-0.082890	0.084292	-0.009162	-0.359321	-0.681169	-0.324885	0.548951
48717	-9.648745	1.175478	-1.530194	-0.036423	0.163825	0.025674	-0.359119	-0.681312	-0.324810	0.548950
48718	-9.643684	1.325273	-1.426657	0.034803	-0.006321	0.025559	-0.358833	-0.681477	-0.324620	0.549044
48719	-9.632523	1.248685	-1.456524	-0.011153	0.060059	0.008843	-0.358809	-0.681489	-0.324513	0.549109
48720	-9.601288	1.237934	-1.442341	-0.021231	0.056803	-0.025252	-0.358687	-0.681542	-0.324287	0.549255
48721	-9.621899	1.236653	-1.442961	-0.025133	0.058654	-0.005123	-0.358470	-0.681645	-0.323911	0.549492
48722	-9.646361	1.312578	-1.381920	0.002179	-0.032629	0.020103	-0.358325	-0.681706	-0.323573	0.549710
48723	-9.641983	1.270062	-1.379919	-0.032184	-0.008162	0.009938	-0.358175	-0.681742	-0.323226	0.549966
48724	-9.618237	1.259406	-1.395387	-0.027008	0.015086	-0.012548	-0.358008	-0.681798	-0.322823	0.550242
48725	-9.556991	1.358452	-1.272301	0.003091	-0.135579	-0.077092	-0.357837	-0.681862	-0.322428	0.550507
48726	-9.690194	1.367311	-1.304971	0.003486	-0.114405	0.059457	-0.358113	-0.681689	-0.322315	0.550607
48727	-9.614653	1.222785	-1.382861	-0.060170	0.039325	-0.022698	-0.358270	-0.681563	-0.322138	0.550765
48728	-9.603684	1.315598	-1.373400	0.014866	-0.011844	-0.022518	-0.358573	-0.681370	-0.322017	0.550876
48729	-9.620022	1.273706	-1.369864	-0.024009	0.014515	-0.012540	-0.358835	-0.681204	-0.321849	0.551010
48730	-9.633141	1.366996	-1.219441	-0.027348	-0.155051	-0.008182	-0.359142	-0.680996	-0.321686	0.551162
48731	-9.623109	1.329581	-1.274631	-0.026622	-0.079416	-0.015255	-0.359675	-0.680688	-0.321721	0.551174
48732	-9.623659	1.369347	-1.301244	0.020609	-0.070244	-0.005659	-0.360043	-0.680478	-0.321632	0.551245
48733	-9.573217	1.394156	-1.298869	0.049962	-0.074763	-0.052097	-0.360690	-0.680091	-0.321777	0.551215
48734	-9.639000	1.267986	-1.236008	-0.099492	-0.053974	-0.013044	-0.361064	-0.679870	-0.321760	0.551253
48735	-9.565562	1.287129	-1.361548	-0.003427	0.051207	-0.065490	-0.361340	-0.679692	-0.321643	0.551361
48736	-9.627536	1.329308	-1.187320	-0.070579	-0.114740	-0.022484	-0.361391	-0.679647	-0.321378	0.551536
48737	-9.609762	1.330591	-1.261239	-0.026730	-0.047646	-0.029756	-0.361507	-0.679557	-0.321218	0.551664
48738	-9.527477	1.305793	-1.216587	-0.054865	-0.064608	-0.119865	-0.361437	-0.679591	-0.320927	0.551839
48739	-9.634897	1.376578	-1.256004	0.004890	-0.070584	0.000505	-0.361459	-0.679571	-0.320702	0.551979
48740	-9.661002	1.374950	-1.193400	-0.034148	-0.120003	0.017576	-0.361416	-0.679605	-0.320437	0.552118
48741	-9.619520	1.421786	-1.233962	0.033840	-0.106008	-0.011314	-0.361559	-0.679519	-0.320317	0.552202
48742	-9.663899	1.434378	-1.213550	0.025332	-0.127605	0.031304	-0.361739	-0.679427	-0.320268	0.552225
48743	-9.598534	1.336612	-1.245944	-0.026906	-0.041004	-0.041896	-0.361994	-0.679305	-0.320256	0.552215
48744	-9.604703	1.407458	-1.248172	0.031992	-0.073678	-0.025822	-0.362158	-0.679195	-0.320224	0.552261
48745	-9.592933	1.423553	-1.160855	0.001903	-0.152093	-0.046659	-0.362366	-0.679087	-0.320266	0.552233
48746	-9.627129	1.416609	-1.116854	-0.033496	-0.183640	-0.019787	-0.362738	-0.678889	-0.320486	0.552104
48747	-9.610735	1.291596	-1.273719	-0.052308	0.018903	-0.032416	-0.362991	-0.678751	-0.320648	0.552014
48748	-9.603482	1.385504	-1.220623	-0.000693	-0.074870	-0.033587	-0.363039	-0.678720	-0.320681	0.552000
48749	-9.621502	1.422233	-1.175664	0.003343	-0.132828	-0.016740	-0.363067	-0.678678	-0.320729	0.552007
48750	-9.606713	1.400010	-1.199118	0.000437	-0.100249	-0.031236	-0.363180	-0.678603	-0.320846	0.551956
48751	-9.608983	1.441473	-1.104057	-0.014442	-0.202670	-0.035773	-0.363293	-0.678492	-0.321056	0.551897
48752	-9.588456	1.327163	-1.210964	-0.048620	-0.051938	-0.057626	-0.363264	-0.678460	-0.321252	0.551841
48753	-9.632989	1.449656	-1.088000	-0.017857	-0.226364	-0.013291	-0.363115	-0.678484	-0.321417	0.551814
48754	-9.602697	1.407100	-1.152280	-0.012654	-0.152547	-0.040480	-0.363041	-0.678472	-0.321704	0.551709
