// General information: 
//  MT Manager version: 2021.0.0 
//  XDA version: 2021.0.0 build 5908 rev 109668 built on 2021-04-19
// Device information: 
//  DeviceId: 00B43DF8
//  ProductCode: MTW2-3A7G6
//  Firmware Version: 4.3.5
//  Hardware Version: 1.1.0
// Device settings: 
//  Filter Profile: human(46.1)
//  Option Flags: Orientation Smoother Disabled, Position/Velocity Smoother Disabled, Continuous Zero Rotation Update Disabled, AHS Disabled, ICC Disabled
// Coordinate system: ENU
PacketCounter	Acc_X	Acc_Y	Acc_Z	FreeAcc_E	FreeAcc_N	FreeAcc_U	Quat_q0	Quat_q1	Quat_q2	Quat_q3
47597	-8.499897	-1.256421	4.763963	-0.027240	0.033369	0.011789	-0.597078	-0.312185	-0.394129	0.625060
47598	-8.493126	-1.272020	4.744995	-0.044546	0.045897	-0.001362	-0.597107	-0.312131	-0.394174	0.625032
47599	-8.500497	-1.256192	4.762953	-0.025970	0.034443	0.011789	-0.597145	-0.312087	-0.394225	0.624986
47600	-8.485911	-1.269433	4.755893	-0.040043	0.032861	-0.002592	-0.597189	-0.311994	-0.394297	0.624944
47601	-8.502328	-1.229884	4.738195	-0.000025	0.057717	-0.002012	-0.597233	-0.311943	-0.394349	0.624894
47602	-8.494463	-1.272481	4.742476	-0.042125	0.048258	-0.001363	-0.597263	-0.311925	-0.394392	0.624848
47603	-8.505349	-1.241227	4.757738	-0.009152	0.040187	0.011568	-0.597214	-0.312045	-0.394414	0.624821
47604	-8.495095	-1.237672	4.746868	-0.009107	0.041820	-0.003029	-0.597132	-0.312253	-0.394426	0.624788
47605	-8.502090	-1.252453	4.733614	-0.026075	0.053240	-0.001584	-0.597066	-0.312423	-0.394441	0.624756
47606	-8.499440	-1.252028	4.710960	-0.029157	0.069197	-0.014955	-0.597025	-0.312533	-0.394466	0.624725
47607	-8.499364	-1.277825	4.732815	-0.053341	0.047779	-0.001141	-0.597016	-0.312563	-0.394496	0.624699
47608	-8.493552	-1.247534	4.720008	-0.024676	0.056115	-0.016184	-0.597032	-0.312539	-0.394567	0.624651
47609	-8.516749	-1.237472	4.713425	-0.012739	0.073108	-0.000592	-0.597070	-0.312505	-0.394608	0.624605
47610	-8.493095	-1.274739	4.742194	-0.048254	0.035277	-0.002363	-0.597159	-0.312374	-0.394692	0.624534
47611	-8.496173	-1.280657	4.710251	-0.054793	0.065436	-0.014513	-0.597310	-0.312123	-0.394807	0.624441
47612	-8.495888	-1.277421	4.763975	-0.043370	0.021034	0.011011	-0.597534	-0.311747	-0.394962	0.624317
47613	-8.512618	-1.272887	4.740017	-0.035134	0.053297	0.013227	-0.597784	-0.311301	-0.395160	0.624175
47614	-8.485900	-1.256342	4.756231	-0.014257	0.029836	-0.004042	-0.598050	-0.310801	-0.395403	0.624016
47615	-8.520277	-1.224914	4.737083	0.023022	0.067665	0.012300	-0.598248	-0.310457	-0.395544	0.623908
47616	-8.495542	-1.264285	4.767015	-0.012622	0.029851	0.010552	-0.598321	-0.310302	-0.395615	0.623870
47617	-8.510689	-1.251576	4.772965	0.002701	0.032572	0.024914	-0.598286	-0.310368	-0.395633	0.623859
47618	-8.476399	-1.304583	4.761874	-0.054835	0.022006	-0.003344	-0.598246	-0.310463	-0.395602	0.623870
47619	-8.498467	-1.280000	4.733271	-0.032287	0.057698	-0.001376	-0.598202	-0.310567	-0.395585	0.623871
47620	-8.498852	-1.259398	4.762406	-0.010242	0.032092	0.010548	-0.598150	-0.310691	-0.395558	0.623876
47621	-8.505192	-1.274216	4.750285	-0.027157	0.043581	0.012000	-0.598079	-0.310855	-0.395517	0.623889
47622	-8.509173	-1.257465	4.747099	-0.012299	0.047554	0.011761	-0.598034	-0.310982	-0.395469	0.623899
47623	-8.515683	-1.226789	4.742545	0.016855	0.054766	0.011279	-0.598015	-0.311067	-0.395455	0.623883
47624	-8.494615	-1.253606	4.716485	-0.015395	0.065127	-0.016221	-0.597977	-0.311162	-0.395403	0.623905
47625	-8.516552	-1.269053	4.733973	-0.028068	0.060116	0.013210	-0.597980	-0.311187	-0.395364	0.623915
47626	-8.520808	-1.266807	4.754475	-0.023598	0.045463	0.026591	-0.598026	-0.311107	-0.395346	0.623922
47627	-8.486693	-1.248425	4.729395	-0.010172	0.052777	-0.017443	-0.598090	-0.310981	-0.395334	0.623931
47628	-8.501777	-1.294727	4.752026	-0.051395	0.041179	0.012482	-0.598184	-0.310804	-0.395340	0.623926
47629	-8.483512	-1.277221	4.756013	-0.033762	0.032021	-0.003571	-0.598330	-0.310579	-0.395365	0.623882
47630	-8.509095	-1.267470	4.772602	-0.017997	0.033688	0.025374	-0.598471	-0.310299	-0.395425	0.623848
47631	-8.489971	-1.256956	4.723949	-0.011233	0.069347	-0.016244	-0.598576	-0.310074	-0.395504	0.623809
47632	-8.478089	-1.316116	4.731533	-0.067730	0.056661	-0.015251	-0.598663	-0.309866	-0.395562	0.623793
47633	-8.489904	-1.273384	4.747703	-0.020691	0.051831	-0.002613	-0.598740	-0.309712	-0.395623	0.623756
47634	-8.478956	-1.285961	4.761777	-0.031065	0.034950	-0.003572	-0.598802	-0.309581	-0.395668	0.623733
47635	-8.490898	-1.287940	4.770036	-0.029897	0.034397	0.011024	-0.598847	-0.309504	-0.395711	0.623701
47636	-8.486874	-1.289354	4.749375	-0.033118	0.050280	-0.002366	-0.598844	-0.309498	-0.395736	0.623691
47637	-8.474568	-1.268919	4.770998	-0.011778	0.025794	-0.005033	-0.598811	-0.309534	-0.395743	0.623699
47638	-8.498255	-1.257696	4.763922	0.000400	0.042734	0.010513	-0.598727	-0.309674	-0.395742	0.623712
47639	-8.489989	-1.286132	4.744679	-0.031353	0.051979	-0.002369	-0.598617	-0.309828	-0.395750	0.623735
47640	-8.479322	-1.283231	4.734386	-0.031304	0.053719	-0.016967	-0.598518	-0.309966	-0.395732	0.623773
47641	-8.495282	-1.269024	4.739243	-0.015919	0.056378	-0.002630	-0.598476	-0.310039	-0.395748	0.623767
47642	-8.510872	-1.255001	4.744704	-0.000518	0.059217	0.011705	-0.598453	-0.310082	-0.395725	0.623783
47643	-8.483194	-1.292815	4.752974	-0.039976	0.036737	-0.003316	-0.598434	-0.310089	-0.395715	0.623803
47644	-8.512839	-1.267010	4.766043	-0.009705	0.041616	0.025355	-0.598473	-0.309989	-0.395743	0.623798
47645	-8.489545	-1.278004	4.772530	-0.020640	0.025717	0.009818	-0.598564	-0.309801	-0.395770	0.623787
47646	-8.504114	-1.285291	4.749796	-0.026596	0.054762	0.012219	-0.598672	-0.309576	-0.395828	0.623759
47647	-8.485845	-1.268927	4.753507	-0.009055	0.045475	-0.003844	-0.598758	-0.309338	-0.395896	0.623752
47648	-8.492588	-1.273591	4.742845	-0.011717	0.060333	-0.002647	-0.598820	-0.309175	-0.395902	0.623769
47649	-8.482645	-1.298948	4.779745	-0.032538	0.024787	0.010083	-0.598906	-0.309004	-0.395908	0.623767
47650	-8.480161	-1.287376	4.759249	-0.021475	0.043932	-0.003583	-0.598980	-0.308815	-0.395955	0.623759
47651	-8.474624	-1.271214	4.770288	-0.003495	0.033642	-0.005051	-0.598989	-0.308764	-0.395966	0.623769
47652	-8.471755	-1.330559	4.764301	-0.063325	0.035177	-0.002777	-0.598969	-0.308834	-0.395915	0.623786
47653	-8.480438	-1.286149	4.759088	-0.019814	0.045766	-0.003588	-0.598959	-0.308865	-0.395886	0.623798
47654	-8.465833	-1.298239	4.752360	-0.034041	0.044156	-0.017914	-0.598984	-0.308825	-0.395883	0.623797
47655	-8.491080	-1.273828	4.745481	-0.007761	0.064480	-0.002670	-0.599049	-0.308730	-0.395905	0.623767
47656	-8.487894	-1.288965	4.747658	-0.021466	0.061712	-0.002399	-0.599155	-0.308540	-0.395972	0.623716
47657	-8.479001	-1.288487	4.761015	-0.017628	0.048073	-0.003595	-0.599310	-0.308211	-0.396083	0.623660
47658	-8.477892	-1.291493	4.762176	-0.017062	0.048680	-0.003597	-0.599393	-0.307979	-0.396196	0.623623
47659	-8.482064	-1.291358	4.782227	-0.012592	0.033880	0.009807	-0.599397	-0.307966	-0.396238	0.623599
47660	-8.452423	-1.297529	4.798639	-0.020279	0.003765	-0.006896	-0.599334	-0.308093	-0.396201	0.623621
47661	-8.482964	-1.274345	4.757198	-0.001034	0.053765	-0.003882	-0.599189	-0.308398	-0.396112	0.623665
47662	-8.491771	-1.300349	4.765721	-0.028475	0.046625	0.011273	-0.599058	-0.308692	-0.396032	0.623696
47663	-8.488488	-1.279847	4.773915	-0.010449	0.036363	0.009801	-0.599008	-0.308859	-0.395988	0.623689
47664	-8.496232	-1.308166	4.783759	-0.037889	0.029323	0.024961	-0.598996	-0.308881	-0.396008	0.623677
47665	-8.487468	-1.292040	4.773052	-0.023510	0.034357	0.010080	-0.599020	-0.308853	-0.396051	0.623641
47666	-8.486201	-1.279471	4.750607	-0.012497	0.053575	-0.003615	-0.599069	-0.308753	-0.396129	0.623594
47667	-8.493157	-1.264983	4.769009	0.006137	0.042211	0.009508	-0.599146	-0.308589	-0.396223	0.623542
47668	-8.492621	-1.312323	4.761575	-0.039379	0.047087	0.011550	-0.599202	-0.308446	-0.396317	0.623499
47669	-8.485984	-1.283464	4.749919	-0.010774	0.055473	-0.003624	-0.599258	-0.308344	-0.396394	0.623446
47670	-8.487657	-1.296944	4.771385	-0.020645	0.037465	0.010075	-0.599303	-0.308261	-0.396437	0.623417
47671	-8.472062	-1.291707	4.795424	-0.013609	0.009561	0.007708	-0.599317	-0.308205	-0.396457	0.623419
47672	-8.481687	-1.266200	4.759055	0.008310	0.046286	-0.005105	-0.599251	-0.308372	-0.396417	0.623425
47673	-8.479153	-1.305441	4.782286	-0.030090	0.021651	0.009181	-0.599171	-0.308514	-0.396379	0.623455
47674	-8.503431	-1.247564	4.782289	0.028060	0.034373	0.022610	-0.599070	-0.308685	-0.396348	0.623488
47675	-8.482480	-1.320123	4.748094	-0.050363	0.049063	-0.002761	-0.599010	-0.308789	-0.396325	0.623509
47676	-8.509374	-1.247597	4.746698	0.022164	0.065246	0.010364	-0.598883	-0.309015	-0.396228	0.623580
47677	-8.483957	-1.341707	4.768465	-0.073800	0.028457	0.011248	-0.598792	-0.309213	-0.396124	0.623636
47678	-8.483785	-1.280139	4.752755	-0.016759	0.043375	-0.004534	-0.598735	-0.309364	-0.396049	0.623663
47679	-8.492061	-1.261257	4.769968	0.001892	0.031924	0.008587	-0.598629	-0.309600	-0.395947	0.623712
47680	-8.498843	-1.274575	4.757482	-0.015021	0.043501	0.010061	-0.598477	-0.309899	-0.395835	0.623781
47681	-8.496636	-1.271708	4.734623	-0.018332	0.059361	-0.003362	-0.598320	-0.310246	-0.395726	0.623828
47682	-8.505473	-1.297262	4.743425	-0.045731	0.052315	0.011834	-0.598175	-0.310546	-0.395605	0.623894
47683	-8.502046	-1.276245	4.751962	-0.027655	0.042045	0.010356	-0.598081	-0.310768	-0.395500	0.623940
47684	-8.493868	-1.256991	4.740910	-0.013327	0.046964	-0.004545	-0.598007	-0.310974	-0.395381	0.623985
47685	-8.500885	-1.224067	4.735768	0.015704	0.054146	-0.005154	-0.597823	-0.311346	-0.395228	0.624072
47686	-8.501367	-1.292378	4.750260	-0.054479	0.037155	0.010963	-0.597701	-0.311609	-0.395083	0.624149
47687	-8.498370	-1.244886	4.736033	-0.011741	0.048807	-0.004552	-0.597649	-0.311736	-0.394996	0.624191
47688	-8.497864	-1.270230	4.759196	-0.035882	0.027460	0.009486	-0.597651	-0.311746	-0.394969	0.624201
47689	-8.496995	-1.275242	4.706751	-0.046267	0.072826	-0.016197	-0.597645	-0.311762	-0.394919	0.624231
47690	-8.495323	-1.282680	4.761137	-0.049064	0.025250	0.009795	-0.597694	-0.311716	-0.394909	0.624213
47691	-8.486130	-1.220942	4.758474	0.011206	0.025898	-0.007210	-0.597740	-0.311659	-0.394926	0.624186
47692	-8.490955	-1.283942	4.741009	-0.051823	0.041650	-0.003632	-0.597780	-0.311591	-0.394960	0.624161
47693	-8.511075	-1.242918	4.743970	-0.007928	0.051192	0.010032	-0.597862	-0.311455	-0.395031	0.624105
47694	-8.490979	-1.239955	4.748008	-0.004666	0.038585	-0.005737	-0.597926	-0.311306	-0.395115	0.624065
47695	-8.512423	-1.258154	4.765823	-0.017347	0.033690	0.023772	-0.597980	-0.311197	-0.395184	0.624024
47696	-8.477602	-1.267878	4.763360	-0.028974	0.018898	-0.006279	-0.598024	-0.311091	-0.395227	0.624007
47697	-8.505438	-1.230016	4.754265	0.011617	0.042594	0.008540	-0.598055	-0.311002	-0.395284	0.623986
47698	-8.497302	-1.274028	4.759185	-0.030619	0.033282	0.009486	-0.598118	-0.310860	-0.395358	0.623950
47699	-8.487681	-1.259697	4.749364	-0.016409	0.038316	-0.005431	-0.598161	-0.310740	-0.395429	0.623923
47700	-8.490370	-1.246342	4.747425	-0.001628	0.042241	-0.005751	-0.598180	-0.310670	-0.395476	0.623910
47701	-8.509234	-1.278189	4.766885	-0.028430	0.034075	0.024083	-0.598235	-0.310567	-0.395511	0.623886
47702	-8.487520	-1.261834	4.749084	-0.014804	0.040201	-0.005436	-0.598271	-0.310477	-0.395554	0.623869
47703	-8.494652	-1.246638	4.767307	0.003790	0.028834	0.007679	-0.598277	-0.310424	-0.395595	0.623864
47704	-8.490791	-1.247717	4.746311	0.000338	0.044778	-0.005762	-0.598222	-0.310520	-0.395559	0.623892
47705	-8.482063	-1.276327	4.728053	-0.031473	0.054009	-0.018558	-0.598148	-0.310641	-0.395541	0.623914
47706	-8.499480	-1.274913	4.755056	-0.026570	0.038309	0.009479	-0.598113	-0.310687	-0.395532	0.623930
47707	-8.495491	-1.276132	4.734240	-0.029961	0.054177	-0.003963	-0.598117	-0.310650	-0.395552	0.623932
47708	-8.513119	-1.248834	4.738747	-0.000245	0.060321	0.009983	-0.598127	-0.310618	-0.395560	0.623933
47709	-8.480334	-1.269912	4.757953	-0.022210	0.026851	-0.006279	-0.598127	-0.310624	-0.395545	0.623940
47710	-8.517838	-1.246122	4.758651	0.004670	0.046149	0.023419	-0.598120	-0.310620	-0.395510	0.623971
47711	-8.484719	-1.267342	4.778422	-0.017391	0.012671	0.007163	-0.598139	-0.310570	-0.395489	0.623990
47712	-8.498217	-1.260314	4.732883	-0.013068	0.060276	-0.004300	-0.598158	-0.310505	-0.395480	0.624010
47713	-8.487532	-1.271675	4.747138	-0.023526	0.043241	-0.005127	-0.598188	-0.310460	-0.395459	0.624017
47714	-8.492860	-1.242415	4.744000	0.005513	0.050383	-0.005791	-0.598176	-0.310479	-0.395425	0.624042
47715	-8.507396	-1.274462	4.743556	-0.025206	0.057445	0.010624	-0.598181	-0.310459	-0.395380	0.624074
47716	-8.499703	-1.224995	4.763305	0.024625	0.039480	0.007317	-0.598190	-0.310459	-0.395316	0.624107
47717	-8.462501	-1.311778	4.725581	-0.068736	0.051787	-0.032176	-0.598223	-0.310408	-0.395268	0.624131
47718	-8.471219	-1.262488	4.773682	-0.014372	0.017406	-0.007436	-0.598258	-0.310360	-0.395262	0.624125
47719	-8.457125	-1.293881	4.736722	-0.050075	0.041967	-0.033661	-0.598263	-0.310334	-0.395261	0.624134
47720	-8.488628	-1.280720	4.771093	-0.030335	0.028410	0.008650	-0.598282	-0.310288	-0.395305	0.624111
47721	-8.483660	-1.264027	4.781178	-0.012334	0.018070	0.007162	-0.598326	-0.310203	-0.395352	0.624081
47722	-8.472341	-1.282116	4.742080	-0.033842	0.045876	-0.019400	-0.598364	-0.310118	-0.395426	0.624040
47723	-8.482731	-1.251817	4.757776	-0.000945	0.037868	-0.006630	-0.598321	-0.310202	-0.395441	0.624030
47724	-8.490703	-1.280580	4.767437	-0.028363	0.030749	0.008649	-0.598276	-0.310290	-0.395457	0.624019
47725	-8.497147	-1.251038	4.762357	0.000680	0.037927	0.007965	-0.598229	-0.310354	-0.395492	0.624010
47726	-8.492769	-1.279270	4.764109	-0.027352	0.031901	0.008648	-0.598200	-0.310373	-0.395536	0.624000
47727	-8.488521	-1.262349	4.772988	-0.009302	0.021511	0.007158	-0.598184	-0.310359	-0.395630	0.623963
47728	-8.490189	-1.281479	4.740491	-0.030192	0.048256	-0.004807	-0.598171	-0.310361	-0.395729	0.623911
47729	-8.491103	-1.281806	4.738764	-0.029648	0.048889	-0.004809	-0.598157	-0.310347	-0.395800	0.623887
47730	-8.508480	-1.281850	4.765491	-0.024635	0.033218	0.023245	-0.598156	-0.310338	-0.395879	0.623843
47731	-8.487568	-1.265442	4.746230	-0.011044	0.039205	-0.006302	-0.598181	-0.310270	-0.395982	0.623787
47732	-8.477667	-1.277957	4.758837	-0.021520	0.022226	-0.007098	-0.598222	-0.310176	-0.396093	0.623724
47733	-8.485707	-1.282235	4.745796	-0.024313	0.037023	-0.005957	-0.598279	-0.310042	-0.396219	0.623655
47734	-8.506015	-1.242320	4.748135	0.019633	0.046544	0.007592	-0.598330	-0.309910	-0.396340	0.623596
47735	-8.503240	-1.304158	4.741919	-0.040231	0.048103	0.010132	-0.598392	-0.309761	-0.396461	0.623533
47736	-8.494669	-1.285264	4.784310	-0.015010	0.008230	0.020961	-0.598486	-0.309519	-0.396634	0.623453
47737	-8.507887	-1.281875	4.738120	-0.010667	0.055788	0.009426	-0.598611	-0.309197	-0.396860	0.623349
47738	-8.506828	-1.286731	4.738705	-0.010208	0.056354	0.009423	-0.598779	-0.308781	-0.397073	0.623258
47739	-8.486920	-1.301229	4.766131	-0.017474	0.025208	0.007499	-0.598987	-0.308277	-0.397304	0.623161
47740	-8.510501	-1.302268	4.730418	-0.012475	0.071763	0.010554	-0.599243	-0.307653	-0.397595	0.623037
47741	-8.489145	-1.320264	4.759383	-0.019739	0.040476	0.008634	-0.599600	-0.306806	-0.397973	0.622870
47742	-8.479816	-1.314738	4.774318	-0.001708	0.030101	0.007140	-0.600026	-0.305805	-0.398397	0.622681
47743	-8.480000	-1.344573	4.768871	-0.018712	0.041530	0.008632	-0.600476	-0.304739	-0.398833	0.622491
47744	-8.461925	-1.338164	4.797095	0.002611	0.016900	0.006002	-0.600915	-0.303665	-0.399270	0.622311
47745	-8.437407	-1.366096	4.775821	-0.015631	0.030468	-0.021705	-0.601313	-0.302570	-0.399693	0.622189
47746	-8.441936	-1.394978	4.790179	-0.028769	0.026777	-0.006745	-0.601633	-0.301673	-0.400082	0.622066
47747	-8.452087	-1.420302	4.823002	-0.038087	0.007816	0.021684	-0.601883	-0.300983	-0.400416	0.621943
47748	-8.425773	-1.425300	4.808108	-0.038754	0.010451	-0.007514	-0.602055	-0.300502	-0.400713	0.621818
47749	-8.424968	-1.430984	4.807830	-0.038314	0.010978	-0.007513	-0.602163	-0.300200	-0.400973	0.621692
47750	-8.413187	-1.433147	4.798060	-0.038417	0.012568	-0.022112	-0.602237	-0.300030	-0.401212	0.621547
47751	-8.417095	-1.420952	4.794004	-0.023706	0.016426	-0.022476	-0.602264	-0.299976	-0.401428	0.621408
47752	-8.433703	-1.409467	4.797254	-0.008282	0.019230	-0.008242	-0.602286	-0.299954	-0.401667	0.621243
47753	-8.423731	-1.453934	4.776523	-0.054462	0.025158	-0.020613	-0.602299	-0.300024	-0.401892	0.621050
47754	-8.448430	-1.425490	4.797245	-0.020903	0.016060	0.006725	-0.602291	-0.300118	-0.402125	0.620863
47755	-8.444735	-1.440155	4.772672	-0.038582	0.028569	-0.006379	-0.602270	-0.300275	-0.402361	0.620655
47756	-8.477886	-1.413230	4.780389	-0.008380	0.033760	0.022082	-0.602255	-0.300447	-0.402565	0.620453
47757	-8.462425	-1.379968	4.756035	0.019347	0.042975	-0.007863	-0.602229	-0.300612	-0.402756	0.620274
47758	-8.474858	-1.440140	4.751696	-0.039821	0.043566	0.009347	-0.602197	-0.300763	-0.402956	0.620103
47759	-8.471376	-1.408600	4.735565	-0.011348	0.051738	-0.006000	-0.602166	-0.300930	-0.403155	0.619921
47760	-8.485934	-1.390791	4.769536	0.011206	0.025106	0.020577	-0.602139	-0.301083	-0.403319	0.619767
47761	-8.481889	-1.404602	4.745699	-0.006389	0.037600	0.007473	-0.602108	-0.301245	-0.403485	0.619610
47762	-8.502198	-1.376085	4.746491	0.023200	0.043832	0.021320	-0.602066	-0.301382	-0.403627	0.619492
47763	-8.523670	-1.406852	4.760963	-0.003528	0.035678	0.051271	-0.602038	-0.301488	-0.403776	0.619371
47764	-8.492067	-1.387174	4.731856	0.009388	0.042579	0.007090	-0.602015	-0.301568	-0.403904	0.619271
47765	-8.487852	-1.397471	4.762546	0.002722	0.010378	0.019824	-0.601991	-0.301625	-0.403994	0.619207
47766	-8.492568	-1.400629	4.727741	-0.003929	0.040487	0.007463	-0.601958	-0.301670	-0.404071	0.619168
47767	-8.478295	-1.440659	4.741401	-0.042998	0.016889	0.007482	-0.601929	-0.301742	-0.404149	0.619109
47768	-8.505851	-1.387523	4.709416	0.008039	0.059183	0.008196	-0.601911	-0.301809	-0.404221	0.619048
47769	-8.494177	-1.413137	4.721918	-0.016747	0.038968	0.007838	-0.601885	-0.301848	-0.404293	0.619007
47770	-8.494684	-1.395048	4.751062	0.005240	0.013350	0.019820	-0.601866	-0.301869	-0.404366	0.618967
47771	-8.493623	-1.427129	4.719547	-0.029878	0.036902	0.008219	-0.601843	-0.301879	-0.404422	0.618948
47772	-8.482361	-1.425510	4.709933	-0.029917	0.038452	-0.006382	-0.601816	-0.301898	-0.404486	0.618923
47773	-8.465356	-1.434690	4.733739	-0.037186	0.007202	-0.008227	-0.601780	-0.301941	-0.404560	0.618889
47774	-8.471691	-1.451392	4.720605	-0.054150	0.018689	-0.006724	-0.601739	-0.301985	-0.404649	0.618849
47775	-8.485647	-1.406643	4.734362	-0.006927	0.013914	0.005601	-0.601719	-0.302082	-0.404728	0.618770
47776	-8.473263	-1.436515	4.693460	-0.042659	0.038419	-0.020597	-0.601665	-0.302162	-0.404846	0.618706
47777	-8.489181	-1.450643	4.719755	-0.051832	0.019437	0.007883	-0.601630	-0.302265	-0.404935	0.618631
47778	-8.489490	-1.390522	4.703467	0.005135	0.034265	-0.008281	-0.601601	-0.302372	-0.405028	0.618547
47779	-8.479206	-1.387866	4.692382	0.004985	0.035851	-0.022884	-0.601581	-0.302462	-0.405119	0.618462
47780	-8.477681	-1.429060	4.713341	-0.033390	0.011270	-0.008218	-0.601549	-0.302547	-0.405233	0.618377
47781	-8.523978	-1.389622	4.730377	0.011851	0.018805	0.034405	-0.601522	-0.302640	-0.405310	0.618307
47782	-8.514063	-1.405066	4.688393	-0.009709	0.046542	0.007814	-0.601489	-0.302716	-0.405411	0.618236
47783	-8.518888	-1.407870	4.653139	-0.016318	0.076622	-0.004572	-0.601470	-0.302782	-0.405502	0.618163
47784	-8.506765	-1.415362	4.696935	-0.019673	0.030259	0.007098	-0.601461	-0.302832	-0.405532	0.618128
47785	-8.525307	-1.387210	4.700609	0.010025	0.036466	0.020903	-0.601452	-0.302883	-0.405581	0.618079
47786	-8.501306	-1.411089	4.705697	-0.015320	0.017224	0.005990	-0.601436	-0.302924	-0.405626	0.618045
47787	-8.502302	-1.410473	4.704083	-0.014775	0.017808	0.005990	-0.601425	-0.302951	-0.405676	0.618009
47788	-8.537941	-1.401098	4.704918	-0.001930	0.033964	0.035896	-0.601413	-0.302979	-0.405724	0.617976
47789	-8.512471	-1.384304	4.666057	0.007729	0.055058	-0.007207	-0.601394	-0.302995	-0.405771	0.617956
47790	-8.517044	-1.410725	4.707829	-0.012424	0.018640	0.020590	-0.601382	-0.303000	-0.405798	0.617947
47791	-8.532427	-1.397797	4.713500	0.003110	0.021520	0.034787	-0.601375	-0.302976	-0.405852	0.617931
47792	-8.489073	-1.408522	4.669980	-0.016422	0.037024	-0.022112	-0.601373	-0.302969	-0.405863	0.617929
47793	-8.501580	-1.409857	4.677442	-0.015216	0.036675	-0.007512	-0.601364	-0.302943	-0.405877	0.617941
47794	-8.533905	-1.415514	4.680612	-0.016659	0.049568	0.022790	-0.601351	-0.302913	-0.405905	0.617950
47795	-8.496272	-1.421085	4.710319	-0.021227	0.005145	0.005294	-0.601343	-0.302876	-0.405911	0.617971
47796	-8.529104	-1.399051	4.691000	0.002047	0.039828	0.021277	-0.601340	-0.302834	-0.405933	0.617981
47797	-8.492019	-1.422306	4.689513	-0.023944	0.021542	-0.008207	-0.601329	-0.302819	-0.405950	0.617987
47798	-8.519768	-1.428992	4.672510	-0.029334	0.049684	0.008590	-0.601303	-0.302786	-0.405967	0.618018
47799	-8.509941	-1.395574	4.693858	0.006248	0.028476	0.005570	-0.601288	-0.302768	-0.405992	0.618025
47800	-8.505059	-1.424286	4.695818	-0.021783	0.022543	0.006393	-0.601277	-0.302755	-0.406003	0.618035
47801	-8.515645	-1.412363	4.681720	-0.010243	0.040697	0.007075	-0.601274	-0.302733	-0.406026	0.618034
47802	-8.493514	-1.422765	4.686665	-0.021342	0.024758	-0.008209	-0.601263	-0.302711	-0.406057	0.618035
47803	-8.503464	-1.438662	4.695261	-0.034422	0.021082	0.006808	-0.601254	-0.302694	-0.406076	0.618039
47804	-8.518716	-1.425621	4.701202	-0.018947	0.023977	0.020994	-0.601249	-0.302694	-0.406103	0.618027
47805	-8.514612	-1.426211	4.680296	-0.022240	0.039783	0.007485	-0.601263	-0.302678	-0.406124	0.618007
47806	-8.499728	-1.420542	4.704245	-0.015233	0.011904	0.005299	-0.601281	-0.302686	-0.406120	0.617988
47807	-8.510180	-1.408056	4.690541	-0.003637	0.030029	0.005971	-0.601289	-0.302655	-0.406107	0.618004
47808	-8.515375	-1.379281	4.688015	0.025528	0.037249	0.005127	-0.601298	-0.302598	-0.406121	0.618013
47809	-8.522292	-1.409862	4.698583	-0.001807	0.030302	0.020569	-0.601303	-0.302531	-0.406134	0.618033
47810	-8.527447	-1.381591	4.695982	0.027317	0.037470	0.019721	-0.601306	-0.302476	-0.406158	0.618041
47811	-8.504670	-1.437849	4.693326	-0.029796	0.025830	0.006812	-0.601319	-0.302405	-0.406158	0.618064
47812	-8.516634	-1.439631	4.701640	-0.028653	0.025490	0.021414	-0.601337	-0.302340	-0.406153	0.618081
47813	-8.499634	-1.439146	4.673894	-0.032636	0.042227	-0.006702	-0.601358	-0.302286	-0.406142	0.618094
47814	-8.525887	-1.410089	4.720166	0.004991	0.018078	0.034074	-0.601362	-0.302213	-0.406124	0.618138
47815	-8.501095	-1.407431	4.704825	0.004220	0.020610	0.004869	-0.601374	-0.302143	-0.406123	0.618161
47816	-8.508378	-1.410127	4.693186	0.001552	0.035456	0.005953	-0.601393	-0.302072	-0.406096	0.618195
47817	-8.492961	-1.423350	4.687489	-0.012766	0.033706	-0.008221	-0.601415	-0.301963	-0.406081	0.618237
47818	-8.506578	-1.438771	4.717730	-0.021814	0.014827	0.020329	-0.601426	-0.301885	-0.406076	0.618267
47819	-8.462017	-1.432151	4.706492	-0.019974	0.004030	-0.024559	-0.601421	-0.301828	-0.406082	0.618296
47820	-8.491496	-1.452184	4.711359	-0.035654	0.013620	0.006162	-0.601423	-0.301802	-0.406092	0.618301
47821	-8.509232	-1.424795	4.716253	-0.005895	0.019841	0.019896	-0.601408	-0.301802	-0.406107	0.618305
47822	-8.510305	-1.396668	4.692872	0.019245	0.042241	0.005503	-0.601419	-0.301794	-0.406122	0.618289
47823	-8.490214	-1.420122	4.719223	-0.002148	0.007736	0.004211	-0.601406	-0.301783	-0.406154	0.618285
47824	-8.496278	-1.409296	4.684830	0.005463	0.041068	-0.008669	-0.601391	-0.301757	-0.406179	0.618296
47825	-8.495816	-1.437229	4.707176	-0.018551	0.019819	0.005728	-0.601391	-0.301716	-0.406201	0.618302
47826	-8.523528	-1.398341	4.698939	0.022216	0.043648	0.020090	-0.601394	-0.301664	-0.406201	0.618324
47827	-8.495552	-1.437662	4.707520	-0.017392	0.021048	0.005728	-0.601399	-0.301591	-0.406182	0.618367
47828	-8.529746	-1.429253	4.710647	-0.004440	0.037267	0.035568	-0.601412	-0.301501	-0.406170	0.618406
47829	-8.479641	-1.451483	4.702518	-0.031143	0.019784	-0.008432	-0.601432	-0.301405	-0.406157	0.618442
47830	-8.498803	-1.455826	4.699391	-0.033112	0.033645	0.007248	-0.601464	-0.301310	-0.406115	0.618485
47831	-8.485915	-1.454525	4.692601	-0.033201	0.035137	-0.007354	-0.601497	-0.301218	-0.406100	0.618508
47832	-8.495081	-1.425119	4.711248	-0.000161	0.027199	0.005280	-0.601507	-0.301137	-0.406059	0.618564
47833	-8.484107	-1.437429	4.725895	-0.010529	0.010246	0.004651	-0.601521	-0.301035	-0.406037	0.618615
47834	-8.483454	-1.438077	4.726869	-0.009898	0.010816	0.004651	-0.601534	-0.300937	-0.406031	0.618654
47835	-8.493195	-1.426927	4.714101	0.001747	0.028972	0.005275	-0.601551	-0.300834	-0.406037	0.618684
47836	-8.480415	-1.426119	4.706965	0.001656	0.030445	-0.009329	-0.601569	-0.300733	-0.406027	0.618722
47837	-8.477017	-1.441413	4.709360	-0.011960	0.027701	-0.008879	-0.601579	-0.300601	-0.406019	0.618781
47838	-8.485743	-1.458437	4.719786	-0.024917	0.023998	0.006175	-0.601595	-0.300476	-0.406015	0.618829
47839	-8.475059	-1.425685	4.742479	0.010755	0.002761	0.003126	-0.601585	-0.300396	-0.406017	0.618877
47840	-8.482126	-1.474796	4.722227	-0.037969	0.021895	0.006630	-0.601575	-0.300292	-0.406046	0.618917
47841	-8.474178	-1.473404	4.734619	-0.034109	0.008230	0.005561	-0.601564	-0.300218	-0.406071	0.618947
47842	-8.451776	-1.484410	4.739792	-0.045195	-0.007777	-0.009651	-0.601539	-0.300189	-0.406113	0.618959
47843	-8.465283	-1.458231	4.723947	-0.019305	0.013669	-0.009496	-0.601515	-0.300210	-0.406154	0.618945
47844	-8.463628	-1.472120	4.723625	-0.032934	0.010895	-0.009036	-0.601483	-0.300255	-0.406214	0.618915
47845	-8.468242	-1.429540	4.697450	0.006488	0.036599	-0.023951	-0.601437	-0.300316	-0.406293	0.618878
47846	-8.488285	-1.443056	4.744746	0.001448	0.002572	0.018182	-0.601406	-0.300362	-0.406370	0.618836
47847	-8.470081	-1.456634	4.715831	-0.016837	0.015916	-0.009495	-0.601341	-0.300405	-0.406434	0.618835
47848	-8.493838	-1.446240	4.707986	-0.004571	0.033150	0.005709	-0.601291	-0.300455	-0.406530	0.618797
47849	-8.487579	-1.443565	4.717782	-0.000633	0.019508	0.004643	-0.601251	-0.300499	-0.406614	0.618759
47850	-8.486330	-1.457795	4.716632	-0.014252	0.016833	0.005107	-0.601195	-0.300544	-0.406710	0.618728
47851	-8.507598	-1.461662	4.709826	-0.016264	0.030761	0.020772	-0.601134	-0.300610	-0.406782	0.618708
47852	-8.464654	-1.454277	4.695935	-0.014478	0.019865	-0.024098	-0.601086	-0.300665	-0.406859	0.618677
47853	-8.497949	-1.459516	4.697438	-0.015717	0.032824	0.006168	-0.601064	-0.300690	-0.406933	0.618638
47854	-8.514437	-1.418595	4.679627	0.024447	0.057732	0.005817	-0.601034	-0.300715	-0.406973	0.618629
47855	-8.494628	-1.442098	4.705528	0.003141	0.023221	0.004634	-0.601011	-0.300707	-0.407008	0.618632
47856	-8.487483	-1.439771	4.716863	0.007059	0.009560	0.003573	-0.600995	-0.300679	-0.407059	0.618627
47857	-8.490384	-1.471165	4.706196	-0.024156	0.017754	0.005578	-0.600970	-0.300676	-0.407099	0.618626
47858	-8.489177	-1.457784	4.683325	-0.013300	0.036822	-0.008440	-0.600938	-0.300696	-0.407166	0.618604
47859	-8.479449	-1.451775	4.726395	-0.002100	-0.006186	0.002988	-0.600916	-0.300701	-0.407227	0.618583
47860	-8.500570	-1.473533	4.689342	-0.025573	0.033832	0.006636	-0.600902	-0.300708	-0.407294	0.618549
47861	-8.469486	-1.467839	4.684015	-0.023118	0.022015	-0.023626	-0.600867	-0.300739	-0.407362	0.618524
47862	-8.510164	-1.475608	4.673617	-0.027650	0.049249	0.007690	-0.600854	-0.300754	-0.407416	0.618494
47863	-8.496161	-1.424689	4.704871	0.025595	0.017126	0.003084	-0.600842	-0.300776	-0.407484	0.618449
47864	-8.496925	-1.469885	4.694778	-0.019889	0.022058	0.005579	-0.600815	-0.300803	-0.407533	0.618430
47865	-8.495805	-1.456080	4.671823	-0.008985	0.041197	-0.008453	-0.600806	-0.300819	-0.407575	0.618404
47866	-8.508456	-1.439466	4.709576	0.013884	0.014907	0.018161	-0.600784	-0.300820	-0.407617	0.618396
47867	-8.496869	-1.438014	4.700473	0.013761	0.016446	0.003557	-0.600763	-0.300808	-0.407672	0.618387
47868	-8.507507	-1.471725	4.677314	-0.020704	0.038868	0.006629	-0.600752	-0.300808	-0.407719	0.618366
47869	-8.493303	-1.484437	4.669559	-0.035049	0.037085	-0.007488	-0.600744	-0.300796	-0.407766	0.618349
47870	-8.496291	-1.451930	4.698220	0.001363	0.015012	0.004039	-0.600743	-0.300811	-0.407804	0.618318
47871	-8.489756	-1.466794	4.678176	-0.016280	0.027464	-0.009027	-0.600742	-0.300808	-0.407844	0.618293
47872	-8.512888	-1.455915	4.671434	-0.003985	0.044854	0.006133	-0.600753	-0.300814	-0.407868	0.618264
47873	-8.508449	-1.483883	4.672835	-0.031857	0.038880	0.007112	-0.600756	-0.300833	-0.407908	0.618226
47874	-8.481902	-1.476492	4.688170	-0.025422	0.011981	-0.009584	-0.600765	-0.300864	-0.407934	0.618185
47875	-8.512851	-1.467710	4.668844	-0.016386	0.043580	0.006617	-0.600782	-0.300876	-0.407981	0.618131
47876	-8.481727	-1.461278	4.663874	-0.013914	0.031771	-0.023635	-0.600791	-0.300909	-0.408024	0.618077
47877	-8.492423	-1.476227	4.671441	-0.026899	0.028213	-0.008538	-0.600789	-0.300946	-0.408070	0.618032
47878	-8.503290	-1.445737	4.687456	0.006271	0.020438	0.004027	-0.600790	-0.300967	-0.408108	0.617995
47879	-8.504325	-1.444906	4.685834	0.006899	0.021167	0.004025	-0.600800	-0.300997	-0.408168	0.617932
47880	-8.512811	-1.446515	4.672175	0.004214	0.036140	0.005065	-0.600821	-0.301000	-0.408186	0.617898
47881	-8.510886	-1.460096	4.672491	-0.009416	0.033440	0.005562	-0.600824	-0.301011	-0.408215	0.617870
47882	-8.496934	-1.426897	4.673192	0.022276	0.027435	-0.011085	-0.600823	-0.301008	-0.408258	0.617844
47883	-8.499718	-1.440082	4.693451	0.012620	0.009678	0.002977	-0.600818	-0.301000	-0.408309	0.617819
47884	-8.515307	-1.490422	4.659367	-0.039406	0.043031	0.007603	-0.600837	-0.300979	-0.408353	0.617782
47885	-8.493623	-1.454833	4.672618	-0.004386	0.022810	-0.010086	-0.600852	-0.300964	-0.408378	0.617758
47886	-8.503762	-1.470030	4.681146	-0.017325	0.019288	0.005021	-0.600866	-0.300966	-0.408378	0.617744
47887	-8.521662	-1.442058	4.685826	0.012457	0.025838	0.018610	-0.600870	-0.300967	-0.408377	0.617740
47888	-8.502482	-1.455312	4.658609	-0.005984	0.039219	-0.009055	-0.600889	-0.300947	-0.408385	0.617726
47889	-8.510311	-1.457279	4.646008	-0.008746	0.054157	-0.008023	-0.600914	-0.300920	-0.408382	0.617716
47890	-8.492812	-1.466323	4.671580	-0.015776	0.023065	-0.009584	-0.600932	-0.300883	-0.408404	0.617703
47891	-8.505414	-1.467603	4.678905	-0.014476	0.022927	0.005018	-0.600944	-0.300860	-0.408422	0.617691
47892	-8.513241	-1.469838	4.666221	-0.017204	0.037848	0.006049	-0.600967	-0.300818	-0.408431	0.617683
47893	-8.520676	-1.454451	4.684820	0.001694	0.026767	0.019106	-0.600982	-0.300767	-0.408456	0.617676
47894	-8.488768	-1.448740	4.681099	0.004050	0.015028	-0.011133	-0.600984	-0.300761	-0.408442	0.617686
47895	-8.521047	-1.453982	4.684291	0.002803	0.028200	0.019102	-0.601005	-0.300704	-0.408461	0.617681
47896	-8.516352	-1.454791	4.664178	-0.000660	0.044059	0.005525	-0.601025	-0.300666	-0.408438	0.617695
47897	-8.496301	-1.450584	4.669069	0.002490	0.031386	-0.010109	-0.601065	-0.300587	-0.408424	0.617704
47898	-8.503339	-1.435245	4.688371	0.021344	0.020324	0.002946	-0.601088	-0.300526	-0.408419	0.617714
47899	-8.520411	-1.453567	4.685577	0.005073	0.031063	0.019092	-0.601101	-0.300471	-0.408398	0.617742
47900	-8.500224	-1.449859	4.690552	0.008215	0.018426	0.003461	-0.601119	-0.300377	-0.408390	0.617775
47901	-8.494702	-1.478846	4.693701	-0.019740	0.012459	0.004503	-0.601132	-0.300323	-0.408370	0.617803
47902	-8.482226	-1.477509	4.686164	-0.019914	0.014079	-0.010100	-0.601152	-0.300246	-0.408375	0.617817
47903	-8.487265	-1.449187	4.683686	0.009140	0.021502	-0.011148	-0.601149	-0.300187	-0.408382	0.617844
47904	-8.516758	-1.469169	4.688426	-0.006375	0.031406	0.019603	-0.601152	-0.300151	-0.408372	0.617866
47905	-8.487172	-1.449452	4.683772	0.010234	0.022996	-0.011153	-0.601141	-0.300098	-0.408365	0.617907
47906	-8.481900	-1.478451	4.686456	-0.017686	0.017043	-0.010100	-0.601145	-0.300044	-0.408369	0.617926
47907	-8.492186	-1.466520	4.672655	-0.006215	0.035317	-0.009610	-0.601140	-0.300031	-0.408370	0.617936
47908	-8.484758	-1.464048	4.684682	-0.002337	0.021824	-0.010630	-0.601135	-0.299982	-0.408379	0.617960
47909	-8.489736	-1.481126	4.673625	-0.019345	0.033462	-0.009084	-0.601142	-0.299928	-0.408382	0.617977
47910	-8.497061	-1.465809	4.692400	-0.000499	0.022440	0.003970	-0.601145	-0.299896	-0.408379	0.617992
47911	-8.484829	-1.464315	4.684471	-0.000683	0.024046	-0.010635	-0.601146	-0.299848	-0.408378	0.618015
47912	-8.501866	-1.464815	4.712363	0.004728	0.008787	0.017555	-0.601150	-0.299817	-0.408382	0.618023
47913	-8.504349	-1.496055	4.702497	-0.026554	0.017119	0.019638	-0.601135	-0.299776	-0.408380	0.618059
47914	-8.492051	-1.494699	4.694641	-0.026724	0.018698	0.005034	-0.601155	-0.299718	-0.408381	0.618067
47915	-8.494624	-1.480024	4.693472	-0.011982	0.022814	0.004497	-0.601164	-0.299703	-0.408346	0.618089
47916	-8.502660	-1.454453	4.658554	0.009718	0.059565	-0.009161	-0.601185	-0.299645	-0.408347	0.618096
47917	-8.516855	-1.469314	4.688205	0.000844	0.041008	0.019570	-0.601200	-0.299586	-0.408320	0.618128
47918	-8.506614	-1.453704	4.679985	0.014834	0.045943	0.004423	-0.601235	-0.299472	-0.408284	0.618172
47919	-8.478025	-1.493437	4.689882	-0.024799	0.023236	-0.009570	-0.601264	-0.299342	-0.408233	0.618241
47920	-8.489270	-1.495777	4.699326	-0.023526	0.023190	0.005033	-0.601276	-0.299221	-0.408197	0.618312
47921	-8.476210	-1.494929	4.692687	-0.023698	0.024791	-0.009571	-0.601304	-0.299120	-0.408166	0.618353
47922	-8.495524	-1.453858	4.697823	0.020355	0.034743	0.003399	-0.601322	-0.299013	-0.408132	0.618411
47923	-8.489563	-1.483324	4.701579	-0.007586	0.028785	0.004486	-0.601339	-0.298898	-0.408112	0.618463
47924	-8.476079	-1.510186	4.717535	-0.032238	0.008552	0.004573	-0.601370	-0.298798	-0.408084	0.618500
47925	-8.495863	-1.486753	4.691318	-0.009778	0.044458	0.005486	-0.601399	-0.298708	-0.408064	0.618527
47926	-8.492627	-1.501331	4.693701	-0.023480	0.041868	0.006031	-0.601428	-0.298612	-0.408013	0.618580
47927	-8.494072	-1.469553	4.724925	0.012924	0.019997	0.017531	-0.601445	-0.298506	-0.407968	0.618644
47928	-8.498373	-1.441369	4.723783	0.041966	0.027517	0.016428	-0.601466	-0.298398	-0.407914	0.618712
47929	-8.489538	-1.485116	4.729318	-0.000210	0.018191	0.018078	-0.601491	-0.298262	-0.407866	0.618784
47930	-8.458589	-1.511745	4.718065	-0.029755	0.013938	-0.010026	-0.601511	-0.298122	-0.407802	0.618875
47931	-8.501799	-1.474123	4.739986	0.015779	0.022173	0.032126	-0.601545	-0.297977	-0.407736	0.618955
47932	-8.461047	-1.484925	4.719811	-0.000231	0.022085	-0.011134	-0.601573	-0.297820	-0.407677	0.619042
47933	-8.449515	-1.497585	4.735490	-0.010620	0.005235	-0.011576	-0.601618	-0.297688	-0.407612	0.619104
47934	-8.445948	-1.512420	4.738338	-0.024343	0.002660	-0.011019	-0.601630	-0.297593	-0.407574	0.619163
47935	-8.478012	-1.490653	4.720068	-0.001173	0.037717	0.004459	-0.601647	-0.297506	-0.407552	0.619202
47936	-8.484835	-1.475619	4.739609	0.017708	0.026768	0.017508	-0.601668	-0.297434	-0.407536	0.619228
47937	-8.462474	-1.503860	4.714572	-0.015161	0.036702	-0.009592	-0.601678	-0.297383	-0.407513	0.619258
47938	-8.466983	-1.502979	4.734933	-0.010574	0.022387	0.004019	-0.601675	-0.297338	-0.407509	0.619285
47939	-8.474530	-1.505616	4.722731	-0.013324	0.037336	0.005008	-0.601683	-0.297283	-0.407506	0.619306
47940	-8.479115	-1.504493	4.743031	-0.008675	0.022980	0.018621	-0.601704	-0.297248	-0.407490	0.619312
47941	-8.477171	-1.490861	4.721513	0.001997	0.042163	0.004440	-0.601684	-0.297229	-0.407482	0.619346
47942	-8.462231	-1.485763	4.745586	0.009123	0.014441	0.002461	-0.601626	-0.297254	-0.407470	0.619399
47943	-8.488369	-1.459781	4.737121	0.035653	0.035329	0.016919	-0.601495	-0.297459	-0.407429	0.619455
47944	-8.490638	-1.474294	4.703573	0.014521	0.062074	0.004849	-0.601292	-0.297813	-0.407286	0.619575
47945	-8.460511	-1.472359	4.750772	0.014034	0.002472	0.001471	-0.600984	-0.298458	-0.407029	0.619733
47946	-8.480357	-1.485309	4.690468	-0.013736	0.057629	-0.008629	-0.600518	-0.299407	-0.406639	0.619982
47947	-8.484391	-1.456377	4.717148	0.008476	0.032417	0.003436	-0.600193	-0.300145	-0.406273	0.620180
47948	-8.477628	-1.477208	4.696949	-0.023606	0.041533	-0.009048	-0.599953	-0.300686	-0.405987	0.620338
47949	-8.479839	-1.470446	4.695077	-0.023105	0.042283	-0.009050	-0.599808	-0.301056	-0.405769	0.620441
47950	-8.485944	-1.464358	4.714246	-0.018461	0.027989	0.004572	-0.599761	-0.301251	-0.405621	0.620488
47951	-8.511841	-1.435923	4.706523	0.008078	0.048847	0.019007	-0.599706	-0.301422	-0.405484	0.620548
47952	-8.505212	-1.448647	4.687465	-0.009693	0.061305	0.005952	-0.599669	-0.301515	-0.405401	0.620593
47953	-8.485095	-1.470766	4.715032	-0.031041	0.026843	0.005145	-0.599674	-0.301492	-0.405345	0.620636
47954	-8.482677	-1.438837	4.724651	0.001290	0.020083	0.003013	-0.599676	-0.301484	-0.405322	0.620653
47955	-8.442992	-1.494610	4.694713	-0.060847	0.024109	-0.037513	-0.599710	-0.301381	-0.405335	0.620662
47956	-8.492358	-1.427754	4.711557	0.013272	0.039146	0.003406	-0.599758	-0.301273	-0.405345	0.620661
47957	-8.487398	-1.410551	4.722431	0.031382	0.029004	0.001848	-0.599735	-0.301310	-0.405311	0.620688
47958	-8.485485	-1.468450	4.715051	-0.028383	0.030574	0.005142	-0.599642	-0.301507	-0.405211	0.620747
47959	-8.474447	-1.463763	4.705974	-0.028638	0.032110	-0.009463	-0.599555	-0.301716	-0.405094	0.620806
47960	-8.463197	-1.440459	4.727911	-0.007243	0.007703	-0.011991	-0.599482	-0.301944	-0.404966	0.620849
47961	-8.504878	-1.416691	4.694446	0.012656	0.056993	0.004358	-0.599381	-0.302232	-0.404840	0.620888
47962	-8.506061	-1.440122	4.715886	-0.011188	0.035966	0.019158	-0.599305	-0.302438	-0.404737	0.620929
47963	-8.504578	-1.406360	4.724259	0.021180	0.029222	0.017014	-0.599259	-0.302505	-0.404682	0.620976
47964	-8.494843	-1.435384	4.707125	-0.010893	0.038320	0.004549	-0.599266	-0.302470	-0.404636	0.621017
47965	-8.514875	-1.392197	4.710887	0.033199	0.048277	0.017386	-0.599199	-0.302598	-0.404493	0.621112
47966	-8.505402	-1.399338	4.724862	0.022843	0.031437	0.017003	-0.599051	-0.302961	-0.404174	0.621286
47967	-8.492454	-1.384419	4.748403	0.030035	0.003683	0.015069	-0.598653	-0.303837	-0.403625	0.621599
47968	-8.493680	-1.422247	4.686156	-0.026961	0.052901	-0.008509	-0.598260	-0.304748	-0.403037	0.621912
47969	-8.477164	-1.385791	4.719222	-0.002268	0.014242	-0.011996	-0.597845	-0.305725	-0.402420	0.622231
47970	-8.490673	-1.405578	4.695756	-0.036859	0.036716	-0.008883	-0.597440	-0.306670	-0.401802	0.622554
47971	-8.500834	-1.396177	4.682327	-0.039591	0.051679	-0.007922	-0.597204	-0.307280	-0.401333	0.622783
47972	-8.506440	-1.414180	4.726204	-0.059321	0.015661	0.020555	-0.597139	-0.307505	-0.401063	0.622908
47973	-8.504784	-1.285480	4.750014	0.065156	0.000514	0.012901	-0.596997	-0.307856	-0.400753	0.623070
47974	-8.464441	-1.393673	4.714706	-0.057287	0.005296	-0.024214	-0.596706	-0.308530	-0.400332	0.623285
47975	-8.512992	-1.314567	4.706303	0.012806	0.035424	0.002961	-0.596265	-0.309596	-0.399755	0.623550
47976	-8.500149	-1.289426	4.758635	0.027444	-0.021614	0.013732	-0.595825	-0.310627	-0.399224	0.623797
47977	-8.544682	-1.302598	4.714406	0.001323	0.031915	0.032765	-0.595461	-0.311531	-0.398799	0.623966
47978	-8.526559	-1.321135	4.685739	-0.031545	0.041770	0.005714	-0.595218	-0.312135	-0.398555	0.624053
47979	-8.527111	-1.282799	4.690689	0.000835	0.034979	0.003551	-0.595055	-0.312510	-0.398425	0.624103
47980	-8.547103	-1.296752	4.684428	-0.015358	0.045754	0.019712	-0.594972	-0.312784	-0.398443	0.624034
47981	-8.522494	-1.287360	4.697002	-0.008967	0.018746	0.003198	-0.594965	-0.312897	-0.398586	0.623892
47982	-8.534447	-1.275659	4.679280	0.002565	0.037041	0.003543	-0.595016	-0.312852	-0.398774	0.623745
47983	-8.557950	-1.248116	4.700619	0.036551	0.028609	0.030583	-0.595098	-0.312685	-0.399030	0.623588
47984	-8.521765	-1.321993	4.691352	-0.035747	0.014118	0.004412	-0.595254	-0.312317	-0.399500	0.623322
47985	-8.517508	-1.303798	4.644479	-0.014906	0.051616	-0.024116	-0.595447	-0.311844	-0.399994	0.623058
47986	-8.537492	-1.303419	4.722373	0.002149	-0.007753	0.030503	-0.595550	-0.311533	-0.400321	0.622905
47987	-8.565404	-1.279509	4.625506	0.023932	0.090025	0.005149	-0.595568	-0.311368	-0.400561	0.622816
47988	-8.509083	-1.338173	4.705736	-0.026867	-0.011458	0.002520	-0.595625	-0.311125	-0.400881	0.622678
47989	-8.530397	-1.284462	4.734104	0.038922	-0.027391	0.027383	-0.595773	-0.310700	-0.401581	0.622296
47990	-8.532558	-1.351283	4.635384	-0.025531	0.051097	-0.008912	-0.595999	-0.310082	-0.402475	0.621810
47991	-8.564166	-1.336362	4.640668	0.005122	0.056965	0.019064	-0.596143	-0.309571	-0.403205	0.621453
47992	-8.548019	-1.373553	4.631249	-0.023617	0.051786	0.005688	-0.596265	-0.309103	-0.403781	0.621196
47993	-8.538397	-1.366112	4.618936	-0.009635	0.056588	-0.009537	-0.596320	-0.308713	-0.404143	0.621101
47994	-8.488155	-1.412043	4.580309	-0.058386	0.064622	-0.065160	-0.596342	-0.308486	-0.404224	0.621140
47995	-8.541811	-1.371255	4.639902	-0.004443	0.043090	0.004119	-0.596289	-0.308471	-0.404086	0.621290
47996	-8.526417	-1.365805	4.665589	0.002713	0.015327	0.002234	-0.596251	-0.308427	-0.404067	0.621359
47997	-8.503753	-1.422653	4.664784	-0.054558	0.003392	-0.009883	-0.596256	-0.308331	-0.404089	0.621387
47998	-8.518392	-1.382753	4.647881	-0.014595	0.028468	-0.010811	-0.596238	-0.308304	-0.404030	0.621457
47999	-8.530371	-1.383405	4.656525	-0.013287	0.028430	0.003792	-0.596195	-0.308316	-0.403910	0.621570
48000	-8.537251	-1.357232	4.622394	0.008263	0.065131	-0.010191	-0.596139	-0.308394	-0.403687	0.621730
48001	-8.518818	-1.381607	4.620839	-0.020541	0.059945	-0.023549	-0.596073	-0.308498	-0.403346	0.621964
48002	-8.532227	-1.364016	4.630942	-0.004947	0.063303	-0.009575	-0.595975	-0.308693	-0.402877	0.622264
48003	-8.523087	-1.336837	4.678780	0.020556	0.023866	0.001595	-0.595848	-0.308923	-0.402340	0.622619
48004	-8.503980	-1.403576	4.672191	-0.054305	0.022902	-0.008933	-0.595688	-0.309220	-0.401796	0.622975
48005	-8.502935	-1.350070	4.683601	-0.007746	0.019426	-0.011755	-0.595503	-0.309630	-0.401187	0.623342
48006	-8.499504	-1.382701	4.712996	-0.045873	-0.004860	0.003811	-0.595314	-0.310051	-0.400585	0.623700
48007	-8.479269	-1.342696	4.697428	-0.018528	0.004035	-0.026661	-0.595165	-0.310481	-0.400023	0.623989
48008	-8.496225	-1.352706	4.697745	-0.034757	0.014922	-0.010493	-0.595078	-0.310796	-0.399563	0.624209
48009	-8.528255	-1.277810	4.686675	0.034575	0.045892	0.001871	-0.595023	-0.311082	-0.399160	0.624377
48010	-8.522666	-1.326986	4.716777	-0.017748	0.018231	0.018084	-0.595027	-0.311239	-0.398808	0.624520
48011	-8.522219	-1.295213	4.695343	0.007134	0.040686	0.003133	-0.595032	-0.311364	-0.398575	0.624602
48012	-8.517640	-1.273229	4.706360	0.025249	0.030481	0.001566	-0.594959	-0.311632	-0.398355	0.624679
48013	-8.516432	-1.281694	4.707503	0.011512	0.027835	0.002201	-0.594809	-0.312014	-0.398093	0.624798
48014	-8.500839	-1.302721	4.702129	-0.017273	0.022656	-0.011129	-0.594650	-0.312423	-0.397841	0.624904
48015	-8.527660	-1.298748	4.715612	-0.015050	0.021870	0.018081	-0.594523	-0.312791	-0.397678	0.624945
48016	-8.537401	-1.250593	4.707104	0.028192	0.032579	0.016156	-0.594407	-0.313113	-0.397586	0.624953
48017	-8.544629	-1.263282	4.693863	0.011143	0.044217	0.017716	-0.594236	-0.313453	-0.397455	0.625028
48018	-8.519315	-1.271799	4.677778	-0.004259	0.043089	-0.010855	-0.594144	-0.313654	-0.397406	0.625046
48019	-8.538152	-1.287991	4.673059	-0.020439	0.053941	0.005312	-0.594093	-0.313762	-0.397413	0.625036
48020	-8.514707	-1.292389	4.709749	-0.024231	0.008621	0.003197	-0.594080	-0.313807	-0.397476	0.624986
48021	-8.535959	-1.295661	4.702814	-0.026188	0.022816	0.018721	-0.594041	-0.313892	-0.397542	0.624938
48022	-8.517884	-1.309887	4.674068	-0.044945	0.035923	-0.008925	-0.594026	-0.313975	-0.397643	0.624847
48023	-8.487665	-1.284530	4.697982	-0.021047	-0.001987	-0.026929	-0.594026	-0.314073	-0.397742	0.624734
48024	-8.542133	-1.246459	4.698878	0.021400	0.020786	0.015856	-0.593962	-0.314240	-0.397895	0.624613
48025	-8.537586	-1.261507	4.675830	0.003538	0.033155	0.002813	-0.593924	-0.314379	-0.398058	0.624476
48026	-8.525452	-1.300885	4.689364	-0.035368	0.009606	0.003851	-0.593931	-0.314436	-0.398250	0.624318
48027	-8.544897	-1.246554	4.665165	0.018843	0.037929	0.002155	-0.593930	-0.314475	-0.398436	0.624181
48028	-8.561930	-1.298388	4.630014	-0.033258	0.071384	0.006849	-0.593913	-0.314529	-0.398615	0.624056
48029	-8.534209	-1.259946	4.651722	0.004804	0.036788	-0.011803	-0.593939	-0.314543	-0.398769	0.623925
48030	-8.565464	-1.252832	4.629773	0.013768	0.068591	0.003965	-0.593940	-0.314540	-0.398925	0.623826
48031	-8.552165	-1.274422	4.675720	-0.003433	0.019140	0.017148	-0.593983	-0.314489	-0.399061	0.623724
48032	-8.548173	-1.295801	4.623064	-0.028785	0.060753	-0.008680	-0.594025	-0.314456	-0.399199	0.623612
48033	-8.514647	-1.287075	4.650159	-0.019193	0.019491	-0.026013	-0.594101	-0.314328	-0.399384	0.623486
48034	-8.540057	-1.310581	4.633235	-0.038722	0.044626	-0.008934	-0.594204	-0.314124	-0.399619	0.623340
48035	-8.540444	-1.295480	4.662059	-0.016498	0.019478	0.003197	-0.594396	-0.313760	-0.399952	0.623126
48036	-8.552459	-1.302820	4.668752	-0.015140	0.019457	0.017802	-0.594657	-0.313207	-0.400379	0.622882
48037	-8.563109	-1.305092	4.622376	-0.011127	0.066932	0.005247	-0.595025	-0.312404	-0.400908	0.622593
48038	-8.518978	-1.331719	4.688633	-0.022630	-0.010256	0.002051	-0.595449	-0.311431	-0.401554	0.622258
48039	-8.506125	-1.303111	4.656556	0.015609	0.016166	-0.028248	-0.595895	-0.310405	-0.402237	0.621903
48040	-8.543317	-1.370991	4.640654	-0.034811	0.048138	0.005663	-0.596273	-0.309443	-0.402937	0.621567
48041	-8.526530	-1.333224	4.672160	0.018320	0.016135	0.000959	-0.596607	-0.308594	-0.403584	0.621248
48042	-8.530205	-1.343927	4.691141	0.022987	0.001894	0.014662	-0.596877	-0.307856	-0.404202	0.620954
48043	-8.524451	-1.375004	4.638369	-0.002312	0.043467	-0.011184	-0.597106	-0.307207	-0.404804	0.620663
48044	-8.519458	-1.395045	4.669765	-0.008622	0.011679	0.002291	-0.597296	-0.306672	-0.405344	0.620392
48045	-8.536919	-1.394194	4.640589	-0.000431	0.044229	0.003415	-0.597461	-0.306224	-0.405819	0.620144
48046	-8.517965	-1.396770	4.641767	0.002526	0.031453	-0.012090	-0.597571	-0.305930	-0.406261	0.619893
48047	-8.517259	-1.397439	4.669750	0.010478	0.003002	0.000721	-0.597646	-0.305760	-0.406644	0.619654
48048	-8.517159	-1.460337	4.658462	-0.049314	0.004649	0.004308	-0.597673	-0.305719	-0.406980	0.619427
48049	-8.519878	-1.434454	4.629614	-0.024405	0.027027	-0.010750	-0.597681	-0.305739	-0.407292	0.619204
48050	-8.525698	-1.420564	4.621716	-0.009709	0.031149	-0.011426	-0.597652	-0.305864	-0.407586	0.618978
48051	-8.559045	-1.457971	4.588473	-0.046683	0.067200	0.007206	-0.597622	-0.306006	-0.407860	0.618756
48052	-8.565217	-1.397007	4.587994	0.014101	0.067030	0.003604	-0.597585	-0.306189	-0.408108	0.618537
48053	-8.571807	-1.390460	4.633920	0.026187	0.023630	0.030138	-0.597547	-0.306377	-0.408322	0.618339
48054	-8.574884	-1.380079	4.573705	0.029308	0.071853	0.002913	-0.597498	-0.306526	-0.408550	0.618162
48055	-8.558342	-1.420942	4.565003	-0.013786	0.063277	-0.009660	-0.597463	-0.306673	-0.408734	0.618002
48056	-8.556685	-1.430257	4.593830	-0.020097	0.031501	0.003848	-0.597422	-0.306823	-0.408895	0.617860
48057	-8.578968	-1.405199	4.561102	0.002304	0.067445	0.004255	-0.597398	-0.306969	-0.409032	0.617721
48058	-8.569316	-1.384142	4.580117	0.023624	0.043052	0.001796	-0.597376	-0.307100	-0.409146	0.617601
48059	-8.576542	-1.399680	4.565265	0.006603	0.054709	0.003360	-0.597349	-0.307213	-0.409264	0.617493
48060	-8.546851	-1.420758	4.581905	-0.015716	0.021011	-0.011648	-0.597325	-0.307329	-0.409361	0.617394
48061	-8.574110	-1.421847	4.593191	-0.013499	0.020345	0.017563	-0.597302	-0.307464	-0.409481	0.617269
48062	-8.566126	-1.422900	4.549155	-0.021290	0.050968	-0.009886	-0.597271	-0.307589	-0.409590	0.617165
48063	-8.581078	-1.404142	4.584144	0.001729	0.025154	0.016873	-0.597271	-0.307728	-0.409647	0.617058
48064	-8.590611	-1.404473	4.568151	-0.001034	0.040184	0.017751	-0.597259	-0.307872	-0.409741	0.616934
48065	-8.558259	-1.411693	4.563375	-0.013301	0.024715	-0.011653	-0.597240	-0.308018	-0.409809	0.616835
48066	-8.565758	-1.408318	4.579754	-0.008607	0.010518	0.002073	-0.597223	-0.308169	-0.409898	0.616718
48067	-8.565448	-1.392929	4.554163	0.001978	0.029479	-0.012347	-0.597198	-0.308350	-0.409993	0.616588
48068	-8.585598	-1.408682	4.546304	-0.014168	0.040402	0.003826	-0.597162	-0.308543	-0.410104	0.616453
48069	-8.571006	-1.388170	4.545150	0.002975	0.030954	-0.012352	-0.597140	-0.308718	-0.410209	0.616316
48070	-8.579046	-1.384647	4.560583	0.007613	0.016762	0.001377	-0.597107	-0.308900	-0.410326	0.616179
48071	-8.586721	-1.399261	4.545087	-0.009415	0.028422	0.002944	-0.597082	-0.309080	-0.410428	0.616045
48072	-8.579997	-1.408757	4.554418	-0.019872	0.011589	0.002766	-0.597043	-0.309276	-0.410551	0.615902
48073	-8.593096	-1.421710	4.558768	-0.032778	0.008276	0.018070	-0.597026	-0.309483	-0.410636	0.615758
48074	-8.600026	-1.362560	4.528123	0.020505	0.037288	0.001542	-0.597000	-0.309690	-0.410725	0.615621
48075	-8.605402	-1.391164	4.514142	-0.010816	0.045647	0.003807	-0.596975	-0.309878	-0.410828	0.615480
48076	-8.610513	-1.374183	4.508096	0.003927	0.049729	0.003104	-0.596952	-0.310072	-0.410919	0.615345
48077	-8.586315	-1.410909	4.513749	-0.035931	0.026945	-0.010271	-0.596946	-0.310236	-0.410980	0.615227
48078	-8.611220	-1.379183	4.534462	-0.001918	0.018694	0.016669	-0.596938	-0.310429	-0.411029	0.615105
48079	-8.605246	-1.364421	4.489307	0.004477	0.052633	-0.011514	-0.596937	-0.310596	-0.411090	0.614981
48080	-8.603930	-1.399618	4.543238	-0.026092	-0.000696	0.017209	-0.596946	-0.310744	-0.411111	0.614883
48081	-8.616910	-1.342955	4.501806	0.023970	0.042547	0.001513	-0.596957	-0.310891	-0.411134	0.614783
48082	-8.583342	-1.418741	4.546116	-0.051136	-0.019400	0.003155	-0.596982	-0.311030	-0.411139	0.614685
48083	-8.611276	-1.394101	4.503138	-0.031965	0.030708	0.004333	-0.597008	-0.311195	-0.411124	0.614587
48084	-8.632443	-1.348413	4.503731	0.012142	0.040783	0.016813	-0.597039	-0.311359	-0.411088	0.614496
48085	-8.650665	-1.335336	4.475219	0.020385	0.073342	0.017822	-0.597073	-0.311502	-0.411055	0.614414
48086	-8.615071	-1.355816	4.474553	-0.006131	0.054537	-0.010836	-0.597117	-0.311616	-0.411001	0.614350
48087	-8.638798	-1.323610	4.497446	0.027905	0.046303	0.016091	-0.597160	-0.311741	-0.410975	0.614261
48088	-8.651793	-1.294340	4.480214	0.053595	0.067939	0.015520	-0.597182	-0.311847	-0.410949	0.614203
48089	-8.626225	-1.331313	4.488858	0.013718	0.045137	0.002188	-0.597223	-0.311913	-0.410914	0.614154
48090	-8.630130	-1.342085	4.509576	0.004118	0.027643	0.016647	-0.597261	-0.311972	-0.410882	0.614108
48091	-8.630847	-1.339933	4.508843	0.004608	0.028362	0.016645	-0.597298	-0.312024	-0.410849	0.614067
48092	-8.643035	-1.311679	4.492800	0.030304	0.049983	0.016066	-0.597342	-0.312049	-0.410801	0.614044
48093	-8.630023	-1.327216	4.454847	0.008217	0.077255	-0.010728	-0.597398	-0.312014	-0.410736	0.614051
48094	-8.635153	-1.324627	4.475683	0.012888	0.063055	0.003020	-0.597454	-0.311987	-0.410668	0.614056
48095	-8.642267	-1.307883	4.495384	0.031788	0.052145	0.016050	-0.597510	-0.311915	-0.410581	0.614097
48096	-8.612838	-1.361288	4.508209	-0.022348	0.026027	0.003466	-0.597550	-0.311844	-0.410525	0.614131
48097	-8.636430	-1.335540	4.501424	0.004251	0.046998	0.017480	-0.597623	-0.311770	-0.410440	0.614155
48098	-8.603298	-1.330055	4.500829	0.006236	0.034812	-0.012585	-0.597688	-0.311677	-0.410361	0.614191
48099	-8.609586	-1.332111	4.490164	0.003550	0.049778	-0.011740	-0.597749	-0.311577	-0.410286	0.614232
48100	-8.624448	-1.346052	4.520795	-0.005130	0.031595	0.017344	-0.597799	-0.311487	-0.410230	0.614267
48101	-8.628295	-1.317172	4.518924	0.023879	0.038965	0.015893	-0.597825	-0.311413	-0.410184	0.614310
48102	-8.606151	-1.373611	4.518872	-0.033476	0.027140	0.004185	-0.597854	-0.311326	-0.410136	0.614358
48103	-8.586160	-1.369791	4.524436	-0.030547	0.014206	-0.011266	-0.597876	-0.311299	-0.410137	0.614349
48104	-8.615543	-1.360775	4.505171	-0.021380	0.046124	0.004301	-0.597898	-0.311294	-0.410108	0.614350
48105	-8.600345	-1.327573	4.507201	0.010001	0.039877	-0.012608	-0.597914	-0.311268	-0.410077	0.614367
48106	-8.628121	-1.360464	4.513026	-0.019518	0.046917	0.018902	-0.597936	-0.311248	-0.410033	0.614386
48107	-8.610099	-1.360053	4.485987	-0.024136	0.063211	-0.009471	-0.597954	-0.311215	-0.409998	0.614408
48108	-8.605370	-1.324734	4.528247	0.015638	0.027179	0.001147	-0.597959	-0.311165	-0.409973	0.614445
48109	-8.632144	-1.330913	4.511006	0.010534	0.055759	0.017429	-0.597965	-0.311109	-0.409964	0.614474
48110	-8.604566	-1.343333	4.497989	-0.005063	0.054458	-0.011054	-0.597966	-0.311043	-0.409953	0.614513
48111	-8.609790	-1.342634	4.518021	-0.000389	0.040289	0.002711	-0.597944	-0.310987	-0.409975	0.614549
48112	-8.595430	-1.338341	4.542769	0.006649	0.012518	0.001034	-0.597929	-0.310941	-0.409991	0.614577
48113	-8.592869	-1.371385	4.513124	-0.028818	0.035784	-0.010429	-0.597916	-0.310900	-0.410003	0.614601
48114	-8.622858	-1.345001	4.524139	0.002010	0.041864	0.017307	-0.597890	-0.310912	-0.410034	0.614601
48115	-8.621239	-1.359373	4.524519	-0.011705	0.039232	0.018043	-0.597864	-0.310906	-0.410074	0.614602
48116	-8.606167	-1.345231	4.494359	-0.002060	0.058838	-0.011078	-0.597836	-0.310912	-0.410109	0.614602
48117	-8.595252	-1.371048	4.508686	-0.026801	0.038671	-0.010434	-0.597813	-0.310965	-0.410119	0.614591
48118	-8.597442	-1.328270	4.482713	0.012285	0.064239	-0.026434	-0.597804	-0.311001	-0.410134	0.614572
48119	-8.630789	-1.314086	4.515058	0.033061	0.052079	0.015806	-0.597814	-0.310997	-0.410140	0.614561
48120	-8.623841	-1.311598	4.527116	0.036791	0.038510	0.014971	-0.597806	-0.310945	-0.410164	0.614578
48121	-8.604587	-1.354265	4.524126	-0.006352	0.029925	0.002593	-0.597795	-0.310885	-0.410184	0.614605
48122	-8.600041	-1.383323	4.527296	-0.034304	0.024022	0.004081	-0.597808	-0.310839	-0.410168	0.614627
48123	-8.606712	-1.339990	4.522744	0.008977	0.034691	0.001842	-0.597804	-0.310812	-0.410152	0.614656
48124	-8.587459	-1.381875	4.519978	-0.034203	0.026160	-0.010525	-0.597809	-0.310777	-0.410141	0.614676
48125	-8.607518	-1.385047	4.514461	-0.036016	0.040514	0.004906	-0.597808	-0.310793	-0.410147	0.614665
48126	-8.631231	-1.331679	4.482660	0.014988	0.082967	0.003557	-0.597822	-0.310783	-0.410130	0.614667
48127	-8.603214	-1.366822	4.524596	-0.017455	0.030968	0.003330	-0.597826	-0.310776	-0.410129	0.614667
48128	-8.623371	-1.369945	4.518899	-0.019334	0.045313	0.018757	-0.597799	-0.310798	-0.410126	0.614686
48129	-8.591581	-1.364532	4.515728	-0.017379	0.033082	-0.011279	-0.597792	-0.310819	-0.410124	0.614682
48130	-8.604846	-1.364918	4.522066	-0.015963	0.033169	0.003325	-0.597764	-0.310860	-0.410142	0.614677
48131	-8.601337	-1.392872	4.523635	-0.043994	0.027264	0.004832	-0.597730	-0.310929	-0.410164	0.614661
48132	-8.587217	-1.359235	4.523742	-0.012636	0.020994	-0.012103	-0.597710	-0.311014	-0.410184	0.614624
48133	-8.617593	-1.349373	4.502701	-0.003494	0.052902	0.003382	-0.597679	-0.311109	-0.410186	0.614604
48134	-8.629596	-1.345232	4.540743	0.005354	0.023875	0.030956	-0.597662	-0.311185	-0.410214	0.614564
48135	-8.613390	-1.389743	4.503539	-0.045249	0.044430	0.005649	-0.597628	-0.311277	-0.410236	0.614536
48136	-8.597401	-1.370053	4.504652	-0.028095	0.034771	-0.010533	-0.597609	-0.311400	-0.410285	0.614459
48137	-8.617913	-1.343970	4.473781	-0.005556	0.070590	-0.010424	-0.597593	-0.311541	-0.410300	0.614393
48138	-8.632524	-1.324573	4.509789	0.017557	0.044863	0.016394	-0.597583	-0.311651	-0.410312	0.614339
48139	-8.642288	-1.283339	4.470437	0.053392	0.084656	0.001124	-0.597578	-0.311738	-0.410343	0.614279
48140	-8.645479	-1.337091	4.514726	0.005296	0.042393	0.031755	-0.597557	-0.311772	-0.410386	0.614253
48141	-8.650213	-1.326122	4.479237	0.012630	0.075499	0.018004	-0.597550	-0.311774	-0.410423	0.614234
48142	-8.619530	-1.348430	4.498989	-0.009725	0.041727	0.003301	-0.597552	-0.311780	-0.410445	0.614214
48143	-8.649099	-1.339525	4.479006	-0.000526	0.073615	0.018758	-0.597552	-0.311778	-0.410440	0.614220
48144	-8.624532	-1.318618	4.494994	0.019817	0.049748	0.001762	-0.597583	-0.311732	-0.410427	0.614221
48145	-8.619532	-1.365199	4.467587	-0.029868	0.069601	-0.008928	-0.597623	-0.311685	-0.410402	0.614222
48146	-8.625736	-1.390502	4.511378	-0.049485	0.033954	0.020203	-0.597685	-0.311637	-0.410341	0.614227
48147	-8.611765	-1.360627	4.481944	-0.025615	0.056757	-0.009742	-0.597760	-0.311607	-0.410260	0.614224
48148	-8.623391	-1.314563	4.498370	0.021802	0.052477	0.001743	-0.597829	-0.311568	-0.410176	0.614232
48149	-8.587265	-1.364974	4.523511	-0.029089	0.012123	-0.011390	-0.597886	-0.311514	-0.410117	0.614244
48150	-8.620386	-1.327254	4.501999	0.008530	0.050667	0.002506	-0.597920	-0.311454	-0.410079	0.614267
48151	-8.612776	-1.324801	4.515384	0.012328	0.037101	0.001699	-0.597946	-0.311366	-0.410054	0.614302
48152	-8.612944	-1.370716	4.508292	-0.033183	0.042190	0.004822	-0.597968	-0.311294	-0.410041	0.614326
48153	-8.609971	-1.339308	4.518093	-0.000919	0.035269	0.002468	-0.598001	-0.311253	-0.410015	0.614332
48154	-8.611591	-1.342707	4.485980	-0.007867	0.065157	-0.010541	-0.598016	-0.311213	-0.409983	0.614360
48155	-8.599400	-1.323123	4.509646	0.013370	0.040679	-0.012921	-0.598030	-0.311178	-0.409976	0.614368
48156	-8.619200	-1.326571	4.504471	0.011553	0.055053	0.002479	-0.598044	-0.311135	-0.409976	0.614377
48157	-8.646358	-1.314666	4.518035	0.028228	0.057859	0.030907	-0.598056	-0.311045	-0.409968	0.614415
48158	-8.613428	-1.310967	4.516586	0.030123	0.045552	0.000892	-0.598085	-0.310904	-0.409974	0.614455
48159	-8.615401	-1.343877	4.508250	-0.001148	0.053962	0.003246	-0.598084	-0.310752	-0.409983	0.614527
48160	-8.610019	-1.374262	4.512796	-0.029174	0.048063	0.004807	-0.598123	-0.310598	-0.409956	0.614584
48161	-8.617761	-1.318027	4.508135	0.028340	0.061935	0.001672	-0.598149	-0.310444	-0.409948	0.614642
48162	-8.571859	-1.382967	4.547204	-0.033535	0.003962	-0.011397	-0.598150	-0.310325	-0.409961	0.614692
48163	-8.591324	-1.388038	4.542188	-0.035359	0.018290	0.004002	-0.598137	-0.310230	-0.410028	0.614708
48164	-8.610680	-1.347204	4.544240	0.008819	0.028368	0.016249	-0.598123	-0.310177	-0.410085	0.614711
48165	-8.599109	-1.392391	4.527922	-0.037658	0.034026	0.004793	-0.598113	-0.310150	-0.410143	0.614696
48166	-8.613287	-1.352360	4.509752	0.002292	0.058943	0.003217	-0.598097	-0.310092	-0.410194	0.614707
48167	-8.610181	-1.408983	4.535246	-0.049976	0.031703	0.020187	-0.598104	-0.310071	-0.410208	0.614701
48168	-8.591977	-1.363194	4.515187	-0.008640	0.043527	-0.011396	-0.598116	-0.310058	-0.410211	0.614694
48169	-8.594382	-1.348391	4.513368	0.006109	0.047518	-0.012190	-0.598133	-0.310028	-0.410202	0.614698
48170	-8.608104	-1.376308	4.543797	-0.016676	0.026161	0.017817	-0.598163	-0.310018	-0.410181	0.614688
48171	-8.607268	-1.347934	4.520678	0.008149	0.048311	0.002409	-0.598187	-0.310004	-0.410161	0.614685
48172	-8.617859	-1.362569	4.529520	-0.004625	0.045145	0.017805	-0.598215	-0.309996	-0.410145	0.614673
48173	-8.601026	-1.389400	4.525198	-0.033559	0.039843	0.004786	-0.598257	-0.309964	-0.410124	0.614662
48174	-8.585832	-1.356046	4.527183	-0.002244	0.033504	-0.012196	-0.598292	-0.309966	-0.410100	0.614642
48175	-8.574052	-1.335430	4.550388	0.019027	0.008969	-0.014559	-0.598337	-0.309976	-0.410084	0.614605
48176	-8.597643	-1.414210	4.527641	-0.060593	0.035343	0.006379	-0.598393	-0.310001	-0.410049	0.614560
48177	-8.602563	-1.383011	4.524235	-0.031531	0.042691	0.004781	-0.598479	-0.310048	-0.409998	0.614487
48178	-8.598125	-1.363117	4.535090	-0.013509	0.032479	0.003200	-0.598580	-0.310096	-0.409922	0.614415
48179	-8.595424	-1.347044	4.513475	-0.002959	0.051325	-0.011430	-0.598656	-0.310148	-0.409868	0.614351
48180	-8.591016	-1.327463	4.524136	0.015075	0.041078	-0.013013	-0.598746	-0.310186	-0.409827	0.614272
48181	-8.638592	-1.316386	4.532083	0.029424	0.057617	0.030774	-0.598831	-0.310194	-0.409791	0.614209
48182	-8.634488	-1.343215	4.535344	0.001461	0.051765	0.032376	-0.598918	-0.310179	-0.409745	0.614163
48183	-8.589661	-1.335825	4.525931	0.002314	0.039992	-0.012220	-0.598995	-0.310160	-0.409707	0.614122
48184	-8.611216	-1.341699	4.488700	-0.006953	0.083525	-0.009902	-0.599072	-0.310122	-0.409667	0.614093
48185	-8.604293	-1.319779	4.532805	0.018574	0.044206	0.001572	-0.599171	-0.310067	-0.409627	0.614050
48186	-8.597083	-1.316298	4.545703	0.022383	0.030628	0.000796	-0.599228	-0.310027	-0.409626	0.614016
48187	-8.591924	-1.316806	4.525527	0.018656	0.046138	-0.013042	-0.599276	-0.310011	-0.409631	0.613974
48188	-8.587100	-1.386519	4.552543	-0.047869	0.015518	0.004839	-0.599306	-0.310023	-0.409647	0.613928
48189	-8.628500	-1.350417	4.516482	-0.013405	0.068415	0.019321	-0.599320	-0.310069	-0.409665	0.613879
48190	-8.593384	-1.354844	4.546541	-0.018321	0.023593	0.003218	-0.599337	-0.310149	-0.409689	0.613805
48191	-8.604063	-1.340984	4.530425	-0.006842	0.041870	0.003172	-0.599338	-0.310240	-0.409719	0.613739
48192	-8.592931	-1.338031	4.520801	-0.007296	0.043174	-0.011437	-0.599336	-0.310342	-0.409748	0.613670
48193	-8.623388	-1.327399	4.499544	0.001881	0.075097	0.003883	-0.599359	-0.310435	-0.409755	0.613596
48194	-8.603912	-1.363674	4.527537	-0.033864	0.037379	0.004795	-0.599378	-0.310515	-0.409769	0.613528
48195	-8.593086	-1.342008	4.549189	-0.012641	0.012849	0.002449	-0.599399	-0.310644	-0.409764	0.613445
48196	-8.601972	-1.341418	4.534265	-0.015359	0.027846	0.003212	-0.599415	-0.310796	-0.409783	0.613340
48197	-8.621673	-1.356063	4.527719	-0.031403	0.039018	0.019397	-0.599428	-0.310971	-0.409809	0.613221
48198	-8.597304	-1.323121	4.486940	-0.008547	0.062288	-0.025299	-0.599446	-0.311137	-0.409817	0.613113
48199	-8.634150	-1.291526	4.515782	0.026626	0.053643	0.016112	-0.599472	-0.311306	-0.409827	0.612996
48200	-8.588208	-1.338711	4.529660	-0.025296	0.013770	-0.011338	-0.599489	-0.311483	-0.409827	0.612889
48201	-8.594846	-1.393205	4.540015	-0.080822	0.000774	0.006559	-0.599515	-0.311732	-0.409843	0.612726
48202	-8.613321	-1.332638	4.517099	-0.026580	0.028944	0.004026	-0.599546	-0.312037	-0.409845	0.612540
48203	-8.609285	-1.342014	4.493908	-0.044594	0.041183	-0.008999	-0.599567	-0.312427	-0.409850	0.612317
48204	-8.608430	-1.318261	4.498899	-0.026591	0.030939	-0.010581	-0.599559	-0.312852	-0.409904	0.612072
48205	-8.620817	-1.295236	4.510113	-0.007618	0.020156	0.002442	-0.599543	-0.313332	-0.409978	0.611792
48206	-8.605476	-1.343596	4.501109	-0.065032	0.008308	-0.008855	-0.599535	-0.313896	-0.410037	0.611471
48207	-8.617301	-1.332583	4.511876	-0.060275	-0.005781	0.005000	-0.599517	-0.314539	-0.410127	0.611098
48208	-8.635365	-1.337334	4.509747	-0.073089	-0.008836	0.020438	-0.599467	-0.315303	-0.410265	0.610660
48209	-8.632262	-1.264366	4.495461	-0.013349	-0.008572	0.001764	-0.599401	-0.316185	-0.410426	0.610161
48210	-8.670594	-1.243080	4.460908	-0.004153	0.023399	0.017040	-0.599318	-0.317094	-0.410677	0.609602
48211	-8.669365	-1.233754	4.404830	-0.012132	0.053737	-0.010673	-0.599201	-0.318033	-0.410960	0.609037
48212	-8.695805	-1.211503	4.360641	-0.003934	0.086296	-0.010012	-0.599085	-0.319024	-0.411254	0.608433
48213	-8.706895	-1.139158	4.349163	0.056751	0.085903	-0.014102	-0.598952	-0.319949	-0.411571	0.607863
48214	-8.715281	-1.184240	4.358255	0.004484	0.058699	0.003087	-0.598807	-0.320840	-0.411918	0.607302
48215	-8.748880	-1.148035	4.331808	0.031208	0.079755	0.016762	-0.598657	-0.321719	-0.412284	0.606736
48216	-8.758704	-1.138089	4.314544	0.031677	0.080562	0.016753	-0.598511	-0.322539	-0.412640	0.606203
48217	-8.749346	-1.129918	4.270979	0.026959	0.096604	-0.011721	-0.598350	-0.323306	-0.413020	0.605693
48218	-8.757702	-1.159796	4.312462	-0.003579	0.043575	0.017769	-0.598201	-0.324005	-0.413375	0.605225
48219	-8.787456	-1.103556	4.233302	0.039896	0.115011	0.002771	-0.598072	-0.324618	-0.413694	0.604806
48220	-8.797493	-1.068973	4.217954	0.068909	0.122342	0.001078	-0.597970	-0.325058	-0.413942	0.604501
48221	-8.791747	-1.091812	4.225374	0.044129	0.102185	0.002009	-0.597892	-0.325329	-0.414132	0.604302
48222	-8.802558	-1.073845	4.237693	0.063088	0.091417	0.015022	-0.597846	-0.325460	-0.414256	0.604192
48223	-8.827968	-1.089561	4.250353	0.051270	0.087852	0.045067	-0.597810	-0.325443	-0.414334	0.604183
48224	-8.797066	-1.132407	4.240941	0.006990	0.079796	0.018380	-0.597821	-0.325327	-0.414346	0.604226
48225	-8.772896	-1.159894	4.251640	-0.018751	0.060245	0.004722	-0.597838	-0.325136	-0.414308	0.604338
48226	-8.764687	-1.159313	4.266810	-0.014996	0.046671	0.003982	-0.597863	-0.324972	-0.414254	0.604439
48227	-8.755719	-1.116733	4.257342	0.027251	0.057753	-0.013167	-0.597899	-0.324787	-0.414192	0.604546
48228	-8.755508	-1.164215	4.252613	-0.018270	0.062892	-0.009894	-0.597937	-0.324571	-0.414133	0.604664
48229	-8.729590	-1.187956	4.297604	-0.036564	0.014205	-0.010400	-0.597994	-0.324353	-0.414046	0.604784
48230	-8.749814	-1.181767	4.261476	-0.031585	0.061005	-0.009052	-0.598082	-0.324148	-0.413924	0.604890
48231	-8.763514	-1.150335	4.301356	0.005865	0.038799	0.016991	-0.598160	-0.323980	-0.413805	0.604985
48232	-8.745539	-1.119073	4.307372	0.037123	0.032366	-0.000052	-0.598239	-0.323768	-0.413696	0.605096
48233	-8.713368	-1.143841	4.333035	0.014604	-0.001464	-0.014416	-0.598285	-0.323556	-0.413589	0.605236
48234	-8.732695	-1.194092	4.322850	-0.033095	0.017350	0.004209	-0.598332	-0.323373	-0.413536	0.605323
48235	-8.732132	-1.198593	4.293079	-0.040054	0.047043	-0.008940	-0.598414	-0.323237	-0.413436	0.605384
48236	-8.732659	-1.183682	4.294120	-0.025349	0.051051	-0.009797	-0.598494	-0.323139	-0.413318	0.605437
48237	-8.733231	-1.168497	4.295141	-0.010590	0.055017	-0.010656	-0.598594	-0.323018	-0.413206	0.605480
48238	-8.753320	-1.193969	4.347514	-0.029081	0.019078	0.033421	-0.598684	-0.322951	-0.413102	0.605497
48239	-8.720534	-1.150550	4.290561	0.003660	0.060183	-0.026127	-0.598784	-0.322912	-0.413008	0.605483
48240	-8.754672	-1.179951	4.317023	-0.021432	0.052792	0.019403	-0.598895	-0.322841	-0.412882	0.605497
48241	-8.743630	-1.166969	4.278164	-0.015198	0.086296	-0.009224	-0.598996	-0.322773	-0.412756	0.605520
48242	-8.730367	-1.184131	4.361588	-0.024986	0.008016	0.018093	-0.599101	-0.322702	-0.412643	0.605531
48243	-8.725493	-1.169603	4.342035	-0.014502	0.026822	0.003347	-0.599177	-0.322668	-0.412535	0.605547
48244	-8.733650	-1.215471	4.322706	-0.063228	0.046199	0.007377	-0.599257	-0.322685	-0.412454	0.605514
48245	-8.713491	-1.167876	4.304070	-0.021954	0.057807	-0.024427	-0.599359	-0.322712	-0.412367	0.605458
48246	-8.736883	-1.139047	4.295575	0.004829	0.078817	-0.010836	-0.599459	-0.322742	-0.412279	0.605403
48247	-8.756663	-1.079320	4.296871	0.063348	0.092216	0.000297	-0.599561	-0.322722	-0.412174	0.605384
48248	-8.755042	-1.133794	4.324758	0.011079	0.065018	0.017645	-0.599650	-0.322652	-0.412108	0.605378
48249	-8.739758	-1.146337	4.321105	-0.003677	0.062893	0.003903	-0.599746	-0.322572	-0.412010	0.605393
48250	-8.735316	-1.173782	4.326688	-0.031666	0.057014	0.005637	-0.599864	-0.322492	-0.411895	0.605397
48251	-8.738822	-1.147206	4.293307	-0.010208	0.093383	-0.009283	-0.599986	-0.322397	-0.411770	0.605411
48252	-8.708326	-1.151094	4.348453	-0.010956	0.033784	-0.011272	-0.600097	-0.322287	-0.411657	0.605437
48253	-8.743275	-1.124927	4.349000	0.016797	0.054260	0.016905	-0.600196	-0.322195	-0.411560	0.605453
48254	-8.691909	-1.162668	4.347330	-0.025278	0.032395	-0.025008	-0.600286	-0.322123	-0.411486	0.605453
48255	-8.718814	-1.148398	4.361069	-0.008531	0.035364	0.003327	-0.600372	-0.322084	-0.411425	0.605430
48256	-8.718515	-1.147039	4.362025	-0.008047	0.036066	0.003325	-0.600452	-0.322034	-0.411370	0.605414
48257	-8.739753	-1.133987	4.355620	0.004449	0.053788	0.017761	-0.600551	-0.322016	-0.411303	0.605371
48258	-8.710450	-1.159575	4.345695	-0.025538	0.048915	-0.009699	-0.600650	-0.321969	-0.411240	0.605341
48259	-8.731578	-1.146345	4.339563	-0.013024	0.066723	0.004733	-0.600749	-0.321937	-0.411153	0.605318
48260	-8.717446	-1.139859	4.366042	-0.006009	0.038875	0.003316	-0.600846	-0.321901	-0.411091	0.605283
48261	-8.706061	-1.160629	4.414958	-0.023230	-0.010187	0.017560	-0.600919	-0.321917	-0.411052	0.605229
48262	-8.718684	-1.177283	4.390847	-0.043419	0.015814	0.019852	-0.600979	-0.321973	-0.411007	0.605170
48263	-8.720504	-1.178381	4.357563	-0.050393	0.045500	0.006657	-0.601043	-0.322049	-0.410977	0.605086
48264	-8.723893	-1.104793	4.328921	0.017089	0.077369	-0.011659	-0.601113	-0.322105	-0.410899	0.605040
48265	-8.735279	-1.117413	4.337707	0.004357	0.074274	0.003823	-0.601175	-0.322128	-0.410848	0.605001
48266	-8.719968	-1.125223	4.364802	-0.002915	0.043203	0.003299	-0.601233	-0.322146	-0.410796	0.604969
48267	-8.731095	-1.078718	4.379764	0.044556	0.039008	0.014544	-0.601278	-0.322128	-0.410754	0.604962
48268	-8.713114	-1.120626	4.377957	0.001313	0.030350	0.002593	-0.601304	-0.322087	-0.410738	0.604969
48269	-8.716553	-1.151248	4.368865	-0.029863	0.038810	0.005065	-0.601349	-0.322047	-0.410712	0.604963
48270	-8.694642	-1.179553	4.345361	-0.063177	0.048222	-0.021672	-0.601389	-0.322094	-0.410652	0.604940
48271	-8.718819	-1.132948	4.367090	-0.014621	0.043537	0.004172	-0.601447	-0.322136	-0.410592	0.604900
48272	-8.708149	-1.115294	4.358126	-0.000852	0.048051	-0.011326	-0.601510	-0.322181	-0.410537	0.604851
48273	-8.712114	-1.084082	4.354234	0.028185	0.055308	-0.013112	-0.601553	-0.322226	-0.410519	0.604796
48274	-8.726413	-1.086995	4.328348	0.022243	0.084541	-0.011729	-0.601610	-0.322212	-0.410505	0.604757
48275	-8.697278	-1.053737	4.323699	0.052413	0.078492	-0.043426	-0.601678	-0.322128	-0.410503	0.604735
48276	-8.668366	-1.101133	4.401507	0.013169	-0.005781	-0.028715	-0.601748	-0.321999	-0.410542	0.604708
48277	-8.733442	-1.071899	4.347315	0.042282	0.075119	0.001267	-0.601796	-0.321838	-0.410647	0.604674
48278	-8.689203	-1.071518	4.456889	0.055475	-0.042090	0.011232	-0.601789	-0.321675	-0.410828	0.604645
48279	-8.678796	-1.060512	4.445794	0.069156	-0.037657	-0.004269	-0.601742	-0.321500	-0.411131	0.604578
48280	-8.731749	-1.051119	4.501431	0.095550	-0.064553	0.066476	-0.601611	-0.321280	-0.411509	0.604569
48281	-8.711522	-1.252520	4.334922	-0.116743	0.056496	-0.002787	-0.601490	-0.321041	-0.411882	0.604562
48282	-8.696890	-1.207962	4.364667	-0.063761	0.024283	-0.007549	-0.601415	-0.320932	-0.412132	0.604525
48283	-8.686659	-1.093503	4.333498	0.048620	0.052112	-0.043966	-0.601372	-0.320942	-0.412378	0.604394
48284	-8.605686	-1.423243	4.476252	-0.265836	-0.140475	-0.013203	-0.601367	-0.321074	-0.412575	0.604195
48285	-8.657385	-1.504983	4.526955	-0.342390	-0.176086	0.064577	-0.601403	-0.321714	-0.412597	0.603803
48286	-8.765624	-1.216735	4.421726	-0.074304	-0.025056	0.079839	-0.601489	-0.322614	-0.412607	0.603230
48287	-8.751651	-1.209381	4.296870	-0.098407	0.063562	0.010923	-0.601594	-0.323630	-0.412675	0.602534
48288	-8.762069	-1.112393	4.318741	-0.015947	0.037446	0.018949	-0.601744	-0.324678	-0.412803	0.601733
48289	-8.831242	-1.007530	4.201647	0.061643	0.160988	0.017369	-0.601877	-0.325742	-0.412935	0.600933
48290	-8.833872	-1.064567	4.161589	-0.016640	0.174253	0.008653	-0.602049	-0.326756	-0.413049	0.600131
48291	-8.814059	-0.938573	4.147609	0.087978	0.170242	-0.028289	-0.602279	-0.327694	-0.413051	0.599388
48292	-8.796841	-1.064989	4.263927	-0.042512	0.033628	0.020761	-0.602539	-0.328590	-0.413080	0.598616
48293	-8.733152	-1.032200	4.294107	-0.028918	-0.035626	-0.026444	-0.602823	-0.329635	-0.413080	0.597754
48294	-8.738231	-1.275746	4.270507	-0.294619	-0.051094	-0.007998	-0.603121	-0.330903	-0.413128	0.596720
48295	-8.719939	-1.339967	4.431351	-0.368266	-0.235435	0.050299	-0.603411	-0.332720	-0.413246	0.595332
48296	-8.730607	-1.007021	4.247393	-0.094225	-0.077578	-0.052424	-0.603690	-0.335197	-0.413389	0.593558
48297	-8.777539	-0.941666	4.515399	-0.038173	-0.342045	0.096999	-0.603797	-0.338003	-0.413911	0.591490
48298	-8.843188	-1.017067	4.811735	-0.119236	-0.654423	0.284145	-0.603567	-0.341481	-0.415087	0.588898
48299	-8.812547	-1.138715	5.183536	-0.246614	-1.109782	0.411448	-0.602986	-0.346076	-0.417015	0.585438
48300	-9.042899	-1.204883	5.417804	-0.333387	-1.368149	0.703632	-0.602073	-0.351906	-0.419881	0.580836
48301	-9.482981	-1.496879	5.995995	-0.615963	-1.927122	1.323837	-0.600961	-0.358995	-0.423419	0.575053
48302	-10.094962	-1.138105	6.738914	-0.251082	-2.571843	2.100870	-0.599750	-0.367075	-0.427423	0.568213
48303	-10.816701	-0.240269	7.433593	0.641598	-3.143555	2.915831	-0.598094	-0.375101	-0.432909	0.560511
48304	-11.330890	-0.568746	8.570404	0.393633	-4.393964	3.703615	-0.595399	-0.382783	-0.440463	0.552240
48305	-11.966112	-1.794511	9.379105	-0.733919	-5.496432	4.456383	-0.591495	-0.390915	-0.450111	0.542880
48306	-13.090472	-2.203594	9.284585	-1.133715	-5.671915	5.317653	-0.585552	-0.401511	-0.462075	0.531418
48307	-13.913312	-4.589706	8.537414	-3.549915	-5.787162	5.723390	-0.577321	-0.414126	-0.478442	0.516035
48308	-15.187598	-8.300968	5.476047	-7.639344	-4.057864	6.144056	-0.569713	-0.430052	-0.495608	0.494829
48309	-16.740994	-6.387983	1.452235	-6.567703	-0.706531	6.903723	-0.566522	-0.446721	-0.507151	0.471477
48310	-15.060894	-0.625268	-0.538085	-1.560967	1.129254	5.144448	-0.566816	-0.464370	-0.515661	0.444042
48311	-31.649191	9.259256	-7.773065	4.783979	9.452565	22.364688	-0.571863	-0.471929	-0.523374	0.419923
48312	-23.902139	4.074342	-3.722751	0.648061	3.970227	14.386023	-0.582193	-0.461355	-0.535536	0.401752
48313	-18.230172	-2.206517	-2.394717	-4.637658	1.079898	8.083305	-0.593214	-0.446338	-0.545884	0.388446
48314	-14.362361	-4.311646	-0.889960	-5.799948	-1.036908	4.005506	-0.601255	-0.436808	-0.552213	0.377824
48315	-12.017436	-2.770040	0.325112	-3.715441	-1.738763	1.822062	-0.604004	-0.435095	-0.556385	0.369200
48316	-10.799536	-0.872253	0.366382	-1.820986	-1.216415	0.804587	-0.601317	-0.438868	-0.560287	0.363168
48317	-10.009712	0.307755	0.064871	-0.724640	-0.651739	0.154251	-0.593958	-0.445435	-0.564514	0.360729
48318	-10.254952	0.766022	-1.018706	-0.619451	0.304402	0.497866	-0.583312	-0.453210	-0.568453	0.362227
48319	-10.128210	1.092649	-2.441761	-0.626436	1.595322	0.521444	-0.571265	-0.460924	-0.570457	0.368490
48320	-8.844503	1.777937	-2.479614	0.311945	1.892601	-0.655639	-0.559662	-0.467699	-0.569353	0.379306
48321	-7.760176	2.821065	-2.428456	1.602589	2.216136	-1.652262	-0.548796	-0.473144	-0.566210	0.392891
48322	-6.748171	3.484059	-2.781980	2.412321	2.805131	-2.620766	-0.539416	-0.476635	-0.561764	0.407762
48323	-5.880676	3.392406	-3.135682	2.471184	3.205893	-3.524963	-0.532118	-0.477980	-0.557154	0.421859
48324	-5.038598	2.601558	-3.788752	1.754269	3.775724	-4.411370	-0.526527	-0.478514	-0.552424	0.434305
48325	-4.434821	2.049924	-4.771391	1.197007	4.714776	-5.019796	-0.521780	-0.480023	-0.546694	0.445477
48326	-3.975784	2.535819	-5.231945	1.757153	5.284723	-5.500781	-0.517121	-0.482886	-0.540494	0.455273
48327	-2.549736	2.979460	-4.515675	2.424308	4.692679	-7.007386	-0.512034	-0.486630	-0.534814	0.463666
48328	-2.144385	3.120807	-4.441057	2.685763	4.606697	-7.441070	-0.505947	-0.491032	-0.530753	0.470326
48329	-1.596302	2.933383	-4.303322	2.615248	4.420949	-7.999996	-0.498404	-0.496759	-0.527469	0.476026
48330	-0.355503	2.886276	-3.818550	2.686826	3.937726	-9.253712	-0.489995	-0.503708	-0.524453	0.480763
48331	1.478515	3.363789	-2.098653	3.280830	2.295299	-11.181145	-0.481005	-0.511460	-0.522125	0.484178
48332	2.953230	2.833525	-1.479060	2.780789	1.737837	-12.673637	-0.471433	-0.520165	-0.520519	0.486045
48333	4.123748	3.476017	-0.425659	3.427913	0.783540	-13.924208	-0.462197	-0.529615	-0.519367	0.485943
48334	4.628437	3.714182	0.614764	3.653131	-0.175490	-14.526402	-0.455251	-0.538006	-0.520109	0.482475
48335	4.254747	2.289207	0.881827	2.247398	-0.376168	-14.163326	-0.450887	-0.545669	-0.521848	0.476046
48336	3.019368	2.150182	0.746421	2.145808	-0.350193	-12.906144	-0.447910	-0.553683	-0.523216	0.468035
48337	1.604104	2.700478	0.647872	2.707447	-0.466752	-11.467130	-0.445766	-0.561247	-0.524490	0.459570
48338	0.003713	2.071143	-0.076215	2.071454	-0.011594	-9.746811	-0.444122	-0.568167	-0.525445	0.451496
48339	-1.618453	1.502630	-0.744909	1.448381	0.325717	-8.015993	-0.443731	-0.574526	-0.525712	0.443453
48340	-2.741319	1.688407	-1.722298	1.565068	0.999592	-6.668993	-0.445122	-0.579827	-0.525483	0.435354
48341	-3.654649	2.462217	-2.008049	2.220505	1.013559	-5.630258	-0.448225	-0.582918	-0.526089	0.427237
48342	-5.158017	2.418386	-2.646455	1.988238	1.263974	-3.989795	-0.451745	-0.584042	-0.527759	0.419870
48343	-6.393554	2.178712	-3.198828	1.558211	1.497576	-2.658283	-0.455577	-0.583796	-0.529132	0.414308
48344	-6.746038	2.883557	-2.793289	2.158839	1.019761	-2.334352	-0.459752	-0.581949	-0.531258	0.409546
48345	-6.295118	1.935073	-2.501665	1.217516	0.875877	-2.929254	-0.463847	-0.579020	-0.533724	0.405858
48346	-6.890766	2.343422	-1.400546	1.576839	-0.305568	-2.576948	-0.466698	-0.577015	-0.534624	0.404258
48347	-9.145640	1.916507	-1.009399	0.934604	-1.219656	-0.540496	-0.468374	-0.575293	-0.535709	0.403336
48348	-10.976678	0.615540	-1.639948	-0.581196	-1.043834	1.238468	-0.470788	-0.573928	-0.534511	0.404060
48349	-12.487844	1.552798	-2.800164	0.104552	-0.140051	3.077827	-0.475353	-0.571712	-0.530957	0.406533
48350	-11.921559	1.973351	-2.190389	0.570154	-0.380894	2.448614	-0.483016	-0.566365	-0.526854	0.410307
48351	-10.393560	1.017670	-1.974500	-0.224099	-0.038947	0.812862	-0.491749	-0.558522	-0.523009	0.415570
48352	-11.590634	1.968816	-0.500701	0.698320	-1.361982	1.854271	-0.499707	-0.549885	-0.519069	0.422477
48353	-14.505687	1.173591	0.119479	-0.276780	-2.126275	4.581677	-0.506208	-0.540313	-0.517818	0.428579
48354	-16.554616	-1.232475	-0.579111	-2.793273	-1.493033	6.492700	-0.512683	-0.530536	-0.516732	0.434368
48355	-18.223230	-2.066090	-1.142403	-3.707770	-0.752609	8.168585	-0.519377	-0.521606	-0.512823	0.441800
48356	-16.684352	-1.268091	-0.972138	-2.701867	-0.186918	6.726776	-0.526570	-0.512844	-0.504065	0.453469
48357	-13.379103	1.353940	1.495290	0.424337	-1.723768	3.599725	-0.532463	-0.503339	-0.493579	0.468522
48358	-11.923829	2.115510	3.689469	1.541909	-3.350181	2.296919	-0.537081	-0.491197	-0.485757	0.484055
48359	-13.052443	-0.461385	3.569228	-0.910135	-2.846596	3.391816	-0.541195	-0.476954	-0.480380	0.498857
48360	-16.731606	-2.698904	2.354643	-3.104294	-0.888708	6.989193	-0.545655	-0.462878	-0.473860	0.513286
48361	-17.947695	-1.601321	1.405337	-1.843044	1.036307	8.135007	-0.551671	-0.448660	-0.462496	0.529586
48362	-15.473953	2.176690	3.659045	2.274038	-0.560659	6.062606	-0.559240	-0.431435	-0.451411	0.545292
48363	-11.343093	1.551157	4.761361	1.922868	-1.860331	2.293182	-0.567520	-0.410785	-0.447177	0.556066
48364	-9.405447	-1.302882	4.508225	-0.741682	-1.821766	0.512108	-0.577066	-0.391286	-0.446778	0.560605
48365	-20.308733	3.000631	1.256550	3.689250	5.172270	9.748698	-0.584125	-0.380147	-0.446796	0.560946
48366	-13.252594	-14.339140	-4.934827	-14.306174	7.510522	2.208767	-0.589641	-0.358982	-0.449174	0.567184
48367	-12.077104	-3.585860	4.531812	-2.353437	-0.312240	3.363186	-0.592249	-0.351159	-0.440976	0.575733
48368	-8.727779	-4.789263	8.116321	-3.240815	-4.640539	1.717285	-0.596493	-0.343721	-0.433731	0.581317
48369	-9.286173	-2.236905	5.855379	-1.004601	-1.833238	1.193977	-0.600481	-0.339202	-0.425151	0.586184
48370	-9.554259	0.055987	4.911088	1.115541	-0.414748	0.863681	-0.604377	-0.333974	-0.417512	0.590655
48371	-8.954807	0.984365	7.405420	2.303535	-2.598177	1.319973	-0.609199	-0.326459	-0.412811	0.593202
48372	-7.796938	-0.464541	8.033301	0.991853	-3.610646	0.747460	-0.615534	-0.315405	-0.414859	0.591210
48373	-8.920706	-0.067166	4.976610	1.098079	-0.228983	0.340681	-0.620245	-0.307900	-0.417133	0.588637
48374	-8.857171	-1.215481	4.361333	-0.071703	0.204376	0.132193	-0.621014	-0.303353	-0.418524	0.589200
48375	-8.424224	-1.546904	4.991489	-0.245068	-0.554552	0.082133	-0.620160	-0.300675	-0.419594	0.590709
48376	-8.391530	-2.054970	4.978035	-0.695730	-0.613460	0.115100	-0.618936	-0.299613	-0.421086	0.591470
48377	-8.729795	-1.286853	4.466911	0.030193	0.081598	0.077251	-0.617574	-0.299066	-0.422725	0.592001
48378	-8.618655	-2.392425	4.300447	-1.055571	0.014870	0.055656	-0.616356	-0.298830	-0.424056	0.592437
48379	-8.718921	-1.905540	4.211320	-0.568830	0.187982	0.037539	-0.615587	-0.299474	-0.424441	0.592637
48380	-8.667362	-1.021966	4.333127	0.320470	0.156508	-0.075319	-0.614963	-0.300125	-0.424669	0.592791
48381	-8.639448	-0.829193	4.378070	0.524481	0.114957	-0.106669	-0.614039	-0.300347	-0.425370	0.593134
48382	-8.524831	-0.904499	4.450552	0.478700	-0.027785	-0.165499	-0.612763	-0.300217	-0.426729	0.593544
48383	-8.511911	-1.131494	4.619227	0.322516	-0.232405	-0.070413	-0.611160	-0.299814	-0.428845	0.593874
48384	-8.637981	-1.838136	4.239409	-0.385037	0.040382	-0.024127	-0.609435	-0.299772	-0.431159	0.593993
48385	-8.814559	-1.232881	4.127812	0.244155	0.259661	-0.008198	-0.607753	-0.299835	-0.433344	0.594094
48386	-8.767918	-1.225434	4.270540	0.317807	0.080822	0.011150	-0.605963	-0.299489	-0.435600	0.594447
48387	-8.453328	-1.384336	4.858067	0.305396	-0.643234	0.009132	-0.604167	-0.298327	-0.440104	0.593542
48388	-7.252559	-1.212590	7.112728	0.916754	-3.262880	-0.160295	-0.601956	-0.296484	-0.451684	0.587985
48389	-9.978738	-1.759035	2.833029	-0.020825	1.408822	0.613124	-0.598748	-0.293444	-0.471277	0.577311
48390	-9.582872	-1.751184	2.549719	0.071673	1.268478	0.176338	-0.596161	-0.288697	-0.483406	0.572333
48391	-9.383813	-2.218836	2.950790	-0.136511	0.631840	0.250423	-0.593818	-0.284472	-0.491230	0.570218
48392	-9.211790	-2.737657	2.944343	-0.524006	0.409872	0.216128	-0.591781	-0.280993	-0.496522	0.569478
48393	-9.275890	-2.580450	2.518936	-0.386505	0.822964	0.097849	-0.590262	-0.278502	-0.499478	0.569692
48394	-9.218729	-2.726698	2.647369	-0.436586	0.660560	0.127195	-0.589502	-0.276520	-0.500205	0.570806
48395	-8.990278	-2.836816	2.867104	-0.484900	0.383840	0.021451	-0.589307	-0.275318	-0.499115	0.572539
48396	-9.081898	-2.398257	3.056539	-0.000467	0.388661	0.057654	-0.589504	-0.274706	-0.496747	0.574685
48397	-8.992929	-2.482321	3.309689	-0.037468	0.169184	0.084704	-0.589891	-0.274238	-0.493896	0.576965
48398	-8.695106	-2.458667	3.489386	-0.032310	-0.045853	-0.126499	-0.590286	-0.273940	-0.490929	0.579231
48399	-8.659678	-2.325123	3.452983	0.060002	0.054358	-0.204748	-0.590643	-0.273461	-0.488428	0.581205
48400	-8.502013	-2.685005	3.648269	-0.270482	-0.201955	-0.185164	-0.590937	-0.273225	-0.486213	0.582872
48401	-8.706283	-2.492284	3.648235	-0.071379	-0.040952	-0.049820	-0.591219	-0.273044	-0.484442	0.584143
48402	-8.448368	-3.041973	3.551493	-0.677944	-0.128694	-0.181210	-0.591675	-0.273224	-0.482690	0.585047
48403	-8.346449	-3.090292	3.655775	-0.743451	-0.246622	-0.222897	-0.592400	-0.274269	-0.480510	0.585618
48404	-8.530345	-2.709349	3.540248	-0.426236	0.021121	-0.197160	-0.593287	-0.275622	-0.478246	0.585939
48405	-8.655066	-2.386431	3.835718	-0.081779	-0.115887	-0.050647	-0.594261	-0.277899	-0.475331	0.586248
48406	-9.037375	-1.595187	4.167433	0.750462	-0.101839	0.237806	-0.595097	-0.279758	-0.473015	0.586390
48407	-8.781955	-2.074104	3.945379	0.161326	-0.092436	0.033938	-0.595491	-0.280737	-0.472516	0.585924
48408	-8.767408	-2.361349	4.013995	-0.119542	-0.219403	0.111681	-0.595773	-0.281601	-0.472581	0.585169
48409	-8.950392	-1.748405	3.813253	0.431872	0.120086	0.061844	-0.595828	-0.282440	-0.472983	0.584384
48410	-8.860819	-2.077489	3.851261	0.105892	-0.029388	0.069122	-0.595729	-0.283184	-0.473620	0.583607
48411	-8.813266	-2.264699	3.607756	-0.144507	0.113274	-0.025723	-0.595700	-0.283872	-0.474171	0.582855
48412	-8.842194	-2.110098	3.669697	0.016883	0.075042	-0.009747	-0.595736	-0.284566	-0.474684	0.582062
48413	-8.770533	-2.073172	3.660652	0.035668	0.037929	-0.085514	-0.595722	-0.285169	-0.475333	0.581251
48414	-8.697230	-1.905532	3.735868	0.203286	-0.055424	-0.159444	-0.595564	-0.285867	-0.476216	0.580347
48415	-8.733903	-2.050112	3.568440	0.027569	0.055318	-0.157953	-0.595268	-0.286677	-0.477251	0.579400
48416	-8.873588	-2.003698	3.418248	0.053560	0.224921	-0.097428	-0.594972	-0.287431	-0.478221	0.578530
48417	-8.868263	-2.157205	3.301389	-0.124463	0.275619	-0.111796	-0.594820	-0.288064	-0.478794	0.577897
48418	-8.913721	-2.126060	3.318455	-0.088875	0.267734	-0.070660	-0.594857	-0.288559	-0.479025	0.577420
48419	-9.058629	-1.784034	3.405081	0.272108	0.302319	0.019437	-0.595068	-0.288838	-0.478797	0.577252
48420	-9.047842	-1.896230	3.427315	0.163084	0.262085	0.041770	-0.595314	-0.288564	-0.478522	0.577363
48421	-8.987620	-1.991578	3.529721	0.086750	0.139860	0.045077	-0.595469	-0.288344	-0.478002	0.577744
48422	-8.894572	-2.215723	3.515817	-0.145132	0.089079	0.003360	-0.595553	-0.287990	-0.477492	0.578255
48423	-8.921127	-1.954505	3.513248	0.107099	0.163810	-0.029478	-0.595608	-0.287816	-0.476764	0.578886
48424	-8.989030	-1.877637	3.607037	0.209600	0.139662	0.050143	-0.595608	-0.287562	-0.475878	0.579740
48425	-8.904915	-2.321786	3.606721	-0.235615	0.052705	0.068521	-0.595661	-0.287645	-0.474417	0.580842
48426	-8.776147	-2.438391	3.429349	-0.423931	0.166893	-0.090586	-0.595872	-0.288046	-0.472477	0.582006
48427	-8.897493	-2.096757	3.712036	-0.039893	0.054294	0.053227	-0.596319	-0.288652	-0.470024	0.583234
48428	-8.896474	-1.704417	3.743222	0.316214	0.124186	-0.017360	-0.596704	-0.288999	-0.467830	0.584431
48429	-8.885964	-1.968872	3.894776	0.072707	-0.025229	0.086811	-0.596961	-0.289057	-0.466056	0.585556
48430	-8.883100	-2.005369	3.688120	-0.025436	0.181499	0.010731	-0.597171	-0.289043	-0.464580	0.586521
48431	-8.935599	-1.859692	3.798226	0.136159	0.156619	0.070974	-0.597403	-0.288685	-0.463279	0.587489
48432	-8.958778	-1.669099	3.811689	0.318381	0.214517	0.057829	-0.597745	-0.288211	-0.461888	0.588468
48433	-8.691191	-2.129379	3.923138	-0.142799	-0.036855	-0.043337	-0.598131	-0.287701	-0.460460	0.589444
48434	-8.663781	-2.223726	3.954838	-0.241985	-0.059215	-0.035947	-0.598628	-0.287437	-0.458985	0.590218
48435	-8.651565	-2.106067	4.183764	-0.093686	-0.222402	0.022488	-0.599146	-0.287250	-0.457682	0.590795
48436	-8.716910	-2.213546	3.893787	-0.269323	0.070366	-0.016344	-0.599680	-0.287262	-0.456487	0.591171
48437	-8.624121	-2.299101	4.093121	-0.339127	-0.141082	-0.000451	-0.600227	-0.287583	-0.455216	0.591441
48438	-8.859205	-1.338462	4.060773	0.590151	0.147189	0.005503	-0.600824	-0.287870	-0.453960	0.591661
48439	-8.785041	-1.831607	4.141055	0.104557	-0.010909	0.070075	-0.601255	-0.287679	-0.453111	0.591966
48440	-8.707100	-2.187269	3.973709	-0.294825	0.066420	0.000403	-0.601779	-0.287466	-0.452482	0.592018
48441	-8.633282	-2.476337	4.013332	-0.587882	-0.030339	0.006991	-0.602465	-0.287474	-0.451667	0.591938
48442	-8.697467	-2.051172	4.101829	-0.169119	-0.009492	0.018360	-0.603096	-0.288000	-0.450773	0.591722
48443	-8.743112	-1.770906	3.928305	0.045827	0.209032	-0.067748	-0.603858	-0.288632	-0.449874	0.591321
48444	-8.839294	-1.821499	3.830705	-0.039831	0.338382	-0.014262	-0.604905	-0.288791	-0.448938	0.590884
48445	-8.689009	-2.434986	3.949800	-0.658152	0.091148	0.015198	-0.606367	-0.289165	-0.447359	0.590400
48446	-8.815675	-1.979643	3.986480	-0.242398	0.200308	0.057873	-0.608169	-0.290037	-0.445215	0.589739
48447	-8.678679	-2.095649	4.080473	-0.409902	0.059748	-0.005065	-0.610229	-0.291182	-0.442499	0.589091
48448	-8.659008	-1.472693	4.449748	0.202485	-0.161754	0.030071	-0.612144	-0.292736	-0.439771	0.588376
48449	-8.657968	-1.038322	4.571584	0.586055	-0.193050	0.013649	-0.613630	-0.294205	-0.437758	0.587596
48450	-8.667377	-1.284694	4.514066	0.282269	-0.172626	0.038251	-0.614696	-0.295635	-0.436503	0.586698
48451	-8.823404	-1.334426	4.405560	0.179374	-0.018869	0.137661	-0.615595	-0.296987	-0.435487	0.585827
48452	-8.834156	-1.384714	4.351627	0.080216	0.019468	0.131630	-0.616461	-0.298240	-0.434521	0.584996
48453	-8.804147	-1.465290	4.214876	-0.066288	0.109706	0.056897	-0.617418	-0.299351	-0.433443	0.584219
48454	-8.746589	-1.468788	4.111562	-0.132999	0.173871	-0.039405	-0.618486	-0.300370	-0.432144	0.583527
48455	-8.634719	-1.397292	4.276227	-0.078227	-0.007043	-0.076641	-0.619608	-0.301362	-0.430726	0.582874
48456	-8.630658	-1.251385	4.340024	0.036073	-0.040616	-0.071694	-0.620572	-0.302498	-0.429501	0.582163
48457	-8.626783	-1.051150	4.344502	0.195175	-0.017647	-0.098652	-0.621394	-0.303592	-0.428457	0.581486
48458	-8.719052	-0.894116	4.316896	0.315336	0.068698	-0.047819	-0.622039	-0.304576	-0.427697	0.580841
48459	-8.713062	-1.017710	4.225520	0.150365	0.122929	-0.077677	-0.622536	-0.305350	-0.427145	0.580308
48460	-8.720091	-1.079459	4.333357	0.089656	0.017142	-0.016012	-0.622907	-0.306040	-0.426758	0.579831
48461	-8.753448	-1.122470	4.300809	0.024552	0.047225	0.004485	-0.623198	-0.306801	-0.426482	0.579319
48462	-8.779658	-1.004482	4.264004	0.118100	0.099560	-0.002019	-0.623401	-0.307555	-0.426333	0.578810
48463	-8.747760	-1.043422	4.290837	0.070233	0.044591	-0.013893	-0.623503	-0.308256	-0.426310	0.578344
48464	-8.707526	-1.212857	4.354608	-0.098022	-0.068856	-0.002475	-0.623546	-0.309125	-0.426371	0.577789
48465	-8.817015	-1.021451	4.164520	0.045034	0.160201	-0.009698	-0.623597	-0.310056	-0.426454	0.577173
48466	-8.817573	-1.105622	4.189888	-0.046448	0.109069	0.011419	-0.623664	-0.310921	-0.426501	0.576601
48467	-8.838800	-1.093030	4.120676	-0.060206	0.167159	-0.001089	-0.623796	-0.311756	-0.426426	0.576062
48468	-8.832604	-1.042477	4.169243	-0.017072	0.117117	0.009237	-0.623962	-0.312572	-0.426253	0.575567
48469	-8.864070	-0.926524	4.118313	0.073218	0.183706	0.003195	-0.624155	-0.313268	-0.426054	0.575128
48470	-8.893545	-0.795151	4.134271	0.193138	0.195968	0.023160	-0.624335	-0.313733	-0.425849	0.574831
48471	-8.873906	-0.697985	4.114872	0.276632	0.216949	-0.012587	-0.624497	-0.313826	-0.425708	0.574708
48472	-8.853387	-0.794405	4.180743	0.191660	0.137296	0.007525	-0.624612	-0.313586	-0.425692	0.574726
48473	-8.832648	-0.918405	4.118550	0.061661	0.169575	-0.025500	-0.624711	-0.313104	-0.425733	0.574851
48474	-8.816826	-1.009964	4.174660	-0.012322	0.107486	-0.005928	-0.624829	-0.312525	-0.425711	0.575054
48475	-8.820993	-0.973487	4.199865	0.035255	0.103570	0.004872	-0.624953	-0.311850	-0.425657	0.575325
48476	-8.773071	-1.021885	4.255827	0.004864	0.037585	-0.008523	-0.625076	-0.311116	-0.425626	0.575612
48477	-8.804014	-0.975484	4.262031	0.061338	0.065223	0.016814	-0.625164	-0.310397	-0.425639	0.575895
48478	-8.793115	-0.988983	4.218237	0.049632	0.109278	-0.010848	-0.625248	-0.309577	-0.425642	0.576243
48479	-8.801624	-1.074249	4.257992	-0.015477	0.078778	0.023299	-0.625317	-0.308730	-0.425645	0.576620
48480	-8.788241	-1.101428	4.249026	-0.033703	0.090749	0.010303	-0.625424	-0.307912	-0.425566	0.577000
48481	-8.769309	-1.081539	4.285118	0.001729	0.069494	0.007082	-0.625554	-0.307027	-0.425409	0.577446
48482	-8.771484	-1.153398	4.275034	-0.061280	0.085589	0.012488	-0.625694	-0.306156	-0.425215	0.577900
48483	-8.779935	-1.019491	4.269152	0.078229	0.133466	0.002011	-0.625840	-0.305264	-0.424964	0.578398
48484	-8.758320	-0.999261	4.341273	0.121358	0.083452	0.012363	-0.625965	-0.304210	-0.424756	0.578971
48485	-8.738941	-1.144136	4.394991	0.001418	0.025788	0.035834	-0.626055	-0.303121	-0.424625	0.579541
48486	-8.708157	-1.148414	4.296717	-0.009365	0.116649	-0.035218	-0.626147	-0.302053	-0.424487	0.580099
48487	-8.692962	-1.164090	4.291655	-0.013365	0.131876	-0.049318	-0.626252	-0.300958	-0.424315	0.580680
48488	-8.666534	-1.301685	4.508659	-0.094770	-0.069754	0.042124	-0.626366	-0.299876	-0.424126	0.581255
48489	-8.685258	-1.230217	4.479968	-0.018707	-0.006503	0.037025	-0.626443	-0.299071	-0.423962	0.581705
48490	-8.717450	-1.131784	4.369905	0.067153	0.135153	0.003021	-0.626503	-0.298261	-0.423836	0.582148
48491	-8.683362	-1.229623	4.390861	-0.015731	0.102114	-0.005460	-0.626551	-0.297383	-0.423680	0.582660
48492	-8.679785	-1.239855	4.455689	-0.003128	0.059533	0.022224	-0.626592	-0.296572	-0.423486	0.583171
48493	-8.652433	-1.249031	4.472820	-0.000618	0.046232	0.007121	-0.626623	-0.295826	-0.423319	0.583637
48494	-8.610525	-1.286419	4.482758	-0.027771	0.026607	-0.020362	-0.626620	-0.295096	-0.423197	0.584098
48495	-8.617938	-1.339501	4.552585	-0.056678	-0.026054	0.025261	-0.626577	-0.294514	-0.423152	0.584470
48496	-8.625538	-1.290784	4.543321	-0.002552	0.002079	0.021324	-0.626514	-0.294077	-0.423144	0.584763
48497	-8.622703	-1.314239	4.515017	-0.024071	0.028294	0.008831	-0.626421	-0.293697	-0.423187	0.585023
48498	-8.643808	-1.279474	4.510428	0.017022	0.052900	0.020590	-0.626318	-0.293364	-0.423254	0.585252
48499	-8.656508	-1.232180	4.432850	0.055747	0.138619	-0.010584	-0.626244	-0.292949	-0.423307	0.585500
48500	-8.632831	-1.311055	4.464873	-0.008500	0.094375	-0.006019	-0.626180	-0.292471	-0.423340	0.585784
48501	-8.640587	-1.334932	4.477284	-0.021136	0.091586	0.009686	-0.626116	-0.291990	-0.423336	0.586095
48502	-8.627293	-1.282999	4.505935	0.042742	0.076905	0.004235	-0.626070	-0.291466	-0.423325	0.586412
48503	-8.630062	-1.293016	4.499074	0.039955	0.091873	0.004719	-0.625999	-0.290935	-0.423290	0.586777
48504	-8.600444	-1.358847	4.512568	-0.014501	0.065398	-0.005910	-0.625922	-0.290378	-0.423291	0.587134
48505	-8.631083	-1.341969	4.519196	0.013570	0.086502	0.021535	-0.625837	-0.289862	-0.423249	0.587510
48506	-8.525187	-1.485947	4.596902	-0.109130	-0.044852	-0.014502	-0.625737	-0.289420	-0.423229	0.587850
48507	-8.585649	-1.396851	4.560598	-0.019681	0.035463	0.008818	-0.625638	-0.289150	-0.423237	0.588082
48508	-8.599281	-1.389942	4.536988	-0.011547	0.067995	0.008670	-0.625529	-0.288885	-0.423248	0.588319
48509	-8.590292	-1.394123	4.551457	-0.007838	0.054453	0.008179	-0.625417	-0.288658	-0.423292	0.588519
48510	-8.569039	-1.396920	4.557986	-0.005356	0.041142	-0.006907	-0.625289	-0.288470	-0.423329	0.588721
48511	-8.571138	-1.445839	4.547388	-0.050900	0.046275	-0.003057	-0.625197	-0.288323	-0.423378	0.588855
48512	-8.602819	-1.394175	4.527884	0.001156	0.088442	0.008012	-0.625128	-0.288153	-0.423401	0.588994
48513	-8.563157	-1.378601	4.539697	0.019922	0.064317	-0.023279	-0.625090	-0.287971	-0.423376	0.589141
48514	-8.563061	-1.424790	4.563015	-0.017921	0.040713	-0.005793	-0.625071	-0.287804	-0.423349	0.589262
48515	-8.550748	-1.469239	4.578380	-0.056940	0.017333	-0.002898	-0.625036	-0.287720	-0.423338	0.589349
48516	-8.594557	-1.388450	4.512680	0.012596	0.109135	-0.007260	-0.625033	-0.287633	-0.423304	0.589419
48517	-8.568080	-1.429355	4.553355	-0.019936	0.057186	-0.005322	-0.625020	-0.287574	-0.423239	0.589508
48518	-8.580331	-1.430411	4.561402	-0.018321	0.057671	0.009272	-0.625015	-0.287545	-0.423209	0.589549
48519	-8.591575	-1.387310	4.547650	0.021582	0.082522	0.006357	-0.625006	-0.287551	-0.423139	0.589606
48520	-8.598557	-1.388218	4.535457	0.018678	0.097523	0.006826	-0.624991	-0.287500	-0.423112	0.589666
48521	-8.569744	-1.399819	4.554593	0.010094	0.066599	-0.007598	-0.624990	-0.287459	-0.423073	0.589715
48522	-8.595087	-1.417918	4.537577	-0.009034	0.092396	0.009075	-0.624974	-0.287398	-0.423045	0.589782
48523	-8.587386	-1.417385	4.551005	-0.005356	0.078844	0.008595	-0.624964	-0.287328	-0.423008	0.589854
48524	-8.579489	-1.416452	4.564918	-0.001663	0.065265	0.008117	-0.624984	-0.287263	-0.422928	0.589921
48525	-8.608508	-1.390365	4.547535	0.021907	0.100879	0.021383	-0.625002	-0.287193	-0.422831	0.590005
48526	-8.599982	-1.389370	4.562648	0.025579	0.087356	0.020904	-0.625032	-0.287069	-0.422704	0.590125
48527	-8.591425	-1.404360	4.546332	0.007291	0.099273	0.007906	-0.625080	-0.286943	-0.422556	0.590242
48528	-8.566381	-1.416085	4.588391	0.003238	0.053925	0.007628	-0.625118	-0.286771	-0.422422	0.590381
48529	-8.557124	-1.415860	4.604558	0.006933	0.040389	0.007156	-0.625146	-0.286620	-0.422289	0.590519
48530	-8.555827	-1.432383	4.575391	-0.014607	0.066559	-0.005371	-0.625177	-0.286498	-0.422181	0.590623
48531	-8.569750	-1.404769	4.584407	0.015477	0.073647	0.006942	-0.625210	-0.286363	-0.422073	0.590731
48532	-8.552716	-1.433431	4.580876	-0.013773	0.068013	-0.005380	-0.625246	-0.286241	-0.421957	0.590835
48533	-8.543933	-1.432419	4.596361	-0.010160	0.054460	-0.005849	-0.625282	-0.286140	-0.421821	0.590942
48534	-8.542571	-1.432432	4.598888	-0.009755	0.055147	-0.005852	-0.625316	-0.286042	-0.421724	0.591023
48535	-8.535639	-1.416876	4.613011	0.008130	0.044807	-0.007461	-0.625331	-0.285960	-0.421648	0.591102
48536	-8.514107	-1.444980	4.588035	-0.025640	0.053685	-0.033909	-0.625357	-0.285927	-0.421575	0.591142
48537	-8.535978	-1.459160	4.636425	-0.029314	0.022001	0.010100	-0.625371	-0.285946	-0.421526	0.591153
48538	-8.548000	-1.414981	4.621744	0.010497	0.046818	0.007124	-0.625380	-0.286021	-0.421506	0.591121
48539	-8.550758	-1.414600	4.587967	0.003188	0.076255	-0.006558	-0.625375	-0.286085	-0.421502	0.591099
48540	-8.534520	-1.439727	4.612842	-0.018400	0.041837	-0.005186	-0.625357	-0.286193	-0.421508	0.591061
48541	-8.579961	-1.398209	4.598581	0.020675	0.080557	0.021475	-0.625335	-0.286313	-0.421529	0.591011
48542	-8.538966	-1.421208	4.607913	-0.003312	0.046517	-0.006339	-0.625309	-0.286430	-0.421573	0.590950
48543	-8.569056	-1.408183	4.587021	0.006058	0.078860	0.008015	-0.625286	-0.286525	-0.421606	0.590905
48544	-8.564566	-1.391260	4.597003	0.023948	0.068606	0.006404	-0.625263	-0.286586	-0.421664	0.590859
48545	-8.553076	-1.389507	4.587759	0.023176	0.069486	-0.008198	-0.625245	-0.286628	-0.421704	0.590829
48546	-8.545512	-1.402254	4.599179	0.012611	0.052677	-0.007505	-0.625218	-0.286674	-0.421755	0.590800
48547	-8.566528	-1.403811	4.591887	0.011030	0.067423	0.007539	-0.625186	-0.286717	-0.421812	0.590771
48548	-8.574865	-1.404458	4.577296	0.008241	0.082367	0.007985	-0.625148	-0.286766	-0.421863	0.590752
48549	-8.574492	-1.418804	4.575985	-0.005611	0.079815	0.009133	-0.625103	-0.286791	-0.421919	0.590747
48550	-8.570959	-1.388663	4.585860	0.026558	0.072817	0.006367	-0.625052	-0.286808	-0.421980	0.590748
48551	-8.564916	-1.403823	4.564809	0.008241	0.084719	-0.006631	-0.625014	-0.286798	-0.422038	0.590753
48552	-8.568207	-1.433476	4.584443	-0.015324	0.064458	0.009825	-0.624966	-0.286778	-0.422102	0.590768
48553	-8.574606	-1.391983	4.549088	0.020076	0.103687	-0.007355	-0.624926	-0.286739	-0.422146	0.590796
48554	-8.570264	-1.420925	4.582047	-0.000252	0.069159	0.008658	-0.624874	-0.286687	-0.422189	0.590846
48555	-8.551853	-1.405727	4.586313	0.016377	0.059043	-0.007547	-0.624820	-0.286622	-0.422232	0.590904
48556	-8.557718	-1.423198	4.573523	-0.000670	0.070738	-0.005948	-0.624754	-0.286551	-0.422289	0.590967
48557	-8.560702	-1.396090	4.571509	0.028241	0.077944	-0.008275	-0.624682	-0.286481	-0.422383	0.591011
48558	-8.556542	-1.425996	4.603818	0.007954	0.043424	0.007754	-0.624601	-0.286427	-0.422477	0.591055
48559	-8.551512	-1.428290	4.582386	0.003930	0.058577	-0.006404	-0.624511	-0.286368	-0.422566	0.591116
48560	-8.570395	-1.446668	4.576201	-0.011873	0.070099	0.009791	-0.624446	-0.286341	-0.422625	0.591155
48561	-8.528562	-1.472742	4.586290	-0.035858	0.036075	-0.017954	-0.624363	-0.286345	-0.422729	0.591166
48562	-8.570995	-1.463209	4.572325	-0.025199	0.068268	0.010948	-0.624290	-0.286385	-0.422843	0.591142
48563	-8.559929	-1.478488	4.530343	-0.047979	0.094600	-0.016205	-0.624231	-0.286417	-0.422920	0.591134
48564	-8.572216	-1.477720	4.567927	-0.038593	0.066437	0.012107	-0.624190	-0.286507	-0.422981	0.591091
48565	-8.600837	-1.421711	4.525480	0.009067	0.123033	0.008739	-0.624149	-0.286594	-0.423009	0.591072
48566	-8.582925	-1.446223	4.583051	-0.004743	0.059930	0.023923	-0.624120	-0.286638	-0.423017	0.591074
48567	-8.559510	-1.429011	4.567203	0.007489	0.064201	-0.006442	-0.624094	-0.286659	-0.423000	0.591104
48568	-8.562583	-1.457106	4.587757	-0.016067	0.043888	0.010057	-0.624091	-0.286691	-0.422978	0.591107
48569	-8.576205	-1.414867	4.540137	0.016130	0.097380	-0.006758	-0.624062	-0.286734	-0.422970	0.591123
48570	-8.576301	-1.398299	4.571776	0.038514	0.072648	0.005793	-0.624044	-0.286738	-0.422946	0.591158
48571	-8.566756	-1.441593	4.553261	-0.008226	0.077981	-0.004857	-0.624033	-0.286750	-0.422909	0.591190
48572	-8.582303	-1.412809	4.559556	0.021899	0.085075	0.007383	-0.624027	-0.286738	-0.422873	0.591227
48573	-8.584900	-1.441489	4.580843	-0.001653	0.064752	0.023893	-0.624022	-0.286709	-0.422845	0.591267
48574	-8.566657	-1.440438	4.553813	-0.006927	0.080010	-0.004873	-0.624010	-0.286705	-0.422814	0.591304
48575	-8.559537	-1.438630	4.566600	-0.003288	0.066418	-0.005305	-0.624013	-0.286711	-0.422775	0.591325
48576	-8.538340	-1.450346	4.572663	-0.015127	0.049767	-0.019154	-0.624002	-0.286716	-0.422732	0.591366
48577	-8.566825	-1.422348	4.585787	0.016231	0.056718	0.007676	-0.623994	-0.286745	-0.422727	0.591363
48578	-8.581770	-1.423995	4.559504	0.010153	0.086000	0.008520	-0.623977	-0.286760	-0.422740	0.591365
48579	-8.562393	-1.421456	4.564157	0.012551	0.072594	-0.006505	-0.623966	-0.286767	-0.422743	0.591372
48580	-8.589772	-1.424508	4.545453	0.007763	0.101697	0.008929	-0.623953	-0.286746	-0.422750	0.591389
48581	-8.561433	-1.435755	4.563949	-0.000801	0.070759	-0.005335	-0.623954	-0.286717	-0.422737	0.591412
48582	-8.568557	-1.436814	4.551381	-0.003626	0.085703	-0.004919	-0.623956	-0.286680	-0.422715	0.591443
48583	-8.554004	-1.434457	4.577163	0.003284	0.057840	-0.005765	-0.623960	-0.286639	-0.422687	0.591479
48584	-8.568276	-1.436635	4.551967	-0.002741	0.087117	-0.004931	-0.623954	-0.286617	-0.422667	0.591510
48585	-8.561169	-1.435144	4.564637	0.000947	0.073579	-0.005356	-0.623955	-0.286606	-0.422649	0.591528
48586	-8.558240	-1.447826	4.597736	-0.005141	0.042355	0.009584	-0.623960	-0.286599	-0.422627	0.591541
48587	-8.575523	-1.420675	4.571124	0.017289	0.078115	0.008040	-0.623951	-0.286574	-0.422622	0.591567
48588	-8.575839	-1.436559	4.538932	-0.004277	0.104250	-0.004541	-0.623943	-0.286550	-0.422604	0.591600
48589	-8.581242	-1.436442	4.559064	0.000667	0.090544	0.009631	-0.623936	-0.286503	-0.422587	0.591642
48590	-8.566603	-1.434368	4.584914	0.007583	0.062695	0.008797	-0.623936	-0.286447	-0.422560	0.591689
48591	-8.559399	-1.449580	4.565910	-0.010647	0.074540	-0.004198	-0.623914	-0.286389	-0.422551	0.591746
48592	-8.554718	-1.419626	4.577993	0.021491	0.067513	-0.006999	-0.623914	-0.286341	-0.422515	0.591795
48593	-8.560261	-1.435431	4.566249	0.004436	0.079252	-0.005401	-0.623911	-0.286299	-0.422494	0.591833
48594	-8.566930	-1.420894	4.586042	0.023595	0.068795	0.007584	-0.623905	-0.286243	-0.422475	0.591880
48595	-8.537041	-1.463024	4.573608	-0.021195	0.059986	-0.018028	-0.623909	-0.286185	-0.422450	0.591922
48596	-8.555052	-1.463871	4.601131	-0.014999	0.046087	0.010748	-0.623900	-0.286160	-0.422437	0.591953
48597	-8.541399	-1.435093	4.540160	0.000448	0.096533	-0.034204	-0.623908	-0.286139	-0.422420	0.591966
48598	-8.549668	-1.447156	4.612866	0.003331	0.036440	0.009139	-0.623902	-0.286178	-0.422419	0.591955
48599	-8.552159	-1.447823	4.578911	-0.003948	0.065846	-0.004645	-0.623869	-0.286210	-0.422463	0.591942
48600	-8.555898	-1.475822	4.598326	-0.027518	0.045634	0.011935	-0.623867	-0.286281	-0.422481	0.591898
48601	-8.555685	-1.430693	4.575200	0.011049	0.070566	-0.005854	-0.623864	-0.286360	-0.422481	0.591862
48602	-8.581961	-1.431090	4.588502	0.013993	0.071065	0.023327	-0.623871	-0.286398	-0.422479	0.591839
48603	-8.561477	-1.442383	4.593417	0.002117	0.054396	0.009526	-0.623867	-0.286442	-0.422489	0.591814
48604	-8.546884	-1.469287	4.586017	-0.027218	0.048732	-0.002668	-0.623879	-0.286496	-0.422494	0.591772
48605	-8.570373	-1.440700	4.578383	-0.000290	0.070110	0.009918	-0.623889	-0.286547	-0.422485	0.591743
48606	-8.571255	-1.438822	4.577322	0.000107	0.070828	0.009913	-0.623904	-0.286631	-0.422467	0.591699
48607	-8.570625	-1.393360	4.554939	0.038697	0.095677	-0.007899	-0.623932	-0.286672	-0.422434	0.591674
48608	-8.545737	-1.448093	4.562106	-0.015842	0.069180	-0.018079	-0.623956	-0.286690	-0.422425	0.591645
48609	-8.579981	-1.435344	4.563146	-0.001887	0.087218	0.010295	-0.624006	-0.286674	-0.422391	0.591625
48610	-8.553260	-1.446867	4.549484	-0.018263	0.084899	-0.017692	-0.624058	-0.286659	-0.422349	0.591608
48611	-8.585652	-1.432677	4.583601	0.003420	0.074253	0.024480	-0.624112	-0.286648	-0.422321	0.591576
48612	-8.574326	-1.415850	4.576225	0.016836	0.078353	0.008673	-0.624175	-0.286623	-0.422260	0.591565
48613	-8.575299	-1.400136	4.576776	0.031449	0.082353	0.007457	-0.624252	-0.286556	-0.422187	0.591569
48614	-8.579014	-1.429555	4.566779	0.000174	0.090835	0.010262	-0.624328	-0.286479	-0.422097	0.591590
48615	-8.549709	-1.440307	4.587349	-0.008398	0.059827	-0.003909	-0.624397	-0.286382	-0.422022	0.591617
48616	-8.557403	-1.426235	4.575887	0.003007	0.078101	-0.004735	-0.624463	-0.286317	-0.421928	0.591646
48617	-8.552677	-1.468880	4.579040	-0.039248	0.069059	-0.001103	-0.624537	-0.286269	-0.421850	0.591646
48618	-8.563127	-1.408830	4.598254	0.022607	0.068398	0.008244	-0.624616	-0.286243	-0.421747	0.591650
48619	-8.538674	-1.448617	4.606833	-0.017691	0.045125	-0.003099	-0.624695	-0.286226	-0.421639	0.591651
48620	-8.555314	-1.419871	4.581768	0.004693	0.080912	-0.004758	-0.624771	-0.286206	-0.421540	0.591652
48621	-8.547663	-1.417105	4.595830	0.008307	0.067333	-0.005150	-0.624842	-0.286173	-0.421451	0.591656
48622	-8.561467	-1.418271	4.571862	0.002265	0.096609	-0.004385	-0.624919	-0.286096	-0.421378	0.591664
48623	-8.545164	-1.429457	4.599194	-0.005097	0.065470	-0.003943	-0.624988	-0.286067	-0.421296	0.591664
48624	-8.537762	-1.442944	4.581239	-0.023439	0.077331	-0.016939	-0.625061	-0.286011	-0.421196	0.591684
48625	-8.556544	-1.427581	4.609750	-0.002990	0.066807	0.010640	-0.625159	-0.285961	-0.421088	0.591682
48626	-8.535910	-1.423932	4.617055	-0.000592	0.053309	-0.004339	-0.625239	-0.285913	-0.420976	0.591700
48627	-8.563471	-1.411009	4.600491	0.008826	0.085731	0.009791	-0.625334	-0.285850	-0.420850	0.591720
48628	-8.557071	-1.409691	4.582732	0.004699	0.100847	-0.004429	-0.625432	-0.285792	-0.420728	0.591732
48629	-8.554223	-1.407053	4.617826	0.012893	0.072914	0.009398	-0.625523	-0.285691	-0.420603	0.591772
48630	-8.531716	-1.418769	4.626388	0.001072	0.056187	-0.004355	-0.625609	-0.285590	-0.420487	0.591813
48631	-8.549087	-1.434466	4.624010	-0.014702	0.067810	0.011835	-0.625699	-0.285504	-0.420370	0.591842
48632	-8.538073	-1.403333	4.617830	0.012893	0.075115	-0.005212	-0.625786	-0.285432	-0.420269	0.591857
48633	-8.531627	-1.402490	4.600040	0.008844	0.090208	-0.019435	-0.625876	-0.285344	-0.420152	0.591888
48634	-8.548522	-1.402078	4.629880	0.015046	0.076464	0.009368	-0.625972	-0.285249	-0.420023	0.591924
48635	-8.537248	-1.428967	4.646534	-0.009770	0.056398	0.011444	-0.626082	-0.285145	-0.419876	0.591961
48636	-8.505266	-1.484005	4.637033	-0.068836	0.044298	-0.012830	-0.626197	-0.285072	-0.419723	0.591983
48637	-8.526111	-1.380962	4.643121	0.032491	0.067641	-0.006844	-0.626303	-0.285020	-0.419591	0.591990
48638	-8.538343	-1.396021	4.620591	0.012238	0.093641	-0.004878	-0.626403	-0.284956	-0.419467	0.592002
48639	-8.534585	-1.423643	4.624213	-0.015740	0.087858	-0.002423	-0.626516	-0.284864	-0.419330	0.592024
48640	-8.522778	-1.376312	4.650616	0.033818	0.069795	-0.006863	-0.626609	-0.284781	-0.419198	0.592059
48641	-8.518841	-1.404218	4.654468	0.005820	0.064006	-0.004404	-0.626707	-0.284689	-0.419050	0.592104
48642	-8.545950	-1.391568	4.638834	0.015337	0.096472	0.009683	-0.626802	-0.284592	-0.418913	0.592147
48643	-8.530038	-1.388223	4.667001	0.022224	0.068570	0.008943	-0.626899	-0.284496	-0.418778	0.592186
48644	-8.530374	-1.388844	4.637443	0.014926	0.097889	-0.004923	-0.626987	-0.284364	-0.418634	0.592259
48645	-8.526652	-1.387188	4.673493	0.023070	0.069928	0.008931	-0.627071	-0.284220	-0.418497	0.592335
48646	-8.499712	-1.443234	4.684277	-0.031476	0.043433	-0.001081	-0.627153	-0.284095	-0.418354	0.592410
48647	-8.520727	-1.415850	4.680749	-0.004504	0.064809	0.011395	-0.627206	-0.283979	-0.418255	0.592478
48648	-8.490146	-1.411278	4.733912	0.008833	0.008356	0.009943	-0.627282	-0.283856	-0.418147	0.592534
48649	-8.492919	-1.413833	4.670732	-0.006206	0.066351	-0.017796	-0.627318	-0.283780	-0.418068	0.592588
48650	-8.492258	-1.413562	4.672015	-0.005725	0.067030	-0.017801	-0.627349	-0.283720	-0.418023	0.592616
48651	-8.518378	-1.400558	4.687076	0.011491	0.070822	0.010136	-0.627370	-0.283658	-0.417985	0.592650
48652	-8.530693	-1.401575	4.694971	0.013187	0.071429	0.024722	-0.627372	-0.283604	-0.417975	0.592681
48653	-8.494077	-1.442497	4.694716	-0.028446	0.048269	-0.001095	-0.627366	-0.283583	-0.417946	0.592717
48654	-8.497336	-1.429395	4.661536	-0.021539	0.080833	-0.016218	-0.627350	-0.283542	-0.417952	0.592750
48655	-8.484267	-1.412494	4.685894	-0.000384	0.056164	-0.018180	-0.627342	-0.283552	-0.417957	0.592750
48656	-8.505948	-1.399297	4.679462	0.012335	0.074334	-0.004483	-0.627351	-0.283551	-0.417960	0.592739
48657	-8.522944	-1.414243	4.706831	0.004372	0.057397	0.025585	-0.627330	-0.283531	-0.417974	0.592761
48658	-8.474169	-1.454234	4.698388	-0.038543	0.034293	-0.014803	-0.627318	-0.283529	-0.417985	0.592767
48659	-8.514899	-1.457414	4.686501	-0.041968	0.063430	0.015083	-0.627287	-0.283614	-0.418015	0.592737
48660	-8.476500	-1.451790	4.694940	-0.037665	0.035721	-0.014805	-0.627247	-0.283745	-0.418035	0.592703
48661	-8.495967	-1.392384	4.697787	0.020988	0.049294	-0.005215	-0.627222	-0.283862	-0.418071	0.592648
48662	-8.483834	-1.404476	4.688196	0.005858	0.046847	-0.018560	-0.627165	-0.283992	-0.418143	0.592595
48663	-8.529779	-1.421564	4.694805	-0.007251	0.058372	0.026810	-0.627094	-0.284112	-0.418243	0.592542
48664	-8.494313	-1.475884	4.691176	-0.063121	0.031954	0.002287	-0.627007	-0.284280	-0.418346	0.592481
48665	-8.494313	-1.445043	4.665625	-0.038732	0.053464	-0.014463	-0.626939	-0.284497	-0.418461	0.592367
48666	-8.500005	-1.413224	4.659668	-0.009815	0.060691	-0.016974	-0.626867	-0.284735	-0.418564	0.592256
48667	-8.506494	-1.396943	4.621263	-0.002885	0.093289	-0.032133	-0.626797	-0.285009	-0.418677	0.592119
48668	-8.522511	-1.394593	4.623362	-0.001137	0.093897	-0.017549	-0.626746	-0.285242	-0.418792	0.591979
48669	-8.531177	-1.391228	4.638306	0.003878	0.080260	-0.003309	-0.626692	-0.285486	-0.418905	0.591840
48670	-8.534895	-1.445992	4.655348	-0.048113	0.053715	0.015964	-0.626649	-0.285737	-0.419020	0.591683
48671	-8.544613	-1.369190	4.647485	0.023456	0.070604	0.009668	-0.626625	-0.286018	-0.419089	0.591523
48672	-8.542984	-1.423365	4.644731	-0.033009	0.058344	0.014701	-0.626583	-0.286294	-0.419188	0.591364
48673	-8.544630	-1.376056	4.618024	0.005576	0.083035	-0.003333	-0.626545	-0.286557	-0.419272	0.591217
48674	-8.550698	-1.358873	4.580222	0.012497	0.115566	-0.018511	-0.626535	-0.286811	-0.419329	0.591063
48675	-8.572700	-1.341032	4.603184	0.032994	0.105091	0.009059	-0.626536	-0.286987	-0.419368	0.590950
48676	-8.590109	-1.325856	4.574686	0.041179	0.137613	0.008463	-0.626545	-0.287097	-0.419374	0.590882
48677	-8.546117	-1.362119	4.618450	0.010521	0.071480	-0.003694	-0.626566	-0.287172	-0.419368	0.590828
48678	-8.551657	-1.390568	4.605949	-0.020735	0.080027	-0.000835	-0.626586	-0.287211	-0.419349	0.590801
48679	-8.567415	-1.360675	4.611376	0.009496	0.087130	0.011219	-0.626599	-0.287249	-0.419334	0.590779
48680	-8.559468	-1.372783	4.624203	-0.001101	0.070352	0.012145	-0.626621	-0.287267	-0.419305	0.590768
48681	-8.517719	-1.396965	4.635754	-0.025284	0.036040	-0.015171	-0.626625	-0.287300	-0.419303	0.590750
48682	-8.550851	-1.356337	4.582232	0.004956	0.103602	-0.017648	-0.626625	-0.287355	-0.419297	0.590727
48683	-8.535985	-1.367290	4.607305	-0.002433	0.072478	-0.017049	-0.626641	-0.287393	-0.419291	0.590696
48684	-8.560014	-1.324243	4.599532	0.038784	0.097153	-0.005944	-0.626660	-0.287396	-0.419274	0.590686
48685	-8.570531	-1.353503	4.607695	0.012041	0.091377	0.011178	-0.626684	-0.287367	-0.419273	0.590675
48686	-8.556686	-1.367150	4.600938	-0.003066	0.088839	-0.002147	-0.626710	-0.287312	-0.419280	0.590670
48687	-8.547297	-1.411230	4.583150	-0.049853	0.094164	-0.012597	-0.626761	-0.287231	-0.419254	0.590674
48688	-8.548360	-1.349651	4.647117	0.022923	0.050577	0.010176	-0.626818	-0.287173	-0.419200	0.590679
48689	-8.561101	-1.365890	4.623220	0.002685	0.076635	0.012097	-0.626866	-0.287113	-0.419155	0.590689
48690	-8.533545	-1.362332	4.642431	0.008253	0.048823	-0.003148	-0.626918	-0.287055	-0.419091	0.590708
48691	-8.545639	-1.362574	4.650957	0.009997	0.049468	0.011437	-0.626956	-0.286989	-0.419024	0.590747
48692	-8.553367	-1.348795	4.639000	0.021396	0.067685	0.010480	-0.627005	-0.286911	-0.418967	0.590773
48693	-8.547113	-1.349174	4.620407	0.017299	0.082679	-0.003792	-0.627043	-0.286810	-0.418919	0.590817
48694	-8.537834	-1.362989	4.635202	0.006733	0.065876	-0.002842	-0.627083	-0.286704	-0.418864	0.590865
48695	-8.541675	-1.393584	4.625289	-0.024483	0.074376	0.000032	-0.627126	-0.286593	-0.418806	0.590913
48696	-8.542021	-1.379200	4.626248	-0.009839	0.078307	-0.001252	-0.627154	-0.286512	-0.418748	0.590964
48697	-8.536321	-1.349199	4.639405	0.022251	0.071192	-0.004138	-0.627197	-0.286394	-0.418685	0.591020
48698	-8.527471	-1.378991	4.622238	-0.010311	0.079731	-0.015851	-0.627231	-0.286306	-0.418626	0.591070
48699	-8.539262	-1.379941	4.631119	-0.008481	0.080381	-0.001268	-0.627266	-0.286202	-0.418562	0.591128
48700	-8.529353	-1.377668	4.678174	0.002936	0.038201	0.012366	-0.627299	-0.286103	-0.418500	0.591184
48701	-8.530370	-1.379074	4.646834	-0.004386	0.067447	-0.001594	-0.627334	-0.286042	-0.418449	0.591213
48702	-8.526898	-1.391992	4.681091	-0.010405	0.036318	0.013645	-0.627359	-0.285982	-0.418401	0.591249
48703	-8.534230	-1.320448	4.646433	0.053449	0.081790	-0.006748	-0.627371	-0.285918	-0.418364	0.591294
48704	-8.515032	-1.392760	4.642806	-0.018588	0.066351	-0.014910	-0.627392	-0.285846	-0.418335	0.591327
48705	-8.551826	-1.337484	4.643448	0.038225	0.094200	0.009424	-0.627408	-0.285742	-0.418294	0.591388
48706	-8.517829	-1.408193	4.665661	-0.027349	0.050160	0.000648	-0.627427	-0.285635	-0.418267	0.591439
48707	-8.516451	-1.351017	4.644564	0.025502	0.078068	-0.018790	-0.627444	-0.285522	-0.418243	0.591493
48708	-8.518774	-1.380681	4.666732	0.002055	0.057925	-0.001937	-0.627450	-0.285431	-0.418221	0.591545
48709	-8.530205	-1.412856	4.643336	-0.032395	0.080711	0.001260	-0.627453	-0.285337	-0.418208	0.591597
48710	-8.502489	-1.410569	4.662270	-0.026805	0.052827	-0.013949	-0.627469	-0.285251	-0.418182	0.591640
48711	-8.519596	-1.353323	4.668004	0.031904	0.066408	-0.004536	-0.627483	-0.285188	-0.418165	0.591668
48712	-8.521641	-1.412652	4.658198	-0.027785	0.068388	0.000942	-0.627496	-0.285154	-0.418117	0.591705
48713	-8.532825	-1.427539	4.666714	-0.040179	0.065812	0.016821	-0.627511	-0.285122	-0.418075	0.591733
48714	-8.525881	-1.353405	4.657343	0.030058	0.082645	-0.004249	-0.627538	-0.285070	-0.418024	0.591766
48715	-8.530209	-1.383421	4.646738	-0.001152	0.091174	-0.001358	-0.627562	-0.285010	-0.417977	0.591803
48716	-8.521344	-1.396969	4.660730	-0.011702	0.074380	-0.000371	-0.627567	-0.284946	-0.417956	0.591843
48717	-8.501114	-1.395237	4.666650	-0.009410	0.060764	-0.015265	-0.627578	-0.284897	-0.417927	0.591875
48718	-8.491274	-1.423464	4.680733	-0.034193	0.040714	-0.012972	-0.627571	-0.284850	-0.417929	0.591904
48719	-8.521025	-1.397250	4.661228	-0.010424	0.076443	-0.000385	-0.627572	-0.284843	-0.417937	0.591901
48720	-8.514207	-1.395965	4.673206	-0.006756	0.062853	-0.000690	-0.627558	-0.284833	-0.417964	0.591901
48721	-8.519097	-1.409913	4.692644	-0.015957	0.046001	0.014896	-0.627546	-0.284858	-0.418001	0.591876
48722	-8.526765	-1.394441	4.710398	0.003226	0.035667	0.027880	-0.627523	-0.284899	-0.418058	0.591840
48723	-8.530870	-1.380586	4.675347	0.010154	0.068174	0.012581	-0.627515	-0.284938	-0.418102	0.591799
48724	-8.530648	-1.394445	4.674324	-0.003621	0.065666	0.013880	-0.627496	-0.284971	-0.418139	0.591777
48725	-8.541138	-1.365824	4.659119	0.022122	0.087098	0.011560	-0.627484	-0.284986	-0.418174	0.591758
48726	-8.520714	-1.378219	4.663918	0.010235	0.070250	-0.002023	-0.627464	-0.284993	-0.418207	0.591752
48727	-8.553831	-1.380394	4.664972	0.010220	0.085192	0.027440	-0.627467	-0.284997	-0.418209	0.591746
48728	-8.532979	-1.392650	4.670604	-0.001670	0.068321	0.013862	-0.627471	-0.284974	-0.418206	0.591754
48729	-8.494782	-1.462308	4.670979	-0.071836	0.038530	-0.009062	-0.627459	-0.285019	-0.418211	0.591743
48730	-8.537804	-1.347215	4.667187	0.041943	0.079302	0.009923	-0.627450	-0.285057	-0.418229	0.591721
48731	-8.542148	-1.391396	4.655041	-0.003470	0.084590	0.014139	-0.627431	-0.285071	-0.418256	0.591716
48732	-8.530846	-1.359676	4.678077	0.031871	0.063149	0.010930	-0.627408	-0.285092	-0.418294	0.591703
48733	-8.521147	-1.417981	4.659418	-0.029126	0.065160	0.001878	-0.627403	-0.285089	-0.418302	0.591704
48734	-8.511801	-1.403676	4.618271	-0.023551	0.097651	-0.028036	-0.627401	-0.285083	-0.418317	0.591698
48735	-8.532678	-1.374737	4.643880	0.011207	0.090552	-0.001785	-0.627401	-0.285057	-0.418320	0.591708
48736	-8.538228	-1.374214	4.663781	0.016230	0.076957	0.012508	-0.627405	-0.285032	-0.418298	0.591731
48737	-8.526590	-1.358853	4.656209	0.029595	0.080812	-0.003401	-0.627407	-0.284974	-0.418287	0.591766
48738	-8.538824	-1.360341	4.664110	0.031417	0.081498	0.011178	-0.627418	-0.284859	-0.418283	0.591813
48739	-8.522931	-1.390123	4.659022	0.002041	0.075741	-0.000779	-0.627431	-0.284714	-0.418273	0.591875
48740	-8.528649	-1.376663	4.679752	0.021324	0.065318	0.012200	-0.627456	-0.284573	-0.418259	0.591927
48741	-8.512535	-1.406300	4.675081	-0.008027	0.059599	0.000248	-0.627470	-0.284442	-0.418218	0.592003
48742	-8.538708	-1.410276	4.658413	-0.012653	0.088909	0.015393	-0.627489	-0.284326	-0.418186	0.592062
48743	-8.497908	-1.407395	4.670769	-0.008492	0.061009	-0.014346	-0.627504	-0.284213	-0.418123	0.592145
48744	-8.496861	-1.408097	4.672461	-0.008014	0.061710	-0.014350	-0.627522	-0.284103	-0.418068	0.592216
48745	-8.508799	-1.409304	4.680974	-0.006183	0.062480	0.000231	-0.627526	-0.284038	-0.418029	0.592271
48746	-8.523427	-1.381285	4.687897	0.024086	0.069636	0.012164	-0.627525	-0.283964	-0.418007	0.592323
48747	-8.498176	-1.438228	4.696284	-0.030542	0.043138	0.002596	-0.627526	-0.283897	-0.417971	0.592379
48748	-8.494087	-1.393595	4.708123	0.015878	0.039184	-0.001660	-0.627535	-0.283835	-0.417935	0.592426
48749	-8.521350	-1.412847	4.658671	-0.010754	0.093805	0.000765	-0.627535	-0.283762	-0.417912	0.592477
48750	-8.506499	-1.411115	4.684607	-0.003925	0.065915	0.000210	-0.627525	-0.283711	-0.417889	0.592528
48751	-8.505075	-1.426233	4.685384	-0.017669	0.063437	0.001534	-0.627502	-0.283654	-0.417895	0.592575
48752	-8.487448	-1.395818	4.689732	0.013119	0.056240	-0.015987	-0.627483	-0.283602	-0.417891	0.592623
48753	-8.474313	-1.468095	4.704753	-0.054363	0.026531	-0.009610	-0.627447	-0.283594	-0.417932	0.592636
48754	-8.494449	-1.412079	4.675644	-0.003389	0.068616	-0.014394	-0.627405	-0.283622	-0.418001	0.592619
48755	-8.484918	-1.454147	4.687751	-0.042407	0.045366	-0.010671	-0.627350	-0.283728	-0.418058	0.592586
48756	-8.510371	-1.410839	4.677652	-0.001101	0.070018	0.000182	-0.627279	-0.283882	-0.418130	0.592536
48757	-8.491534	-1.421833	4.680000	-0.013058	0.053161	-0.013342	-0.627216	-0.284047	-0.418222	0.592459
48758	-8.515145	-1.407285	4.670029	-0.000257	0.071404	0.000172	-0.627144	-0.284225	-0.418319	0.592382
48759	-8.523943	-1.421124	4.653343	-0.017230	0.083141	0.001770	-0.627064	-0.284422	-0.418459	0.592274
48760	-8.539441	-1.419961	4.656061	-0.015435	0.083832	0.016350	-0.626991	-0.284608	-0.418551	0.592195
48761	-8.544372	-1.388871	4.650860	0.013485	0.090936	0.013670	-0.626924	-0.284777	-0.418650	0.592116
48762	-8.524570	-1.414317	4.653460	-0.012666	0.070866	0.001491	-0.626860	-0.284950	-0.418744	0.592032
48763	-8.527027	-1.412217	4.649595	-0.012183	0.071588	0.001486	-0.626810	-0.285122	-0.418822	0.591948
48764	-8.530515	-1.395589	4.645423	0.002462	0.075485	0.000141	-0.626758	-0.285275	-0.418897	0.591877
48765	-8.520413	-1.408896	4.602681	-0.020418	0.101471	-0.027168	-0.626719	-0.285425	-0.418968	0.591796
