// General information: 
//  MT Manager version: 2021.0.0 
//  XDA version: 2021.0.0 build 5908 rev 109668 built on 2021-04-19
// Device information: 
//  DeviceId: 00B43DFD
//  ProductCode: MTW2-3A7G6
//  Firmware Version: 4.3.5
//  Hardware Version: 1.1.0
// Device settings: 
//  Filter Profile: human(46.1)
//  Option Flags: Orientation Smoother Disabled, Position/Velocity Smoother Disabled, Continuous Zero Rotation Update Disabled, AHS Disabled, ICC Disabled
// Coordinate system: ENU
PacketCounter	Acc_X	Acc_Y	Acc_Z	FreeAcc_E	FreeAcc_N	FreeAcc_U	Quat_q0	Quat_q1	Quat_q2	Quat_q3
47597	1.971717	-0.095459	9.642308	-0.013103	0.035898	0.029539	-0.993368	0.013248	0.104850	0.045282
47598	2.003184	-0.287429	9.497615	0.024467	-0.152053	-0.103088	-0.993352	0.013755	0.105240	0.044569
47599	1.954569	-0.438484	9.399207	-0.023687	-0.291655	-0.206853	-0.993341	0.014078	0.105645	0.043766
47600	1.853456	-0.460902	9.396198	-0.130207	-0.298785	-0.229889	-0.993328	0.014285	0.106008	0.043092
47601	1.914530	-0.382109	9.459312	-0.082647	-0.218831	-0.156844	-0.993308	0.014406	0.106347	0.042682
47602	2.000621	-0.278610	9.465343	0.002571	-0.117059	-0.134923	-0.993272	0.014765	0.106725	0.042457
47603	1.959531	-0.296697	9.482963	-0.050925	-0.120478	-0.125725	-0.993212	0.015432	0.107250	0.042302
47604	1.973479	-0.354954	9.415798	-0.038084	-0.168170	-0.187299	-0.993150	0.016139	0.107761	0.042204
47605	2.009675	-0.355144	9.429534	-0.014799	-0.158018	-0.166142	-0.993088	0.016706	0.108250	0.042178
47606	2.085565	-0.328239	9.415077	0.055558	-0.128001	-0.164812	-0.993026	0.017133	0.108717	0.042257
47607	2.145702	-0.251810	9.404504	0.114866	-0.050689	-0.164041	-0.992975	0.017364	0.109109	0.042365
47608	2.120645	-0.149324	9.442551	0.085422	0.060646	-0.134350	-0.992940	0.017716	0.109362	0.042378
47609	2.161636	-0.118167	9.392947	0.136433	0.094713	-0.174923	-0.992933	0.018227	0.109348	0.042368
47610	2.144615	-0.084294	9.449836	0.114541	0.144552	-0.123939	-0.992952	0.019015	0.109047	0.042343
47611	2.116756	-0.115284	9.507681	0.080385	0.137092	-0.072839	-0.992975	0.020188	0.108639	0.042315
47612	2.043095	-0.189994	9.520399	0.007789	0.092811	-0.074125	-0.992987	0.021485	0.108296	0.042271
47613	1.994055	-0.325052	9.568492	-0.057712	-0.012830	-0.033402	-0.992967	0.022518	0.108319	0.042149
47614	2.038109	-0.286868	9.518769	-0.003646	0.035549	-0.074009	-0.992927	0.023125	0.108621	0.041985
47615	2.200878	-0.272824	9.424322	0.169305	0.043473	-0.132524	-0.992883	0.023631	0.109032	0.041668
47616	2.158581	-0.379020	9.397288	0.118550	-0.050487	-0.164085	-0.992865	0.024030	0.109286	0.041209
47617	2.132678	-0.441220	9.400213	0.086431	-0.103424	-0.164433	-0.992889	0.024235	0.109178	0.040800
47618	2.108884	-0.513008	9.444825	0.050358	-0.170415	-0.123326	-0.992920	0.023992	0.109053	0.040515
47619	2.138045	-0.305644	9.466905	0.093232	0.030280	-0.103036	-0.992933	0.023706	0.109030	0.040423
47620	2.174911	-0.235927	9.451422	0.139547	0.095365	-0.112857	-0.992942	0.023903	0.108922	0.040380
47621	2.123369	-0.398682	9.466883	0.075624	-0.055609	-0.102862	-0.992959	0.024360	0.108722	0.040229
47622	2.020310	-0.570806	9.502272	-0.042220	-0.210007	-0.083620	-0.992984	0.024647	0.108506	0.040030
47623	1.911040	-0.633882	9.595079	-0.170083	-0.257268	-0.013488	-0.992997	0.024593	0.108425	0.039951
47624	2.077997	-0.578361	9.649301	-0.014334	-0.215417	0.072401	-0.992987	0.024257	0.108538	0.040106
47625	2.188030	-0.407582	9.707523	0.092222	-0.058184	0.146113	-0.992963	0.023867	0.108685	0.040525
47626	2.197941	-0.281458	9.772803	0.095602	0.061187	0.207539	-0.992937	0.023454	0.108832	0.041010
47627	2.093810	-0.230097	9.731009	0.002180	0.111129	0.143073	-0.992890	0.023242	0.109142	0.041435
47628	1.966081	-0.311779	9.626539	-0.117530	0.031722	0.016763	-0.992803	0.023227	0.109804	0.041782
47629	2.160966	-0.273737	9.494280	0.089471	0.047238	-0.072266	-0.992705	0.023234	0.110524	0.042206
47630	2.156798	-0.255544	9.442391	0.083875	0.063408	-0.124305	-0.992605	0.023311	0.111227	0.042665
47631	2.247183	-0.161389	9.342244	0.188470	0.145798	-0.205575	-0.992515	0.023397	0.111853	0.043086
47632	2.214590	-0.200370	9.315539	0.149919	0.109136	-0.237227	-0.992467	0.023453	0.112158	0.043360
47633	2.159062	-0.309695	9.249344	0.096886	0.000587	-0.310138	-0.992463	0.023344	0.112182	0.043446
47634	2.031462	-0.405918	9.314479	-0.049664	-0.087684	-0.271148	-0.992487	0.022794	0.112109	0.043369
47635	2.081290	-0.370301	9.295141	0.007684	-0.069928	-0.280449	-0.992524	0.022000	0.111975	0.043283
47636	2.215238	-0.342645	9.406857	0.122801	-0.064200	-0.143437	-0.992607	0.021093	0.111410	0.043296
47637	2.033023	-0.332251	9.634004	-0.089314	-0.048196	0.038569	-0.992724	0.019980	0.110629	0.043129
47638	1.971919	-0.261142	9.743004	-0.152518	0.010621	0.130118	-0.992830	0.018872	0.110036	0.042720
47639	2.019980	-0.296893	9.701410	-0.089810	-0.047722	0.100710	-0.992916	0.018218	0.109545	0.042260
47640	2.012648	-0.497731	9.583120	-0.079420	-0.259818	-0.011624	-0.993001	0.018033	0.108996	0.041765
47641	2.038281	-0.735879	9.563485	-0.057044	-0.504218	-0.019892	-0.993111	0.017745	0.108170	0.041418
47642	1.960036	-0.734122	9.705879	-0.143264	-0.500306	0.102648	-0.993247	0.017082	0.107049	0.041346
47643	1.914857	-0.626054	9.970280	-0.210505	-0.395296	0.349225	-0.993371	0.016197	0.105971	0.041490
47644	1.891431	-0.503483	10.103806	-0.231633	-0.285462	0.472385	-0.993458	0.015322	0.105183	0.041761
47645	1.779891	-0.445353	10.104755	-0.325916	-0.235179	0.449421	-0.993478	0.014670	0.104938	0.042125
47646	1.753705	-0.458500	10.036153	-0.340290	-0.262077	0.376796	-0.993430	0.014059	0.105233	0.042728
47647	1.887659	-0.283454	9.960902	-0.190588	-0.114345	0.327024	-0.993324	0.013448	0.105953	0.043600
47648	2.043996	-0.126678	9.859279	-0.023279	0.014568	0.256997	-0.993169	0.013064	0.107089	0.044451
47649	2.091540	-0.035816	9.702933	0.038994	0.090921	0.112679	-0.992994	0.013016	0.108327	0.045366
47650	2.278871	-0.024569	9.508055	0.241064	0.077349	-0.038597	-0.992847	0.012973	0.109262	0.046353
47651	2.277768	0.128295	9.445442	0.253188	0.224571	-0.101533	-0.992749	0.012887	0.109772	0.047269
47652	2.118982	0.208327	9.413356	0.105114	0.316235	-0.167290	-0.992679	0.012987	0.110096	0.047940
47653	2.082974	0.197570	9.420197	0.061950	0.310660	-0.168125	-0.992615	0.013174	0.110387	0.048549
47654	2.077217	0.272058	9.421764	0.057462	0.386669	-0.168743	-0.992548	0.013226	0.110737	0.049099
47655	2.163361	0.396109	9.426617	0.145847	0.502737	-0.147072	-0.992490	0.013309	0.111107	0.049414
47656	2.224479	0.298996	9.329107	0.210464	0.398911	-0.227985	-0.992454	0.013449	0.111354	0.049538
47657	2.213147	0.257555	9.341494	0.191308	0.358207	-0.217743	-0.992466	0.013225	0.111245	0.049600
47658	2.168198	0.416559	9.478249	0.138971	0.519662	-0.095566	-0.992515	0.012892	0.110873	0.049550
47659	2.042512	0.519985	9.567333	0.014833	0.636430	-0.036654	-0.992561	0.013110	0.110560	0.049270
47660	1.987086	0.175319	9.438874	-0.042675	0.303928	-0.170209	-0.992578	0.013806	0.110520	0.048813
47661	2.042011	-0.151673	9.309184	0.006798	-0.021513	-0.280993	-0.992601	0.014013	0.110489	0.048373
47662	2.041033	-0.091252	9.341674	0.008740	0.038155	-0.250288	-0.992663	0.013565	0.110128	0.048040
47663	1.986709	0.187414	9.481466	-0.039231	0.318507	-0.128818	-0.992730	0.013274	0.109725	0.047659
47664	2.095015	0.156931	9.439093	0.079999	0.277964	-0.146948	-0.992793	0.013633	0.109306	0.047210
47665	2.109551	-0.120653	9.391897	0.086614	0.006830	-0.186425	-0.992869	0.014038	0.108809	0.046633
47666	2.142468	-0.101428	9.438783	0.122520	0.029288	-0.134093	-0.992973	0.014034	0.108132	0.045994
47667	2.065872	-0.124438	9.453684	0.055994	0.013667	-0.135285	-0.993079	0.013947	0.107458	0.045315
47668	1.980358	-0.160575	9.480481	-0.023922	-0.014033	-0.126288	-0.993169	0.013937	0.106895	0.044649
47669	1.953856	-0.233748	9.442771	-0.038131	-0.085936	-0.167519	-0.993254	0.013853	0.106394	0.043990
47670	2.020942	-0.168150	9.525827	0.026451	-0.024566	-0.073460	-0.993338	0.013743	0.105876	0.043374
47671	2.036985	-0.186742	9.512346	0.054335	-0.045492	-0.083152	-0.993430	0.013701	0.105274	0.042744
47672	1.924278	-0.234483	9.575287	-0.059627	-0.080774	-0.043662	-0.993524	0.013773	0.104598	0.042189
47673	1.854834	-0.303732	9.598066	-0.125441	-0.141452	-0.034151	-0.993601	0.013857	0.104039	0.041732
47674	1.922795	-0.314821	9.564445	-0.043667	-0.158989	-0.053196	-0.993658	0.013747	0.103635	0.041408
47675	1.913925	-0.222469	9.609342	-0.045884	-0.068429	-0.012419	-0.993711	0.013459	0.103276	0.041124
47676	1.985882	-0.138560	9.639345	0.032926	0.004733	0.030015	-0.993767	0.013144	0.102874	0.040883
47677	2.018028	-0.153920	9.580926	0.081842	-0.020825	-0.020694	-0.993820	0.012826	0.102518	0.040587
47678	2.015707	-0.222673	9.591457	0.076773	-0.094546	-0.009939	-0.993856	0.012503	0.102363	0.040201
47679	2.047963	-0.294527	9.553686	0.112985	-0.177238	-0.039785	-0.993893	0.011992	0.102183	0.039890
47680	2.025594	-0.146934	9.653875	0.088662	-0.036829	0.052033	-0.993952	0.011300	0.101817	0.039548
47681	1.941351	-0.036760	9.806751	-0.006407	0.073925	0.184164	-0.994021	0.010974	0.101337	0.039143
47682	1.910958	-0.063685	9.885837	-0.043914	0.052290	0.256121	-0.994080	0.011341	0.100868	0.038746
47683	1.902674	-0.310883	9.822577	-0.051091	-0.185972	0.195440	-0.994120	0.011851	0.100573	0.038347
47684	1.868288	-0.358719	9.859720	-0.090898	-0.222197	0.226018	-0.994140	0.012084	0.100452	0.038056
47685	1.869747	-0.347818	9.859453	-0.087437	-0.207865	0.225982	-0.994141	0.012172	0.100488	0.037913
47686	1.915997	-0.355176	9.819598	-0.035845	-0.218935	0.195933	-0.994137	0.012144	0.100532	0.037909
47687	1.897996	-0.318481	9.854697	-0.060259	-0.183536	0.226314	-0.994114	0.011821	0.100761	0.038005
47688	1.937167	-0.196915	9.827616	-0.014623	-0.073436	0.205686	-0.994067	0.011389	0.101223	0.038136
47689	1.951649	-0.044245	9.794307	0.006991	0.071756	0.174011	-0.994005	0.011294	0.101815	0.038225
47690	1.942740	-0.179110	9.594787	0.013689	-0.064987	-0.021783	-0.993927	0.011590	0.102530	0.038243
47691	2.012711	-0.321954	9.486048	0.079210	-0.214072	-0.112809	-0.993862	0.011398	0.103149	0.038332
47692	2.033503	-0.108586	9.504443	0.102047	-0.009062	-0.093076	-0.993823	0.010869	0.103575	0.038336
47693	2.022446	0.049076	9.528194	0.092318	0.143003	-0.073581	-0.993807	0.010684	0.103786	0.038227
47694	1.911162	-0.143759	9.505500	-0.030654	-0.040355	-0.116030	-0.993793	0.010950	0.103969	0.038032
47695	1.912748	-0.267133	9.462257	-0.033902	-0.159530	-0.156722	-0.993776	0.011144	0.104213	0.037746
47696	1.991093	-0.324025	9.447289	0.038226	-0.219879	-0.155002	-0.993776	0.011139	0.104306	0.037501
47697	1.926225	-0.314624	9.490969	-0.032852	-0.204405	-0.125326	-0.993792	0.011130	0.104198	0.037360
47698	1.925051	-0.240076	9.554858	-0.038467	-0.127984	-0.063794	-0.993809	0.011165	0.104048	0.037315
47699	1.923521	-0.242164	9.555114	-0.038098	-0.127949	-0.063792	-0.993816	0.011330	0.103997	0.037220
47700	1.919007	-0.319616	9.523758	-0.042427	-0.201919	-0.094450	-0.993807	0.011534	0.104096	0.037139
47701	1.894992	-0.391157	9.496094	-0.067027	-0.271518	-0.125501	-0.993805	0.011395	0.104127	0.037146
47702	1.891469	-0.221511	9.582220	-0.074771	-0.104678	-0.043905	-0.993812	0.011040	0.104076	0.037196
47703	2.016355	-0.159037	9.591155	0.051812	-0.056754	-0.010885	-0.993827	0.010833	0.103941	0.037242
47704	1.985111	-0.238807	9.670359	0.002043	-0.135603	0.061275	-0.993841	0.010692	0.103807	0.037270
47705	1.889429	-0.246067	9.804038	-0.117136	-0.139465	0.173126	-0.993846	0.010156	0.103774	0.037379
47706	1.896492	-0.113933	9.845525	-0.113112	-0.020207	0.213817	-0.993807	0.009383	0.104219	0.037384
47707	2.082080	-0.053302	9.726850	0.086407	0.011685	0.134266	-0.993758	0.008872	0.104730	0.037385
47708	2.292856	-0.130882	9.750534	0.275861	-0.088674	0.200468	-0.993753	0.008545	0.104770	0.037477
47709	2.222075	-0.066458	9.911457	0.181673	-0.022879	0.343369	-0.993783	0.008208	0.104474	0.037595
47710	1.907413	0.147243	10.138704	-0.151461	0.214233	0.501594	-0.993785	0.008221	0.104417	0.037694
47711	1.755629	0.027549	9.987983	-0.287062	0.108142	0.323814	-0.993687	0.008698	0.105313	0.037676
47712	1.892429	-0.256485	9.645758	-0.131096	-0.180957	0.017760	-0.993503	0.009286	0.106954	0.037768
47713	2.103511	-0.352470	9.361836	0.094007	-0.289931	-0.215813	-0.993310	0.009520	0.108565	0.038177
47714	2.364813	-0.086992	9.289266	0.358868	-0.047174	-0.233579	-0.993178	0.009231	0.109570	0.038829
47715	2.230630	0.196009	9.367977	0.218353	0.238078	-0.186227	-0.993103	0.008690	0.110125	0.039289
47716	2.022222	0.279897	9.387604	0.005610	0.328869	-0.211301	-0.993026	0.008294	0.110803	0.039405
47717	2.055769	0.056199	9.211712	0.043632	0.095532	-0.374789	-0.992937	0.008226	0.111595	0.039441
47718	2.146860	-0.058438	9.098090	0.135405	-0.029283	-0.465577	-0.992878	0.008144	0.112074	0.039587
47719	2.189883	0.091435	9.226295	0.154122	0.117076	-0.331601	-0.992831	0.007992	0.112384	0.039914
47720	2.027819	0.165471	9.354009	-0.030247	0.202128	-0.242152	-0.992800	0.007766	0.112592	0.040144
47721	2.027568	0.374085	9.290021	-0.005898	0.406562	-0.305315	-0.992754	0.007758	0.113008	0.040108
47722	2.112584	0.293242	9.082518	0.106839	0.321862	-0.489270	-0.992702	0.008429	0.113503	0.039866
47723	2.210652	-0.091400	8.935729	0.197318	-0.057535	-0.609409	-0.992685	0.009269	0.113705	0.039529
47724	2.137165	-0.197979	8.897722	0.126353	-0.147216	-0.661814	-0.992721	0.009637	0.113484	0.039166
47725	2.215555	-0.106689	9.051181	0.185929	-0.054510	-0.495693	-0.992822	0.009646	0.112723	0.038800
47726	2.090180	-0.120004	9.214691	0.046205	-0.053855	-0.363417	-0.992974	0.009674	0.111529	0.038338
47727	2.053261	-0.218668	9.433730	-0.019057	-0.143903	-0.156713	-0.993145	0.009686	0.110128	0.037950
47728	2.016308	-0.297465	9.652590	-0.081237	-0.219624	0.049949	-0.993297	0.009194	0.108874	0.037730
47729	1.947774	0.113352	10.004506	-0.168269	0.189923	0.377130	-0.993411	0.008435	0.107921	0.037646
47730	1.976644	0.323541	10.083209	-0.126090	0.391004	0.459319	-0.993472	0.008426	0.107444	0.037403
47731	2.089338	0.027590	9.913851	0.003456	0.093035	0.318543	-0.993499	0.009278	0.107258	0.037017
47732	2.065044	-0.375945	9.696124	-0.001846	-0.296041	0.103608	-0.993515	0.010027	0.107123	0.036772
47733	2.043084	-0.468817	9.710385	-0.030276	-0.379693	0.114068	-0.993525	0.009987	0.107002	0.036865
47734	2.096350	-0.085541	9.775264	0.038987	-0.004661	0.185124	-0.993529	0.009580	0.106907	0.037144
47735	2.039507	0.089964	9.733842	0.003300	0.167796	0.131517	-0.993498	0.009452	0.107167	0.037262
47736	2.100128	-0.071886	9.521207	0.087473	-0.000734	-0.062743	-0.993453	0.009787	0.107562	0.037236
47737	2.169028	-0.279205	9.391069	0.160995	-0.211652	-0.174011	-0.993442	0.009822	0.107679	0.037184
47738	2.170242	-0.126234	9.517943	0.149653	-0.058833	-0.050963	-0.993483	0.009510	0.107342	0.037135
47739	2.043972	0.161613	9.690916	0.020930	0.239217	0.089844	-0.993543	0.009619	0.106824	0.036990
47740	2.020464	0.037399	9.748090	-0.014362	0.127220	0.141835	-0.993582	0.010387	0.106508	0.036658
47741	1.947339	-0.294955	9.665772	-0.090466	-0.186248	0.049532	-0.993581	0.011063	0.106564	0.036326
47742	2.091542	-0.350194	9.658660	0.045130	-0.245255	0.072894	-0.993559	0.010983	0.106798	0.036242
47743	2.060998	-0.059163	9.708201	0.022489	0.044589	0.111922	-0.993545	0.010653	0.106971	0.036234
47744	2.008333	-0.003350	9.644680	-0.017316	0.097977	0.038372	-0.993512	0.010504	0.107336	0.036090
47745	2.072509	-0.102758	9.515615	0.057521	-0.008343	-0.073622	-0.993478	0.010645	0.107686	0.035928
47746	2.115910	-0.187283	9.443311	0.104207	-0.093446	-0.134429	-0.993467	0.010873	0.107802	0.035822
47747	2.020080	-0.089390	9.525700	0.000612	0.019113	-0.074756	-0.993474	0.011262	0.107736	0.035711
47748	2.052953	-0.074878	9.508793	0.037691	0.041157	-0.084675	-0.993469	0.011899	0.107794	0.035484
47749	2.009152	-0.333468	9.399201	-0.002467	-0.205220	-0.197556	-0.993459	0.012398	0.107920	0.035185
47750	2.054730	-0.406657	9.294532	0.057919	-0.278400	-0.289308	-0.993471	0.012454	0.107876	0.034963
47751	1.962686	-0.302736	9.418953	-0.046344	-0.165529	-0.188192	-0.993513	0.012327	0.107537	0.034881
47752	2.003235	-0.188540	9.475464	-0.002019	-0.054884	-0.126105	-0.993569	0.012254	0.107025	0.034877
47753	2.013698	-0.191392	9.526326	0.007647	-0.056662	-0.074145	-0.993624	0.012394	0.106509	0.034845
47754	1.938757	-0.318229	9.497587	-0.059596	-0.177063	-0.115816	-0.993669	0.012474	0.106104	0.034760
47755	1.900504	-0.344805	9.462553	-0.084989	-0.201592	-0.157490	-0.993699	0.012457	0.105818	0.034790
47756	1.928767	-0.319386	9.394189	-0.036956	-0.182084	-0.219022	-0.993720	0.012296	0.105598	0.034915
47757	1.998650	-0.281822	9.423508	0.032749	-0.151888	-0.176693	-0.993744	0.012154	0.105313	0.035121
47758	2.048432	-0.285549	9.445890	0.083240	-0.162534	-0.144745	-0.993784	0.011931	0.104890	0.035331
47759	1.982390	-0.208729	9.648990	-0.008221	-0.082059	0.039705	-0.993825	0.011605	0.104440	0.035639
47760	2.048250	-0.079964	9.669296	0.070087	0.036163	0.071177	-0.993864	0.011394	0.103988	0.035925
47761	2.017377	-0.117432	9.696127	0.040618	-0.002221	0.091696	-0.993902	0.011308	0.103540	0.036211
47762	2.003346	-0.141987	9.751496	0.023889	-0.028261	0.143409	-0.993949	0.011094	0.102991	0.036538
47763	1.926165	-0.158011	9.692190	-0.031387	-0.046445	0.070150	-0.993984	0.010801	0.102535	0.036949
47764	1.971618	-0.025567	9.768871	0.015754	0.078702	0.152870	-0.994002	0.010651	0.102182	0.037477
47765	1.918178	0.014542	9.821062	-0.039061	0.120799	0.193149	-0.993996	0.010612	0.102067	0.037970
47766	1.963292	0.010096	9.833796	0.001513	0.112255	0.214553	-0.993961	0.010629	0.102250	0.038399
47767	1.919620	0.032021	9.778643	-0.034531	0.134922	0.151670	-0.993901	0.010578	0.102645	0.038905
47768	1.984641	0.159263	9.767012	0.034175	0.255102	0.151871	-0.993847	0.010558	0.102967	0.039428
47769	2.043682	0.253877	9.756377	0.096697	0.346620	0.152175	-0.993806	0.010866	0.103153	0.039877
47770	2.024549	0.189577	9.675454	0.085990	0.288802	0.069536	-0.993773	0.011335	0.103290	0.040228
47771	1.978758	0.099913	9.578174	0.049167	0.206558	-0.034047	-0.993732	0.011540	0.103589	0.040419
47772	1.987470	0.172613	9.534655	0.065639	0.277880	-0.075750	-0.993690	0.011414	0.103970	0.040507
47773	1.973586	0.235096	9.495275	0.058767	0.339243	-0.117739	-0.993664	0.011427	0.104226	0.040485
47774	1.937302	0.237506	9.502143	0.018664	0.348010	-0.118421	-0.993652	0.011731	0.104341	0.040383
47775	2.094949	0.192134	9.398542	0.189145	0.296025	-0.187985	-0.993658	0.012269	0.104296	0.040188
47776	2.082437	0.225303	9.475386	0.167325	0.346073	-0.116170	-0.993683	0.013116	0.104083	0.039860
47777	1.922445	0.009337	9.514552	-0.010454	0.159787	-0.107177	-0.993707	0.013799	0.103961	0.039355
47778	1.923638	-0.002485	9.461609	0.000824	0.157226	-0.158791	-0.993713	0.014146	0.104068	0.038779
47779	1.992116	0.035849	9.375417	0.085524	0.198675	-0.230337	-0.993709	0.014822	0.104245	0.038154
47780	2.000287	-0.221871	9.244047	0.098989	-0.044429	-0.352721	-0.993721	0.015986	0.104198	0.037487
47781	1.866220	-0.521406	9.148442	-0.031719	-0.316281	-0.466696	-0.993758	0.016906	0.103891	0.036960
47782	1.818134	-0.468231	9.273954	-0.091547	-0.242883	-0.354163	-0.993808	0.017261	0.103436	0.036735
47783	1.805430	-0.237476	9.354154	-0.093366	-0.002343	-0.283393	-0.993850	0.017609	0.102994	0.036670
47784	1.905867	-0.335900	9.365111	0.002405	-0.097766	-0.250214	-0.993871	0.018244	0.102723	0.036550
47785	1.802396	-0.422676	9.340303	-0.096186	-0.166462	-0.292626	-0.993876	0.018831	0.102593	0.036478
47786	1.786400	-0.401627	9.290795	-0.099005	-0.136009	-0.344684	-0.993866	0.019342	0.102600	0.036466
47787	1.941395	-0.215025	9.234382	0.079846	0.050102	-0.374459	-0.993867	0.020239	0.102418	0.036474
47788	2.056150	-0.458710	9.196593	0.188859	-0.183230	-0.381558	-0.993905	0.021404	0.101831	0.036416
47789	1.933319	-0.504229	9.376124	0.046052	-0.196620	-0.228176	-0.993996	0.021911	0.100848	0.036359
47790	1.887479	-0.241279	9.602629	-0.002107	0.084461	-0.023708	-0.994104	0.022016	0.099787	0.036273
47791	1.893746	-0.209311	9.655385	0.016914	0.125601	0.028067	-0.994198	0.022688	0.098804	0.035974
47792	1.782690	-0.451617	9.668205	-0.093001	-0.090333	0.028007	-0.994273	0.023811	0.097886	0.035681
47793	1.800969	-0.654855	9.710787	-0.079929	-0.272696	0.081296	-0.994339	0.024677	0.097033	0.035572
47794	1.761214	-0.518284	9.806201	-0.110527	-0.115774	0.162604	-0.994390	0.025200	0.096358	0.035608
47795	1.782669	-0.326758	9.830110	-0.067077	0.084848	0.182513	-0.994426	0.025730	0.095828	0.035663
47796	1.802719	-0.329490	9.795085	-0.032791	0.092388	0.151871	-0.994430	0.026594	0.095559	0.035654
47797	1.866862	-0.533339	9.660580	0.043391	-0.104309	0.040415	-0.994411	0.027592	0.095455	0.035704
47798	1.961164	-0.589692	9.641933	0.138784	-0.154830	0.042136	-0.994421	0.027942	0.095209	0.035791
47799	2.012448	-0.422473	9.776722	0.184522	0.015778	0.176228	-0.994470	0.027602	0.094741	0.035931
47800	1.894328	-0.195484	9.953324	0.064237	0.252315	0.317839	-0.994534	0.027225	0.094195	0.035886
47801	1.772846	-0.221819	10.004576	-0.056463	0.233701	0.347328	-0.994575	0.027285	0.093787	0.035774
47802	1.732675	-0.381127	9.921113	-0.088998	0.075632	0.265123	-0.994572	0.027495	0.093802	0.035672
47803	1.774198	-0.593989	9.821578	-0.049849	-0.142904	0.184367	-0.994544	0.027459	0.094114	0.035640
47804	1.821363	-0.430246	9.798900	0.005141	0.010067	0.163322	-0.994517	0.026893	0.094548	0.035697
47805	1.876652	-0.234710	9.796733	0.066053	0.191823	0.162868	-0.994487	0.026511	0.094927	0.035792
47806	1.898248	-0.101658	9.829364	0.083762	0.323096	0.193244	-0.994449	0.026699	0.095305	0.035719
47807	1.849440	-0.117414	9.700601	0.052551	0.314392	0.058191	-0.994413	0.027578	0.095504	0.035521
47808	1.767268	-0.434984	9.628772	-0.041542	0.019793	-0.013527	-0.994376	0.028738	0.095643	0.035255
47809	1.788403	-0.659901	9.583908	-0.033556	-0.191810	-0.042978	-0.994333	0.029221	0.095975	0.035166
47810	1.802418	-0.451960	9.621716	-0.020572	0.015423	-0.013212	-0.994289	0.028568	0.096605	0.035224
47811	1.869835	0.011189	9.618121	0.065941	0.461355	-0.025582	-0.994225	0.028050	0.097451	0.035126
47812	1.917601	-0.035874	9.481083	0.119452	0.404372	-0.148754	-0.994156	0.028572	0.098141	0.034711
47813	1.893844	-0.385578	9.323387	0.090958	0.065291	-0.291749	-0.994115	0.029719	0.098412	0.034156
47814	1.862373	-0.607555	9.298029	0.048166	-0.135289	-0.311621	-0.994113	0.030601	0.098281	0.033813
47815	1.780153	-0.593667	9.365877	-0.040197	-0.100868	-0.261288	-0.994135	0.030854	0.098074	0.033553
47816	1.774088	-0.547613	9.411226	-0.051350	-0.053249	-0.220348	-0.994133	0.030396	0.098306	0.033328
47817	1.873296	-0.283503	9.436883	0.055027	0.193708	-0.189600	-0.994142	0.029560	0.098561	0.033060
47818	2.077355	-0.211846	9.445206	0.255626	0.240422	-0.145783	-0.994181	0.028939	0.098564	0.032439
47819	2.013703	-0.446511	9.425609	0.183265	0.001277	-0.165777	-0.994250	0.028555	0.098288	0.031480
47820	1.932510	-0.829640	9.466675	0.079036	-0.380580	-0.123016	-0.994348	0.028024	0.097713	0.030630
47821	1.733907	-0.923678	9.604307	-0.132142	-0.469200	-0.021638	-0.994485	0.027022	0.096801	0.029995
47822	1.691715	-0.769484	9.829194	-0.187626	-0.321317	0.183739	-0.994603	0.025901	0.095988	0.029669
47823	1.579585	-0.634769	10.001519	-0.309199	-0.189331	0.326195	-0.994655	0.025259	0.095662	0.029525
47824	1.809369	-0.648183	9.950807	-0.072786	-0.225531	0.319260	-0.994652	0.025141	0.095725	0.029542
47825	1.867538	-0.728436	9.801132	0.004954	-0.317804	0.186287	-0.994639	0.025146	0.095795	0.029732
47826	1.890680	-0.727876	9.744633	0.036361	-0.324732	0.134954	-0.994633	0.024851	0.095851	0.030003
47827	1.879325	-0.566538	9.720931	0.037801	-0.175182	0.102815	-0.994634	0.024109	0.095944	0.030286
47828	2.038317	-0.485150	9.717312	0.198228	-0.119830	0.125249	-0.994648	0.023213	0.095932	0.030547
47829	1.959534	-0.441006	9.858966	0.098832	-0.082642	0.247971	-0.994677	0.022332	0.095795	0.030697
47830	1.869188	-0.380279	10.045001	-0.018226	-0.026459	0.411767	-0.994696	0.021452	0.095723	0.030933
47831	1.800807	-0.188896	10.156838	-0.096254	0.155857	0.502659	-0.994676	0.020653	0.096030	0.031181
47832	1.834007	0.013210	10.187626	-0.066025	0.344409	0.532770	-0.994619	0.020250	0.096643	0.031342
47833	1.903074	-0.008636	9.974881	0.024908	0.308954	0.337383	-0.994536	0.020574	0.097435	0.031325
47834	1.878143	-0.203949	9.837354	-0.003208	0.119708	0.203708	-0.994442	0.021189	0.098285	0.031232
47835	1.900941	-0.303279	9.651419	0.031417	0.021594	0.028754	-0.994361	0.021563	0.099069	0.031078
47836	2.004508	-0.263252	9.580858	0.135957	0.058743	-0.021965	-0.994308	0.021766	0.099613	0.030896
47837	1.936763	-0.475014	9.513315	0.060296	-0.149907	-0.093956	-0.994285	0.021671	0.099930	0.030697
47838	1.849395	-0.350528	9.595910	-0.039862	-0.022880	-0.034012	-0.994265	0.021097	0.100315	0.030483
47839	1.813527	-0.099217	9.609173	-0.070768	0.223754	-0.036193	-0.994222	0.020908	0.100869	0.030173
47840	1.793800	-0.219603	9.472611	-0.083425	0.106087	-0.170175	-0.994146	0.021753	0.101561	0.029756
47841	1.788079	-0.595720	9.262278	-0.084280	-0.254251	-0.364404	-0.994052	0.023338	0.102235	0.029406
47842	1.714661	-0.832825	9.098581	-0.148675	-0.465745	-0.529436	-0.993977	0.024777	0.102678	0.029225
47843	1.706231	-0.852945	9.066512	-0.158068	-0.463737	-0.560644	-0.993917	0.025833	0.102952	0.029369
47844	1.747509	-0.727609	9.199559	-0.138472	-0.317378	-0.426785	-0.993883	0.026591	0.102963	0.029810
47845	1.717244	-0.659126	9.365776	-0.195382	-0.229269	-0.272751	-0.993870	0.026883	0.102826	0.030429
47846	1.836473	-0.411308	9.510875	-0.090411	0.018575	-0.117842	-0.993849	0.026647	0.102857	0.031231
47847	1.927309	-0.135586	9.577754	-0.001527	0.284522	-0.046147	-0.993785	0.026253	0.103330	0.032013
47848	2.156362	-0.100282	9.471641	0.234729	0.293029	-0.105425	-0.993706	0.026000	0.103966	0.032609
47849	2.214533	-0.068743	9.429351	0.292313	0.310474	-0.135927	-0.993670	0.025492	0.104316	0.032987
47850	2.193037	0.138205	9.535127	0.261111	0.512642	-0.044568	-0.993679	0.024910	0.104317	0.033162
47851	2.104987	0.158907	9.615698	0.159506	0.535074	0.016154	-0.993682	0.024686	0.104388	0.033000
47852	2.145323	-0.008924	9.549420	0.197156	0.361865	-0.033930	-0.993669	0.024822	0.104629	0.032538
47853	2.164967	-0.177146	9.434405	0.225317	0.190480	-0.135941	-0.993687	0.024902	0.104631	0.031902
47854	1.985028	-0.199543	9.510719	0.033661	0.187412	-0.096841	-0.993715	0.025146	0.104552	0.031105
47855	2.034342	-0.304197	9.518777	0.075829	0.088500	-0.074895	-0.993745	0.025538	0.104416	0.030277
47856	2.054210	-0.375602	9.523039	0.093975	0.024735	-0.063858	-0.993788	0.025823	0.104181	0.029399
47857	2.086568	-0.432205	9.535958	0.125223	-0.026846	-0.042393	-0.993840	0.025961	0.103893	0.028522
47858	1.999458	-0.584762	9.568291	0.030382	-0.170946	-0.021782	-0.993897	0.025825	0.103625	0.027618
47859	1.740380	-0.555566	9.608491	-0.225281	-0.130351	-0.035524	-0.993939	0.025434	0.103547	0.026750
47860	1.702373	-0.544065	9.669084	-0.276154	-0.118955	0.015581	-0.993927	0.025171	0.103917	0.026027
47861	1.894887	-0.629165	9.587018	-0.085327	-0.220469	-0.022823	-0.993886	0.024953	0.104512	0.025416
47862	2.010356	-0.657574	9.500401	0.034106	-0.261604	-0.083250	-0.993865	0.024704	0.104911	0.024820
47863	1.880119	-0.705614	9.555735	-0.113044	-0.304334	-0.053619	-0.993854	0.024472	0.105185	0.024320
47864	1.776808	-0.725635	9.554322	-0.223003	-0.325399	-0.075489	-0.993810	0.024038	0.105778	0.023987
47865	1.936458	-0.532424	9.646020	-0.089335	-0.143936	0.038725	-0.993736	0.023478	0.106615	0.023906
47866	2.177433	-0.248882	9.459464	0.180510	0.111635	-0.104982	-0.993636	0.023139	0.107640	0.023788
47867	2.059087	-0.239483	9.556911	0.025089	0.130877	-0.034449	-0.993526	0.023380	0.108683	0.023398
47868	2.163093	-0.468813	9.422376	0.124776	-0.101045	-0.135181	-0.993437	0.023775	0.109537	0.022790
47869	2.265716	-0.550265	9.398262	0.213889	-0.180271	-0.133568	-0.993393	0.023986	0.109979	0.022369
47870	2.281284	-0.408134	9.494890	0.213933	-0.029817	-0.041449	-0.993415	0.024167	0.109755	0.022280
47871	1.895238	-0.348449	9.607573	-0.180776	0.056262	-0.015599	-0.993414	0.024564	0.109690	0.022189
47872	1.847516	-0.349487	9.606747	-0.230908	0.067234	-0.026616	-0.993351	0.025182	0.110150	0.022064
47873	1.925652	-0.580327	9.529431	-0.162216	-0.157700	-0.075966	-0.993243	0.025785	0.111010	0.021916
47874	1.967740	-0.516534	9.512399	-0.136050	-0.088371	-0.086529	-0.993089	0.025935	0.112388	0.021698
47875	2.237871	-0.336978	9.483196	0.113190	0.082500	-0.064204	-0.992906	0.026020	0.114007	0.021515
47876	2.399439	-0.245775	9.377148	0.270855	0.167901	-0.135549	-0.992759	0.026455	0.115197	0.021413
47877	2.271187	-0.318427	9.390885	0.121074	0.110601	-0.147208	-0.992670	0.026931	0.115914	0.021097
47878	2.098457	-0.398497	9.382689	-0.061839	0.045367	-0.190252	-0.992596	0.027266	0.116536	0.020705
47879	2.147939	-0.307909	9.375436	-0.019445	0.141193	-0.190478	-0.992520	0.027622	0.117142	0.020452
47880	2.275561	-0.247443	9.264806	0.121977	0.200079	-0.272189	-0.992449	0.028163	0.117637	0.020351
47881	2.295441	-0.320719	9.225413	0.140579	0.136015	-0.302594	-0.992412	0.028837	0.117818	0.020160
47882	2.273483	-0.461627	9.224142	0.112884	0.007229	-0.301966	-0.992423	0.029264	0.117685	0.019756
47883	2.256643	-0.541021	9.224369	0.097644	-0.064297	-0.301617	-0.992464	0.029496	0.117355	0.019336
47884	2.191755	-0.565356	9.311985	0.020101	-0.076937	-0.229882	-0.992498	0.029661	0.117049	0.019151
47885	2.222955	-0.501245	9.329318	0.056029	-0.009594	-0.209266	-0.992536	0.029842	0.116683	0.019180
47886	2.193764	-0.398041	9.340586	0.037716	0.099433	-0.210279	-0.992579	0.030157	0.116223	0.019219
47887	2.200355	-0.483558	9.377758	0.042255	0.023807	-0.168240	-0.992632	0.030662	0.115644	0.019166
47888	2.185376	-0.537046	9.399821	0.033017	-0.018934	-0.147313	-0.992701	0.031093	0.114942	0.019148
47889	2.171977	-0.486906	9.447722	0.025131	0.043073	-0.106427	-0.992762	0.031580	0.114277	0.019133
47890	2.163694	-0.525605	9.437106	0.029472	0.012206	-0.116514	-0.992812	0.031959	0.113746	0.019084
47891	2.216066	-0.529204	9.425871	0.093674	0.013329	-0.115828	-0.992865	0.032332	0.113179	0.019071
47892	2.171719	-0.678467	9.438426	0.052605	-0.127488	-0.104880	-0.992925	0.032595	0.112572	0.019084
47893	2.099420	-0.686144	9.559430	-0.032241	-0.123365	-0.002244	-0.992996	0.032540	0.111949	0.019196
47894	2.122005	-0.542074	9.657616	-0.011850	0.022690	0.090122	-0.993076	0.032323	0.111252	0.019438
47895	2.167205	-0.403024	9.771985	0.028567	0.164504	0.203450	-0.993153	0.032344	0.110503	0.019745
47896	2.074253	-0.376796	9.824507	-0.059379	0.198908	0.233324	-0.993200	0.032579	0.109991	0.019846
47897	2.117195	-0.406374	9.824826	-0.011643	0.173679	0.244378	-0.993210	0.032937	0.109798	0.019857
47898	2.061018	-0.566837	9.648034	-0.033608	0.012768	0.069233	-0.993205	0.033489	0.109685	0.019790
47899	2.077210	-0.653772	9.650605	-0.018608	-0.065297	0.080329	-0.993219	0.033857	0.109439	0.019837
47900	2.063233	-0.596096	9.709531	-0.036689	-0.001012	0.131452	-0.993251	0.033749	0.109162	0.019906
47901	2.125271	-0.324446	9.743245	0.032721	0.268979	0.161251	-0.993257	0.033757	0.109109	0.019917
47902	2.145540	-0.407368	9.745269	0.047723	0.190929	0.172342	-0.993228	0.034259	0.109226	0.019846
47903	2.185415	-0.570048	9.643476	0.098704	0.029571	0.091200	-0.993211	0.034648	0.109299	0.019637
47904	2.115389	-0.651222	9.674461	0.019393	-0.042875	0.111623	-0.993216	0.034611	0.109323	0.019313
47905	2.023165	-0.515246	9.775065	-0.087613	0.100867	0.181947	-0.993209	0.034391	0.109526	0.018881
47906	2.079361	-0.508786	9.753247	-0.033446	0.104113	0.172125	-0.993169	0.034528	0.109896	0.018603
47907	2.214575	-0.550738	9.680552	0.105880	0.058647	0.132466	-0.993129	0.034889	0.110157	0.018536
47908	2.143383	-0.499938	9.729862	0.024171	0.121694	0.162224	-0.993102	0.035195	0.110312	0.018486
47909	2.093047	-0.498091	9.761594	-0.036439	0.135114	0.182215	-0.993051	0.035640	0.110658	0.018277
47910	2.136486	-0.648241	9.690772	0.007188	-0.009500	0.131944	-0.992988	0.036272	0.111066	0.017960
47911	2.172776	-0.709871	9.658081	0.038850	-0.061399	0.111933	-0.992924	0.036855	0.111508	0.017598
47912	2.171250	-0.736220	9.667089	0.025836	-0.073413	0.122245	-0.992852	0.037553	0.111961	0.017329
47913	2.212472	-0.769836	9.581676	0.074389	-0.099271	0.050414	-0.992775	0.038325	0.112403	0.017163
47914	2.271951	-0.766101	9.558275	0.131673	-0.081731	0.040498	-0.992718	0.039261	0.112592	0.017078
47915	2.184301	-0.829434	9.572334	0.038565	-0.121306	0.039849	-0.992672	0.040360	0.112628	0.016969
47916	2.101403	-0.923567	9.540615	-0.040163	-0.194208	-0.001835	-0.992621	0.041428	0.112691	0.016955
47917	2.061139	-1.008901	9.638270	-0.106990	-0.253991	0.091173	-0.992569	0.041998	0.112942	0.016932
47918	2.083240	-0.784831	9.712965	-0.097793	-0.015674	0.151635	-0.992515	0.042361	0.113282	0.016907
47919	2.156256	-0.808446	9.716699	-0.036942	-0.028732	0.173055	-0.992422	0.043166	0.113817	0.016771
47920	2.166408	-1.015311	9.571323	-0.015261	-0.228928	0.050462	-0.992307	0.044211	0.114410	0.016800
47921	2.016633	-1.195411	9.600224	-0.187182	-0.386144	0.060303	-0.992207	0.044801	0.115002	0.017112
47922	2.014417	-0.972403	9.532615	-0.179675	-0.163213	-0.024161	-0.992089	0.044966	0.115861	0.017690
47923	2.003521	-0.790971	9.527877	-0.202357	0.021647	-0.046485	-0.991916	0.045318	0.117108	0.018294
47924	2.235629	-0.784024	9.370149	0.030975	0.015277	-0.147744	-0.991698	0.045743	0.118715	0.018671
47925	2.440554	-0.816240	9.213972	0.234711	-0.029624	-0.249017	-0.991509	0.046049	0.120140	0.018853
47926	2.506983	-0.825309	9.133212	0.296356	-0.043299	-0.310480	-0.991406	0.046228	0.120892	0.019033
47927	2.427624	-0.843484	9.267025	0.178027	-0.046733	-0.197663	-0.991380	0.046105	0.121101	0.019356
47928	2.258270	-0.635806	9.471814	-0.028383	0.179137	-0.056336	-0.991361	0.045809	0.121341	0.019512
47929	2.304526	-0.464223	9.549056	-0.001361	0.353658	0.015116	-0.991285	0.045878	0.121948	0.019427
47930	2.448572	-0.538265	9.509565	0.131271	0.279850	0.016935	-0.991174	0.046502	0.122657	0.019147
47931	2.439578	-0.550492	9.542765	0.100946	0.286760	0.047662	-0.991062	0.047341	0.123322	0.018594
47932	2.426229	-0.549973	9.503497	0.084566	0.305214	0.005925	-0.990940	0.048465	0.123998	0.017723
47933	2.321912	-0.669831	9.401070	-0.009873	0.205369	-0.108167	-0.990814	0.049831	0.124618	0.016608
47934	2.187490	-0.759701	9.415042	-0.159733	0.148179	-0.119508	-0.990677	0.051071	0.125348	0.015441
47935	2.123890	-0.710744	9.424592	-0.237864	0.225257	-0.131180	-0.990499	0.052276	0.126386	0.014347
47936	2.327939	-0.806258	9.323650	-0.044127	0.137828	-0.170138	-0.990277	0.052953	0.127982	0.012969
47937	2.365130	-0.892684	9.338349	-0.049630	0.064319	-0.138559	-0.990020	0.053018	0.130078	0.011342
47938	2.584737	-0.829078	9.106277	0.183602	0.102470	-0.312784	-0.989780	0.052555	0.132207	0.009733
47939	2.604626	-0.560429	9.168584	0.158874	0.378084	-0.273673	-0.989544	0.052701	0.134006	0.008238
47940	2.668033	-0.700063	9.138362	0.194885	0.250362	-0.272383	-0.989338	0.053546	0.135279	0.006528
47941	2.813581	-0.862273	9.245359	0.283214	0.127037	-0.115267	-0.989148	0.054879	0.136211	0.004569
47942	2.720388	-1.086791	9.279035	0.168654	-0.057578	-0.083853	-0.989011	0.056599	0.136556	0.002657
47943	2.491689	-1.412483	9.368716	-0.082553	-0.332121	-0.021917	-0.988901	0.058655	0.136504	0.001022
47944	2.549844	-1.565553	9.172850	0.028821	-0.462172	-0.175299	-0.988831	0.060751	0.136098	0.000000
47945	2.359982	-1.774057	9.131741	-0.135512	-0.636430	-0.237619	-0.988802	0.062731	0.135410	-0.000335
47946	2.447336	-1.901382	9.123673	-0.039823	-0.732051	-0.204952	-0.988798	0.063938	0.134869	-0.000010
47947	2.568600	-1.707414	9.233111	0.060119	-0.513224	-0.091767	-0.988854	0.064039	0.134412	0.000817
47948	2.531774	-1.276459	9.510351	-0.032782	-0.056792	0.111107	-0.988925	0.063691	0.134041	0.001801
47949	2.667785	-0.914422	9.518545	0.109601	0.302064	0.109646	-0.988946	0.064012	0.133716	0.002836
47950	2.637975	-0.832210	9.482901	0.098826	0.394211	0.057047	-0.988901	0.065567	0.133272	0.003873
47951	2.605336	-1.141332	9.432439	0.080385	0.113359	0.038297	-0.988814	0.067624	0.132858	0.004810
47952	2.556725	-1.384993	9.349261	0.054547	-0.106166	-0.022416	-0.988746	0.069270	0.132472	0.005809
47953	2.541550	-1.393201	9.222421	0.076189	-0.111506	-0.146494	-0.988720	0.070001	0.132232	0.006931
47954	2.675417	-1.264035	9.280555	0.201386	0.026560	-0.073947	-0.988804	0.069801	0.131640	0.008135
47955	2.855310	-1.016951	9.439733	0.360967	0.277608	0.091256	-0.989034	0.068810	0.130347	0.009330
47956	2.712256	-0.704067	9.709987	0.196644	0.599670	0.273811	-0.989332	0.067721	0.128561	0.010380
47957	2.430786	-0.494490	9.806091	-0.055011	0.804797	0.270061	-0.989580	0.067470	0.126714	0.011080
47958	2.152008	-0.869960	9.634025	-0.265309	0.414955	0.084774	-0.989701	0.068246	0.125334	0.011185
47959	1.950827	-1.252763	9.440985	-0.411777	0.026170	-0.099960	-0.989691	0.069044	0.125008	0.010850
47960	2.065651	-1.616728	9.076484	-0.231316	-0.374735	-0.375032	-0.989577	0.069209	0.125835	0.010597
47961	2.366720	-1.411787	8.857646	0.103839	-0.209065	-0.539184	-0.989508	0.068305	0.126876	0.010518
47962	2.657110	-1.055749	8.798856	0.398325	0.116253	-0.570259	-0.989521	0.067135	0.127417	0.010296
47963	2.633712	-0.975540	8.782172	0.381110	0.179885	-0.601984	-0.989602	0.066660	0.127079	0.009724
47964	2.357455	-1.312377	8.851854	0.097242	-0.147530	-0.560445	-0.989738	0.066551	0.126139	0.008838
47965	2.232434	-1.477883	8.991138	-0.042298	-0.296159	-0.436178	-0.989916	0.066133	0.125024	0.007816
47966	2.180052	-1.374411	9.177675	-0.112436	-0.174835	-0.282310	-0.990077	0.065782	0.123985	0.006971
47967	2.294417	-1.526779	9.303476	-0.017215	-0.314619	-0.114710	-0.990195	0.065455	0.123243	0.006303
47968	2.351182	-1.494544	9.401649	0.032082	-0.279726	-0.010983	-0.990353	0.064632	0.122439	0.005661
47969	2.253067	-1.315494	9.468286	-0.057864	-0.109879	0.007690	-0.990508	0.063689	0.121711	0.004929
47970	2.203488	-1.543597	9.432040	-0.090439	-0.357697	-0.011398	-0.990623	0.062781	0.121269	0.004343
47971	2.239484	-1.650993	9.455239	-0.054837	-0.485144	0.031304	-0.990763	0.061168	0.120952	0.004153
47972	2.301521	-1.202964	9.578407	-0.004814	-0.060672	0.111332	-0.990942	0.059190	0.120466	0.004309
47973	2.440857	-0.818511	9.769904	0.105948	0.306095	0.285517	-0.991120	0.057405	0.119860	0.004401
47974	2.396244	-0.547975	9.840079	0.065134	0.555224	0.314348	-0.991256	0.056444	0.119200	0.004010
47975	2.308646	-0.729247	9.776960	0.001779	0.358845	0.253186	-0.991315	0.056372	0.118773	0.003050
47976	2.401246	-0.974120	9.634579	0.127791	0.105868	0.162906	-0.991333	0.056723	0.118482	0.001880
47977	2.363882	-1.342799	9.508531	0.121316	-0.268064	0.072485	-0.991368	0.056759	0.118187	0.000803
47978	2.304497	-1.708571	9.441847	0.080847	-0.649255	0.033646	-0.991470	0.055486	0.117936	-0.000053
47979	2.264243	-1.726168	9.537724	0.027513	-0.696976	0.116453	-0.991668	0.052545	0.117617	-0.000457
47980	2.224485	-1.287384	9.752685	-0.046818	-0.304755	0.268237	-0.991901	0.048860	0.117239	-0.000479
47981	2.151024	-0.760404	9.966257	-0.155947	0.169975	0.408753	-0.992063	0.045703	0.117139	-0.000545
47982	2.111941	-0.641335	9.952362	-0.193429	0.238096	0.376861	-0.992082	0.044030	0.117617	-0.000746
47983	2.321437	-0.777169	9.692002	0.056523	0.062338	0.183355	-0.992017	0.043587	0.118331	-0.000935
47984	2.354040	-0.924000	9.459918	0.128225	-0.104490	-0.021979	-0.991949	0.043828	0.118805	-0.001092
47985	2.236395	-1.152744	9.233860	0.056716	-0.344969	-0.248577	-0.991896	0.044353	0.119050	-0.001229
47986	2.079201	-1.256910	9.143694	-0.081622	-0.450165	-0.362781	-0.991846	0.044675	0.119350	-0.001205
47987	2.133044	-1.383001	9.046810	-0.014829	-0.585086	-0.433733	-0.991820	0.044217	0.119735	-0.000778
47988	2.223060	-1.204931	9.115964	0.052937	-0.419443	-0.361981	-0.991869	0.042817	0.119842	-0.000116
47989	2.370610	-0.882253	9.331651	0.150949	-0.109586	-0.146096	-0.991975	0.041143	0.119553	0.000532
47990	2.301684	-0.723574	9.508642	0.053906	0.032675	-0.002920	-0.992104	0.039950	0.118879	0.001104
47991	2.146435	-0.649783	9.730228	-0.133025	0.104838	0.171201	-0.992212	0.039520	0.118113	0.001674
47992	2.233567	-0.712716	9.748721	-0.041225	0.040141	0.213829	-0.992257	0.039707	0.117657	0.002340
47993	2.274198	-0.802558	9.701393	0.014467	-0.047074	0.183846	-0.992264	0.040263	0.117401	0.002999
47994	2.311176	-0.995358	9.572992	0.079068	-0.241714	0.082249	-0.992254	0.040600	0.117348	0.003478
47995	2.230063	-0.906191	9.650667	-0.016589	-0.145283	0.132581	-0.992249	0.040548	0.117394	0.003992
47996	2.175855	-0.860392	9.644864	-0.070497	-0.103457	0.111139	-0.992228	0.040387	0.117610	0.004581
47997	2.271384	-0.844853	9.645771	0.016826	-0.092356	0.132414	-0.992196	0.040231	0.117909	0.005192
47998	2.315186	-0.818539	9.648359	0.053671	-0.070203	0.142870	-0.992171	0.040115	0.118120	0.005903
47999	2.302044	-0.840133	9.777639	0.006329	-0.088880	0.266970	-0.992160	0.039687	0.118314	0.006710
48000	2.290613	-0.688968	9.854487	-0.026299	0.053782	0.327770	-0.992131	0.038901	0.118772	0.007506
48001	2.376302	-0.522882	9.899028	0.038563	0.204992	0.378849	-0.992070	0.038156	0.119468	0.008295
48002	2.412508	-0.437820	9.831926	0.075246	0.271695	0.316435	-0.991976	0.037795	0.120306	0.008985
48003	2.401609	-0.455726	9.779702	0.059452	0.244977	0.264733	-0.991876	0.037784	0.121093	0.009532
48004	2.397522	-0.555785	9.688825	0.058547	0.139846	0.182678	-0.991774	0.038041	0.121802	0.010041
48005	2.328100	-0.645965	9.592593	-0.002866	0.047858	0.079372	-0.991678	0.038334	0.122451	0.010577
48006	2.317662	-0.583829	9.566981	-0.020112	0.111597	0.047671	-0.991562	0.038518	0.123276	0.011140
48007	2.401526	-0.537894	9.443154	0.074441	0.150332	-0.055554	-0.991429	0.038797	0.124206	0.011666
48008	2.389057	-0.636477	9.343383	0.063541	0.047274	-0.148051	-0.991289	0.038907	0.125230	0.012222
48009	2.335816	-0.586654	9.359312	-0.010779	0.093745	-0.148942	-0.991173	0.038340	0.126275	0.012641
48010	2.424627	-0.436407	9.175915	0.103046	0.217856	-0.314869	-0.991034	0.037891	0.127458	0.013082
48011	2.381540	-0.522282	9.159371	0.041053	0.126540	-0.335301	-0.990898	0.037856	0.128481	0.013422
48012	2.532096	-0.635900	9.093055	0.184533	0.005083	-0.354070	-0.990827	0.037913	0.128966	0.013856
48013	2.479182	-0.565986	9.153352	0.116220	0.080503	-0.313711	-0.990817	0.038020	0.128941	0.014471
48014	2.420034	-0.424343	9.294792	0.032762	0.234714	-0.201568	-0.990847	0.038213	0.128584	0.015121
48015	2.266643	-0.401246	9.377431	-0.129053	0.270677	-0.161524	-0.990862	0.038548	0.128294	0.015697
48016	2.264353	-0.406105	9.409880	-0.139056	0.273215	-0.130535	-0.990813	0.038833	0.128539	0.016125
48017	2.464227	-0.426477	9.315795	0.067066	0.242843	-0.170341	-0.990711	0.038796	0.129292	0.016418
48018	2.590239	-0.365913	9.201940	0.205108	0.287088	-0.252645	-0.990625	0.038409	0.130040	0.016596
48019	2.625302	-0.240658	9.168192	0.240926	0.399119	-0.284387	-0.990589	0.037801	0.130496	0.016600
48020	2.519898	-0.123928	9.244543	0.118247	0.516460	-0.244714	-0.990574	0.037588	0.130701	0.016365
48021	2.467480	-0.247271	9.271614	0.049697	0.396842	-0.223502	-0.990526	0.037686	0.131106	0.015819
48022	2.511861	-0.420455	9.270946	0.075991	0.226366	-0.201255	-0.990452	0.037733	0.131724	0.015133
48023	2.577214	-0.490860	9.238927	0.134677	0.153569	-0.210655	-0.990412	0.037582	0.132150	0.014403
48024	2.470291	-0.380798	9.433904	-0.019055	0.278515	-0.057281	-0.990418	0.037349	0.132269	0.013505
48025	2.465913	-0.350859	9.544040	-0.053509	0.316915	0.045772	-0.990401	0.037351	0.132503	0.012438
48026	2.504777	-0.525331	9.458926	-0.006436	0.141303	-0.014670	-0.990348	0.037580	0.132939	0.011222
48027	2.536023	-0.773070	9.392348	0.024700	-0.105656	-0.053924	-0.990296	0.037555	0.133434	0.009936
48028	2.541967	-0.786814	9.357711	0.032198	-0.122379	-0.084819	-0.990278	0.037205	0.133741	0.008882
48029	2.368988	-0.658533	9.410931	-0.150907	0.007999	-0.087023	-0.990243	0.037013	0.134101	0.008094
48030	2.492780	-0.668863	9.324245	-0.015556	-0.007016	-0.137845	-0.990192	0.037272	0.134440	0.007501
48031	2.612025	-0.849441	9.238490	0.115430	-0.185979	-0.177025	-0.990191	0.037700	0.134354	0.007049
48032	2.548950	-0.830966	9.288267	0.047848	-0.155753	-0.146613	-0.990246	0.037974	0.133892	0.006623
48033	2.505020	-0.652496	9.386365	-0.005482	0.036565	-0.075986	-0.990310	0.038326	0.133338	0.006239
48034	2.481646	-0.836400	9.348181	-0.012441	-0.141982	-0.105665	-0.990355	0.038665	0.132922	0.005802
48035	2.467754	-0.957971	9.375877	-0.027355	-0.258333	-0.073740	-0.990412	0.038505	0.132563	0.005349
48036	2.418838	-0.868080	9.480432	-0.092693	-0.168332	0.008005	-0.990479	0.037797	0.132285	0.004922
48037	2.424659	-0.723224	9.574280	-0.104936	-0.030009	0.089683	-0.990509	0.037083	0.132275	0.004548
48038	2.540730	-0.588512	9.542229	0.018048	0.092974	0.079067	-0.990519	0.036779	0.132292	0.004248
48039	2.612962	-0.531003	9.527265	0.094837	0.151180	0.079050	-0.990535	0.037178	0.132076	0.003860
48040	2.448282	-0.736226	9.492241	-0.052797	-0.041588	0.017582	-0.990548	0.038171	0.131706	0.003365
48041	2.352730	-0.992190	9.467230	-0.136212	-0.278274	-0.012065	-0.990546	0.039198	0.131427	0.003003
48042	2.397738	-1.095313	9.437199	-0.080767	-0.365452	-0.021391	-0.990556	0.039936	0.131134	0.002835
48043	2.342441	-1.020077	9.466816	-0.135507	-0.278227	-0.012054	-0.990572	0.040223	0.130922	0.002802
48044	2.334696	-0.873022	9.532559	-0.154520	-0.123558	0.038380	-0.990581	0.040251	0.130846	0.002881
48045	2.452004	-0.821895	9.559814	-0.047673	-0.071608	0.090366	-0.990571	0.040081	0.130972	0.002991
48046	2.491878	-0.854722	9.601001	-0.023608	-0.106409	0.142579	-0.990555	0.039718	0.131201	0.003026
48047	2.365794	-0.875496	9.578512	-0.146820	-0.139484	0.090359	-0.990524	0.039055	0.131633	0.003069
48048	2.396337	-0.701117	9.604200	-0.132128	0.022555	0.109845	-0.990463	0.038329	0.132301	0.003270
48049	2.538845	-0.552389	9.523645	0.014510	0.155021	0.057795	-0.990376	0.038046	0.133027	0.003505
48050	2.575025	-0.616675	9.456270	0.053128	0.086284	0.006773	-0.990291	0.038401	0.133552	0.003706
48051	2.578979	-0.655418	9.420376	0.057510	0.055240	-0.024030	-0.990224	0.039144	0.133827	0.003872
48052	2.617744	-0.678380	9.387090	0.098470	0.046188	-0.044454	-0.990159	0.040109	0.134015	0.003933
48053	2.628460	-0.758583	9.378501	0.106421	-0.015417	-0.043913	-0.990101	0.041108	0.134145	0.003910
48054	2.634580	-0.762271	9.462332	0.089273	0.004068	0.038698	-0.990071	0.041811	0.134151	0.003951
48055	2.653542	-0.658820	9.561509	0.084069	0.126019	0.130894	-0.990057	0.042226	0.134122	0.004031
48056	2.562334	-0.573618	9.634808	-0.021377	0.224735	0.170956	-0.990035	0.042648	0.134147	0.004109
48057	2.564621	-0.686225	9.711749	-0.043539	0.125328	0.254520	-0.989995	0.042898	0.134356	0.004186
48058	2.510400	-0.764591	9.784615	-0.123174	0.053523	0.316842	-0.989940	0.042708	0.134818	0.004347
48059	2.569039	-0.527603	9.851266	-0.092857	0.287422	0.377234	-0.989847	0.042146	0.135673	0.004511
48060	2.588495	-0.352408	9.794360	-0.077633	0.448744	0.313839	-0.989684	0.041859	0.136943	0.004587
48061	2.623922	-0.248374	9.577521	-0.013550	0.538250	0.106263	-0.989432	0.042455	0.138569	0.004488
48062	2.767696	-0.525705	9.184045	0.190823	0.250969	-0.211458	-0.989116	0.043951	0.140358	0.004145
48063	2.921264	-0.890762	8.821067	0.399374	-0.111924	-0.487115	-0.988845	0.045619	0.141743	0.003719
48064	2.811538	-1.171192	8.632939	0.320458	-0.380707	-0.671769	-0.988687	0.046776	0.142480	0.003128
48065	2.666895	-1.335287	8.626162	0.171809	-0.528005	-0.702382	-0.988622	0.047375	0.142742	0.002589
48066	2.615332	-1.350379	8.746752	0.087572	-0.523524	-0.599251	-0.988618	0.047623	0.142695	0.002291
48067	2.387197	-1.238351	9.014699	-0.200633	-0.383432	-0.415361	-0.988634	0.047978	0.142463	0.002364
48068	2.265202	-1.222619	9.114753	-0.342244	-0.351583	-0.354151	-0.988624	0.048522	0.142342	0.002755
48069	2.390793	-1.170033	9.159212	-0.232244	-0.285212	-0.281646	-0.988599	0.049050	0.142319	0.003484
48070	2.509913	-0.890670	9.279810	-0.145895	0.011802	-0.159376	-0.988577	0.049433	0.142312	0.004416
48071	2.716939	-0.611511	9.365162	0.034732	0.302892	-0.046981	-0.988549	0.049710	0.142381	0.005196
48072	2.909769	-0.448700	9.368736	0.220744	0.472299	-0.006083	-0.988499	0.050264	0.142524	0.005554
48073	2.852323	-0.609426	9.262678	0.186849	0.314172	-0.108528	-0.988422	0.051051	0.142772	0.005567
48074	2.883689	-0.790756	9.172416	0.233658	0.138481	-0.169017	-0.988373	0.051660	0.142904	0.005410
48075	2.829104	-0.892057	9.200069	0.171367	0.047491	-0.147842	-0.988390	0.051745	0.142762	0.005192
48076	2.818206	-0.772228	9.387274	0.115399	0.181232	0.016522	-0.988443	0.051139	0.142621	0.004869
48077	2.817151	-0.643788	9.561262	0.069636	0.312659	0.170594	-0.988468	0.050249	0.142780	0.004502
48078	2.822815	-0.482390	9.714187	0.030235	0.472520	0.303745	-0.988442	0.049438	0.143255	0.004095
48079	2.802717	-0.492178	9.696837	0.004194	0.448272	0.283109	-0.988382	0.048833	0.143888	0.003600
48080	2.806323	-0.499543	9.673292	0.001525	0.433851	0.262497	-0.988298	0.048794	0.144484	0.003115
48081	2.859755	-0.675927	9.491099	0.089117	0.248557	0.119397	-0.988195	0.049419	0.144983	0.002789
48082	2.824562	-0.901779	9.383641	0.072751	0.026576	0.027945	-0.988113	0.050069	0.145326	0.002569
48083	2.636543	-1.072841	9.389927	-0.122688	-0.140342	-0.002574	-0.988025	0.049790	0.146022	0.002306
48084	2.793247	-0.791788	9.434807	0.001394	0.132830	0.057825	-0.987898	0.048698	0.147246	0.001938
48085	2.911368	-0.669870	9.269693	0.138904	0.221517	-0.077003	-0.987752	0.047733	0.148545	0.001417
48086	2.951149	-0.766428	9.216469	0.167819	0.110026	-0.107035	-0.987610	0.047364	0.149610	0.000884
48087	2.944855	-0.962600	9.071069	0.185023	-0.104647	-0.229480	-0.987541	0.046908	0.150208	0.000379
48088	3.010178	-0.924894	9.098110	0.235185	-0.070343	-0.188138	-0.987562	0.046511	0.150194	-0.000048
48089	2.850800	-0.856985	9.195014	0.059753	-0.001134	-0.148000	-0.987631	0.046240	0.149825	-0.000570
48090	2.730816	-1.042234	9.323738	-0.085740	-0.178058	-0.043519	-0.987705	0.046165	0.149353	-0.000944
48091	2.763665	-1.044667	9.313920	-0.044899	-0.186991	-0.043281	-0.987757	0.045504	0.149212	-0.001313
48092	2.787454	-0.916089	9.231023	0.001407	-0.077650	-0.126881	-0.987733	0.044812	0.149577	-0.001667
48093	2.852852	-1.080622	9.014130	0.119273	-0.269979	-0.300910	-0.987715	0.044237	0.149860	-0.001973
48094	2.820033	-1.253887	8.967347	0.098841	-0.460638	-0.340826	-0.987774	0.043284	0.149749	-0.002141
48095	2.844780	-1.090371	9.071458	0.100189	-0.310112	-0.248861	-0.987909	0.041948	0.149238	-0.002147
48096	2.835708	-0.799053	9.281098	0.045698	-0.026496	-0.075354	-0.988065	0.040867	0.148503	-0.002046
48097	2.849170	-0.655368	9.352840	0.054161	0.107242	-0.014298	-0.988202	0.040394	0.147719	-0.002046
48098	2.676891	-0.751433	9.353229	-0.095146	0.005076	-0.055424	-0.988331	0.040481	0.146827	-0.002084
48099	2.413273	-1.085229	9.330114	-0.328606	-0.333702	-0.125929	-0.988431	0.040367	0.146186	-0.002140
48100	2.685475	-1.151258	9.408941	-0.079157	-0.402724	0.030931	-0.988550	0.039130	0.145720	-0.001961
48101	2.982023	-1.004268	9.529412	0.181101	-0.278838	0.217266	-0.988696	0.036815	0.145337	-0.001559
48102	2.914546	-0.603668	9.726924	0.068744	0.077425	0.358889	-0.988826	0.033662	0.145223	-0.001029
48103	2.899674	-0.059082	9.793730	0.039109	0.564446	0.385762	-0.988891	0.030972	0.145381	-0.000515
48104	2.783835	0.081195	9.713727	-0.055487	0.659690	0.270690	-0.988849	0.029881	0.145893	-0.000325
48105	2.778118	-0.343766	9.423661	0.005475	0.209190	0.015726	-0.988743	0.029993	0.146587	-0.000375
48106	2.781170	-0.588399	9.161990	0.067088	-0.046238	-0.220163	-0.988635	0.030234	0.147267	-0.000332
48107	2.785985	-0.501544	8.991857	0.107241	0.033748	-0.386442	-0.988526	0.030309	0.147979	-0.000242
48108	2.841738	-0.351782	8.874716	0.183299	0.181249	-0.491028	-0.988433	0.030681	0.148524	-0.000304
48109	3.034471	-0.585451	8.751522	0.398544	-0.046853	-0.540209	-0.988445	0.031395	0.148291	-0.000547
48110	2.968913	-0.764611	8.815797	0.330342	-0.211248	-0.487263	-0.988621	0.031819	0.147024	-0.000876
48111	2.751667	-0.800088	9.094068	0.071503	-0.227120	-0.280788	-0.988871	0.031882	0.145316	-0.001127
48112	2.654333	-0.752793	9.362381	-0.064041	-0.165132	-0.053850	-0.989114	0.031755	0.143678	-0.001296
48113	2.531178	-0.713452	9.582709	-0.212656	-0.115600	0.121372	-0.989321	0.031710	0.142256	-0.001372
48114	2.406120	-0.808166	9.644810	-0.328745	-0.209504	0.152900	-0.989431	0.031589	0.141518	-0.001376
48115	2.495223	-0.782363	9.577956	-0.217558	-0.189394	0.111640	-0.989432	0.031482	0.141536	-0.001017
48116	2.721048	-0.589583	9.438658	0.036133	-0.006105	0.027975	-0.989404	0.031376	0.141757	-0.000426
48117	2.796753	-0.500048	9.314314	0.139971	0.075215	-0.076001	-0.989384	0.031491	0.141872	0.000011
48118	2.767326	-0.718066	9.224896	0.133456	-0.148939	-0.156993	-0.989394	0.031414	0.141820	0.000461
48119	2.840296	-0.618807	9.306778	0.186168	-0.054817	-0.064425	-0.989476	0.030568	0.141427	0.000945
48120	2.742757	-0.352712	9.498561	0.051885	0.201387	0.078040	-0.989588	0.029490	0.140873	0.001226
48121	2.832769	-0.251412	9.596597	0.124785	0.291259	0.191414	-0.989695	0.028899	0.140238	0.001439
48122	2.822088	-0.240531	9.686159	0.104817	0.296496	0.274175	-0.989817	0.028491	0.139456	0.001518
48123	2.791659	-0.230547	9.748881	0.074775	0.303719	0.325820	-0.989933	0.028312	0.138667	0.001447
48124	2.546833	-0.265989	9.846819	-0.176551	0.269991	0.356526	-0.989978	0.028214	0.138370	0.001228
48125	2.528446	-0.277270	9.786856	-0.179121	0.255240	0.294500	-0.989925	0.028236	0.138745	0.000990
48126	2.636778	-0.317358	9.690816	-0.060381	0.213501	0.233008	-0.989820	0.028436	0.139450	0.000809
48127	2.645647	-0.370715	9.556900	-0.028783	0.160647	0.109235	-0.989731	0.028949	0.139981	0.000683
48128	2.599034	-0.520824	9.390579	-0.039576	0.011812	-0.055255	-0.989655	0.029492	0.140402	0.000766
48129	2.686046	-0.619349	9.275350	0.066406	-0.087300	-0.137021	-0.989599	0.029537	0.140785	0.001138
48130	2.792291	-0.422605	9.319626	0.151686	0.104491	-0.076314	-0.989577	0.028814	0.141085	0.001589
48131	2.563175	0.049804	9.330133	-0.075233	0.559704	-0.153249	-0.989519	0.027984	0.141649	0.001935
48132	2.468066	-0.008759	9.192394	-0.144161	0.483898	-0.308132	-0.989388	0.027870	0.142582	0.002213
48133	2.851166	-0.006166	8.781911	0.320825	0.468210	-0.596996	-0.989262	0.028297	0.143369	0.002494
48134	2.754262	-0.214171	8.832390	0.202573	0.269841	-0.564494	-0.989230	0.028660	0.143518	0.002434
48135	2.746510	-0.320173	8.840534	0.190741	0.167658	-0.553294	-0.989240	0.028601	0.143464	0.002183
48136	2.666975	-0.149307	8.860286	0.111723	0.335418	-0.565270	-0.989261	0.028126	0.143419	0.001605
48137	2.764163	-0.020992	8.849247	0.214729	0.462724	-0.555799	-0.989335	0.028288	0.142885	0.000668
48138	2.695372	-0.311130	8.845387	0.164701	0.188756	-0.563912	-0.989491	0.029574	0.141534	-0.000561
48139	2.898921	-0.978014	8.863516	0.384350	-0.444503	-0.454448	-0.989738	0.031141	0.139446	-0.001668
48140	2.948705	-1.405660	9.151253	0.402321	-0.835981	-0.140295	-0.990137	0.031198	0.136560	-0.002490
48141	2.739747	-1.113023	9.655722	0.129316	-0.531507	0.270882	-0.990603	0.029523	0.133513	-0.002980
48142	2.199032	-0.473189	10.045057	-0.432849	0.090867	0.471615	-0.991005	0.028087	0.130805	-0.003259
48143	1.989641	-0.541191	10.125968	-0.609667	0.010614	0.503071	-0.991228	0.028138	0.129085	-0.003515
48144	1.997439	-0.996300	9.940394	-0.529609	-0.443661	0.351782	-0.991308	0.029024	0.128272	-0.003479
48145	2.193755	-0.986260	9.932633	-0.331402	-0.412328	0.393320	-0.991261	0.030078	0.128415	-0.002732
48146	2.289406	-0.881998	10.009667	-0.272179	-0.289547	0.485602	-0.991104	0.030523	0.129534	-0.001426
48147	2.394927	-0.518193	9.776697	-0.138027	0.069053	0.265214	-0.990893	0.031133	0.131000	0.000041
48148	2.693212	-0.545215	9.483512	0.195743	0.038068	0.058878	-0.990692	0.031962	0.132308	0.001195
48149	2.928160	-0.724273	9.197144	0.474188	-0.145665	-0.146248	-0.990587	0.032567	0.132942	0.001918
48150	3.238644	-0.825544	9.163491	0.781465	-0.243664	-0.093128	-0.990673	0.032628	0.132269	0.002526
48151	3.227456	-0.540078	9.420328	0.740958	0.052520	0.132097	-0.991022	0.032401	0.129677	0.003240
48152	2.648705	-0.352749	9.763730	0.160562	0.258669	0.305482	-0.991477	0.032804	0.126023	0.003962
48153	2.081828	-0.323020	10.013178	-0.377663	0.319769	0.407721	-0.991847	0.034160	0.122683	0.004579
48154	1.597992	-0.579051	10.049426	-0.808153	0.100295	0.346861	-0.991992	0.036156	0.120914	0.005020
48155	1.656916	-0.856002	10.102541	-0.754619	-0.135943	0.431892	-0.991878	0.037778	0.121325	0.005538
48156	2.102931	-0.681410	9.847217	-0.278934	0.041938	0.275655	-0.991651	0.038523	0.122907	0.006189
48157	2.595830	-0.352115	9.492749	0.259137	0.355139	0.025058	-0.991428	0.039229	0.124429	0.006930
48158	2.672600	-0.272448	9.404075	0.332521	0.443362	-0.048137	-0.991261	0.040350	0.125362	0.007591
48159	2.371935	-0.344991	9.302995	0.044715	0.386270	-0.213753	-0.991078	0.041629	0.126355	0.008156
48160	2.248472	-0.329733	9.003891	-0.025287	0.399351	-0.535070	-0.990838	0.042733	0.127825	0.008644
48161	2.208830	-0.028545	8.737033	-0.021436	0.696284	-0.827695	-0.990533	0.043771	0.129800	0.009017
48162	1.841056	-0.122768	8.215928	-0.288046	0.585826	-1.417472	-0.990130	0.045699	0.132185	0.009031
48163	1.902288	-0.384647	7.547759	-0.105639	0.299856	-2.025903	-0.989698	0.048055	0.134578	0.008772
48164	2.111609	-0.647292	6.899292	0.224560	0.011407	-2.572011	-0.989344	0.050263	0.136389	0.008398
48165	2.293628	-0.888167	6.363431	0.517339	-0.252846	-3.014806	-0.989193	0.052019	0.136855	0.007920
48166	1.979262	-0.848925	6.085731	0.292337	-0.220493	-3.367522	-0.989275	0.053227	0.135831	0.007181
48167	1.467852	-1.061598	5.750965	-0.097575	-0.452206	-3.800942	-0.989559	0.054148	0.133419	0.006287
48168	1.162728	-1.081933	5.623662	-0.325466	-0.477968	-3.997743	-0.989980	0.054528	0.130136	0.005565
48169	1.752450	-1.408720	5.449962	0.330683	-0.819582	-3.983769	-0.990660	0.054245	0.124986	0.005432
48170	1.643662	-1.205681	5.673356	0.250976	-0.605177	-3.819996	-0.991641	0.052864	0.117569	0.005554
48171	1.274732	-0.677340	5.939890	-0.054249	-0.070534	-3.700652	-0.992784	0.051467	0.108163	0.005622
48172	0.714270	-0.303311	6.225457	-0.529239	0.322059	-3.569835	-0.993873	0.051619	0.097583	0.005361
48173	-0.648262	-0.530032	6.439747	-1.780502	0.136533	-3.569205	-0.994701	0.054231	0.087215	0.004644
48174	-0.620599	-1.668947	6.234313	-1.616224	-0.981186	-3.611003	-0.995303	0.057486	0.077783	0.004122
48175	-0.136041	-2.441813	5.988978	-1.002241	-1.749286	-3.665872	-0.995887	0.058609	0.068959	0.004233
48176	-0.064719	-2.400838	6.178780	-0.841496	-1.693286	-3.459035	-0.996647	0.056469	0.058992	0.005087
48177	-0.356888	-1.831538	6.518539	-1.022721	-1.125084	-3.205165	-0.997467	0.052916	0.047114	0.006256
48178	-0.950393	-1.727317	7.034896	-1.484581	-1.002544	-2.730011	-0.998149	0.050374	0.033211	0.007665
48179	-1.714914	-1.464980	7.722102	-2.073070	-0.684919	-2.070168	-0.998571	0.049337	0.018143	0.009596
48180	-2.397827	-1.967140	8.119452	-2.545132	-1.130296	-1.579564	-0.998696	0.049421	0.003156	0.012427
48181	-2.794961	-1.562625	8.869042	-2.688687	-0.625819	-0.796743	-0.998575	0.049614	-0.011049	0.016243
48182	-2.947953	-1.075602	8.949632	-2.580144	-0.093517	-0.687337	-0.998199	0.051019	-0.024437	0.019966
48183	-2.991265	-1.512538	8.861382	-2.410693	-0.476245	-0.663032	-0.997578	0.054198	-0.037167	0.022800
48184	-3.052133	-1.918989	8.825193	-2.261988	-0.808846	-0.587392	-0.996767	0.057431	-0.050031	0.025560
48185	-2.450856	-2.463141	8.744075	-1.455699	-1.334506	-0.613401	-0.995719	0.059248	-0.064696	0.029130
48186	-3.135108	-2.004255	9.162473	-1.761090	-0.751119	-0.111031	-0.994255	0.059861	-0.082054	0.033764
48187	-4.644779	-1.097341	9.739459	-2.731299	0.373903	0.676406	-0.992237	0.061321	-0.100991	0.038803
48188	-5.625085	-0.931120	9.784376	-3.269087	0.722638	1.004801	-0.989795	0.065642	-0.119022	0.042780
48189	-5.620992	-1.438211	9.219979	-3.065397	0.298789	0.635883	-0.987037	0.073017	-0.135521	0.045403
48190	-4.684226	-2.483723	9.189988	-1.901143	-0.667324	0.603357	-0.983830	0.081011	-0.152091	0.048828
48191	-4.735614	-2.940007	9.426582	-1.544755	-0.923488	0.989040	-0.980142	0.085741	-0.170239	0.054668
48192	-5.966867	-1.950457	9.855242	-2.062736	0.369894	1.681924	-0.976277	0.086046	-0.188788	0.061954
48193	-6.629910	-0.544791	10.047434	-2.046868	1.913393	1.906410	-0.972474	0.085114	-0.205835	0.068422
48194	-7.208818	0.009961	9.737734	-2.246393	2.541372	1.818038	-0.968901	0.085536	-0.220627	0.072381
48195	-6.913063	-0.753308	8.813659	-2.141896	1.670050	1.080154	-0.965574	0.088357	-0.233461	0.073185
48196	-6.015846	-1.973821	8.513869	-1.321484	0.343368	0.708716	-0.961766	0.092725	-0.247057	0.073291
48197	-5.268452	-2.909155	8.584986	-0.400638	-0.626920	0.644710	-0.956781	0.095813	-0.263881	0.075874
48198	-6.518859	-2.960343	8.821249	-0.947488	-0.362956	1.502312	-0.951082	0.095036	-0.282620	0.080855
48199	-8.034454	-2.308828	8.861929	-1.675060	0.569838	2.240107	-0.945455	0.090970	-0.300575	0.086570
48200	-9.375447	-2.091702	8.707987	-2.395968	1.005002	2.889227	-0.940431	0.086293	-0.315793	0.091751
48201	-8.638723	-2.473267	8.642921	-1.540141	0.407711	2.552449	-0.935564	0.081779	-0.329342	0.097808
48202	-8.509413	-2.472626	8.520497	-1.188599	0.313935	2.418519	-0.930367	0.076435	-0.342679	0.105573
48203	-8.283352	-1.675254	8.126715	-0.847662	0.938650	1.843036	-0.925086	0.070096	-0.355374	0.114070
48204	-8.499804	-0.968796	7.606271	-0.937150	1.585359	1.485152	-0.919865	0.064202	-0.367319	0.121664
48205	-8.653701	-0.839911	7.789049	-0.584776	1.690014	1.722227	-0.914226	0.059206	-0.379784	0.128255
48206	-8.501615	-1.227972	8.116451	0.018211	1.199237	1.943677	-0.907582	0.053862	-0.393951	0.134896
48207	-7.436488	-1.359387	8.508875	1.340576	0.648332	1.470887	-0.899799	0.047378	-0.409839	0.141950
48208	-7.715464	-0.538995	9.067170	2.182301	1.336111	1.826276	-0.891001	0.040482	-0.427142	0.148421
48209	-7.970051	0.149324	8.977435	2.564763	1.911254	1.758369	-0.882466	0.036062	-0.443967	0.151150
48210	-8.121086	-0.045627	8.679285	2.622477	1.687602	1.656557	-0.874387	0.036224	-0.460204	0.149489
48211	-8.591640	-1.086568	8.382838	2.316635	0.828104	1.985618	-0.866235	0.040359	-0.476422	0.145018
48212	-8.775822	-2.254844	7.976593	2.069817	-0.196653	2.077895	-0.857962	0.044867	-0.492206	0.140074
48213	-9.318115	-2.351755	7.777680	2.053271	-0.130187	2.377580	-0.850002	0.047541	-0.506819	0.135538
48214	-9.246112	-2.300965	7.262505	2.026298	-0.112777	1.994071	-0.842858	0.048270	-0.519672	0.131158
48215	-9.103505	-2.645787	6.959162	2.082796	-0.532629	1.749052	-0.836499	0.048045	-0.530952	0.126697
48216	-8.691774	-3.232151	6.725588	2.227295	-1.273533	1.351424	-0.830311	0.046608	-0.541524	0.123134
48217	-8.829035	-3.191767	6.522911	2.258098	-1.280691	1.320242	-0.824247	0.044033	-0.551419	0.120896
48218	-8.930621	-3.251622	6.274785	2.223027	-1.393493	1.269412	-0.818279	0.041010	-0.560654	0.120020
48219	-8.957257	-3.342702	6.236784	2.387030	-1.565223	1.239501	-0.812024	0.037207	-0.569665	0.121301
48220	-9.485285	-3.256230	6.214648	2.423650	-1.449564	1.642253	-0.805560	0.031875	-0.578219	0.125378
48221	-10.071851	-2.860929	5.971258	2.277856	-1.008874	1.980231	-0.799472	0.024698	-0.585478	0.132102
48222	-10.450491	-2.429561	5.601518	2.057813	-0.568719	2.100834	-0.794130	0.015916	-0.590953	0.140989
48223	-10.424092	-2.072475	5.068635	1.744677	-0.261589	1.829222	-0.789542	0.005902	-0.594659	0.151558
48224	-10.192720	-1.875979	4.585960	1.463930	-0.142943	1.424634	-0.785299	-0.004991	-0.597142	0.163409
48225	-9.501670	-2.486173	4.528517	1.439946	-0.968352	0.862446	-0.780666	-0.016975	-0.599021	0.177334
48226	-10.641074	-1.995187	5.885390	2.602351	-0.658910	2.214079	-0.776151	-0.031254	-0.598777	0.195139
48227	-11.032368	-1.473007	9.048166	5.454744	-1.148162	3.403561	-0.776041	-0.045617	-0.590663	0.216328
48228	-7.640021	2.558370	8.411376	6.929080	1.560858	-0.581704	-0.778953	-0.056050	-0.578943	0.234341
48229	-6.629179	3.040388	6.640059	5.674863	2.215986	-2.056120	-0.781759	-0.060480	-0.570981	0.243260
48230	-7.135276	1.337285	4.871258	3.187008	1.527399	-1.816485	-0.783660	-0.062818	-0.566656	0.246639
48231	-7.569143	1.195914	3.994530	2.222681	1.864028	-1.672456	-0.784620	-0.064265	-0.565512	0.245838
48232	-8.475106	0.152631	3.557937	1.138648	1.379184	-0.795433	-0.785221	-0.063947	-0.566465	0.241778
48233	-9.004623	-1.167628	3.180761	0.092028	0.493157	-0.204774	-0.785764	-0.062803	-0.567916	0.236859
48234	-9.294708	-1.883182	2.872189	-0.553611	0.025003	0.080755	-0.786125	-0.062573	-0.568807	0.233561
48235	-9.679757	-1.343581	2.953233	-0.339980	0.550642	0.375817	-0.786469	-0.063562	-0.568624	0.232581
48236	-9.335858	-0.601590	3.007357	0.093900	1.064981	-0.044308	-0.787319	-0.064558	-0.567539	0.232081
48237	-9.010149	-0.318129	3.010424	0.263329	1.203897	-0.387840	-0.788727	-0.065151	-0.566145	0.230533
48238	-8.869823	-0.441621	2.904823	0.106844	1.072500	-0.531261	-0.790511	-0.065332	-0.564811	0.227624
48239	-8.570239	-0.892289	2.766170	-0.177470	0.608409	-0.785230	-0.792176	-0.065524	-0.563925	0.223945
48240	-8.979481	-1.188613	2.835534	-0.385307	0.389301	-0.337256	-0.793450	-0.066474	-0.563488	0.220226
48241	-9.069545	-1.258826	2.954848	-0.362973	0.250584	-0.201366	-0.794353	-0.068112	-0.563378	0.216726
48242	-9.199693	-1.235230	3.091850	-0.290977	0.191111	-0.035262	-0.795049	-0.070159	-0.563440	0.213331
48243	-9.172807	-1.228176	3.286109	-0.131120	0.050577	0.007044	-0.795621	-0.072282	-0.563655	0.209895
48244	-8.982173	-1.430151	3.409993	-0.070475	-0.294402	-0.103890	-0.796070	-0.074295	-0.564061	0.206367
48245	-9.026110	-1.653883	3.565979	-0.046497	-0.613899	0.012927	-0.796192	-0.076554	-0.564772	0.203103
48246	-9.494879	-1.511546	3.793446	0.078721	-0.532043	0.509036	-0.796259	-0.078979	-0.565411	0.200112
48247	-9.704871	-1.341104	3.850902	0.135634	-0.422746	0.704681	-0.796541	-0.080733	-0.565860	0.196996
48248	-9.873084	-1.397273	3.839229	0.046306	-0.491083	0.860940	-0.797244	-0.081315	-0.565949	0.193629
48249	-9.857933	-1.581113	3.723435	-0.140117	-0.659558	0.821596	-0.798341	-0.080750	-0.565610	0.190307
48250	-9.806931	-1.726128	3.562929	-0.344144	-0.764447	0.729941	-0.799687	-0.079339	-0.564866	0.187437
48251	-9.653400	-1.723495	3.411291	-0.455607	-0.741051	0.533262	-0.801076	-0.077459	-0.563875	0.185261
48252	-9.422498	-1.586049	3.286478	-0.467504	-0.605688	0.262752	-0.802313	-0.075273	-0.562924	0.183696
48253	-9.207114	-1.487401	3.170217	-0.485779	-0.498714	0.013239	-0.803290	-0.073040	-0.562205	0.182527
48254	-9.093827	-1.409090	3.132328	-0.466485	-0.414005	-0.111881	-0.803984	-0.071025	-0.561733	0.181718
48255	-9.087598	-1.366786	3.155976	-0.433053	-0.361306	-0.112450	-0.804411	-0.069374	-0.561459	0.181312
48256	-9.086281	-1.295254	3.173771	-0.393132	-0.280042	-0.113306	-0.804724	-0.068078	-0.561180	0.181275
48257	-9.069377	-1.271695	3.251552	-0.315602	-0.267285	-0.103294	-0.805009	-0.067294	-0.560749	0.181638
48258	-9.016763	-1.272130	3.301018	-0.264881	-0.278909	-0.134409	-0.805231	-0.067172	-0.560178	0.182463
48259	-9.066963	-1.274314	3.401711	-0.203691	-0.291785	-0.051607	-0.805348	-0.067779	-0.559531	0.183700
48260	-9.150805	-1.148966	3.561260	-0.055810	-0.203773	0.071405	-0.805413	-0.068851	-0.558790	0.185265
48261	-9.125129	-0.925170	3.651790	0.101019	-0.029058	0.058909	-0.805527	-0.069748	-0.558048	0.186666
48262	-9.064620	-0.909471	3.609876	0.074067	-0.008499	-0.013703	-0.805814	-0.070015	-0.557318	0.187507
48263	-9.022748	-0.984994	3.613107	0.047971	-0.077833	-0.044046	-0.806180	-0.069548	-0.556756	0.187777
48264	-9.250572	-1.137835	3.593232	-0.104988	-0.145849	0.174642	-0.806508	-0.068556	-0.556409	0.187761
48265	-9.356352	-1.279837	3.544935	-0.238178	-0.219586	0.269024	-0.806782	-0.067597	-0.556113	0.187808
48266	-9.408646	-1.258067	3.558238	-0.238003	-0.173860	0.320402	-0.806971	-0.066802	-0.555795	0.188222
48267	-9.355859	-1.220813	3.473793	-0.285530	-0.103574	0.237060	-0.807126	-0.066063	-0.555391	0.189007
48268	-9.477744	-1.104213	3.421592	-0.329867	0.072803	0.318454	-0.807365	-0.065258	-0.554819	0.189947
48269	-9.319906	-1.124069	3.279613	-0.421094	0.091800	0.121809	-0.807635	-0.064315	-0.554166	0.191022
48270	-9.145079	-1.108231	3.189329	-0.445216	0.125570	-0.075214	-0.807686	-0.063297	-0.553742	0.192368
48271	-9.071841	-1.165420	3.132978	-0.492058	0.105593	-0.157704	-0.807455	-0.062524	-0.553587	0.194032
48272	-9.115074	-1.122898	3.176211	-0.444898	0.170663	-0.106676	-0.807010	-0.062300	-0.553501	0.196190
48273	-8.995540	-0.949848	3.298480	-0.227176	0.285551	-0.191424	-0.806408	-0.062656	-0.553411	0.198787
48274	-8.821468	-0.694072	3.470180	0.084259	0.438674	-0.318340	-0.805695	-0.063371	-0.553418	0.201417
48275	-8.830244	-0.478665	3.624645	0.312297	0.597444	-0.279277	-0.805023	-0.064076	-0.553574	0.203441
48276	-8.913369	-0.394635	3.640485	0.345971	0.695787	-0.207835	-0.804578	-0.064333	-0.553816	0.204459
48277	-8.998284	-0.583892	3.625266	0.240125	0.555787	-0.112892	-0.804403	-0.063978	-0.554082	0.204538
48278	-9.114152	-0.922183	3.542770	0.003939	0.310625	0.004283	-0.804405	-0.063457	-0.554266	0.204196
48279	-9.153040	-1.126667	3.439914	-0.176199	0.171903	0.027025	-0.804436	-0.063215	-0.554318	0.204003
48280	-9.168370	-1.260258	3.361260	-0.302960	0.080898	0.028400	-0.804409	-0.063514	-0.554222	0.204277
48281	-9.157405	-1.262082	3.416066	-0.255342	0.055192	0.038819	-0.804210	-0.064476	-0.554078	0.205148
48282	-9.095433	-1.079197	3.513641	-0.081047	0.165174	-0.004355	-0.803876	-0.065923	-0.553953	0.206336
48283	-9.132578	-0.912328	3.694177	0.130891	0.252756	0.076814	-0.803498	-0.067460	-0.553925	0.207383
48284	-9.204027	-0.805084	3.798808	0.242209	0.318446	0.168952	-0.803326	-0.068706	-0.553790	0.207998
48285	-9.357412	-0.884714	3.756198	0.119009	0.288109	0.304412	-0.803529	-0.069636	-0.553320	0.208156
48286	-9.625258	-0.889365	3.841896	0.093604	0.311987	0.583974	-0.804045	-0.070470	-0.552467	0.208148
48287	-9.642372	-0.841346	3.784800	0.033160	0.370969	0.573319	-0.804742	-0.071183	-0.551400	0.208044
48288	-9.509964	-0.817558	3.702179	-0.017565	0.381132	0.418065	-0.805560	-0.071580	-0.550314	0.207615
48289	-9.253956	-0.962605	3.574599	-0.138508	0.225907	0.150735	-0.806439	-0.071558	-0.549305	0.206880
48290	-8.999295	-1.188332	3.451471	-0.285987	0.001740	-0.105460	-0.807338	-0.071088	-0.548301	0.206197
48291	-9.030966	-1.197036	3.348799	-0.413598	0.046186	-0.115656	-0.808319	-0.070468	-0.547034	0.205934
48292	-9.026211	-1.057521	3.319621	-0.410749	0.195663	-0.148134	-0.809389	-0.070027	-0.545444	0.206096
48293	-9.342896	-0.739106	3.353866	-0.387422	0.569032	0.117587	-0.810591	-0.069798	-0.543552	0.206449
48294	-9.572073	-0.285723	3.469582	-0.220112	1.013785	0.319823	-0.812029	-0.069566	-0.541428	0.206458
48295	-9.509969	-0.206939	3.326744	-0.341736	1.130866	0.194992	-0.813737	-0.068903	-0.539284	0.205565
48296	-9.463715	-0.429658	3.155276	-0.619921	0.983806	0.104461	-0.815639	-0.067945	-0.537193	0.203814
48297	-9.335374	-0.890530	3.064097	-0.897049	0.565668	-0.004220	-0.817457	-0.067080	-0.535273	0.201859
48298	-9.298957	-1.235766	3.127047	-1.019319	0.218461	0.020381	-0.818908	-0.067022	-0.533536	0.200591
48299	-9.468447	-1.367035	3.437594	-0.912518	0.031591	0.311712	-0.819979	-0.068205	-0.531766	0.200516
48300	-9.505271	-1.390536	3.685235	-0.776567	-0.073431	0.446746	-0.820902	-0.070649	-0.529495	0.201901
48301	-9.396990	-1.113353	3.957454	-0.460796	0.048953	0.433738	-0.821947	-0.073977	-0.526394	0.204550
48302	-9.257049	-0.788462	4.102439	-0.233096	0.250967	0.337520	-0.823265	-0.077380	-0.522604	0.207682
48303	-9.055201	-0.658472	4.118036	-0.176669	0.311187	0.150234	-0.824738	-0.080197	-0.518642	0.210681
48304	-8.904703	-0.529207	4.236279	-0.049149	0.355894	0.055963	-0.826139	-0.082251	-0.514862	0.213650
48305	-8.764173	-0.304305	4.208123	0.006915	0.551796	-0.101527	-0.827496	-0.083312	-0.511294	0.216534
48306	-8.571591	-0.379197	4.121291	-0.090928	0.497166	-0.307685	-0.828936	-0.083817	-0.507695	0.219285
48307	-8.133230	-0.333854	4.051709	-0.022020	0.476736	-0.732540	-0.830239	-0.084446	-0.504204	0.222147
48308	-7.802335	-0.132091	4.086919	0.171483	0.579186	-1.024533	-0.831259	-0.085222	-0.501127	0.224986
48309	-7.581549	0.078784	4.241905	0.436397	0.666619	-1.161393	-0.831899	-0.085996	-0.498830	0.227412
48310	-7.711658	0.166822	4.383479	0.508117	0.742038	-0.986390	-0.832364	-0.086734	-0.497186	0.229027
48311	-7.878025	0.182604	4.533047	0.543300	0.751150	-0.769144	-0.832822	-0.087572	-0.496006	0.229603
48312	-8.136088	0.030753	4.642408	0.434746	0.644063	-0.477540	-0.833275	-0.088301	-0.495376	0.229037
48313	-8.223457	-0.312496	4.733952	0.295786	0.316926	-0.328741	-0.833617	-0.088913	-0.495265	0.227794
48314	-8.304940	-0.679337	4.900238	0.217606	-0.069128	-0.148647	-0.833594	-0.089748	-0.495771	0.226445
48315	-8.307777	-0.916237	5.079960	0.253008	-0.377103	-0.042411	-0.833213	-0.091103	-0.496615	0.225456
48316	-8.317756	-0.846377	5.332001	0.492834	-0.446762	0.081201	-0.832517	-0.092857	-0.497670	0.224985
48317	-8.206086	-0.467618	5.434354	0.811469	-0.221069	0.004810	-0.831929	-0.094150	-0.498753	0.224222
48318	-8.090981	-0.310991	5.385992	0.908303	-0.124845	-0.131317	-0.831789	-0.094242	-0.499850	0.222250
48319	-8.032026	-0.499911	5.172578	0.689671	-0.240923	-0.274070	-0.832151	-0.092916	-0.500887	0.219096
48320	-7.969558	-0.954683	4.890791	0.296569	-0.557107	-0.434693	-0.832768	-0.090716	-0.501800	0.215560
48321	-7.953991	-1.262908	4.710887	0.034702	-0.767620	-0.514144	-0.833318	-0.088779	-0.502503	0.212579
48322	-8.054382	-1.210185	4.509110	-0.133405	-0.623141	-0.524868	-0.833714	-0.087795	-0.502918	0.210442
48323	-8.175147	-0.978812	4.421322	-0.146741	-0.363705	-0.475378	-0.833972	-0.087732	-0.503181	0.208811
48324	-8.208977	-0.913722	4.367293	-0.173424	-0.297219	-0.475826	-0.833999	-0.088287	-0.503656	0.207323
48325	-8.294875	-0.989583	4.355332	-0.243128	-0.370331	-0.402228	-0.833642	-0.089507	-0.504626	0.205869
48326	-8.511715	-1.085242	4.449949	-0.278199	-0.479884	-0.162756	-0.832846	-0.091372	-0.506120	0.204600
48327	-8.601570	-1.177885	4.655518	-0.162322	-0.670557	0.014413	-0.831625	-0.093946	-0.507981	0.203789
48328	-8.780970	-1.014922	4.963107	0.118638	-0.658079	0.302662	-0.830149	-0.097013	-0.510008	0.203306
48329	-8.965576	-0.809952	5.152015	0.321928	-0.567789	0.538853	-0.828813	-0.099849	-0.511836	0.202787
48330	-9.001402	-0.844648	5.273550	0.420343	-0.695294	0.622282	-0.827799	-0.101847	-0.513400	0.201983
48331	-8.927669	-0.963864	5.262216	0.413635	-0.859972	0.551308	-0.826996	-0.103053	-0.514831	0.201016
48332	-8.965807	-1.107457	5.186092	0.299756	-0.983641	0.553131	-0.826326	-0.103681	-0.516114	0.200154
48333	-9.005406	-1.246304	5.033640	0.121770	-1.062439	0.523874	-0.825756	-0.104173	-0.517025	0.199900
48334	-8.868167	-1.302596	4.985490	0.124527	-1.139788	0.379546	-0.825123	-0.105203	-0.517570	0.200561
48335	-8.957288	-1.240978	5.046874	0.175805	-1.105501	0.482501	-0.824247	-0.107157	-0.517909	0.202250
48336	-9.160498	-0.883181	5.195720	0.382484	-0.820461	0.716830	-0.823354	-0.109625	-0.517936	0.204483
48337	-9.248094	-0.493291	5.224611	0.547937	-0.482256	0.795532	-0.822821	-0.111218	-0.517724	0.206297
48338	-9.031346	-0.452420	5.079053	0.526448	-0.434721	0.536252	-0.822819	-0.111111	-0.517379	0.207225
48339	-8.720056	-0.694022	4.780766	0.288916	-0.578589	0.135100	-0.823138	-0.109632	-0.517121	0.207392
48340	-8.561105	-0.772446	4.601424	0.170175	-0.582887	-0.081629	-0.823475	-0.107622	-0.517106	0.207140
48341	-8.542410	-0.794073	4.420916	0.028734	-0.505227	-0.174655	-0.823769	-0.105480	-0.517300	0.206588
48342	-8.573465	-0.987426	4.293579	-0.162714	-0.595532	-0.193283	-0.823885	-0.103721	-0.517661	0.206113
48343	-8.490811	-1.274743	4.250733	-0.284108	-0.838497	-0.273098	-0.823706	-0.103020	-0.518049	0.206203
48344	-8.448261	-1.445325	4.300856	-0.294140	-1.016672	-0.281723	-0.823092	-0.103771	-0.518451	0.207265
48345	-8.377649	-1.419520	4.426241	-0.146158	-1.066667	-0.292578	-0.822038	-0.105668	-0.518904	0.209347
48346	-8.388478	-1.327147	4.748011	0.160803	-1.122550	-0.149071	-0.820703	-0.108036	-0.519346	0.212262
48347	-8.481286	-1.240449	4.947632	0.333537	-1.116358	0.015460	-0.819398	-0.110488	-0.519435	0.215795
48348	-8.552542	-1.034726	5.078054	0.506077	-0.975219	0.126935	-0.818458	-0.112555	-0.518831	0.219710
48349	-8.604920	-0.684962	5.085894	0.648139	-0.647022	0.164353	-0.818052	-0.113594	-0.517618	0.223517
48350	-8.670247	-0.416327	4.964362	0.642127	-0.314267	0.161287	-0.818104	-0.113273	-0.516259	0.226608
48351	-8.650616	-0.521790	4.753195	0.416615	-0.276799	0.058882	-0.818380	-0.111901	-0.515153	0.228801
48352	-8.579376	-0.878227	4.507083	0.066077	-0.451059	-0.092464	-0.818485	-0.110194	-0.514487	0.230742
48353	-8.576633	-1.224162	4.353396	-0.223327	-0.638629	-0.140493	-0.818210	-0.108935	-0.514053	0.233270
48354	-8.715150	-1.258687	4.388791	-0.255605	-0.599030	0.004402	-0.817536	-0.108279	-0.513650	0.236800
48355	-8.942237	-1.166803	4.401486	-0.273714	-0.411562	0.209964	-0.816659	-0.108061	-0.512921	0.241459
48356	-9.088613	-0.971734	4.430629	-0.201417	-0.156030	0.341739	-0.815755	-0.108159	-0.511639	0.247126
48357	-9.129654	-0.814442	4.369598	-0.187177	0.081702	0.339416	-0.814811	-0.108799	-0.509808	0.253657
48358	-8.897524	-0.744201	4.333695	-0.107648	0.150813	0.110318	-0.813605	-0.110280	-0.507703	0.261001
48359	-8.557404	-0.680161	4.257391	-0.025642	0.187917	-0.232448	-0.811971	-0.112695	-0.505559	0.269097
48360	-8.395601	-0.497839	4.308046	0.162188	0.307488	-0.369582	-0.809923	-0.115743	-0.503506	0.277688
48361	-8.297245	-0.243003	4.408052	0.414498	0.472689	-0.435112	-0.807751	-0.118667	-0.501500	0.286276
48362	-8.277481	0.049958	4.479907	0.650545	0.702523	-0.449360	-0.805641	-0.121061	-0.499557	0.294500
48363	-8.322364	0.244707	4.593806	0.846705	0.852402	-0.379710	-0.803647	-0.122854	-0.497829	0.302034
48364	-8.247193	0.343865	4.564042	0.923910	0.953449	-0.474480	-0.801800	-0.124150	-0.496353	0.308767
48365	-8.106405	0.411820	4.564268	1.027545	0.987477	-0.610250	-0.800086	-0.125007	-0.495211	0.314644
48366	-7.942048	0.401680	4.461637	1.019763	1.002181	-0.807174	-0.798481	-0.125258	-0.494586	0.319568
48367	-7.926939	0.198959	4.413718	0.888550	0.897697	-0.825958	-0.796934	-0.124935	-0.494531	0.323615
48368	-8.319175	0.056957	4.544489	0.807892	0.906514	-0.411111	-0.795355	-0.124220	-0.494840	0.327281
48369	-8.862941	-0.067707	4.705508	0.721771	0.978476	0.148210	-0.793756	-0.123484	-0.495074	0.331066
48370	-9.192385	-0.052826	4.880942	0.798958	1.069478	0.509325	-0.792123	-0.123001	-0.494889	0.335406
48371	-9.212565	0.045176	4.948990	0.937482	1.157099	0.538541	-0.790445	-0.123040	-0.494168	0.340376
48372	-8.988866	0.242977	4.946765	1.151470	1.253862	0.308133	-0.788921	-0.123334	-0.492848	0.345677
48373	-8.864308	0.535517	4.965794	1.410088	1.446291	0.159352	-0.787606	-0.123477	-0.491331	0.350748
48374	-9.071060	0.822141	5.037020	1.610903	1.746311	0.320762	-0.786703	-0.123016	-0.489868	0.354957
48375	-9.471803	1.117997	5.050029	1.725794	2.173769	0.616305	-0.786371	-0.121772	-0.488595	0.357864
48376	-9.573053	1.309749	4.910549	1.737162	2.486854	0.592589	-0.786897	-0.119447	-0.487533	0.358938
48377	-9.387472	1.209518	4.534256	1.452985	2.596006	0.251920	-0.788115	-0.116086	-0.487122	0.357925
48378	-8.960119	0.625301	4.151124	0.897249	2.241598	-0.217032	-0.789597	-0.112326	-0.487598	0.355200
48379	-8.565878	-0.042121	3.774664	0.291124	1.809526	-0.633091	-0.790842	-0.109167	-0.488801	0.351746
48380	-8.217804	-0.446812	3.472648	-0.089044	1.519639	-1.010757	-0.791681	-0.106999	-0.490415	0.348261
48381	-8.023747	-0.650129	3.275510	-0.296151	1.370764	-1.235661	-0.791990	-0.105789	-0.492367	0.345159
48382	-7.882543	-0.813550	3.249093	-0.364751	1.174977	-1.336885	-0.791766	-0.105638	-0.494373	0.342844
48383	-7.776813	-0.751552	3.296285	-0.241036	1.114136	-1.409738	-0.790961	-0.106976	-0.496341	0.341442
48384	-7.925800	-0.549538	3.402876	-0.054401	1.221427	-1.256714	-0.789772	-0.110052	-0.498147	0.340585
48385	-8.167067	-0.156291	3.633229	0.314971	1.421575	-0.991972	-0.788507	-0.114609	-0.499904	0.339436
48386	-8.598307	0.223501	3.798429	0.574888	1.694705	-0.582019	-0.787434	-0.119708	-0.502149	0.336845
48387	-8.914970	0.391471	3.872791	0.661859	1.782236	-0.272645	-0.786750	-0.124288	-0.505447	0.331813
48388	-8.890540	0.119641	3.816952	0.465807	1.452488	-0.257775	-0.786396	-0.127855	-0.510221	0.323898
48389	-8.735999	-0.466449	3.721931	0.092807	0.832775	-0.342579	-0.786047	-0.130701	-0.516593	0.313335
48390	-8.680367	-1.234780	3.678151	-0.350803	0.050528	-0.311500	-0.785541	-0.132920	-0.524176	0.300827
48391	-8.973181	-2.091914	3.676399	-0.869442	-0.740320	0.041291	-0.784881	-0.134528	-0.532056	0.287716
48392	-9.410660	-2.913458	3.599586	-1.430834	-1.444596	0.476466	-0.784260	-0.135778	-0.538913	0.275815
48393	-10.075321	-3.308415	3.567005	-1.770534	-1.763306	1.092990	-0.783979	-0.137195	-0.543613	0.266531
48394	-10.416174	-3.347232	3.459290	-1.920056	-1.815088	1.353530	-0.784097	-0.139554	-0.545804	0.260411
48395	-10.487444	-3.094793	3.343421	-1.892431	-1.656196	1.341564	-0.784341	-0.143288	-0.546055	0.257103
48396	-10.418993	-2.633887	3.173951	-1.787608	-1.306633	1.171982	-0.784480	-0.148159	-0.545281	0.255556
48397	-10.212774	-2.147505	3.085255	-1.576107	-0.998846	0.908724	-0.784516	-0.153037	-0.544507	0.254218
48398	-9.829254	-1.974382	2.950706	-1.515163	-0.957778	0.483206	-0.784578	-0.156476	-0.544477	0.251986
48399	-9.565120	-2.132056	2.790406	-1.666275	-1.135491	0.175173	-0.784569	-0.157657	-0.545666	0.248685
48400	-9.496809	-2.630978	2.700864	-1.975166	-1.574132	0.088149	-0.784173	-0.157136	-0.547847	0.245446
48401	-9.797422	-2.615671	2.865436	-1.868458	-1.626484	0.429624	-0.783101	-0.156099	-0.550619	0.243321
48402	-10.266640	-2.483218	2.950984	-1.789796	-1.489729	0.904380	-0.781639	-0.155337	-0.553213	0.242624
48403	-10.767969	-2.295378	3.163469	-1.592827	-1.350745	1.450689	-0.780135	-0.155387	-0.554938	0.243489
48404	-10.739749	-1.887188	3.118951	-1.355377	-0.986591	1.404310	-0.778866	-0.155893	-0.555589	0.245736
48405	-10.348870	-1.550230	3.078847	-1.074266	-0.742131	1.016749	-0.777742	-0.156159	-0.555772	0.248695
48406	-9.933753	-1.366111	2.975830	-0.921737	-0.587479	0.589541	-0.776524	-0.155874	-0.556164	0.251782
48407	-9.593152	-1.220179	2.941110	-0.748598	-0.482119	0.255800	-0.775199	-0.155119	-0.556865	0.254765
48408	-9.451929	-1.092273	2.901745	-0.630870	-0.346315	0.108699	-0.773762	-0.153936	-0.557920	0.257529
48409	-9.460336	-1.169911	2.884563	-0.643902	-0.358034	0.119292	-0.772210	-0.152773	-0.559085	0.260339
48410	-9.421015	-1.159427	2.953611	-0.525947	-0.356569	0.107975	-0.770342	-0.152279	-0.560207	0.263728
48411	-9.455798	-0.946793	3.033351	-0.302112	-0.184236	0.156481	-0.768339	-0.152594	-0.560984	0.267706
48412	-9.460497	-0.775483	3.009825	-0.182855	-0.002239	0.143608	-0.766461	-0.153495	-0.561271	0.271941
48413	-9.407486	-0.771704	3.002519	-0.145716	0.018374	0.091341	-0.764685	-0.154825	-0.561189	0.276319
48414	-9.233407	-0.795441	3.058116	-0.056232	-0.050094	-0.053853	-0.762798	-0.156420	-0.561022	0.280938
48415	-9.057530	-0.749212	3.199258	0.140961	-0.114476	-0.179289	-0.760707	-0.158085	-0.560941	0.285796
48416	-9.127966	-0.547566	3.327031	0.374996	0.010391	-0.089113	-0.758659	-0.159518	-0.560851	0.290579
48417	-8.894899	-0.447784	3.329216	0.511573	0.050054	-0.318526	-0.756879	-0.160361	-0.560735	0.294949
48418	-8.865631	-0.418263	3.428187	0.636220	0.034678	-0.319494	-0.755314	-0.160729	-0.560632	0.298928
48419	-8.930795	-0.386921	3.508065	0.728269	0.058250	-0.237645	-0.753939	-0.160871	-0.560479	0.302589
48420	-8.886975	-0.338274	3.492524	0.775778	0.121415	-0.290408	-0.752841	-0.160980	-0.560097	0.305954
48421	-8.876840	-0.162733	3.477092	0.891505	0.288748	-0.323920	-0.752093	-0.161103	-0.559418	0.308955
48422	-8.833251	-0.007170	3.458393	0.989964	0.429792	-0.388141	-0.751755	-0.161225	-0.558567	0.311245
48423	-8.904132	0.099712	3.410118	1.005386	0.577120	-0.348095	-0.751909	-0.161431	-0.557611	0.312479
48424	-8.992793	0.010735	3.346665	0.868691	0.581013	-0.274429	-0.752474	-0.161838	-0.556711	0.312512
48425	-9.208369	-0.206801	3.323522	0.645074	0.487059	-0.054143	-0.753335	-0.162670	-0.555812	0.311606
48426	-9.440357	-0.377855	3.298781	0.438550	0.419204	0.176148	-0.754375	-0.163876	-0.554950	0.309989
48427	-9.556179	-0.724382	3.156771	0.045089	0.244952	0.274343	-0.755624	-0.165326	-0.553973	0.307917
48428	-9.549416	-1.057852	3.035576	-0.306093	0.029077	0.258573	-0.756954	-0.166774	-0.552879	0.305830
48429	-9.264154	-1.421228	2.962508	-0.583370	-0.313012	-0.005426	-0.757948	-0.168316	-0.551901	0.304285
48430	-9.323257	-1.493814	3.136381	-0.549952	-0.485932	0.109648	-0.758334	-0.170312	-0.551098	0.303668
48431	-9.503920	-1.187673	3.410769	-0.217361	-0.399166	0.344166	-0.758427	-0.172664	-0.550173	0.303786
48432	-9.543313	-0.779761	3.626712	0.164956	-0.235773	0.422201	-0.758799	-0.174717	-0.548927	0.303937
48433	-9.250410	-0.662833	3.572471	0.223309	-0.208064	0.121026	-0.759826	-0.175837	-0.547400	0.303477
48434	-8.999021	-0.777658	3.456264	0.072508	-0.294578	-0.146216	-0.761487	-0.175921	-0.545744	0.302247
48435	-8.921093	-0.955734	3.372636	-0.133973	-0.395703	-0.236713	-0.763475	-0.175414	-0.544081	0.300519
48436	-9.159872	-1.092388	3.278876	-0.393772	-0.375110	-0.037638	-0.765657	-0.174908	-0.542210	0.298639
48437	-9.267047	-1.106704	3.204901	-0.536647	-0.309074	0.035690	-0.767923	-0.174474	-0.540150	0.296801
48438	-9.258936	-1.101002	3.120050	-0.650396	-0.251343	-0.005121	-0.770203	-0.173955	-0.538073	0.294964
48439	-9.078985	-1.025196	3.115874	-0.614530	-0.231810	-0.181692	-0.772429	-0.172968	-0.536337	0.292880
48440	-8.905812	-0.939146	3.148995	-0.538240	-0.222006	-0.337852	-0.774810	-0.171226	-0.534923	0.290188
48441	-8.832936	-0.924273	3.115793	-0.575396	-0.198612	-0.420534	-0.777512	-0.168556	-0.533736	0.286689
48442	-8.822594	-0.892628	3.011183	-0.668642	-0.100712	-0.472196	-0.780590	-0.164881	-0.532645	0.282458
48443	-8.835840	-0.814850	2.882216	-0.757802	0.056653	-0.514001	-0.783987	-0.160175	-0.531767	0.277368
48444	-8.845040	-0.921048	2.643093	-1.039775	0.125389	-0.594661	-0.787555	-0.154744	-0.531184	0.271395
48445	-9.136333	-0.985999	2.409628	-1.372086	0.284689	-0.416555	-0.791078	-0.149132	-0.530832	0.264901
48446	-9.416500	-1.071784	2.286409	-1.631059	0.350881	-0.207309	-0.794359	-0.143680	-0.530771	0.258133
48447	-9.888852	-1.140659	2.217262	-1.894616	0.435371	0.198681	-0.797193	-0.138989	-0.530962	0.251485
48448	-10.614656	-1.247853	2.499581	-1.981369	0.359437	0.977160	-0.799505	-0.135355	-0.531394	0.245134
48449	-10.643895	-1.692957	2.691663	-2.092432	-0.139815	1.096285	-0.800915	-0.132926	-0.532244	0.239963
48450	-10.018771	-2.061951	2.964625	-1.867884	-0.773124	0.643389	-0.801087	-0.132218	-0.533566	0.236824
48451	-9.275161	-2.137758	3.273099	-1.400196	-1.196145	0.082778	-0.800015	-0.132696	-0.535667	0.235434
48452	-9.209789	-2.095341	3.801345	-0.886867	-1.457167	0.224775	-0.797854	-0.133797	-0.538461	0.235768
48453	-9.455105	-1.672921	4.374377	-0.211837	-1.332776	0.652068	-0.795007	-0.134358	-0.541677	0.237693
48454	-9.555212	-1.141322	4.639622	0.335430	-0.983374	0.819838	-0.792054	-0.134260	-0.544623	0.240853
48455	-9.199085	-0.818353	4.645079	0.694429	-0.773906	0.472638	-0.789487	-0.133505	-0.546953	0.244396
48456	-8.804496	-0.795738	4.521372	0.781711	-0.754504	0.057188	-0.787371	-0.132778	-0.548344	0.248468
48457	-8.460305	-0.615946	4.574112	1.055503	-0.674606	-0.257098	-0.785566	-0.132766	-0.548636	0.253491
48458	-8.162951	0.135660	4.858843	1.794843	-0.226280	-0.485965	-0.783947	-0.133304	-0.548040	0.259441
48459	-8.133001	1.502973	5.244428	2.888795	0.740154	-0.484476	-0.782656	-0.132862	-0.547462	0.264730
48460	-8.114612	2.194594	5.114786	3.205011	1.414877	-0.617585	-0.782271	-0.130422	-0.547354	0.267293
48461	-8.251315	1.802195	4.580606	2.543474	1.457582	-0.662830	-0.782964	-0.126499	-0.547601	0.266642
48462	-8.609507	1.180935	4.042940	1.681153	1.371489	-0.476947	-0.784378	-0.121825	-0.548028	0.263771
48463	-8.874412	0.419119	3.639230	0.869724	1.061354	-0.310490	-0.785864	-0.116858	-0.548672	0.260232
48464	-9.187167	-0.132140	3.407423	0.305634	0.841787	-0.054108	-0.787147	-0.112370	-0.549144	0.257319
48465	-9.373185	-0.369606	3.339346	0.075076	0.764968	0.114724	-0.788154	-0.109107	-0.549065	0.255806
48466	-9.246760	-0.315509	3.450556	0.222418	0.757670	0.030323	-0.788628	-0.107481	-0.548682	0.255854
48467	-8.933042	0.180737	3.749839	0.807752	0.971990	-0.205608	-0.788412	-0.107256	-0.548650	0.256683
48468	-8.554799	0.481990	4.130539	1.386695	0.946195	-0.449996	-0.787566	-0.107705	-0.549530	0.257208
48469	-8.510510	0.365126	4.721183	1.844665	0.547307	-0.265480	-0.786199	-0.108615	-0.551234	0.257362
48470	-8.420960	0.172668	5.422982	2.374776	0.009615	-0.080718	-0.784474	-0.109799	-0.553082	0.258155
48471	-8.631094	0.320236	6.010649	2.915529	-0.106129	0.297433	-0.782960	-0.110930	-0.554352	0.259541
48472	-8.946163	0.233332	6.747632	3.411649	-0.450542	0.853917	-0.782189	-0.111654	-0.554520	0.261193
48473	-8.997541	0.310057	7.260256	3.845984	-0.601994	1.078091	-0.782690	-0.111335	-0.552923	0.263205
48474	-8.845884	0.529723	7.540230	4.179037	-0.549966	1.032486	-0.784580	-0.110181	-0.549681	0.264849
48475	-8.682951	0.480837	7.724146	4.257890	-0.661088	0.990981	-0.787624	-0.108739	-0.545365	0.265334
48476	-8.779757	0.321955	7.816625	4.111037	-0.743772	1.179667	-0.791223	-0.107790	-0.540447	0.265075
48477	-8.870710	0.073601	7.968924	3.946158	-0.942408	1.400541	-0.794831	-0.107693	-0.535251	0.264861
48478	-9.078849	0.153384	8.372377	4.114734	-0.965749	1.792491	-0.797860	-0.108731	-0.530147	0.265594
48479	-9.527968	0.449272	9.086720	4.567079	-0.890413	2.512063	-0.800438	-0.110123	-0.524972	0.267539
48480	-9.471414	0.922652	9.667943	5.155484	-0.763964	2.711828	-0.802691	-0.111530	-0.519765	0.270355
48481	-10.010216	1.476585	10.380219	5.692559	-0.437417	3.511506	-0.805544	-0.112446	-0.513719	0.273032
48482	-10.358364	1.716844	10.773611	5.818224	-0.252449	4.057886	-0.809844	-0.112631	-0.506067	0.274523
48483	-10.313729	1.740427	11.074425	5.809302	-0.294127	4.265686	-0.815843	-0.112254	-0.496489	0.274404
48484	-10.712064	1.838504	11.144606	5.431863	0.016147	4.775288	-0.823672	-0.111177	-0.484784	0.272375
48485	-11.040440	2.056458	10.944000	4.847197	0.572607	5.088452	-0.833308	-0.108725	-0.470908	0.268372
48486	-11.383477	1.819945	10.628938	3.831575	0.859076	5.366871	-0.844370	-0.104380	-0.455224	0.262517
48487	-11.321566	0.908492	10.379039	2.614620	0.437924	5.341977	-0.856081	-0.099178	-0.437894	0.256002
48488	-11.210809	0.426285	10.128339	1.629575	0.350353	5.208329	-0.867669	-0.094407	-0.419030	0.250302
48489	-11.125810	0.544363	9.862781	0.909659	0.769647	5.016105	-0.879083	-0.090310	-0.398524	0.245429
48490	-11.279065	0.753716	9.498061	0.001203	1.372459	4.886570	-0.890625	-0.086376	-0.376342	0.240193
48491	-11.182672	0.480323	9.206812	-0.984241	1.418337	4.575474	-0.902054	-0.082661	-0.352946	0.234298
48492	-10.639037	0.082476	8.985258	-1.681402	1.132085	3.963301	-0.912711	-0.079747	-0.329280	0.228416
48493	-10.520689	0.182693	8.954274	-2.263888	1.333812	3.750199	-0.922297	-0.078218	-0.305982	0.222766
48494	-10.732347	0.438334	8.648120	-3.145944	1.835060	3.486113	-0.931521	-0.076964	-0.282149	0.216187
48495	-10.330568	0.106622	8.471872	-3.762319	1.526569	2.914379	-0.940302	-0.075699	-0.257923	0.208754
48496	-9.872190	-0.168996	8.344184	-4.230553	1.210726	2.341075	-0.948240	-0.074811	-0.233911	0.201319
48497	-9.297659	0.119024	8.025573	-4.382205	1.402701	1.574441	-0.955426	-0.073377	-0.210029	0.194073
48498	-8.947407	0.175316	7.755341	-4.724211	1.465832	0.945394	-0.961969	-0.069945	-0.186486	0.186942
48499	-8.157939	-0.123284	7.597386	-4.715855	1.049340	0.233384	-0.967769	-0.065126	-0.163669	0.179983
48500	-7.986570	-0.382200	7.471883	-5.149118	0.865418	-0.196179	-0.972798	-0.060292	-0.141519	0.173208
48501	-7.378593	-0.492499	6.945561	-5.190107	0.730779	-1.127180	-0.977248	-0.055700	-0.119279	0.166302
48502	-7.345825	-1.141133	6.694722	-5.816384	0.201224	-1.676702	-0.981112	-0.051859	-0.096273	0.159565
48503	-6.476378	-2.240657	6.393450	-5.777592	-1.038532	-2.507567	-0.984108	-0.051681	-0.071932	0.153903
48504	-5.231267	-2.058178	6.554656	-4.879019	-1.278605	-2.804844	-0.985858	-0.057395	-0.046957	0.150283
48505	-4.141103	-0.521506	6.712122	-3.721664	-0.222159	-2.844253	-0.986398	-0.066693	-0.022681	0.148515
48506	-3.487226	0.719890	6.796477	-3.072822	0.673913	-2.815325	-0.986197	-0.075957	0.000279	0.147128
48507	-2.952628	1.285307	6.882636	-2.733067	0.967303	-2.789540	-0.985647	-0.083913	0.022787	0.144705
48508	-2.093618	1.121674	6.736472	-2.266448	0.532404	-3.060475	-0.984858	-0.090099	0.044462	0.141278
48509	-1.641778	0.653797	6.400530	-2.216836	-0.027784	-3.554326	-0.983613	-0.096358	0.065737	0.137473
48510	-1.039451	1.025657	6.088445	-1.766717	0.160257	-3.808649	-0.982003	-0.102700	0.085965	0.133164
48511	-0.681829	1.756480	5.785492	-1.435142	0.771003	-3.950674	-0.980536	-0.106437	0.104397	0.127758
48512	-0.593919	1.761899	5.261801	-1.439364	0.857553	-4.489786	-0.979720	-0.104560	0.120568	0.121161
48513	-0.358483	0.451036	4.536350	-1.458296	-0.263674	-5.486877	-0.979446	-0.097451	0.134644	0.114282
48514	-0.226543	-1.240699	3.883609	-1.575235	-1.737756	-6.470348	-0.979217	-0.088539	0.146853	0.108299
48515	0.316908	-2.298001	3.475297	-1.194655	-2.771710	-6.923219	-0.978612	-0.082347	0.157498	0.103597
48516	0.582874	-2.079913	3.455378	-0.946071	-2.590794	-6.813026	-0.977660	-0.080025	0.166641	0.100043
48517	1.304777	-1.366209	3.650501	-0.269197	-2.074331	-6.274383	-0.976508	-0.080299	0.174276	0.098042
48518	2.070928	-0.417186	4.249330	0.333440	-1.399649	-5.290608	-0.975543	-0.081287	0.179420	0.097556
48519	2.653662	0.468250	4.884911	0.747343	-0.753987	-4.335783	-0.975151	-0.081327	0.181386	0.097804
48520	2.416524	1.119653	5.693940	0.335672	-0.161982	-3.537723	-0.975449	-0.078977	0.180596	0.098223
48521	2.536490	1.390087	6.436034	0.252124	0.031714	-2.761202	-0.976345	-0.073354	0.177876	0.098638
48522	2.338901	2.340731	7.521642	-0.088236	0.986142	-1.655380	-0.977802	-0.063493	0.173545	0.098765
48523	2.513242	2.914610	8.248467	0.032215	1.657658	-0.863327	-0.979656	-0.046649	0.168361	0.098760
48524	3.055833	2.460644	8.389939	0.556412	1.438946	-0.681015	-0.981621	-0.023514	0.162230	0.097715
48525	2.888182	1.587743	8.541069	0.367229	1.062709	-0.728372	-0.983298	0.004398	0.155026	0.095247
48526	2.667797	0.566388	8.619861	0.140092	0.620221	-0.795615	-0.984230	0.035277	0.146846	0.092106
48527	2.930158	0.836887	8.802335	0.608462	1.426217	-0.629670	-0.984152	0.068713	0.137296	0.088730
48528	2.920899	1.167476	8.848296	0.914067	2.405415	-0.784182	-0.982417	0.108807	0.125550	0.085172
48529	2.207681	-0.194638	8.176796	0.408374	1.769103	-1.541206	-0.978024	0.155814	0.112165	0.081299
48530	1.353826	-2.514320	7.484138	-0.448440	0.258186	-1.822772	-0.970419	0.206506	0.098863	0.076610
48531	1.571175	-3.915794	7.117330	-0.173417	-0.366067	-1.552523	-0.960093	0.256547	0.085896	0.070905
48532	1.704209	-4.734275	6.786164	0.127335	-0.409016	-1.379451	-0.947091	0.305896	0.072317	0.064930
48533	1.673076	-5.551861	6.003376	0.314606	-0.683087	-1.504128	-0.931379	0.354507	0.058027	0.059078
48534	1.672581	-4.632621	5.527864	0.768210	0.493663	-2.469407	-0.911713	0.405250	0.041375	0.053290
48535	1.102616	-4.446430	4.058397	0.544257	0.326540	-3.729694	-0.885656	0.461359	0.022021	0.047710
48536	-0.163633	-6.255105	2.255047	-0.649593	-1.275635	-3.323447	-0.851613	0.522521	0.001165	0.041546
48537	-0.796627	-9.583101	0.566379	-1.272501	-3.151629	-0.808667	-0.812743	0.581291	-0.018782	0.034585
48538	-1.200817	-11.269593	-0.310346	-1.407774	-3.162778	0.974580	-0.773446	0.632217	-0.036160	0.027838
48539	-1.306831	-11.019195	-1.018753	-1.204774	-2.473579	0.978489	-0.735048	0.675806	-0.049972	0.022236
48540	-1.221783	-10.115057	-2.041120	-0.954522	-2.255056	0.280350	-0.697562	0.713744	-0.060737	0.016983
48541	-0.666395	-9.547458	-2.865412	-0.264489	-2.127418	-0.059526	-0.660257	0.747635	-0.070572	0.011026
48542	-0.751414	-8.940100	-3.821695	-0.251454	-2.193266	-0.318226	-0.623088	0.777923	-0.081071	0.005064
48543	-0.816539	-7.441866	-4.518366	-0.338355	-2.286683	-1.383636	-0.581207	0.808397	-0.093225	0.001401
48544	-1.362458	-7.835087	-5.515669	-0.717997	-2.047635	-0.386436	-0.533436	0.839298	-0.105001	-0.000471
48545	-2.300826	-8.973738	-6.608938	-1.310505	-1.235282	1.417563	-0.485161	0.866822	-0.114994	-0.003816
48546	-2.374425	-8.623557	-7.128673	-1.208317	-0.655598	1.537184	-0.440647	0.889116	-0.123331	-0.009627
48547	-1.778483	-7.663234	-7.857015	-0.609013	-0.852029	1.252133	-0.397866	0.908009	-0.130241	-0.016131
48548	-0.738739	-5.674898	-8.682246	0.117345	-1.975740	0.391387	-0.351447	0.925812	-0.137490	-0.021283
48549	-1.024540	-4.178140	-9.675422	-0.376474	-2.546599	0.452204	-0.296762	0.943494	-0.145589	-0.023557
48550	-1.516416	-4.660635	-10.551689	-0.491081	-1.208143	1.739989	-0.233678	0.959868	-0.152987	-0.025380
48551	-2.795417	-7.294337	-11.047295	-0.607488	2.685392	3.425918	-0.174379	0.971545	-0.157828	-0.027985
48552	-2.321288	-8.184861	-10.773602	0.418285	4.767138	3.049255	-0.131014	0.978007	-0.159215	-0.031438
48553	-0.774892	-6.808668	-10.369186	1.625854	4.003615	1.839282	-0.104266	0.981372	-0.157739	-0.033991
48554	0.144380	-3.517352	-9.685574	1.529353	1.311842	0.293309	-0.086139	0.983454	-0.155521	-0.034811
48555	-0.323765	-1.699177	-9.415027	0.564773	0.157884	-0.258600	-0.067873	0.985089	-0.154179	-0.034966
48556	-1.093640	-1.406723	-9.512215	-0.190170	0.467268	-0.148860	-0.047303	0.986459	-0.152895	-0.035826
48557	-1.435480	-2.502932	-9.989952	-0.072550	1.952554	0.399670	-0.027119	0.987495	-0.150493	-0.038328
48558	-1.088891	-2.824659	-10.525049	0.485965	2.466999	0.846124	-0.012649	0.988208	-0.146627	-0.042247
48559	-0.634400	-1.844268	-10.963122	0.764452	1.600899	1.180218	-0.005470	0.988731	-0.142254	-0.046318
48560	-0.409776	-0.639596	-11.102190	0.731506	0.477923	1.281072	-0.002751	0.989163	-0.138306	-0.049205
48561	-0.837066	-0.045347	-11.270036	0.230708	0.045655	1.486028	-0.002437	0.989443	-0.135535	-0.051250
48562	-0.800377	-0.063478	-11.398349	0.315637	0.040734	1.609469	-0.003092	0.989647	-0.133641	-0.052248
48563	-0.821436	-0.402944	-11.321582	0.378615	0.341332	1.534350	-0.005314	0.989817	-0.132507	-0.051738
48564	-1.059306	-0.501770	-11.110156	0.122003	0.433509	1.350007	-0.009685	0.990006	-0.131464	-0.050112
48565	-0.968348	-0.498056	-10.865304	0.127474	0.293979	1.102242	-0.016791	0.990171	-0.130316	-0.047920
48566	-1.052641	-0.654913	-10.568814	-0.010010	0.310419	0.823889	-0.026197	0.990230	-0.129161	-0.045554
48567	-1.536523	-2.622986	-10.831353	-0.022020	2.052965	1.247785	-0.041463	0.989944	-0.127748	-0.044401
48568	-1.644353	-4.110367	-11.858327	0.242798	2.904088	2.503289	-0.069700	0.988694	-0.125111	-0.044425
48569	-1.297768	-3.915721	-12.068923	0.420052	1.760772	2.809279	-0.109094	0.985619	-0.121343	-0.043939
48570	-1.129846	-4.097009	-12.160561	0.463821	0.770549	3.032784	-0.156381	0.979820	-0.117012	-0.042495
48571	-1.451580	-4.002507	-12.029592	-0.093795	-0.480816	2.932671	-0.208552	0.970845	-0.111402	-0.039431
48572	-0.895834	-1.645642	-10.680232	-0.361570	-3.319410	0.498625	-0.258736	0.959637	-0.104645	-0.034677
48573	-0.663676	-3.529714	-9.459728	0.055174	-2.098542	0.082484	-0.300034	0.948416	-0.098352	-0.028511
48574	-1.223399	-5.924716	-8.780043	-0.221182	-0.529012	0.831414	-0.337922	0.936288	-0.093159	-0.022230
48575	-1.863142	-7.503037	-8.323436	-0.770987	0.156953	1.516276	-0.378249	0.921412	-0.087438	-0.016792
48576	-1.239195	-6.664087	-8.189700	-0.519611	-1.422275	0.705477	-0.423212	0.902351	-0.080608	-0.012511
48577	-0.133770	-6.062452	-7.337570	0.321036	-2.246393	-0.571900	-0.466043	0.881641	-0.073919	-0.007020
48578	0.035612	-6.250837	-5.857749	0.409070	-1.732637	-1.435847	-0.503618	0.861204	-0.068529	0.000893
48579	-0.932950	-8.018592	-4.873541	-0.481750	-0.626744	-0.418792	-0.537700	0.840670	-0.063771	0.009249
48580	-1.647357	-9.614939	-4.614576	-1.243373	-0.471028	0.893058	-0.573623	0.816925	-0.057828	0.015681
48581	-1.641208	-10.219082	-4.343625	-1.401262	-1.032148	1.271142	-0.614332	0.787259	-0.049335	0.019643
48582	-0.747728	-9.597779	-4.009351	-0.744473	-2.093987	0.370163	-0.658505	0.751225	-0.038682	0.023143
48583	-0.095446	-7.687826	-2.766077	-0.258204	-2.205364	-1.954335	-0.701331	0.711714	-0.026536	0.029911
48584	-0.149809	-7.442673	-0.973047	-0.399109	-1.253630	-2.425175	-0.737628	0.673860	-0.014263	0.040185
48585	-0.315697	-8.530715	-0.314030	-0.832518	-1.484123	-1.445595	-0.770263	0.635722	-0.002133	0.050466
48586	0.161901	-9.551145	0.038620	-0.706089	-2.292509	-0.571454	-0.803538	0.592264	0.010144	0.058714
48587	-0.378730	-10.161627	0.392554	-1.588182	-3.187327	-0.287378	-0.838552	0.540365	0.023874	0.065320
48588	0.039121	-9.173307	1.323772	-1.304743	-3.175305	-1.212117	-0.873634	0.479656	0.039753	0.071508
48589	0.334188	-6.890603	2.152193	-0.913469	-2.398482	-3.064880	-0.906092	0.411875	0.057502	0.077779
48590	0.957956	-4.323689	3.489510	-0.113688	-0.690612	-4.223602	-0.932494	0.342934	0.075244	0.084786
48591	1.674345	-2.564662	4.439582	0.637158	0.403594	-4.476735	-0.952418	0.275625	0.092277	0.091735
48592	2.559685	-0.684760	6.248472	1.448017	2.082688	-3.522556	-0.966237	0.213249	0.106202	0.098139
48593	2.407610	-0.811381	7.194008	0.855351	1.591695	-2.404901	-0.975336	0.155555	0.118140	0.102789
48594	1.965316	-1.846940	7.129101	-0.071781	-0.167972	-2.197099	-0.980957	0.097931	0.130968	0.104789
48595	2.311352	0.791044	7.655544	0.443627	1.548092	-1.944691	-0.983000	0.039430	0.144380	0.106349
48596	3.263716	4.964376	9.193131	1.508431	4.682651	-0.039986	-0.981909	-0.010253	0.154187	0.109437
48597	3.462407	5.265934	10.229867	1.163979	4.102999	1.417679	-0.979729	-0.044333	0.159679	0.112557
48598	2.592365	2.432735	10.042505	-0.381270	0.919306	0.792559	-0.977084	-0.071109	0.165794	0.112977
48599	2.332491	2.649616	10.074490	-0.820836	0.651634	0.809431	-0.973480	-0.096934	0.174290	0.112088
48600	3.383520	4.282107	10.050190	0.185647	1.449532	1.528811	-0.969408	-0.119319	0.182961	0.111962
48601	3.650844	4.237218	9.430998	0.401719	1.044477	1.094162	-0.965661	-0.136427	0.190937	0.111491
48602	3.498651	3.017077	8.880785	0.077449	-0.226801	0.194654	-0.962475	-0.149263	0.197961	0.110333
48603	3.309519	2.048952	8.410562	-0.211893	-1.188993	-0.624433	-0.959168	-0.162232	0.204326	0.109218
48604	3.668261	3.831182	8.302797	0.266436	0.147446	0.034690	-0.955696	-0.175683	0.209208	0.109601
48605	4.332175	5.125638	8.171726	0.973046	0.943769	0.674188	-0.952919	-0.186546	0.212237	0.110008
48606	4.795810	5.328830	8.229667	1.314742	0.801349	0.992466	-0.951551	-0.193137	0.212970	0.109051
48607	4.283176	4.629051	8.455383	0.658607	0.146922	0.714016	-0.951396	-0.196849	0.211275	0.107046
48608	3.228474	4.418502	8.849061	-0.449056	0.074299	0.581765	-0.951786	-0.198784	0.208561	0.105315
48609	2.609642	4.533963	9.139962	-1.080914	0.232400	0.660303	-0.952146	-0.198962	0.207198	0.104412
48610	2.863968	4.097222	8.957143	-0.815775	-0.152994	0.411350	-0.952351	-0.197309	0.207756	0.104570
48611	3.229199	4.076445	8.648877	-0.372818	-0.128730	0.271579	-0.952370	-0.194886	0.209400	0.105650
48612	3.762994	4.380643	8.411925	0.227230	0.130579	0.387390	-0.952669	-0.191343	0.210606	0.107028
48613	3.986546	4.429379	8.155024	0.550940	0.275319	0.268792	-0.953564	-0.186183	0.210571	0.108217
48614	4.050567	4.242324	7.963666	0.703283	0.250416	0.049658	-0.954957	-0.180160	0.209101	0.108982
48615	3.500540	4.050066	7.964956	0.244767	0.346883	-0.225433	-0.956702	-0.173332	0.206743	0.109246
48616	2.902708	3.247540	7.901253	-0.314510	-0.077843	-0.796282	-0.958296	-0.166225	0.205127	0.109367
48617	2.601815	2.606530	7.575132	-0.503154	-0.383945	-1.413598	-0.959271	-0.160495	0.204937	0.109732
48618	3.033899	2.685158	7.259364	0.038912	-0.263134	-1.503546	-0.959841	-0.156150	0.205319	0.110303
48619	3.210788	3.322201	7.211048	0.325667	0.362185	-1.262386	-0.960604	-0.151466	0.204718	0.111308
48620	3.369099	3.386533	6.994173	0.609020	0.516948	-1.380682	-0.961897	-0.145158	0.202560	0.112481
48621	3.335966	3.136432	6.972564	0.623403	0.406495	-1.504456	-0.963814	-0.136939	0.198453	0.113700
48622	2.663565	1.451753	6.817162	-0.101597	-0.840542	-2.399358	-0.965738	-0.129162	0.193395	0.115179
48623	2.072706	1.085400	6.946826	-0.669683	-0.972528	-2.578210	-0.966951	-0.124681	0.189337	0.116666
48624	1.890475	1.707009	7.145260	-0.741604	-0.332751	-2.270706	-0.967709	-0.121897	0.186339	0.118142
48625	1.939101	1.777251	6.820377	-0.513732	-0.180513	-2.523000	-0.968383	-0.119046	0.184039	0.119129
48626	2.096143	1.617839	6.543511	-0.251928	-0.278154	-2.763749	-0.969297	-0.115134	0.181236	0.119838
48627	1.892673	1.422445	6.474646	-0.385463	-0.337099	-2.937840	-0.970679	-0.109637	0.176429	0.120977
48628	1.678847	0.642857	6.318505	-0.588900	-0.924220	-3.335560	-0.972278	-0.103727	0.169733	0.122911
48629	1.424822	0.843813	6.462575	-0.727845	-0.631748	-3.211405	-0.973760	-0.098932	0.162081	0.125433
48630	1.392591	1.021728	6.486843	-0.619677	-0.416405	-3.141561	-0.974998	-0.095253	0.154668	0.128001
48631	1.427809	1.511435	6.629245	-0.415196	0.048545	-2.877698	-0.976165	-0.091954	0.147122	0.130391
48632	1.142551	1.888762	6.730593	-0.501652	0.509027	-2.765606	-0.977548	-0.087470	0.138649	0.132383
48633	0.669923	1.479268	6.892742	-0.941394	0.286167	-2.800089	-0.979136	-0.081511	0.128892	0.134295
48634	0.941375	1.136051	6.978483	-0.631609	-0.061762	-2.708436	-0.980797	-0.075147	0.117662	0.136181
48635	0.634916	0.005265	6.888260	-1.003241	-0.983756	-3.039638	-0.982311	-0.070194	0.105246	0.138063
48636	0.096552	0.070505	7.232678	-1.386490	-0.779816	-2.756318	-0.983478	-0.067669	0.092071	0.140406
48637	-0.682019	1.196801	7.726660	-1.718917	0.471171	-2.169520	-0.984497	-0.065140	0.078390	0.142746
48638	-1.566193	1.388302	7.941865	-2.318592	0.924349	-1.988478	-0.985570	-0.059259	0.064738	0.144737
48639	-1.694843	0.269408	7.708130	-2.498613	-0.000059	-2.321860	-0.986492	-0.051654	0.051752	0.146585
48640	-1.298040	-0.992358	7.531620	-2.250845	-1.226199	-2.544889	-0.986976	-0.046087	0.038065	0.149353
48641	-1.709172	-0.480085	7.965470	-2.305978	-0.618325	-2.009143	-0.986956	-0.043839	0.022631	0.153244
48642	-1.867767	0.506171	8.449560	-1.925107	0.319858	-1.367297	-0.986474	-0.043352	0.006284	0.157959
48643	-2.702903	1.225967	8.760547	-2.209265	1.210532	-0.913169	-0.985717	-0.043033	-0.010232	0.162495
48644	-3.786472	0.805469	8.779431	-3.078016	1.141466	-0.797137	-0.984949	-0.041883	-0.025333	0.165766
48645	-4.190293	0.214599	8.737648	-3.384150	0.720152	-0.758760	-0.983949	-0.040328	-0.039284	0.169336
48646	-4.031788	0.824006	9.014105	-2.729052	1.225339	-0.366469	-0.982454	-0.038253	-0.054357	0.174256
48647	-3.413175	1.335076	8.943412	-1.662384	1.518009	-0.413788	-0.980611	-0.035449	-0.071063	0.179151
48648	-3.521396	1.711706	8.879054	-1.292357	1.924471	-0.390184	-0.978732	-0.032279	-0.088801	0.182087
48649	-3.847779	1.455107	8.818970	-1.340949	1.812220	-0.346760	-0.976937	-0.028282	-0.107234	0.182468
48650	-4.852575	0.603164	8.878276	-2.180144	1.374946	-0.010704	-0.974836	-0.023933	-0.126332	0.182106
48651	-5.677134	-0.224817	9.168003	-2.747561	0.857517	0.581169	-0.972144	-0.020764	-0.146412	0.181848
48652	-5.742968	-1.005856	9.461178	-2.571869	0.074212	0.997944	-0.968694	-0.020822	-0.166902	0.182599
48653	-6.164217	-0.340084	9.878781	-2.121215	0.689048	1.620180	-0.964570	-0.024187	-0.186755	0.184776
48654	-6.625289	0.589748	10.042001	-1.678320	1.545515	2.013576	-0.960254	-0.028442	-0.205214	0.187057
48655	-7.424002	1.096702	10.225433	-1.666269	2.117913	2.580839	-0.956191	-0.031436	-0.222084	0.188122
48656	-8.132647	0.642947	9.944230	-2.132362	1.854423	2.734836	-0.952375	-0.032973	-0.238103	0.187621
48657	-7.958309	-0.204105	9.328371	-2.187198	1.001370	2.212052	-0.948569	-0.032764	-0.254483	0.185425
48658	-6.131224	-1.379676	9.325444	-0.746076	-0.779344	1.380103	-0.943251	-0.031841	-0.273847	0.185127
48659	-6.915691	-1.181852	9.872814	-0.505490	-0.515385	2.276510	-0.935830	-0.033053	-0.296203	0.188132
48660	-8.440805	0.219034	10.033420	-0.469060	1.127169	3.242725	-0.928040	-0.035846	-0.317756	0.191020
48661	-9.471331	0.967966	9.881031	-0.456608	2.047649	3.746498	-0.921282	-0.036814	-0.336691	0.191109
48662	-9.962713	0.005612	9.308054	-1.011908	1.338567	3.717330	-0.915613	-0.034691	-0.353283	0.188788
48663	-8.883599	-1.755566	8.486339	-1.014942	-0.525562	2.544354	-0.909831	-0.031925	-0.369473	0.186220
48664	-5.907544	-3.372432	9.093649	1.170593	-3.140207	1.037187	-0.901381	-0.031896	-0.388573	0.188431
48665	-6.868664	-1.665256	10.154301	2.420322	-1.611897	2.211292	-0.889211	-0.037047	-0.410979	0.197551
48666	-8.042687	1.176789	10.342006	3.550887	1.117471	2.802026	-0.876480	-0.042566	-0.432293	0.207591
48667	-8.458722	2.562398	10.074248	4.272509	2.402534	2.659340	-0.865851	-0.043586	-0.450747	0.212670
48668	-8.462385	1.793871	9.173126	3.742478	1.879433	2.079454	-0.858352	-0.040126	-0.466190	0.210449
48669	-8.472003	-0.774674	8.010153	2.158374	-0.163258	1.669606	-0.853124	-0.036343	-0.479202	0.203036
48670	-8.373551	-3.193059	7.926369	1.531812	-2.466876	1.793215	-0.847639	-0.036658	-0.491576	0.196259
48671	-8.934552	-3.706042	8.343051	1.751581	-3.057962	2.464770	-0.840338	-0.042906	-0.504031	0.194793
48672	-9.232091	-2.777272	8.523190	2.404057	-2.417450	2.595113	-0.831958	-0.052868	-0.515514	0.198235
48673	-9.250348	-1.206256	8.593023	3.303920	-1.267684	2.366403	-0.824013	-0.063104	-0.525101	0.203197
48674	-9.178678	-0.695946	8.562415	3.717178	-1.054167	2.150238	-0.817531	-0.070566	-0.533014	0.206298
48675	-9.068358	-1.969265	8.201439	3.090470	-2.289000	1.959409	-0.812221	-0.075729	-0.539584	0.208353
48676	-8.914121	-3.009879	8.427556	3.031749	-3.481283	1.944464	-0.806114	-0.080957	-0.546063	0.213170
48677	-9.744509	-2.190658	8.607581	3.413304	-2.723952	2.628043	-0.799535	-0.086609	-0.551356	0.221921
48678	-9.223470	-0.387043	8.776068	4.629018	-1.430041	1.967259	-0.793949	-0.091501	-0.554382	0.232233
48679	-9.591175	1.619569	9.788598	6.397907	-0.051892	2.414089	-0.791593	-0.092613	-0.555031	0.238209
48680	-9.617702	-0.388628	8.220708	4.102079	-1.116619	2.110255	-0.792921	-0.091809	-0.551817	0.241546
48681	-8.941770	-0.829955	6.937746	2.883435	-1.095617	1.107896	-0.796187	-0.093116	-0.544935	0.245889
48682	-8.280153	-1.134479	5.745853	1.770059	-0.994718	0.123991	-0.799282	-0.095373	-0.537204	0.251922
48683	-8.012642	-0.994763	4.977634	1.149469	-0.573899	-0.414993	-0.800847	-0.098212	-0.530584	0.259768
48684	-7.886180	-0.508213	4.483718	0.948264	0.061753	-0.776636	-0.800901	-0.101487	-0.525522	0.268486
48685	-8.205475	0.057028	4.239876	0.915460	0.780994	-0.655097	-0.800104	-0.104450	-0.522211	0.276077
48686	-8.391247	0.068354	3.914560	0.593050	1.027805	-0.629369	-0.799350	-0.106512	-0.520090	0.281426
48687	-8.409873	-0.006053	3.792989	0.438390	1.051324	-0.657621	-0.799150	-0.107612	-0.518457	0.284572
48688	-8.412560	0.063098	3.761486	0.439322	1.142009	-0.678866	-0.799459	-0.107360	-0.517479	0.285578
48689	-8.051079	0.145725	3.924267	0.715400	1.026036	-0.942714	-0.799763	-0.105572	-0.517951	0.284536
48690	-8.307715	0.028103	4.156803	0.771398	0.925254	-0.601462	-0.799880	-0.102348	-0.520004	0.281626
48691	-8.712338	-0.111988	4.135164	0.587660	0.974856	-0.235570	-0.800583	-0.098032	-0.522216	0.277032
48692	-8.985203	-0.479692	3.939576	0.170308	0.869655	-0.030106	-0.802272	-0.092958	-0.523596	0.271229
48693	-8.954803	-1.063952	3.635624	-0.376666	0.522205	-0.110954	-0.804706	-0.087840	-0.523848	0.265170
48694	-8.817238	-1.300425	3.360894	-0.698126	0.404175	-0.321660	-0.807348	-0.083603	-0.523300	0.259533
48695	-8.712579	-1.238563	3.290310	-0.720164	0.453938	-0.456169	-0.809773	-0.080071	-0.522669	0.254309
48696	-8.673951	-1.388979	3.215934	-0.866970	0.339392	-0.504515	-0.811667	-0.076985	-0.522453	0.249626
48697	-8.890349	-1.480606	3.343809	-0.889521	0.272443	-0.244716	-0.812888	-0.074626	-0.522723	0.245772
48698	-9.113873	-1.559274	3.550066	-0.830840	0.185694	0.055047	-0.813412	-0.073076	-0.523420	0.243004
48699	-9.225980	-1.450091	3.817389	-0.587792	0.202943	0.257428	-0.813497	-0.072415	-0.524151	0.241339
48700	-9.191409	-1.195142	3.952222	-0.336944	0.351981	0.251754	-0.813524	-0.072176	-0.524657	0.240218
48701	-8.961702	-1.172587	3.995662	-0.210282	0.273503	0.063210	-0.813627	-0.071959	-0.525005	0.239172
48702	-8.893294	-1.295580	4.028779	-0.215959	0.123926	0.033036	-0.813810	-0.071716	-0.525209	0.238171
48703	-8.947022	-1.378197	4.108899	-0.205007	0.031889	0.126560	-0.813901	-0.071573	-0.525387	0.237510
48704	-8.860378	-1.258495	4.127068	-0.104671	0.096844	0.041370	-0.813914	-0.071707	-0.525535	0.237098
48705	-8.667005	-1.088583	4.115065	0.030686	0.182055	-0.158587	-0.813830	-0.071891	-0.525881	0.236561
48706	-8.569159	-1.079092	4.079467	0.045449	0.162376	-0.262372	-0.813686	-0.071846	-0.526550	0.235582
48707	-8.568873	-1.090400	4.052937	0.031912	0.150755	-0.272400	-0.813505	-0.071364	-0.527500	0.234223
48708	-8.593203	-1.220275	4.180446	0.088873	-0.013300	-0.179400	-0.813254	-0.070654	-0.528673	0.232662
48709	-8.618122	-1.290921	4.299988	0.169876	-0.123124	-0.097527	-0.812955	-0.070122	-0.529871	0.231133
48710	-8.753348	-1.144650	4.299981	0.211351	0.033874	0.004405	-0.812852	-0.069615	-0.530795	0.229527
48711	-8.790691	-1.145262	4.103969	0.046943	0.105000	-0.044515	-0.813122	-0.068767	-0.531326	0.227589
48712	-8.718350	-1.156679	3.891564	-0.106534	0.142207	-0.197064	-0.813552	-0.067609	-0.531774	0.225340
48713	-8.586698	-1.190169	3.747097	-0.190774	0.116469	-0.371361	-0.813777	-0.066361	-0.532651	0.222816
48714	-8.530460	-1.310862	3.806039	-0.156054	-0.043063	-0.381529	-0.813542	-0.065484	-0.534172	0.220276
48715	-8.738528	-1.408327	4.020469	-0.054447	-0.171002	-0.092757	-0.812872	-0.065454	-0.536117	0.218021
48716	-8.986708	-1.441802	4.243421	0.072109	-0.244418	0.226296	-0.812166	-0.066219	-0.537834	0.216187
48717	-9.130372	-1.411524	4.414032	0.206886	-0.275952	0.420624	-0.811751	-0.067209	-0.538957	0.214637
48718	-9.130104	-1.438308	4.435264	0.223197	-0.340036	0.431023	-0.811812	-0.067790	-0.539354	0.213222
48719	-8.981531	-1.551081	4.358110	0.154438	-0.475143	0.277765	-0.812277	-0.067835	-0.539182	0.211866
48720	-8.862241	-1.585414	4.286750	0.107519	-0.524866	0.144321	-0.812821	-0.067785	-0.538815	0.210726
48721	-8.850450	-1.499223	4.260499	0.114967	-0.451179	0.112694	-0.813219	-0.067848	-0.538618	0.209672
48722	-8.924136	-1.396885	4.226834	0.100927	-0.341089	0.153810	-0.813390	-0.067970	-0.538826	0.208432
48723	-9.035579	-1.457756	4.245820	0.059018	-0.389289	0.268913	-0.813445	-0.067872	-0.539333	0.206931
48724	-9.062446	-1.659869	4.241000	-0.030248	-0.577340	0.313265	-0.813529	-0.067575	-0.539752	0.205599
48725	-8.976182	-1.665254	4.254119	0.011525	-0.618521	0.240160	-0.813636	-0.067422	-0.539943	0.204725
48726	-8.887408	-1.323074	4.327848	0.246039	-0.360997	0.151045	-0.813762	-0.066970	-0.540138	0.203856
48727	-8.819724	-1.229809	4.421899	0.394104	-0.322831	0.116744	-0.813883	-0.065562	-0.540667	0.202425
48728	-8.930402	-1.187775	4.415058	0.384064	-0.243273	0.209732	-0.814131	-0.063172	-0.541410	0.200187
48729	-8.790393	-1.198471	4.317700	0.360824	-0.238829	0.044421	-0.814608	-0.059765	-0.542220	0.197079
48730	-8.623891	-1.614995	4.226151	0.200794	-0.607454	-0.095147	-0.815024	-0.055431	-0.543356	0.193461
48731	-8.538835	-2.248629	4.267547	0.063773	-1.191697	-0.078443	-0.815174	-0.050900	-0.544686	0.190309
48732	-8.363305	-2.591263	4.498648	0.241707	-1.584162	-0.100372	-0.814977	-0.047110	-0.545964	0.188460
48733	-8.634439	-2.505809	4.946493	0.617704	-1.523171	0.316404	-0.814737	-0.043636	-0.546919	0.187562
48734	-8.777054	-2.374031	5.184987	0.863331	-1.370947	0.528076	-0.814728	-0.039105	-0.547406	0.187180
48735	-8.844529	-2.455649	5.161080	0.821866	-1.328797	0.601263	-0.815160	-0.032771	-0.547248	0.186977
48736	-8.682227	-2.711480	4.989052	0.661991	-1.440577	0.439568	-0.815910	-0.024871	-0.546738	0.186413
48737	-8.697176	-3.053294	4.834128	0.434869	-1.578443	0.465930	-0.816873	-0.016123	-0.546115	0.184977
48738	-9.157730	-3.646354	4.748945	0.057383	-1.838660	0.972787	-0.817653	-0.006585	-0.545896	0.182752
48739	-9.573669	-4.116189	4.758228	-0.157406	-2.004150	1.465380	-0.817970	0.003607	-0.546024	0.181025
48740	-9.830546	-4.419793	4.605130	-0.397395	-1.999563	1.729471	-0.817806	0.014579	-0.546171	0.180768
48741	-9.736874	-4.571906	4.601801	-0.333008	-1.954574	1.717671	-0.817059	0.026299	-0.546435	0.182020
48742	-9.725756	-4.741428	4.920417	0.001236	-1.915171	1.917917	-0.815852	0.039080	-0.546745	0.184196
48743	-9.759164	-5.183022	5.233209	0.257156	-2.065962	2.235050	-0.814238	0.052757	-0.546944	0.187309
48744	-10.055946	-5.667163	5.425001	0.311002	-2.102189	2.762800	-0.812569	0.066461	-0.546549	0.191305
48745	-10.350123	-5.591494	5.362980	0.252188	-1.553598	3.019378	-0.811250	0.080791	-0.544898	0.196040
48746	-11.018290	-6.229665	5.431305	0.006258	-1.448490	3.883812	-0.809965	0.097478	-0.542221	0.201124
48747	-10.969523	-7.220211	5.118423	-0.438860	-1.828896	4.154997	-0.808269	0.116491	-0.538346	0.208122
48748	-10.607947	-7.197905	4.746226	-0.620019	-1.377609	3.772300	-0.805647	0.136646	-0.533877	0.217338
48749	-10.347986	-6.714674	4.565105	-0.558953	-0.475140	3.318898	-0.801859	0.157290	-0.529747	0.227269
48750	-10.777389	-7.547362	4.600007	-0.771886	-0.318447	4.099224	-0.796998	0.178115	-0.525972	0.237532
48751	-10.952242	-8.314768	4.924756	-0.610116	-0.152432	4.778443	-0.791356	0.198513	-0.521483	0.249809
48752	-10.367040	-7.821060	4.799812	-0.399956	0.602108	4.011837	-0.785181	0.218382	-0.515759	0.264183
48753	-9.614676	-6.573009	4.496512	-0.180222	1.737757	2.547629	-0.778646	0.238175	-0.509268	0.278620
48754	-8.800855	-5.920344	4.038271	-0.192822	2.239738	1.310739	-0.771282	0.258648	-0.503218	0.291543
48755	-8.289782	-6.176523	3.695019	-0.341944	2.228282	0.930415	-0.762713	0.279664	-0.498258	0.302979
48756	-8.639230	-7.350942	3.539471	-0.722616	2.263022	1.828892	-0.753264	0.300877	-0.493842	0.313347
48757	-9.154115	-9.301062	3.345022	-1.305207	2.041500	3.438270	-0.743764	0.321008	-0.488676	0.323982
48758	-8.387246	-9.743642	2.819132	-1.579093	1.745105	3.135568	-0.734676	0.338570	-0.481485	0.337335
48759	-7.118896	-7.884563	2.386816	-1.282442	2.242191	0.762905	-0.725054	0.353906	-0.472909	0.354125
48760	-6.494237	-6.399357	2.211286	-0.999077	2.932654	-0.958422	-0.714148	0.368510	-0.464885	0.371583
48761	-7.511296	-7.237840	2.427145	-1.220849	3.956198	0.063148	-0.703177	0.382969	-0.457715	0.386489
48762	-6.361383	-8.145935	2.063248	-1.380454	2.986048	0.199069	-0.691265	0.398297	-0.450654	0.400528
48763	-4.950991	-7.268612	1.741531	-1.077658	2.435186	-1.253031	-0.677316	0.413992	-0.444134	0.415451
48764	-4.015031	-6.058061	1.418898	-0.833767	2.290559	-2.821298	-0.662181	0.428825	-0.438818	0.430191
48765	-2.628696	-4.969512	1.260892	-0.366702	1.546365	-4.275204	-0.646805	0.442085	-0.434902	0.443919
48766	-3.093555	-5.600121	1.213224	-0.555386	2.101758	-3.674992	-0.632516	0.453106	-0.432878	0.455231
48767	-3.841241	-7.399106	1.356564	-0.803873	2.794808	-1.883176	-0.619893	0.462811	-0.431190	0.464343
48768	-3.495059	-8.765963	1.068464	-1.171157	2.526428	-0.733389	-0.607637	0.472689	-0.426670	0.474653
48769	-1.725162	-7.257884	0.985178	-0.638327	1.262992	-2.422668	-0.595093	0.481634	-0.418890	0.488288
48770	-0.069396	-4.947394	0.887796	-0.062533	0.009526	-4.786515	-0.583066	0.487887	-0.411253	0.502864
48771	-0.282123	-4.685137	1.449931	0.480993	0.473036	-4.946914	-0.571822	0.491968	-0.407370	0.514818
48772	-1.976304	-7.339166	2.062079	0.388514	2.422462	-2.329455	-0.560839	0.497243	-0.406917	0.522138
48773	-2.279557	-10.435851	1.753891	-0.395801	3.025271	0.572975	-0.549588	0.505954	-0.405857	0.526540
48774	0.374397	-9.907533	1.086982	-0.525501	0.587124	0.129583	-0.536043	0.516841	-0.402487	0.532482
48775	2.750941	-7.423607	0.671508	-0.213048	-1.745947	-2.064949	-0.520967	0.525996	-0.398661	0.541287
48776	3.869597	-4.878790	0.751947	0.341756	-2.961841	-4.294621	-0.505921	0.531257	-0.396096	0.552194
48777	3.607022	-3.460031	1.295766	1.007536	-2.771731	-5.574472	-0.492417	0.532955	-0.395451	0.563118
48778	2.441790	-3.806787	1.913544	1.468100	-1.450334	-5.356633	-0.482211	0.533032	-0.395135	0.572029
48779	2.160157	-4.511196	2.344858	1.761659	-0.941774	-4.662465	-0.475134	0.533182	-0.393460	0.578925
48780	2.434356	-4.597070	2.600852	1.977739	-1.115610	-4.458526	-0.470620	0.534155	-0.389696	0.584236
