// General information: 
//  MT Manager version: 2021.0.0 
//  XDA version: 2021.0.0 build 5908 rev 109668 built on 2021-04-19
// Device information: 
//  DeviceId: 00B43DF0
//  ProductCode: MTW2-3A7G6
//  Firmware Version: 4.3.5
//  Hardware Version: 1.1.0
// Device settings: 
//  Filter Profile: human(46.1)
//  Option Flags: Orientation Smoother Disabled, Position/Velocity Smoother Disabled, Continuous Zero Rotation Update Disabled, AHS Disabled, ICC Disabled
// Coordinate system: ENU
PacketCounter	Acc_X	Acc_Y	Acc_Z	FreeAcc_E	FreeAcc_N	FreeAcc_U	Quat_q0	Quat_q1	Quat_q2	Quat_q3
47597	0.538859	0.618700	9.718285	0.032416	0.020393	-0.059906	0.185443	-0.024242	-0.036966	-0.981660
47598	0.517389	0.648474	9.795750	0.063349	0.012873	0.017915	0.185632	-0.024186	-0.037347	-0.981611
47599	0.568670	0.637222	9.826084	0.010173	0.015354	0.050427	0.185884	-0.024148	-0.037831	-0.981546
47600	0.512688	0.624097	9.708819	0.050885	0.047451	-0.070579	0.186120	-0.024054	-0.038348	-0.981484
47601	0.615601	0.760960	9.632317	0.000215	-0.116006	-0.131463	0.186300	-0.023975	-0.038642	-0.981440
47602	0.626172	0.661336	9.575233	-0.050263	-0.030012	-0.194418	0.186421	-0.023848	-0.038632	-0.981420
47603	0.583727	0.579625	9.690861	-0.040036	0.071100	-0.087317	0.186492	-0.023701	-0.038706	-0.981408
47604	0.519758	0.574503	9.783916	0.016280	0.110939	0.001213	0.186542	-0.023515	-0.039102	-0.981387
47605	0.562103	0.592325	9.826935	-0.021338	0.092862	0.047656	0.186601	-0.023284	-0.039842	-0.981351
47606	0.567214	0.765232	9.813018	0.030202	-0.057285	0.046238	0.186626	-0.023066	-0.040554	-0.981323
47607	0.623790	0.767198	9.760011	-0.029610	-0.073540	-0.003038	0.186604	-0.022840	-0.041051	-0.981312
47608	0.625005	0.814056	9.784687	-0.018589	-0.109010	0.025056	0.186515	-0.022612	-0.041282	-0.981324
47609	0.584749	0.822107	9.825387	0.017817	-0.097101	0.063864	0.186297	-0.022372	-0.041246	-0.981372
47610	0.565894	0.739922	9.954582	0.003945	-0.004505	0.185382	0.186001	-0.022146	-0.041160	-0.981437
47611	0.515053	0.749362	9.917130	0.048787	0.002474	0.145922	0.185724	-0.021921	-0.041385	-0.981485
47612	0.511409	0.805636	9.851958	0.065216	-0.047466	0.085047	0.185555	-0.021704	-0.041933	-0.981499
47613	0.499300	0.954870	9.871961	0.125848	-0.168977	0.115670	0.185471	-0.021562	-0.042550	-0.981491
47614	0.522362	0.991716	9.824679	0.113454	-0.207563	0.072894	0.185423	-0.021541	-0.042811	-0.981489
47615	0.543163	0.985014	9.884900	0.093918	-0.202331	0.133506	0.185403	-0.021667	-0.042635	-0.981498
47616	0.480205	0.846329	9.921484	0.107309	-0.052042	0.155687	0.185443	-0.021917	-0.042280	-0.981500
47617	0.485617	0.807112	9.920996	0.094496	-0.022358	0.152451	0.185554	-0.022222	-0.042052	-0.981482
47618	0.519849	0.770206	9.897370	0.055813	-0.005720	0.128049	0.185705	-0.022568	-0.041848	-0.981455
47619	0.508874	0.724225	9.733993	0.052141	0.024448	-0.038704	0.185814	-0.022906	-0.041754	-0.981430
47620	0.571822	0.809697	9.684177	0.029925	-0.082042	-0.078302	0.185907	-0.023199	-0.041745	-0.981406
47621	0.613344	0.770377	9.678095	-0.017763	-0.060092	-0.084827	0.185945	-0.023478	-0.041763	-0.981391
47622	0.613723	0.782337	9.719868	-0.008479	-0.066205	-0.042320	0.185931	-0.023634	-0.041801	-0.981389
47623	0.573628	0.779899	9.807913	0.032720	-0.040200	0.042756	0.185846	-0.023736	-0.041836	-0.981401
47624	0.594555	0.771269	9.736092	0.009052	-0.043686	-0.028115	0.185687	-0.023797	-0.042040	-0.981421
47625	0.557525	0.861897	9.712570	0.074699	-0.111362	-0.046944	0.185452	-0.023719	-0.042365	-0.981453
47626	0.538397	0.847516	9.782675	0.085275	-0.078589	0.020696	0.185141	-0.023544	-0.042712	-0.981501
47627	0.582280	0.898345	9.886609	0.060695	-0.127212	0.130715	0.184762	-0.023325	-0.042926	-0.981568
47628	0.596217	0.892667	10.018490	0.044693	-0.112897	0.262417	0.184360	-0.023170	-0.042962	-0.981646
47629	0.545352	0.845522	9.986037	0.072266	-0.055962	0.223492	0.183981	-0.023158	-0.042734	-0.981727
47630	0.502866	0.834190	9.907148	0.107565	-0.043203	0.141552	0.183615	-0.023301	-0.042348	-0.981809
47631	0.465208	0.740314	9.892190	0.113594	0.049126	0.117296	0.183306	-0.023594	-0.041933	-0.981878
47632	0.514925	0.688978	9.904523	0.056877	0.076369	0.128657	0.183155	-0.024025	-0.041824	-0.981900
47633	0.581399	0.743030	9.853421	0.022145	-0.000007	0.085774	0.183237	-0.024547	-0.041990	-0.981865
47634	0.587772	0.786363	9.763656	0.039856	-0.044882	0.000019	0.183550	-0.025183	-0.042219	-0.981780
47635	0.645057	0.840463	9.741398	0.018949	-0.112462	-0.014510	0.184075	-0.025960	-0.042283	-0.981659
47636	0.744090	0.903670	9.637149	-0.035626	-0.216681	-0.107191	0.184735	-0.026932	-0.041881	-0.981526
47637	0.773591	0.767507	9.514271	-0.094349	-0.119854	-0.237431	0.185494	-0.028052	-0.041121	-0.981384
47638	0.762789	0.674993	9.511320	-0.092571	-0.042027	-0.247529	0.186356	-0.029275	-0.040247	-0.981221
47639	0.797956	0.656154	9.481404	-0.106653	-0.051192	-0.275905	0.187317	-0.030505	-0.039523	-0.981030
47640	0.834048	0.607262	9.414306	-0.135023	-0.034799	-0.343049	0.188324	-0.031697	-0.038808	-0.980828
47641	0.824264	0.634687	9.408799	-0.090896	-0.067058	-0.347229	0.189365	-0.032826	-0.038077	-0.980619
47642	0.913788	0.508616	9.321774	-0.202021	-0.001709	-0.434612	0.190345	-0.033808	-0.037326	-0.980425
47643	0.891467	0.480943	9.296203	-0.173912	0.020938	-0.463105	0.191294	-0.034584	-0.036843	-0.980231
47644	0.932648	0.394080	9.298800	-0.231072	0.082539	-0.462148	0.192158	-0.035110	-0.036774	-0.980046
47645	0.924061	0.531872	9.410960	-0.156095	-0.030657	-0.342860	0.192960	-0.035489	-0.036879	-0.979871
47646	0.838985	0.545866	9.505696	-0.060215	-0.003003	-0.254629	0.193680	-0.035785	-0.036753	-0.979723
47647	0.836448	0.578105	9.489225	-0.038897	-0.038766	-0.269301	0.194249	-0.036101	-0.036207	-0.979619
47648	0.851835	0.419258	9.352202	-0.113082	0.078684	-0.413428	0.194730	-0.036375	-0.035432	-0.979542
47649	0.799369	0.340922	9.361228	-0.088424	0.160008	-0.412986	0.195118	-0.036460	-0.034921	-0.979480
47650	0.866438	0.383989	9.460138	-0.128075	0.097516	-0.306560	0.195412	-0.036259	-0.034887	-0.979430
47651	0.930365	0.530409	9.563433	-0.130146	-0.055269	-0.190517	0.195543	-0.035864	-0.034835	-0.979420
47652	0.797310	0.568778	9.696279	0.007122	-0.035199	-0.067138	0.195459	-0.035396	-0.034417	-0.979468
47653	0.789802	0.487051	9.616490	-0.029444	0.025835	-0.151614	0.195220	-0.034881	-0.033905	-0.979552
47654	0.771019	0.405096	9.733860	-0.046440	0.108700	-0.040655	0.194948	-0.034324	-0.033650	-0.979635
47655	0.718137	0.400542	9.895222	-0.001754	0.143622	0.115602	0.194747	-0.033788	-0.033882	-0.979686
47656	0.729523	0.546906	9.895709	0.033063	0.009050	0.124877	0.194609	-0.033347	-0.034311	-0.979713
47657	0.716338	0.658742	9.917883	0.081198	-0.082412	0.152155	0.194604	-0.033096	-0.034514	-0.979716
47658	0.656768	0.575105	9.931310	0.101093	0.018688	0.156387	0.194725	-0.032993	-0.034418	-0.979698
47659	0.737871	0.543865	9.824005	0.009050	0.004813	0.053984	0.194940	-0.033018	-0.034199	-0.979663
47660	0.710749	0.428540	9.705039	-0.014679	0.109474	-0.072852	0.195188	-0.033073	-0.034163	-0.979613
47661	0.803705	0.506980	9.721717	-0.068157	0.004309	-0.044878	0.195407	-0.033149	-0.034306	-0.979561
47662	0.820461	0.524374	9.830023	-0.070425	-0.006654	0.065191	0.195574	-0.033230	-0.034432	-0.979521
47663	0.908668	0.565461	9.820878	-0.135169	-0.076714	0.065112	0.195671	-0.033295	-0.034506	-0.979497
47664	0.856834	0.503053	9.793104	-0.112254	0.000073	0.030052	0.195681	-0.033320	-0.034603	-0.979490
47665	0.796387	0.513312	9.786147	-0.053503	0.015905	0.019061	0.195614	-0.033297	-0.034794	-0.979498
47666	0.814776	0.605888	9.717915	-0.039444	-0.077767	-0.042261	0.195458	-0.033277	-0.035035	-0.979521
47667	0.785890	0.624278	9.711654	-0.007795	-0.079959	-0.049639	0.195268	-0.033221	-0.035244	-0.979553
47668	0.770059	0.707517	9.678567	0.035120	-0.151094	-0.079025	0.195066	-0.033129	-0.035288	-0.979595
47669	0.762591	0.668795	9.688912	0.025390	-0.111889	-0.071502	0.194817	-0.033016	-0.035258	-0.979649
47670	0.742310	0.600700	9.655803	0.013436	-0.042822	-0.109885	0.194571	-0.032885	-0.035464	-0.979695
47671	0.765536	0.719157	9.642373	0.032732	-0.156809	-0.114598	0.194352	-0.032727	-0.035841	-0.979731
47672	0.787202	0.769086	9.697990	0.030459	-0.201622	-0.054582	0.194150	-0.032592	-0.036017	-0.979769
47673	0.726259	0.733429	9.683459	0.068919	-0.145383	-0.075703	0.193993	-0.032432	-0.036050	-0.979804
47674	0.802471	0.685967	9.617065	-0.026092	-0.134884	-0.138827	0.193950	-0.032279	-0.036187	-0.979812
47675	0.781567	0.716638	9.623542	0.001277	-0.151601	-0.132088	0.194007	-0.032092	-0.036447	-0.979797
47676	0.727165	0.803042	9.703375	0.084287	-0.201512	-0.051467	0.194080	-0.031923	-0.036523	-0.979786
47677	0.653579	0.830084	9.649564	0.158115	-0.205679	-0.108926	0.194166	-0.031836	-0.036232	-0.979782
47678	0.712257	0.737211	9.516390	0.062164	-0.160252	-0.242791	0.194300	-0.031758	-0.035829	-0.979773
47679	0.721271	0.664107	9.556645	0.026581	-0.100219	-0.206440	0.194526	-0.031558	-0.035522	-0.979746
47680	0.778268	0.699445	9.703728	-0.008390	-0.148845	-0.053844	0.194812	-0.031335	-0.035243	-0.979706
47681	0.775381	0.629812	9.833757	-0.029739	-0.080640	0.071303	0.195042	-0.031067	-0.034844	-0.979683
47682	0.722356	0.548374	9.896544	-0.012394	0.010409	0.125312	0.195222	-0.030836	-0.034408	-0.979670
47683	0.733258	0.433515	9.892886	-0.070016	0.106341	0.115987	0.195397	-0.030632	-0.034382	-0.979643
47684	0.679822	0.520946	9.901330	0.009508	0.047461	0.125498	0.195568	-0.030467	-0.034557	-0.979608
47685	0.697941	0.628402	9.899911	0.031807	-0.056996	0.131456	0.195701	-0.030421	-0.034588	-0.979581
47686	0.718798	0.573230	9.784485	-0.013719	-0.024380	0.014857	0.195775	-0.030439	-0.034459	-0.979570
47687	0.689462	0.550547	9.812989	0.007126	0.008030	0.039881	0.195879	-0.030507	-0.034374	-0.979550
47688	0.731873	0.582787	9.797176	-0.018445	-0.039713	0.028960	0.196035	-0.030593	-0.034372	-0.979517
47689	0.690804	0.627683	9.821894	0.039507	-0.063245	0.053175	0.196220	-0.030664	-0.034366	-0.979478
47690	0.733028	0.594977	9.803374	-0.011119	-0.050792	0.035905	0.196437	-0.030748	-0.034346	-0.979432
47691	0.762745	0.628869	9.781161	-0.024636	-0.094270	0.017820	0.196716	-0.030831	-0.034434	-0.979371
47692	0.754717	0.647186	9.805425	-0.006313	-0.105741	0.042442	0.196978	-0.031005	-0.034347	-0.979315
47693	0.785473	0.643470	9.782087	-0.032352	-0.119120	0.021183	0.197218	-0.031220	-0.034043	-0.979271
47694	0.764948	0.577544	9.623695	-0.040409	-0.068623	-0.141707	0.197447	-0.031461	-0.033690	-0.979229
47695	0.718923	0.509813	9.692021	-0.015302	0.012111	-0.080697	0.197707	-0.031711	-0.033471	-0.979176
47696	0.727312	0.559239	9.688103	0.001781	-0.038178	-0.081315	0.198029	-0.031992	-0.033461	-0.979102
47697	0.762809	0.609234	9.732214	-0.003519	-0.092540	-0.032071	0.198494	-0.032296	-0.033566	-0.978995
47698	0.702883	0.608708	9.736527	0.058254	-0.067151	-0.032267	0.199055	-0.032647	-0.033497	-0.978871
47699	0.772624	0.598837	9.671384	-0.004369	-0.092713	-0.092471	0.199647	-0.033046	-0.033179	-0.978748
47700	0.749754	0.507400	9.589632	-0.013725	-0.013468	-0.180437	0.200205	-0.033425	-0.032608	-0.978641
47701	0.784294	0.367945	9.656404	-0.087711	0.097407	-0.118388	0.200743	-0.033781	-0.032136	-0.978534
47702	0.790080	0.360042	9.656230	-0.087913	0.097020	-0.118386	0.201199	-0.034126	-0.031936	-0.978435
47703	0.814959	0.392323	9.687885	-0.088923	0.057206	-0.083247	0.201622	-0.034446	-0.031729	-0.978343
47704	0.831535	0.458920	9.775164	-0.064922	-0.009060	0.008290	0.202019	-0.034816	-0.031266	-0.978263
47705	0.821645	0.349167	9.764419	-0.090651	0.085108	-0.008330	0.202321	-0.035171	-0.030617	-0.978209
47706	0.864329	0.319532	9.680419	-0.136912	0.078383	-0.089788	0.202486	-0.035500	-0.030008	-0.978181
47707	0.856950	0.377478	9.605965	-0.103421	0.013173	-0.161753	0.202438	-0.035751	-0.029489	-0.978198
47708	0.802120	0.347547	9.622403	-0.058446	0.054090	-0.150986	0.202233	-0.035898	-0.028932	-0.978251
47709	0.845037	0.385770	9.673866	-0.075791	-0.004575	-0.094621	0.201977	-0.035938	-0.028338	-0.978320
47710	0.807905	0.410757	9.753769	-0.025155	-0.018462	-0.016951	0.201615	-0.035905	-0.027739	-0.978413
47711	0.780775	0.388425	9.735525	-0.009000	-0.000028	-0.038187	0.201157	-0.035845	-0.027135	-0.978527
47712	0.726981	0.400632	9.706798	0.043792	-0.003153	-0.070562	0.200581	-0.035736	-0.026586	-0.978664
47713	0.693946	0.375304	9.699836	0.062947	0.024785	-0.081056	0.200002	-0.035642	-0.026334	-0.978793
47714	0.706085	0.430096	9.535564	0.062452	-0.042439	-0.241646	0.199508	-0.035580	-0.026451	-0.978893
47715	0.736382	0.581507	9.586157	0.094740	-0.187147	-0.183003	0.199144	-0.035511	-0.026647	-0.978964
47716	0.731938	0.645502	9.565312	0.120898	-0.242670	-0.201544	0.198895	-0.035486	-0.026772	-0.979012
47717	0.697366	0.677061	9.398582	0.154808	-0.267751	-0.369043	0.198793	-0.035483	-0.026819	-0.979032
47718	0.782309	0.683442	9.388220	0.077585	-0.307681	-0.372502	0.198893	-0.035361	-0.026748	-0.979018
47719	0.783611	0.684604	9.448777	0.077805	-0.308709	-0.312121	0.199208	-0.035133	-0.026525	-0.978968
47720	0.850679	0.662075	9.605598	0.013391	-0.311951	-0.151838	0.199562	-0.034870	-0.025991	-0.978920
47721	0.819220	0.491689	9.645290	-0.024927	-0.153935	-0.121446	0.199897	-0.034570	-0.025252	-0.978881
47722	0.789835	0.390685	9.581136	-0.043298	-0.069378	-0.191464	0.200202	-0.034313	-0.024472	-0.978848
47723	0.743541	0.300458	9.588763	-0.038443	0.017990	-0.190541	0.200539	-0.034005	-0.023898	-0.978804
47724	0.699561	0.324867	9.740489	0.015568	0.012919	-0.041728	0.200958	-0.033682	-0.023674	-0.978734
47725	0.716620	0.279871	9.894656	-0.014466	0.051752	0.111686	0.201445	-0.033392	-0.023531	-0.978648
47726	0.693884	0.254084	9.965173	-0.003975	0.084263	0.179489	0.201938	-0.033193	-0.023366	-0.978557
47727	0.715666	0.124912	9.898251	-0.081797	0.186903	0.110091	0.202418	-0.033016	-0.023301	-0.978465
47728	0.622514	0.117362	9.848129	-0.005362	0.226732	0.053188	0.202865	-0.032852	-0.023375	-0.978376
47729	0.686224	0.206004	9.992872	-0.023160	0.127885	0.204994	0.203184	-0.032759	-0.023283	-0.978315
47730	0.672020	0.040490	10.072681	-0.071846	0.285992	0.278159	0.203435	-0.032791	-0.023013	-0.978269
47731	0.689859	0.024994	10.036310	-0.093557	0.287201	0.242799	0.203596	-0.032949	-0.022874	-0.978233
47732	0.723013	0.031776	9.905292	-0.124646	0.260612	0.114805	0.203725	-0.033139	-0.022994	-0.978197
47733	0.625443	0.093032	9.852494	-0.011086	0.244503	0.057043	0.203741	-0.033293	-0.023255	-0.978182
47734	0.641239	0.222644	9.842014	0.028083	0.124488	0.051881	0.203612	-0.033485	-0.023498	-0.978197
47735	0.733961	0.267495	9.762038	-0.039993	0.045612	-0.019631	0.203330	-0.033687	-0.023551	-0.978247
47736	0.849571	0.320411	9.736957	-0.122726	-0.047720	-0.034373	0.203022	-0.033878	-0.023651	-0.978302
47737	0.816134	0.362877	9.648231	-0.077593	-0.074204	-0.123798	0.202790	-0.034038	-0.023931	-0.978338
47738	0.802630	0.397187	9.619068	-0.051885	-0.095349	-0.152633	0.202636	-0.034158	-0.024289	-0.978357
47739	0.742446	0.505423	9.593313	0.045808	-0.164679	-0.178938	0.202521	-0.034299	-0.024682	-0.978366
47740	0.732327	0.476810	9.620390	0.046849	-0.126314	-0.153629	0.202426	-0.034472	-0.024903	-0.978374
47741	0.792388	0.524224	9.713451	0.019113	-0.184952	-0.054652	0.202365	-0.034692	-0.024882	-0.978379
47742	0.787783	0.382082	9.752818	-0.026501	-0.051072	-0.020817	0.202367	-0.034913	-0.024734	-0.978375
47743	0.820756	0.304089	9.682724	-0.086992	0.001696	-0.090872	0.202408	-0.035129	-0.024651	-0.978361
47744	0.781695	0.306643	9.532128	-0.054755	0.006066	-0.243805	0.202380	-0.035327	-0.024724	-0.978357
47745	0.786891	0.343728	9.497834	-0.044090	-0.028826	-0.276261	0.202309	-0.035470	-0.024930	-0.978362
47746	0.798357	0.404072	9.554675	-0.026588	-0.079844	-0.216574	0.202191	-0.035522	-0.025237	-0.978376
47747	0.811361	0.454919	9.569014	-0.018533	-0.124940	-0.199398	0.202058	-0.035491	-0.025527	-0.978397
47748	0.824462	0.459222	9.610619	-0.029082	-0.125243	-0.156700	0.201948	-0.035393	-0.025905	-0.978414
47749	0.845614	0.490883	9.635940	-0.037855	-0.154827	-0.128579	0.201869	-0.035281	-0.026212	-0.978426
47750	0.849754	0.503738	9.624272	-0.041022	-0.164714	-0.139341	0.201809	-0.035101	-0.026414	-0.978439
47751	0.784357	0.480851	9.651901	0.006944	-0.114332	-0.117714	0.201828	-0.034876	-0.026491	-0.978441
47752	0.784605	0.453107	9.710448	-0.005385	-0.085361	-0.060437	0.201884	-0.034658	-0.026484	-0.978438
47753	0.816585	0.448310	9.669054	-0.042111	-0.097873	-0.099447	0.201918	-0.034512	-0.026400	-0.978438
47754	0.763326	0.406937	9.600336	-0.016017	-0.045098	-0.173578	0.201947	-0.034366	-0.026376	-0.978438
47755	0.784890	0.420773	9.619428	-0.032550	-0.064371	-0.152393	0.201999	-0.034188	-0.026538	-0.978429
47756	0.750435	0.513263	9.695637	0.035331	-0.128293	-0.075426	0.202169	-0.033949	-0.026712	-0.978397
47757	0.758855	0.562762	9.674540	0.041705	-0.177758	-0.093842	0.202451	-0.033731	-0.026709	-0.978347
47758	0.745849	0.531104	9.727158	0.041429	-0.144513	-0.043688	0.202780	-0.033594	-0.026344	-0.978293
47759	0.680365	0.385673	9.743178	0.044047	0.006493	-0.038274	0.203129	-0.033496	-0.025816	-0.978238
47760	0.726374	0.321501	9.771512	-0.021668	0.038855	-0.009043	0.203474	-0.033422	-0.025353	-0.978181
47761	0.707158	0.294141	9.770588	-0.014553	0.062533	-0.012338	0.203804	-0.033349	-0.024936	-0.978126
47762	0.645660	0.201367	9.818806	0.007036	0.167997	0.027948	0.204097	-0.033264	-0.024685	-0.978074
47763	0.606943	0.188071	9.793665	0.035283	0.190762	-0.000349	0.204358	-0.033227	-0.024638	-0.978022
47764	0.688980	0.254910	9.763015	-0.015548	0.095713	-0.022553	0.204584	-0.033170	-0.024789	-0.977973
47765	0.711327	0.287458	9.717059	-0.027675	0.057391	-0.065596	0.204808	-0.033049	-0.025026	-0.977924
47766	0.801117	0.333588	9.733261	-0.093660	-0.017798	-0.041283	0.204939	-0.032869	-0.025057	-0.977902
47767	0.709120	0.321662	9.851076	-0.011789	0.034404	0.069047	0.204964	-0.032639	-0.024829	-0.977910
47768	0.695811	0.209860	9.893200	-0.044889	0.138133	0.106108	0.204911	-0.032496	-0.024468	-0.977935
47769	0.707208	0.187320	9.964681	-0.061540	0.152441	0.177462	0.204792	-0.032434	-0.024237	-0.977968
47770	0.726120	0.132639	9.884025	-0.105161	0.189766	0.096487	0.204700	-0.032471	-0.024441	-0.977981
47771	0.713962	0.265993	9.860616	-0.041840	0.078334	0.076920	0.204655	-0.032562	-0.024945	-0.977974
47772	0.695002	0.406289	9.855010	0.032227	-0.033939	0.075038	0.204642	-0.032717	-0.025304	-0.977963
47773	0.753692	0.408669	9.843536	-0.017858	-0.055864	0.067941	0.204657	-0.032969	-0.025311	-0.977951
47774	0.725770	0.307254	9.765129	-0.031842	0.043397	-0.015954	0.204683	-0.033250	-0.025222	-0.977938
47775	0.736467	0.250835	9.713716	-0.061721	0.089373	-0.068470	0.204717	-0.033535	-0.025390	-0.977917
47776	0.706349	0.220384	9.578583	-0.050989	0.129226	-0.206572	0.204727	-0.033690	-0.026036	-0.977893
47777	0.693319	0.344103	9.559160	0.007572	0.037596	-0.222321	0.204765	-0.033696	-0.027232	-0.977852
47778	0.736367	0.501810	9.697372	0.034092	-0.093429	-0.074969	0.204850	-0.033644	-0.028284	-0.977806
47779	0.751959	0.545800	9.775817	0.037723	-0.119581	0.006386	0.204965	-0.033608	-0.028812	-0.977768
47780	0.776668	0.498017	9.755309	-0.005535	-0.083026	-0.014199	0.205058	-0.033684	-0.028713	-0.977749
47781	0.714205	0.232463	9.657587	-0.058025	0.175379	-0.127700	0.205094	-0.033803	-0.028515	-0.977743
47782	0.723288	0.191998	9.673507	-0.079797	0.210242	-0.112885	0.205126	-0.033895	-0.028713	-0.977727
47783	0.681567	0.224180	9.739382	-0.024935	0.210713	-0.049219	0.205214	-0.034017	-0.029378	-0.977684
47784	0.801131	0.387568	9.717326	-0.070037	0.027067	-0.054984	0.205372	-0.034143	-0.030242	-0.977621
47785	0.827124	0.470821	9.749707	-0.058528	-0.043017	-0.016908	0.205475	-0.034299	-0.030793	-0.977576
47786	0.797801	0.409620	9.745218	-0.056639	0.034819	-0.026518	0.205462	-0.034365	-0.031297	-0.977561
47787	0.892134	0.352744	9.748786	-0.167959	0.060221	-0.018439	0.205311	-0.034292	-0.031924	-0.977575
47788	0.879553	0.477180	9.788496	-0.109053	-0.032244	0.026165	0.205077	-0.034166	-0.032694	-0.977603
47789	0.898779	0.577930	9.755517	-0.093103	-0.121298	-0.000016	0.204833	-0.034045	-0.033334	-0.977637
47790	0.797684	0.627202	9.838815	0.019426	-0.109680	0.077690	0.204604	-0.034000	-0.033729	-0.977673
47791	0.753616	0.565828	9.757214	0.030067	-0.036182	-0.010182	0.204430	-0.034111	-0.033971	-0.977697
47792	0.761226	0.561490	9.678386	0.018838	-0.034922	-0.088269	0.204340	-0.034294	-0.034357	-0.977696
47793	0.858085	0.610958	9.728008	-0.045480	-0.105852	-0.028494	0.204373	-0.034480	-0.034809	-0.977666
47794	0.834181	0.631742	9.757071	-0.012098	-0.103701	-0.000222	0.204483	-0.034648	-0.035253	-0.977621
47795	0.786990	0.593515	9.760070	0.017370	-0.042206	-0.003075	0.204566	-0.034783	-0.035537	-0.977589
47796	0.817659	0.595972	9.771727	-0.006916	-0.051231	0.011147	0.204590	-0.034951	-0.035654	-0.977574
47797	0.844107	0.482910	9.641862	-0.080181	0.032629	-0.122294	0.204598	-0.035133	-0.035670	-0.977565
47798	0.763292	0.540979	9.762301	0.026703	0.024454	-0.005726	0.204658	-0.035347	-0.035847	-0.977538
47799	0.794294	0.478764	9.735698	-0.024295	0.071340	-0.033206	0.204743	-0.035601	-0.036059	-0.977503
47800	0.761599	0.548369	9.719163	0.036800	0.023585	-0.048418	0.204828	-0.035834	-0.036190	-0.977472
47801	0.822007	0.500201	9.735460	-0.031899	0.046392	-0.029952	0.204832	-0.036134	-0.036102	-0.977463
47802	0.873361	0.475835	9.561213	-0.092017	0.032216	-0.200380	0.204735	-0.036412	-0.035945	-0.977479
47803	0.854490	0.492807	9.579389	-0.061615	0.024899	-0.182875	0.204560	-0.036668	-0.035887	-0.977508
47804	0.854116	0.517460	9.627683	-0.044608	0.008117	-0.133457	0.204409	-0.036871	-0.035994	-0.977528
47805	0.826287	0.656004	9.638000	0.040221	-0.105017	-0.117767	0.204307	-0.037022	-0.035966	-0.977545
47806	0.864496	0.599488	9.660189	-0.013432	-0.068454	-0.095634	0.204225	-0.037121	-0.035745	-0.977567
47807	0.874755	0.540381	9.706357	-0.041308	-0.019001	-0.052129	0.204159	-0.037207	-0.035459	-0.977587
47808	0.889820	0.456795	9.703732	-0.086341	0.046811	-0.058037	0.204063	-0.037283	-0.035245	-0.977612
47809	0.861446	0.544051	9.707099	-0.021797	-0.025892	-0.052324	0.203888	-0.037462	-0.034928	-0.977654
47810	0.885799	0.419311	9.720714	-0.088446	0.075185	-0.043385	0.203692	-0.037693	-0.034678	-0.977694
47811	0.919808	0.439634	9.655514	-0.111247	0.037793	-0.104213	0.203556	-0.037862	-0.034839	-0.977711
47812	0.879984	0.537158	9.688051	-0.032988	-0.026325	-0.070026	0.203514	-0.037926	-0.035316	-0.977700
47813	0.901112	0.662138	9.691750	-0.002840	-0.141176	-0.057663	0.203495	-0.037937	-0.035607	-0.977692
47814	0.937035	0.659466	9.613687	-0.041144	-0.157903	-0.132332	0.203427	-0.037974	-0.035476	-0.977710
47815	1.096756	0.732474	9.480062	-0.163135	-0.306191	-0.247616	0.203234	-0.038061	-0.034817	-0.977770
47816	1.003767	0.592534	9.530184	-0.126985	-0.152666	-0.213542	0.202918	-0.038107	-0.033781	-0.977871
47817	0.931962	0.508712	9.642136	-0.085288	-0.054243	-0.112796	0.202585	-0.038060	-0.033120	-0.977964
47818	0.896419	0.637252	9.690266	0.001190	-0.163102	-0.061569	0.202369	-0.037931	-0.032849	-0.978023
47819	0.900820	0.769738	9.684789	0.048184	-0.293423	-0.060216	0.202293	-0.037791	-0.032453	-0.978057
47820	0.965060	0.823667	9.683083	0.011123	-0.379861	-0.054233	0.202301	-0.037734	-0.031670	-0.978084
47821	0.897982	0.717283	9.638789	0.030740	-0.277868	-0.109651	0.202367	-0.037727	-0.030532	-0.978106
47822	0.896641	0.568972	9.694607	-0.019225	-0.158751	-0.061406	0.202479	-0.037743	-0.029420	-0.978117
47823	0.848685	0.463870	9.751290	-0.009732	-0.057708	-0.013725	0.202614	-0.037752	-0.028625	-0.978112
47824	0.864813	0.458576	9.782267	-0.023286	-0.067613	0.018173	0.202825	-0.037660	-0.028345	-0.978080
47825	0.906722	0.536335	9.870666	-0.026524	-0.152425	0.112831	0.203096	-0.037547	-0.028344	-0.978028
47826	0.922562	0.588089	9.837805	-0.023073	-0.211302	0.083484	0.203347	-0.037500	-0.028097	-0.977985
47827	0.929701	0.577612	9.748555	-0.037227	-0.219354	-0.005405	0.203479	-0.037540	-0.027469	-0.977974
47828	0.847489	0.450846	9.808927	-0.005405	-0.080472	0.042769	0.203492	-0.037580	-0.026640	-0.977992
47829	0.806952	0.423057	9.820839	0.024530	-0.053367	0.050149	0.203462	-0.037553	-0.025890	-0.978020
47830	0.807668	0.352238	9.806489	-0.003655	-0.003000	0.033306	0.203413	-0.037475	-0.025285	-0.978049
47831	0.785330	0.337579	9.812537	0.011237	0.010348	0.037000	0.203448	-0.037358	-0.024964	-0.978054
47832	0.775084	0.338448	9.831104	0.021813	0.009053	0.054701	0.203590	-0.037326	-0.024726	-0.978032
47833	0.743199	0.302096	9.721295	0.031339	0.044066	-0.058496	0.203854	-0.037424	-0.024551	-0.977978
47834	0.757933	0.345414	9.700007	0.037770	-0.005346	-0.077060	0.204195	-0.037644	-0.024409	-0.977902
47835	0.785085	0.254519	9.712905	-0.016354	0.065632	-0.065017	0.204586	-0.038001	-0.024219	-0.977811
47836	0.811243	0.258140	9.671158	-0.033178	0.047221	-0.104304	0.205045	-0.038411	-0.024063	-0.977702
47837	0.867192	0.250714	9.563090	-0.085153	0.022034	-0.207490	0.205544	-0.038823	-0.023780	-0.977588
47838	0.910826	0.225957	9.513919	-0.129544	0.019987	-0.253497	0.206104	-0.039175	-0.023507	-0.977463
47839	0.909001	0.154259	9.413742	-0.156666	0.076526	-0.355509	0.206664	-0.039418	-0.023334	-0.977339
47840	0.861808	0.143063	9.346832	-0.117914	0.099465	-0.426386	0.207157	-0.039595	-0.023239	-0.977230
47841	0.864151	0.058924	9.443389	-0.145974	0.182344	-0.332537	0.207575	-0.039641	-0.023444	-0.977134
47842	0.878193	0.142947	9.459859	-0.125367	0.107063	-0.312508	0.207928	-0.039525	-0.023946	-0.977052
47843	0.855493	0.050857	9.495401	-0.146422	0.214985	-0.282241	0.208278	-0.039250	-0.024905	-0.976964
47844	0.829022	0.289274	9.579252	-0.028478	0.030314	-0.193370	0.208717	-0.038955	-0.025875	-0.976857
47845	0.832445	0.379814	9.756643	0.009366	-0.028944	-0.013280	0.209252	-0.038762	-0.026399	-0.976737
47846	0.824089	0.313368	9.728806	-0.014486	0.036067	-0.044091	0.209858	-0.038747	-0.026268	-0.976611
47847	0.803744	0.085373	9.603137	-0.095143	0.238061	-0.179007	0.210474	-0.038894	-0.025846	-0.976483
47848	0.857167	0.043505	9.625373	-0.156082	0.250495	-0.153633	0.210986	-0.038988	-0.025708	-0.976373
47849	0.890372	0.124739	9.636022	-0.150511	0.161433	-0.137331	0.211374	-0.038987	-0.025632	-0.976291
47850	0.916545	0.150140	9.721642	-0.158998	0.130708	-0.048951	0.211575	-0.038863	-0.025496	-0.976256
47851	0.898648	0.142282	9.823513	-0.142182	0.147257	0.050746	0.211523	-0.038631	-0.025229	-0.976283
47852	0.858437	0.149294	9.794437	-0.109073	0.150322	0.018676	0.211223	-0.038309	-0.025060	-0.976365
47853	0.863864	0.193666	9.809570	-0.100988	0.105109	0.035672	0.210699	-0.037936	-0.024967	-0.976495
47854	0.845792	0.183649	9.797418	-0.096795	0.119318	0.021685	0.210066	-0.037562	-0.025013	-0.976645
47855	0.796866	0.278388	9.868249	-0.016904	0.059347	0.091403	0.209440	-0.037207	-0.025254	-0.976787
47856	0.738263	0.362289	9.926046	0.067305	0.014027	0.147130	0.208897	-0.036968	-0.025465	-0.976907
47857	0.682976	0.399066	9.939469	0.129607	0.004941	0.157365	0.208399	-0.036877	-0.025414	-0.977018
47858	0.806395	0.420189	9.810218	0.017519	-0.075208	0.039279	0.207912	-0.036878	-0.025206	-0.977127
47859	0.764873	0.308426	9.780191	0.008257	0.037983	0.002137	0.207451	-0.036858	-0.025011	-0.977231
47860	0.783227	0.311041	9.846358	-0.003674	0.032203	0.069615	0.207140	-0.036871	-0.025159	-0.977292
47861	0.892959	0.424438	9.834912	-0.058267	-0.111898	0.070990	0.206971	-0.036962	-0.025427	-0.977318
47862	0.847442	0.561890	9.781502	0.038384	-0.219739	0.018991	0.206954	-0.037180	-0.025374	-0.977315
47863	0.819531	0.517543	9.743345	0.051213	-0.176201	-0.022970	0.206946	-0.037611	-0.024691	-0.977317
47864	0.777406	0.400995	9.659979	0.049432	-0.072309	-0.113583	0.206874	-0.038114	-0.023684	-0.977338
47865	0.934845	0.198212	9.584749	-0.169453	0.028963	-0.181952	0.206714	-0.038462	-0.022822	-0.977379
47866	0.925384	0.247858	9.654275	-0.129216	-0.018983	-0.111876	0.206512	-0.038610	-0.022436	-0.977424
47867	0.899659	0.192330	9.741041	-0.120634	0.042274	-0.029134	0.206298	-0.038576	-0.022253	-0.977475
47868	0.863298	0.280405	9.686520	-0.056327	-0.029406	-0.083939	0.206093	-0.038459	-0.022181	-0.977525
47869	0.813693	0.316558	9.724758	0.004621	-0.043715	-0.048913	0.205903	-0.038377	-0.021920	-0.977574
47870	0.758677	0.231536	9.761771	0.023195	0.052095	-0.018908	0.205695	-0.038378	-0.021542	-0.977626
47871	0.844214	0.208453	9.605534	-0.072937	0.025451	-0.168182	0.205463	-0.038413	-0.021430	-0.977676
47872	0.808602	0.179270	9.681278	-0.047508	0.071241	-0.096424	0.205223	-0.038381	-0.021572	-0.977724
47873	0.761958	0.251137	9.792767	0.029196	0.035185	0.012782	0.204973	-0.038322	-0.021911	-0.977772
47874	0.792209	0.280458	9.764023	0.008088	0.002136	-0.012569	0.204776	-0.038203	-0.022381	-0.977807
47875	0.844159	0.360799	9.834474	-0.005906	-0.081996	0.064200	0.204663	-0.038123	-0.022560	-0.977830
47876	0.879911	0.307156	9.855395	-0.059567	-0.045525	0.086393	0.204609	-0.038141	-0.022427	-0.977843
47877	0.832780	0.231646	9.845002	-0.045581	0.036660	0.070016	0.204466	-0.038214	-0.022007	-0.977880
47878	0.827215	0.212921	9.892520	-0.041136	0.049819	0.116431	0.204170	-0.038346	-0.021441	-0.977949
47879	0.844144	0.077084	9.914790	-0.104820	0.160267	0.136428	0.203771	-0.038522	-0.021040	-0.978034
47880	0.871822	0.169036	9.872554	-0.091761	0.061882	0.099110	0.203494	-0.038756	-0.021247	-0.978078
47881	0.920134	0.222749	9.641267	-0.126851	-0.010893	-0.125889	0.203382	-0.038970	-0.021855	-0.978080
47882	0.866516	0.421746	9.579741	-0.000794	-0.164239	-0.185997	0.203348	-0.039150	-0.022358	-0.978068
47883	0.888129	0.444816	9.580335	-0.008212	-0.188772	-0.182851	0.203209	-0.039398	-0.022304	-0.978088
47884	0.918189	0.297302	9.541668	-0.091965	-0.071212	-0.223039	0.202910	-0.039620	-0.021877	-0.978151
47885	0.861829	0.207973	9.518452	-0.073647	0.025668	-0.253354	0.202551	-0.039689	-0.021582	-0.978229
47886	0.800127	0.210492	9.620176	-0.009947	0.054120	-0.157157	0.202208	-0.039589	-0.021904	-0.978297
47887	0.833329	0.316606	9.769647	0.006834	-0.038084	-0.002531	0.201933	-0.039405	-0.022605	-0.978345
47888	0.867401	0.467498	9.777436	0.029716	-0.177078	0.012634	0.201742	-0.039226	-0.023250	-0.978377
47889	0.852375	0.529760	9.672142	0.057116	-0.226148	-0.091416	0.201566	-0.039176	-0.023537	-0.978408
47890	0.837304	0.410218	9.550843	0.014116	-0.114263	-0.217131	0.201436	-0.039158	-0.023652	-0.978433
47891	0.792105	0.406080	9.580039	0.054774	-0.088127	-0.191944	0.201415	-0.039139	-0.023836	-0.978433
47892	0.830218	0.415808	9.711937	0.030986	-0.099421	-0.057021	0.201486	-0.039120	-0.024121	-0.978413
47893	0.871084	0.387847	9.691951	-0.019504	-0.086881	-0.074351	0.201605	-0.039148	-0.024279	-0.978383
47894	0.869023	0.369563	9.696657	-0.024422	-0.067545	-0.070420	0.201715	-0.039157	-0.024275	-0.978360
47895	0.932541	0.312631	9.729659	-0.102237	-0.039742	-0.034058	0.201754	-0.039193	-0.024113	-0.978355
47896	0.884058	0.279646	9.799818	-0.064765	0.010303	0.030681	0.201749	-0.039243	-0.023875	-0.978359
47897	0.910092	0.212262	9.772287	-0.115711	0.057294	0.003332	0.201701	-0.039275	-0.023795	-0.978370
47898	0.919503	0.238820	9.755815	-0.114024	0.027672	-0.011428	0.201682	-0.039317	-0.023801	-0.978372
47899	0.883086	0.225936	9.802594	-0.082479	0.058875	0.031675	0.201697	-0.039346	-0.024004	-0.978363
47900	0.838330	0.305540	9.770482	-0.012220	0.006109	-0.001557	0.201719	-0.039392	-0.024276	-0.978350
47901	0.844294	0.335882	9.657767	-0.012370	-0.026527	-0.112313	0.201713	-0.039501	-0.024462	-0.978342
47902	0.825213	0.314456	9.632064	-0.003846	0.002410	-0.140226	0.201720	-0.039586	-0.024596	-0.978334
47903	0.937409	0.332775	9.674710	-0.095784	-0.052452	-0.087587	0.201762	-0.039643	-0.024781	-0.978318
47904	0.901490	0.320415	9.721478	-0.064241	-0.021257	-0.044479	0.201853	-0.039690	-0.024867	-0.978295
47905	0.878280	0.303981	9.810172	-0.043176	0.009740	0.041312	0.201930	-0.039717	-0.024885	-0.978278
47906	0.864774	0.240732	9.764695	-0.057893	0.069738	-0.007238	0.201969	-0.039780	-0.024813	-0.978269
47907	0.897561	0.183308	9.725470	-0.111794	0.107325	-0.045397	0.201923	-0.039872	-0.024889	-0.978273
47908	0.890019	0.208454	9.678471	-0.096662	0.087322	-0.092018	0.201840	-0.039980	-0.025095	-0.978280
47909	0.894463	0.280265	9.645797	-0.073324	0.022510	-0.121757	0.201737	-0.040083	-0.025356	-0.978291
47910	0.903545	0.325331	9.635522	-0.063881	-0.017459	-0.129654	0.201691	-0.040155	-0.025644	-0.978290
47911	0.878224	0.406335	9.704987	-0.003858	-0.071568	-0.059841	0.201678	-0.040215	-0.025920	-0.978283
47912	0.911148	0.320105	9.699650	-0.068688	0.000273	-0.065321	0.201743	-0.040265	-0.026255	-0.978258
47913	0.894304	0.295102	9.595587	-0.071095	0.031327	-0.171312	0.201798	-0.040282	-0.026812	-0.978231
47914	0.906061	0.361144	9.687518	-0.052081	-0.016035	-0.076344	0.201791	-0.040253	-0.027474	-0.978215
47915	0.933138	0.414393	9.778650	-0.052891	-0.057384	0.018811	0.201650	-0.040216	-0.028046	-0.978230
47916	0.857938	0.477370	9.774863	0.038343	-0.077570	0.010978	0.201424	-0.040200	-0.028337	-0.978268
47917	0.936849	0.353800	9.696384	-0.089137	0.004091	-0.065136	0.201170	-0.040217	-0.028535	-0.978314
47918	0.882728	0.514591	9.763297	0.027840	-0.111967	0.003252	0.201030	-0.040264	-0.028877	-0.978331
47919	0.874417	0.476042	9.748616	0.019509	-0.067590	-0.013617	0.201053	-0.040387	-0.029207	-0.978312
47920	0.942565	0.461346	9.711038	-0.048968	-0.078184	-0.045548	0.201196	-0.040587	-0.029373	-0.978269
47921	0.912632	0.474888	9.645120	-0.017420	-0.079122	-0.113194	0.201432	-0.040776	-0.029627	-0.978205
47922	0.944950	0.404411	9.575031	-0.077686	-0.025852	-0.182994	0.201661	-0.040894	-0.030017	-0.978141
47923	0.977573	0.542458	9.556172	-0.053423	-0.159563	-0.192811	0.201849	-0.040963	-0.030356	-0.978089
47924	0.942516	0.532520	9.603070	-0.021886	-0.128402	-0.149670	0.202026	-0.041009	-0.030509	-0.978045
47925	0.948849	0.507088	9.625560	-0.035911	-0.104009	-0.127815	0.202264	-0.041026	-0.030556	-0.977994
47926	1.011702	0.533088	9.632209	-0.082508	-0.150970	-0.114359	0.202524	-0.041022	-0.030641	-0.977938
47927	0.947704	0.519123	9.703597	-0.025231	-0.107029	-0.049730	0.202765	-0.040977	-0.030638	-0.977890
47928	0.858187	0.605300	9.731649	0.092202	-0.148879	-0.026105	0.202967	-0.040929	-0.030637	-0.977850
47929	0.882960	0.501425	9.775250	0.031919	-0.063531	0.014902	0.203230	-0.040991	-0.030303	-0.977803
47930	0.968542	0.543207	9.807259	-0.023343	-0.139906	0.056221	0.203658	-0.041176	-0.029911	-0.977718
47931	0.922047	0.478284	9.769200	-0.003185	-0.072126	0.011312	0.204272	-0.041418	-0.029506	-0.977592
47932	0.792667	0.543717	9.934893	0.159774	-0.075174	0.167035	0.204940	-0.041722	-0.029118	-0.977451
47933	0.839438	0.559689	9.918685	0.134361	-0.122858	0.155513	0.205476	-0.042267	-0.027995	-0.977348
47934	0.965307	0.272196	9.840390	-0.082423	0.056928	0.078168	0.205945	-0.043062	-0.026080	-0.977268
47935	0.922045	0.264459	10.040518	-0.004456	0.057917	0.273368	0.206397	-0.044170	-0.023832	-0.977180
47936	0.981815	0.105273	10.069500	-0.087532	0.139864	0.303754	0.206878	-0.045476	-0.021420	-0.977075
47937	1.062172	0.074218	9.960920	-0.146634	0.090985	0.203483	0.207334	-0.046784	-0.019431	-0.976958
47938	1.098799	0.266554	10.023484	-0.061793	-0.130947	0.273315	0.207591	-0.048129	-0.017320	-0.976877
47939	1.237296	0.313213	9.753119	-0.155003	-0.287258	0.018155	0.207584	-0.049472	-0.014415	-0.976859
47940	1.205915	0.108072	9.568649	-0.190837	-0.149757	-0.170813	0.207438	-0.050554	-0.011149	-0.976877
47941	1.170694	-0.265582	9.385700	-0.298441	0.143429	-0.356340	0.207227	-0.051256	-0.008144	-0.976915
47942	1.202453	-0.462559	9.207788	-0.405347	0.260202	-0.527695	0.206994	-0.051515	-0.006116	-0.976966
47943	1.088812	-0.506083	9.386923	-0.296392	0.328421	-0.359632	0.206734	-0.051360	-0.005503	-0.977033
47944	0.943663	-0.423872	9.355109	-0.139954	0.310235	-0.406712	0.206423	-0.050882	-0.006149	-0.977120
47945	0.977854	-0.316966	9.015551	-0.174774	0.206150	-0.742754	0.206127	-0.050193	-0.007793	-0.977206
47946	0.914402	-0.066754	9.108966	-0.029766	0.039181	-0.657839	0.205982	-0.049225	-0.010185	-0.977264
47947	0.963014	-0.079775	9.152128	-0.104628	0.076304	-0.610613	0.205953	-0.048049	-0.013032	-0.977295
47948	0.979840	0.116006	9.368053	-0.055379	-0.053699	-0.393147	0.205936	-0.046768	-0.015771	-0.977320
47949	0.887393	0.268757	9.526660	0.070210	-0.108445	-0.241895	0.205783	-0.045472	-0.017880	-0.977377
47950	0.895381	0.128411	9.556671	-0.022869	0.047478	-0.213455	0.205459	-0.044188	-0.019408	-0.977475
47951	0.980347	0.142853	9.538007	-0.127537	0.023873	-0.224252	0.205031	-0.042789	-0.021037	-0.977593
47952	0.965641	0.287343	9.719637	-0.077376	-0.066390	-0.041515	0.204522	-0.041246	-0.022669	-0.977730
47953	0.990752	0.334331	9.937226	-0.102426	-0.084666	0.178510	0.203864	-0.039698	-0.023855	-0.977903
47954	0.848395	0.320971	10.194249	0.004865	0.011300	0.421826	0.203000	-0.038190	-0.024378	-0.978130
47955	0.860261	0.259924	10.318080	-0.051821	0.070206	0.544084	0.201987	-0.036955	-0.024346	-0.978388
47956	0.747378	0.224543	10.233242	0.010754	0.136628	0.449350	0.200941	-0.036064	-0.024237	-0.978639
47957	0.788590	0.242403	9.971757	-0.050282	0.086324	0.192640	0.199961	-0.035503	-0.024421	-0.978856
47958	0.744386	0.397244	9.709918	0.024941	-0.049956	-0.066340	0.199205	-0.035092	-0.024897	-0.979013
47959	0.727348	0.362986	9.731300	0.018209	-0.001506	-0.047513	0.198680	-0.034703	-0.025489	-0.979118
47960	0.714782	0.472804	9.897502	0.072684	-0.077123	0.121283	0.198336	-0.034401	-0.026045	-0.979184
47961	0.799116	0.585233	9.891176	0.033158	-0.207504	0.125737	0.198060	-0.034302	-0.026179	-0.979240
47962	0.816515	0.499851	9.773457	-0.024310	-0.143454	0.006469	0.197750	-0.034246	-0.026040	-0.979308
47963	0.840884	0.612484	9.689800	-0.007966	-0.265489	-0.070824	0.197415	-0.034208	-0.025804	-0.979383
47964	0.771273	0.575864	9.694027	0.041352	-0.209993	-0.073343	0.197123	-0.034100	-0.025498	-0.979454
47965	0.710904	0.665654	9.650783	0.128523	-0.278051	-0.117726	0.196901	-0.034031	-0.025215	-0.979508
47966	0.762928	0.601337	9.493309	0.047165	-0.255843	-0.273353	0.196737	-0.033976	-0.024753	-0.979555
47967	0.741191	0.647954	9.574546	0.090281	-0.294705	-0.192597	0.196627	-0.033923	-0.024243	-0.979591
47968	0.790337	0.502299	9.664553	-0.005149	-0.183965	-0.104617	0.196585	-0.033908	-0.023699	-0.979614
47969	0.746253	0.450098	9.860059	0.027849	-0.116986	0.085079	0.196647	-0.033920	-0.023233	-0.979612
47970	0.765847	0.516886	9.787004	0.034612	-0.199476	0.015748	0.196845	-0.034012	-0.022740	-0.979581
47971	0.750035	0.456547	9.712920	0.026102	-0.153729	-0.061407	0.197121	-0.034108	-0.021994	-0.979539
47972	0.743811	0.372136	9.649845	0.000725	-0.092578	-0.127510	0.197418	-0.034199	-0.021097	-0.979495
47973	0.778762	0.300982	9.671803	-0.052964	-0.056186	-0.105224	0.197726	-0.034239	-0.020210	-0.979451
47974	0.782979	0.204968	9.793499	-0.082583	0.020753	0.013829	0.198022	-0.034327	-0.019388	-0.979404
47975	0.787209	0.224422	9.856073	-0.069998	-0.011128	0.077065	0.198269	-0.034447	-0.018579	-0.979366
47976	0.793763	0.343412	9.853460	-0.022951	-0.141447	0.077615	0.198486	-0.034633	-0.017474	-0.979336
47977	0.712908	0.170072	9.909590	-0.003774	0.027226	0.123926	0.198528	-0.034851	-0.015939	-0.979346
47978	0.730951	-0.153421	9.805864	-0.142600	0.286545	0.016366	0.198458	-0.035093	-0.014608	-0.979372
47979	0.814273	-0.094174	9.596379	-0.201100	0.171571	-0.184993	0.198364	-0.035226	-0.013843	-0.979397
47980	0.746564	0.044568	9.546391	-0.084518	0.058036	-0.237594	0.198260	-0.035230	-0.013511	-0.979423
47981	0.727503	0.195640	9.599546	-0.005383	-0.075275	-0.183922	0.198165	-0.035105	-0.013465	-0.979447
47982	0.709479	0.305101	9.889489	0.069211	-0.159734	0.105384	0.198092	-0.034961	-0.013324	-0.979469
47983	0.785302	0.410426	9.904889	0.040375	-0.291102	0.127413	0.198014	-0.034896	-0.012927	-0.979493
47984	0.766103	0.409111	9.696147	0.045898	-0.301870	-0.082513	0.197948	-0.034851	-0.012170	-0.979517
47985	0.857104	0.373430	9.522888	-0.060699	-0.326747	-0.249790	0.197836	-0.034731	-0.011257	-0.979555
47986	0.788429	0.360260	9.553706	-0.000249	-0.306710	-0.224643	0.197681	-0.034512	-0.010122	-0.979606
47987	0.758067	0.255539	9.733792	-0.002602	-0.213091	-0.048404	0.197524	-0.034257	-0.009163	-0.979656
47988	0.737759	0.188781	9.826191	-0.006244	-0.156620	0.041722	0.197432	-0.033995	-0.008571	-0.979689
47989	0.721834	0.179714	9.952298	0.008998	-0.146032	0.166299	0.197510	-0.033751	-0.008466	-0.979683
47990	0.727884	0.276694	9.906548	0.034210	-0.239838	0.121464	0.197748	-0.033572	-0.008593	-0.979640
47991	0.685366	0.331440	9.826252	0.087475	-0.275680	0.038767	0.198119	-0.033517	-0.008588	-0.979567
47992	0.718451	0.308038	9.753190	0.044581	-0.272060	-0.032107	0.198557	-0.033583	-0.008307	-0.979478
47993	0.719400	0.237918	9.712183	0.017824	-0.216207	-0.073408	0.199098	-0.033730	-0.007825	-0.979368
47994	0.708818	0.175426	9.767918	0.012613	-0.163745	-0.018892	0.199640	-0.033946	-0.007140	-0.979255
47995	0.689757	0.113100	9.877569	0.019649	-0.108301	0.088969	0.200200	-0.034175	-0.006487	-0.979137
47996	0.732120	0.065294	9.893144	-0.029265	-0.091671	0.107256	0.200771	-0.034469	-0.005922	-0.979014
47997	0.715837	0.065839	9.833606	-0.009747	-0.096711	0.046679	0.201371	-0.034769	-0.005434	-0.978883
47998	0.674205	0.018580	9.823272	0.016777	-0.044525	0.033596	0.202014	-0.035065	-0.005076	-0.978742
47999	0.726251	-0.028549	9.820127	-0.042826	-0.026881	0.034169	0.202622	-0.035345	-0.004841	-0.978607
48000	0.739918	-0.035272	9.765662	-0.055210	-0.030258	-0.019174	0.203192	-0.035629	-0.004711	-0.978479
48001	0.737017	-0.033383	9.783603	-0.044657	-0.031676	-0.001459	0.203704	-0.035907	-0.004637	-0.978363
48002	0.735651	-0.105270	9.752849	-0.068460	0.033564	-0.031864	0.204189	-0.036181	-0.004586	-0.978252
48003	0.708430	-0.002766	9.767401	0.003856	-0.049516	-0.019755	0.204660	-0.036443	-0.004528	-0.978144
48004	0.791338	0.084125	9.716605	-0.032890	-0.169085	-0.065072	0.205007	-0.036813	-0.003898	-0.978060
48005	0.800469	-0.069853	9.685912	-0.093843	-0.047940	-0.094078	0.205258	-0.037241	-0.002753	-0.977995
48006	0.749033	-0.263929	9.638425	-0.116045	0.130169	-0.143173	0.205449	-0.037625	-0.001715	-0.977943
48007	0.789574	-0.326442	9.585441	-0.172856	0.158597	-0.192103	0.205652	-0.037921	-0.001411	-0.977889
48008	0.881960	-0.145427	9.561743	-0.181134	-0.046364	-0.211074	0.205904	-0.038090	-0.001466	-0.977829
48009	0.765748	0.023696	9.672625	0.004087	-0.152598	-0.110971	0.206115	-0.038226	-0.001340	-0.977780
48010	0.806789	-0.124939	9.635074	-0.091703	-0.039167	-0.143602	0.206274	-0.038405	-0.000850	-0.977740
48011	0.777381	-0.208027	9.548927	-0.100613	0.041230	-0.230528	0.206460	-0.038507	-0.000663	-0.977697
48012	0.739207	-0.066680	9.586367	-0.005069	-0.073009	-0.197910	0.206656	-0.038478	-0.000746	-0.977657
48013	0.824048	-0.140598	9.598050	-0.113437	-0.038338	-0.179046	0.206853	-0.038329	-0.000841	-0.977621
48014	0.753422	-0.041170	9.763254	-0.000065	-0.097843	-0.020808	0.207021	-0.038156	-0.000829	-0.977592
48015	0.767343	-0.208369	9.735224	-0.085613	0.049063	-0.045544	0.207178	-0.038017	-0.000938	-0.977564
48016	0.732384	-0.163452	9.744864	-0.038351	0.026232	-0.039084	0.207317	-0.037891	-0.001307	-0.977539
48017	0.738829	-0.092246	9.847177	-0.011713	-0.031916	0.062539	0.207502	-0.037816	-0.001794	-0.977502
48018	0.790351	-0.024355	9.817460	-0.035254	-0.108642	0.035903	0.207692	-0.037828	-0.002039	-0.977460
48019	0.740041	-0.062603	9.782793	-0.007311	-0.051055	-0.001879	0.207870	-0.037883	-0.002096	-0.977420
48020	0.725343	-0.084355	9.816343	0.001405	-0.023394	0.030751	0.208079	-0.038028	-0.002132	-0.977370
48021	0.699984	-0.149228	9.833508	0.001933	0.049156	0.046709	0.208333	-0.038198	-0.002321	-0.977309
48022	0.758286	-0.063675	9.799339	-0.016813	-0.047311	0.016024	0.208660	-0.038345	-0.002720	-0.977232
48023	0.782373	-0.022953	9.832593	-0.017887	-0.087635	0.050604	0.209038	-0.038502	-0.002905	-0.977145
48024	0.822125	0.001511	9.828994	-0.040329	-0.125897	0.049743	0.209386	-0.038738	-0.002705	-0.977062
48025	0.833290	-0.123445	9.793815	-0.096465	-0.024492	0.016784	0.209624	-0.039108	-0.002045	-0.976998
48026	0.805865	-0.293907	9.729882	-0.136616	0.130557	-0.046896	0.209808	-0.039461	-0.001489	-0.976945
48027	0.797684	-0.302846	9.758919	-0.123107	0.138463	-0.018292	0.209982	-0.039782	-0.001483	-0.976894
48028	0.808166	-0.198394	9.732129	-0.087173	0.043700	-0.045533	0.210245	-0.040037	-0.001943	-0.976827
48029	0.807765	-0.184151	9.750131	-0.076608	0.042247	-0.027813	0.210527	-0.040320	-0.002546	-0.976753
48030	0.867328	-0.025562	9.589964	-0.073503	-0.120898	-0.184588	0.210772	-0.040641	-0.002823	-0.976686
48031	0.875975	-0.035956	9.546500	-0.082895	-0.114860	-0.227062	0.210969	-0.040952	-0.002548	-0.976631
48032	0.855639	-0.135882	9.549243	-0.097836	-0.021529	-0.224748	0.211134	-0.041276	-0.002049	-0.976583
48033	0.841784	-0.197337	9.543693	-0.103188	0.032315	-0.230521	0.211250	-0.041583	-0.001601	-0.976546
48034	0.819952	-0.250768	9.556606	-0.097858	0.085118	-0.218569	0.211416	-0.041834	-0.001395	-0.976499
48035	0.915298	-0.170938	9.618677	-0.142028	-0.026973	-0.150129	0.211639	-0.042009	-0.001392	-0.976444
48036	0.839124	-0.206309	9.536573	-0.091435	0.035461	-0.237547	0.211906	-0.042109	-0.001408	-0.976381
48037	0.933299	-0.239910	9.503511	-0.191748	0.026687	-0.262408	0.212132	-0.042183	-0.001413	-0.976329
48038	0.928184	-0.191086	9.417930	-0.173258	-0.016694	-0.348801	0.212258	-0.042168	-0.001492	-0.976302
48039	0.945485	-0.215104	9.409547	-0.200923	-0.000692	-0.355446	0.212328	-0.042077	-0.001610	-0.976291
48040	0.905740	-0.226231	9.456180	-0.169433	0.030281	-0.312095	0.212388	-0.041873	-0.001932	-0.976286
48041	0.838020	-0.157779	9.540218	-0.079437	0.003267	-0.234765	0.212437	-0.041543	-0.002311	-0.976289
48042	0.844908	-0.185270	9.579431	-0.102621	0.032536	-0.194887	0.212436	-0.041139	-0.002761	-0.976305
48043	0.846676	-0.129648	9.500389	-0.096208	-0.015209	-0.274262	0.212393	-0.040745	-0.003058	-0.976330
48044	0.877094	-0.022738	9.510722	-0.085832	-0.124132	-0.262773	0.212329	-0.040419	-0.002989	-0.976357
48045	0.809800	-0.070700	9.602736	-0.042574	-0.055786	-0.175863	0.212319	-0.040142	-0.002622	-0.976372
48046	0.807084	-0.179711	9.575641	-0.090948	0.035254	-0.201909	0.212367	-0.039865	-0.002189	-0.976374
48047	0.764589	-0.210713	9.579425	-0.068732	0.072683	-0.201009	0.212486	-0.039576	-0.001850	-0.976361
48048	0.777290	-0.183083	9.649175	-0.068263	0.036238	-0.130833	0.212614	-0.039231	-0.001547	-0.976347
48049	0.797694	-0.279135	9.641248	-0.133073	0.108122	-0.135989	0.212744	-0.038839	-0.001298	-0.976335
48050	0.843256	-0.201782	9.608051	-0.151788	0.011687	-0.166794	0.212773	-0.038367	-0.001050	-0.976348
48051	0.853967	-0.190341	9.706794	-0.157523	-0.010464	-0.067822	0.212665	-0.037844	-0.000550	-0.976392
48052	0.767997	-0.289205	9.992442	-0.108461	0.106473	0.212243	0.212373	-0.037263	0.000131	-0.976478
48053	0.692698	-0.417166	10.034745	-0.099543	0.241525	0.251194	0.212060	-0.036648	0.000571	-0.976569
48054	0.693433	-0.418938	10.041685	-0.111733	0.236702	0.258225	0.211749	-0.036021	0.000526	-0.976660
48055	0.696944	-0.335804	10.062302	-0.091127	0.161205	0.277611	0.211423	-0.035499	0.000216	-0.976750
48056	0.597851	-0.264381	10.133560	0.023029	0.142869	0.340903	0.211108	-0.035133	-0.000120	-0.976831
48057	0.588693	-0.212557	10.084025	0.043069	0.103421	0.290121	0.210823	-0.034976	-0.000354	-0.976898
48058	0.644639	-0.269995	10.091281	-0.033386	0.136376	0.301792	0.210625	-0.034967	-0.000499	-0.976941
48059	0.705412	-0.163938	10.017922	-0.048838	0.016286	0.231246	0.210480	-0.035123	-0.000584	-0.976967
48060	0.774194	-0.230697	10.006370	-0.135969	0.050300	0.225192	0.210332	-0.035353	-0.000570	-0.976990
48061	0.875285	-0.191947	9.909134	-0.214270	-0.026552	0.134537	0.210111	-0.035559	-0.000630	-0.977031
48062	0.757581	-0.087772	9.838554	-0.066587	-0.072509	0.054890	0.209723	-0.035648	-0.000665	-0.977111
48063	0.643497	-0.000813	9.892666	0.076536	-0.101829	0.100067	0.209204	-0.035626	-0.000828	-0.977222
48064	0.587981	0.016506	9.736458	0.121607	-0.090956	-0.059660	0.208660	-0.035593	-0.001333	-0.977339
48065	0.664118	0.178478	9.564603	0.102023	-0.257199	-0.227390	0.208334	-0.035484	-0.002498	-0.977411
48066	0.613885	0.445871	9.542506	0.247130	-0.456000	-0.254132	0.208357	-0.035318	-0.004092	-0.977407
48067	0.567067	0.393269	9.496427	0.254841	-0.357800	-0.301364	0.208814	-0.035081	-0.006035	-0.977307
48068	0.597024	0.470068	9.552215	0.252351	-0.403642	-0.242134	0.209683	-0.034967	-0.007926	-0.977112
48069	0.717466	0.504181	9.516250	0.149550	-0.456247	-0.268191	0.210875	-0.035081	-0.009150	-0.976841
48070	0.730230	0.406400	9.596183	0.105751	-0.353533	-0.187255	0.212369	-0.035500	-0.009607	-0.976497
48071	0.824523	0.140052	9.581975	-0.080744	-0.147425	-0.195753	0.213976	-0.036123	-0.009384	-0.976126
48072	0.797683	-0.007058	9.570201	-0.103862	-0.009175	-0.209865	0.215575	-0.036825	-0.008804	-0.975753
48073	0.837046	-0.299668	9.559791	-0.248213	0.228762	-0.217581	0.217044	-0.037453	-0.008131	-0.975409
48074	0.857016	-0.345086	9.772366	-0.258995	0.257612	-0.003547	0.218234	-0.037878	-0.007613	-0.975131
48075	0.882969	-0.387115	9.859458	-0.285023	0.275891	0.085849	0.218992	-0.038175	-0.006908	-0.974955
48076	0.896973	-0.593289	9.933101	-0.373704	0.444855	0.161553	0.219235	-0.038296	-0.006179	-0.974901
48077	0.860006	-0.603954	10.010343	-0.335909	0.459859	0.236542	0.219050	-0.038256	-0.005598	-0.974947
48078	0.829208	-0.572367	10.079295	-0.288521	0.435383	0.303368	0.218478	-0.038149	-0.005043	-0.975083
48079	0.775098	-0.587140	10.047927	-0.248000	0.462890	0.268512	0.217644	-0.038038	-0.004736	-0.975275
48080	0.722070	-0.500244	9.965040	-0.169992	0.401577	0.181485	0.216648	-0.037908	-0.004680	-0.975502
48081	0.722686	-0.319136	9.854702	-0.102848	0.233892	0.070328	0.215575	-0.037842	-0.004618	-0.975743
48082	0.668888	-0.171795	9.788767	0.003163	0.121641	-0.000344	0.214525	-0.037877	-0.004640	-0.975973
48083	0.729480	-0.117386	9.739931	-0.031001	0.046034	-0.044929	0.213513	-0.037969	-0.004547	-0.976191
48084	0.799129	-0.035470	9.639819	-0.064827	-0.062491	-0.140156	0.212508	-0.038039	-0.004246	-0.976409
48085	0.773917	-0.082028	9.581986	-0.062531	-0.017462	-0.199368	0.211481	-0.038129	-0.003744	-0.976631
48086	0.765655	-0.155323	9.515979	-0.087791	0.043994	-0.265197	0.210411	-0.038106	-0.003370	-0.976864
48087	0.767875	-0.055294	9.489123	-0.051816	-0.050718	-0.292662	0.209434	-0.037959	-0.003469	-0.977080
48088	0.755357	0.049085	9.492038	-0.002232	-0.137182	-0.291504	0.208540	-0.037720	-0.003759	-0.977279
48089	0.764467	0.184590	9.449692	0.035602	-0.260947	-0.333985	0.207838	-0.037461	-0.004016	-0.977438
48090	0.760378	0.266931	9.462748	0.068298	-0.332066	-0.321739	0.207315	-0.037252	-0.004050	-0.977556
48091	0.711076	0.288786	9.494922	0.121449	-0.336283	-0.293510	0.206884	-0.037099	-0.003534	-0.977656
48092	0.786608	0.197972	9.483320	0.014500	-0.296227	-0.299364	0.206493	-0.036968	-0.002777	-0.977745
48093	0.820326	0.075934	9.450525	-0.068714	-0.212847	-0.328960	0.206151	-0.036726	-0.002080	-0.977829
48094	0.773007	0.066212	9.678981	-0.017136	-0.192918	-0.104594	0.205869	-0.036376	-0.001551	-0.977902
48095	0.735903	0.023188	9.735942	-0.002562	-0.146736	-0.050049	0.205664	-0.035956	-0.001262	-0.977961
48096	0.746018	0.028922	9.695799	-0.019211	-0.164725	-0.089602	0.205441	-0.035512	-0.000879	-0.978025
48097	0.775133	-0.120819	9.695528	-0.113443	-0.047364	-0.086251	0.205276	-0.035043	-0.000592	-0.978076
48098	0.756609	-0.120212	9.750379	-0.101367	-0.045046	-0.032887	0.205142	-0.034526	-0.000504	-0.978123
48099	0.771722	-0.050224	9.848117	-0.089831	-0.117293	0.064643	0.204973	-0.034066	-0.000413	-0.978175
48100	0.774365	-0.071445	9.823224	-0.108342	-0.106227	0.040102	0.204752	-0.033792	0.000081	-0.978230
48101	0.641579	-0.147213	9.773108	-0.021769	0.002511	-0.017463	0.204515	-0.033669	0.000896	-0.978284
48102	0.630115	-0.256819	9.667784	-0.061075	0.090334	-0.121602	0.204288	-0.033534	0.001718	-0.978335
48103	0.589594	-0.307522	9.699304	-0.045085	0.141990	-0.091757	0.204100	-0.033140	0.001998	-0.978387
48104	0.469803	-0.211308	9.881328	0.105927	0.098864	0.080997	0.203889	-0.032589	0.002006	-0.978449
48105	0.560126	-0.132445	10.023676	0.052646	-0.010214	0.227356	0.203648	-0.032021	0.001986	-0.978518
48106	0.505012	-0.136388	10.016723	0.091737	0.011852	0.217259	0.203446	-0.031606	0.002166	-0.978573
48107	0.577978	-0.287339	9.859959	-0.051130	0.116618	0.067555	0.203365	-0.031312	0.002182	-0.978600
48108	0.643146	-0.244209	9.961976	-0.091344	0.051955	0.172461	0.203412	-0.031228	0.002090	-0.978593
48109	0.638706	-0.278504	9.934226	-0.102566	0.087150	0.145035	0.203484	-0.031360	0.001961	-0.978574
48110	0.629459	-0.283023	9.824693	-0.099919	0.099382	0.035208	0.203577	-0.031592	0.001602	-0.978548
48111	0.612664	-0.258510	9.669260	-0.081890	0.092477	-0.121377	0.203676	-0.031803	0.000956	-0.978521
48112	0.557807	-0.121344	9.643418	0.020843	0.003885	-0.152413	0.203805	-0.031862	0.000002	-0.978493
48113	0.596446	-0.000750	9.653656	0.031209	-0.105092	-0.141246	0.203939	-0.031854	-0.000825	-0.978465
48114	0.650307	0.083970	9.691425	0.015529	-0.193829	-0.101052	0.204063	-0.031816	-0.001059	-0.978440
48115	0.573248	-0.056362	9.731147	0.031700	-0.034752	-0.064621	0.204149	-0.031768	-0.000753	-0.978424
48116	0.628677	-0.208938	9.797085	-0.074548	0.076501	0.006190	0.204183	-0.031811	-0.000290	-0.978416
48117	0.626895	-0.282436	9.790843	-0.099722	0.136349	0.000815	0.204126	-0.031890	0.000122	-0.978425
48118	0.671343	-0.290508	9.869485	-0.136027	0.121002	0.082194	0.203998	-0.031967	0.000373	-0.978449
48119	0.714307	-0.228294	9.858347	-0.148859	0.043259	0.072925	0.203785	-0.032045	0.000524	-0.978491
48120	0.664072	-0.281541	9.720057	-0.130187	0.109308	-0.067387	0.203548	-0.032169	0.000556	-0.978536
48121	0.650631	-0.214441	9.659641	-0.093224	0.054693	-0.129388	0.203309	-0.032249	0.000346	-0.978583
48122	0.674794	-0.100436	9.628058	-0.072271	-0.053688	-0.160910	0.203035	-0.032261	-0.000059	-0.978640
48123	0.705473	-0.046163	9.675109	-0.077728	-0.109004	-0.112706	0.202748	-0.032198	-0.000282	-0.978701
48124	0.583743	0.044362	9.807124	0.076100	-0.141262	0.010584	0.202436	-0.032125	-0.000147	-0.978768
48125	0.492689	-0.186142	9.934452	0.076074	0.104284	0.134878	0.202092	-0.032143	0.000118	-0.978839
48126	0.529201	-0.310053	9.773394	-0.015025	0.201548	-0.022153	0.201805	-0.032230	-0.000107	-0.978895
48127	0.599549	-0.248440	9.707409	-0.059846	0.127147	-0.084625	0.201668	-0.032291	-0.000974	-0.978921
48128	0.535774	-0.013492	9.779919	0.094151	-0.045396	-0.018653	0.201663	-0.032415	-0.001846	-0.978917
48129	0.576431	0.017344	9.847979	0.074725	-0.076108	0.051586	0.201712	-0.032702	-0.002195	-0.978896
48130	0.637015	-0.191625	9.637434	-0.070486	0.094125	-0.153039	0.201797	-0.033107	-0.002318	-0.978865
48131	0.632090	-0.251039	9.379009	-0.098880	0.151621	-0.410795	0.201979	-0.033488	-0.002645	-0.978814
48132	0.651082	-0.199811	9.430517	-0.089320	0.110004	-0.358674	0.202268	-0.033733	-0.003507	-0.978743
48133	0.750604	-0.107892	9.485916	-0.141284	0.008014	-0.297564	0.202764	-0.033864	-0.004830	-0.978630
48134	0.876252	0.292874	9.698793	-0.084695	-0.383610	-0.077913	0.203393	-0.034071	-0.005731	-0.978487
48135	0.747723	0.260936	9.777195	0.029585	-0.294720	-0.007945	0.204000	-0.034403	-0.005450	-0.978351
48136	0.768473	-0.051905	9.740213	-0.106056	-0.027140	-0.042683	0.204545	-0.034904	-0.004554	-0.978224
48137	0.911890	-0.248931	9.593732	-0.312702	0.081037	-0.177916	0.205036	-0.035445	-0.004068	-0.978104
48138	0.979706	-0.190927	9.472659	-0.349844	-0.001994	-0.294014	0.205518	-0.035873	-0.004424	-0.977986
48139	0.875535	-0.004830	9.569731	-0.167668	-0.118116	-0.205177	0.206022	-0.036248	-0.005046	-0.977863
48140	0.873485	0.159878	9.437803	-0.103818	-0.260226	-0.337343	0.206478	-0.036531	-0.005516	-0.977753
48141	0.860054	0.054384	9.355846	-0.137213	-0.153619	-0.419494	0.206787	-0.036632	-0.005740	-0.977683
48142	0.918418	-0.100483	9.240901	-0.263489	-0.031125	-0.529507	0.206891	-0.036409	-0.006387	-0.977665
48143	0.877752	0.264313	9.335056	-0.083548	-0.333094	-0.439022	0.206839	-0.035745	-0.007307	-0.977694
48144	0.886740	0.354712	9.371068	-0.072112	-0.403753	-0.402015	0.206583	-0.034732	-0.008317	-0.977777
48145	0.792137	0.364260	9.610130	0.009389	-0.356916	-0.169699	0.206067	-0.033586	-0.008828	-0.977921
48146	0.773583	0.253149	9.590193	-0.043765	-0.246055	-0.191263	0.205410	-0.032386	-0.009021	-0.978098
48147	0.716602	0.219693	9.659900	-0.026293	-0.190695	-0.125669	0.204802	-0.031074	-0.009282	-0.978266
48148	0.679743	0.269974	9.867702	0.011997	-0.214037	0.079758	0.204345	-0.029758	-0.009701	-0.978398
48149	0.627707	0.294324	9.899031	0.045301	-0.212317	0.108213	0.204135	-0.028605	-0.010016	-0.978474
48150	0.606395	0.279564	9.694303	0.026624	-0.195830	-0.097427	0.204073	-0.027578	-0.010237	-0.978514
48151	0.577337	0.404985	9.595290	0.079452	-0.303965	-0.196649	0.204205	-0.026618	-0.010252	-0.978512
48152	0.441172	0.366520	9.908215	0.186226	-0.211851	0.108104	0.204461	-0.025739	-0.009884	-0.978486
48153	0.462442	0.024687	9.994214	0.018346	0.088332	0.191842	0.204825	-0.024967	-0.009881	-0.978430
48154	0.473326	0.026881	10.079048	-0.002969	0.086566	0.277131	0.205328	-0.024238	-0.010430	-0.978337
48155	0.516232	0.052908	10.207672	-0.042179	0.059987	0.407902	0.205968	-0.023665	-0.011246	-0.978208
48156	0.518957	0.142988	10.165073	-0.021652	-0.013792	0.366595	0.206713	-0.023332	-0.011765	-0.978053
48157	0.578892	-0.004773	9.779575	-0.156928	0.088100	-0.017646	0.207450	-0.023155	-0.011754	-0.977901
48158	0.424869	-0.035504	9.683037	-0.035096	0.171936	-0.121858	0.208135	-0.022998	-0.011510	-0.977762
48159	0.340276	-0.105075	9.808176	0.016825	0.267705	-0.001714	0.208669	-0.022873	-0.011198	-0.977655
48160	0.297232	0.015498	9.905130	0.107594	0.171142	0.094851	0.209102	-0.022719	-0.010847	-0.977570
48161	0.431308	-0.081551	9.843947	-0.058446	0.196486	0.038909	0.209466	-0.022562	-0.010599	-0.977498
48162	0.527416	-0.076722	9.674150	-0.152148	0.142723	-0.126113	0.209847	-0.022443	-0.010414	-0.977421
48163	0.615000	0.030475	9.336998	-0.200675	-0.006433	-0.457562	0.210343	-0.022415	-0.010068	-0.977319
48164	0.612632	0.014754	8.934958	-0.217584	-0.013335	-0.859393	0.210941	-0.022447	-0.009272	-0.977197
48165	0.570074	-0.020482	8.578491	-0.202954	0.010941	-1.217655	0.211677	-0.022462	-0.008300	-0.977046
48166	0.427965	-0.161287	8.138815	-0.147538	0.172608	-1.664196	0.212464	-0.022235	-0.007681	-0.976886
48167	0.455948	-0.171237	7.696016	-0.200751	0.154391	-2.105436	0.213248	-0.021493	-0.007970	-0.976729
48168	0.611412	-0.080492	7.265048	-0.337352	0.003417	-2.529326	0.214156	-0.020129	-0.009196	-0.976549
48169	0.650103	0.191723	6.919363	-0.299413	-0.252885	-2.871272	0.215155	-0.017870	-0.011240	-0.976352
48170	0.546783	0.505065	6.616244	-0.123527	-0.483946	-3.173479	0.216256	-0.014644	-0.013333	-0.976136
48171	0.468258	0.482790	6.293617	-0.119888	-0.425600	-3.498720	0.217326	-0.010413	-0.015397	-0.975922
48172	0.089513	0.800930	5.975411	0.293196	-0.552181	-3.815705	0.218290	-0.005097	-0.017389	-0.975716
48173	-0.363349	0.888647	6.022416	0.666820	-0.428383	-3.765995	0.219273	0.001426	-0.019320	-0.975471
48174	-0.421230	0.924573	6.552496	0.634807	-0.409157	-3.225111	0.220387	0.009136	-0.021508	-0.975133
48175	-0.625053	1.003744	6.966482	0.727048	-0.369197	-2.793864	0.221618	0.017675	-0.023878	-0.974681
48176	-0.753274	1.072000	6.920710	0.748242	-0.369937	-2.818782	0.222936	0.026736	-0.026130	-0.974116
48177	-1.039260	1.018863	6.601537	0.872047	-0.201866	-3.112263	0.224216	0.036417	-0.028891	-0.973430
48178	-1.363358	1.586850	6.476725	1.282081	-0.561794	-3.152080	0.225497	0.046810	-0.032044	-0.972591
48179	-1.360160	1.502672	6.649631	1.074285	-0.468120	-2.960658	0.226760	0.058003	-0.035037	-0.971590
48180	-2.063195	2.239958	7.627647	1.719379	-0.770238	-1.818787	0.228040	0.070009	-0.037201	-0.970419
48181	-2.423593	1.794299	8.195621	1.552711	-0.197326	-1.221546	0.229376	0.082503	-0.038615	-0.969066
48182	-2.234462	1.743668	8.625774	1.067146	-0.241938	-0.799612	0.230836	0.095085	-0.039782	-0.967518
48183	-2.601729	1.688899	8.492753	1.166428	-0.055618	-0.847186	0.232500	0.107770	-0.040741	-0.965748
48184	-3.200565	1.798409	8.266950	1.557819	0.094853	-0.903145	0.234297	0.120668	-0.042281	-0.963720
48185	-3.407969	1.651984	8.055581	1.489683	0.303314	-1.042306	0.236103	0.134116	-0.044178	-0.961414
48186	-3.462980	2.293389	8.367769	1.489016	-0.249181	-0.593851	0.237938	0.147562	-0.045231	-0.958939
48187	-4.011469	2.699403	8.251542	1.923621	-0.391063	-0.452765	0.240151	0.160976	-0.044357	-0.956267
48188	-4.623698	2.052156	8.058539	1.969526	0.405450	-0.513164	0.242848	0.174415	-0.042235	-0.953321
48189	-5.053754	1.497268	7.761265	1.933838	1.043934	-0.692146	0.245536	0.188028	-0.041825	-0.950057
48190	-5.413793	1.059814	7.319770	1.932752	1.586491	-0.994957	0.247801	0.202503	-0.044266	-0.946376
48191	-5.343769	2.296815	7.707455	1.989402	0.467535	-0.375955	0.249680	0.217668	-0.047185	-0.942366
48192	-5.492674	2.664537	8.053791	1.807207	0.207239	0.127874	0.251679	0.233445	-0.049215	-0.937944
48193	-6.012795	3.317799	8.487042	1.974251	-0.160266	0.923177	0.254663	0.248822	-0.047483	-0.933263
48194	-6.406515	2.412098	8.403403	1.591979	0.723350	0.883686	0.258251	0.263344	-0.043089	-0.928493
48195	-6.693961	1.496279	7.162317	1.732135	1.614745	-0.182977	0.261714	0.277726	-0.038868	-0.923506
48196	-6.700977	1.342589	5.934975	2.047492	1.760005	-1.173662	0.264089	0.292758	-0.037345	-0.918235
48197	-6.407992	1.834878	6.138269	1.669690	1.114241	-0.976988	0.265778	0.309439	-0.037107	-0.912268
48198	-6.866426	2.367487	7.991383	0.785264	0.633437	0.938291	0.267213	0.327174	-0.036160	-0.905675
48199	-7.620029	2.698604	8.985254	0.408377	0.490188	2.256212	0.269034	0.344591	-0.032458	-0.898791
48200	-8.297340	2.253481	8.147391	0.761268	1.130266	1.953005	0.271032	0.360987	-0.025978	-0.891939
48201	-8.706628	1.474368	6.427851	1.418957	2.053614	0.819914	0.272329	0.377031	-0.018853	-0.885059
48202	-9.048117	1.335215	4.814174	2.306897	2.441666	-0.038666	0.271750	0.393775	-0.013981	-0.878008
48203	-9.693671	0.833405	5.575873	1.527345	2.875497	0.917416	0.269341	0.411539	-0.011273	-0.870611
48204	-9.502245	1.790704	7.279910	0.219181	1.444602	2.201573	0.265628	0.429507	-0.009753	-0.863059
48205	-9.625989	2.164971	7.816002	-0.395108	0.864527	2.737718	0.262169	0.446971	-0.006497	-0.855244
48206	-9.779413	2.150749	7.190103	-0.272253	0.850650	2.481370	0.259264	0.463449	-0.001237	-0.847347
48207	-9.698530	1.366160	6.541873	-0.524320	1.397605	1.869750	0.256608	0.479096	0.005218	-0.839400
48208	-9.437128	1.258968	5.502693	-0.194895	1.403629	1.091530	0.252864	0.494569	0.010685	-0.831473
48209	-9.726656	0.777001	4.041590	0.557899	2.123254	0.517502	0.246766	0.511374	0.013014	-0.823063
48210	-10.207673	0.965172	3.361401	0.999097	2.145759	0.713859	0.237176	0.530115	0.010852	-0.814007
48211	-10.960314	2.118212	4.047741	0.654318	1.037191	1.997091	0.224858	0.550158	0.005668	-0.804197
48212	-11.725229	3.272507	6.236901	-1.192308	-0.474269	3.803810	0.212574	0.569381	0.001283	-0.794114
48213	-11.677608	3.712933	7.333141	-2.641202	-1.339905	4.155992	0.201732	0.586823	-0.001179	-0.784182
48214	-11.160797	4.354171	6.792686	-2.590735	-2.155176	3.539546	0.193721	0.602020	-0.000577	-0.774625
48215	-10.671132	4.340087	5.547941	-1.964041	-2.200260	2.628128	0.188988	0.615547	0.002801	-0.765099
48216	-10.665992	4.191908	4.757151	-1.625653	-2.072258	2.312328	0.187208	0.627956	0.007849	-0.755356
48217	-10.962059	4.179539	5.307237	-2.428230	-2.302180	2.620923	0.188094	0.639004	0.013918	-0.745722
48218	-10.793341	3.251534	4.929613	-2.649669	-1.549279	2.101193	0.190525	0.648755	0.019396	-0.736506
48219	-10.470282	2.498981	4.085415	-2.369437	-0.814224	1.424690	0.192056	0.657892	0.021881	-0.727883
48220	-10.485294	2.844613	3.824471	-2.277465	-1.117974	1.421936	0.191466	0.666825	0.021175	-0.719887
48221	-10.525007	3.864823	4.090537	-2.483715	-2.166409	1.658008	0.190068	0.675191	0.019676	-0.712464
48222	-10.500568	5.298220	3.834597	-2.052838	-3.469893	1.882551	0.190460	0.682441	0.020405	-0.705396
48223	-10.580376	4.798753	4.889859	-3.390037	-3.346397	1.857361	0.192963	0.687885	0.022902	-0.699325
48224	-10.842427	3.922349	7.987116	-6.729509	-3.445685	2.001580	0.196008	0.691097	0.024382	-0.695250
48225	-10.153899	1.305734	7.346507	-6.979778	-1.004966	0.629997	0.196207	0.693525	0.022199	-0.692844
48226	-10.043404	1.235198	5.617473	-5.414422	-0.399459	0.408648	0.194872	0.694970	0.019082	-0.691865
48227	-9.582796	2.035079	3.308235	-2.989396	-0.527318	0.071709	0.193373	0.695628	0.016848	-0.691683
48228	-9.560924	3.490315	1.965955	-1.302343	-1.471415	0.365592	0.192495	0.696025	0.015590	-0.691557
48229	-9.544484	3.725682	1.043720	-0.355262	-1.416455	0.382147	0.194231	0.695735	0.016427	-0.691345
48230	-9.507116	3.744779	0.321613	0.355770	-1.209280	0.332411	0.197169	0.694998	0.017404	-0.691230
48231	-9.588515	3.741240	-0.202341	0.878053	-0.985581	0.396854	0.202638	0.693603	0.020045	-0.690978
48232	-9.508320	2.983360	-1.003370	1.442923	0.001055	0.098559	0.209061	0.691900	0.023054	-0.690679
48233	-9.217332	3.202817	-0.912340	1.469132	-0.227877	-0.125646	0.215760	0.690213	0.026006	-0.690201
48234	-9.089817	3.016907	-0.594697	1.142564	-0.121526	-0.285916	0.223392	0.688349	0.029694	-0.689485
48235	-8.983380	2.559208	-0.066086	0.518939	0.149165	-0.487288	0.231192	0.686474	0.033578	-0.688604
48236	-8.858729	2.114386	0.482927	-0.129830	0.372636	-0.700884	0.237984	0.684850	0.036347	-0.687767
48237	-8.773006	2.324883	0.724734	-0.258515	0.125632	-0.712517	0.243533	0.683501	0.037880	-0.687083
48238	-9.144668	2.196848	0.380606	-0.005097	0.527815	-0.414969	0.247922	0.682445	0.038554	-0.686525
48239	-9.436641	2.462724	0.147116	0.298306	0.519901	-0.077320	0.251091	0.681693	0.038552	-0.686121
48240	-9.458205	2.774092	0.209079	0.365469	0.272855	0.035602	0.254073	0.680955	0.039084	-0.685726
48241	-9.415807	2.656473	0.318413	0.226022	0.351180	-0.033057	0.256914	0.680203	0.040269	-0.685345
48242	-9.447245	2.715139	0.735056	-0.122328	0.162209	0.042333	0.259812	0.679373	0.042231	-0.684958
48243	-9.502211	2.388538	0.827351	-0.333050	0.434173	0.004756	0.262449	0.678637	0.044287	-0.684552
48244	-9.623486	2.311174	0.866608	-0.401539	0.527731	0.100146	0.264193	0.678225	0.045586	-0.684203
48245	-9.587421	2.357890	0.803305	-0.320854	0.509454	0.074733	0.265239	0.678069	0.046174	-0.683914
48246	-9.485583	2.451488	0.747854	-0.227009	0.428425	0.001093	0.265792	0.678078	0.046220	-0.683688
48247	-9.423217	2.695956	0.842346	-0.208042	0.167405	0.021103	0.266346	0.678075	0.046217	-0.683475
48248	-9.373720	2.829243	0.923275	-0.222512	0.011636	0.019608	0.267321	0.677892	0.046647	-0.683247
48249	-9.506239	2.809983	0.951347	-0.260017	0.063474	0.142110	0.268981	0.677388	0.047851	-0.683012
48250	-9.505952	2.592332	0.797100	-0.204699	0.322233	0.065214	0.270985	0.676659	0.049499	-0.682825
48251	-9.464546	2.449105	0.803778	-0.258075	0.435352	-0.016482	0.272874	0.675924	0.051055	-0.682686
48252	-9.370295	2.165844	0.804597	-0.367609	0.652344	-0.190838	0.274207	0.675396	0.052063	-0.682598
48253	-9.320235	2.245707	0.879211	-0.390312	0.541557	-0.208659	0.274613	0.675195	0.052222	-0.682622
48254	-9.345750	2.527556	1.005329	-0.377113	0.258058	-0.089855	0.274495	0.675149	0.052077	-0.682725
48255	-9.303110	2.655610	1.023074	-0.329632	0.128250	-0.090461	0.274278	0.674989	0.052157	-0.682965
48256	-9.219252	2.802871	0.933775	-0.169892	0.013343	-0.133144	0.274149	0.674631	0.052677	-0.683330
48257	-9.194649	2.829683	0.858412	-0.074164	0.008833	-0.154534	0.274293	0.674100	0.053741	-0.683713
48258	-9.271805	2.814612	0.886988	-0.091257	0.022053	-0.083027	0.274620	0.673409	0.055197	-0.684148
48259	-9.403581	2.694587	0.912122	-0.152545	0.139696	0.009596	0.274853	0.672693	0.056685	-0.684637
48260	-9.484429	2.528850	0.847221	-0.152440	0.319879	0.033208	0.274648	0.672130	0.057681	-0.685188
48261	-9.529824	2.625040	0.885119	-0.126812	0.223046	0.108298	0.273849	0.671768	0.057987	-0.685837
48262	-9.484727	2.771839	0.911401	-0.066659	0.063138	0.110283	0.272817	0.671520	0.057865	-0.686500
48263	-9.394669	2.877430	0.860629	0.042814	-0.038678	0.050210	0.271798	0.671304	0.057543	-0.687143
48264	-9.333726	3.015980	0.860231	0.119428	-0.179210	0.031508	0.271191	0.671005	0.057373	-0.687689
48265	-9.323240	2.980037	0.859365	0.115949	-0.153953	0.010997	0.271067	0.670607	0.057537	-0.688112
48266	-9.430672	2.854155	0.810028	0.110210	0.005729	0.073046	0.271284	0.670160	0.057927	-0.688429
48267	-9.337890	2.716962	0.800484	0.072354	0.099924	-0.055453	0.271629	0.669754	0.058299	-0.688657
48268	-9.357844	2.541109	0.771639	0.025546	0.269787	-0.089084	0.271720	0.669512	0.058292	-0.688857
48269	-9.291009	2.624498	0.723585	0.113187	0.202916	-0.133823	0.271459	0.669436	0.057977	-0.689060
48270	-9.221642	2.687523	0.753993	0.119123	0.115956	-0.179291	0.271028	0.669467	0.057598	-0.689232
48271	-9.251178	2.803432	0.786474	0.141924	0.009861	-0.115171	0.270655	0.669489	0.057528	-0.689363
48272	-9.353882	2.809591	0.822725	0.111256	0.012965	-0.012012	0.270446	0.669397	0.057965	-0.689498
48273	-9.272659	2.679781	0.816516	0.069041	0.092256	-0.126778	0.270268	0.669228	0.058706	-0.689668
48274	-9.222507	2.661497	0.810177	0.076770	0.083740	-0.180364	0.269873	0.669127	0.059370	-0.689865
48275	-9.195800	2.732578	0.837981	0.091890	-0.009979	-0.183390	0.269269	0.669125	0.059821	-0.690064
48276	-9.237902	2.741803	0.834735	0.100968	-0.016798	-0.140944	0.268502	0.669246	0.059918	-0.690237
48277	-9.295946	2.875749	0.867488	0.130086	-0.138925	-0.045351	0.267717	0.669447	0.059796	-0.690357
48278	-9.298779	2.951445	0.924355	0.111821	-0.236805	-0.016558	0.267090	0.669647	0.059763	-0.690409
48279	-9.395232	2.900744	0.975930	0.038029	-0.196541	0.066435	0.266719	0.669761	0.059870	-0.690432
48280	-9.393091	2.830149	0.927903	0.048924	-0.122948	0.040403	0.266386	0.669886	0.060014	-0.690427
48281	-9.423992	2.749059	0.848372	0.080503	-0.017042	0.040327	0.266005	0.670102	0.060057	-0.690361
48282	-9.415187	2.849990	0.939173	0.040091	-0.152854	0.067862	0.265577	0.670445	0.060081	-0.690191
48283	-9.323665	2.880245	1.033539	-0.034148	-0.254329	-0.003055	0.265344	0.670841	0.060291	-0.689876
48284	-9.215411	2.933124	1.149470	-0.118439	-0.389257	-0.082182	0.265431	0.671276	0.060754	-0.689379
48285	-9.208089	2.943788	1.221554	-0.187553	-0.439565	-0.080340	0.266104	0.671677	0.061666	-0.688648
48286	-9.369135	2.705285	1.159299	-0.257622	-0.169604	0.003019	0.267055	0.672103	0.062689	-0.687772
48287	-9.414001	2.701636	1.173796	-0.288240	-0.164565	0.045805	0.268158	0.672577	0.063656	-0.686789
48288	-9.286595	2.498434	1.186437	-0.402630	-0.035452	-0.131404	0.269228	0.673180	0.064307	-0.685719
48289	-9.055016	2.619930	1.286726	-0.445910	-0.247489	-0.312536	0.270250	0.673926	0.064605	-0.684555
48290	-8.844601	2.524781	1.347242	-0.556475	-0.249141	-0.536657	0.271506	0.674742	0.064793	-0.683235
48291	-8.838569	2.562133	1.342988	-0.563718	-0.273376	-0.533902	0.272901	0.675650	0.064921	-0.681768
48292	-8.980942	2.677342	1.365214	-0.569113	-0.332473	-0.365213	0.274752	0.676460	0.065499	-0.680164
48293	-9.172250	2.762403	1.367005	-0.570819	-0.344050	-0.159424	0.277263	0.677045	0.066932	-0.678422
48294	-9.338540	2.823477	1.434611	-0.632892	-0.376107	0.020747	0.280563	0.677235	0.069437	-0.676621
48295	-9.443417	2.828048	1.508157	-0.710417	-0.385382	0.126996	0.284749	0.676896	0.073141	-0.674818
48296	-9.536931	2.704206	1.383735	-0.665126	-0.198479	0.172237	0.289690	0.676077	0.077732	-0.673022
48297	-9.425990	2.423318	1.227118	-0.649819	0.076170	-0.024965	0.294873	0.674979	0.082617	-0.671288
48298	-9.263683	2.267704	1.177410	-0.663479	0.181282	-0.227724	0.299854	0.673916	0.087135	-0.669576
48299	-9.366061	2.244724	1.129290	-0.640631	0.255443	-0.139967	0.304455	0.673088	0.091057	-0.667809
48300	-9.514711	2.265586	1.120291	-0.639973	0.289683	0.006894	0.308621	0.672527	0.094323	-0.666006
48301	-9.416263	2.398652	1.106911	-0.557270	0.169795	-0.050239	0.312542	0.672159	0.097200	-0.664133
48302	-9.247194	2.413618	1.102900	-0.540937	0.120233	-0.208238	0.316552	0.671817	0.100009	-0.662160
48303	-9.093073	2.516290	1.066918	-0.450959	0.026501	-0.328494	0.320731	0.671425	0.102841	-0.660108
48304	-8.988688	2.506683	0.947861	-0.359090	0.084052	-0.440261	0.325083	0.670908	0.105793	-0.658035
48305	-9.011195	2.460344	0.892440	-0.354543	0.171715	-0.437392	0.329280	0.670382	0.108544	-0.656034
48306	-9.052298	2.459162	0.764354	-0.269781	0.273981	-0.409075	0.332984	0.669982	0.110778	-0.654197
48307	-9.135045	2.411922	0.572160	-0.169886	0.462852	-0.360141	0.335798	0.669876	0.112026	-0.652654
48308	-9.310088	2.725222	0.354962	0.144900	0.423943	-0.115792	0.337524	0.670150	0.112213	-0.651448
48309	-9.397258	2.728428	0.122625	0.295112	0.599893	-0.049452	0.338046	0.670908	0.111239	-0.650564
48310	-9.613276	2.984574	0.077912	0.420920	0.505907	0.231992	0.337129	0.672269	0.109042	-0.650006
48311	-9.957919	3.307000	-0.039328	0.619049	0.433009	0.652832	0.335196	0.673992	0.106268	-0.649681
48312	-10.347661	3.688821	-0.167169	0.849663	0.322160	1.136448	0.332645	0.675822	0.103467	-0.649543
48313	-10.594626	3.963114	-0.232742	0.989570	0.201765	1.456138	0.330111	0.677416	0.101464	-0.649491
48314	-10.581597	4.119077	-0.162864	0.997548	0.009113	1.499616	0.328157	0.678539	0.100744	-0.649421
48315	-10.385875	4.252938	-0.047898	0.996319	-0.245664	1.363318	0.327495	0.678961	0.101762	-0.649155
48316	-10.108417	4.100015	0.136350	0.804045	-0.338512	1.061487	0.328322	0.678760	0.104388	-0.648531
48317	-9.792409	3.863978	0.377784	0.532403	-0.405802	0.699979	0.330297	0.678219	0.107966	-0.647508
48318	-9.439113	3.857711	0.587758	0.429252	-0.634450	0.372469	0.333513	0.677239	0.112533	-0.646105
48319	-9.142421	3.664678	0.720999	0.279780	-0.655043	0.037497	0.337862	0.675793	0.117918	-0.644398
48320	-8.896858	3.421371	0.756182	0.175260	-0.561466	-0.268809	0.342883	0.673952	0.123764	-0.642575
48321	-8.773758	3.303322	0.827729	0.102333	-0.548033	-0.417744	0.348282	0.671787	0.129879	-0.640729
48322	-8.748763	3.126847	0.819603	0.043798	-0.415385	-0.495222	0.353829	0.669282	0.136185	-0.639000
48323	-8.749894	3.008794	0.757220	0.061153	-0.282982	-0.533525	0.359179	0.666515	0.142420	-0.637546
48324	-8.771733	2.803854	0.630810	0.067386	-0.042049	-0.582502	0.363989	0.663619	0.148300	-0.636498
48325	-8.846984	2.654459	0.464338	0.128185	0.198910	-0.567434	0.367844	0.660863	0.153543	-0.635905
48326	-9.008898	2.511859	0.347432	0.140572	0.419854	-0.464202	0.370351	0.658493	0.157768	-0.635875
48327	-9.015100	2.457376	0.319677	0.166910	0.472672	-0.476656	0.371384	0.656693	0.160751	-0.636386
48328	-8.905946	2.502453	0.360762	0.223541	0.374810	-0.565109	0.371071	0.655536	0.162520	-0.637312
48329	-8.990703	2.714280	0.343993	0.403388	0.248616	-0.426861	0.369664	0.655004	0.163389	-0.638454
48330	-9.185254	3.076337	0.472015	0.563582	-0.057855	-0.131032	0.367917	0.654724	0.164076	-0.639572
48331	-9.418725	3.281669	0.569438	0.633202	-0.232247	0.154808	0.366503	0.654328	0.165312	-0.640470
48332	-9.562282	3.262717	0.557124	0.643023	-0.202808	0.283757	0.365829	0.653637	0.167348	-0.641032
48333	-9.557748	3.104975	0.471841	0.629791	-0.063411	0.227893	0.365937	0.652737	0.170020	-0.641185
48334	-9.698375	2.956438	0.546599	0.487078	-0.000956	0.329326	0.366750	0.651779	0.172852	-0.640938
48335	-9.846148	2.852754	0.660706	0.340698	0.011984	0.454011	0.368225	0.650760	0.175585	-0.640383
48336	-10.054942	2.688639	0.841070	0.092088	0.043049	0.628945	0.370466	0.649593	0.178032	-0.639600
48337	-10.013048	2.426778	0.923732	-0.133393	0.160227	0.529467	0.373156	0.648333	0.179693	-0.638850
48338	-9.737544	2.244870	0.848081	-0.171966	0.294833	0.210378	0.376068	0.647078	0.180374	-0.638222
48339	-9.550412	2.052236	0.643681	-0.149384	0.561093	-0.040326	0.378771	0.646113	0.179942	-0.637724
48340	-9.524183	1.811426	0.482422	-0.220594	0.871329	-0.147493	0.380651	0.645723	0.178356	-0.637445
48341	-9.486727	1.659037	0.507554	-0.360972	0.983494	-0.225702	0.381176	0.646018	0.175761	-0.637553
48342	-9.470949	1.990904	0.805436	-0.348933	0.583208	-0.125102	0.380427	0.646835	0.172597	-0.638036
48343	-9.451086	2.176711	1.108420	-0.443166	0.262907	-0.064655	0.378855	0.647683	0.169663	-0.638897
48344	-9.264067	2.391024	1.289480	-0.405163	-0.043929	-0.167139	0.376651	0.648419	0.167097	-0.640129
48345	-9.052997	2.554737	1.109643	-0.136775	-0.080992	-0.342235	0.374398	0.648794	0.165407	-0.641509
48346	-8.726019	2.485637	0.934371	-0.010008	-0.007404	-0.691576	0.372163	0.649013	0.164402	-0.642844
48347	-8.620914	2.623100	1.038076	0.036629	-0.213540	-0.744533	0.370042	0.649235	0.163838	-0.643987
48348	-8.861454	2.676862	1.219291	-0.070979	-0.329521	-0.481880	0.368117	0.649353	0.163654	-0.645017
48349	-9.075056	2.688587	1.303316	-0.131596	-0.358247	-0.266061	0.366334	0.649312	0.163696	-0.646062
48350	-9.326228	2.642723	1.201292	-0.096942	-0.210788	-0.047868	0.364558	0.649095	0.163870	-0.647240
48351	-9.345002	2.705925	0.970056	0.138026	-0.110385	-0.037169	0.362695	0.648700	0.164170	-0.648606
48352	-9.244014	2.731389	0.832132	0.297109	-0.080628	-0.142640	0.360847	0.648217	0.164625	-0.650002
48353	-9.105319	2.726413	1.049678	0.182759	-0.281671	-0.256060	0.359031	0.647675	0.165041	-0.651440
48354	-9.183435	2.760320	1.316476	0.037653	-0.483734	-0.145608	0.357322	0.646984	0.165234	-0.653016
48355	-9.242709	2.745428	1.243139	0.110719	-0.420456	-0.100773	0.355587	0.646132	0.165133	-0.654830
48356	-9.405939	2.619889	0.937729	0.272622	-0.094103	-0.008019	0.353486	0.645242	0.164519	-0.656996
48357	-9.618369	2.721147	0.536169	0.659314	0.149745	0.174697	0.350705	0.644511	0.163299	-0.659504
48358	-9.745938	2.881424	0.347771	0.939436	0.180277	0.311128	0.347386	0.643962	0.161844	-0.662150
48359	-9.574850	2.953850	0.519971	0.913814	-0.048954	0.179095	0.343719	0.643639	0.160299	-0.664749
48360	-9.444563	3.115322	0.886805	0.791486	-0.462060	0.129713	0.340092	0.643399	0.158991	-0.667155
48361	-9.343416	3.298817	1.172894	0.736601	-0.830321	0.103216	0.336887	0.642961	0.158149	-0.669401
48362	-9.191627	3.354041	1.255463	0.755056	-0.983521	-0.026258	0.334525	0.642109	0.158105	-0.671410
48363	-9.067780	3.309979	0.957519	0.999389	-0.808844	-0.197894	0.332923	0.640945	0.158631	-0.673192
48364	-8.965565	3.190426	0.768141	1.113087	-0.638120	-0.352038	0.332019	0.639592	0.159485	-0.674722
48365	-8.788596	3.124545	0.876341	1.037220	-0.706839	-0.528583	0.331812	0.638103	0.160340	-0.676030
48366	-8.506381	2.973745	0.994942	0.896924	-0.734313	-0.821148	0.332257	0.636505	0.160767	-0.677216
48367	-8.537934	2.841946	0.986596	0.848556	-0.604835	-0.820450	0.333182	0.634832	0.160544	-0.678383
48368	-8.749846	2.727799	0.783826	0.948333	-0.306635	-0.668206	0.334168	0.633203	0.159425	-0.679683
48369	-9.158287	2.573471	0.565724	1.024428	0.089530	-0.338547	0.334813	0.631762	0.157386	-0.681181
48370	-9.413705	2.514158	0.571828	0.994823	0.239721	-0.106067	0.334765	0.630648	0.154475	-0.682900
48371	-9.367350	2.559012	0.765314	0.893815	0.117676	-0.113792	0.334157	0.629830	0.150938	-0.684741
48372	-9.186932	2.603135	1.024830	0.736901	-0.080939	-0.237899	0.333304	0.629291	0.147012	-0.686504
48373	-9.208779	2.752430	1.145529	0.740828	-0.215693	-0.164153	0.332477	0.629020	0.143015	-0.687996
48374	-9.455969	2.941100	1.236349	0.782756	-0.300995	0.131685	0.331996	0.628834	0.139681	-0.689083
48375	-9.924483	3.066861	1.365868	0.752676	-0.306501	0.632696	0.332110	0.628470	0.137811	-0.689736
48376	-10.840705	3.029727	1.461014	0.650972	-0.052388	1.519044	0.332913	0.627715	0.137851	-0.690029
48377	-11.250985	2.500254	1.465502	0.329344	0.462684	1.791666	0.333948	0.626597	0.139505	-0.690213
48378	-11.048838	2.277272	1.659099	0.073117	0.442874	1.580897	0.334880	0.625309	0.142068	-0.690406
48379	-10.567092	2.030294	1.881984	-0.212458	0.330620	1.103939	0.335896	0.623862	0.145270	-0.690556
48380	-10.026050	1.638521	1.997407	-0.508521	0.369096	0.521772	0.337021	0.622333	0.148601	-0.690678
48381	-9.861106	1.208009	2.026535	-0.768268	0.594970	0.280039	0.338437	0.620542	0.152033	-0.690850
48382	-9.678023	1.293943	2.235635	-0.825035	0.332399	0.164543	0.340280	0.618413	0.155304	-0.691126
48383	-9.564061	1.018042	2.301907	-1.008210	0.448747	0.015250	0.342591	0.615819	0.158529	-0.691568
48384	-9.795036	0.706584	2.223577	-1.102570	0.785593	0.164947	0.344815	0.612905	0.161293	-0.692412
48385	-10.299206	0.546152	2.199751	-1.125051	1.064783	0.618559	0.346705	0.609611	0.163509	-0.693855
48386	-10.696637	0.398547	2.173897	-1.123945	1.316821	0.971784	0.347851	0.606107	0.164922	-0.696013
48387	-11.013837	0.499637	2.250872	-1.014092	1.314453	1.316716	0.348079	0.602538	0.165383	-0.698883
48388	-10.812830	0.394064	2.367268	-1.075746	1.293890	1.134644	0.347476	0.598834	0.164954	-0.702459
48389	-10.135967	0.052067	2.480646	-1.313230	1.313023	0.455923	0.345991	0.595158	0.163403	-0.706666
48390	-9.395688	0.242896	2.626735	-1.227529	0.923851	-0.175451	0.343623	0.591901	0.160367	-0.711237
48391	-8.693657	0.350697	2.747118	-1.201484	0.625012	-0.789702	0.340942	0.588993	0.156478	-0.715794
48392	-8.446707	0.543639	2.958781	-1.176979	0.344609	-0.930567	0.338127	0.586547	0.152140	-0.720060
48393	-8.854683	0.890821	3.119592	-0.972732	0.180976	-0.434452	0.335570	0.584269	0.148336	-0.723892
48394	-9.391542	1.096122	3.316878	-0.874519	0.131277	0.168377	0.333629	0.581759	0.145766	-0.727324
48395	-9.905696	1.062331	3.409506	-0.841639	0.302970	0.678990	0.332322	0.578816	0.144732	-0.730471
48396	-9.684707	0.945815	3.179776	-0.683793	0.480966	0.390229	0.331302	0.575579	0.144986	-0.733435
48397	-9.120118	0.887166	3.129184	-0.662148	0.385696	-0.160351	0.330163	0.572376	0.145821	-0.736284
48398	-8.134005	0.793539	3.194837	-0.816315	0.105698	-1.076513	0.328746	0.569492	0.146592	-0.738996
48399	-7.546899	1.048152	3.395868	-0.813529	-0.388421	-1.519724	0.327085	0.567139	0.147131	-0.741432
48400	-7.352909	1.474047	3.483451	-0.574386	-0.822641	-1.605030	0.325552	0.565081	0.148021	-0.743498
48401	-7.809469	1.702066	3.457074	-0.286327	-0.847002	-1.150325	0.324405	0.563143	0.149892	-0.745093
48402	-8.403369	1.779304	3.350123	-0.007165	-0.682809	-0.618170	0.323493	0.561139	0.152840	-0.746402
48403	-8.686297	1.614686	3.225835	0.087264	-0.439963	-0.417837	0.322553	0.559098	0.156660	-0.747547
48404	-8.715820	1.492687	3.090376	0.178716	-0.311285	-0.452421	0.321048	0.557285	0.160568	-0.748719
48405	-8.780443	1.528321	3.123281	0.251797	-0.395662	-0.380493	0.318750	0.555957	0.163911	-0.749962
48406	-8.826083	1.628478	3.124211	0.378910	-0.516052	-0.331019	0.315836	0.555138	0.166404	-0.751252
48407	-8.670331	1.944317	3.081945	0.632272	-0.826857	-0.465518	0.312865	0.554642	0.168358	-0.752425
48408	-8.578815	2.142321	2.939009	0.881817	-0.966700	-0.587125	0.310324	0.554452	0.170187	-0.753205
48409	-8.782704	2.280719	2.988931	0.997986	-1.092070	-0.374336	0.308532	0.554472	0.172143	-0.753482
48410	-9.208275	2.127387	3.074436	0.933089	-0.956427	0.035393	0.307548	0.554612	0.174188	-0.753312
48411	-9.335176	1.787837	3.180758	0.665639	-0.767303	0.158631	0.307039	0.554879	0.175646	-0.752984
48412	-9.266087	1.604038	3.041414	0.631441	-0.585522	0.033222	0.306724	0.555371	0.176112	-0.752641
48413	-9.003734	1.676802	2.872145	0.739145	-0.614864	-0.262625	0.306453	0.556173	0.175530	-0.752295
48414	-8.926006	1.866935	2.939927	0.777087	-0.816112	-0.297844	0.306574	0.557130	0.174537	-0.751768
48415	-8.850724	1.932506	3.109405	0.654514	-0.976500	-0.307096	0.307447	0.557986	0.173626	-0.750988
48416	-8.727646	1.860611	3.127454	0.543163	-0.948005	-0.420094	0.309346	0.558641	0.173093	-0.749843
48417	-8.679511	1.579490	3.039174	0.385180	-0.673429	-0.514124	0.311988	0.559211	0.172778	-0.748395
48418	-8.662814	1.274880	3.121745	0.087344	-0.473298	-0.529201	0.314883	0.559907	0.172183	-0.746797
48419	-8.719999	1.091215	3.218302	-0.134590	-0.348027	-0.461371	0.317700	0.560756	0.171085	-0.745217
48420	-8.607417	0.978763	3.216810	-0.271623	-0.259479	-0.579483	0.320296	0.561761	0.169475	-0.743716
48421	-8.551125	1.086169	3.294217	-0.313368	-0.364649	-0.597380	0.322660	0.562948	0.167640	-0.742211
48422	-8.539847	1.105940	3.333366	-0.380183	-0.371556	-0.594198	0.324887	0.564241	0.165982	-0.740628
48423	-8.675021	1.201303	3.355847	-0.362100	-0.387267	-0.448955	0.327056	0.565559	0.164832	-0.738923
48424	-8.851214	1.232288	3.441902	-0.426470	-0.391086	-0.253702	0.329212	0.566857	0.164361	-0.737074
48425	-9.097486	1.281353	3.515157	-0.456208	-0.388932	0.005811	0.331463	0.567939	0.164693	-0.735155
48426	-9.219524	1.303880	3.552675	-0.488495	-0.391925	0.133613	0.333860	0.568774	0.165850	-0.733163
48427	-9.192216	1.253648	3.517644	-0.530448	-0.349420	0.088765	0.336490	0.569383	0.167586	-0.731089
48428	-9.002018	1.174694	3.394230	-0.545093	-0.282298	-0.140038	0.339246	0.569909	0.169431	-0.728978
48429	-8.906707	1.093201	3.226845	-0.520287	-0.156044	-0.292082	0.341918	0.570601	0.171054	-0.726806
48430	-8.975238	0.968126	3.057792	-0.513030	0.053960	-0.295544	0.344265	0.571633	0.172100	-0.724637
48431	-9.179000	0.929849	3.123628	-0.607310	0.095231	-0.091698	0.346128	0.573024	0.172489	-0.722555
48432	-9.067151	1.018249	3.206151	-0.662907	-0.056310	-0.164545	0.347675	0.574545	0.172487	-0.720603
48433	-8.674953	1.165331	3.184655	-0.629708	-0.265686	-0.523579	0.349128	0.576131	0.172489	-0.718630
48434	-8.550292	1.313946	3.068605	-0.500098	-0.335721	-0.653686	0.350651	0.577700	0.172751	-0.716564
48435	-8.718266	1.387627	2.965706	-0.406171	-0.276472	-0.512822	0.352330	0.579267	0.173354	-0.714326
48436	-8.816749	1.250328	2.702137	-0.355124	0.009711	-0.513573	0.353979	0.580922	0.174211	-0.711954
48437	-9.171387	1.291276	2.630986	-0.299363	0.118237	-0.189799	0.355397	0.582751	0.175194	-0.709508
48438	-9.308836	1.259926	2.521509	-0.287119	0.231681	-0.093456	0.356610	0.584689	0.176255	-0.707038
48439	-9.041734	1.285401	2.451061	-0.289186	0.157821	-0.362604	0.357562	0.586853	0.177084	-0.704552
48440	-8.814517	1.414142	2.431446	-0.252812	-0.008168	-0.563735	0.358353	0.589302	0.177663	-0.701956
48441	-8.726049	1.529706	2.518770	-0.296898	-0.195389	-0.609349	0.359203	0.591927	0.178110	-0.699194
48442	-8.873507	1.693137	2.533676	-0.249417	-0.296412	-0.438527	0.360338	0.594509	0.178601	-0.696288
48443	-9.156645	1.599032	2.296531	-0.208075	-0.011723	-0.240266	0.361772	0.596964	0.179259	-0.693268
48444	-9.271023	1.583376	2.130342	-0.167458	0.125844	-0.171472	0.363411	0.599246	0.179924	-0.690264
48445	-9.454421	1.471862	2.052748	-0.258382	0.291499	-0.034442	0.365105	0.601487	0.180257	-0.687328
48446	-9.779676	1.613838	1.882656	-0.106765	0.396413	0.268083	0.366693	0.603753	0.180144	-0.684520
48447	-10.260439	1.604386	1.825058	-0.148734	0.573621	0.714888	0.368061	0.606065	0.179617	-0.681875
48448	-10.857634	1.784254	1.991968	-0.217339	0.505692	1.355851	0.369088	0.608313	0.178703	-0.679555
48449	-11.149580	1.935569	2.215832	-0.340337	0.332750	1.708709	0.370159	0.610084	0.178124	-0.677533
48450	-10.857076	1.996045	2.143723	-0.298324	0.262261	1.425545	0.371345	0.611282	0.177772	-0.675895
48451	-10.279572	2.014205	1.847762	-0.109042	0.298953	0.819315	0.372624	0.612140	0.177457	-0.674497
48452	-10.068867	1.649366	1.409046	-0.097103	0.795028	0.456018	0.373954	0.612803	0.177157	-0.673236
48453	-10.397364	1.094813	1.424910	-0.554004	1.258853	0.648783	0.373630	0.614158	0.174612	-0.672845
48454	-10.254973	1.714766	1.690598	-0.331338	0.650404	0.695879	0.372105	0.615981	0.170301	-0.673129
48455	-9.741526	1.559865	1.709385	-0.482704	0.626368	0.168637	0.369698	0.618259	0.164574	-0.673791
48456	-9.279338	2.182798	1.760579	-0.117476	0.072005	-0.119854	0.367032	0.620678	0.158614	-0.674454
48457	-9.044492	2.415830	1.803174	-0.033963	-0.156178	-0.280392	0.364928	0.622915	0.153583	-0.674697
48458	-9.089507	2.466157	1.720198	0.004127	-0.100715	-0.239301	0.363349	0.625004	0.149559	-0.674522
48459	-9.243226	2.344568	1.662499	-0.093229	0.080868	-0.133705	0.362084	0.626933	0.146638	-0.674053
48460	-9.335317	2.569859	1.606789	0.054471	-0.008786	0.002146	0.361336	0.628312	0.145278	-0.673465
48461	-9.279572	2.556711	1.506852	0.100615	0.040484	-0.070714	0.361276	0.628881	0.145790	-0.672855
48462	-9.237606	2.508261	1.407390	0.141701	0.109401	-0.139353	0.361535	0.628832	0.147578	-0.672372
48463	-9.187618	2.560524	1.463456	0.152142	-0.002764	-0.164524	0.361845	0.628284	0.150293	-0.672115
48464	-9.222780	2.549035	1.642273	0.039695	-0.131927	-0.105209	0.362183	0.627307	0.153632	-0.672091
48465	-9.435087	2.341734	1.699972	-0.114427	0.001341	0.055501	0.362336	0.626083	0.157124	-0.672343
48466	-9.460296	2.316492	1.694930	-0.083890	-0.005622	0.073099	0.361944	0.624867	0.160138	-0.672974
48467	-9.676324	2.398383	1.883604	-0.126377	-0.159468	0.330772	0.361223	0.623669	0.162649	-0.673870
48468	-9.865593	2.381226	2.427123	-0.488270	-0.485354	0.599654	0.360634	0.622237	0.164681	-0.675014
48469	-10.177606	2.351788	3.154921	-0.987145	-0.878858	1.018791	0.360704	0.620197	0.166294	-0.676457
48470	-9.772162	2.082485	3.367572	-1.247116	-0.946375	0.614252	0.361350	0.617500	0.167682	-0.678235
48471	-9.659789	1.640097	3.077475	-1.270499	-0.462558	0.367864	0.361993	0.614398	0.168664	-0.680462
48472	-9.757428	1.602455	3.220216	-1.317423	-0.479569	0.491618	0.362802	0.610754	0.169752	-0.683036
48473	-9.974894	1.624548	3.590801	-1.471917	-0.649521	0.791184	0.363568	0.606696	0.170639	-0.686018
48474	-10.303038	1.897940	4.668289	-1.928196	-1.423407	1.403463	0.364546	0.601825	0.171489	-0.689569
48475	-10.215647	1.784265	5.354724	-2.353841	-1.779056	1.479262	0.365772	0.596053	0.172340	-0.693708
48476	-10.476620	1.408131	5.713371	-2.703340	-1.617797	1.782841	0.367275	0.589293	0.173090	-0.698486
48477	-10.601413	0.582947	5.756217	-3.129616	-0.969264	1.811658	0.368837	0.581540	0.173901	-0.703938
48478	-10.908957	0.094320	5.653509	-3.182734	-0.378650	2.048925	0.369856	0.573243	0.174272	-0.710091
48479	-11.175107	0.693051	6.165955	-2.848154	-0.916808	2.614017	0.370091	0.564466	0.173669	-0.717112
48480	-11.003724	0.986537	6.655198	-2.725931	-1.356325	2.720001	0.370199	0.554823	0.172870	-0.724734
48481	-11.055054	0.853108	7.293529	-2.963677	-1.518247	3.034051	0.370237	0.544185	0.172147	-0.732907
48482	-11.301838	0.856428	8.206774	-3.208185	-1.862523	3.679534	0.370646	0.531944	0.171999	-0.741669
48483	-11.431564	0.687786	8.331512	-3.000436	-1.601762	3.934339	0.371595	0.517946	0.172666	-0.750890
48484	-11.485491	-0.016957	7.882030	-2.774721	-0.634609	3.822552	0.372776	0.502415	0.173884	-0.760514
48485	-11.444814	-0.613267	7.672139	-2.621686	0.080877	3.726819	0.373205	0.486038	0.174290	-0.770784
48486	-11.668961	-0.550930	7.987125	-2.225905	0.165879	4.160628	0.372279	0.469382	0.172941	-0.781780
48487	-11.883755	-0.343812	8.571271	-1.849048	0.032003	4.725439	0.370309	0.452048	0.170227	-0.793440
48488	-11.596886	-0.454160	8.610213	-1.501176	0.267149	4.556401	0.367408	0.433761	0.166376	-0.805718
48489	-11.444269	-0.403996	8.010691	-0.615908	0.840143	4.122371	0.363542	0.414783	0.161493	-0.818359
48490	-11.367806	-0.106347	7.278301	0.537322	1.335811	3.607645	0.358695	0.395479	0.155416	-0.831132
48491	-11.050368	0.031577	7.065644	1.157484	1.514861	3.163006	0.353012	0.376114	0.148374	-0.843745
48492	-10.783107	0.323306	7.287095	1.653196	1.365872	3.026755	0.346851	0.356241	0.140952	-0.856107
48493	-10.405025	0.460233	7.229724	2.112777	1.399372	2.608782	0.340530	0.335947	0.133336	-0.867986
48494	-10.510198	0.913608	7.174950	3.023407	1.417211	2.499886	0.334379	0.315343	0.126011	-0.879131
48495	-9.935642	0.945788	7.140359	3.240652	1.363340	1.943492	0.328436	0.294167	0.119683	-0.889535
48496	-9.259714	1.081260	6.955074	3.489715	1.201535	1.216291	0.322675	0.272856	0.114567	-0.899058
48497	-8.632161	1.030758	6.492389	3.705718	1.267637	0.305004	0.317107	0.251445	0.110365	-0.907765
48498	-8.054880	1.269333	6.433626	3.921824	0.949449	-0.242810	0.311832	0.229588	0.107265	-0.915721
48499	-7.445979	1.146513	6.816591	3.702025	0.714094	-0.379211	0.306961	0.207960	0.106578	-0.922588
48500	-7.084634	0.574626	7.076070	3.423445	0.982251	-0.437658	0.302288	0.186500	0.107244	-0.928622
48501	-6.288894	0.064059	6.731747	3.014503	1.157811	-1.185452	0.297611	0.165475	0.107841	-0.934032
48502	-6.074529	0.144363	6.453774	3.327403	1.136671	-1.676600	0.292895	0.144622	0.108137	-0.938938
48503	-5.523654	0.963157	6.550616	3.693812	0.213310	-2.025046	0.288212	0.123512	0.110938	-0.943065
48504	-5.123549	1.190310	7.076874	3.768211	-0.319661	-1.848143	0.283728	0.101689	0.117773	-0.946196
48505	-4.101483	-0.131287	6.954329	2.575388	0.226866	-2.163806	0.279375	0.080094	0.127308	-0.948329
48506	-3.713904	-0.873731	6.792459	2.214312	0.625985	-2.370382	0.274999	0.059116	0.136644	-0.949847
48507	-3.374027	-1.018920	6.722440	2.187890	0.540738	-2.565308	0.270556	0.039017	0.145679	-0.950818
48508	-2.840243	-1.631110	6.372771	1.718841	0.831927	-2.907211	0.265879	0.019842	0.153093	-0.951565
48509	-2.057309	-1.362214	5.708265	1.422890	0.395625	-3.772304	0.260836	0.001839	0.159669	-0.952086
48510	-1.555397	-2.418244	5.719287	0.692729	0.995364	-3.527562	0.255725	-0.014082	0.163034	-0.952799
48511	-1.368387	-1.508136	5.715542	1.166978	0.184304	-3.861579	0.250860	-0.028793	0.163571	-0.953669
48512	-0.555229	-1.667523	4.821431	0.416422	0.226693	-4.703020	0.246476	-0.041674	0.162193	-0.954571
48513	-0.345356	-0.856373	4.542453	0.669206	-0.410861	-5.244436	0.242916	-0.052493	0.158262	-0.955609
48514	0.108589	-0.610947	4.650269	0.480230	-0.804937	-5.215862	0.239989	-0.061495	0.154223	-0.956472
48515	0.456363	-0.788566	4.590078	0.150530	-0.752448	-5.196458	0.237574	-0.068886	0.150571	-0.957153
48516	1.001555	-0.845839	4.764382	-0.263859	-0.962728	-4.973155	0.235450	-0.074801	0.148070	-0.957624
48517	1.013708	-1.328435	5.157599	-0.354204	-0.621060	-4.438512	0.233629	-0.079007	0.145996	-0.958050
48518	0.815320	-1.697563	5.667605	-0.191828	-0.302041	-3.851145	0.232204	-0.081976	0.143587	-0.958511
48519	1.005617	-1.920146	5.870163	-0.387870	-0.206002	-3.570577	0.231170	-0.083725	0.140109	-0.959125
48520	1.283275	-1.787465	6.213745	-0.495474	-0.476898	-3.256828	0.230154	-0.084345	0.136313	-0.959861
48521	1.319496	-2.448863	6.800817	-0.685410	-0.002173	-2.497019	0.229048	-0.083828	0.132339	-0.960727
48522	0.970020	-2.880850	7.651864	-0.403264	0.422650	-1.599947	0.228148	-0.082364	0.126371	-0.961871
48523	0.784211	-3.370317	7.969931	-0.440060	0.991252	-1.192081	0.227971	-0.079780	0.116422	-0.963385
48524	1.047217	-4.080437	7.819808	-1.121763	1.728913	-1.173235	0.229266	-0.075151	0.099245	-0.965370
48525	1.156089	-4.007370	7.827246	-1.391906	1.954220	-1.275496	0.232595	-0.067553	0.071665	-0.967575
48526	1.019302	-2.840433	7.738241	-1.062599	1.466055	-1.708627	0.237383	-0.057260	0.034839	-0.969101
48527	1.088926	-1.602653	7.510930	-0.936593	0.909475	-2.169316	0.243094	-0.044264	-0.010195	-0.968939
48528	0.697918	0.224036	8.005879	-0.090146	0.168671	-1.779311	0.248589	-0.029790	-0.061086	-0.966222
48529	0.654419	2.085106	8.165238	0.422403	-0.645352	-1.399413	0.253062	-0.015150	-0.112948	-0.960715
48530	0.831647	3.018780	8.063040	0.287794	-0.744838	-1.204059	0.256765	-0.000571	-0.164279	-0.952410
48531	0.852404	3.205561	7.717900	-0.063286	-0.198945	-1.419249	0.260210	0.014775	-0.218012	-0.940502
48532	0.585191	4.131235	6.776558	0.294804	-0.325636	-1.871467	0.263001	0.029905	-0.274120	-0.924551
48533	0.616524	5.650960	6.025631	0.692957	-0.934563	-1.615937	0.264526	0.043801	-0.329288	-0.905360
48534	0.816538	6.894423	4.963107	0.923161	-1.561241	-1.478577	0.264741	0.056918	-0.383052	-0.883144
48535	0.724593	8.222700	4.527535	1.252548	-1.606903	-0.626775	0.263805	0.069280	-0.435606	-0.857820
48536	1.024062	9.568813	4.000200	1.235372	-1.775161	0.376678	0.261609	0.080368	-0.483489	-0.831469
48537	1.147351	9.991493	3.070714	1.174761	-1.728046	0.488498	0.258742	0.090307	-0.525901	-0.805186
48538	1.241999	9.720903	2.583841	0.771940	-1.172928	0.220406	0.255221	0.099687	-0.565072	-0.778215
48539	1.222026	10.193271	2.030902	0.737339	-0.857449	0.587393	0.251148	0.108657	-0.601680	-0.750399
48540	1.447446	11.323829	1.881668	0.459171	-0.403630	1.737828	0.247014	0.116208	-0.633026	-0.724402
48541	1.355314	10.213621	0.687164	0.498158	-0.525968	0.485521	0.243227	0.122305	-0.660300	-0.699919
48542	1.417288	9.072417	-0.319003	0.421213	-0.754453	-0.667679	0.238963	0.128331	-0.687507	-0.673618
48543	1.226255	9.404071	-1.116656	0.711469	-0.657777	-0.315510	0.233737	0.134608	-0.715609	-0.644323
48544	1.405106	10.419260	-1.460400	0.477879	-0.160118	0.786854	0.227908	0.140709	-0.742415	-0.614067
48545	1.735369	10.764488	-2.076103	0.150948	-0.003015	1.282968	0.222205	0.146244	-0.766079	-0.585115
48546	1.775202	10.200410	-2.904656	0.169337	-0.152612	0.936200	0.217065	0.150934	-0.786631	-0.557954
48547	1.720796	9.919949	-3.284882	0.102285	0.105485	0.774976	0.212452	0.154992	-0.804412	-0.532694
48548	1.528143	8.274642	-4.317127	0.565694	-0.678388	-0.398232	0.208023	0.158613	-0.821675	-0.506378
48549	1.647914	7.394845	-5.440968	0.812768	-1.384930	-0.626672	0.202583	0.162869	-0.841147	-0.474243
48550	1.863369	7.819146	-5.646373	0.385774	-0.718690	-0.026574	0.196326	0.167466	-0.861655	-0.436991
48551	1.948598	8.530008	-6.204366	0.138778	0.074207	0.908954	0.189782	0.171850	-0.880903	-0.398070
48552	2.081091	9.004771	-6.801667	-0.145155	0.783587	1.631655	0.183709	0.175180	-0.897126	-0.361563
48553	2.176767	8.588370	-7.112758	-0.347840	1.056565	1.492259	0.178761	0.177027	-0.909837	-0.330003
48554	2.108511	7.419139	-7.198677	-0.276868	0.843014	0.698776	0.174538	0.177877	-0.919963	-0.302595
48555	2.381414	7.268609	-7.001578	-0.788232	1.245703	0.450241	0.170270	0.178550	-0.928432	-0.277745
48556	2.458889	7.337712	-7.181149	-0.989583	1.626396	0.570832	0.166224	0.178491	-0.934598	-0.258915
48557	2.330054	6.858028	-7.639970	-0.722693	1.428234	0.592165	0.162584	0.177667	-0.938972	-0.245627
48558	2.354835	5.681995	-8.361507	-0.282200	0.412929	0.555046	0.159176	0.176632	-0.942499	-0.234862
48559	2.382427	5.758774	-8.220781	-0.485776	0.718217	0.466679	0.155968	0.175661	-0.945390	-0.225954
48560	2.431694	5.796171	-8.294522	-0.598309	0.847265	0.542528	0.153144	0.174671	-0.947334	-0.220443
48561	2.199445	5.610761	-8.351455	-0.378441	0.826588	0.445889	0.151009	0.173541	-0.948066	-0.219661
48562	2.059466	4.990203	-8.520706	-0.059794	0.291085	0.269849	0.149254	0.172486	-0.948223	-0.221010
48563	2.056040	4.751372	-8.717442	0.056606	-0.019353	0.325993	0.147735	0.171613	-0.948065	-0.223374
48564	2.182680	4.600385	-9.006177	0.070186	-0.355185	0.526921	0.146374	0.170973	-0.947782	-0.225946
48565	2.289088	5.552774	-8.931816	-0.302674	0.354481	0.940567	0.145468	0.170375	-0.946925	-0.230529
48566	2.408755	6.140407	-8.806031	-0.578941	0.695762	1.152253	0.145493	0.169860	-0.944652	-0.240025
48567	2.420739	6.707070	-8.720237	-0.678406	0.901164	1.394521	0.147109	0.169415	-0.939919	-0.257312
48568	2.373730	5.278510	-9.485257	0.125624	-0.981815	1.253895	0.149791	0.169472	-0.933747	-0.277414
48569	2.204057	5.816363	-8.841842	0.057300	-0.611932	0.979589	0.152790	0.169897	-0.927487	-0.295903
48570	1.997050	5.069994	-9.040680	0.614625	-1.546640	0.610780	0.155249	0.170449	-0.922406	-0.309859
48571	2.262587	6.771633	-8.609305	-0.057916	-0.430813	1.363143	0.157670	0.171191	-0.918009	-0.321083
48572	2.203714	8.318840	-8.252443	-0.348959	0.625659	2.088465	0.161345	0.171510	-0.912252	-0.335185
48573	2.100102	10.129599	-7.269948	-0.821753	2.068255	2.632646	0.166937	0.171018	-0.902938	-0.357196
48574	2.051422	10.078287	-7.281768	-0.433195	1.354223	2.705727	0.174407	0.168944	-0.888150	-0.390166
48575	2.143091	9.663843	-6.644166	-0.296708	0.539578	2.088922	0.183195	0.165570	-0.868095	-0.430624
48576	2.106298	7.522505	-7.179868	0.697053	-1.980629	0.583696	0.191892	0.161602	-0.845868	-0.470711
48577	1.824303	8.596587	-5.560234	0.451601	-0.960870	0.529159	0.199399	0.157990	-0.824066	-0.506156
48578	1.722806	9.892958	-4.393249	0.275611	-0.286589	1.137313	0.206315	0.153644	-0.799736	-0.542448
48579	1.797578	10.388831	-4.079718	0.467983	-0.829856	1.447664	0.213202	0.148509	-0.771350	-0.580955
48580	1.768732	11.179451	-3.058347	0.475428	-0.821564	1.867465	0.220439	0.142485	-0.737353	-0.622427
48581	1.673520	11.008418	-2.351031	0.725341	-1.398931	1.451207	0.227876	0.135203	-0.697327	-0.665979
48582	1.469715	9.801734	-1.456388	0.843313	-1.795159	0.000042	0.234976	0.126665	-0.652730	-0.709003
48583	1.099532	8.880225	-0.978238	1.230336	-2.203148	-1.177947	0.240359	0.118131	-0.607567	-0.747753
48584	0.604652	10.141715	0.986208	1.455847	-1.509935	0.170310	0.244479	0.108240	-0.559121	-0.784792
48585	0.974610	10.114275	1.918247	1.234464	-2.094637	0.230351	0.247825	0.096672	-0.505265	-0.820942
48586	0.913035	8.519288	3.321666	0.735452	-1.541512	-0.790473	0.250298	0.084158	-0.447686	-0.854310
48587	0.752226	7.234480	4.986224	0.303911	-0.746229	-1.037901	0.251071	0.071377	-0.387431	-0.884175
48588	0.562332	5.646264	5.186974	0.250987	-0.623932	-2.160323	0.249847	0.057583	-0.325776	-0.910017
48589	0.921036	4.628034	6.306389	-0.361585	-0.400145	-1.959724	0.247910	0.044319	-0.268173	-0.929871
48590	0.202462	4.257945	7.187984	0.332015	-0.218061	-1.469689	0.245107	0.030996	-0.214870	-0.944877
48591	0.613651	2.475053	7.510524	-0.492904	0.341721	-1.907082	0.242607	0.019278	-0.167012	-0.955446
48592	0.204855	0.811295	7.254814	-0.539139	1.221729	-2.634994	0.239911	0.009028	-0.127714	-0.962315
48593	0.277489	1.850870	7.788312	0.119631	-0.079483	-1.805713	0.236341	-0.001703	-0.093093	-0.967199
48594	1.135994	1.562547	8.202396	-0.507905	-0.663815	-1.429208	0.232634	-0.011111	-0.058072	-0.970765
48595	0.539609	-0.007087	9.000189	-0.418568	0.561660	-0.825201	0.229117	-0.018962	-0.026129	-0.972863
48596	0.100748	-1.422010	9.568002	-0.382548	1.566431	-0.275622	0.225957	-0.025896	0.000222	-0.973793
48597	0.343252	-0.264327	9.188654	0.138793	-0.017827	-0.615921	0.222656	-0.033573	0.025027	-0.973997
48598	0.858967	-0.755506	9.091243	-0.313855	-0.202693	-0.658323	0.219503	-0.040389	0.049188	-0.973534
48599	0.392699	-1.041233	9.594319	0.248464	-0.176876	-0.159695	0.216923	-0.046407	0.071068	-0.972492
48600	0.165912	-1.500690	9.547948	0.461608	-0.034529	-0.157918	0.214858	-0.052427	0.091329	-0.970951
48601	0.646101	-2.159661	8.785581	-0.154978	0.130787	-0.745383	0.213126	-0.058186	0.110327	-0.969030
48602	0.687754	-3.001870	8.589901	-0.394600	0.609174	-0.716740	0.211793	-0.062972	0.126014	-0.967108
48603	0.425830	-3.020470	8.484298	-0.043014	0.524357	-0.812358	0.210919	-0.067334	0.138924	-0.965235
48604	0.914035	-3.792015	8.008225	-0.760422	0.922947	-0.985811	0.210460	-0.070547	0.148339	-0.963704
48605	0.725566	-3.302399	8.417702	-0.244046	0.349221	-0.751376	0.210530	-0.072754	0.154201	-0.962604
48606	0.900272	-3.365056	8.751745	-0.306396	0.157447	-0.399508	0.210910	-0.074171	0.158057	-0.961787
48607	0.604539	-3.286286	9.284595	0.132654	0.018851	0.053961	0.211697	-0.075077	0.160043	-0.961215
48608	0.778500	-3.536460	9.208648	-0.119011	0.155429	0.080415	0.212753	-0.075602	0.160652	-0.960839
48609	0.872017	-3.776061	8.833973	-0.377081	0.430369	-0.183012	0.213984	-0.075403	0.159130	-0.960834
48610	0.918035	-3.615453	8.754058	-0.395841	0.333054	-0.311114	0.215212	-0.074683	0.155986	-0.961132
48611	0.799537	-3.459998	8.995351	-0.214638	0.245581	-0.147269	0.216417	-0.073580	0.152170	-0.961558
48612	0.639326	-3.187077	9.236300	0.042952	0.087825	-0.021607	0.217706	-0.072413	0.147949	-0.962014
48613	0.617068	-3.134366	9.368966	0.066756	0.092288	0.085241	0.219026	-0.071333	0.143830	-0.962420
48614	0.625713	-3.479234	9.245751	-0.151009	0.497892	0.072094	0.220502	-0.070112	0.138772	-0.962915
48615	0.619378	-3.430708	9.019755	-0.227075	0.617417	-0.165146	0.222115	-0.068656	0.131892	-0.963616
48616	0.740493	-2.864658	8.795664	-0.209199	0.244149	-0.538349	0.223640	-0.067033	0.124660	-0.964340
48617	0.785896	-2.243187	8.813416	-0.049732	-0.207214	-0.686942	0.224988	-0.065389	0.118351	-0.964934
48618	0.808688	-1.970886	8.966449	0.015721	-0.394338	-0.605132	0.226106	-0.063649	0.113556	-0.965365
48619	0.823442	-2.411698	8.808432	-0.266318	0.088472	-0.647353	0.227122	-0.061587	0.108953	-0.965791
48620	0.836653	-3.000474	8.421939	-0.660714	0.749929	-0.889028	0.228178	-0.058770	0.102812	-0.966390
48621	0.755625	-2.567002	8.284086	-0.508974	0.537518	-1.138781	0.229240	-0.055420	0.094841	-0.967152
48622	0.743884	-1.752806	8.217679	-0.247126	-0.041766	-1.381124	0.230215	-0.051880	0.086736	-0.967877
48623	0.702542	-0.966306	8.070422	0.024487	-0.585235	-1.675457	0.231120	-0.048190	0.079673	-0.968459
48624	0.450247	-0.453151	8.005552	0.383627	-0.829462	-1.833916	0.232015	-0.044348	0.074187	-0.968864
48625	0.345858	-0.724249	7.895264	0.261374	-0.465162	-1.894746	0.233170	-0.040061	0.069429	-0.969127
48626	0.341741	-1.377827	7.621196	-0.150096	0.209062	-2.064767	0.234879	-0.034793	0.063337	-0.969335
48627	-0.058968	-1.233802	7.467768	0.142057	0.369945	-2.253978	0.236983	-0.028647	0.054757	-0.969546
48628	0.114133	-0.269329	7.053511	0.274856	-0.423103	-2.771303	0.239036	-0.022053	0.046249	-0.969658
48629	-0.039145	0.348438	6.668329	0.555443	-0.780561	-3.204346	0.240881	-0.014937	0.038668	-0.969669
48630	-0.321971	0.698672	6.661185	0.856220	-0.895524	-3.222778	0.242441	-0.007488	0.033411	-0.969562
48631	-0.469817	0.361270	7.015994	0.722109	-0.513884	-2.827806	0.244000	0.000574	0.029430	-0.969328
48632	-0.577348	-0.153889	7.271007	0.443156	0.004823	-2.530769	0.245856	0.009579	0.025065	-0.968935
48633	-1.094386	-0.778614	7.253511	0.438556	0.849708	-2.498321	0.248210	0.020036	0.017752	-0.968336
48634	-1.648824	0.737618	7.321371	1.470472	-0.136440	-2.418051	0.250301	0.030645	0.009104	-0.967640
48635	-1.301607	1.125676	6.794731	1.213552	-0.560778	-2.932269	0.251869	0.041346	0.003621	-0.966871
48636	-1.505964	0.815751	6.493313	1.102520	-0.150136	-3.190296	0.253085	0.052901	-0.001011	-0.965996
48637	-1.936736	0.956124	6.341268	1.392656	-0.037638	-3.260336	0.254358	0.065288	-0.005231	-0.964890
48638	-2.114675	0.492990	6.748049	1.077288	0.462453	-2.821763	0.256122	0.079038	-0.009994	-0.963356
48639	-2.904961	0.425208	7.613667	1.349778	0.925574	-1.818748	0.258179	0.093848	-0.016115	-0.961393
48640	-3.211848	1.030381	7.800705	1.612880	0.593389	-1.489877	0.260007	0.108248	-0.021982	-0.959268
48641	-3.290561	1.620861	6.643249	1.986083	0.166044	-2.490715	0.261731	0.122670	-0.025803	-0.956966
48642	-3.973525	1.555721	6.064708	2.446340	0.580335	-2.836735	0.263218	0.137990	-0.028574	-0.954389
48643	-4.227251	1.327673	6.959567	2.053120	0.867519	-1.869506	0.264608	0.153909	-0.029469	-0.951539
48644	-3.838373	1.786045	7.571382	1.511372	0.201997	-1.273534	0.266247	0.170248	-0.028444	-0.948324
48645	-4.250900	2.057327	7.156032	1.840120	0.116012	-1.439850	0.268697	0.187983	-0.026378	-0.944335
48646	-5.745845	1.135979	7.919022	1.956577	1.533193	-0.282448	0.271653	0.206366	-0.023080	-0.939726
48647	-6.428248	0.801913	7.905922	1.976206	2.044230	0.004286	0.274106	0.223833	-0.018987	-0.935096
48648	-5.949248	0.060710	6.630762	1.475098	2.411707	-1.365028	0.275418	0.241493	-0.016122	-0.930358
48649	-6.004972	1.239463	5.527071	2.316054	1.462494	-2.026006	0.275461	0.260834	-0.015951	-0.925112
48650	-6.972012	2.614548	5.773918	3.224988	0.693680	-0.987354	0.275175	0.282295	-0.017114	-0.918855
48651	-8.470424	2.534749	9.315520	1.883380	0.966705	2.853977	0.275554	0.303066	-0.014968	-0.912139
48652	-8.120779	3.160158	9.865476	1.174003	-0.048478	3.296803	0.277350	0.321140	-0.007377	-0.905479
48653	-7.921260	1.320727	7.366597	1.219091	1.539143	0.905803	0.280339	0.338022	0.004081	-0.898407
48654	-8.218806	0.798886	4.696309	2.426066	2.426430	-0.955164	0.282506	0.356322	0.012300	-0.890547
48655	-9.884186	1.891440	6.349261	2.535804	1.755382	1.678808	0.284146	0.375416	0.019871	-0.882003
48656	-10.398994	2.256570	9.234144	0.675899	0.685195	4.242402	0.286545	0.393181	0.029819	-0.873162
48657	-10.200061	1.886325	9.771956	-0.416884	0.370627	4.426445	0.290189	0.408776	0.041835	-0.864258
48658	-9.944099	0.403002	8.025537	-0.536048	1.659479	2.852011	0.294199	0.423895	0.052438	-0.854991
48659	-9.912157	-0.503610	5.903705	0.041697	2.856757	1.375695	0.295636	0.439821	0.056748	-0.846130
48660	-9.685672	0.449583	4.581631	1.014370	2.292682	0.613515	0.294006	0.457650	0.055920	-0.837251
48661	-10.426416	1.986276	4.393733	1.855427	1.299057	1.448310	0.290474	0.476856	0.053040	-0.827901
48662	-11.436900	3.705341	5.169768	2.052388	-0.121382	3.110328	0.286875	0.496042	0.051254	-0.817935
48663	-11.728617	4.043680	7.120937	0.273397	-1.206659	4.437314	0.285653	0.513037	0.054357	-0.807614
48664	-10.624728	2.273302	9.167274	-3.057050	-1.228351	4.015467	0.286944	0.526537	0.061009	-0.797935
48665	-9.404618	0.927128	7.181942	-2.835501	-0.050877	1.712603	0.287891	0.538877	0.066380	-0.788876
48666	-9.305258	0.871104	4.753217	-1.214814	0.787395	0.571671	0.286110	0.551910	0.068295	-0.780303
48667	-9.838317	1.912310	3.687411	0.009316	0.430731	0.857359	0.280998	0.566278	0.067159	-0.771919
48668	-11.333013	3.415741	3.971244	0.456120	-0.570711	2.650219	0.273980	0.581404	0.064976	-0.763336
48669	-11.816281	4.320027	6.191652	-1.340942	-2.281445	3.956876	0.267639	0.595347	0.064043	-0.754871
48670	-11.215971	4.454408	7.435192	-2.832467	-3.300123	3.677839	0.264296	0.606771	0.066087	-0.746732
48671	-10.588135	3.503244	6.517134	-2.856159	-2.485864	2.536753	0.263801	0.616287	0.070069	-0.738708
48672	-10.454320	3.175023	5.390554	-2.278897	-1.921245	2.000058	0.264416	0.624832	0.073645	-0.730921
48673	-10.269189	3.077616	4.769516	-2.016727	-1.745717	1.613441	0.265771	0.632936	0.076709	-0.723100
48674	-10.624411	2.816033	4.821169	-2.389455	-1.544686	1.847119	0.267146	0.640820	0.078365	-0.715431
48675	-10.771457	3.028113	5.019029	-2.679417	-1.843083	2.011172	0.268410	0.648005	0.078518	-0.708435
48676	-10.493649	2.982948	4.830007	-2.745146	-1.835876	1.651782	0.270383	0.654133	0.078154	-0.702065
48677	-10.307837	2.990730	4.385964	-2.527431	-1.706570	1.373469	0.272967	0.659199	0.077747	-0.696348
48678	-10.159901	3.126469	4.452981	-2.650780	-1.906566	1.240131	0.276954	0.662601	0.079128	-0.691372
48679	-10.222826	1.309398	4.351004	-3.551128	-0.335298	0.790524	0.278958	0.665599	0.078794	-0.687715
48680	-9.894784	1.797083	5.061380	-4.005922	-1.166774	0.644104	0.278901	0.667971	0.076870	-0.685653
48681	-9.526109	1.676559	4.737444	-3.821161	-1.000124	0.207258	0.278320	0.669330	0.075480	-0.684717
48682	-9.294761	1.975596	3.747605	-2.828907	-0.840120	-0.033548	0.277763	0.670141	0.075160	-0.684185
48683	-9.280176	2.671145	3.086563	-1.928181	-1.120971	0.077160	0.277169	0.670566	0.075530	-0.683969
48684	-9.101191	3.397695	2.701087	-1.228774	-1.613464	0.064492	0.277794	0.670446	0.077528	-0.683609
48685	-9.174639	3.387975	2.103531	-0.692980	-1.322646	0.079101	0.280152	0.669645	0.081377	-0.682985
48686	-9.259407	3.172507	1.412852	-0.167880	-0.804242	0.042384	0.283921	0.668325	0.086493	-0.682092
48687	-9.348099	2.952587	0.898948	0.197908	-0.353394	0.023402	0.288255	0.666698	0.091852	-0.681165
48688	-9.569499	2.749142	0.675204	0.306014	-0.015837	0.162032	0.292644	0.665067	0.097008	-0.680173
48689	-9.518958	2.488233	0.612948	0.253108	0.216559	0.039548	0.296601	0.663450	0.101387	-0.679399
48690	-9.278359	2.381804	0.562253	0.277594	0.270584	-0.224844	0.299843	0.661969	0.104741	-0.678911
48691	-9.273474	2.406919	0.525324	0.344279	0.278061	-0.227769	0.302357	0.660687	0.107121	-0.678673
48692	-9.373790	2.427023	0.469768	0.413603	0.330376	-0.132873	0.304063	0.659712	0.108424	-0.678653
48693	-9.341009	2.423327	0.564677	0.346652	0.285368	-0.156384	0.304929	0.659108	0.108558	-0.678830
48694	-9.224499	2.638137	0.762236	0.315847	-0.010001	-0.193318	0.305453	0.658686	0.108128	-0.679072
48695	-9.056516	2.730462	0.807549	0.343144	-0.137550	-0.326310	0.306016	0.658308	0.107597	-0.679270
48696	-9.103515	2.850622	0.805563	0.411354	-0.201816	-0.250313	0.306850	0.657951	0.107285	-0.679289
48697	-9.147395	2.837386	0.791813	0.414270	-0.154298	-0.212838	0.308050	0.657545	0.107289	-0.679139
48698	-9.407153	2.672177	0.746560	0.345084	0.090025	-0.011402	0.309495	0.657158	0.107591	-0.678808
48699	-9.516226	2.720041	0.804264	0.317542	0.066833	0.111964	0.311009	0.656780	0.108129	-0.678396
48700	-9.511038	2.551348	0.890399	0.150794	0.163365	0.072280	0.312548	0.656449	0.108813	-0.677900
48701	-9.423613	2.518948	0.944321	0.091006	0.144992	-0.014115	0.313947	0.656214	0.109506	-0.677369
48702	-9.362816	2.435112	0.898261	0.081473	0.227271	-0.099775	0.315188	0.656052	0.110187	-0.676840
48703	-9.397951	2.403350	0.958160	0.008032	0.233999	-0.067903	0.316250	0.655964	0.110812	-0.676327
48704	-9.387536	2.349013	1.068409	-0.116050	0.215151	-0.079988	0.317185	0.655841	0.111415	-0.675909
48705	-9.255601	2.378658	1.163471	-0.169958	0.104414	-0.187821	0.318068	0.655681	0.112039	-0.675545
48706	-9.239893	2.369139	1.138077	-0.153775	0.124308	-0.208284	0.318995	0.655460	0.112785	-0.675199
48707	-9.238243	2.235954	1.124551	-0.219191	0.236192	-0.246841	0.319733	0.655293	0.113379	-0.674912
48708	-9.188199	2.320939	1.157711	-0.193461	0.138359	-0.268397	0.320273	0.655185	0.113900	-0.674674
48709	-9.334695	2.365599	1.063680	-0.100448	0.197598	-0.126879	0.320726	0.655108	0.114552	-0.674422
48710	-9.594772	2.380038	1.075452	-0.117294	0.246883	0.127439	0.320975	0.655064	0.115432	-0.674197
48711	-9.692433	2.582903	1.281954	-0.168576	-0.012121	0.298172	0.321165	0.654980	0.116643	-0.673980
48712	-9.599123	2.596301	1.474816	-0.301680	-0.175352	0.234065	0.321426	0.654704	0.118182	-0.673856
48713	-9.514917	2.654313	1.463524	-0.238190	-0.253315	0.167292	0.321729	0.654226	0.119909	-0.673870
48714	-9.563258	2.669103	1.406940	-0.167671	-0.233272	0.211130	0.322187	0.653564	0.121618	-0.673987
48715	-9.540342	2.523296	1.348175	-0.184819	-0.102673	0.145123	0.322788	0.652803	0.122909	-0.674203
48716	-9.343638	2.335590	1.233506	-0.174191	0.053742	-0.104606	0.323309	0.652077	0.123476	-0.674552
48717	-9.144930	2.277472	1.103958	-0.079235	0.127424	-0.325180	0.323787	0.651449	0.123444	-0.674935
48718	-9.166899	2.155086	1.153884	-0.185036	0.210108	-0.329572	0.324113	0.651023	0.122871	-0.675294
48719	-9.329664	2.287953	1.255451	-0.190971	0.109442	-0.127387	0.324340	0.650620	0.122203	-0.675695
48720	-9.375895	2.230324	1.123809	-0.116484	0.257696	-0.113991	0.324437	0.650225	0.121555	-0.676145
48721	-9.394237	2.281403	0.987248	0.029097	0.315129	-0.100273	0.324196	0.649943	0.120876	-0.676654
48722	-9.347682	2.340767	0.912298	0.134405	0.307767	-0.139123	0.323735	0.649711	0.120225	-0.677213
48723	-9.154398	2.338562	0.860264	0.192429	0.288816	-0.331575	0.323124	0.649598	0.119646	-0.677716
48724	-9.151697	2.555921	1.008125	0.207129	0.036034	-0.259761	0.322476	0.649616	0.119179	-0.678089
48725	-9.157246	2.663410	1.215852	0.106473	-0.167735	-0.200833	0.321989	0.649612	0.119027	-0.678351
48726	-9.257409	2.734764	1.392949	0.004723	-0.301200	-0.064451	0.321631	0.649557	0.119133	-0.678555
48727	-9.123818	2.767847	1.508565	-0.055875	-0.436400	-0.169699	0.321446	0.649391	0.119503	-0.678736
48728	-8.985491	2.730197	1.505637	-0.060626	-0.450001	-0.312488	0.321432	0.649139	0.120028	-0.678891
48729	-9.056167	2.753384	1.466945	-0.011543	-0.430094	-0.243879	0.321386	0.648940	0.120412	-0.679036
48730	-9.118110	2.800762	1.646038	-0.122312	-0.556601	-0.149930	0.321558	0.648609	0.120986	-0.679168
48731	-9.209619	2.958365	1.879795	-0.208980	-0.789258	0.007497	0.321976	0.648046	0.121697	-0.679380
48732	-9.276922	3.375577	2.134920	-0.151149	-1.234680	0.210603	0.322718	0.647197	0.122371	-0.679717
48733	-9.368234	3.659994	2.270860	-0.072952	-1.494026	0.389209	0.323719	0.646154	0.122721	-0.680169
48734	-9.347256	3.565893	2.211104	-0.059654	-1.370117	0.340877	0.324891	0.645029	0.122287	-0.680756
48735	-9.319427	3.314798	2.260144	-0.232102	-1.179139	0.262205	0.326191	0.643878	0.121019	-0.681450
48736	-9.318373	3.193280	2.298969	-0.326843	-1.057013	0.241662	0.327521	0.642747	0.118463	-0.682328
48737	-9.364319	3.575276	2.369635	-0.157806	-1.299435	0.403680	0.328942	0.641655	0.114301	-0.683382
48738	-9.497978	4.235305	2.354242	0.229352	-1.649140	0.719094	0.330892	0.640430	0.108803	-0.684486
48739	-9.641834	4.261679	2.310356	0.248731	-1.469782	0.875656	0.333461	0.639276	0.102038	-0.685360
48740	-9.850826	4.334241	2.641347	-0.023152	-1.485136	1.168762	0.336524	0.637973	0.094038	-0.686220
48741	-9.728520	4.530325	2.689458	0.011412	-1.514332	1.146520	0.340348	0.636360	0.085175	-0.686989
48742	-9.682923	4.648901	2.525675	0.163551	-1.318773	1.140850	0.344784	0.634615	0.075385	-0.687535
48743	-9.821788	4.975841	2.774099	0.074756	-1.410148	1.453292	0.349616	0.632925	0.064505	-0.687760
48744	-9.923731	5.281793	2.839824	0.109884	-1.366667	1.700577	0.355280	0.630962	0.052822	-0.687658
48745	-9.879135	5.261255	2.866278	-0.004993	-1.087207	1.689613	0.361852	0.628615	0.040375	-0.687224
48746	-9.891426	5.348747	2.766017	0.042584	-0.767447	1.741492	0.369608	0.625557	0.027380	-0.686527
48747	-9.909348	6.009271	3.237586	-0.081924	-1.101303	2.168744	0.378389	0.621725	0.012980	-0.685647
48748	-9.641404	6.798775	3.354944	0.159703	-1.430196	2.367078	0.387877	0.617390	-0.003078	-0.684377
48749	-9.466915	7.112940	3.048956	0.480469	-1.132620	2.351945	0.397818	0.612849	-0.020507	-0.682449
48750	-9.335443	7.022978	2.618225	0.679895	-0.460509	2.130160	0.408272	0.608164	-0.038886	-0.679661
48751	-9.474250	7.445287	3.063629	0.352263	-0.333640	2.609748	0.419247	0.603152	-0.058502	-0.676031
48752	-9.343152	7.960641	3.476984	0.101553	-0.350461	2.938418	0.431288	0.597111	-0.078420	-0.671789
48753	-9.107631	7.845894	3.379216	-0.000725	0.207630	2.671306	0.444071	0.590172	-0.098508	-0.666929
48754	-8.670480	7.605861	3.078215	0.044946	0.762068	2.098970	0.457021	0.582724	-0.118849	-0.661392
48755	-8.227806	7.867176	2.698093	0.397204	1.024149	1.833406	0.469829	0.575228	-0.139443	-0.654927
48756	-8.071686	8.214360	2.125943	0.912632	1.517100	1.762333	0.482640	0.567955	-0.160350	-0.647127
48757	-8.046651	9.105913	2.338358	0.931435	1.609530	2.419976	0.495936	0.560387	-0.181325	-0.638071
48758	-7.684676	9.520282	2.720948	0.622010	1.654478	2.594126	0.510486	0.551523	-0.201038	-0.628339
48759	-7.265067	9.140306	2.786812	0.297761	2.081102	2.004063	0.525800	0.541482	-0.219585	-0.618153
48760	-6.859871	8.970263	2.367582	0.520975	2.540371	1.428704	0.541093	0.530850	-0.237743	-0.607367
48761	-6.491111	8.797148	1.583178	1.070282	3.089564	0.737511	0.556251	0.520167	-0.255950	-0.595399
48762	-5.662642	8.696642	1.792507	0.811247	2.867409	0.286765	0.570495	0.510056	-0.274925	-0.582061
48763	-4.650121	8.770249	2.348006	0.328761	2.305346	0.117196	0.583920	0.500247	-0.293718	-0.567909
48764	-4.155853	8.385245	2.583071	-0.123830	2.351602	-0.395408	0.596509	0.490781	-0.312107	-0.553082
48765	-3.547064	8.708889	2.185059	0.266512	2.324631	-0.447822	0.607779	0.482405	-0.330992	-0.536969
48766	-3.252739	9.648566	1.676838	0.869988	2.622756	0.128249	0.618889	0.474198	-0.349186	-0.519791
48767	-2.795921	10.433281	1.419589	1.209146	2.786163	0.648129	0.630770	0.464873	-0.365879	-0.502150
48768	-2.104915	9.538798	2.082312	0.303450	2.452842	-0.136884	0.644078	0.452953	-0.379776	-0.485560
48769	-0.875407	7.225131	2.740273	-0.752978	1.302114	-2.183662	0.657679	0.439078	-0.391187	-0.470789
48770	0.033285	6.233378	2.791229	-0.878221	0.606252	-3.067376	0.670153	0.425089	-0.401433	-0.457215
48771	0.453399	6.578323	2.143831	-0.097855	0.738439	-2.919774	0.681623	0.411713	-0.410773	-0.444013
48772	0.855751	7.165234	1.395920	0.835279	0.990223	-2.578467	0.692420	0.398977	-0.419160	-0.430902
48773	1.410311	6.572478	1.890262	0.365298	0.508768	-2.858569	0.702978	0.386186	-0.426029	-0.418547
48774	2.444951	5.129522	2.950235	-0.671611	-0.877806	-3.506575	0.712896	0.373409	-0.431179	-0.407958
48775	2.907864	4.024409	3.695955	-1.469899	-1.647140	-4.030431	0.721516	0.361429	-0.435092	-0.399349
48776	3.121555	4.485201	3.767005	-1.309982	-1.474161	-3.475549	0.728571	0.350886	-0.438130	-0.392562
48777	3.087090	4.965775	3.520739	-0.933690	-1.021721	-3.129367	0.734403	0.342241	-0.440601	-0.386516
48778	3.877853	3.837517	3.141055	-0.608364	-2.040551	-3.888554	0.739046	0.335497	-0.442319	-0.381584
48779	4.245944	4.013048	2.903014	-0.202782	-2.136872	-3.652166	0.742615	0.330798	-0.443519	-0.377341
48780	4.140085	5.107418	2.968689	0.021099	-1.431433	-2.742393	0.745865	0.326561	-0.443710	-0.374386
48781	4.360732	5.249571	3.171124	-0.007749	-1.505805	-2.439638	0.749148	0.322017	-0.442422	-0.373290
48782	4.272832	4.540943	3.443602	-0.408983	-1.782058	-2.928506	0.752404	0.316811	-0.439493	-0.374654
48783	4.252012	3.393324	3.650494	-0.851823	-2.356843	-3.759627	0.754934	0.311815	-0.435450	-0.378458
