// General information: 
//  MT Manager version: 2021.0.0 
//  XDA version: 2021.0.0 build 5908 rev 109668 built on 2021-04-19
// Device information: 
//  DeviceId: 00B43DFC
//  ProductCode: MTW2-3A7G6
//  Firmware Version: 4.3.5
//  Hardware Version: 1.1.0
// Device settings: 
//  Filter Profile: human(46.1)
//  Option Flags: Orientation Smoother Disabled, Position/Velocity Smoother Disabled, Continuous Zero Rotation Update Disabled, AHS Disabled, ICC Disabled
// Coordinate system: ENU
PacketCounter	Acc_X	Acc_Y	Acc_Z	FreeAcc_E	FreeAcc_N	FreeAcc_U	Quat_q0	Quat_q1	Quat_q2	Quat_q3
47597	-9.618733	-0.853770	-1.565562	-0.002826	0.060561	-0.030241	0.354422	0.599168	0.465024	-0.546933
47598	-9.622829	-0.864266	-1.620956	0.006668	0.112698	-0.016741	0.354315	0.599195	0.465061	-0.546941
47599	-9.679812	-0.839449	-1.522109	-0.000685	0.001228	0.021958	0.354213	0.599276	0.465029	-0.546946
47600	-9.664007	-0.768392	-1.472687	0.049545	-0.066281	-0.007311	0.354030	0.599394	0.464932	-0.547017
47601	-9.681809	-0.838411	-1.611394	0.030662	0.081531	0.037661	0.353984	0.599429	0.464896	-0.547040
47602	-9.672911	-0.786943	-1.580300	0.068490	0.038026	0.019693	0.354213	0.599249	0.465067	-0.546943
47603	-9.644982	-0.805581	-1.590184	0.053076	0.059341	-0.004681	0.354447	0.599082	0.465231	-0.546835
47604	-9.623147	-0.825319	-1.576341	0.028785	0.057042	-0.026632	0.354458	0.599089	0.465250	-0.546804
47605	-9.615131	-0.924974	-1.691437	-0.027423	0.198048	-0.008234	0.354477	0.599088	0.465195	-0.546840
47606	-9.651466	-0.897997	-1.576714	-0.039698	0.076999	0.007482	0.354574	0.599062	0.465232	-0.546774
47607	-9.641642	-0.925430	-1.636102	-0.047556	0.143567	0.009310	0.354853	0.598911	0.465392	-0.546621
47608	-9.675442	-0.893244	-1.677161	-0.003461	0.166881	0.046170	0.354940	0.598848	0.465397	-0.546630
47609	-9.634802	-0.890446	-1.691273	0.002451	0.187833	0.008077	0.355010	0.598823	0.465344	-0.546657
47610	-9.624062	-0.919506	-1.705098	-0.021167	0.214115	0.002053	0.355226	0.598682	0.465399	-0.546624
47611	-9.616200	-0.905799	-1.761823	0.009636	0.265917	0.001843	0.355280	0.598681	0.465342	-0.546638
47612	-9.606572	-0.967374	-1.743028	-0.055373	0.271381	-0.005370	0.355268	0.598715	0.465218	-0.546715
47613	-9.583162	-0.935343	-1.717831	-0.034821	0.242282	-0.035014	0.355261	0.598774	0.465186	-0.546683
47614	-9.595833	-0.922811	-1.791449	0.000879	0.303652	-0.012244	0.355167	0.598873	0.465145	-0.546670
47615	-9.637518	-0.845106	-1.686115	0.040433	0.172442	0.006048	0.355109	0.598896	0.465127	-0.546698
47616	-9.681797	-0.891046	-1.603178	-0.029071	0.102171	0.040741	0.355010	0.599005	0.464994	-0.546755
47617	-9.638859	-0.817434	-1.563004	0.025254	0.048741	-0.013923	0.354916	0.599116	0.464839	-0.546827
47618	-9.682063	-0.796997	-1.589794	0.054198	0.060455	0.031011	0.354879	0.599174	0.464703	-0.546902
47619	-9.664094	-0.753067	-1.617318	0.103655	0.076220	0.013858	0.354930	0.599183	0.464646	-0.546909
47620	-9.684225	-0.753816	-1.586347	0.092593	0.045453	0.028974	0.354937	0.599205	0.464554	-0.546957
47621	-9.629380	-0.790553	-1.651625	0.077645	0.128463	-0.011908	0.354954	0.599224	0.464516	-0.546959
47622	-9.623029	-0.769192	-1.630515	0.089951	0.104384	-0.023206	0.355074	0.599170	0.464482	-0.546968
47623	-9.654875	-0.791876	-1.550502	0.041791	0.033736	-0.002241	0.355223	0.599128	0.464475	-0.546923
47624	-9.615010	-0.827577	-1.654519	0.040576	0.149962	-0.022560	0.355262	0.599119	0.464478	-0.546906
47625	-9.667798	-0.718934	-1.533240	0.103688	-0.007609	0.001751	0.355321	0.599087	0.464605	-0.546793
47626	-9.672234	-0.727750	-1.588011	0.113156	0.044558	0.015269	0.355543	0.598915	0.464856	-0.546626
47627	-9.680176	-0.779934	-1.574517	0.059230	0.047600	0.025373	0.355861	0.598668	0.465149	-0.546440
47628	-9.679071	-0.840325	-1.619965	0.016890	0.109897	0.036297	0.356056	0.598510	0.465347	-0.546316
47629	-9.647255	-0.888758	-1.666667	-0.015144	0.174252	0.016179	0.356304	0.598359	0.465587	-0.546117
47630	-9.617979	-0.967883	-1.723930	-0.072735	0.257956	0.002730	0.356479	0.598221	0.465737	-0.546025
47631	-9.598239	-0.872963	-1.740354	0.021617	0.247030	-0.022100	0.356526	0.598179	0.465755	-0.546025
47632	-9.689895	-0.888369	-1.693018	-0.005733	0.193138	0.062142	0.356649	0.598078	0.465800	-0.546017
47633	-9.631544	-0.895453	-1.702772	-0.010919	0.216489	0.006728	0.356777	0.597994	0.465790	-0.546034
47634	-9.644922	-0.916170	-1.695464	-0.032366	0.216744	0.020443	0.356790	0.597991	0.465627	-0.546168
47635	-9.627220	-0.905982	-1.643890	-0.040056	0.171453	-0.005774	0.356734	0.598071	0.465386	-0.546322
47636	-9.625303	-0.874151	-1.630196	-0.014640	0.151975	-0.012441	0.356687	0.598144	0.465116	-0.546502
47637	-9.682863	-0.820919	-1.725546	0.069435	0.217738	0.054279	0.356570	0.598205	0.464803	-0.546779
47638	-9.625836	-0.801583	-1.609792	0.049368	0.117605	-0.021139	0.356419	0.598309	0.464425	-0.547085
47639	-9.640910	-0.781799	-1.599998	0.066624	0.103154	-0.009460	0.356113	0.598529	0.463967	-0.547432
47640	-9.694265	-0.733148	-1.564248	0.103365	0.048160	0.033639	0.355978	0.598621	0.463655	-0.547683
47641	-9.617019	-0.758314	-1.646777	0.105576	0.149851	-0.027987	0.355935	0.598677	0.463377	-0.547884
47642	-9.589992	-0.703932	-1.686669	0.170149	0.177324	-0.053183	0.355887	0.598681	0.463195	-0.548065
47643	-9.628824	-0.761206	-1.547881	0.071791	0.062170	-0.031041	0.355857	0.598702	0.463108	-0.548136
47644	-9.637516	-0.833075	-1.577855	0.014322	0.112750	-0.012053	0.355927	0.598660	0.463132	-0.548116
47645	-9.602602	-0.872577	-1.613729	-0.011545	0.165099	-0.037817	0.355919	0.598615	0.463183	-0.548126
47646	-9.685201	-0.809478	-1.413938	-0.015696	-0.055692	0.008425	0.355822	0.598677	0.463129	-0.548168
47647	-9.649805	-0.796040	-1.483479	0.019129	0.010185	-0.017144	0.355898	0.598630	0.463215	-0.548098
47648	-9.659346	-0.814093	-1.591366	0.038115	0.114609	0.009918	0.355954	0.598584	0.463283	-0.548054
47649	-9.731492	-0.840512	-1.496271	-0.016038	0.022813	0.068934	0.355935	0.598566	0.463245	-0.548118
47650	-9.628046	-0.824278	-1.591273	0.028803	0.123792	-0.020103	0.355917	0.598541	0.463273	-0.548133
47651	-9.633571	-0.813467	-1.644494	0.057580	0.168551	-0.007584	0.355874	0.598548	0.463279	-0.548148
47652	-9.656679	-0.911125	-1.514892	-0.077429	0.075114	0.003873	0.355938	0.598553	0.463331	-0.548057
47653	-9.655153	-0.951467	-1.516243	-0.116220	0.089769	0.005903	0.356073	0.598493	0.463383	-0.547991
47654	-9.666466	-0.927433	-1.622335	-0.058611	0.179431	0.030942	0.356073	0.598513	0.463345	-0.548001
47655	-9.654743	-0.845017	-1.580556	0.004871	0.116674	0.006306	0.356026	0.598543	0.463234	-0.548093
47656	-9.607877	-0.882278	-1.664422	-0.003227	0.216298	-0.024265	0.356035	0.598535	0.463139	-0.548177
47657	-9.616142	-0.854392	-1.560298	-0.011270	0.109301	-0.034005	0.355809	0.598723	0.462961	-0.548268
47658	-9.667542	-0.859678	-1.452802	-0.050969	0.000551	0.000999	0.355568	0.598929	0.462822	-0.548317
47659	-9.702599	-0.794820	-1.617686	0.065927	0.125358	0.054887	0.355496	0.599000	0.462781	-0.548320
47660	-9.702459	-0.788218	-1.495365	0.031672	0.009116	0.035867	0.355350	0.599063	0.462662	-0.548446
47661	-9.658944	-0.796829	-1.544342	0.040275	0.065763	0.001036	0.355284	0.599050	0.462565	-0.548585
47662	-9.626641	-0.734611	-1.532857	0.095317	0.041008	-0.037680	0.355185	0.599097	0.462489	-0.548662
47663	-9.642606	-0.673704	-1.526057	0.151194	0.011785	-0.028026	0.355145	0.599129	0.462481	-0.548660
47664	-9.687779	-0.758341	-1.532005	0.074639	0.036706	0.024398	0.355149	0.599135	0.462514	-0.548623
47665	-9.666144	-0.830549	-1.486196	-0.010354	0.020858	0.002219	0.355215	0.599154	0.462532	-0.548544
47666	-9.693828	-0.750541	-1.385456	0.031387	-0.103265	0.007773	0.355155	0.599190	0.462426	-0.548634
47667	-9.671399	-0.839210	-1.537364	-0.001049	0.072941	0.015761	0.355235	0.599107	0.462344	-0.548741
47668	-9.611812	-0.855770	-1.625038	0.012147	0.172250	-0.028507	0.355144	0.599140	0.462215	-0.548873
47669	-9.620072	-0.742890	-1.630550	0.121803	0.139985	-0.028929	0.355127	0.599089	0.462224	-0.548931
47670	-9.610400	-0.773110	-1.690150	0.113890	0.206543	-0.027062	0.355214	0.598999	0.462410	-0.548817
47671	-9.639654	-0.798671	-1.569779	0.050040	0.095572	-0.014046	0.355273	0.598937	0.462681	-0.548618
47672	-9.672295	-0.842122	-1.582443	0.014085	0.112800	0.023657	0.355335	0.598863	0.462927	-0.548451
47673	-9.686731	-0.875470	-1.545377	-0.029353	0.084712	0.035122	0.355386	0.598811	0.463047	-0.548374
47674	-9.620912	-0.903579	-1.583328	-0.044982	0.139140	-0.021674	0.355407	0.598778	0.463155	-0.548305
47675	-9.699299	-0.857768	-1.497818	-0.027975	0.029942	0.038909	0.355259	0.598876	0.463109	-0.548333
47676	-9.675114	-0.774251	-1.506881	0.053280	0.014456	0.009478	0.355205	0.598912	0.463055	-0.548374
47677	-9.625314	-0.821146	-1.625771	0.047787	0.149745	-0.017823	0.355344	0.598790	0.463109	-0.548371
47678	-9.674067	-0.822284	-1.627574	0.048510	0.145198	0.030548	0.355610	0.598607	0.463287	-0.548249
47679	-9.646522	-0.893814	-1.604875	-0.027574	0.152967	0.005956	0.355660	0.598562	0.463310	-0.548246
47680	-9.671286	-0.864340	-1.583414	-0.006109	0.119475	0.024677	0.355622	0.598588	0.463283	-0.548265
47681	-9.579057	-0.910278	-1.675282	-0.021357	0.235585	-0.048592	0.355619	0.598594	0.463254	-0.548284
47682	-9.615623	-0.922808	-1.650900	-0.040630	0.209789	-0.015158	0.355637	0.598594	0.463390	-0.548158
47683	-9.656720	-0.851511	-1.668956	0.033236	0.194809	0.022132	0.355661	0.598582	0.463462	-0.548095
47684	-9.630782	-0.895208	-1.569897	-0.041826	0.119308	-0.014629	0.355539	0.598658	0.463504	-0.548056
47685	-9.638216	-0.855629	-1.545542	-0.012052	0.080847	-0.014253	0.355554	0.598611	0.463585	-0.548028
47686	-9.650470	-0.824967	-1.574811	0.027095	0.094656	-0.000324	0.355550	0.598606	0.463709	-0.547931
47687	-9.692202	-0.766865	-1.514316	0.063251	0.011159	0.026820	0.355563	0.598551	0.463784	-0.547920
47688	-9.714269	-0.840027	-1.539638	0.003758	0.054688	0.058490	0.355632	0.598502	0.463827	-0.547892
47689	-9.682842	-0.756027	-1.528148	0.078187	0.022647	0.018773	0.355675	0.598461	0.463850	-0.547889
47690	-9.669374	-0.795149	-1.576243	0.057107	0.084523	0.016005	0.355907	0.598282	0.463881	-0.547908
47691	-9.592348	-0.872426	-1.627134	-0.001432	0.172590	-0.045802	0.356111	0.598163	0.463972	-0.547829
47692	-9.592363	-0.911948	-1.671306	-0.024560	0.227463	-0.035878	0.356117	0.598163	0.463952	-0.547842
47693	-9.665355	-0.824060	-1.562639	0.024344	0.086887	0.012375	0.356275	0.598049	0.463984	-0.547836
47694	-9.608781	-0.889779	-1.706814	0.008275	0.253166	-0.016288	0.356378	0.597978	0.464070	-0.547773
47695	-9.633068	-0.893480	-1.608923	-0.027245	0.158445	-0.006715	0.356332	0.598018	0.464097	-0.547737
47696	-9.623896	-0.809606	-1.656811	0.067728	0.176259	-0.015534	0.356185	0.598096	0.464044	-0.547792
47697	-9.684880	-0.826367	-1.533637	0.013070	0.055828	0.027462	0.356105	0.598182	0.463962	-0.547820
47698	-9.674677	-0.835401	-1.548712	0.008744	0.074758	0.020426	0.356221	0.598120	0.464006	-0.547775
47699	-9.645512	-0.862404	-1.637301	0.011602	0.171990	0.007225	0.356238	0.598104	0.463958	-0.547822
47700	-9.611135	-0.821287	-1.582024	0.031633	0.114385	-0.038377	0.356129	0.598163	0.463792	-0.547969
47701	-9.564829	-0.838551	-1.666418	0.042765	0.206682	-0.069919	0.355918	0.598320	0.463623	-0.548078
47702	-9.659392	-0.824241	-1.585855	0.032229	0.109724	0.009994	0.355805	0.598421	0.463598	-0.548062
47703	-9.674055	-0.824169	-1.626689	0.045744	0.142885	0.030595	0.355785	0.598450	0.463717	-0.547944
47704	-9.661382	-0.815259	-1.555760	0.029362	0.073936	0.006733	0.355778	0.598490	0.463763	-0.547865
47705	-9.587795	-0.883378	-1.619755	-0.016183	0.166699	-0.050427	0.355655	0.598586	0.463694	-0.547897
47706	-9.639253	-0.896199	-1.634580	-0.021745	0.174091	0.003597	0.355412	0.598771	0.463587	-0.547944
47707	-9.678018	-0.847740	-1.609583	0.017097	0.126169	0.033999	0.355171	0.598932	0.463476	-0.548018
47708	-9.636672	-0.846986	-1.627387	0.023015	0.147197	-0.004067	0.355019	0.599029	0.463481	-0.548007
47709	-9.623170	-0.733997	-1.623056	0.127869	0.105431	-0.027443	0.354813	0.599162	0.463506	-0.547974
47710	-9.602657	-0.766253	-1.578381	0.081648	0.074755	-0.051684	0.354805	0.599193	0.463602	-0.547864
47711	-9.678926	-0.834167	-1.463248	-0.019904	-0.026143	0.011643	0.354843	0.599212	0.463779	-0.547668
47712	-9.666944	-0.904822	-1.527442	-0.066605	0.055066	0.015543	0.354828	0.599238	0.463947	-0.547508
47713	-9.630263	-0.839354	-1.634260	0.028706	0.134612	-0.009711	0.354676	0.599371	0.464105	-0.547326
47714	-9.591454	-0.849224	-1.666039	0.028328	0.167552	-0.042120	0.354474	0.599491	0.464308	-0.547154
47715	-9.629436	-0.835062	-1.568242	0.010163	0.058448	-0.020893	0.354319	0.599557	0.464584	-0.546947
47716	-9.671250	-0.850988	-1.524730	-0.017895	0.008920	0.014909	0.354246	0.599549	0.464934	-0.546706
47717	-9.686644	-0.844885	-1.491179	-0.022614	-0.033834	0.024328	0.354228	0.599499	0.465352	-0.546415
47718	-9.675931	-0.802951	-1.588971	0.049357	0.039041	0.025465	0.354192	0.599472	0.465682	-0.546188
47719	-9.706186	-0.776571	-1.547884	0.061974	-0.018063	0.046566	0.353980	0.599578	0.465750	-0.546152
47720	-9.688575	-0.767530	-1.546415	0.070142	-0.023122	0.028224	0.353868	0.599627	0.465851	-0.546084
47721	-9.653196	-0.826811	-1.628636	0.040454	0.076780	0.011402	0.353989	0.599542	0.465993	-0.545977
47722	-9.656290	-0.850692	-1.517026	-0.019182	-0.020198	-0.001051	0.353990	0.599536	0.466008	-0.545971
47723	-9.633393	-0.858365	-1.581113	-0.005825	0.046024	-0.012850	0.354061	0.599486	0.466054	-0.545941
47724	-9.584454	-0.883014	-1.744671	0.023458	0.214270	-0.033174	0.354104	0.599451	0.466176	-0.545847
47725	-9.592964	-0.855861	-1.643558	0.015631	0.107305	-0.042990	0.353885	0.599610	0.466176	-0.545814
47726	-9.648703	-0.819265	-1.624614	0.046184	0.064369	0.005752	0.353637	0.599725	0.466170	-0.545853
47727	-9.704060	-0.744298	-1.516231	0.084118	-0.073758	0.036638	0.353276	0.599919	0.466061	-0.545968
47728	-9.697706	-0.798236	-1.509834	0.032210	-0.063869	0.033996	0.353173	0.599957	0.466096	-0.545963
47729	-9.656818	-0.849930	-1.493691	-0.022510	-0.056491	-0.004328	0.353119	0.599972	0.466134	-0.545948
47730	-9.627058	-0.824683	-1.660726	0.056526	0.094725	-0.009311	0.353084	0.599964	0.466191	-0.545931
47731	-9.620220	-0.805099	-1.642413	0.068985	0.070722	-0.020620	0.352964	0.600048	0.466220	-0.545892
47732	-9.606110	-0.918059	-1.705366	-0.016509	0.166528	-0.014706	0.352857	0.600090	0.466184	-0.545945
47733	-9.597437	-0.940242	-1.688168	-0.042814	0.157105	-0.024007	0.352679	0.600203	0.466220	-0.545905
47734	-9.588710	-0.869552	-1.661105	0.014554	0.106521	-0.042980	0.352490	0.600334	0.466299	-0.545816
47735	-9.684499	-0.855316	-1.628600	0.019755	0.049791	0.044825	0.352295	0.600473	0.466358	-0.545739
47736	-9.654675	-0.876321	-1.598509	-0.011331	0.030834	0.012527	0.352286	0.600495	0.466430	-0.545659
47737	-9.637224	-0.978495	-1.651579	-0.090543	0.114638	0.012785	0.352264	0.600485	0.466515	-0.545611
47738	-9.601749	-0.945690	-1.721541	-0.036558	0.173296	-0.013695	0.352051	0.600587	0.466500	-0.545649
47739	-9.589142	-0.905191	-1.728871	0.004059	0.165635	-0.028386	0.351880	0.600721	0.466573	-0.545549
47740	-9.598595	-0.877329	-1.674089	0.011951	0.098937	-0.030287	0.351544	0.600973	0.466537	-0.545520
47741	-9.619431	-0.839453	-1.648444	0.039769	0.053522	-0.017227	0.351222	0.601186	0.466536	-0.545493
47742	-9.679627	-0.845194	-1.607973	0.022802	0.001609	0.035896	0.350957	0.601361	0.466559	-0.545450
47743	-9.655371	-0.855263	-1.676561	0.036092	0.067863	0.024112	0.350753	0.601462	0.466678	-0.545369
47744	-9.622550	-0.939254	-1.649025	-0.053068	0.070835	-0.005184	0.350681	0.601505	0.466857	-0.545215
47745	-9.667406	-0.859874	-1.679016	0.033872	0.060701	0.036799	0.350388	0.601629	0.466832	-0.545287
47746	-9.644591	-0.809798	-1.655788	0.073918	0.024463	0.006146	0.350322	0.601639	0.466898	-0.545263
47747	-9.586848	-0.856386	-1.844506	0.092502	0.223703	-0.015512	0.350272	0.601631	0.466963	-0.545248
47748	-9.632946	-0.881644	-1.807036	0.058201	0.186101	0.025926	0.350103	0.601715	0.467034	-0.545202
47749	-9.601380	-0.891971	-1.855208	0.064663	0.235727	0.003838	0.349903	0.601792	0.467153	-0.545144
47750	-9.571509	-0.860758	-1.903282	0.109839	0.270758	-0.020252	0.349817	0.601826	0.467375	-0.544972
47751	-9.610870	-0.845519	-1.804996	0.091895	0.161606	0.000934	0.349811	0.601807	0.467734	-0.544688
47752	-9.608276	-0.922245	-1.734755	-0.003751	0.114768	-0.006277	0.349639	0.601829	0.468080	-0.544478
47753	-9.634851	-0.868458	-1.598312	0.003398	-0.042254	-0.007721	0.349159	0.602088	0.468141	-0.544447
47754	-9.674178	-0.880326	-1.798044	0.062285	0.133409	0.065368	0.349033	0.602065	0.468314	-0.544404
47755	-9.599896	-0.911365	-1.815919	0.039748	0.171135	-0.001709	0.348841	0.602033	0.468395	-0.544493
47756	-9.651121	-0.869874	-1.653422	0.029835	-0.004640	0.017558	0.348479	0.602119	0.468307	-0.544704
47757	-9.617644	-0.851749	-1.688014	0.061908	0.025732	-0.011185	0.347965	0.602327	0.468067	-0.545010
47758	-9.607599	-0.916869	-1.714764	0.012558	0.071232	-0.010555	0.347691	0.602453	0.468008	-0.545097
47759	-9.563620	-0.853410	-1.842686	0.116562	0.174696	-0.038101	0.347293	0.602637	0.467839	-0.545292
47760	-9.683251	-0.760975	-1.688836	0.157246	-0.022542	0.044867	0.347093	0.602723	0.467761	-0.545391
47761	-9.677068	-0.814072	-1.679861	0.105373	-0.012689	0.042212	0.347069	0.602700	0.467752	-0.545439
47762	-9.539130	-0.972724	-1.751759	-0.022828	0.132696	-0.066318	0.347136	0.602617	0.467801	-0.545446
47763	-9.619513	-1.020046	-1.720830	-0.073704	0.104930	0.011789	0.347089	0.602534	0.467850	-0.545526
47764	-9.616808	-1.012588	-1.754246	-0.051890	0.133143	0.014076	0.346661	0.602680	0.467674	-0.545788
47765	-9.702785	-0.884746	-1.754328	0.074090	0.075299	0.086470	0.346650	0.602626	0.467581	-0.545933
47766	-9.553400	-1.001843	-1.828549	-0.013374	0.213148	-0.036741	0.346614	0.602568	0.467510	-0.546082
47767	-9.568068	-0.891626	-1.721786	0.056433	0.076938	-0.050599	0.346428	0.602636	0.467321	-0.546286
47768	-9.572396	-0.862765	-1.687030	0.073207	0.033918	-0.054885	0.346247	0.602742	0.467288	-0.546312
47769	-9.608362	-0.988810	-1.763183	-0.017892	0.137024	0.005056	0.346260	0.602733	0.467405	-0.546214
47770	-9.510075	-1.044604	-1.890025	-0.030943	0.288806	-0.064839	0.346412	0.602622	0.467728	-0.545963
47771	-9.612613	-0.978505	-1.866099	0.026127	0.222212	0.025608	0.346365	0.602590	0.467920	-0.545864
47772	-9.572085	-1.010430	-1.850195	-0.009201	0.222190	-0.013731	0.346185	0.602620	0.468032	-0.545849
47773	-9.568514	-1.055347	-1.809805	-0.063582	0.196339	-0.019678	0.346000	0.602673	0.468151	-0.545806
47774	-9.655551	-0.939545	-1.737084	0.024962	0.069871	0.042482	0.345616	0.602870	0.468104	-0.545873
47775	-9.620675	-0.939784	-1.775080	0.037650	0.107586	0.014749	0.345472	0.602951	0.468176	-0.545812
47776	-9.644492	-1.023877	-1.856626	-0.012802	0.203149	0.060011	0.345416	0.602998	0.468238	-0.545742
47777	-9.613911	-0.973563	-1.726372	-0.010544	0.069693	0.003141	0.345139	0.603155	0.468135	-0.545832
47778	-9.549407	-0.940753	-1.718674	0.016284	0.061928	-0.064563	0.345076	0.603180	0.468202	-0.545787
47779	-9.541287	-1.053580	-1.843940	-0.047021	0.214527	-0.040376	0.345077	0.603164	0.468319	-0.545704
47780	-9.562346	-0.963248	-1.805080	0.025902	0.142598	-0.034978	0.344901	0.603227	0.468334	-0.545733
47781	-9.622309	-0.917423	-1.752394	0.054054	0.064123	0.010466	0.344668	0.603345	0.468356	-0.545730
47782	-9.694273	-0.893163	-1.652465	0.045302	-0.054445	0.061638	0.344589	0.603388	0.468549	-0.545567
47783	-9.644347	-0.984762	-1.707068	-0.023768	0.031371	0.030875	0.344545	0.603383	0.468765	-0.545415
47784	-9.607248	-0.880824	-1.680477	0.063462	-0.024266	-0.020117	0.344662	0.603262	0.469120	-0.545169
47785	-9.606150	-0.848688	-1.804915	0.135709	0.077347	-0.002911	0.344816	0.603126	0.469418	-0.544965
47786	-9.646056	-0.872220	-1.791181	0.110272	0.063368	0.036136	0.344929	0.603002	0.469586	-0.544887
47787	-9.590275	-1.014475	-1.788356	-0.026210	0.118755	-0.005243	0.345166	0.602825	0.469753	-0.544789
47788	-9.510355	-1.039781	-1.872171	-0.024449	0.220522	-0.066724	0.345358	0.602651	0.469994	-0.544652
47789	-9.588122	-1.002961	-1.866654	0.011013	0.187244	0.005012	0.345410	0.602575	0.470168	-0.544551
47790	-9.634296	-0.974830	-1.861753	0.037404	0.163409	0.046724	0.345403	0.602584	0.470191	-0.544526
47791	-9.570755	-1.065167	-1.874000	-0.045224	0.215947	-0.004674	0.345339	0.602596	0.470192	-0.544553
47792	-9.631093	-1.038113	-1.907689	-0.005293	0.225372	0.057677	0.345191	0.602647	0.470191	-0.544592
47793	-9.595668	-0.966579	-1.799895	0.025147	0.108338	-0.002571	0.345231	0.602590	0.470260	-0.544571
47794	-9.580899	-0.986613	-1.804809	0.007694	0.122577	-0.014255	0.345293	0.602541	0.470290	-0.544559
47795	-9.578416	-0.994188	-1.926262	0.041150	0.238765	0.004962	0.345357	0.602536	0.470254	-0.544555
47796	-9.597372	-1.015969	-1.853074	-0.004600	0.174887	0.013045	0.345350	0.602612	0.470201	-0.544522
47797	-9.564640	-1.044715	-1.854574	-0.033150	0.191484	-0.015981	0.345311	0.602656	0.470187	-0.544509
47798	-9.565054	-1.025652	-1.810905	-0.029409	0.143819	-0.024938	0.345042	0.602809	0.470029	-0.544647
47799	-9.579667	-1.007187	-1.805927	-0.012124	0.129427	-0.013252	0.344979	0.602823	0.470027	-0.544673
47800	-9.657215	-0.971000	-1.755404	0.007793	0.055841	0.050522	0.345091	0.602727	0.470109	-0.544638
47801	-9.623185	-0.968413	-1.789547	0.020469	0.093539	0.022801	0.345253	0.602608	0.470275	-0.544523
47802	-9.650280	-0.970690	-1.735165	0.000867	0.039019	0.040202	0.345148	0.602678	0.470140	-0.544630
47803	-9.633557	-1.032032	-1.739447	-0.055322	0.067797	0.030510	0.345082	0.602728	0.469948	-0.544781
47804	-9.615705	-1.007942	-1.854240	0.005773	0.171869	0.030400	0.345082	0.602768	0.469790	-0.544873
47805	-9.518385	-0.989263	-2.009679	0.072488	0.330228	-0.040134	0.345146	0.602739	0.469766	-0.544885
47806	-9.515129	-0.926467	-2.032741	0.139296	0.332084	-0.045478	0.345094	0.602762	0.469754	-0.544903
47807	-9.524299	-1.044012	-1.864188	-0.028034	0.211901	-0.054012	0.345078	0.602773	0.469820	-0.544844
47808	-9.616143	-1.040927	-1.732918	-0.066799	0.069826	0.013166	0.344892	0.602921	0.469738	-0.544868
47809	-9.644880	-1.021860	-1.767778	-0.035987	0.088733	0.045496	0.344687	0.603079	0.469577	-0.544963
47810	-9.639528	-0.928285	-1.781410	0.056485	0.071391	0.033497	0.344644	0.603125	0.469504	-0.545001
47811	-9.590162	-0.946586	-1.777013	0.036237	0.083117	-0.013871	0.344591	0.603157	0.469457	-0.545040
47812	-9.622108	-0.938555	-1.820333	0.060772	0.113997	0.024120	0.344288	0.603322	0.469239	-0.545237
47813	-9.631467	-0.879641	-1.750598	0.094593	0.028142	0.015526	0.344028	0.603453	0.469019	-0.545445
47814	-9.602663	-0.899570	-1.715538	0.063614	0.009131	-0.016806	0.344168	0.603379	0.469019	-0.545439
47815	-9.572395	-0.906634	-1.802177	0.085494	0.099182	-0.030897	0.344220	0.603333	0.468999	-0.545474
47816	-9.635996	-0.961567	-1.854422	0.054654	0.154375	0.045766	0.344062	0.603423	0.468816	-0.545631
47817	-9.661885	-0.985076	-1.754071	0.000205	0.066797	0.056188	0.344037	0.603427	0.468596	-0.545831
47818	-9.588941	-1.011537	-1.765167	-0.022407	0.104595	-0.010883	0.344076	0.603412	0.468335	-0.546049
47819	-9.663802	-1.003744	-1.832113	0.011654	0.154602	0.073120	0.343992	0.603450	0.467994	-0.546350
47820	-9.600061	-0.865262	-1.885198	0.159638	0.174729	0.006060	0.343879	0.603493	0.467680	-0.546643
47821	-9.590843	-0.782750	-1.841330	0.223556	0.112375	-0.018564	0.343725	0.603568	0.467372	-0.546921
47822	-9.515077	-0.892404	-1.986150	0.169961	0.300202	-0.057748	0.343726	0.603524	0.467265	-0.547060
47823	-9.516576	-0.976419	-1.872502	0.052615	0.224760	-0.067351	0.343803	0.603463	0.467308	-0.547042
47824	-9.510672	-0.935856	-1.810038	0.069068	0.153204	-0.087632	0.343678	0.603515	0.467421	-0.546966
47825	-9.656926	-0.935769	-1.659002	0.022446	-0.017143	0.030248	0.343580	0.603547	0.467460	-0.546960
47826	-9.653988	-0.999213	-1.704008	-0.020276	0.044898	0.041201	0.343540	0.603486	0.467534	-0.546989
47827	-9.654919	-0.960396	-1.615227	-0.012565	-0.050318	0.023272	0.343475	0.603442	0.467538	-0.547075
47828	-9.610442	-0.898026	-1.652881	0.060234	-0.027222	-0.020104	0.343336	0.603399	0.467483	-0.547257
47829	-9.638622	-0.901333	-1.684727	0.071702	-0.001056	0.013227	0.343453	0.603232	0.467602	-0.547265
47830	-9.614352	-0.911215	-1.703291	0.069320	0.024937	-0.006472	0.343607	0.603057	0.467789	-0.547203
47831	-9.591468	-0.940197	-1.897513	0.109483	0.219567	0.006711	0.343877	0.602780	0.468020	-0.547140
47832	-9.549365	-1.031329	-1.920908	0.031519	0.281604	-0.021691	0.344243	0.602430	0.468349	-0.547014
47833	-9.565831	-1.096287	-1.846648	-0.052916	0.232168	-0.011648	0.344255	0.602310	0.468481	-0.547025
47834	-9.643468	-1.040686	-1.752481	-0.028992	0.111057	0.043149	0.344287	0.602249	0.468613	-0.546959
47835	-9.553025	-1.057574	-1.809173	-0.027817	0.184324	-0.034287	0.344133	0.602296	0.468677	-0.546950
47836	-9.511961	-1.017687	-1.739227	-0.014131	0.110284	-0.090258	0.343751	0.602471	0.468685	-0.546989
47837	-9.588495	-1.023569	-1.868954	0.029059	0.212602	0.007388	0.343693	0.602462	0.468888	-0.546862
47838	-9.603582	-0.945487	-1.690648	0.042624	0.015133	-0.015801	0.343491	0.602522	0.468989	-0.546837
47839	-9.662021	-0.920699	-1.594348	0.036123	-0.096417	0.022641	0.343475	0.602480	0.469133	-0.546770
47840	-9.649447	-1.005105	-1.532805	-0.063705	-0.124502	0.008310	0.343397	0.602480	0.469168	-0.546789
47841	-9.636425	-1.005502	-1.626905	-0.030829	-0.036804	0.011580	0.343148	0.602592	0.469125	-0.546858
47842	-9.659422	-0.862535	-1.753391	0.149268	0.026495	0.041236	0.342952	0.602678	0.469024	-0.546973
47843	-9.595896	-0.829432	-1.788148	0.191560	0.059240	-0.018483	0.342770	0.602750	0.468928	-0.547090
47844	-9.684933	-0.796483	-1.556845	0.147796	-0.182761	0.026054	0.342701	0.602715	0.468930	-0.547171
47845	-9.587962	-0.937148	-1.611716	0.032631	-0.066079	-0.045423	0.342876	0.602528	0.469113	-0.547109
47846	-9.581820	-1.101344	-1.830625	-0.045245	0.193514	0.002399	0.343179	0.602240	0.469312	-0.547066
47847	-9.666705	-1.046477	-1.709936	-0.029985	0.048696	0.059542	0.343077	0.602172	0.469363	-0.547161
47848	-9.627294	-1.005530	-1.679246	-0.000782	0.015033	0.011544	0.342986	0.602144	0.469276	-0.547325
47849	-9.547907	-0.981853	-1.839306	0.076811	0.171216	-0.041588	0.342637	0.602251	0.469059	-0.547611
47850	-9.625417	-0.968012	-1.875803	0.108349	0.185609	0.039122	0.342511	0.602276	0.468959	-0.547748
47851	-9.526099	-1.024804	-1.910148	0.063968	0.256722	-0.046652	0.342693	0.602145	0.469037	-0.547710
47852	-9.533069	-1.149774	-1.904488	-0.054440	0.292992	-0.028023	0.342732	0.602059	0.469077	-0.547746
47853	-9.554527	-1.184088	-1.840198	-0.106383	0.241001	-0.014322	0.342597	0.602078	0.469053	-0.547831
47854	-9.591035	-1.126775	-1.762030	-0.076421	0.141066	0.002433	0.342393	0.602151	0.469065	-0.547868
47855	-9.591665	-1.128060	-1.851705	-0.045621	0.221766	0.018391	0.342339	0.602160	0.469154	-0.547816
47856	-9.619590	-1.039313	-1.789487	0.018751	0.126416	0.026145	0.341940	0.602338	0.469072	-0.547940
47857	-9.654234	-0.879617	-1.648123	0.123504	-0.066600	0.019636	0.341707	0.602402	0.469014	-0.548064
47858	-9.557056	-1.021070	-1.748906	0.023730	0.090415	-0.043868	0.341571	0.602456	0.469058	-0.548051
47859	-9.668859	-1.039736	-1.675803	-0.013972	0.005452	0.055239	0.341565	0.602417	0.469162	-0.548009
47860	-9.620281	-1.058234	-1.759807	-0.003331	0.097913	0.023826	0.341542	0.602395	0.469175	-0.548036
47861	-9.666289	-1.155281	-1.729341	-0.101972	0.093790	0.073831	0.341455	0.602422	0.469055	-0.548164
47862	-9.613969	-1.111776	-1.747652	-0.055331	0.107593	0.021137	0.341280	0.602493	0.468877	-0.548347
47863	-9.577222	-0.996593	-1.838269	0.084719	0.161459	-0.011546	0.341194	0.602478	0.468746	-0.548529
47864	-9.533845	-0.913076	-1.832047	0.161450	0.137109	-0.063870	0.340896	0.602614	0.468540	-0.548741
47865	-9.583398	-0.949173	-1.800915	0.120979	0.111356	-0.016836	0.340761	0.602649	0.468386	-0.548918
47866	-9.579869	-1.063912	-1.765950	0.002143	0.119011	-0.014208	0.340765	0.602650	0.468388	-0.548912
47867	-9.633492	-1.139568	-1.712005	-0.085806	0.083965	0.037152	0.340795	0.602656	0.468420	-0.548860
47868	-9.583984	-1.157260	-1.707837	-0.106041	0.095711	-0.010224	0.340768	0.602673	0.468367	-0.548903
47869	-9.584183	-1.157609	-1.706481	-0.106125	0.095690	-0.010224	0.340699	0.602690	0.468237	-0.549038
47870	-9.558786	-1.105403	-1.880176	0.004594	0.244900	-0.011291	0.340434	0.602795	0.467961	-0.549322
47871	-9.641297	-1.018683	-1.706656	0.030252	0.040602	0.031216	0.340175	0.602965	0.467727	-0.549496
47872	-9.589506	-0.974771	-1.770011	0.092305	0.094801	-0.013491	0.340132	0.602990	0.467618	-0.549587
47873	-9.523917	-1.033071	-1.770548	0.035258	0.128047	-0.071567	0.340119	0.603030	0.467616	-0.549554
47874	-9.641124	-1.060864	-1.882583	0.052921	0.216491	0.065124	0.339939	0.603175	0.467529	-0.549580
47875	-9.648666	-1.020691	-1.771160	0.052094	0.097612	0.049530	0.339762	0.603268	0.467413	-0.549686
47876	-9.617167	-1.081632	-1.736170	-0.017622	0.093003	0.019156	0.339880	0.603160	0.467433	-0.549715
47877	-9.568569	-1.151080	-1.739790	-0.083009	0.131079	-0.020584	0.339962	0.603107	0.467432	-0.549723
47878	-9.557926	-1.036592	-1.734965	0.022202	0.090172	-0.043862	0.339700	0.603292	0.467231	-0.549852
47879	-9.603063	-0.957027	-1.676897	0.078342	-0.000263	-0.017762	0.339453	0.603477	0.467054	-0.549952
47880	-9.591384	-0.988111	-1.736976	0.069922	0.066299	-0.015809	0.339344	0.603584	0.467014	-0.549936
47881	-9.628104	-1.021897	-1.800816	0.062257	0.128351	0.034508	0.339314	0.603590	0.467017	-0.549945
47882	-9.630682	-0.980713	-1.799923	0.100956	0.113931	0.032534	0.339426	0.603488	0.467030	-0.549977
47883	-9.629245	-1.052849	-1.719713	0.005516	0.066755	0.025187	0.339473	0.603447	0.467005	-0.550014
47884	-9.546713	-1.047601	-1.704296	0.001884	0.068756	-0.058863	0.339560	0.603389	0.466954	-0.550067
47885	-9.572653	-1.059491	-1.858763	0.046412	0.211429	-0.006243	0.339589	0.603378	0.466944	-0.550071
47886	-9.602621	-1.019492	-1.848199	0.081151	0.182879	0.017139	0.339660	0.603322	0.466983	-0.550054
47887	-9.638033	-1.051696	-1.778431	0.027235	0.123788	0.043503	0.339813	0.603255	0.467018	-0.550004
47888	-9.548855	-1.149039	-1.719522	-0.088780	0.121483	-0.043602	0.339851	0.603253	0.466943	-0.550047
47889	-9.571576	-1.108585	-1.689876	-0.060771	0.076285	-0.030550	0.339821	0.603275	0.466977	-0.550013
47890	-9.570168	-1.047113	-1.847542	0.052232	0.199535	-0.011900	0.339760	0.603319	0.466989	-0.549992
47891	-9.639764	-0.957955	-1.769686	0.110768	0.083093	0.033903	0.339737	0.603332	0.467005	-0.549977
47892	-9.629006	-1.019610	-1.750045	0.045756	0.088057	0.026529	0.339823	0.603266	0.467058	-0.549953
47893	-9.640499	-0.988865	-1.690593	0.054029	0.021488	0.024578	0.339934	0.603172	0.467128	-0.549927
47894	-9.646794	-1.061210	-1.673943	-0.019263	0.031308	0.035538	0.340138	0.603034	0.467175	-0.549912
47895	-9.599509	-1.109380	-1.677397	-0.065278	0.062160	-0.005199	0.340222	0.602994	0.467146	-0.549929
47896	-9.559354	-1.075235	-1.857844	0.027866	0.225759	-0.017933	0.340330	0.602963	0.467170	-0.549876
47897	-9.583932	-1.014065	-1.871991	0.090685	0.213768	0.002123	0.340245	0.603016	0.467085	-0.549942
47898	-9.605453	-0.922141	-1.788211	0.148521	0.101881	-0.000434	0.340195	0.603042	0.466990	-0.550026
47899	-9.614016	-1.026699	-1.825696	0.064853	0.171199	0.025151	0.340233	0.602992	0.466993	-0.550054
47900	-9.558603	-1.002981	-1.713071	0.045912	0.071147	-0.050500	0.340251	0.602933	0.467001	-0.550100
47901	-9.588507	-1.108895	-1.809864	-0.017684	0.190439	0.006078	0.340364	0.602865	0.467144	-0.549984
47902	-9.624287	-1.089857	-1.819525	0.004383	0.185777	0.040781	0.340439	0.602820	0.467187	-0.549950
47903	-9.630860	-0.966083	-1.775422	0.105304	0.102215	0.026894	0.340317	0.602867	0.467103	-0.550046
47904	-9.629792	-0.987947	-1.774014	0.085800	0.109448	0.027878	0.340174	0.602924	0.466904	-0.550241
47905	-9.574568	-1.036903	-1.713946	0.017702	0.083270	-0.031180	0.340187	0.602912	0.466815	-0.550322
47906	-9.587907	-1.037104	-1.663552	0.000229	0.035857	-0.026489	0.340334	0.602816	0.466896	-0.550267
47907	-9.600778	-1.027230	-1.780014	0.050628	0.138031	0.004490	0.340411	0.602773	0.466931	-0.550237
47908	-9.641414	-1.029369	-1.719900	0.029206	0.076482	0.034536	0.340403	0.602760	0.466873	-0.550306
47909	-9.651404	-0.988592	-1.737109	0.074617	0.078769	0.042904	0.340465	0.602687	0.466791	-0.550416
47910	-9.602507	-1.006389	-1.729502	0.054352	0.090537	-0.004478	0.340618	0.602536	0.466788	-0.550490
47911	-9.600703	-1.047509	-1.726259	0.015418	0.104942	-0.002514	0.340736	0.602438	0.466770	-0.550539
47912	-9.606569	-1.016371	-1.733668	0.047766	0.102506	0.001180	0.340865	0.602330	0.466797	-0.550555
47913	-9.585429	-1.004026	-1.838779	0.095420	0.202177	-0.003526	0.341253	0.602043	0.466983	-0.550471
47914	-9.648814	-1.058513	-1.844114	0.048950	0.216907	0.065135	0.341451	0.601874	0.467029	-0.550494
47915	-9.592302	-1.054853	-1.729828	0.010637	0.124026	-0.009535	0.341555	0.601768	0.467014	-0.550557
47916	-9.551499	-1.146243	-1.839768	-0.036780	0.266699	-0.022015	0.341677	0.601606	0.467050	-0.550628
47917	-9.477412	-1.028051	-1.747024	0.038921	0.156743	-0.122268	0.341846	0.601474	0.467233	-0.550512
47918	-9.583321	-1.044522	-1.741554	0.025281	0.135865	-0.017537	0.341958	0.601402	0.467463	-0.550327
47919	-9.685256	-1.102285	-1.648284	-0.057879	0.048578	0.073178	0.342012	0.601377	0.467510	-0.550280
47920	-9.624034	-1.099006	-1.692972	-0.041405	0.100600	0.020123	0.341974	0.601362	0.467478	-0.550348
47921	-9.638433	-1.080317	-1.641440	-0.039441	0.045966	0.023833	0.341869	0.601353	0.467279	-0.550591
47922	-9.638642	-1.101491	-1.681535	-0.043578	0.093528	0.032800	0.341932	0.601300	0.467144	-0.550724
47923	-9.620495	-1.047309	-1.784810	0.042859	0.178820	0.026140	0.342112	0.601195	0.466986	-0.550861
47924	-9.574023	-1.012016	-1.897668	0.113821	0.285451	-0.004895	0.342098	0.601225	0.466661	-0.551112
47925	-9.564934	-0.979595	-1.820426	0.117430	0.209305	-0.029850	0.341998	0.601314	0.466367	-0.551326
47926	-9.601979	-1.043952	-1.758555	0.037818	0.169292	0.003130	0.341856	0.601407	0.466167	-0.551483
47927	-9.536965	-1.081472	-1.714332	-0.015212	0.154863	-0.063944	0.341997	0.601316	0.466206	-0.551461
47928	-9.586313	-1.083960	-1.761794	0.000806	0.190735	-0.007591	0.342007	0.601320	0.466238	-0.551423
47929	-9.685600	-1.079353	-1.690578	-0.015428	0.105619	0.077839	0.341972	0.601315	0.466117	-0.551552
47930	-9.585590	-1.042928	-1.582888	-0.021969	0.014817	-0.041502	0.341844	0.601361	0.465927	-0.551742
47931	-9.661147	-0.975198	-1.521147	0.023954	-0.077700	0.015641	0.341690	0.601461	0.465729	-0.551896
47932	-9.598901	-1.013026	-1.608266	0.016977	0.029067	-0.027468	0.341646	0.601538	0.465488	-0.552042
47933	-9.615187	-0.992195	-1.644831	0.049672	0.055243	-0.007779	0.341608	0.601611	0.465285	-0.552158
47934	-9.634672	-0.982234	-1.690167	0.075984	0.093337	0.017566	0.341620	0.601602	0.465059	-0.552351
47935	-9.611646	-0.949279	-1.617974	0.081616	0.024237	-0.020065	0.341553	0.601606	0.464794	-0.552610
47936	-9.731348	-0.965667	-1.556686	0.050681	-0.044083	0.089353	0.341710	0.601495	0.464665	-0.552742
47937	-9.666599	-1.013270	-1.675027	0.045955	0.098336	0.049553	0.341818	0.601423	0.464497	-0.552895
47938	-9.585615	-1.007759	-1.700832	0.057720	0.140807	-0.026511	0.341907	0.601347	0.464262	-0.553120
47939	-9.555120	-1.005625	-1.818225	0.100885	0.259492	-0.038230	0.341971	0.601316	0.464030	-0.553309
47940	-9.583815	-0.954337	-1.837302	0.157379	0.259482	-0.012491	0.342036	0.601276	0.463796	-0.553508
47941	-9.576755	-1.077450	-1.787801	0.025512	0.262126	-0.014626	0.342029	0.601262	0.463575	-0.553713
47942	-9.503389	-1.114432	-1.678727	-0.049558	0.190650	-0.100031	0.341872	0.601345	0.463367	-0.553895
47943	-9.619934	-1.151967	-1.576827	-0.115245	0.089078	0.002368	0.341683	0.601491	0.463180	-0.554009
47944	-9.636225	-1.039105	-1.562782	-0.013890	0.034240	0.004516	0.341409	0.601700	0.462906	-0.554179
47945	-9.639708	-0.998566	-1.606321	0.040188	0.060293	0.010557	0.341254	0.601812	0.462682	-0.554341
47946	-9.701757	-1.032794	-1.524487	-0.017577	-0.013002	0.062248	0.341110	0.601886	0.462474	-0.554523
47947	-9.609754	-0.987990	-1.603384	0.050318	0.062553	-0.020451	0.340937	0.601955	0.462266	-0.554727
47948	-9.721756	-0.888888	-1.428986	0.085479	-0.151060	0.052126	0.341055	0.601877	0.462283	-0.554725
47949	-9.604973	-1.017927	-1.590032	0.017656	0.065002	-0.024156	0.341300	0.601739	0.462384	-0.554640
47950	-9.651562	-0.988039	-1.583974	0.044088	0.041398	0.017582	0.341512	0.601619	0.462584	-0.554473
47951	-9.615395	-1.079277	-1.583798	-0.042784	0.079517	-0.008559	0.341704	0.601419	0.462790	-0.554400
47952	-9.666866	-1.114220	-1.640401	-0.052561	0.134507	0.054422	0.341882	0.601266	0.462999	-0.554281
47953	-9.632231	-1.132981	-1.674940	-0.059482	0.179565	0.027697	0.342080	0.601131	0.463117	-0.554207
47954	-9.618613	-1.173399	-1.767946	-0.065803	0.281786	0.032946	0.342106	0.601189	0.463123	-0.554123
47955	-9.503275	-1.166289	-1.834235	-0.041434	0.362077	-0.070815	0.342041	0.601291	0.462888	-0.554248
47956	-9.512385	-1.072764	-1.843899	0.049152	0.338208	-0.070026	0.341807	0.601530	0.462600	-0.554374
47957	-9.650183	-0.995099	-1.660674	0.061010	0.117654	0.028884	0.341475	0.601857	0.462180	-0.554574
47958	-9.614713	-0.919392	-1.598794	0.107499	0.041307	-0.023363	0.341166	0.602127	0.461797	-0.554791
47959	-9.647418	-0.962911	-1.605513	0.071329	0.058186	0.014269	0.340896	0.602310	0.461401	-0.555087
47960	-9.710107	-0.987601	-1.643636	0.065926	0.094179	0.084275	0.340706	0.602453	0.460939	-0.555432
47961	-9.706132	-0.914481	-1.698898	0.154429	0.124928	0.081355	0.340743	0.602471	0.460680	-0.555605
47962	-9.615676	-0.855179	-1.653733	0.189385	0.084042	-0.020627	0.340814	0.602473	0.460406	-0.555787
47963	-9.579617	-0.986617	-1.691802	0.079022	0.176821	-0.036842	0.340932	0.602437	0.460198	-0.555924
47964	-9.613155	-1.027407	-1.695688	0.042826	0.193714	0.000788	0.341365	0.602184	0.460305	-0.555845
47965	-9.537521	-1.178642	-1.838275	-0.050427	0.395697	-0.036510	0.341716	0.601932	0.460437	-0.555793
47966	-9.569376	-1.148541	-1.791694	-0.037304	0.338762	-0.015437	0.341684	0.601879	0.460455	-0.555856
47967	-9.570078	-1.086618	-1.704443	-0.009756	0.236479	-0.034332	0.341483	0.601996	0.460332	-0.555955
47968	-9.591304	-1.149527	-1.605979	-0.102641	0.162995	-0.022049	0.341196	0.602231	0.460099	-0.556068
47969	-9.647890	-0.995161	-1.490411	0.001066	-0.008120	0.000232	0.341111	0.602334	0.459978	-0.556109
47970	-9.668576	-0.913826	-1.573773	0.107297	0.037031	0.025011	0.341084	0.602392	0.459833	-0.556182
47971	-9.686833	-0.976086	-1.584631	0.053659	0.068126	0.050933	0.341144	0.602382	0.459671	-0.556291
47972	-9.654922	-1.004494	-1.581051	0.025084	0.084677	0.021867	0.341038	0.602460	0.459303	-0.556576
47973	-9.619752	-1.001578	-1.523229	0.006988	0.041765	-0.021813	0.340906	0.602504	0.458937	-0.556911
47974	-9.632931	-1.022876	-1.513591	-0.014473	0.041858	-0.008167	0.340737	0.602643	0.458622	-0.557122
47975	-9.647957	-0.891282	-1.655622	0.160828	0.124945	0.014675	0.340535	0.602808	0.458327	-0.557311
47976	-9.686033	-0.881814	-1.628535	0.161212	0.091854	0.047056	0.340568	0.602821	0.458191	-0.557387
47977	-9.589553	-0.999800	-1.591300	0.034529	0.120120	-0.041519	0.340615	0.602757	0.458013	-0.557575
47978	-9.621197	-1.020298	-1.508083	-0.012814	0.048989	-0.020845	0.340610	0.602750	0.457878	-0.557696
47979	-9.696257	-1.044601	-1.497501	-0.035533	0.037481	0.053843	0.340579	0.602756	0.457696	-0.557857
47980	-9.648120	-0.982041	-1.605014	0.061046	0.125160	0.016214	0.340534	0.602778	0.457525	-0.558002
47981	-9.631984	-0.919263	-1.634036	0.129781	0.134514	-0.001709	0.340436	0.602881	0.457284	-0.558148
47982	-9.631939	-0.948222	-1.552074	0.073325	0.072752	-0.011073	0.340434	0.602853	0.457078	-0.558347
47983	-9.651461	-1.041527	-1.524833	-0.021404	0.082500	0.013468	0.340603	0.602708	0.456967	-0.558492
47984	-9.602818	-1.144479	-1.646356	-0.073468	0.244067	-0.006084	0.340755	0.602602	0.456887	-0.558579
47985	-9.647324	-0.989048	-1.575747	0.047561	0.120482	0.011532	0.340716	0.602597	0.456618	-0.558829
47986	-9.571688	-0.968341	-1.735819	0.124523	0.277034	-0.041520	0.340587	0.602654	0.456348	-0.559066
47987	-9.597899	-0.955655	-1.556118	0.072420	0.105999	-0.043451	0.340515	0.602673	0.456153	-0.559249
47988	-9.638283	-0.986922	-1.459097	0.010080	0.023036	-0.014787	0.340375	0.602764	0.455974	-0.559382
47989	-9.666097	-1.010155	-1.490557	0.001937	0.056439	0.019526	0.340272	0.602829	0.455813	-0.559506
47990	-9.636833	-0.977409	-1.491485	0.031611	0.051562	-0.012445	0.340258	0.602864	0.455740	-0.559536
47991	-9.685970	-0.937672	-1.451075	0.055797	-0.007642	0.025996	0.340109	0.602935	0.455590	-0.559673
47992	-9.624564	-0.956919	-1.495007	0.052774	0.051583	-0.026088	0.340160	0.602877	0.455539	-0.559745
47993	-9.641891	-0.977715	-1.418542	0.007422	-0.012476	-0.018095	0.339957	0.602924	0.455376	-0.559950
47994	-9.644243	-0.951653	-1.540023	0.078952	0.089772	-0.000734	0.339826	0.602968	0.455260	-0.560077
47995	-9.694727	-0.900273	-1.420919	0.085672	-0.045493	0.026409	0.339817	0.602917	0.455207	-0.560180
47996	-9.674409	-0.994259	-1.455180	0.012067	0.025867	0.020902	0.339871	0.602821	0.455132	-0.560312
47997	-9.639316	-1.035807	-1.486734	-0.014341	0.078118	-0.004865	0.339745	0.602846	0.454997	-0.560471
47998	-9.630663	-1.048645	-1.543341	-0.003612	0.137583	-0.003901	0.339543	0.602942	0.454747	-0.560693
47999	-9.588653	-1.060966	-1.635914	0.019690	0.234942	-0.030635	0.339288	0.603076	0.454534	-0.560876
48000	-9.582592	-0.998589	-1.574234	0.055913	0.156451	-0.051854	0.339015	0.603204	0.454366	-0.561039
48001	-9.616062	-0.885697	-1.489755	0.131447	0.030576	-0.042617	0.338791	0.603327	0.454319	-0.561081
48002	-9.655096	-0.968701	-1.360972	0.008586	-0.066673	-0.014372	0.338624	0.603400	0.454365	-0.561065
48003	-9.667974	-1.036356	-1.443535	-0.021277	0.028583	0.017179	0.338420	0.603474	0.454358	-0.561115
48004	-9.599231	-1.109617	-1.479783	-0.076201	0.097314	-0.037670	0.337983	0.603686	0.454222	-0.561261
48005	-9.612174	-1.063761	-1.514233	-0.017818	0.104540	-0.024576	0.337283	0.604092	0.453990	-0.561432
48006	-9.696342	-0.943987	-1.403551	0.056256	-0.061488	0.029729	0.336823	0.604358	0.453901	-0.561495
48007	-9.659131	-0.943983	-1.355611	0.038195	-0.104413	-0.013951	0.336417	0.604544	0.453890	-0.561546
48008	-9.758179	-0.891925	-1.368719	0.097808	-0.134830	0.079897	0.335766	0.604876	0.453694	-0.561736
48009	-9.652670	-0.882593	-1.423785	0.126508	-0.073456	-0.016833	0.335329	0.605033	0.453484	-0.561999
48010	-9.595991	-0.970681	-1.530100	0.087071	0.064281	-0.047711	0.335143	0.605015	0.453540	-0.562083
48011	-9.640919	-1.098637	-1.739041	0.053745	0.292873	0.040734	0.335195	0.604840	0.453766	-0.562058
48012	-9.674427	-0.904491	-1.404280	0.109202	-0.092245	0.003840	0.335060	0.604769	0.453951	-0.562065
48013	-9.674595	-0.960354	-1.414663	0.063843	-0.066016	0.011410	0.335034	0.604699	0.454262	-0.561905
48014	-9.608253	-1.058357	-1.582939	0.035227	0.131111	-0.018510	0.335132	0.604605	0.454600	-0.561675
48015	-9.571695	-1.181984	-1.549926	-0.092783	0.147677	-0.046098	0.334863	0.604717	0.454781	-0.561568
48016	-9.637622	-1.137215	-1.520990	-0.057519	0.086191	0.009720	0.334330	0.604947	0.454761	-0.561654
48017	-9.584272	-1.071640	-1.628977	0.045408	0.162053	-0.033530	0.333733	0.605196	0.454819	-0.561693
48018	-9.528767	-1.162767	-1.507191	-0.085251	0.085756	-0.096390	0.333446	0.605288	0.455134	-0.561510
48019	-9.644564	-1.166550	-1.612031	-0.042348	0.155305	0.033692	0.333794	0.604914	0.455797	-0.561169
48020	-9.702919	-1.000819	-1.425263	0.044108	-0.091715	0.044761	0.333575	0.604885	0.456092	-0.561090
48021	-9.777142	-0.934264	-1.370071	0.090216	-0.184061	0.101970	0.333483	0.604873	0.456161	-0.561102
48022	-9.680625	-1.071641	-1.544197	0.026602	0.041437	0.048602	0.333504	0.604819	0.456274	-0.561055
48023	-9.625027	-1.121919	-1.530677	-0.026138	0.055481	-0.002537	0.333079	0.605044	0.456113	-0.561197
48024	-9.610296	-0.985777	-1.723716	0.174578	0.181534	-0.002626	0.332863	0.605124	0.456034	-0.561302
48025	-9.588349	-1.058986	-1.717109	0.105115	0.205209	-0.017118	0.332765	0.605133	0.456058	-0.561331
48026	-9.562903	-1.149184	-1.621795	-0.014232	0.155178	-0.046641	0.332784	0.605027	0.456216	-0.561306
48027	-9.549344	-1.203542	-1.635868	-0.057647	0.188424	-0.051759	0.332656	0.604995	0.456370	-0.561291
48028	-9.587564	-1.177977	-1.613887	-0.037830	0.148225	-0.020331	0.332217	0.605154	0.456314	-0.561425
48029	-9.609440	-1.193713	-1.596507	-0.054942	0.129372	0.000333	0.331732	0.605384	0.456227	-0.561534
48030	-9.636658	-1.178497	-1.591858	-0.039568	0.108175	0.024730	0.331235	0.605679	0.456190	-0.561539
48031	-9.675224	-1.079802	-1.566364	0.044941	0.034665	0.047648	0.330743	0.605935	0.456095	-0.561630
48032	-9.599770	-1.058527	-1.577894	0.067423	0.046230	-0.027028	0.330546	0.605983	0.456218	-0.561595
48033	-9.597175	-1.007776	-1.530880	0.097365	-0.020343	-0.042576	0.330257	0.606106	0.456362	-0.561515
48034	-9.646018	-0.970586	-1.497197	0.121608	-0.079550	-0.004111	0.330205	0.606093	0.456616	-0.561354
48035	-9.604540	-1.018002	-1.646392	0.134207	0.077281	-0.016253	0.330233	0.605997	0.456920	-0.561193
48036	-9.588826	-1.115265	-1.704762	0.067171	0.165193	-0.011473	0.330162	0.605972	0.457170	-0.561058
48037	-9.648806	-1.222585	-1.634417	-0.055154	0.125028	0.048692	0.330143	0.605896	0.457488	-0.560893
48038	-9.672986	-1.218159	-1.662598	-0.037598	0.139481	0.076394	0.329944	0.605920	0.457678	-0.560829
48039	-9.500264	-1.211755	-1.710932	-0.020703	0.207696	-0.086070	0.329769	0.606065	0.457859	-0.560627
48040	-9.531177	-1.303476	-1.853606	-0.050255	0.360076	-0.022587	0.329905	0.605964	0.458219	-0.560362
48041	-9.615395	-1.171089	-1.734667	0.030406	0.182150	0.026125	0.329521	0.606148	0.458223	-0.560386
48042	-9.622438	-1.158641	-1.592839	-0.010862	0.041850	0.009178	0.329099	0.606406	0.458124	-0.560436
48043	-9.571300	-1.200730	-1.635481	-0.035345	0.101069	-0.029290	0.328884	0.606565	0.458160	-0.560360
48044	-9.586048	-1.212013	-1.601101	-0.059045	0.065493	-0.018963	0.328618	0.606772	0.458250	-0.560218
48045	-9.568736	-1.176633	-1.726413	0.020652	0.163021	-0.019901	0.328357	0.606928	0.458364	-0.560109
48046	-9.606028	-1.096072	-1.655660	0.070574	0.056252	-0.004007	0.328065	0.607013	0.458430	-0.560134
48047	-9.668288	-1.058563	-1.571900	0.077697	-0.050450	0.039147	0.327749	0.607152	0.458451	-0.560152
48048	-9.719618	-1.105474	-1.552461	0.030856	-0.064475	0.091760	0.327437	0.607315	0.458351	-0.560239
48049	-9.634710	-1.220764	-1.676569	-0.030696	0.106310	0.042086	0.327453	0.607325	0.458321	-0.560243
48050	-9.524368	-1.262535	-1.847999	-0.008380	0.298474	-0.033448	0.327424	0.607370	0.458343	-0.560194
48051	-9.564013	-1.183471	-1.861908	0.071941	0.272592	-0.001563	0.327114	0.607562	0.458137	-0.560335
48052	-9.595273	-1.152518	-1.775836	0.070009	0.175257	0.011545	0.326707	0.607803	0.457871	-0.560528
48053	-9.548047	-1.157891	-1.694935	0.032396	0.110836	-0.047168	0.326499	0.607943	0.457821	-0.560539
48054	-9.561058	-1.184297	-1.779545	0.041268	0.191814	-0.017552	0.326599	0.607873	0.458105	-0.560324
48055	-9.567570	-1.161901	-1.715473	0.036847	0.120484	-0.024154	0.326532	0.607885	0.458276	-0.560210
48056	-9.584288	-1.204312	-1.687868	-0.012668	0.103867	-0.007235	0.326415	0.608000	0.458380	-0.560069
48057	-9.574855	-1.249356	-1.757932	-0.027917	0.182325	0.000317	0.326344	0.608029	0.458489	-0.559989
48058	-9.576955	-1.262177	-1.770192	-0.034441	0.194241	0.005959	0.326132	0.608132	0.458549	-0.559952
48059	-9.609947	-1.212635	-1.731293	-0.001759	0.130233	0.026113	0.325967	0.608208	0.458603	-0.559921
48060	-9.537187	-1.198125	-1.706360	-0.000798	0.113226	-0.050910	0.325795	0.608290	0.458649	-0.559894
48061	-9.590885	-1.174446	-1.768850	0.047411	0.146878	0.009196	0.325705	0.608394	0.458731	-0.559767
48062	-9.663119	-1.220262	-1.765214	0.005166	0.142395	0.084816	0.325798	0.608401	0.458986	-0.559496
48063	-9.605552	-1.236110	-1.745101	-0.021712	0.137311	0.027061	0.325685	0.608510	0.459074	-0.559371
48064	-9.606968	-1.246363	-1.714873	-0.043412	0.108763	0.024707	0.325337	0.608756	0.459017	-0.559353
48065	-9.633006	-1.194899	-1.657147	-0.017317	0.028054	0.034527	0.325071	0.608944	0.458902	-0.559397
48066	-9.628485	-1.155846	-1.686069	0.030015	0.037634	0.030291	0.324802	0.609112	0.458824	-0.559434
48067	-9.565661	-1.153010	-1.690662	0.031150	0.049225	-0.030753	0.324610	0.609293	0.458867	-0.559314
48068	-9.619333	-1.180442	-1.761332	0.034083	0.108968	0.036895	0.324789	0.609231	0.459126	-0.559065
48069	-9.606121	-1.155673	-1.726849	0.040180	0.068481	0.015275	0.324979	0.609185	0.459387	-0.558790
48070	-9.569887	-1.119826	-1.711447	0.063252	0.046950	-0.027004	0.325083	0.609179	0.459442	-0.558690
48071	-9.542077	-1.194548	-1.815486	0.032611	0.175219	-0.027882	0.325064	0.609231	0.459315	-0.558749
48072	-9.550009	-1.249858	-1.884510	0.008917	0.258488	-0.002015	0.324947	0.609332	0.459072	-0.558906
48073	-9.535487	-1.219141	-1.923955	0.051732	0.287056	-0.013282	0.324878	0.609438	0.458908	-0.558966
48074	-9.585405	-1.226146	-1.806678	0.000453	0.173020	0.016736	0.324825	0.609559	0.458877	-0.558891
48075	-9.618522	-1.145902	-1.846047	0.089324	0.170975	0.046305	0.324860	0.609601	0.458866	-0.558833
48076	-9.569328	-1.163189	-1.885662	0.084204	0.223061	0.006881	0.325110	0.609554	0.459002	-0.558627
48077	-9.513843	-1.235622	-2.001573	0.057453	0.365447	-0.019353	0.325162	0.609598	0.459068	-0.558495
48078	-9.548479	-1.262924	-1.889468	-0.011311	0.265572	-0.001069	0.325117	0.609661	0.459086	-0.558437
48079	-9.577376	-1.268752	-1.758994	-0.067187	0.141910	0.005931	0.324982	0.609810	0.459021	-0.558407
48080	-9.589185	-1.238437	-1.747576	-0.043406	0.115824	0.012022	0.324814	0.609893	0.458991	-0.558438
48081	-9.538390	-1.281703	-1.830966	-0.052803	0.215463	-0.018461	0.324778	0.609931	0.459089	-0.558338
48082	-9.547631	-1.192483	-1.891878	0.053012	0.232415	-0.009542	0.324615	0.610042	0.459108	-0.558295
48083	-9.597496	-1.051854	-1.886814	0.183183	0.161593	0.021880	0.324221	0.610278	0.458952	-0.558394
48084	-9.609188	-1.074611	-1.883568	0.161680	0.161624	0.035502	0.324011	0.610474	0.458841	-0.558394
48085	-9.588201	-1.174141	-1.841196	0.051185	0.163617	0.019547	0.324272	0.610356	0.459040	-0.558207
48086	-9.502801	-1.262277	-1.879170	-0.021383	0.246265	-0.047098	0.324495	0.610278	0.459417	-0.557854
48087	-9.586044	-1.194960	-1.890868	0.046628	0.211174	0.028491	0.324385	0.610382	0.459453	-0.557774
48088	-9.549685	-1.212871	-1.882994	0.024414	0.215700	-0.006257	0.324464	0.610363	0.459594	-0.557632
48089	-9.562872	-1.263967	-1.843527	-0.038101	0.194165	0.005947	0.324428	0.610367	0.459722	-0.557543
48090	-9.553832	-1.232184	-1.817984	-0.018869	0.158479	-0.010975	0.324360	0.610373	0.459825	-0.557492
48091	-9.528718	-1.244895	-1.883753	-0.006360	0.224980	-0.022687	0.324307	0.610442	0.459926	-0.557364
48092	-9.625405	-1.174436	-1.802177	0.029487	0.101838	0.049580	0.324229	0.610551	0.459974	-0.557249
48093	-9.647220	-1.155509	-1.819310	0.053483	0.104401	0.071653	0.324272	0.610541	0.459981	-0.557230
48094	-9.594799	-1.158761	-1.760252	0.024571	0.063614	0.010587	0.324318	0.610559	0.459921	-0.557232
48095	-9.528950	-1.115390	-1.831246	0.088304	0.125321	-0.046678	0.324282	0.610635	0.459882	-0.557203
48096	-9.589714	-1.039142	-1.903613	0.188369	0.149711	0.016263	0.324351	0.610604	0.459918	-0.557167
48097	-9.549531	-1.061090	-1.794909	0.122918	0.068448	-0.039185	0.324560	0.610537	0.459996	-0.557053
48098	-9.545869	-1.173390	-1.799173	0.019118	0.115681	-0.028837	0.324764	0.610457	0.460118	-0.556922
48099	-9.521464	-1.235928	-1.870708	-0.013717	0.208191	-0.033024	0.325005	0.610340	0.460388	-0.556686
48100	-9.541585	-1.132791	-1.872656	0.081428	0.165776	-0.025053	0.325116	0.610256	0.460621	-0.556521
48101	-9.535489	-1.062023	-1.892479	0.154628	0.156470	-0.035851	0.325010	0.610233	0.460735	-0.556513
48102	-9.579881	-1.052029	-1.802690	0.131464	0.059077	-0.009126	0.324967	0.610273	0.460907	-0.556352
48103	-9.605406	-1.077217	-1.839275	0.123117	0.092486	0.025170	0.324971	0.610226	0.461148	-0.556201
48104	-9.617144	-1.049528	-1.872907	0.162043	0.106979	0.039269	0.325023	0.610165	0.461391	-0.556036
48105	-9.623589	-1.151949	-1.821171	0.047678	0.094718	0.048645	0.325227	0.610002	0.461648	-0.555883
48106	-9.520431	-1.302165	-1.859384	-0.081348	0.205572	-0.027869	0.325434	0.609884	0.461834	-0.555737
48107	-9.529180	-1.440689	-1.946249	-0.176385	0.333721	0.012091	0.325532	0.609841	0.461875	-0.555693
48108	-9.549847	-1.390570	-1.953057	-0.126536	0.317345	0.027586	0.325292	0.609999	0.461670	-0.555830
48109	-9.585251	-1.316960	-1.868416	-0.089376	0.205854	0.038812	0.325069	0.610204	0.461432	-0.555933
48110	-9.533979	-1.197816	-1.840229	0.006974	0.146459	-0.030231	0.324937	0.610341	0.461284	-0.555982
48111	-9.577492	-1.102138	-1.733101	0.055098	0.004096	-0.017605	0.324730	0.610526	0.461125	-0.556033
48112	-9.634869	-1.011531	-1.709424	0.131415	-0.064344	0.023705	0.324431	0.610769	0.460888	-0.556136
48113	-9.582240	-1.018378	-1.695598	0.117648	-0.064666	-0.029362	0.324174	0.610955	0.460661	-0.556270
48114	-9.667782	-1.085979	-1.682065	0.054037	-0.069205	0.059850	0.324091	0.611019	0.460515	-0.556369
48115	-9.703984	-1.119814	-1.698626	0.030699	-0.047699	0.102119	0.324112	0.611042	0.460409	-0.556420
48116	-9.630175	-1.147748	-1.754443	0.022979	0.030386	0.042982	0.324253	0.610980	0.460396	-0.556417
48117	-9.507032	-1.197422	-1.892346	0.025253	0.201054	-0.047577	0.324321	0.610946	0.460352	-0.556449
48118	-9.525245	-1.135480	-1.888656	0.081531	0.172826	-0.037713	0.324291	0.610993	0.460188	-0.556552
48119	-9.493074	-1.220458	-1.980406	0.037667	0.296187	-0.043305	0.324354	0.610958	0.460127	-0.556604
48120	-9.491833	-1.288828	-1.897928	-0.057390	0.248229	-0.050864	0.324361	0.610953	0.460146	-0.556589
48121	-9.612636	-1.231647	-1.837452	-0.023279	0.146651	0.050066	0.324264	0.611022	0.460116	-0.556595
48122	-9.517239	-1.205032	-1.830023	-0.005276	0.148620	-0.047606	0.324125	0.611105	0.460034	-0.556653
48123	-9.522500	-1.228295	-1.849463	-0.018281	0.172411	-0.036329	0.323950	0.611199	0.460000	-0.556679
48124	-9.549487	-1.180747	-1.878197	0.038116	0.172768	-0.010484	0.323804	0.611299	0.459995	-0.556659
48125	-9.617436	-1.128205	-1.760970	0.043498	0.030399	0.029372	0.323476	0.611555	0.459803	-0.556727
48126	-9.565776	-1.061607	-1.742663	0.094560	-0.002938	-0.032145	0.323420	0.611661	0.459805	-0.556641
48127	-9.577920	-1.082632	-1.738437	0.073074	-0.002960	-0.018533	0.323435	0.611654	0.459872	-0.556585
48128	-9.625963	-1.138475	-1.751861	0.028282	0.018532	0.037346	0.323542	0.611587	0.460093	-0.556413
48129	-9.618946	-1.246627	-1.836484	-0.039005	0.134762	0.058037	0.323635	0.611491	0.460321	-0.556277
48130	-9.474043	-1.344602	-1.882090	-0.116871	0.240772	-0.064043	0.323535	0.611511	0.460356	-0.556284
48131	-9.536636	-1.227830	-1.914050	0.006995	0.210723	-0.010947	0.323089	0.611775	0.460129	-0.556440
48132	-9.605737	-1.104040	-1.791383	0.077205	0.035351	0.020467	0.322653	0.612048	0.459967	-0.556528
48133	-9.636582	-1.145428	-1.714767	0.010756	-0.029002	0.042016	0.322409	0.612232	0.459932	-0.556495
48134	-9.647049	-1.187904	-1.710785	-0.030239	-0.021966	0.056561	0.322371	0.612297	0.459982	-0.556404
48135	-9.713023	-1.184233	-1.765845	-0.003537	0.011767	0.130314	0.322418	0.612298	0.459965	-0.556390
48136	-9.694324	-1.214833	-1.801104	-0.019099	0.061564	0.121876	0.322528	0.612260	0.459799	-0.556506
48137	-9.557774	-1.206925	-1.844697	0.000320	0.132336	-0.004879	0.322464	0.612319	0.459319	-0.556874
48138	-9.439524	-1.242973	-1.899293	-0.014599	0.226835	-0.106749	0.322173	0.612561	0.458627	-0.557347
48139	-9.480771	-1.222744	-2.046318	0.065526	0.348737	-0.043264	0.321732	0.612889	0.457941	-0.557804
48140	-9.512269	-1.005127	-2.017405	0.256044	0.235642	-0.043226	0.321469	0.613125	0.457605	-0.557973
48141	-9.506566	-0.979947	-1.955697	0.253806	0.171400	-0.062506	0.321464	0.613177	0.457595	-0.557926
48142	-9.554272	-0.975573	-1.830687	0.209281	0.045345	-0.038158	0.321417	0.613210	0.457716	-0.557817
48143	-9.579957	-1.045504	-1.741543	0.110380	-0.016839	-0.020386	0.321466	0.613157	0.457966	-0.557643
48144	-9.633473	-1.126290	-1.817596	0.067659	0.068849	0.054768	0.321695	0.613013	0.458271	-0.557418
48145	-9.691521	-1.241463	-1.777804	-0.052531	0.063798	0.118102	0.321941	0.612846	0.458511	-0.557262
48146	-9.622714	-1.293046	-1.853736	-0.073233	0.165657	0.070234	0.322148	0.612681	0.458775	-0.557107
48147	-9.534080	-1.212615	-1.815267	-0.018332	0.117916	-0.032602	0.322296	0.612551	0.459010	-0.556971
48148	-9.477479	-1.236070	-1.922348	-0.000096	0.234304	-0.066355	0.322445	0.612414	0.459216	-0.556866
48149	-9.540567	-1.170067	-1.960624	0.078396	0.230291	-0.005734	0.322478	0.612354	0.459319	-0.556827
48150	-9.617486	-1.099412	-1.906054	0.124897	0.138172	0.051546	0.322595	0.612289	0.459415	-0.556752
48151	-9.573813	-1.190259	-1.925022	0.046314	0.199380	0.022882	0.322830	0.612145	0.459544	-0.556667
48152	-9.509756	-1.333793	-1.979625	-0.067224	0.317424	-0.013295	0.322941	0.612060	0.459584	-0.556664
48153	-9.551268	-1.283032	-1.956593	-0.027785	0.270244	0.017233	0.322892	0.612107	0.459459	-0.556744
48154	-9.534588	-1.213929	-1.857392	-0.004092	0.158492	-0.024595	0.322815	0.612205	0.459370	-0.556753
48155	-9.547001	-1.181408	-1.844827	0.019814	0.132552	-0.018486	0.323072	0.612110	0.459502	-0.556600
48156	-9.554209	-1.233677	-1.871446	-0.019157	0.175199	-0.000648	0.323154	0.612082	0.459552	-0.556542
48157	-9.574701	-1.181112	-1.835196	0.015733	0.118397	0.006864	0.323018	0.612163	0.459444	-0.556622
48158	-9.535820	-1.133712	-1.764809	0.030388	0.044574	-0.049040	0.322884	0.612280	0.459332	-0.556664
48159	-9.557554	-1.060389	-1.730234	0.084746	-0.019259	-0.042456	0.322793	0.612376	0.459225	-0.556699
48160	-9.643176	-1.071587	-1.665600	0.051489	-0.090382	0.031222	0.322932	0.612352	0.459201	-0.556664
48161	-9.650037	-1.205643	-1.870488	0.007634	0.147269	0.089523	0.323266	0.612165	0.459197	-0.556678
48162	-9.621483	-1.295468	-1.879328	-0.072944	0.201423	0.073523	0.323526	0.612005	0.459027	-0.556844
48163	-9.575307	-1.346879	-1.962547	-0.089130	0.312900	0.048668	0.323748	0.611874	0.458823	-0.557028
48164	-9.508913	-1.451518	-2.081784	-0.140315	0.481196	0.016296	0.323646	0.611975	0.458282	-0.557420
48165	-9.492047	-1.302667	-2.048381	-0.015190	0.405719	-0.023565	0.323262	0.612270	0.457497	-0.557964
48166	-9.500072	-1.199362	-2.047032	0.082016	0.370648	-0.028206	0.322805	0.612622	0.456630	-0.558552
48167	-9.444997	-1.217478	-2.060124	0.070232	0.405965	-0.077977	0.322449	0.612941	0.455985	-0.558934
48168	-9.500231	-1.167084	-2.031400	0.107764	0.351765	-0.034768	0.322027	0.613300	0.455484	-0.559192
48169	-9.540043	-1.098975	-1.747031	0.057324	0.061451	-0.052297	0.321729	0.613636	0.455078	-0.559326
48170	-9.524584	-1.239692	-1.718036	-0.085579	0.093844	-0.056148	0.321748	0.613732	0.454871	-0.559378
48171	-9.533858	-1.274611	-1.787397	-0.090193	0.169957	-0.031233	0.321494	0.613946	0.454490	-0.559598
48172	-9.618851	-1.230564	-1.670741	-0.092987	0.032364	0.026940	0.320981	0.614343	0.453879	-0.559954
48173	-9.630090	-1.173064	-1.736418	-0.013151	0.068584	0.042514	0.320484	0.614773	0.453192	-0.560323
48174	-9.614591	-1.130545	-1.600184	-0.030256	-0.064806	-0.000758	0.320111	0.615106	0.452608	-0.560642
48175	-9.662158	-1.152681	-1.601269	-0.049132	-0.062331	0.048536	0.319877	0.615376	0.452163	-0.560838
48176	-9.654597	-1.126546	-1.704367	0.015126	0.023661	0.055667	0.319717	0.615587	0.451790	-0.560998
48177	-9.589359	-1.054527	-1.645032	0.053238	-0.043028	-0.026510	0.319474	0.615825	0.451417	-0.561176
48178	-9.585879	-0.940242	-1.667795	0.165437	-0.066126	-0.039105	0.319375	0.615988	0.451195	-0.561233
48179	-9.658302	-1.003827	-1.657837	0.103739	-0.063782	0.037392	0.319553	0.615985	0.451223	-0.561111
48180	-9.629202	-1.093652	-1.670903	0.023163	-0.009731	0.021380	0.319839	0.615915	0.451332	-0.560937
48181	-9.529821	-1.152749	-1.745317	-0.006759	0.101380	-0.056554	0.320136	0.615816	0.451480	-0.560757
48182	-9.586994	-1.140832	-1.858379	0.049747	0.187682	0.017258	0.320325	0.615775	0.451525	-0.560658
48183	-9.611580	-1.125165	-1.796003	0.037312	0.121155	0.028960	0.320408	0.615803	0.451540	-0.560568
48184	-9.491359	-1.107851	-1.809215	0.052741	0.149253	-0.088417	0.320362	0.615876	0.451576	-0.560486
48185	-9.507187	-0.987575	-1.717786	0.124640	0.014232	-0.102025	0.320305	0.615946	0.451651	-0.560381
48186	-9.647116	-0.956987	-1.761104	0.173939	0.010485	0.038901	0.320279	0.615999	0.451696	-0.560301
48187	-9.683402	-0.994103	-1.822873	0.165478	0.072445	0.089168	0.320324	0.616015	0.451678	-0.560273
48188	-9.645777	-1.055708	-1.852052	0.119259	0.131432	0.064262	0.320314	0.616045	0.451560	-0.560340
48189	-9.595579	-1.089927	-1.798035	0.064588	0.109388	0.009729	0.320318	0.616049	0.451330	-0.560519
48190	-9.561575	-1.040733	-1.866963	0.137233	0.162055	-0.017418	0.320187	0.616143	0.451046	-0.560718
48191	-9.557092	-1.115543	-1.770920	0.029337	0.108985	-0.029750	0.320228	0.616199	0.450867	-0.560778
48192	-9.550924	-1.240273	-1.804105	-0.072698	0.191544	-0.016196	0.320371	0.616193	0.450816	-0.560743
48193	-9.573389	-1.220201	-1.818256	-0.048762	0.194191	0.005899	0.320422	0.616172	0.450700	-0.560831
48194	-9.467095	-1.277094	-1.826903	-0.100231	0.248043	-0.090401	0.320360	0.616206	0.450544	-0.560954
48195	-9.514859	-1.350621	-1.790077	-0.179552	0.235811	-0.041646	0.320104	0.616351	0.450285	-0.561150
48196	-9.580345	-1.419803	-1.803288	-0.232851	0.261951	0.032507	0.319576	0.616659	0.449869	-0.561444
48197	-9.568373	-1.378031	-1.766562	-0.207004	0.214480	0.009971	0.318832	0.617085	0.449224	-0.561916
48198	-9.545449	-1.221834	-1.734104	-0.075329	0.127305	-0.035483	0.318065	0.617540	0.448572	-0.562372
48199	-9.595826	-1.105799	-1.650342	-0.000701	-0.005089	-0.013388	0.317494	0.617931	0.448054	-0.562678
48200	-9.630849	-1.081268	-1.574753	-0.008619	-0.090594	0.005355	0.317148	0.618220	0.447731	-0.562812
48201	-9.583592	-1.138056	-1.663434	-0.024979	0.020859	-0.019508	0.316968	0.618383	0.447462	-0.562949
48202	-9.650597	-1.107674	-1.631776	-0.008816	-0.033367	0.037311	0.316574	0.618698	0.447110	-0.563104
48203	-9.644375	-1.000699	-1.480985	0.024228	-0.211538	-0.006396	0.316093	0.619068	0.446678	-0.563311
48204	-9.639169	-0.953860	-1.423319	0.041704	-0.282773	-0.026596	0.315586	0.619460	0.446241	-0.563511
48205	-9.728174	-0.832094	-1.406951	0.146879	-0.367150	0.043929	0.315185	0.619798	0.445888	-0.563642
48206	-9.714882	-0.765557	-1.498367	0.243509	-0.311735	0.038894	0.315165	0.619928	0.445790	-0.563589
48207	-9.776634	-0.839300	-1.501807	0.177187	-0.290507	0.108333	0.315335	0.619958	0.445766	-0.563479
48208	-9.801034	-0.975146	-1.532713	0.064740	-0.210322	0.152852	0.315441	0.620053	0.445586	-0.563457
48209	-9.735730	-0.972463	-1.475813	0.037953	-0.244155	0.079081	0.315643	0.620077	0.445261	-0.563574
48210	-9.489197	-1.007150	-1.820559	0.142709	0.133661	-0.100046	0.315886	0.620101	0.444887	-0.563707
48211	-9.432491	-1.025432	-1.999961	0.197042	0.319380	-0.123394	0.316110	0.620195	0.444519	-0.563769
48212	-9.443141	-1.093154	-1.896171	0.087210	0.259131	-0.123074	0.316432	0.620236	0.444270	-0.563740
48213	-9.464062	-1.109930	-1.906292	0.072193	0.275783	-0.099136	0.316738	0.620232	0.444190	-0.563635
48214	-9.568715	-1.043395	-1.974579	0.159722	0.291292	0.007576	0.317024	0.620236	0.444198	-0.563463
48215	-9.626237	-1.149421	-2.008936	0.075800	0.355150	0.081228	0.317149	0.620299	0.444177	-0.563340
48216	-9.556172	-1.094148	-2.031110	0.130852	0.364740	0.010389	0.316979	0.620484	0.444104	-0.563291
48217	-9.628060	-1.005286	-1.928657	0.169169	0.220299	0.054060	0.316893	0.620521	0.444153	-0.563259
48218	-9.559925	-0.980092	-1.911889	0.183315	0.208221	-0.018245	0.317111	0.620338	0.444329	-0.563199
48219	-9.502518	-0.974648	-2.010176	0.227254	0.305789	-0.058538	0.317455	0.620171	0.444600	-0.562974
48220	-9.557109	-1.074144	-2.079951	0.164705	0.398379	0.017494	0.317805	0.620080	0.444805	-0.562716
48221	-9.469784	-1.172033	-2.101122	0.078745	0.475701	-0.053963	0.318021	0.620075	0.444789	-0.562612
48222	-9.439352	0.827390	0.815648	0.659105	-2.945019	-0.793618	0.320393	0.619350	0.448218	-0.559334
48223	-9.192146	-3.083435	-5.799905	-0.138809	4.597340	0.506536	0.317881	0.620427	0.443679	-0.563179
48224	-10.124747	-0.580121	-1.038296	0.178707	-0.835590	0.345804	0.317274	0.620752	0.443919	-0.562975
48225	-9.634278	-2.056422	-2.516283	-0.549943	1.170642	0.272302	0.318425	0.620069	0.445461	-0.561858
48226	-9.602130	-1.504407	-1.849199	-0.334127	0.354016	0.068948	0.318557	0.619823	0.445514	-0.562012
48227	-9.377143	-1.740757	-1.836370	-0.560459	0.486559	-0.128554	0.319156	0.619565	0.445784	-0.561743
48228	-9.453324	-1.630752	-1.997452	-0.393865	0.571558	-0.038605	0.318982	0.619746	0.445617	-0.561775
48229	-9.456149	-1.390895	-1.821042	-0.245587	0.315886	-0.091091	0.317475	0.620553	0.444352	-0.562739
48230	-9.481465	-1.009175	-1.874422	0.131058	0.200293	-0.098122	0.316110	0.621369	0.443235	-0.563487
48231	-9.575699	-0.885351	-1.790947	0.213057	0.051608	-0.033256	0.315138	0.622068	0.442511	-0.563830
48232	-9.626023	-0.712559	-1.588151	0.282261	-0.216396	-0.037015	0.314790	0.622400	0.442426	-0.563724
48233	-9.630860	-0.747873	-1.745376	0.313687	-0.071001	-0.001690	0.314975	0.622457	0.442985	-0.563119
48234	-9.641967	-0.837055	-1.706632	0.212341	-0.078961	0.012253	0.315203	0.622347	0.443623	-0.562610
48235	-9.596202	-0.960242	-1.593647	0.050051	-0.125853	-0.038716	0.315274	0.622251	0.444072	-0.562322
48236	-9.644124	-1.083106	-1.524279	-0.089619	-0.153045	0.009441	0.315059	0.622360	0.444302	-0.562140
48237	-9.655412	-1.106336	-1.525173	-0.111133	-0.153168	0.023028	0.314883	0.622524	0.444587	-0.561831
48238	-9.718880	-1.057421	-1.626658	-0.024322	-0.104466	0.097372	0.314915	0.622538	0.445000	-0.561471
48239	-9.715739	-1.033997	-1.713372	0.031349	-0.042155	0.106870	0.315125	0.622454	0.445372	-0.561152
48240	-9.657125	-0.955333	-1.811695	0.140207	0.022776	0.058218	0.315457	0.622311	0.445663	-0.560893
48241	-9.586206	-0.996227	-1.876626	0.125621	0.112646	0.004699	0.315808	0.622228	0.445764	-0.560706
48242	-9.548058	-1.072571	-1.859609	0.044916	0.137912	-0.027345	0.315880	0.622313	0.445694	-0.560628
48243	-9.530531	-1.075187	-1.810919	0.018962	0.099525	-0.052758	0.315928	0.622382	0.445648	-0.560560
48244	-9.543241	-1.020579	-1.803178	0.062430	0.066686	-0.047538	0.316180	0.622335	0.445910	-0.560262
48245	-9.505981	-1.141960	-1.927776	0.000302	0.232415	-0.048976	0.316616	0.622133	0.446410	-0.559842
48246	-9.501290	-1.080237	-1.962078	0.067050	0.235338	-0.054036	0.316934	0.621969	0.446925	-0.559433
48247	-9.538774	-1.068792	-1.944089	0.067679	0.202189	-0.021643	0.317230	0.621815	0.447485	-0.558990
48248	-9.525108	-1.039569	-1.869496	0.059370	0.121148	-0.051274	0.317596	0.621627	0.448128	-0.558475
48249	-9.598974	-1.131712	-1.829076	-0.043252	0.101464	0.023695	0.317915	0.621500	0.448655	-0.558012
48250	-9.583409	-1.214063	-1.975066	-0.061951	0.263019	0.043455	0.318200	0.621401	0.449118	-0.557586
48251	-9.570903	-1.167192	-1.945099	-0.036001	0.215593	0.020936	0.318571	0.621233	0.449638	-0.557143
48252	-9.536357	-1.219284	-1.989210	-0.069345	0.279273	0.000718	0.318849	0.621092	0.450049	-0.556809
48253	-9.518847	-1.133768	-1.986176	0.004017	0.241832	-0.025948	0.318955	0.621089	0.450398	-0.556470
48254	-9.554440	-1.090480	-1.961492	0.030668	0.189919	-0.000098	0.319130	0.621078	0.450753	-0.556093
48255	-9.546680	-1.086471	-1.948072	0.024135	0.173178	-0.010447	0.319353	0.621085	0.451090	-0.555684
48256	-9.618493	-1.089862	-1.851123	-0.021802	0.068398	0.042500	0.319545	0.621102	0.451377	-0.555322
48257	-9.600297	-1.096347	-1.849482	-0.032900	0.070483	0.025108	0.319788	0.621061	0.451586	-0.555057
48258	-9.590832	-1.066684	-1.912486	0.016233	0.116161	0.024269	0.320017	0.621010	0.451759	-0.554842
48259	-9.613272	-1.098034	-1.936089	-0.005340	0.144558	0.053832	0.320201	0.620998	0.451839	-0.554684
48260	-9.577122	-1.133693	-1.923758	-0.047020	0.155852	0.019956	0.320369	0.621040	0.451793	-0.554578
48261	-9.560085	-1.125007	-2.007426	-0.009043	0.232253	0.017705	0.320449	0.621157	0.451645	-0.554521
48262	-9.554237	-1.102410	-2.033898	0.018759	0.249172	0.014471	0.320383	0.621381	0.451397	-0.554510
48263	-9.592375	-1.106666	-1.966098	-0.014945	0.182349	0.039745	0.320220	0.621642	0.451097	-0.554556
48264	-9.534715	-1.015803	-1.928384	0.049406	0.125617	-0.032959	0.320185	0.621762	0.450897	-0.554604
48265	-9.466539	-1.067557	-2.001531	0.028270	0.227329	-0.080849	0.320307	0.621829	0.450789	-0.554546
48266	-9.555255	-1.092025	-2.034716	0.018338	0.249042	0.014475	0.320291	0.621965	0.450650	-0.554516
48267	-9.551742	-1.023187	-1.976971	0.055546	0.170867	-0.006627	0.320139	0.622164	0.450425	-0.554562
48268	-9.624438	-1.016970	-2.007848	0.073527	0.180934	0.069486	0.319998	0.622371	0.450152	-0.554634
48269	-9.669576	-1.023259	-1.958105	0.046370	0.130881	0.105107	0.319992	0.622502	0.449908	-0.554689
48270	-9.541079	-1.044969	-1.944678	0.016360	0.156115	-0.020788	0.319998	0.622626	0.449734	-0.554687
48271	-9.543744	-0.983956	-1.993222	0.089589	0.175928	-0.015485	0.319940	0.622797	0.449483	-0.554732
48272	-9.614039	-0.888529	-1.966272	0.164414	0.100925	0.038619	0.319862	0.623000	0.449144	-0.554823
48273	-9.632561	-0.872962	-1.927109	0.160535	0.058195	0.047987	0.319695	0.623260	0.448701	-0.554986
48274	-9.668269	-0.878041	-1.758183	0.084337	-0.094699	0.052479	0.319610	0.623514	0.448197	-0.555157
48275	-9.661585	-0.891796	-1.734383	0.058278	-0.104499	0.043037	0.319675	0.623689	0.447801	-0.555242
48276	-9.781017	-0.945017	-1.761808	0.018424	-0.078194	0.170241	0.319852	0.623838	0.447415	-0.555284
48277	-9.825814	-0.972498	-1.794636	0.001292	-0.040148	0.222823	0.319973	0.624155	0.446735	-0.555405
48278	-9.808214	-1.041204	-1.644044	-0.132161	-0.132120	0.184968	0.320023	0.624644	0.445569	-0.555764
48279	-9.738484	-1.141167	-1.558855	-0.269168	-0.136381	0.110985	0.320150	0.625181	0.444075	-0.556283
48280	-9.881363	-1.228698	-1.406329	-0.422063	-0.242053	0.231813	0.320491	0.625661	0.442355	-0.556917
48281	-9.665808	-1.114319	-1.284018	-0.385344	-0.323608	-0.011416	0.321153	0.626093	0.440347	-0.557640
48282	-9.595985	-0.854857	-1.087113	-0.252661	-0.553236	-0.136664	0.322274	0.626576	0.437965	-0.558327
48283	-10.214334	-0.659330	-1.029165	-0.122245	-0.758157	0.445796	0.323819	0.626942	0.435497	-0.558952
48284	-10.492950	-0.566091	-1.436594	0.109279	-0.428339	0.784030	0.325702	0.627032	0.432701	-0.559928
48285	-9.775093	-0.735557	-2.157331	0.238848	0.478234	0.210358	0.327789	0.627039	0.430118	-0.560692
48286	-9.233975	-0.780618	-2.352220	0.259025	0.818292	-0.290518	0.329267	0.627432	0.427788	-0.561169
48287	-8.953077	-1.191744	-2.055040	-0.260917	0.818060	-0.589696	0.330863	0.627639	0.425839	-0.561481
48288	-8.897624	-1.491860	-1.741882	-0.686496	0.715356	-0.677900	0.332681	0.627468	0.424396	-0.561690
48289	-8.768756	-1.396893	-1.809216	-0.587507	0.794278	-0.804943	0.334719	0.626936	0.423282	-0.561913
48290	-9.252426	-1.321147	-2.162414	-0.389536	1.036662	-0.283662	0.336717	0.626333	0.422600	-0.561906
48291	-9.677866	-1.217907	-2.130851	-0.331666	0.929908	0.122609	0.338737	0.625626	0.422452	-0.561590
48292	-9.344487	-1.477949	-2.226965	-0.537383	1.196936	-0.182439	0.340171	0.625176	0.422558	-0.561145
48293	-9.093898	-1.519330	-2.223963	-0.584366	1.252210	-0.429519	0.339964	0.625751	0.422467	-0.560698
48294	-9.131266	-1.395521	-2.155569	-0.509198	1.120027	-0.407359	0.338717	0.626972	0.422019	-0.560426
48295	-9.242353	-1.130960	-1.898496	-0.387474	0.741416	-0.346719	0.337697	0.628024	0.421991	-0.559884
48296	-9.375883	-0.727982	-1.959509	-0.008352	0.584764	-0.224425	0.337686	0.628312	0.422791	-0.558964
48297	-10.043117	-0.537021	-1.825296	0.083026	0.263196	0.405341	0.338350	0.628271	0.423895	-0.557771
48298	-10.158358	-0.620094	-1.641049	-0.089050	0.107042	0.495095	0.339658	0.628106	0.424672	-0.556569
48299	-9.723749	-0.726348	-1.604554	-0.212020	0.189056	0.065204	0.340941	0.628083	0.424962	-0.555588
48300	-9.580659	-0.767694	-1.469579	-0.323270	0.113185	-0.095657	0.342375	0.627972	0.425227	-0.554629
48301	-9.506775	-0.725928	-1.355813	-0.351380	0.014888	-0.188747	0.344487	0.627420	0.425820	-0.553489
48302	-9.324969	-0.730875	-1.686600	-0.236203	0.357809	-0.317953	0.346753	0.626595	0.426426	-0.552541
48303	-9.505330	-0.478229	-2.001906	0.099015	0.531625	-0.102119	0.348854	0.625807	0.426833	-0.551798
48304	-9.596548	0.138279	-1.757658	0.543339	0.073760	-0.070950	0.351625	0.624858	0.427574	-0.550539
48305	-9.612767	0.480957	-1.652349	0.789711	-0.130086	-0.079953	0.355206	0.623635	0.428566	-0.548853
48306	-9.713186	0.405802	-1.710249	0.709851	-0.028398	0.032653	0.359478	0.621850	0.430227	-0.546793
48307	-9.982320	0.294243	-1.462933	0.479535	-0.213266	0.266889	0.364245	0.619266	0.432569	-0.544720
48308	-10.120531	0.108981	-1.146400	0.172113	-0.411580	0.363365	0.369238	0.616215	0.434782	-0.543054
48309	-10.365536	0.284878	-0.773732	0.185789	-0.802738	0.552881	0.373542	0.613821	0.435940	-0.541891
48310	-10.109427	-0.010692	-0.958108	-0.037546	-0.440606	0.332397	0.377379	0.612353	0.435598	-0.541169
48311	-9.754999	-0.247836	-1.026759	-0.254355	-0.200185	-0.006024	0.379421	0.612481	0.433723	-0.541102
48312	-9.808710	-0.154792	-1.015302	-0.201883	-0.213567	0.045259	0.379320	0.613754	0.430854	-0.542021
48313	-10.023099	-0.322658	-1.479921	-0.224431	0.279336	0.317876	0.377577	0.615760	0.426786	-0.544176
48314	-9.894981	-0.759734	-2.103403	-0.403587	1.056259	0.268657	0.374132	0.618676	0.421466	-0.547386
48315	-9.609706	-1.089199	-2.391566	-0.565784	1.502164	0.019690	0.369173	0.622221	0.415395	-0.551361
48316	-9.897018	-0.752990	-2.323258	-0.268046	1.281555	0.296773	0.362575	0.627354	0.408756	-0.554873
48317	-10.379318	0.273833	-1.781639	0.423635	0.289501	0.709481	0.355241	0.633729	0.401087	-0.557961
48318	-10.438788	0.151289	-1.532071	0.163127	0.077236	0.737454	0.347736	0.641303	0.391831	-0.560606
48319	-10.230577	0.733047	-1.171848	0.461546	-0.509322	0.487907	0.340137	0.649149	0.381190	-0.563566
48320	-10.796380	2.240291	-0.713432	1.404185	-1.739717	1.008097	0.332594	0.657534	0.369647	-0.566032
48321	-10.301404	2.347081	-0.474581	1.265110	-1.974312	0.500037	0.328730	0.664671	0.359911	-0.566227
48322	-10.150276	1.253060	-1.368558	0.668215	-0.637131	0.464330	0.324592	0.672165	0.349938	-0.566019
48323	-10.085735	1.892573	-1.233717	0.982819	-1.110741	0.415896	0.320956	0.679774	0.340811	-0.564572
48324	-10.139585	1.553732	-1.160623	0.482891	-1.005395	0.450135	0.318185	0.687481	0.332248	-0.561907
48325	-10.216475	1.238102	-1.259651	0.098321	-0.765250	0.526483	0.317289	0.693660	0.326540	-0.558154
48326	-10.242282	1.127480	-1.718572	0.117782	-0.348485	0.627245	0.316753	0.698656	0.322070	-0.554814
48327	-10.080327	1.710923	-1.851294	0.569297	-0.585064	0.545895	0.316650	0.702264	0.318768	-0.552218
48328	-9.642821	0.593888	-1.745744	-0.385522	0.053195	-0.002880	0.317529	0.704750	0.315827	-0.550233
48329	-9.142313	0.399573	-1.262728	-0.787770	-0.135606	-0.609607	0.317644	0.707042	0.311526	-0.549677
48330	-9.080418	0.014124	-1.122814	-1.204331	0.041222	-0.742824	0.317888	0.708415	0.306662	-0.550503
48331	-8.398716	0.501532	-2.065432	-0.149864	0.595443	-1.171003	0.317814	0.709554	0.301279	-0.552050
48332	-8.033815	-0.458849	-3.155389	-0.173802	2.124464	-1.436208	0.317996	0.710435	0.296234	-0.553540
48333	-7.237592	-0.067832	-2.946590	0.177316	1.819056	-2.214714	0.317061	0.711390	0.291154	-0.555541
48334	-7.677944	0.378858	-2.309377	0.043121	1.046699	-1.854667	0.315622	0.712356	0.286746	-0.557412
48335	-7.740584	0.780457	-2.649858	0.552574	1.066527	-1.682211	0.314560	0.712783	0.283774	-0.558986
48336	-7.810584	0.657517	-3.050195	0.706408	1.456751	-1.559198	0.313943	0.712715	0.282841	-0.559892
48337	-8.468513	0.593237	-2.939838	0.464349	1.375724	-0.946910	0.312993	0.712378	0.283129	-0.560706
48338	-9.020463	0.953897	-2.446950	0.334613	0.722925	-0.451515	0.312147	0.711539	0.284694	-0.561449
48339	-9.109560	1.280469	-2.396740	0.562343	0.448731	-0.333746	0.312038	0.710202	0.287549	-0.561749
48340	-9.292813	1.363944	-2.420981	0.634783	0.379518	-0.141558	0.312709	0.708531	0.291875	-0.561254
48341	-10.161094	1.850995	-2.141925	0.690339	-0.230908	0.710230	0.313967	0.706622	0.297152	-0.560188
48342	-10.412508	2.018481	-2.097747	0.782332	-0.408847	0.963015	0.317132	0.703583	0.303850	-0.558635
48343	-9.719151	1.985923	-2.384147	1.098896	-0.112692	0.329778	0.321666	0.700124	0.311411	-0.556220
48344	-9.892876	1.857917	-2.186144	0.874804	-0.203027	0.448576	0.326607	0.696560	0.319676	-0.553118
48345	-10.494816	2.048933	-1.782713	0.717469	-0.689636	0.982074	0.332535	0.692337	0.328506	-0.549703
48346	-10.462047	1.297737	-1.745264	0.120493	-0.278124	0.868724	0.339214	0.687688	0.336653	-0.546519
48347	-9.531520	0.255337	-1.798008	-0.532569	0.434785	-0.134091	0.343845	0.684094	0.342738	-0.544351
48348	-9.486380	0.596303	-1.060650	-0.602707	-0.372454	-0.274871	0.346085	0.682036	0.347043	-0.542784
48349	-10.319892	1.673174	-0.166362	-0.266285	-1.799216	0.483874	0.347783	0.680556	0.350844	-0.541109
48350	-10.605430	2.327350	-0.343833	0.350715	-2.030746	0.853285	0.350520	0.678890	0.354642	-0.538956
48351	-10.238159	1.696427	-1.365769	0.377594	-0.795533	0.617444	0.353977	0.677217	0.358160	-0.536469
48352	-9.643793	0.612921	-1.548101	-0.373651	-0.032379	-0.033405	0.355495	0.676389	0.360142	-0.535181
48353	-8.573577	-0.082440	-1.450019	-0.833412	0.340317	-1.163690	0.354889	0.676034	0.360443	-0.535829
48354	-8.996022	0.262353	-1.305193	-0.652547	-0.013690	-0.742150	0.352553	0.676254	0.360493	-0.537059
48355	-9.845393	0.910673	-1.542131	-0.089094	-0.252510	0.190682	0.350377	0.676214	0.361099	-0.538126
48356	-10.162860	1.346972	-2.766396	0.852725	0.510628	0.759113	0.348937	0.676068	0.362800	-0.538100
48357	-10.120074	1.646901	-3.705232	1.584165	1.135571	0.913810	0.348571	0.675719	0.365334	-0.537059
48358	-9.154778	1.063829	-3.764686	1.261319	1.565683	-0.062190	0.349157	0.674923	0.368680	-0.535391
48359	-8.537815	0.180930	-3.063208	0.257588	1.439911	-0.858893	0.348829	0.674623	0.371801	-0.533822
48360	-9.125278	-0.074090	-1.940973	-0.572832	0.466904	-0.512304	0.346720	0.675051	0.374121	-0.533034
48361	-10.197066	0.353537	-1.157788	-0.705243	-0.628221	0.412435	0.343419	0.675562	0.375913	-0.533262
48362	-10.562451	1.431589	-1.100483	0.191358	-1.320813	0.819537	0.340240	0.675652	0.377764	-0.533878
48363	-9.990218	1.983098	-1.629337	1.047099	-1.110386	0.388394	0.337349	0.675641	0.379723	-0.534336
48364	-9.203477	1.861963	-2.232749	1.372942	-0.469375	-0.270653	0.334182	0.676261	0.381053	-0.534595
48365	-8.785393	1.244821	-2.775558	1.178042	0.303310	-0.595517	0.330790	0.677142	0.382634	-0.534461
48366	-9.111503	0.636412	-2.855038	0.672574	0.544594	-0.282410	0.327158	0.677579	0.385247	-0.534264
48367	-9.508004	0.950038	-2.074888	0.564540	-0.420653	-0.060072	0.323644	0.677210	0.388427	-0.534570
48368	-9.438532	1.370579	-1.709136	0.826424	-1.001934	-0.210721	0.319444	0.676582	0.391603	-0.535574
48369	-8.906775	1.738119	-2.393027	1.614733	-0.582863	-0.586095	0.314301	0.675880	0.394924	-0.537062
48370	-8.838018	1.521505	-3.730866	2.163381	0.579602	-0.361368	0.309501	0.674799	0.399540	-0.537795
48371	-9.629150	0.774517	-4.311741	1.780298	1.187115	0.547432	0.307558	0.672860	0.405779	-0.536666
48372	-10.355247	0.027360	-2.988813	0.467198	0.206613	0.953165	0.308016	0.670538	0.411646	-0.534839
48373	-10.501701	-0.010981	-1.054365	-0.450267	-1.494251	0.625788	0.310492	0.667457	0.417260	-0.532908
48374	-10.947509	-0.023775	0.034101	-0.952680	-2.544382	0.792405	0.314234	0.664051	0.422430	-0.530892
48375	-11.234696	-0.626695	-0.116236	-1.403171	-2.212057	1.130915	0.317731	0.660990	0.425760	-0.529970
48376	-10.907273	-1.180240	-1.110751	-1.401045	-1.004855	1.078703	0.319587	0.658504	0.426561	-0.531303
48377	-10.368154	-1.453060	-2.273670	-1.054879	0.299417	0.844545	0.319657	0.656786	0.425112	-0.534538
48378	-10.180898	-1.746584	-2.784878	-1.016620	0.981979	0.791937	0.317757	0.656141	0.421417	-0.539367
48379	-10.046399	-1.413079	-2.458347	-0.778757	0.654323	0.576478	0.315252	0.655792	0.416633	-0.544950
48380	-9.997654	-0.443050	-1.825098	-0.136606	-0.244434	0.355941	0.314451	0.654552	0.412423	-0.550081
48381	-10.070706	-0.055023	-1.165738	-0.053563	-0.908844	0.284393	0.315600	0.652515	0.408515	-0.554740
48382	-10.299635	0.091864	-0.563114	-0.182408	-1.418715	0.403008	0.317782	0.650339	0.404093	-0.559270
48383	-10.714421	0.266362	0.023214	-0.302233	-1.929721	0.725466	0.320835	0.647990	0.398516	-0.564234
48384	-11.459140	0.447382	0.732812	-0.500516	-2.551898	1.380258	0.325828	0.644750	0.392314	-0.569406
48385	-12.431861	0.319248	0.962859	-0.743352	-2.559740	2.372022	0.333356	0.639887	0.385564	-0.575116
48386	-13.214212	0.024179	0.995905	-1.013579	-2.186214	3.217573	0.342881	0.633580	0.377941	-0.581524
48387	-14.051124	0.154248	1.517105	-1.136936	-2.337840	4.079082	0.353383	0.626272	0.368741	-0.589011
48388	-15.620690	2.168658	4.072107	-0.571021	-5.045838	5.661832	0.367301	0.615279	0.358681	-0.598221
48389	-16.576698	1.581298	6.121152	-1.784488	-5.785989	6.860558	0.387540	0.594260	0.352710	-0.610134
48390	-15.099053	-1.226533	5.316345	-3.315486	-2.991881	5.604799	0.410044	0.563998	0.351127	-0.624884
48391	-13.918818	-2.725333	0.027593	-1.868180	3.080502	3.902606	0.426089	0.534434	0.346945	-0.642229
48392	-13.995557	-2.156235	-0.083375	-0.797600	3.737031	3.820301	0.439056	0.506160	0.341260	-0.659222
48393	-13.592376	-3.457208	3.414404	-2.825649	1.771423	4.229096	0.449048	0.478815	0.334975	-0.675932
48394	-14.048676	-5.469847	5.316730	-4.715287	1.777348	5.355220	0.455216	0.452285	0.324668	-0.694843
48395	-15.248211	-3.555922	5.189954	-2.049576	2.520924	6.355182	0.458083	0.425967	0.308056	-0.716808
48396	-15.555432	0.133300	4.372994	2.326374	2.911930	5.906401	0.461547	0.398604	0.288870	-0.737999
48397	-14.929100	1.794591	3.423381	4.620199	3.702500	4.422376	0.469175	0.365989	0.275142	-0.755132
48398	-14.060997	3.230046	3.939308	6.114192	3.201705	3.450697	0.476995	0.332884	0.262992	-0.769739
48399	-13.348856	2.945723	4.171405	6.142288	3.618089	2.570387	0.487350	0.295694	0.256770	-0.780464
48400	-11.589962	1.787335	4.654346	4.949313	3.486241	1.252417	0.497936	0.254122	0.252964	-0.789615
48401	-9.708151	-0.685024	3.375043	2.684544	4.695113	-1.049014	0.506977	0.212730	0.248913	-0.797348
48402	-8.570928	-2.215366	3.103223	1.223441	5.142415	-2.065431	0.514748	0.173343	0.242223	-0.803937
48403	-7.155637	-1.855326	5.151660	1.207448	3.288873	-1.513573	0.521634	0.137375	0.232081	-0.809422
48404	-5.910145	-1.296049	4.440613	1.457600	2.951848	-3.069691	0.528331	0.103236	0.221348	-0.813150
48405	-4.950364	-0.685362	3.595050	1.747523	2.722896	-4.576479	0.535489	0.069768	0.211809	-0.814568
48406	-2.948748	-0.970120	3.750436	0.815069	1.355588	-5.209160	0.541740	0.039516	0.201020	-0.815198
48407	-1.562466	-1.061044	3.394314	0.232411	0.537830	-5.973253	0.546680	0.012441	0.190143	-0.815372
48408	-0.789750	-1.406995	3.660013	-0.234538	0.057243	-5.820501	0.550361	-0.011525	0.180541	-0.815092
48409	0.817619	-1.928563	1.522905	-1.702267	-0.507782	-7.928324	0.553760	-0.033006	0.172495	-0.813944
48410	2.235184	-2.184271	1.156387	-2.514943	-1.596549	-8.319510	0.556794	-0.049012	0.163979	-0.812828
48411	3.000779	-1.426315	0.280874	-2.313308	-2.361574	-9.378179	0.559456	-0.061801	0.157540	-0.811401
48412	3.541238	-1.004811	0.251741	-2.115101	-3.007690	-9.507549	0.561632	-0.070356	0.153597	-0.809955
48413	3.791202	-1.294097	0.114268	-2.477947	-3.135528	-9.514200	0.563397	-0.073889	0.152021	-0.808711
48414	3.595269	-1.616623	0.033443	-2.704884	-2.847321	-9.470818	0.565171	-0.071851	0.151759	-0.807706
48415	3.015305	-2.094465	0.724245	-2.734962	-2.283220	-8.668156	0.567261	-0.063973	0.152663	-0.806732
48416	2.459077	-2.100734	0.951134	-2.500896	-1.824322	-8.477933	0.569561	-0.051708	0.155108	-0.805523
48417	1.549485	-1.988355	2.014709	-1.852517	-1.258737	-7.489691	0.571751	-0.035463	0.159110	-0.804069
48418	0.007953	-2.286994	2.990243	-1.438955	-0.031187	-6.334375	0.573646	-0.015968	0.164070	-0.802344
48419	-0.803282	-1.699118	3.652354	-0.585674	0.262956	-5.755938	0.574903	0.004935	0.170205	-0.800308
48420	-1.703831	-1.261685	4.472227	0.143432	0.572896	-4.899222	0.575035	0.028571	0.176417	-0.798371
48421	-2.728663	-1.242512	5.532657	0.494692	0.937218	-3.610462	0.573704	0.054190	0.183387	-0.796428
48422	-3.548791	-1.858848	4.685054	-0.082737	1.882219	-3.944042	0.571199	0.080205	0.191701	-0.794072
48423	-4.728358	-1.278504	5.188985	0.716055	2.267304	-3.085780	0.567867	0.107596	0.199424	-0.791315
48424	-5.672069	-1.274274	6.491927	0.870016	2.135116	-1.410033	0.563455	0.135450	0.208395	-0.787873
48425	-6.727177	-2.764014	5.475671	-0.455383	3.508727	-1.425918	0.558046	0.164987	0.216616	-0.783863
48426	-6.716767	-1.979808	4.934229	0.051164	3.159747	-1.851845	0.552514	0.193710	0.224993	-0.778835
48427	-8.199574	-1.730445	5.156505	0.492298	3.677030	-0.700744	0.546442	0.221666	0.234086	-0.772961
48428	-9.226060	-1.126537	6.880132	0.928364	2.681913	1.395830	0.539968	0.248786	0.244806	-0.765905
48429	-10.965349	-1.127327	4.889167	1.382823	4.593739	1.248784	0.532602	0.276139	0.254698	-0.758427
48430	-11.609552	-0.328201	5.535253	1.915740	3.729340	2.348952	0.524917	0.301735	0.263772	-0.750894
48431	-11.105306	-0.266917	5.733258	1.492387	2.631589	2.314727	0.516893	0.326460	0.273682	-0.742525
48432	-10.186666	-0.853628	5.616448	0.460822	1.756615	1.707198	0.509472	0.348130	0.286805	-0.732793
48433	-9.270486	-2.813696	3.212468	-1.249165	3.200898	-0.202896	0.502665	0.365987	0.302716	-0.722319
48434	-9.979126	-3.580504	2.884498	-1.872275	3.534546	0.419400	0.493068	0.385600	0.317906	-0.712132
48435	-11.947065	-1.923934	3.977169	-0.303210	2.360996	2.698917	0.480450	0.406975	0.331707	-0.702502
48436	-13.336514	-1.142233	5.040302	0.273758	0.988862	4.451256	0.468400	0.425735	0.347837	-0.691636
48437	-12.952378	-2.200783	3.984853	-0.666302	1.336966	3.833020	0.456921	0.443048	0.363577	-0.680252
48438	-12.455252	-2.778959	2.674529	-1.095927	1.854324	3.045462	0.442450	0.462997	0.373677	-0.670997
48439	-11.999060	-2.964015	1.898556	-1.277621	1.914274	2.477276	0.424653	0.484275	0.379218	-0.664336
48440	-12.127715	-2.161241	2.066553	-0.717144	0.939745	2.621011	0.405828	0.504746	0.384316	-0.657903
48441	-12.072383	-1.808070	1.904785	-0.496984	0.380187	2.525057	0.389561	0.522248	0.391587	-0.649737
48442	-12.660423	-1.535625	1.648487	-0.220347	-0.004657	3.043606	0.374803	0.538207	0.399012	-0.640816
48443	-13.968362	-1.575454	2.214891	-0.479177	-1.008733	4.372741	0.360893	0.552937	0.404850	-0.632545
48444	-14.282827	-1.745545	3.105610	-1.148017	-2.267785	4.685836	0.349422	0.564901	0.410285	-0.624866
48445	-14.160976	-1.544884	3.530747	-1.339010	-3.176399	4.452196	0.339291	0.575311	0.414331	-0.618247
48446	-14.754520	-1.610419	3.673389	-1.580463	-3.693624	4.939510	0.327412	0.586325	0.415504	-0.613499
48447	-14.855345	-1.851974	4.836917	-2.499795	-4.964122	4.904767	0.314743	0.596151	0.415923	-0.610368
48448	-12.676480	-0.134129	5.641784	-1.704405	-6.475289	2.340518	0.303461	0.602421	0.417303	-0.608982
48449	-11.361816	1.265778	5.889364	-0.786928	-7.345687	0.713337	0.293031	0.605214	0.417815	-0.610966
48450	-10.742113	2.390346	6.002189	0.073232	-7.979167	-0.145209	0.287816	0.604144	0.418712	-0.613883
48451	-10.929790	2.618180	1.910666	2.422729	-4.613376	0.326958	0.293695	0.600676	0.424467	-0.610541
48452	-11.418004	1.303417	-3.143984	3.771611	0.375759	1.482668	0.304678	0.598953	0.431968	-0.601524
48453	-11.857806	0.519858	-3.050489	2.918038	0.649369	2.071930	0.312236	0.599343	0.433568	-0.596083
48454	-10.067057	-0.190490	-2.090927	1.589926	0.438564	0.337834	0.316655	0.599318	0.433014	-0.594178
48455	-8.728055	-1.931360	-1.646261	-0.309294	1.034933	-0.787591	0.319094	0.598512	0.432304	-0.594202
48456	-7.854901	-3.063278	-2.104832	-1.188233	2.082894	-1.460258	0.318850	0.598383	0.431174	-0.595283
48457	-8.129018	-3.030800	-2.949038	-0.743322	2.790177	-1.116376	0.316272	0.599815	0.429580	-0.596368
48458	-9.023558	-1.934786	-3.080704	0.377641	2.277786	-0.361356	0.313046	0.602367	0.428342	-0.596389
48459	-10.126734	-1.151093	-2.408560	0.838746	1.126402	0.565382	0.311026	0.604930	0.428112	-0.595015
48460	-10.573085	-0.740112	-1.296831	0.689010	-0.150017	0.841991	0.310768	0.606607	0.428418	-0.593219
48461	-10.200832	-0.573730	-0.318849	0.324142	-1.051211	0.349871	0.312240	0.607097	0.429271	-0.591326
48462	-9.902279	-0.708580	-0.198892	0.100010	-1.057245	0.059949	0.314455	0.606970	0.430468	-0.589409
48463	-9.670022	-0.885403	-0.790316	0.168300	-0.421672	-0.080695	0.316037	0.607082	0.431125	-0.587966
48464	-9.735554	-0.782319	-1.484810	0.550919	0.133910	0.050183	0.316023	0.608089	0.430780	-0.587184
48465	-9.966016	-0.398723	-1.521508	0.903086	-0.047821	0.236072	0.315210	0.609371	0.429900	-0.586937
48466	-9.925789	-0.158521	-1.325941	1.011736	-0.326213	0.145953	0.315277	0.609893	0.429471	-0.586673
48467	-9.839633	-0.395055	-1.424476	0.829253	-0.116562	0.102065	0.316276	0.609701	0.429534	-0.586289
48468	-9.659716	-0.555744	-1.476378	0.689665	0.041373	-0.049425	0.317669	0.609210	0.429707	-0.585920
48469	-9.539813	-0.812773	-1.442799	0.428681	0.156369	-0.140973	0.318955	0.608819	0.429932	-0.585462
48470	-9.508141	-0.989860	-1.549078	0.305627	0.341301	-0.139307	0.319762	0.608711	0.430059	-0.585041
48471	-9.701031	-1.198852	-1.629509	0.154242	0.476410	0.084372	0.320169	0.608869	0.430085	-0.584635
48472	-9.619497	-1.330881	-1.704477	0.055256	0.611746	0.027735	0.320444	0.609072	0.430130	-0.584239
48473	-9.557747	-1.160766	-1.602143	0.150387	0.454252	-0.064056	0.320732	0.609191	0.430354	-0.583791
48474	-9.702830	-1.062716	-1.311072	0.109310	0.127920	0.034387	0.321228	0.609120	0.430757	-0.583295
48475	-9.624543	-0.982247	-1.166100	0.106984	-0.024707	-0.068747	0.321948	0.608887	0.431265	-0.582767
48476	-9.772526	-0.990795	-1.218134	0.123460	0.002233	0.084410	0.322333	0.608847	0.431495	-0.582424
48477	-9.823915	-0.801418	-1.305429	0.329437	-0.009648	0.124470	0.322283	0.609058	0.431374	-0.582322
48478	-9.867462	-0.764049	-1.260889	0.342060	-0.073514	0.158171	0.321914	0.609456	0.430937	-0.582433
48479	-9.879823	-0.762159	-1.176910	0.304873	-0.150511	0.160341	0.321685	0.609733	0.430445	-0.582633
48480	-9.773584	-0.791995	-1.144983	0.257882	-0.144898	0.055123	0.321895	0.609630	0.430214	-0.582796
48481	-9.857993	-1.013892	-1.069493	0.029549	-0.121410	0.154067	0.322473	0.609279	0.430215	-0.582843
48482	-9.588885	-1.050486	-1.247660	0.062106	0.104275	-0.086838	0.323270	0.608755	0.430378	-0.582828
48483	-9.520886	-1.147618	-1.413128	0.043732	0.312809	-0.124475	0.323932	0.608330	0.430580	-0.582755
48484	-9.698600	-1.183394	-1.486000	0.051204	0.372908	0.063029	0.324414	0.608024	0.430730	-0.582695
48485	-9.600190	-1.116659	-1.510293	0.116413	0.385866	-0.038788	0.324699	0.607855	0.430757	-0.582693
48486	-9.597248	-1.130908	-1.460819	0.082436	0.351683	-0.045925	0.324763	0.607754	0.430711	-0.582797
48487	-9.599390	-1.030762	-1.312194	0.109779	0.178617	-0.071607	0.324769	0.607657	0.430671	-0.582924
48488	-9.719899	-0.938468	-1.180491	0.143038	0.006087	0.022465	0.324904	0.607513	0.430727	-0.582958
48489	-9.779416	-0.948286	-1.242238	0.164194	0.058979	0.089279	0.325086	0.607433	0.430725	-0.582942
48490	-9.930349	-0.905047	-1.180290	0.183182	-0.032956	0.226704	0.325235	0.607346	0.430546	-0.583080
48491	-9.758641	-0.823050	-1.177004	0.249944	-0.036819	0.047839	0.325383	0.607060	0.430215	-0.583541
48492	-9.629804	-0.881858	-1.268101	0.236519	0.100285	-0.063182	0.325430	0.606790	0.429749	-0.584137
48493	-9.642288	-0.923005	-1.249141	0.195407	0.106381	-0.048646	0.325439	0.606791	0.429619	-0.584227
48494	-9.696693	-1.034804	-1.300857	0.118580	0.192617	0.022847	0.325353	0.607006	0.429484	-0.584151
48495	-9.745239	-0.980814	-1.117507	0.086605	-0.000696	0.044950	0.325468	0.607041	0.429361	-0.584141
48496	-9.670717	-0.961586	-1.276106	0.166516	0.145878	-0.013358	0.325711	0.607036	0.429345	-0.584023
48497	-9.585397	-0.920388	-1.524499	0.303044	0.362734	-0.074739	0.325895	0.607147	0.429440	-0.583735
48498	-9.705945	-1.081321	-1.480519	0.135983	0.368557	0.057075	0.326167	0.607432	0.429863	-0.582974
48499	-9.526861	-1.068568	-1.264739	0.031653	0.187049	-0.144882	0.326637	0.607701	0.430347	-0.582074
48500	-9.646930	-1.177434	-1.449236	0.003163	0.372089	0.006244	0.327245	0.607958	0.430801	-0.581127
48501	-9.588746	-1.557370	-1.430942	-0.363742	0.520006	-0.013997	0.327828	0.608000	0.431033	-0.580582
48502	-9.351852	-1.657919	-1.363907	-0.501220	0.534879	-0.245621	0.328325	0.607764	0.431593	-0.580132
48503	-9.466769	-1.293113	-1.233006	-0.225616	0.242016	-0.184464	0.328491	0.607619	0.432248	-0.579703
48504	-9.363600	-1.103554	-1.604394	0.099740	0.501417	-0.262423	0.328333	0.607593	0.432876	-0.579350
48505	-9.564586	-1.082204	-1.646778	0.147985	0.486396	-0.060464	0.327654	0.607862	0.433312	-0.579126
48506	-9.560150	-1.167294	-1.584177	0.047202	0.448158	-0.062531	0.326826	0.608224	0.433787	-0.578858
48507	-9.611998	-1.125848	-1.391527	0.007264	0.230801	-0.038178	0.326403	0.608298	0.434641	-0.578379
48508	-9.879242	-1.133581	-0.990726	-0.157130	-0.186321	0.177635	0.326158	0.608324	0.435614	-0.577757
48509	-9.846735	-0.944571	-0.929821	-0.011929	-0.330518	0.117346	0.326049	0.608217	0.436376	-0.577356
48510	-9.876482	-0.914306	-0.976962	0.037751	-0.317492	0.148892	0.325989	0.608234	0.436960	-0.576930
48511	-9.834566	-1.110906	-0.965899	-0.147968	-0.248566	0.127236	0.326329	0.608034	0.437613	-0.576454
48512	-9.754633	-1.317855	-1.281780	-0.207174	0.127699	0.110686	0.326594	0.607862	0.438054	-0.576150
48513	-9.612163	-1.231280	-1.206691	-0.166281	0.044904	-0.048663	0.326494	0.607808	0.438171	-0.576174
48514	-9.605690	-1.164269	-1.229577	-0.092876	0.037015	-0.059397	0.326063	0.607925	0.438025	-0.576406
48515	-9.569746	-1.092992	-1.222133	-0.030064	0.002618	-0.103549	0.325734	0.608040	0.438156	-0.576372
48516	-9.831607	-1.068962	-1.134684	-0.032291	-0.134794	0.140777	0.325693	0.608042	0.438532	-0.576106
48517	-9.619120	-1.012117	-1.279355	0.069748	0.000112	-0.056472	0.325977	0.607824	0.439127	-0.575722
48518	-9.711250	-0.925024	-1.391482	0.199365	0.046209	0.039134	0.326303	0.607582	0.439651	-0.575393
48519	-9.780898	-0.941882	-1.215368	0.113159	-0.117584	0.086990	0.326618	0.607355	0.439922	-0.575247
48520	-9.690613	-1.153281	-1.188475	-0.092919	-0.037440	0.017901	0.327103	0.606922	0.440118	-0.575279
48521	-9.646113	-1.344241	-1.344799	-0.200391	0.195039	0.015067	0.327376	0.606622	0.440034	-0.575504
48522	-9.602641	-1.369071	-1.498862	-0.157290	0.357533	-0.005594	0.327411	0.606457	0.439884	-0.575773
48523	-9.594585	-1.224192	-1.389711	-0.067738	0.207374	-0.043429	0.327322	0.606377	0.439615	-0.576112
48524	-9.498527	-1.033725	-1.606792	0.193353	0.344241	-0.131959	0.327425	0.606283	0.439662	-0.576117
48525	-9.574109	-0.963977	-1.594542	0.255830	0.293536	-0.066726	0.327481	0.606197	0.439761	-0.576100
48526	-9.542981	-0.965018	-1.403814	0.174905	0.127204	-0.121265	0.327502	0.606114	0.439852	-0.576107
48527	-9.653504	-1.146018	-1.369981	0.002910	0.151581	0.003492	0.327611	0.605988	0.440083	-0.576000
48528	-9.685464	-1.303871	-1.146059	-0.231004	0.007717	0.024401	0.327685	0.605856	0.440250	-0.575970
48529	-9.695239	-1.330454	-1.284380	-0.195209	0.141628	0.054391	0.327718	0.605734	0.440318	-0.576026
48530	-9.791354	-1.340219	-1.206760	-0.228970	0.062367	0.140541	0.327614	0.605695	0.440134	-0.576268
48531	-9.682462	-1.278486	-1.354692	-0.112621	0.193253	0.044784	0.327333	0.605732	0.439605	-0.576792
48532	-9.709308	-1.209281	-1.254716	-0.085969	0.077283	0.051083	0.327022	0.605851	0.439075	-0.577247
48533	-9.675087	-1.060810	-1.236293	0.042406	0.011286	-0.001514	0.326799	0.605923	0.438613	-0.577649
48534	-9.692680	-1.017871	-1.308310	0.114801	0.060536	0.019857	0.326580	0.606040	0.438191	-0.577971
48535	-9.696822	-1.037856	-1.196630	0.051990	-0.026827	0.012484	0.326304	0.606178	0.437574	-0.578449
48536	-9.701617	-1.159406	-1.352039	0.010620	0.169334	0.049605	0.326146	0.606223	0.437027	-0.578904
48537	-9.699472	-1.174580	-1.297111	-0.023282	0.134999	0.042419	0.326035	0.606214	0.436500	-0.579373
48538	-9.674998	-1.226320	-1.303045	-0.065692	0.174072	0.024627	0.325931	0.606229	0.435980	-0.579807
48539	-9.737155	-1.248720	-1.288340	-0.086508	0.168748	0.086573	0.325720	0.606344	0.435357	-0.580274
48540	-9.679371	-1.242392	-1.441183	-0.015375	0.320054	0.046729	0.325340	0.606530	0.434602	-0.580858
48541	-9.637377	-1.163937	-1.405694	0.041291	0.268894	-0.007803	0.325029	0.606700	0.433996	-0.581307
48542	-9.553290	-1.032425	-1.386133	0.149342	0.214195	-0.107821	0.324764	0.606859	0.433509	-0.581653
48543	-9.650170	-0.891234	-1.385473	0.281748	0.141555	-0.027995	0.324439	0.607134	0.433131	-0.581829
48544	-9.692770	-0.902966	-1.296733	0.234408	0.061770	0.005046	0.324284	0.607297	0.432779	-0.582007
48545	-9.663835	-0.996759	-1.224898	0.117752	0.044252	-0.021478	0.324117	0.607388	0.432456	-0.582246
48546	-9.649634	-1.017377	-1.225219	0.099856	0.057845	-0.033202	0.323967	0.607455	0.432230	-0.582427
48547	-9.682742	-1.035550	-1.263604	0.103573	0.095888	0.005899	0.323741	0.607526	0.432054	-0.582608
48548	-9.696351	-0.950127	-1.144604	0.130861	-0.048594	-0.003885	0.323606	0.607583	0.431964	-0.582692
48549	-9.711459	-0.949716	-1.217388	0.163962	0.013938	0.019370	0.323675	0.607546	0.432006	-0.582660
48550	-9.671695	-1.095720	-1.234642	0.038213	0.098348	-0.001699	0.323807	0.607447	0.432037	-0.582667
48551	-9.671343	-1.249338	-1.380053	-0.035803	0.295991	0.031670	0.323788	0.607417	0.431866	-0.582835
48552	-9.651983	-1.273014	-1.402963	-0.045742	0.333530	0.017689	0.323637	0.607426	0.431524	-0.583164
48553	-9.650155	-1.241311	-1.392902	-0.019546	0.314961	0.011107	0.323503	0.607496	0.431279	-0.583347
48554	-9.598834	-1.186690	-1.307633	-0.009490	0.224537	-0.055370	0.323267	0.607658	0.431044	-0.583482
48555	-9.608089	-1.142765	-1.366879	0.056652	0.256982	-0.044351	0.322939	0.607899	0.430735	-0.583641
48556	-9.585305	-1.161197	-1.351966	0.032556	0.253708	-0.066465	0.322587	0.608156	0.430479	-0.583756
48557	-9.691439	-1.109434	-1.304972	0.063870	0.171328	0.027249	0.322359	0.608297	0.430416	-0.583782
48558	-9.718970	-1.116524	-1.259799	0.039274	0.127740	0.050083	0.322246	0.608364	0.430408	-0.583781
48559	-9.734002	-1.128993	-1.185174	-0.004381	0.062225	0.057782	0.322269	0.608375	0.430548	-0.583653
48560	-9.726299	-1.272351	-1.168976	-0.141756	0.108319	0.064278	0.322261	0.608444	0.430570	-0.583569
48561	-9.721927	-1.254453	-1.196198	-0.114276	0.125474	0.061096	0.322074	0.608549	0.430334	-0.583737
48562	-9.708131	-1.235059	-1.122744	-0.127945	0.055918	0.036893	0.321664	0.608740	0.429852	-0.584119
48563	-9.677810	-1.151003	-1.121604	-0.052142	0.026756	-0.002520	0.321321	0.608920	0.429338	-0.584498
48564	-9.642704	-1.090006	-1.221251	0.047013	0.098083	-0.032632	0.320959	0.609112	0.428824	-0.584875
48565	-9.614092	-1.120204	-1.371988	0.088025	0.253456	-0.040483	0.320596	0.609296	0.428246	-0.585305
48566	-9.613546	-1.141242	-1.365178	0.068316	0.259871	-0.039550	0.320381	0.609408	0.427951	-0.585522
48567	-9.555167	-1.162164	-1.226816	-0.014133	0.155096	-0.110489	0.320179	0.609535	0.427844	-0.585578
48568	-9.641214	-1.044901	-1.097101	0.036723	-0.026685	-0.053261	0.319981	0.609694	0.427841	-0.585523
48569	-9.745665	-1.054511	-1.122898	0.044205	-0.019383	0.053850	0.319618	0.609953	0.427702	-0.585553
48570	-9.748794	-1.067783	-1.132554	0.037376	-0.007865	0.059514	0.319314	0.610102	0.427479	-0.585727
48571	-9.689773	-1.119766	-1.217010	0.027425	0.098538	0.016668	0.319088	0.610206	0.427275	-0.585890
48572	-9.747171	-1.157835	-1.162324	-0.027149	0.058896	0.071377	0.318970	0.610266	0.427096	-0.586023
48573	-9.692929	-1.136953	-1.106967	-0.035388	0.010810	0.009203	0.318931	0.610282	0.426933	-0.586146
48574	-9.668878	-1.143109	-1.159210	-0.017745	0.065728	-0.007942	0.318794	0.610351	0.426690	-0.586326
48575	-9.667658	-1.080106	-1.304377	0.104768	0.168683	0.000172	0.318579	0.610476	0.426403	-0.586522
48576	-9.698864	-0.909461	-1.192824	0.208858	-0.009358	-0.000746	0.318387	0.610586	0.426253	-0.586620
48577	-9.700224	-0.962805	-1.194678	0.162804	0.015316	0.006775	0.318282	0.610639	0.426155	-0.586692
48578	-9.684940	-1.103069	-1.154331	0.019220	0.044487	0.002859	0.318311	0.610619	0.426105	-0.586734
48579	-9.673865	-1.176824	-1.235543	-0.009701	0.152832	0.009313	0.318444	0.610496	0.426081	-0.586808
48580	-9.657443	-1.139205	-1.268751	0.039203	0.170553	-0.007429	0.318408	0.610469	0.425997	-0.586916
48581	-9.637512	-1.074419	-1.183756	0.058645	0.070969	-0.043920	0.318294	0.610516	0.425864	-0.587026
48582	-9.654804	-1.044739	-1.112878	0.054278	-0.007788	-0.038118	0.318189	0.610588	0.425842	-0.587023
48583	-9.630298	-1.051545	-1.169019	0.071908	0.047152	-0.055250	0.318256	0.610571	0.425965	-0.586916
48584	-9.649310	-0.996934	-1.216964	0.142952	0.060805	-0.037212	0.318245	0.610543	0.426115	-0.586842
48585	-9.718409	-0.982513	-1.156675	0.132595	-0.010917	0.022607	0.318303	0.610460	0.426264	-0.586788
48586	-9.695323	-1.043247	-1.213293	0.104220	0.068895	0.013000	0.318270	0.610398	0.426311	-0.586837
48587	-9.665516	-1.064803	-1.141927	0.053161	0.019691	-0.022039	0.318344	0.610257	0.426460	-0.586834
48588	-9.663258	-1.107116	-1.135817	0.013835	0.032671	-0.020186	0.318545	0.610077	0.426767	-0.586690
48589	-9.654749	-1.120551	-1.229749	0.043714	0.121256	-0.016490	0.318857	0.609855	0.427225	-0.586417
48590	-9.645856	-1.070861	-1.175906	0.062582	0.050235	-0.036921	0.319161	0.609651	0.427725	-0.586100
48591	-9.616586	-1.060612	-1.261937	0.107727	0.122570	-0.057203	0.319369	0.609521	0.428181	-0.585789
48592	-9.634849	-1.058774	-1.235611	0.097823	0.091213	-0.042315	0.319532	0.609374	0.428634	-0.585521
48593	-9.689064	-1.165515	-1.141759	-0.036419	0.042179	0.012632	0.319621	0.609258	0.428956	-0.585358
48594	-9.701271	-1.234894	-1.173713	-0.083117	0.095380	0.036232	0.319876	0.609034	0.429446	-0.585093
48595	-9.718483	-1.253937	-1.144213	-0.112636	0.070592	0.052039	0.320132	0.608843	0.429979	-0.584759
48596	-9.718913	-1.161336	-1.150612	-0.027565	0.032332	0.042670	0.320318	0.608713	0.430332	-0.584534
48597	-9.691676	-1.161841	-1.163811	-0.024054	0.046442	0.017377	0.320468	0.608612	0.430542	-0.584402
48598	-9.651602	-1.182467	-1.258008	-0.003477	0.144245	-0.008942	0.320651	0.608496	0.430769	-0.584255
48599	-9.689519	-1.150319	-1.237006	0.017328	0.104239	0.022405	0.320740	0.608445	0.430985	-0.584099
48600	-9.689812	-1.110008	-1.165665	0.021581	0.020929	0.009860	0.320869	0.608339	0.431273	-0.583926
48601	-9.716547	-1.110184	-1.156076	0.017812	0.006362	0.035153	0.321183	0.608160	0.431636	-0.583673
48602	-9.661946	-1.150183	-1.253219	0.020555	0.117911	-0.002879	0.321529	0.607953	0.431933	-0.583478
48603	-9.652334	-1.207379	-1.305194	-0.009708	0.190543	0.000184	0.321845	0.607773	0.432190	-0.583300
48604	-9.725799	-1.250271	-1.289250	-0.051979	0.184457	0.075679	0.322077	0.607607	0.432317	-0.583251
48605	-9.644420	-1.255403	-1.208617	-0.096984	0.128209	-0.013413	0.322243	0.607565	0.432418	-0.583128
48606	-9.607948	-1.286122	-1.310937	-0.083194	0.237707	-0.034042	0.322360	0.607515	0.432555	-0.583014
48607	-9.615623	-1.240777	-1.293257	-0.052011	0.200321	-0.033658	0.322635	0.607454	0.432802	-0.582743
48608	-9.656657	-1.158623	-1.392193	0.063720	0.246243	0.009071	0.322819	0.607449	0.432944	-0.582540
48609	-9.680823	-1.104230	-1.300697	0.071126	0.136876	0.016132	0.322881	0.607524	0.432947	-0.582425
48610	-9.665629	-1.228966	-1.153513	-0.108547	0.060196	-0.001982	0.323158	0.607442	0.433127	-0.582224
48611	-9.673108	-1.296475	-1.208604	-0.147360	0.137325	0.019404	0.323492	0.607294	0.433317	-0.582051
48612	-9.683392	-1.243232	-1.381538	-0.025655	0.269027	0.043748	0.323562	0.607305	0.433269	-0.582037
48613	-9.695210	-1.195557	-1.258277	-0.037185	0.137688	0.035631	0.323574	0.607393	0.433180	-0.582004
48614	-9.641556	-1.192887	-1.281322	-0.030099	0.166153	-0.014940	0.323692	0.607453	0.433111	-0.581927
48615	-9.608620	-1.186154	-1.352404	0.002110	0.233399	-0.039917	0.323947	0.607407	0.433149	-0.581805
48616	-9.644702	-1.105242	-1.472019	0.125711	0.303361	0.000612	0.324139	0.607407	0.433032	-0.581786
48617	-9.645726	-1.088055	-1.358660	0.089582	0.197477	-0.013563	0.324287	0.607431	0.432945	-0.581743
48618	-9.637184	-1.162712	-1.486752	0.074489	0.346594	0.001179	0.324524	0.607402	0.432986	-0.581610
48619	-9.615265	-1.077272	-1.247604	0.044151	0.100623	-0.057777	0.324571	0.607481	0.432967	-0.581515
48620	-9.677843	-1.097617	-1.321457	0.058134	0.165073	0.014878	0.324746	0.607471	0.433084	-0.581341
48621	-9.659256	-1.110712	-1.203792	-0.008646	0.067793	-0.015782	0.325028	0.607432	0.433237	-0.581110
48622	-9.685108	-1.141645	-1.302076	0.003975	0.165402	0.024624	0.325174	0.607445	0.433206	-0.581038
48623	-9.679254	-1.134969	-1.360744	0.032577	0.218303	0.024946	0.325340	0.607450	0.433088	-0.581027
48624	-9.673619	-1.168787	-1.231025	-0.055657	0.120395	0.007842	0.325306	0.607535	0.432833	-0.581148
48625	-9.661238	-1.099435	-1.198233	-0.009112	0.066862	-0.015776	0.325264	0.607661	0.432534	-0.581262
48626	-9.638085	-1.121434	-1.327914	0.023589	0.198332	-0.021173	0.325318	0.607785	0.432314	-0.581266
48627	-9.626296	-1.070403	-1.372933	0.085327	0.221310	-0.033116	0.325409	0.607877	0.432132	-0.581254
48628	-9.688271	-1.022951	-1.328886	0.109343	0.155255	0.017822	0.325475	0.607947	0.431931	-0.581294
48629	-9.715983	-1.032896	-1.165598	0.029256	0.012400	0.027272	0.325514	0.608010	0.431703	-0.581375
48630	-9.715312	-1.117503	-1.196110	-0.035369	0.079215	0.039178	0.325634	0.608025	0.431506	-0.581438
48631	-9.618830	-1.176119	-1.225338	-0.081752	0.148896	-0.046534	0.325683	0.608106	0.431202	-0.581551
48632	-9.630257	-1.207421	-1.247059	-0.102162	0.183765	-0.029505	0.325545	0.608352	0.430751	-0.581706
48633	-9.730368	-1.033798	-1.181386	0.028155	0.040013	0.043380	0.325428	0.608532	0.430347	-0.581882
48634	-9.711446	-0.986541	-1.170649	0.063000	0.017036	0.018468	0.325521	0.608614	0.430081	-0.581941
48635	-9.743521	-1.040647	-1.202545	0.027294	0.068078	0.059489	0.325671	0.608627	0.429874	-0.581997
48636	-9.725444	-1.107137	-1.264610	-0.007977	0.159529	0.055632	0.325726	0.608683	0.429531	-0.582160
48637	-9.692353	-1.080138	-1.255562	0.009031	0.150297	0.019005	0.325798	0.608775	0.429183	-0.582281
48638	-9.648583	-1.099333	-1.369607	0.037372	0.272162	-0.009421	0.325832	0.608886	0.428783	-0.582441
48639	-9.643066	-1.036567	-1.241557	0.034537	0.136325	-0.035935	0.325936	0.609023	0.428522	-0.582431
48640	-9.624840	-0.967180	-1.235630	0.089056	0.106777	-0.061768	0.326041	0.609177	0.428308	-0.582368
48641	-9.733856	-0.941286	-1.192062	0.094167	0.042558	0.038419	0.326039	0.609318	0.428122	-0.582358
48642	-9.652509	-0.985836	-1.185866	0.044841	0.069399	-0.038115	0.326146	0.609405	0.427989	-0.582306
48643	-9.656387	-0.927122	-1.157713	0.082863	0.020416	-0.043431	0.326178	0.609475	0.427838	-0.582325
48644	-9.662965	-0.901528	-1.134385	0.094476	-0.010338	-0.042148	0.326075	0.609614	0.427551	-0.582448
48645	-9.712483	-0.840147	-1.063809	0.119233	-0.104898	-0.007350	0.326096	0.609700	0.427389	-0.582465
48646	-9.728145	-0.837176	-1.136574	0.152087	-0.042315	0.016074	0.326235	0.609726	0.427378	-0.582368
48647	-9.751642	-0.848709	-1.079177	0.114774	-0.091194	0.034036	0.326486	0.609680	0.427484	-0.582198
48648	-9.795660	-0.932795	-1.251520	0.114229	0.094021	0.105451	0.326729	0.609589	0.427495	-0.582149
48649	-9.721280	-0.969595	-1.330877	0.112502	0.195966	0.044471	0.326665	0.609635	0.427071	-0.582448
48650	-9.568876	-1.052420	-1.298926	0.018892	0.230969	-0.101638	0.326596	0.609680	0.426668	-0.582735
48651	-9.474615	-1.099073	-1.294362	-0.028647	0.265003	-0.190806	0.326525	0.609789	0.426358	-0.582887
48652	-9.609034	-1.001392	-1.239005	0.038584	0.155117	-0.073801	0.326409	0.609989	0.426239	-0.582830
48653	-9.700930	-0.945974	-1.198965	0.071950	0.079825	0.007134	0.326155	0.610265	0.426081	-0.582799
48654	-9.732359	-0.875394	-1.130885	0.105314	-0.019221	0.023600	0.325783	0.610522	0.425906	-0.582866
48655	-9.692087	-0.842073	-1.042038	0.094416	-0.110089	-0.029516	0.325372	0.610790	0.425654	-0.582998
48656	-9.695573	-0.752498	-0.908682	0.116337	-0.271303	-0.050057	0.324934	0.611046	0.425461	-0.583115
48657	-9.758628	-0.751849	-0.726363	0.037854	-0.447443	-0.008501	0.324742	0.611254	0.425503	-0.582974
48658	-9.839260	-0.754119	-0.958166	0.138991	-0.256742	0.097538	0.324707	0.611395	0.425597	-0.582776
48659	-9.821376	-0.845137	-1.103485	0.118723	-0.088779	0.105447	0.324710	0.611456	0.425691	-0.582643
48660	-9.718161	-0.932429	-1.159220	0.060538	0.011482	0.018491	0.324602	0.611498	0.425717	-0.582639
48661	-9.616142	-0.870921	-1.111331	0.091127	-0.044780	-0.093971	0.324421	0.611575	0.425693	-0.582677
48662	-9.621416	-0.937211	-1.123297	0.038210	-0.008570	-0.080767	0.324315	0.611593	0.425787	-0.582648
48663	-9.640399	-1.070740	-1.164235	-0.061505	0.080861	-0.043916	0.324150	0.611656	0.425746	-0.582703
48664	-9.706508	-1.107009	-1.246073	-0.054446	0.156936	0.034489	0.323834	0.611860	0.425664	-0.582726
48665	-9.808067	-1.057357	-1.304757	0.019668	0.168537	0.136674	0.323556	0.612085	0.425581	-0.582705
48666	-9.726835	-1.059698	-1.341106	0.030332	0.211538	0.060872	0.323321	0.612237	0.425384	-0.582819
48667	-9.653078	-1.044317	-1.317972	0.032001	0.194779	-0.016229	0.323006	0.612395	0.425127	-0.583015
48668	-9.547090	-1.032674	-1.329839	0.045163	0.216441	-0.120787	0.322781	0.612507	0.424863	-0.583215
48669	-9.607614	-1.101699	-1.281239	-0.035706	0.194704	-0.059617	0.322762	0.612569	0.424851	-0.583168
48670	-9.660880	-1.214092	-1.253716	-0.148003	0.210014	0.001201	0.322636	0.612746	0.424770	-0.583112
48671	-9.716730	-1.125322	-1.280995	-0.055996	0.184121	0.050633	0.322467	0.612906	0.424777	-0.583032
48672	-9.788283	-1.142475	-1.227490	-0.092614	0.130427	0.116909	0.322203	0.613038	0.424690	-0.583103
48673	-9.781429	-1.032470	-1.180717	-0.014507	0.039989	0.093606	0.321927	0.613187	0.424516	-0.583224
48674	-9.801079	-0.982947	-1.190659	0.035732	0.024731	0.109163	0.321816	0.613256	0.424270	-0.583392
48675	-9.716165	-0.965696	-1.248989	0.073909	0.085209	0.030264	0.322012	0.613185	0.424129	-0.583461
48676	-9.627612	-1.107088	-1.474924	0.044948	0.367055	-0.017014	0.322364	0.613002	0.423991	-0.583560
48677	-9.306101	-1.197648	-1.342214	-0.109294	0.343176	-0.341167	0.322536	0.613019	0.423744	-0.583626
48678	-10.250479	-0.538894	-0.828010	0.279631	-0.541562	0.467237	0.323441	0.612694	0.424814	-0.582688
48679	-9.203225	-1.337524	-2.545644	0.295674	1.491950	-0.291383	0.322383	0.613233	0.422748	-0.584208
48680	-9.772837	-1.616863	-1.341802	-0.467100	0.478392	0.161077	0.322859	0.612959	0.422783	-0.584206
48681	-9.555490	-1.691648	-1.566927	-0.441014	0.747732	-0.021327	0.323018	0.612836	0.422722	-0.584293
48682	-9.642024	-1.260696	-1.379592	-0.135407	0.381528	0.000434	0.322315	0.613230	0.422094	-0.584721
48683	-9.681453	-0.943778	-1.263678	0.099154	0.134346	-0.005024	0.321859	0.613471	0.421537	-0.585121
48684	-9.622601	-0.974890	-1.270562	0.073746	0.164294	-0.059392	0.321302	0.613878	0.420909	-0.585452
48685	-9.679082	-0.849097	-1.188152	0.149715	0.026216	-0.025236	0.320689	0.614373	0.420354	-0.585669
48686	-9.730059	-0.726350	-1.132130	0.233551	-0.087853	0.006737	0.320489	0.614580	0.420197	-0.585673
48687	-9.764130	-0.730768	-1.026323	0.180609	-0.184841	0.029000	0.320758	0.614491	0.420360	-0.585503
48688	-9.735507	-0.833498	-1.100108	0.120460	-0.068094	0.019195	0.321008	0.614361	0.420444	-0.585441
48689	-9.733491	-0.901931	-0.939162	-0.014610	-0.177207	0.005904	0.321123	0.614326	0.420421	-0.585431
48690	-9.717544	-0.885396	-1.050699	0.049199	-0.082638	0.001043	0.321102	0.614413	0.420306	-0.585435
48691	-9.715731	-0.742749	-1.017978	0.159865	-0.174364	-0.018433	0.321070	0.614476	0.420193	-0.585466
48692	-9.663254	-0.764770	-1.115696	0.181929	-0.069203	-0.057164	0.321249	0.614418	0.420195	-0.585427
48693	-9.677572	-0.830150	-1.143001	0.134988	-0.016230	-0.033499	0.321617	0.614265	0.420424	-0.585222
48694	-9.648659	-0.889957	-1.144943	0.079541	0.017514	-0.056002	0.322128	0.613989	0.420823	-0.584944
48695	-9.681982	-0.880434	-1.223981	0.123305	0.078119	-0.015098	0.322317	0.613916	0.421061	-0.584744
48696	-9.705371	-0.918563	-1.129155	0.045725	0.006455	0.001121	0.322514	0.613826	0.421293	-0.584563
48697	-9.714832	-0.993969	-1.148622	-0.014049	0.054230	0.020020	0.322868	0.613655	0.421697	-0.584256
48698	-9.699941	-1.050879	-1.261935	-0.015995	0.179965	0.023625	0.323079	0.613550	0.421987	-0.584041
48699	-9.748813	-0.901741	-1.163790	0.073671	0.018624	0.046376	0.323115	0.613533	0.422084	-0.583968
48700	-9.730056	-0.904361	-1.194607	0.083167	0.049665	0.031578	0.323585	0.613299	0.422439	-0.583697
48701	-9.718463	-0.991893	-1.311087	0.054729	0.193582	0.041797	0.324136	0.612981	0.422952	-0.583354
48702	-9.666367	-0.966086	-1.452763	0.136708	0.314968	0.003860	0.324459	0.612864	0.423256	-0.583077
48703	-9.633679	-0.962225	-1.229905	0.036413	0.119002	-0.054059	0.324646	0.612850	0.423431	-0.582861
48704	-9.586537	-1.031185	-1.230253	-0.030130	0.154711	-0.093957	0.325155	0.612630	0.423930	-0.582445
48705	-9.623690	-0.996312	-1.211567	-0.009159	0.114756	-0.062678	0.325533	0.612449	0.424470	-0.582030
48706	-9.717676	-0.931756	-1.106837	0.002613	-0.025372	0.012069	0.325633	0.612483	0.424872	-0.581646
48707	-9.724295	-0.840566	-1.135780	0.093996	-0.046374	0.013170	0.325798	0.612487	0.425266	-0.581261
48708	-9.780551	-0.869966	-1.124287	0.060318	-0.057223	0.070284	0.326219	0.612379	0.425801	-0.580747
48709	-9.700852	-0.813531	-1.057165	0.074656	-0.132880	-0.021736	0.326529	0.612276	0.426137	-0.580434
48710	-9.681021	-0.736539	-1.204550	0.205191	-0.033644	-0.031463	0.326917	0.612089	0.426577	-0.580090
48711	-9.760489	-0.800332	-1.129626	0.114779	-0.086806	0.044443	0.327483	0.611837	0.427176	-0.579596
48712	-9.760820	-0.865570	-1.167765	0.069594	-0.026609	0.055491	0.328088	0.611498	0.427785	-0.579162
48713	-9.721568	-1.140383	-1.214142	-0.160707	0.136801	0.048295	0.328453	0.611265	0.428137	-0.578940
48714	-9.625327	-1.243857	-1.319637	-0.212011	0.289553	-0.024595	0.328647	0.611117	0.428281	-0.578880
48715	-9.677027	-1.176545	-1.442426	-0.097243	0.364386	0.034519	0.329133	0.610822	0.428651	-0.578641
48716	-9.621966	-1.216281	-1.459953	-0.129496	0.405985	-0.014145	0.329519	0.610629	0.428929	-0.578420
48717	-9.613302	-1.118293	-1.443378	-0.050230	0.351384	-0.033960	0.329607	0.610603	0.428999	-0.578345
48718	-9.665898	-1.057296	-1.531019	0.043860	0.397061	0.022550	0.329554	0.610659	0.428844	-0.578431
48719	-9.710078	-1.127229	-1.330474	-0.104256	0.242131	0.049205	0.329398	0.610815	0.428556	-0.578570
48720	-9.597545	-1.171986	-1.472563	-0.087014	0.406678	-0.041203	0.329204	0.610945	0.428227	-0.578786
48721	-9.641918	-1.067870	-1.466666	0.005772	0.352441	-0.007903	0.329048	0.611123	0.427968	-0.578878
48722	-9.704142	-0.966989	-1.317670	0.033780	0.167697	0.026643	0.328525	0.611529	0.427404	-0.579163
48723	-9.681537	-0.931564	-1.376809	0.090448	0.209838	0.007871	0.328210	0.611796	0.426901	-0.579430
48724	-9.659081	-0.981307	-1.207121	-0.029011	0.084444	-0.029539	0.327721	0.612167	0.426332	-0.579734
48725	-9.650097	-0.946590	-1.258671	0.025861	0.119390	-0.035687	0.327365	0.612331	0.425797	-0.580154
48726	-9.645582	-0.903642	-1.320355	0.093580	0.159535	-0.037057	0.326971	0.612568	0.425322	-0.580475
48727	-9.688091	-0.826817	-1.198837	0.111620	0.012537	-0.016395	0.326492	0.612893	0.424867	-0.580736
48728	-9.636922	-0.834885	-1.264764	0.132557	0.082070	-0.058580	0.326222	0.613049	0.424581	-0.580932
48729	-9.704191	-0.922491	-1.267738	0.058731	0.112562	0.016522	0.325989	0.613158	0.424448	-0.581044
48730	-9.718154	-0.888346	-1.152884	0.041035	-0.007088	0.013761	0.325682	0.613253	0.424251	-0.581260
48731	-9.688390	-0.901565	-1.231326	0.066178	0.072073	-0.005327	0.325317	0.613351	0.424066	-0.581496
48732	-9.721180	-0.968989	-1.228380	0.009539	0.093714	0.033140	0.325010	0.613388	0.423881	-0.581763
48733	-9.705419	-0.920249	-1.229254	0.057394	0.076143	0.012993	0.324736	0.613394	0.423711	-0.582034
48734	-9.705847	-0.965051	-1.299406	0.052507	0.159005	0.025768	0.324416	0.613489	0.423413	-0.582329
48735	-9.697167	-1.083074	-1.156308	-0.113873	0.086604	0.012010	0.324021	0.613643	0.423001	-0.582687
48736	-9.700809	-1.054894	-1.086621	-0.115919	0.015028	0.004928	0.323663	0.613732	0.422547	-0.583121
48737	-9.709612	-0.987452	-1.180653	-0.009701	0.070731	0.017901	0.323356	0.613853	0.422167	-0.583439
48738	-9.624162	-0.931338	-1.166113	0.033227	0.048430	-0.073680	0.323085	0.613974	0.421756	-0.583759
48739	-9.673736	-0.913570	-1.167344	0.053476	0.037033	-0.026256	0.322727	0.614153	0.421340	-0.584068
48740	-9.737368	-0.875226	-1.166733	0.091607	0.011916	0.032874	0.322459	0.614269	0.421036	-0.584313
48741	-9.757700	-0.830878	-1.141389	0.121251	-0.032425	0.045815	0.322396	0.614319	0.420969	-0.584344
48742	-9.670414	-0.814608	-1.124892	0.124879	-0.041794	-0.043935	0.322505	0.614263	0.421083	-0.584261
48743	-9.699111	-0.727042	-1.162847	0.220488	-0.052963	-0.019724	0.322495	0.614280	0.421251	-0.584127
48744	-9.749111	-0.651944	-1.065483	0.244657	-0.183113	0.011368	0.322519	0.614257	0.421502	-0.583957
48745	-9.711909	-0.869008	-1.117141	0.073137	-0.039273	0.001458	0.322773	0.614050	0.421976	-0.583692
48746	-9.728921	-1.012377	-1.225381	-0.005254	0.114736	0.044552	0.323049	0.613834	0.422403	-0.583458
48747	-9.669630	-1.053531	-1.085732	-0.106421	0.016139	-0.026018	0.323271	0.613616	0.422751	-0.583311
48748	-9.621286	-0.892463	-1.135099	0.057962	-0.006790	-0.083829	0.323376	0.613548	0.423117	-0.583060
48749	-9.703148	-0.762537	-1.079959	0.151346	-0.129870	-0.021923	0.323334	0.613585	0.423405	-0.582835
48750	-9.723592	-0.829651	-1.167334	0.130961	-0.030929	0.014882	0.323353	0.613535	0.423694	-0.582667
48751	-9.743364	-0.900888	-1.138929	0.055479	-0.031360	0.038091	0.323504	0.613401	0.424048	-0.582467
48752	-9.752916	-0.890323	-1.126259	0.060410	-0.050370	0.045016	0.323646	0.613228	0.424288	-0.582395
48753	-9.747213	-0.966971	-1.069766	-0.032137	-0.065557	0.040346	0.323730	0.613120	0.424320	-0.582439
48754	-9.713824	-1.053989	-1.170775	-0.065105	0.068688	0.027588	0.323674	0.613140	0.424181	-0.582550
48755	-9.671491	-1.002488	-1.183899	-0.013689	0.065683	-0.017799	0.323463	0.613242	0.423921	-0.582750
48756	-9.635506	-0.986103	-1.360228	0.080067	0.221000	-0.034633	0.323191	0.613368	0.423685	-0.582940
48757	-9.649426	-0.924709	-1.283917	0.102736	0.124170	-0.035725	0.322994	0.613455	0.423554	-0.583052
48758	-9.646593	-0.919750	-1.240257	0.088860	0.083154	-0.044058	0.322902	0.613451	0.423550	-0.583110
48759	-9.680196	-0.990533	-1.202422	0.011606	0.075493	-0.008233	0.322869	0.613389	0.423587	-0.583167
48760	-9.688003	-1.109426	-1.213504	-0.087638	0.136059	0.012516	0.322741	0.613414	0.423551	-0.583238
48761	-9.638457	-1.129781	-1.209168	-0.108065	0.147143	-0.034906	0.322398	0.613583	0.423373	-0.583379
48762	-9.668213	-1.075007	-1.173092	-0.073324	0.083991	-0.015050	0.322108	0.613758	0.423306	-0.583403
48763	-9.634877	-1.013404	-1.178064	-0.016870	0.062100	-0.053511	0.321752	0.613958	0.423244	-0.583434
48764	-9.691016	-0.890184	-1.098898	0.059571	-0.075716	-0.019500	0.321473	0.614145	0.423285	-0.583362
48765	-9.771681	-0.941646	-0.991330	-0.031783	-0.164804	0.052758	0.321302	0.614214	0.423356	-0.583331
48766	-9.684217	-1.012267	-1.121845	-0.038019	-0.008081	-0.011372	0.321197	0.614210	0.423453	-0.583324
48767	-9.690831	-1.012856	-1.177580	-0.011457	0.037835	0.001752	0.320998	0.614250	0.423498	-0.583359
48768	-9.636933	-0.928613	-1.171186	0.060460	-0.000027	-0.060722	0.320861	0.614257	0.423626	-0.583333
48769	-9.696673	-0.931850	-1.091562	0.024855	-0.082343	-0.010753	0.320805	0.614245	0.423918	-0.583165
48770	-9.702230	-1.021006	-1.181725	-0.013528	0.030269	0.014371	0.320843	0.614177	0.424332	-0.582914
48771	-9.760670	-1.061022	-1.212288	-0.033464	0.060229	0.079801	0.320978	0.614058	0.424818	-0.582611
48772	-9.664396	-1.102207	-1.363581	-0.005512	0.222952	0.006937	0.321098	0.613897	0.425127	-0.582489
48773	-9.593268	-1.187296	-1.381146	-0.075404	0.284705	-0.052499	0.321137	0.613824	0.425308	-0.582412
48774	-9.580586	-1.262145	-1.386633	-0.139613	0.322752	-0.056677	0.321100	0.613808	0.425380	-0.582397
48775	-9.623490	-1.294738	-1.375748	-0.171568	0.319021	-0.012209	0.320921	0.613927	0.425341	-0.582399
48776	-9.697855	-1.343654	-1.327439	-0.234465	0.283208	0.060544	0.320734	0.614080	0.425354	-0.582331
48777	-9.787086	-1.325039	-1.319068	-0.219563	0.250081	0.145825	0.320705	0.614157	0.425490	-0.582167
48778	-9.744057	-1.273269	-1.338566	-0.168139	0.247105	0.100449	0.320591	0.614303	0.425566	-0.582020
