// General information: 
//  MT Manager version: 2021.0.0 
//  XDA version: 2021.0.0 build 5908 rev 109668 built on 2021-04-19
// Device information: 
//  DeviceId: 00B43DF3
//  ProductCode: MTW2-3A7G6
//  Firmware Version: 4.3.5
//  Hardware Version: 1.1.0
// Device settings: 
//  Filter Profile: human(46.1)
//  Option Flags: Orientation Smoother Disabled, Position/Velocity Smoother Disabled, Continuous Zero Rotation Update Disabled, AHS Disabled, ICC Disabled
// Coordinate system: ENU
PacketCounter	Acc_X	Acc_Y	Acc_Z	FreeAcc_E	FreeAcc_N	FreeAcc_U	Quat_q0	Quat_q1	Quat_q2	Quat_q3
47597	9.699223	0.483021	-0.054267	-0.119294	0.061758	-0.102222	-0.482751	0.485501	0.524911	0.505677
47598	9.674014	0.463855	-0.057476	-0.139319	0.062331	-0.128592	-0.482525	0.485600	0.525089	0.505612
47599	9.710404	0.503202	-0.068151	-0.104301	0.059130	-0.089754	-0.482309	0.485706	0.525322	0.505475
47600	9.767755	0.485890	-0.095448	-0.126426	0.039000	-0.033284	-0.482140	0.485780	0.525598	0.505278
47601	9.792597	0.488799	-0.075680	-0.127139	0.065516	-0.008650	-0.482030	0.485812	0.525848	0.505092
47602	9.787934	0.514885	-0.095058	-0.101983	0.052243	-0.011429	-0.481941	0.485801	0.526119	0.504905
47603	9.753360	0.507339	-0.074249	-0.109650	0.077814	-0.046784	-0.481859	0.485783	0.526410	0.504697
47604	9.744263	0.498032	-0.094857	-0.119688	0.062385	-0.056178	-0.481804	0.485734	0.526728	0.504465
47605	9.700491	0.540916	-0.103479	-0.075868	0.060524	-0.097061	-0.481747	0.485676	0.527131	0.504154
47606	9.741413	0.554878	-0.101270	-0.066614	0.071049	-0.055445	-0.481684	0.485628	0.527544	0.503829
47607	9.761731	0.601727	-0.123915	-0.022028	0.057648	-0.031838	-0.481644	0.485610	0.527934	0.503475
47608	9.775336	0.606069	-0.127201	-0.019342	0.061450	-0.017968	-0.481608	0.485599	0.528224	0.503215
47609	9.766208	0.595810	-0.148057	-0.029386	0.046020	-0.027355	-0.481513	0.485628	0.528488	0.503003
47610	9.777472	0.612861	-0.157886	-0.013830	0.042966	-0.014859	-0.481399	0.485694	0.528725	0.502798
47611	9.793401	0.623175	-0.179967	-0.004451	0.027415	0.002131	-0.481291	0.485789	0.528910	0.502615
47612	9.793351	0.622631	-0.184491	-0.005047	0.027850	0.002129	-0.481180	0.485890	0.529024	0.502504
47613	9.795627	0.628053	-0.207805	0.001050	0.008928	0.005248	-0.481088	0.486009	0.529110	0.502388
47614	9.775039	0.622582	-0.181116	-0.003342	0.037846	-0.016241	-0.481014	0.486110	0.529094	0.502377
47615	9.720231	0.589538	-0.100564	-0.034362	0.118084	-0.074853	-0.480932	0.486241	0.529073	0.502350
47616	9.765902	0.617175	-0.065871	-0.009521	0.156997	-0.028346	-0.480829	0.486421	0.529045	0.502304
47617	9.766334	0.550441	-0.121714	-0.073295	0.101902	-0.030902	-0.480681	0.486629	0.528968	0.502325
47618	9.764198	0.523399	-0.077224	-0.100164	0.147893	-0.035798	-0.480587	0.486792	0.528925	0.502302
47619	9.819004	0.576015	-0.121113	-0.048555	0.109399	0.023215	-0.480578	0.486882	0.528990	0.502156
47620	9.839735	0.574027	-0.218612	-0.047600	0.014278	0.046076	-0.480638	0.486906	0.529002	0.502062
47621	9.675348	0.506519	-0.159908	-0.104737	0.067496	-0.123572	-0.480693	0.486909	0.528974	0.502037
47622	9.663902	0.530083	-0.141929	-0.080098	0.086058	-0.133932	-0.480753	0.486883	0.529039	0.501935
47623	9.705041	0.560268	-0.161188	-0.051326	0.070409	-0.090542	-0.480838	0.486833	0.529220	0.501712
47624	9.769129	0.563259	-0.176391	-0.051227	0.059342	-0.026058	-0.480973	0.486728	0.529436	0.501456
47625	9.746531	0.486186	-0.183074	-0.125479	0.052049	-0.053266	-0.481193	0.486565	0.529687	0.501137
47626	9.744277	0.496691	-0.192058	-0.113207	0.045618	-0.054633	-0.481447	0.486375	0.529989	0.500760
47627	9.762558	0.534257	-0.190112	-0.075359	0.051587	-0.034100	-0.481736	0.486161	0.530296	0.500365
47628	9.773970	0.590597	-0.182409	-0.018463	0.063202	-0.019412	-0.482036	0.485932	0.530565	0.500012
47629	9.735044	0.665568	-0.185490	0.060586	0.063480	-0.053550	-0.482300	0.485752	0.530822	0.499660
47630	9.744412	0.631518	-0.184537	0.028048	0.065110	-0.046347	-0.482534	0.485626	0.530998	0.499369
47631	9.723953	0.643629	-0.182917	0.043235	0.067802	-0.066072	-0.482711	0.485522	0.531131	0.499158
47632	9.735511	0.681274	-0.147499	0.080553	0.105623	-0.053158	-0.482836	0.485498	0.531182	0.499006
47633	9.731132	0.684768	-0.135358	0.086112	0.118544	-0.057653	-0.482881	0.485585	0.531139	0.498923
47634	9.745076	0.709228	-0.092504	0.110549	0.163228	-0.043389	-0.482831	0.485763	0.530995	0.498952
47635	9.726984	0.666668	-0.096657	0.071495	0.158083	-0.063949	-0.482662	0.486039	0.530821	0.499032
47636	9.715670	0.624358	-0.133612	0.032950	0.121091	-0.076868	-0.482427	0.486358	0.530618	0.499164
47637	9.729497	0.584555	-0.145386	-0.005792	0.110217	-0.065187	-0.482145	0.486723	0.530383	0.499330
47638	9.782190	0.570041	-0.155779	-0.021894	0.102648	-0.013226	-0.481855	0.487081	0.530147	0.499512
47639	9.791376	0.555787	-0.181745	-0.034870	0.078075	-0.004238	-0.481582	0.487409	0.529904	0.499713
47640	9.800539	0.542126	-0.206790	-0.047854	0.053493	0.004750	-0.481347	0.487657	0.529676	0.499939
47641	9.800436	0.495585	-0.286214	-0.092044	-0.027843	0.003973	-0.481151	0.487851	0.529443	0.500186
47642	9.821089	0.462073	-0.259865	-0.128061	-0.003489	0.021865	-0.481003	0.487968	0.529243	0.500425
47643	9.786814	0.473159	-0.258089	-0.116109	-0.004190	-0.011732	-0.480896	0.488004	0.529107	0.500637
47644	9.800600	0.539076	-0.265327	-0.052551	-0.011881	0.006164	-0.480829	0.487993	0.528955	0.500872
47645	9.725164	0.542410	-0.203855	-0.048131	0.044309	-0.070496	-0.480789	0.487931	0.528837	0.501096
47646	9.711437	0.562703	-0.162859	-0.030209	0.082219	-0.083994	-0.480728	0.487886	0.528735	0.501305
47647	9.683940	0.472114	-0.193142	-0.120024	0.046497	-0.116176	-0.480613	0.487911	0.528637	0.501495
47648	9.722790	0.437694	-0.177087	-0.158974	0.061750	-0.079934	-0.480514	0.487919	0.528634	0.501586
47649	9.848588	0.478567	-0.236968	-0.125931	0.006279	0.049562	-0.480520	0.487842	0.528733	0.501550
47650	9.850894	0.523435	-0.308801	-0.080701	-0.065025	0.056392	-0.480606	0.487684	0.528775	0.501577
47651	9.663310	0.509011	-0.211908	-0.087080	0.024228	-0.134083	-0.480683	0.487565	0.528717	0.501679
47652	9.645052	0.572101	-0.212448	-0.023804	0.022246	-0.148403	-0.480745	0.487457	0.528711	0.501731
47653	9.677070	0.657899	-0.190036	0.058590	0.046341	-0.111705	-0.480713	0.487472	0.528662	0.501799
47654	9.727522	0.634749	-0.245254	0.033543	-0.008927	-0.061455	-0.480637	0.487542	0.528580	0.501891
47655	9.759608	0.575363	-0.238130	-0.027734	-0.002698	-0.033274	-0.480557	0.487654	0.528498	0.501944
47656	9.716189	0.555306	-0.227825	-0.044756	0.006887	-0.078082	-0.480442	0.487805	0.528414	0.501997
47657	9.718518	0.541486	-0.221453	-0.058259	0.014160	-0.076762	-0.480306	0.487978	0.528315	0.502062
47658	9.714009	0.565435	-0.236817	-0.033116	0.000890	-0.079411	-0.480181	0.488136	0.528255	0.502091
47659	9.789543	0.566067	-0.228562	-0.036644	0.012664	-0.004205	-0.480058	0.488313	0.528175	0.502122
47660	9.801081	0.581069	-0.233394	-0.021161	0.009644	0.008350	-0.479974	0.488470	0.528055	0.502176
47661	9.792026	0.569345	-0.248386	-0.031199	-0.005820	-0.001030	-0.479888	0.488571	0.527936	0.502284
47662	9.737172	0.574967	-0.218253	-0.022967	0.021893	-0.056165	-0.479826	0.488623	0.527790	0.502446
47663	9.689147	0.562105	-0.193215	-0.033798	0.043953	-0.105484	-0.479757	0.488671	0.527694	0.502566
47664	9.698320	0.572235	-0.176782	-0.025015	0.060281	-0.096111	-0.479698	0.488716	0.527649	0.502626
47665	9.709779	0.546830	-0.194711	-0.050891	0.042572	-0.085800	-0.479626	0.488782	0.527646	0.502635
47666	9.725764	0.538082	-0.185891	-0.061177	0.053254	-0.070614	-0.479529	0.488847	0.527693	0.502613
47667	9.714296	0.540515	-0.210663	-0.058325	0.030935	-0.081309	-0.479410	0.488908	0.527788	0.502569
47668	9.759939	0.505611	-0.230497	-0.096823	0.014386	-0.037433	-0.479319	0.488918	0.527923	0.502503
47669	9.794202	0.534009	-0.285421	-0.070913	-0.036387	-0.000110	-0.479290	0.488859	0.528089	0.502414
47670	9.800983	0.538595	-0.251814	-0.068851	-0.000714	0.006071	-0.479343	0.488743	0.528264	0.502292
47671	9.773521	0.572403	-0.244517	-0.034574	0.007615	-0.019430	-0.479434	0.488597	0.528419	0.502185
47672	9.759795	0.591135	-0.206916	-0.016661	0.045530	-0.032938	-0.479547	0.488449	0.528559	0.502074
47673	9.748386	0.593264	-0.228850	-0.013811	0.023218	-0.043623	-0.479666	0.488299	0.528679	0.501979
47674	9.716345	0.594905	-0.154639	-0.012521	0.096398	-0.077404	-0.479750	0.488181	0.528784	0.501903
47675	9.691193	0.592951	-0.180087	-0.012881	0.070676	-0.101967	-0.479789	0.488103	0.528897	0.501823
47676	9.707172	0.542668	-0.183997	-0.064531	0.066656	-0.089061	-0.479787	0.488078	0.528963	0.501780
47677	9.750589	0.500849	-0.182415	-0.109763	0.069455	-0.048404	-0.479762	0.488048	0.529076	0.501714
47678	9.784885	0.532415	-0.169348	-0.081698	0.085767	-0.012580	-0.479784	0.487977	0.529211	0.501620
47679	9.826107	0.578882	-0.281624	-0.035695	-0.022997	0.034393	-0.479893	0.487834	0.529386	0.501470
47680	9.732296	0.540722	-0.228086	-0.069533	0.027457	-0.063000	-0.479964	0.487755	0.529450	0.501410
47681	9.739241	0.581857	-0.246428	-0.028301	0.010767	-0.053016	-0.480057	0.487675	0.529562	0.501281
47682	9.755329	0.614359	-0.222732	0.002728	0.036168	-0.035562	-0.480131	0.487607	0.529624	0.501210
47683	9.727930	0.586041	-0.201112	-0.023913	0.055948	-0.065236	-0.480230	0.487546	0.529648	0.501149
47684	9.727997	0.542635	-0.214137	-0.065898	0.041674	-0.067527	-0.480306	0.487529	0.529696	0.501043
47685	9.750927	0.513675	-0.209598	-0.095297	0.046713	-0.046567	-0.480362	0.487521	0.529749	0.500942
47686	9.748742	0.547737	-0.176851	-0.061307	0.081193	-0.047498	-0.480429	0.487484	0.529814	0.500843
47687	9.753383	0.540372	-0.188905	-0.068136	0.069126	-0.043002	-0.480521	0.487405	0.529864	0.500780
47688	9.764933	0.555903	-0.192327	-0.052702	0.066130	-0.030419	-0.480629	0.487338	0.529917	0.500685
47689	9.769605	0.548206	-0.203853	-0.059522	0.054074	-0.025921	-0.480727	0.487277	0.529941	0.500624
47690	9.753768	0.574156	-0.239755	-0.030893	0.018060	-0.039160	-0.480827	0.487208	0.529983	0.500552
47691	9.726450	0.583708	-0.271419	-0.018351	-0.014533	-0.064986	-0.480909	0.487127	0.530023	0.500510
47692	9.710476	0.595599	-0.213246	-0.007169	0.042704	-0.081722	-0.480987	0.487048	0.530046	0.500486
47693	9.706109	0.638889	-0.253313	0.037551	0.003263	-0.082349	-0.481020	0.487017	0.530059	0.500471
47694	9.728989	0.611006	-0.247381	0.008136	0.008298	-0.061400	-0.481048	0.486987	0.530047	0.500486
47695	9.715324	0.606225	-0.249261	0.004294	0.005311	-0.075279	-0.481052	0.486987	0.530025	0.500506
47696	9.770236	0.603324	-0.209423	-0.003160	0.045611	-0.021708	-0.481019	0.487028	0.529938	0.500589
47697	9.752015	0.581844	-0.238357	-0.022575	0.014202	-0.040459	-0.480990	0.487059	0.529826	0.500707
47698	9.765813	0.608346	-0.193093	0.001708	0.058958	-0.026218	-0.480947	0.487114	0.529701	0.500826
47699	9.761351	0.590868	-0.218491	-0.014514	0.030973	-0.031089	-0.480903	0.487177	0.529528	0.500990
47700	9.749852	0.554637	-0.184419	-0.050840	0.060991	-0.045654	-0.480866	0.487215	0.529350	0.501176
47701	9.736239	0.527445	-0.224454	-0.076433	0.017085	-0.059903	-0.480817	0.487226	0.529214	0.501356
47702	9.743214	0.550536	-0.212585	-0.054829	0.026590	-0.051807	-0.480834	0.487188	0.529065	0.501535
47703	9.768463	0.594044	-0.169330	-0.014476	0.067938	-0.024960	-0.480871	0.487152	0.528923	0.501685
47704	9.770790	0.580967	-0.158021	-0.028034	0.075202	-0.023695	-0.480875	0.487149	0.528742	0.501873
47705	9.741168	0.542902	-0.180206	-0.063507	0.047193	-0.055059	-0.480885	0.487152	0.528524	0.502090
47706	9.775562	0.532098	-0.174024	-0.076862	0.048834	-0.021532	-0.480942	0.487065	0.528337	0.502317
47707	9.849321	0.584384	-0.217878	-0.028588	0.001588	0.056318	-0.481088	0.486912	0.528128	0.502546
47708	9.875427	0.619998	-0.303236	0.007457	-0.091187	0.086405	-0.481304	0.486702	0.527811	0.502875
47709	9.715101	0.506911	-0.260404	-0.096379	-0.065920	-0.081587	-0.481516	0.486505	0.527405	0.503287
47710	9.746948	0.512585	-0.186736	-0.094715	-0.004035	-0.050945	-0.481819	0.486189	0.527070	0.503654
47711	9.772451	0.533262	-0.173861	-0.076115	-0.003571	-0.024451	-0.482175	0.485843	0.526718	0.504016
47712	9.788965	0.543064	-0.176538	-0.066882	-0.019031	-0.007328	-0.482534	0.485522	0.526397	0.504316
47713	9.727178	0.525024	-0.144762	-0.080777	-0.000523	-0.070611	-0.482915	0.485215	0.526141	0.504515
47714	9.687987	0.521028	-0.096193	-0.082125	0.037349	-0.110643	-0.483288	0.484920	0.525969	0.504621
47715	9.661261	0.529713	-0.120436	-0.069519	0.004739	-0.136417	-0.483656	0.484639	0.525859	0.504654
47716	9.735190	0.560732	-0.136006	-0.040880	-0.016310	-0.060513	-0.484028	0.484366	0.525778	0.504643
47717	9.772274	0.595723	-0.133660	-0.006218	-0.019237	-0.021381	-0.484398	0.484105	0.525700	0.504619
47718	9.774627	0.580696	-0.119258	-0.019774	-0.011964	-0.020127	-0.484730	0.483862	0.525587	0.504651
47719	9.739946	0.612277	-0.072910	0.014023	0.028155	-0.053294	-0.484999	0.483654	0.525448	0.504737
47720	9.694255	0.604581	-0.063294	0.010028	0.030752	-0.099446	-0.485243	0.483466	0.525323	0.504812
47721	9.689586	0.609552	-0.044679	0.015565	0.043675	-0.103956	-0.485435	0.483302	0.525202	0.504911
47722	9.678655	0.652259	-0.048083	0.059784	0.036077	-0.112211	-0.485586	0.483211	0.525027	0.505036
47723	9.671971	0.627815	-0.051598	0.036882	0.027403	-0.120334	-0.485656	0.483185	0.524877	0.505148
47724	9.736471	0.588654	-0.073807	-0.004816	0.001881	-0.058160	-0.485672	0.483197	0.524788	0.505214
47725	9.734532	0.558609	-0.092565	-0.033913	-0.019274	-0.061779	-0.485693	0.483172	0.524742	0.505266
47726	9.737243	0.606311	-0.097188	0.013470	-0.023423	-0.056140	-0.485688	0.483162	0.524727	0.505295
47727	9.748241	0.603325	-0.073436	0.009260	-0.000205	-0.045523	-0.485683	0.483198	0.524669	0.505326
47728	9.765446	0.562248	-0.027969	-0.033641	0.043506	-0.031184	-0.485686	0.483214	0.524619	0.505360
47729	9.744991	0.534559	-0.038735	-0.059713	0.031399	-0.053202	-0.485663	0.483218	0.524608	0.505389
47730	9.734072	0.536524	-0.061159	-0.056832	0.009063	-0.063819	-0.485638	0.483221	0.524621	0.505397
47731	9.727209	0.555229	-0.056202	-0.038416	0.015162	-0.069571	-0.485608	0.483218	0.524671	0.505377
47732	9.725833	0.586581	-0.091023	-0.006585	-0.017382	-0.068774	-0.485601	0.483199	0.524773	0.505295
47733	9.742328	0.554776	-0.121850	-0.038697	-0.047575	-0.054008	-0.485561	0.483234	0.524800	0.505272
47734	9.734128	0.535191	-0.063780	-0.059498	0.010844	-0.063836	-0.485527	0.483267	0.524808	0.505265
47735	9.795785	0.531625	-0.056672	-0.066632	0.019437	-0.002569	-0.485556	0.483281	0.524876	0.505154
47736	9.858168	0.615378	-0.163334	0.017548	-0.083435	0.065652	-0.485682	0.483244	0.524912	0.505030
47737	9.792607	0.571562	-0.095767	-0.022590	-0.019497	-0.002992	-0.485767	0.483232	0.524735	0.505144
47738	9.736586	0.515695	-0.051624	-0.075096	0.019458	-0.062626	-0.485808	0.483239	0.524604	0.505234
47739	9.718186	0.516367	-0.039962	-0.072737	0.028939	-0.081025	-0.485842	0.483255	0.524505	0.505288
47740	9.718264	0.515074	-0.037793	-0.073412	0.029384	-0.081032	-0.485872	0.483249	0.524428	0.505346
47741	9.717612	0.494733	-0.009016	-0.093696	0.055986	-0.083098	-0.485921	0.483263	0.524343	0.505374
47742	9.700485	0.505555	0.048316	-0.082516	0.113214	-0.099928	-0.485904	0.483324	0.524326	0.505350
47743	9.731458	0.537377	0.007358	-0.050577	0.075092	-0.066821	-0.485847	0.483431	0.524355	0.505272
47744	9.739113	0.536035	-0.026946	-0.050733	0.043729	-0.059027	-0.485760	0.483539	0.524411	0.505194
47745	9.787810	0.547025	-0.051635	-0.041452	0.022739	-0.009581	-0.485672	0.483665	0.524439	0.505129
47746	9.819325	0.528597	-0.032910	-0.061641	0.043771	0.020620	-0.485598	0.483768	0.524456	0.505083
47747	9.833801	0.550354	-0.058300	-0.039572	0.021525	0.036571	-0.485515	0.483877	0.524475	0.505039
47748	9.827033	0.568053	-0.054149	-0.021168	0.027629	0.030838	-0.485481	0.483935	0.524444	0.505047
47749	9.766847	0.579941	-0.014046	-0.006521	0.067646	-0.028864	-0.485452	0.483974	0.524384	0.505101
47750	9.786740	0.586969	0.025044	-0.001443	0.106822	-0.008911	-0.485425	0.484030	0.524334	0.505124
47751	9.719686	0.575837	0.056573	-0.009018	0.137718	-0.076773	-0.485383	0.484086	0.524294	0.505154
47752	9.682821	0.621181	0.088348	0.037721	0.170979	-0.111140	-0.485311	0.484162	0.524259	0.505186
47753	9.703406	0.605400	0.085100	0.021088	0.169232	-0.091537	-0.485162	0.484334	0.524241	0.505182
47754	9.688488	0.632009	0.045069	0.049782	0.133227	-0.104544	-0.484955	0.484537	0.524246	0.505182
47755	9.731583	0.589318	0.044557	0.004289	0.136125	-0.064127	-0.484704	0.484760	0.524265	0.505189
47756	9.717913	0.585104	0.036795	0.000470	0.133103	-0.078016	-0.484411	0.485017	0.524289	0.505199
47757	9.703384	0.548183	-0.059225	-0.033855	0.041404	-0.093798	-0.484079	0.485305	0.524288	0.505240
47758	9.731282	0.534308	-0.098880	-0.049975	0.007855	-0.066378	-0.483727	0.485541	0.524410	0.505224
47759	9.783169	0.503594	-0.085829	-0.086159	0.026710	-0.016605	-0.483472	0.485698	0.524517	0.505207
47760	9.744998	0.512694	-0.005275	-0.078636	0.112262	-0.055174	-0.483282	0.485785	0.524693	0.505122
47761	9.768240	0.546922	-0.018145	-0.047258	0.105978	-0.029820	-0.483068	0.485925	0.524843	0.505037
47762	9.759119	0.495426	-0.052134	-0.098578	0.075694	-0.041652	-0.482869	0.486062	0.524932	0.505004
47763	9.756417	0.489364	-0.036639	-0.105975	0.095453	-0.044978	-0.482725	0.486147	0.525072	0.504913
47764	9.869776	0.524725	-0.101256	-0.077023	0.037269	0.071176	-0.482678	0.486150	0.525251	0.504769
47765	9.880497	0.591842	-0.167482	-0.009556	-0.024769	0.086901	-0.482720	0.486100	0.525344	0.504680
47766	9.744473	0.541579	-0.125045	-0.052311	0.014870	-0.052527	-0.482762	0.486074	0.525346	0.504664
47767	9.670223	0.530028	-0.061508	-0.060338	0.077509	-0.128253	-0.482796	0.486075	0.525404	0.504568
47768	9.712448	0.537090	-0.121104	-0.053733	0.021296	-0.084819	-0.482783	0.486119	0.525561	0.504375
47769	9.751405	0.518807	-0.135538	-0.073460	0.010547	-0.046833	-0.482782	0.486140	0.525699	0.504213
47770	9.758214	0.498739	-0.143244	-0.093240	0.005336	-0.041133	-0.482812	0.486132	0.525835	0.504049
47771	9.752039	0.535437	-0.166526	-0.055214	-0.014711	-0.044708	-0.482874	0.486085	0.525980	0.503884
47772	9.775394	0.567586	-0.174897	-0.023855	-0.020976	-0.019319	-0.482995	0.485991	0.526055	0.503781
47773	9.752360	0.574638	-0.152442	-0.015276	0.000961	-0.042235	-0.483115	0.485913	0.526102	0.503692
47774	9.788337	0.572312	-0.102991	-0.020039	0.050464	-0.007243	-0.483176	0.485916	0.526086	0.503646
47775	9.836207	0.521681	-0.111069	-0.071791	0.040904	0.037624	-0.483256	0.485924	0.526016	0.503636
47776	9.792708	0.543132	-0.085721	-0.047231	0.065016	-0.004884	-0.483332	0.485886	0.525996	0.503621
47777	9.738116	0.567392	-0.083683	-0.019067	0.066333	-0.057941	-0.483336	0.485919	0.525958	0.503625
47778	9.710560	0.516142	-0.103590	-0.067287	0.045030	-0.088205	-0.483320	0.485975	0.525949	0.503595
47779	9.727405	0.502447	-0.160561	-0.079839	-0.011290	-0.071326	-0.483325	0.485994	0.525961	0.503559
47780	9.753888	0.517785	-0.228265	-0.063470	-0.077785	-0.042915	-0.483395	0.485987	0.525975	0.503484
47781	9.800699	0.470758	-0.169920	-0.113167	-0.020268	0.000108	-0.483501	0.485982	0.525956	0.503406
47782	9.778478	0.426364	-0.087539	-0.156724	0.060771	-0.025971	-0.483574	0.485975	0.526009	0.503287
47783	9.709792	0.468999	-0.050738	-0.109956	0.099523	-0.092574	-0.483655	0.485942	0.526165	0.503079
47784	9.645835	0.505275	-0.027128	-0.069373	0.125787	-0.154658	-0.483773	0.485901	0.526329	0.502835
47785	9.680128	0.492179	-0.028164	-0.082946	0.127540	-0.121208	-0.483876	0.485875	0.526490	0.502591
47786	9.774983	0.484799	-0.096072	-0.092367	0.063682	-0.025861	-0.483987	0.485849	0.526654	0.502338
47787	9.826533	0.543009	-0.126155	-0.035214	0.038274	0.029508	-0.484118	0.485751	0.526810	0.502142
47788	9.805804	0.579742	-0.084821	0.001774	0.081820	0.010265	-0.484219	0.485643	0.526981	0.501971
47789	9.709082	0.532506	-0.081323	-0.040246	0.083991	-0.089119	-0.484253	0.485556	0.527150	0.501844
47790	9.700324	0.499465	-0.138908	-0.071910	0.027526	-0.098825	-0.484231	0.485518	0.527321	0.501721
47791	9.743509	0.563768	-0.070457	-0.013227	0.100988	-0.053159	-0.484253	0.485468	0.527460	0.501604
47792	9.800803	0.608402	-0.038134	0.026864	0.137009	0.006063	-0.484303	0.485440	0.527525	0.501514
47793	9.831630	0.575132	-0.130854	-0.004287	0.043253	0.036524	-0.484424	0.485391	0.527480	0.501492
47794	9.710691	0.497091	-0.048817	-0.076227	0.119139	-0.090187	-0.484496	0.485392	0.527408	0.501497
47795	9.743574	0.515739	-0.080043	-0.057302	0.087941	-0.055710	-0.484540	0.485409	0.527352	0.501498
47796	9.793503	0.563656	-0.154154	-0.008952	0.014796	-0.001781	-0.484572	0.485436	0.527227	0.501572
47797	9.753163	0.499671	-0.100001	-0.071081	0.063852	-0.046689	-0.484576	0.485490	0.527045	0.501707
47798	9.688624	0.453212	-0.098788	-0.113050	0.060475	-0.113813	-0.484563	0.485518	0.526941	0.501801
47799	9.679312	0.464668	-0.073192	-0.101350	0.085871	-0.122862	-0.484529	0.485595	0.526905	0.501797
47800	9.733659	0.459966	-0.034007	-0.109306	0.126415	-0.069540	-0.484477	0.485726	0.526815	0.501815
47801	9.727083	0.476419	-0.029322	-0.090894	0.132505	-0.075225	-0.484446	0.485866	0.526744	0.501783
47802	9.734934	0.515537	-0.048907	-0.049771	0.115959	-0.064807	-0.484384	0.486028	0.526694	0.501740
47803	9.765902	0.545776	-0.090450	-0.017953	0.077951	-0.031455	-0.484315	0.486231	0.526605	0.501702
47804	9.824256	0.518964	-0.179224	-0.042938	-0.008806	0.026801	-0.484215	0.486466	0.526465	0.501718
47805	9.786494	0.459827	-0.148396	-0.098333	0.020920	-0.014789	-0.484134	0.486670	0.526317	0.501754
47806	9.755161	0.474240	-0.169166	-0.079373	0.000712	-0.044863	-0.484077	0.486844	0.526166	0.501798
47807	9.753064	0.506821	-0.135910	-0.045485	0.035265	-0.045688	-0.484050	0.486994	0.526049	0.501801
47808	9.732626	0.541002	-0.092839	-0.008483	0.078800	-0.064917	-0.484072	0.487165	0.525845	0.501828
47809	9.765026	0.538338	-0.097662	-0.009212	0.073760	-0.032628	-0.484050	0.487383	0.525617	0.501877
47810	9.778534	0.496213	-0.106951	-0.048123	0.062888	-0.021308	-0.484030	0.487598	0.525376	0.501940
47811	9.793969	0.441657	-0.108461	-0.099947	0.058841	-0.008851	-0.484040	0.487763	0.525131	0.502026
47812	9.767185	0.471770	-0.098589	-0.065503	0.067090	-0.034068	-0.484083	0.487886	0.524903	0.502104
47813	9.730571	0.472765	-0.077383	-0.059956	0.085482	-0.070891	-0.484135	0.487999	0.524683	0.502173
47814	9.731301	0.511096	-0.060337	-0.019356	0.100737	-0.068327	-0.484195	0.488075	0.524446	0.502288
47815	9.695790	0.481234	-0.004792	-0.046342	0.152074	-0.106263	-0.484192	0.488189	0.524219	0.502418
47816	9.702260	0.482677	0.031852	-0.044480	0.187798	-0.100294	-0.484124	0.488326	0.524106	0.502468
47817	9.728964	0.497697	-0.035547	-0.028151	0.121354	-0.071733	-0.483992	0.488512	0.523930	0.502598
47818	9.748854	0.554318	-0.056421	0.028948	0.101513	-0.048495	-0.483882	0.488697	0.523694	0.502771
47819	9.842800	0.522170	0.047309	-0.009150	0.204877	0.041934	-0.483774	0.488885	0.523489	0.502905
47820	9.896945	0.457864	-0.107825	-0.071310	0.048749	0.095053	-0.483718	0.489015	0.523359	0.502967
47821	9.919292	0.428566	-0.100943	-0.100972	0.053867	0.115712	-0.483713	0.489050	0.523194	0.503111
47822	9.780751	0.420924	-0.163752	-0.099796	-0.013728	-0.022032	-0.483708	0.489035	0.523083	0.503245
47823	9.765469	0.493825	-0.116504	-0.027695	0.032148	-0.034138	-0.483768	0.488948	0.523019	0.503338
47824	9.776495	0.491298	-0.089921	-0.032042	0.055400	-0.023651	-0.483872	0.488803	0.522967	0.503434
47825	9.729157	0.425262	-0.070177	-0.096648	0.069081	-0.074713	-0.484006	0.488626	0.522936	0.503508
47826	9.722015	0.402786	-0.074791	-0.119516	0.060349	-0.082966	-0.484122	0.488455	0.522950	0.503548
47827	9.734204	0.397045	-0.115612	-0.125888	0.016528	-0.070531	-0.484277	0.488258	0.522987	0.503552
47828	9.745190	0.394557	-0.089238	-0.130237	0.039778	-0.060055	-0.484494	0.488004	0.523066	0.503508
47829	9.741811	0.396913	-0.139960	-0.126755	-0.014376	-0.062624	-0.484822	0.487676	0.523200	0.503370
47830	9.778810	0.391246	-0.153832	-0.133729	-0.031866	-0.025811	-0.485215	0.487298	0.523353	0.503199
47831	9.792276	0.467445	-0.165172	-0.057534	-0.046023	-0.008147	-0.485663	0.486869	0.523481	0.503049
47832	9.865491	0.552683	-0.174273	0.024682	-0.058589	0.069605	-0.486160	0.486412	0.523544	0.502945
47833	9.865285	0.573701	-0.124408	0.045630	-0.017195	0.069928	-0.486693	0.485951	0.523455	0.502968
47834	9.774462	0.529470	-0.075207	0.006452	0.020038	-0.023629	-0.487138	0.485572	0.523360	0.503002
47835	9.718395	0.501669	-0.127901	-0.015194	-0.041366	-0.080612	-0.487477	0.485317	0.523308	0.502973
47836	9.707778	0.502078	-0.143910	-0.012225	-0.063745	-0.091086	-0.487820	0.485033	0.523236	0.502989
47837	9.663758	0.547439	-0.072855	0.034141	0.001216	-0.133222	-0.488102	0.484774	0.523104	0.503104
47838	9.589828	0.556452	-0.029233	0.046046	0.037479	-0.206868	-0.488302	0.484577	0.522944	0.503265
47839	9.592840	0.562251	-0.042545	0.052071	0.018615	-0.203449	-0.488358	0.484516	0.522771	0.503450
47840	9.719531	0.538330	-0.081126	0.022592	-0.024343	-0.077978	-0.488360	0.484521	0.522580	0.503641
47841	9.753643	0.526691	-0.075722	0.008865	-0.022518	-0.044571	-0.488319	0.484547	0.522413	0.503828
47842	9.710843	0.454267	-0.070639	-0.061891	-0.021368	-0.091189	-0.488216	0.484610	0.522340	0.503944
47843	9.670120	0.475787	0.005802	-0.041354	0.057225	-0.131125	-0.488066	0.484713	0.522428	0.503899
47844	9.705978	0.452376	0.010180	-0.068004	0.065872	-0.096629	-0.487848	0.484849	0.522595	0.503806
47845	9.676016	0.481218	0.030476	-0.040229	0.093396	-0.125198	-0.487594	0.484972	0.522835	0.503683
47846	9.709278	0.503643	-0.010124	-0.021413	0.062296	-0.090574	-0.487267	0.485120	0.523201	0.503478
47847	9.799962	0.497758	0.002002	-0.035916	0.085054	-0.000527	-0.486947	0.485267	0.523569	0.503263
47848	9.855604	0.478575	-0.148226	-0.056840	-0.056191	0.055319	-0.486711	0.485349	0.523875	0.503094
47849	9.799777	0.436988	-0.066445	-0.100255	0.030142	-0.003506	-0.486525	0.485420	0.524043	0.503030
47850	9.777977	0.443253	-0.117086	-0.093602	-0.015059	-0.024427	-0.486303	0.485520	0.524249	0.502934
47851	9.831422	0.514714	-0.102243	-0.027971	0.007527	0.032687	-0.486111	0.485595	0.524383	0.502907
47852	9.835175	0.541321	-0.151374	-0.002327	-0.037430	0.038465	-0.485947	0.485657	0.524448	0.502938
47853	9.825131	0.513069	-0.141215	-0.031912	-0.026878	0.026755	-0.485840	0.485699	0.524418	0.503032
47854	9.765441	0.504392	-0.141026	-0.038551	-0.028078	-0.033329	-0.485768	0.485707	0.524352	0.503164
47855	9.750232	0.504630	-0.075837	-0.040291	0.035902	-0.049260	-0.485697	0.485745	0.524276	0.503274
47856	9.736047	0.458263	-0.091552	-0.085303	0.017965	-0.065821	-0.485669	0.485813	0.524177	0.503338
47857	9.782565	0.439504	-0.132750	-0.104757	-0.024425	-0.019946	-0.485665	0.485859	0.524056	0.503424
47858	9.788275	0.464503	-0.054864	-0.081318	0.052282	-0.013721	-0.485689	0.485898	0.523909	0.503516
47859	9.720729	0.462307	-0.095633	-0.077523	0.008951	-0.080814	-0.485687	0.485958	0.523776	0.503598
47860	9.682837	0.511037	0.004564	-0.028609	0.109195	-0.117030	-0.485598	0.486086	0.523643	0.503699
47861	9.705630	0.523698	0.023441	-0.017059	0.129187	-0.093784	-0.485446	0.486275	0.523535	0.503775
47862	9.760108	0.496173	0.021878	-0.046939	0.128924	-0.040914	-0.485262	0.486487	0.523416	0.503872
47863	9.741654	0.432815	-0.024371	-0.107370	0.082493	-0.062333	-0.485117	0.486673	0.523320	0.503932
47864	9.762526	0.393668	-0.067636	-0.145809	0.039857	-0.043162	-0.484999	0.486830	0.523228	0.503989
47865	9.808718	0.448569	-0.130814	-0.091452	-0.020581	0.006706	-0.484928	0.486927	0.523164	0.504030
47866	9.767088	0.458487	-0.100155	-0.079590	0.010213	-0.034661	-0.484857	0.487020	0.523079	0.504097
47867	9.727299	0.455923	-0.062955	-0.080644	0.047819	-0.074957	-0.484719	0.487162	0.523029	0.504144
47868	9.730566	0.452566	-0.010065	-0.085563	0.102857	-0.072516	-0.484519	0.487347	0.522988	0.504200
47869	9.746613	0.421016	-0.042248	-0.117800	0.072698	-0.057876	-0.484302	0.487520	0.522945	0.504286
47870	9.726281	0.436070	-0.042295	-0.102392	0.075263	-0.077373	-0.484076	0.487716	0.522883	0.504377
47871	9.776966	0.434573	-0.059570	-0.106458	0.061390	-0.026658	-0.483901	0.487910	0.522856	0.504385
47872	9.782146	0.404575	-0.114145	-0.134991	0.008402	-0.022448	-0.483794	0.488059	0.522771	0.504433
47873	9.735401	0.429707	-0.145609	-0.105961	-0.022221	-0.067321	-0.483734	0.488156	0.522703	0.504466
47874	9.830862	0.500058	-0.042272	-0.042333	0.084970	0.030518	-0.483696	0.488245	0.522716	0.504404
47875	9.899172	0.513766	-0.215057	-0.027724	-0.085571	0.101733	-0.483707	0.488298	0.522673	0.504386
47876	9.743252	0.437902	-0.062213	-0.096865	0.062212	-0.060081	-0.483720	0.488349	0.522466	0.504539
47877	9.668041	0.436218	-0.071345	-0.093477	0.050588	-0.135131	-0.483702	0.488386	0.522433	0.504554
47878	9.679577	0.474352	-0.034960	-0.056620	0.088736	-0.122003	-0.483655	0.488431	0.522471	0.504517
47879	9.689676	0.502577	-0.047676	-0.028462	0.079107	-0.110234	-0.483577	0.488540	0.522523	0.504432
47880	9.702836	0.463435	-0.061161	-0.067418	0.068237	-0.099071	-0.483470	0.488675	0.522563	0.504361
47881	9.768777	0.474631	-0.028335	-0.059817	0.105720	-0.033100	-0.483358	0.488831	0.522603	0.504277
47882	9.773528	0.467110	-0.044097	-0.066726	0.093699	-0.028580	-0.483221	0.488981	0.522650	0.504214
47883	9.797021	0.435097	-0.109632	-0.098456	0.031789	-0.005943	-0.483101	0.489111	0.522725	0.504125
47884	9.804560	0.434423	-0.144269	-0.098645	0.000485	0.002057	-0.483058	0.489166	0.522792	0.504045
47885	9.837768	0.454208	-0.177768	-0.079909	-0.030525	0.036793	-0.483061	0.489163	0.522834	0.504001
47886	9.782496	0.460401	-0.149922	-0.070994	-0.003313	-0.018474	-0.483122	0.489127	0.522831	0.503980
47887	9.763818	0.484067	-0.099330	-0.046873	0.047028	-0.036598	-0.483162	0.489111	0.522837	0.503951
47888	9.691120	0.511501	-0.089083	-0.015091	0.057055	-0.107849	-0.483180	0.489135	0.522845	0.503902
47889	9.695889	0.503659	-0.101693	-0.021995	0.045034	-0.103322	-0.483184	0.489187	0.522832	0.503861
47890	9.689576	0.447134	-0.077568	-0.077394	0.069174	-0.113046	-0.483179	0.489259	0.522854	0.503773
47891	9.734884	0.408644	-0.096054	-0.116577	0.052944	-0.069598	-0.483174	0.489334	0.522930	0.503626
47892	9.748710	0.410300	-0.095266	-0.114286	0.056952	-0.055717	-0.483198	0.489383	0.523031	0.503451
47893	9.750274	0.491476	-0.070314	-0.032469	0.087160	-0.050224	-0.483187	0.489460	0.523157	0.503255
47894	9.762287	0.505846	-0.077341	-0.017255	0.084360	-0.037377	-0.483166	0.489555	0.523235	0.503103
47895	9.716432	0.498219	-0.077756	-0.020719	0.086604	-0.083588	-0.483135	0.489687	0.523289	0.502948
47896	9.733300	0.483599	-0.138245	-0.033319	0.030361	-0.066505	-0.483057	0.489833	0.523390	0.502774
47897	9.756236	0.495354	-0.123610	-0.021839	0.050403	-0.043256	-0.482998	0.489952	0.523507	0.502593
47898	9.756289	0.493220	-0.127896	-0.022543	0.050854	-0.043260	-0.482970	0.490055	0.523648	0.502372
47899	9.758192	0.477980	-0.125267	-0.036176	0.058116	-0.042233	-0.482898	0.490230	0.523727	0.502189
47900	9.749114	0.465366	-0.144919	-0.046071	0.042534	-0.051598	-0.482819	0.490394	0.523769	0.502062
47901	9.779427	0.499726	-0.121324	-0.012483	0.071805	-0.020021	-0.482744	0.490525	0.523876	0.501894
47902	9.870502	0.539943	-0.164093	0.024864	0.035804	0.073838	-0.482710	0.490611	0.523967	0.501748
47903	9.853159	0.463944	-0.203608	-0.048409	-0.003886	0.053370	-0.482700	0.490657	0.523927	0.501754
47904	9.693221	0.424384	-0.139833	-0.080457	0.056161	-0.109669	-0.482679	0.490687	0.523918	0.501754
47905	9.679386	0.464643	-0.062930	-0.040933	0.134995	-0.122978	-0.482634	0.490746	0.523975	0.501680
47906	9.687728	0.483175	-0.123967	-0.021470	0.077607	-0.112459	-0.482516	0.490860	0.524056	0.501598
47907	9.730932	0.458371	-0.151293	-0.047773	0.054589	-0.070061	-0.482419	0.490973	0.524153	0.501479
47908	9.778715	0.427200	-0.190886	-0.080290	0.019105	-0.023133	-0.482320	0.491082	0.524220	0.501398
47909	9.760342	0.451208	-0.143886	-0.056163	0.069434	-0.041270	-0.482227	0.491182	0.524268	0.501338
47910	9.768613	0.418312	-0.145040	-0.088938	0.071030	-0.034709	-0.482139	0.491311	0.524325	0.501237
47911	9.793451	0.418249	-0.122463	-0.090423	0.097898	-0.010450	-0.482064	0.491378	0.524452	0.501111
47912	9.841172	0.387206	-0.162338	-0.122954	0.062421	0.036471	-0.482027	0.491430	0.524606	0.500935
47913	9.850306	0.373720	-0.190081	-0.136083	0.037936	0.045526	-0.482133	0.491321	0.524834	0.500701
47914	9.810899	0.444585	-0.173297	-0.063204	0.057462	0.009437	-0.482293	0.491194	0.525027	0.500469
47915	9.851325	0.463528	-0.238193	-0.044020	-0.005237	0.052313	-0.482462	0.491073	0.525145	0.500300
47916	9.775994	0.438858	-0.287668	-0.062019	-0.057971	-0.022988	-0.482708	0.490929	0.525178	0.500169
47917	9.698182	0.452412	-0.234509	-0.043541	-0.009477	-0.101229	-0.483013	0.490738	0.525142	0.500101
47918	9.611123	0.428084	-0.095399	-0.064877	0.122919	-0.192567	-0.483242	0.490581	0.525097	0.500080
47919	9.635194	0.459162	-0.100268	-0.033785	0.116900	-0.166805	-0.483373	0.490501	0.525120	0.500009
47920	9.613221	0.457498	-0.003865	-0.036025	0.212570	-0.191001	-0.483379	0.490516	0.525141	0.499967
47921	9.696883	0.452697	-0.093255	-0.042481	0.126430	-0.105712	-0.483282	0.490636	0.525144	0.499939
47922	9.785233	0.486782	-0.115081	-0.011979	0.109792	-0.015301	-0.483154	0.490790	0.525116	0.499940
47923	9.861521	0.481767	-0.172934	-0.018967	0.055407	0.061935	-0.483032	0.490944	0.525039	0.499989
47924	9.859650	0.471041	-0.221148	-0.028338	0.008067	0.060642	-0.482879	0.491083	0.524953	0.500089
47925	9.784190	0.419944	-0.172222	-0.076943	0.055245	-0.018433	-0.482732	0.491221	0.524893	0.500159
47926	9.740989	0.420775	-0.189906	-0.073591	0.038146	-0.061118	-0.482598	0.491361	0.524838	0.500208
47927	9.660968	0.403948	-0.228918	-0.085304	-0.002167	-0.140946	-0.482489	0.491485	0.524729	0.500307
47928	9.752184	0.467430	-0.227835	-0.026528	0.002938	-0.046686	-0.482374	0.491603	0.524657	0.500377
47929	9.807555	0.503715	-0.174739	0.006162	0.058702	0.009172	-0.482272	0.491756	0.524533	0.500454
47930	9.765179	0.477673	-0.297993	-0.013982	-0.066448	-0.031528	-0.482189	0.491913	0.524324	0.500599
47931	9.649348	0.404583	-0.182678	-0.082409	0.043814	-0.153585	-0.482063	0.492092	0.524138	0.500740
47932	9.665967	0.413442	-0.199094	-0.073438	0.028575	-0.136155	-0.481872	0.492310	0.524005	0.500848
47933	9.718431	0.421010	-0.168178	-0.069066	0.062636	-0.084134	-0.481660	0.492513	0.523915	0.500946
47934	9.734980	0.430634	-0.186612	-0.060099	0.047401	-0.066701	-0.481476	0.492696	0.523895	0.500964
47935	9.762590	0.437160	-0.182465	-0.054911	0.055024	-0.038921	-0.481334	0.492858	0.523853	0.500985
47936	9.745448	0.450780	-0.060767	-0.041791	0.179206	-0.058366	-0.481217	0.493045	0.523827	0.500941
47937	9.717713	0.419043	-0.111114	-0.069963	0.131495	-0.086449	-0.481060	0.493258	0.523853	0.500855
47938	9.804069	0.443023	-0.182789	-0.048204	0.067148	0.002740	-0.480923	0.493432	0.523923	0.500742
47939	9.822473	0.490634	-0.254642	0.000073	-0.000220	0.025328	-0.480824	0.493536	0.523892	0.500766
47940	9.804860	0.489792	-0.312167	0.000717	-0.057949	0.009189	-0.480704	0.493620	0.523768	0.500929
47941	9.790792	0.413174	-0.294149	-0.076765	-0.043127	-0.009162	-0.480594	0.493638	0.523653	0.501137
47942	9.755902	0.406738	-0.266572	-0.083859	-0.018120	-0.045049	-0.480452	0.493678	0.523558	0.501333
47943	9.703770	0.444342	-0.216170	-0.046442	0.030678	-0.096504	-0.480322	0.493712	0.523491	0.501495
47944	9.620146	0.425624	-0.167982	-0.062857	0.076629	-0.182176	-0.480151	0.493854	0.523406	0.501607
47945	9.649359	0.397588	-0.196874	-0.092189	0.050080	-0.153704	-0.479928	0.494081	0.523342	0.501663
47946	9.769545	0.359684	-0.207062	-0.136003	0.046235	-0.035387	-0.479694	0.494317	0.523347	0.501650
47947	9.744310	0.284383	-0.218104	-0.209686	0.038178	-0.064119	-0.479515	0.494501	0.523405	0.501579
47948	9.704831	0.281929	-0.185581	-0.210556	0.075634	-0.104566	-0.479343	0.494661	0.523610	0.501371
47949	9.741333	0.276054	-0.213193	-0.217822	0.058345	-0.067721	-0.479167	0.494840	0.524014	0.500941
47950	9.844540	0.329911	-0.336064	-0.166801	-0.047676	0.041583	-0.479130	0.494913	0.524656	0.500232
47951	9.870676	0.417951	-0.435300	-0.076784	-0.131825	0.075242	-0.479276	0.494864	0.525239	0.499528
47952	9.651889	0.387180	-0.404680	-0.094148	-0.100156	-0.145540	-0.479439	0.494838	0.525539	0.499082
47953	9.721417	0.625484	-0.386484	0.143194	-0.068454	-0.064798	-0.479614	0.494816	0.525941	0.498511
47954	9.954270	0.572109	-0.540097	0.084408	-0.211768	0.170025	-0.479696	0.494898	0.525849	0.498448
47955	9.708973	0.533903	-0.228224	0.055889	0.087718	-0.086924	-0.479852	0.494929	0.525481	0.498655
47956	9.454818	0.582117	0.089662	0.113659	0.394173	-0.348428	-0.479825	0.495083	0.525256	0.498765
47957	9.486602	0.481372	-0.004866	0.015307	0.299230	-0.318605	-0.479706	0.495300	0.525182	0.498742
47958	9.711512	0.333338	-0.145400	-0.139440	0.164603	-0.096763	-0.479570	0.495515	0.525003	0.498849
47959	9.797821	0.254672	-0.092510	-0.222329	0.218201	-0.016072	-0.479474	0.495618	0.524821	0.499030
47960	9.824131	0.348215	-0.110790	-0.130428	0.201143	0.015314	-0.479312	0.495721	0.524675	0.499236
47961	9.846384	0.394533	-0.125901	-0.086487	0.188411	0.040221	-0.478999	0.495943	0.524593	0.499402
47962	9.912310	0.308157	-0.182441	-0.176628	0.136019	0.103584	-0.478697	0.496183	0.524563	0.499484
47963	9.920157	0.327876	-0.244004	-0.157160	0.078689	0.114329	-0.478650	0.496214	0.524682	0.499375
47964	10.004218	0.416843	-0.379216	-0.070330	-0.051248	0.207012	-0.478771	0.496120	0.524728	0.499303
47965	9.942707	0.471307	-0.441850	-0.011277	-0.118463	0.150275	-0.478978	0.495959	0.524586	0.499414
47966	9.778039	0.470179	-0.389962	-0.003838	-0.079304	-0.015909	-0.479240	0.495792	0.524314	0.499615
47967	9.691472	0.474194	-0.346845	0.005757	-0.047037	-0.103541	-0.479467	0.495694	0.524029	0.499792
47968	9.667702	0.463563	-0.223389	-0.003210	0.067848	-0.131538	-0.479652	0.495639	0.523707	0.500006
47969	9.658085	0.453999	-0.164824	-0.011153	0.119287	-0.143275	-0.479699	0.495688	0.523376	0.500260
47970	9.662771	0.445634	-0.171333	-0.018068	0.107274	-0.138741	-0.479658	0.495817	0.522993	0.500572
47971	9.695111	0.444921	-0.171581	-0.019165	0.102487	-0.106416	-0.479567	0.495963	0.522577	0.500948
47972	9.717078	0.415595	-0.161449	-0.049063	0.107677	-0.086106	-0.479438	0.496117	0.522198	0.501315
47973	9.773910	0.394444	-0.178242	-0.072639	0.088380	-0.029867	-0.479264	0.496293	0.521886	0.501632
47974	9.795077	0.398125	-0.204033	-0.069930	0.060729	-0.007837	-0.479113	0.496435	0.521647	0.501884
47975	9.762276	0.428870	-0.228893	-0.037619	0.033573	-0.038445	-0.478985	0.496565	0.521452	0.502080
47976	9.759956	0.367177	-0.215330	-0.099213	0.045136	-0.044061	-0.478850	0.496714	0.521247	0.502274
47977	9.753774	0.385774	-0.207694	-0.080756	0.051261	-0.049546	-0.478725	0.496799	0.521074	0.502488
47978	9.752097	0.398773	-0.211770	-0.068518	0.044924	-0.050488	-0.478650	0.496836	0.520897	0.502707
47979	9.741123	0.401964	-0.231159	-0.065392	0.022508	-0.060780	-0.478583	0.496879	0.520722	0.502910
47980	9.784688	0.421370	-0.170968	-0.048796	0.081624	-0.017900	-0.478543	0.496920	0.520588	0.503047
47981	9.830514	0.403123	-0.211911	-0.068569	0.039475	0.028052	-0.478545	0.496968	0.520414	0.503176
47982	9.789200	0.390636	-0.217259	-0.077965	0.029079	-0.013641	-0.478610	0.496976	0.520148	0.503382
47983	9.708029	0.430403	-0.175992	-0.033282	0.063782	-0.093795	-0.478690	0.496972	0.519936	0.503529
47984	9.779581	0.485246	-0.207705	0.019835	0.030249	-0.018940	-0.478771	0.496993	0.519748	0.503625
47985	9.807949	0.444238	-0.345420	-0.020034	-0.111116	0.010743	-0.478870	0.496992	0.519513	0.503774
47986	9.785693	0.395943	-0.325719	-0.065358	-0.097513	-0.014276	-0.478957	0.497030	0.519191	0.503986
47987	9.790274	0.441191	-0.323258	-0.018119	-0.101342	-0.007688	-0.479115	0.497006	0.518848	0.504212
47988	9.770938	0.496982	-0.230143	0.040527	-0.016811	-0.026511	-0.479271	0.496985	0.518411	0.504535
47989	9.774222	0.500746	-0.239897	0.046552	-0.035596	-0.022883	-0.479394	0.497005	0.517956	0.504867
47990	9.730511	0.426105	-0.229207	-0.023703	-0.034919	-0.070246	-0.479514	0.497010	0.517511	0.505202
47991	9.718664	0.407021	-0.216648	-0.040238	-0.031284	-0.083225	-0.479609	0.497026	0.517077	0.505541
47992	9.699201	0.387504	-0.172886	-0.057283	0.004064	-0.104379	-0.479654	0.497062	0.516663	0.505886
47993	9.688567	0.388968	-0.188640	-0.054138	-0.018350	-0.114650	-0.479644	0.497136	0.516322	0.506171
47994	9.688708	0.408941	-0.142583	-0.033302	0.023130	-0.114389	-0.479604	0.497219	0.516052	0.506403
47995	9.718044	0.401920	-0.125267	-0.041183	0.037650	-0.085689	-0.479506	0.497332	0.515803	0.506638
47996	9.828464	0.418796	-0.209262	-0.029276	-0.047699	0.026761	-0.479422	0.497437	0.515524	0.506899
47997	9.851679	0.409221	-0.225441	-0.039539	-0.068512	0.049746	-0.479426	0.497473	0.515170	0.507219
47998	9.825835	0.399051	-0.291533	-0.047861	-0.142351	0.024422	-0.479513	0.497462	0.514771	0.507553
47999	9.789176	0.423309	-0.223255	-0.020357	-0.083201	-0.012195	-0.479635	0.497432	0.514368	0.507875
48000	9.783479	0.385940	-0.216679	-0.056052	-0.085232	-0.019733	-0.479755	0.497385	0.513986	0.508195
48001	9.753255	0.348821	-0.236080	-0.090767	-0.113782	-0.051427	-0.479945	0.497260	0.513648	0.508480
48002	9.725518	0.382708	-0.150922	-0.054160	-0.038542	-0.078700	-0.480141	0.497132	0.513290	0.508781
48003	9.737996	0.396892	-0.144084	-0.039039	-0.041217	-0.065707	-0.480320	0.497059	0.512884	0.509092
48004	9.713820	0.394229	-0.160595	-0.038756	-0.067258	-0.089855	-0.480505	0.496994	0.512494	0.509374
48005	9.747457	0.367906	-0.076071	-0.063978	0.008673	-0.058207	-0.480695	0.496916	0.512117	0.509650
48006	9.741594	0.329989	-0.069851	-0.099667	0.006639	-0.065767	-0.480863	0.496849	0.511790	0.509885
48007	9.701494	0.325835	-0.025189	-0.100401	0.044013	-0.106310	-0.480983	0.496780	0.511545	0.510085
48008	9.703673	0.322989	-0.087292	-0.102946	-0.022561	-0.103820	-0.481083	0.496724	0.511457	0.510133
48009	9.683950	0.369696	-0.115091	-0.054715	-0.052878	-0.121298	-0.481124	0.496738	0.511379	0.510159
48010	9.729004	0.364313	-0.163840	-0.061605	-0.101742	-0.076213	-0.481186	0.496705	0.511431	0.510080
48011	9.843634	0.405992	-0.106144	-0.024077	-0.043569	0.039761	-0.481315	0.496595	0.511520	0.509977
48012	9.896423	0.369164	-0.153034	-0.063102	-0.091302	0.091180	-0.481500	0.496428	0.511562	0.509922
48013	9.767495	0.310257	-0.136418	-0.115994	-0.078309	-0.040316	-0.481696	0.496240	0.511554	0.509929
48014	9.711666	0.425131	-0.089355	0.001677	-0.034987	-0.091374	-0.481865	0.496086	0.511618	0.509854
48015	9.675720	0.437479	-0.022072	0.016261	0.030936	-0.127120	-0.481988	0.495984	0.511693	0.509763
48016	9.658441	0.393320	0.026304	-0.026662	0.079844	-0.146572	-0.482040	0.495934	0.511809	0.509645
48017	9.610008	0.338834	-0.036727	-0.079488	0.019053	-0.196985	-0.482001	0.495946	0.511962	0.509517
48018	9.616225	0.319592	-0.046890	-0.099354	0.013862	-0.191562	-0.481948	0.495984	0.512256	0.509234
48019	9.683649	0.349026	-0.041879	-0.072809	0.025787	-0.122968	-0.481905	0.496037	0.512541	0.508937
48020	9.709984	0.400269	-0.080251	-0.022212	-0.006042	-0.094152	-0.481851	0.496142	0.512760	0.508665
48021	9.818612	0.406225	-0.030882	-0.019756	0.049664	0.014227	-0.481822	0.496223	0.512910	0.508462
48022	9.900352	0.362473	-0.069485	-0.066057	0.016036	0.094308	-0.481811	0.496285	0.513035	0.508285
48023	9.868412	0.338616	-0.107694	-0.087772	-0.019334	0.061711	-0.481822	0.496304	0.513136	0.508154
48024	9.774772	0.341949	-0.112151	-0.080201	-0.022615	-0.031648	-0.481832	0.496282	0.513243	0.508059
48025	9.762397	0.379179	-0.101734	-0.042560	-0.010788	-0.042498	-0.481869	0.496241	0.513357	0.507948
48026	9.716040	0.395769	-0.059490	-0.024079	0.032226	-0.088492	-0.481887	0.496206	0.513440	0.507882
48027	9.743632	0.402524	-0.052954	-0.019089	0.040018	-0.060702	-0.481854	0.496194	0.513503	0.507861
48028	9.723920	0.396760	-0.092510	-0.024983	0.001498	-0.080269	-0.481819	0.496175	0.513591	0.507825
48029	9.739189	0.387567	-0.083510	-0.035791	0.012423	-0.065505	-0.481764	0.496178	0.513694	0.507768
48030	9.730541	0.389304	-0.175154	-0.034439	-0.077038	-0.073153	-0.481688	0.496237	0.513757	0.507721
48031	9.767132	0.317869	-0.128979	-0.107171	-0.028525	-0.040163	-0.481656	0.496300	0.513765	0.507680
48032	9.733181	0.296154	-0.098306	-0.127023	0.003137	-0.075335	-0.481662	0.496293	0.513834	0.507611
48033	9.736191	0.269780	-0.084786	-0.153641	0.017200	-0.073618	-0.481706	0.496233	0.513881	0.507580
48034	9.738931	0.265199	-0.030118	-0.158746	0.072289	-0.071661	-0.481751	0.496154	0.514011	0.507483
48035	9.782014	0.295390	-0.046164	-0.131245	0.057726	-0.027156	-0.481816	0.496040	0.514176	0.507366
48036	9.779269	0.299916	-0.101032	-0.127550	0.003620	-0.029131	-0.481886	0.495919	0.514322	0.507270
48037	9.798914	0.360444	-0.054555	-0.068948	0.051345	-0.007371	-0.481971	0.495777	0.514534	0.507113
48038	9.818992	0.432248	-0.082767	0.000785	0.025232	0.016131	-0.482040	0.495642	0.514767	0.506943
48039	9.799676	0.437800	-0.195736	0.006048	-0.087131	-0.001673	-0.482118	0.495491	0.514887	0.506894
48040	9.702396	0.424601	-0.103555	-0.004140	0.002585	-0.100454	-0.482171	0.495390	0.514874	0.506956
48041	9.742099	0.415543	-0.064843	-0.016030	0.040083	-0.061610	-0.482149	0.495356	0.514855	0.507030
48042	9.671143	0.400340	-0.014783	-0.029085	0.089301	-0.133706	-0.482061	0.495403	0.514855	0.507068
48043	9.629550	0.357605	0.006098	-0.070925	0.111595	-0.177405	-0.481899	0.495501	0.514910	0.507070
48044	9.617243	0.341624	0.005453	-0.087412	0.115192	-0.190464	-0.481675	0.495668	0.515042	0.506985
48045	9.681780	0.343804	-0.012090	-0.089242	0.105425	-0.125782	-0.481397	0.495870	0.515258	0.506832
48046	9.727691	0.316278	0.010674	-0.120328	0.137257	-0.081562	-0.481096	0.496075	0.515502	0.506670
48047	9.769237	0.306184	-0.028735	-0.134052	0.107711	-0.040124	-0.480753	0.496310	0.515758	0.506505
48048	9.802884	0.349697	-0.028474	-0.094148	0.118087	-0.004689	-0.480426	0.496515	0.516022	0.506344
48049	9.836613	0.371808	-0.069231	-0.075745	0.087437	0.030514	-0.480097	0.496723	0.516300	0.506169
48050	9.868788	0.385250	-0.157199	-0.065886	0.008976	0.064644	-0.479818	0.496887	0.516541	0.506027
48051	9.844102	0.353927	-0.157037	-0.098159	0.015689	0.038525	-0.479592	0.496998	0.516720	0.505949
48052	9.805632	0.319238	-0.158889	-0.133251	0.018726	-0.001497	-0.479398	0.497068	0.516918	0.505863
48053	9.776296	0.326954	-0.177318	-0.126644	0.005085	-0.030140	-0.479234	0.497088	0.517157	0.505753
48054	9.753130	0.337424	-0.160164	-0.117722	0.026803	-0.053155	-0.479114	0.497068	0.517412	0.505627
48055	9.726850	0.373116	-0.156510	-0.082882	0.034956	-0.077841	-0.479043	0.497053	0.517684	0.505430
48056	9.771233	0.391081	-0.169683	-0.068400	0.027227	-0.032436	-0.478992	0.497032	0.517896	0.505282
48057	9.789624	0.410610	-0.141033	-0.051024	0.059968	-0.013757	-0.478977	0.496982	0.518116	0.505120
48058	9.798721	0.399280	-0.168925	-0.064183	0.035547	-0.004654	-0.478921	0.496941	0.518310	0.505014
48059	9.794002	0.384584	-0.199032	-0.080156	0.007450	-0.009448	-0.478935	0.496851	0.518454	0.504941
48060	9.783178	0.388636	-0.220462	-0.076945	-0.014976	-0.019625	-0.479020	0.496694	0.518470	0.504999
48061	9.711002	0.419363	-0.206624	-0.044309	-0.005407	-0.090541	-0.479122	0.496513	0.518494	0.505056
48062	9.795523	0.428386	-0.176246	-0.041104	0.023928	-0.006333	-0.479151	0.496390	0.518485	0.505158
48063	9.718837	0.411193	-0.157840	-0.056371	0.037701	-0.084111	-0.479156	0.496304	0.518394	0.505331
48064	9.657529	0.406102	-0.089913	-0.060292	0.102964	-0.146942	-0.479071	0.496304	0.518426	0.505379
48065	9.741792	0.404245	-0.179209	-0.067424	0.017441	-0.061114	-0.478968	0.496336	0.518570	0.505297
48066	9.735709	0.390868	-0.143088	-0.081596	0.056387	-0.068590	-0.478880	0.496384	0.518646	0.505256
48067	9.608509	0.341327	-0.083702	-0.125456	0.116787	-0.199282	-0.478757	0.496499	0.518795	0.505106
48068	9.562371	0.411807	-0.039908	-0.052723	0.167952	-0.242990	-0.478556	0.496717	0.519141	0.504727
48069	9.628535	0.421028	-0.015825	-0.046133	0.206075	-0.177253	-0.478256	0.497048	0.519528	0.504287
48070	9.711362	0.419010	-0.050479	-0.051499	0.187619	-0.094108	-0.477899	0.497404	0.519900	0.503891
48071	9.752326	0.385707	-0.135796	-0.086762	0.117073	-0.052880	-0.477531	0.497715	0.520258	0.503563
48072	9.821042	0.382071	-0.171935	-0.094947	0.094942	0.016370	-0.477166	0.497974	0.520550	0.503352
48073	9.913493	0.368439	-0.294360	-0.114579	-0.015447	0.111342	-0.476899	0.498132	0.520781	0.503209
48074	9.953581	0.360528	-0.264089	-0.126594	0.022110	0.150092	-0.476761	0.498152	0.520977	0.503117
48075	9.970178	0.371859	-0.282625	-0.117782	0.007058	0.167728	-0.476740	0.498102	0.521094	0.503065
48076	9.916375	0.399774	-0.279932	-0.088515	0.007827	0.115293	-0.476846	0.497935	0.521138	0.503085
48077	9.840226	0.403648	-0.219206	-0.082238	0.062587	0.037711	-0.476986	0.497744	0.521072	0.503210
48078	9.745695	0.410072	-0.147995	-0.072518	0.126100	-0.058330	-0.477127	0.497548	0.521015	0.503328
48079	9.718381	0.424804	-0.108081	-0.057336	0.160239	-0.085915	-0.477275	0.497388	0.520912	0.503453
48080	9.701737	0.413674	-0.087007	-0.067567	0.176251	-0.103580	-0.477409	0.497290	0.520813	0.503524
48081	9.741471	0.413808	-0.121103	-0.068409	0.139984	-0.062924	-0.477531	0.497228	0.520745	0.503540
48082	9.787375	0.394791	-0.161973	-0.088446	0.098045	-0.016904	-0.477656	0.497158	0.520726	0.503511
48083	9.853497	0.382334	-0.164468	-0.103418	0.095176	0.048594	-0.477772	0.497066	0.520704	0.503516
48084	9.846983	0.357177	-0.237473	-0.127883	0.019240	0.042784	-0.477931	0.496885	0.520733	0.503512
48085	9.777854	0.393380	-0.242274	-0.088398	0.009508	-0.024328	-0.478150	0.496676	0.520749	0.503494
48086	9.762943	0.445301	-0.166079	-0.035989	0.081605	-0.038590	-0.478370	0.496472	0.520733	0.503502
48087	9.749250	0.440659	-0.164335	-0.039481	0.078384	-0.052495	-0.478581	0.496300	0.520658	0.503549
48088	9.731240	0.409360	-0.116217	-0.069405	0.120387	-0.073140	-0.478815	0.496113	0.520542	0.503631
48089	9.732900	0.449064	-0.095508	-0.028946	0.135907	-0.069956	-0.479017	0.495980	0.520419	0.503696
48090	9.756182	0.406015	-0.078096	-0.071991	0.147956	-0.049135	-0.479198	0.495867	0.520229	0.503833
48091	9.731805	0.371501	-0.064599	-0.104188	0.154578	-0.075364	-0.479373	0.495758	0.520035	0.503974
48092	9.750263	0.421497	-0.060043	-0.054218	0.154575	-0.054508	-0.479549	0.495626	0.519932	0.504042
48093	9.799258	0.474060	-0.182726	-0.002224	0.027885	-0.000308	-0.479798	0.495452	0.519788	0.504125
48094	9.753463	0.413840	-0.180443	-0.059164	0.021425	-0.048984	-0.479981	0.495310	0.519514	0.504372
48095	9.703044	0.348947	-0.091623	-0.121070	0.101228	-0.104221	-0.480211	0.495163	0.519322	0.504495
48096	9.726196	0.392424	-0.098908	-0.077333	0.088782	-0.078788	-0.480411	0.495034	0.519190	0.504567
48097	9.756987	0.426009	-0.064973	-0.044296	0.118489	-0.047008	-0.480602	0.494906	0.519069	0.504635
48098	9.729456	0.417604	-0.067051	-0.050551	0.111549	-0.074813	-0.480726	0.494809	0.518981	0.504703
48099	9.738776	0.404705	-0.088808	-0.063718	0.087122	-0.065699	-0.480792	0.494720	0.518976	0.504732
48100	9.745045	0.417990	-0.124838	-0.050956	0.049148	-0.058141	-0.480895	0.494593	0.518974	0.504761
48101	9.795843	0.361763	-0.143430	-0.109940	0.027559	-0.009772	-0.481066	0.494395	0.518952	0.504815
48102	9.839001	0.337439	-0.161811	-0.136770	0.004874	0.032476	-0.481314	0.494113	0.518963	0.504843
48103	9.875832	0.408068	-0.124827	-0.068829	0.037208	0.072050	-0.481634	0.493774	0.518974	0.504859
48104	9.868428	0.471609	-0.152525	-0.004719	0.003821	0.068179	-0.481973	0.493458	0.518985	0.504833
48105	9.817961	0.559014	-0.157552	0.085519	-0.006414	0.022064	-0.482215	0.493238	0.518959	0.504844
48106	9.812182	0.555397	-0.186001	0.082545	-0.041318	0.016527	-0.482427	0.493014	0.518784	0.505039
48107	9.785935	0.611589	-0.127601	0.138913	0.007851	-0.007817	-0.482640	0.492778	0.518467	0.505391
48108	9.704475	0.599615	-0.089803	0.130112	0.033879	-0.090221	-0.482771	0.492642	0.518095	0.505780
48109	9.652407	0.558940	-0.080535	0.092423	0.033041	-0.144274	-0.482829	0.492657	0.517684	0.506131
48110	9.615650	0.453767	-0.070612	-0.009587	0.034388	-0.186144	-0.482828	0.492742	0.517282	0.506460
48111	9.596931	0.367785	-0.031080	-0.093612	0.068051	-0.209359	-0.482728	0.492904	0.516948	0.506740
48112	9.641256	0.350887	-0.003642	-0.111978	0.093202	-0.166148	-0.482588	0.493075	0.516696	0.506963
48113	9.681247	0.318389	-0.006525	-0.145569	0.089747	-0.127714	-0.482454	0.493259	0.516526	0.507084
48114	9.725936	0.334268	-0.015208	-0.131276	0.082147	-0.082229	-0.482311	0.493407	0.516426	0.507179
48115	9.809500	0.310896	-0.076812	-0.158358	0.022806	0.000735	-0.482191	0.493515	0.516432	0.507182
48116	9.814641	0.336578	-0.123283	-0.132633	-0.021924	0.007577	-0.482153	0.493574	0.516416	0.507177
48117	9.756885	0.345296	-0.029545	-0.121168	0.071779	-0.050665	-0.482163	0.493591	0.516409	0.507158
48118	9.727912	0.404269	-0.035806	-0.060295	0.066344	-0.076725	-0.482180	0.493603	0.516468	0.507069
48119	9.777733	0.392512	-0.098044	-0.073696	0.005256	-0.026867	-0.482165	0.493631	0.516440	0.507085
48120	9.762547	0.401101	-0.107573	-0.064190	-0.004760	-0.041524	-0.482207	0.493593	0.516440	0.507082
48121	9.845119	0.423013	-0.205822	-0.045660	-0.103598	0.043015	-0.482297	0.493507	0.516405	0.507116
48122	9.862344	0.432493	-0.216607	-0.036893	-0.118612	0.060730	-0.482433	0.493378	0.516208	0.507312
48123	9.708112	0.363049	-0.148558	-0.098751	-0.059289	-0.097336	-0.482566	0.493303	0.515916	0.507556
48124	9.685925	0.379143	-0.072527	-0.081266	0.010181	-0.119419	-0.482696	0.493201	0.515732	0.507718
48125	9.709292	0.369660	-0.088535	-0.091694	-0.010513	-0.096396	-0.482766	0.493116	0.515612	0.507856
48126	9.704560	0.321138	-0.079969	-0.140286	-0.005904	-0.103501	-0.482850	0.493018	0.515539	0.507945
48127	9.778447	0.333635	-0.193214	-0.130752	-0.120888	-0.028263	-0.483082	0.492799	0.515686	0.507787
48128	9.804256	0.480996	-0.134366	0.016658	-0.062038	0.004070	-0.483444	0.492594	0.515848	0.507478
48129	9.840475	0.460625	-0.077025	-0.002283	-0.005181	0.038862	-0.483660	0.492575	0.515841	0.507297
48130	9.784944	0.410568	-0.058189	-0.046632	0.013137	-0.019081	-0.483749	0.492617	0.515849	0.507164
48131	9.744998	0.330711	-0.070854	-0.122645	0.000880	-0.062593	-0.483797	0.492624	0.515923	0.507036
48132	9.664610	0.305272	-0.036861	-0.144277	0.033575	-0.144322	-0.483865	0.492530	0.515881	0.507105
48133	9.570499	0.331384	0.005107	-0.114520	0.070849	-0.237398	-0.483955	0.492428	0.515681	0.507322
48134	9.535783	0.440644	0.099550	-0.004499	0.159978	-0.267551	-0.483991	0.492400	0.515406	0.507594
48135	9.602142	0.512931	0.197849	0.064305	0.254466	-0.198401	-0.483834	0.492577	0.515068	0.507915
48136	9.653770	0.464139	0.225777	0.013675	0.280757	-0.149217	-0.483508	0.492930	0.514738	0.508216
48137	9.755433	0.428186	0.107948	-0.025482	0.164956	-0.048692	-0.483100	0.493389	0.514451	0.508450
48138	9.883234	0.412147	-0.009891	-0.046219	0.049865	0.078908	-0.482759	0.493760	0.514141	0.508727
48139	9.888742	0.359702	0.018535	-0.098828	0.077413	0.081815	-0.482452	0.494045	0.513732	0.509156
48140	9.839525	0.219413	-0.015908	-0.237890	0.040628	0.026338	-0.482157	0.494237	0.513465	0.509517
48141	9.875142	0.174420	-0.047241	-0.286762	0.008601	0.059940	-0.481968	0.494298	0.513374	0.509729
48142	9.877171	0.195788	-0.071405	-0.267768	-0.016892	0.063038	-0.481990	0.494177	0.513385	0.509815
48143	9.818236	0.305776	-0.005552	-0.156467	0.045572	0.008959	-0.482148	0.493973	0.513398	0.509849
48144	9.806751	0.406215	0.066024	-0.056197	0.113571	0.001877	-0.482294	0.493808	0.513402	0.509867
48145	9.782672	0.381657	0.122279	-0.079845	0.167939	-0.023575	-0.482370	0.493726	0.513460	0.509816
48146	9.793772	0.409874	0.111530	-0.051890	0.158628	-0.011129	-0.482424	0.493713	0.513635	0.509602
48147	9.761545	0.407188	0.113618	-0.051807	0.164070	-0.043508	-0.482461	0.493766	0.513774	0.509374
48148	9.643849	0.355332	0.070776	-0.096196	0.125198	-0.163326	-0.482436	0.493896	0.513926	0.509119
48149	9.700614	0.407536	0.094115	-0.044891	0.155734	-0.104413	-0.482404	0.494012	0.514227	0.508733
48150	9.917899	0.425370	-0.046188	-0.035932	0.024755	0.114341	-0.482395	0.494045	0.514562	0.508370
48151	9.864841	0.352508	-0.019239	-0.106147	0.056526	0.057736	-0.482366	0.494058	0.514712	0.508234
48152	9.761488	0.393436	-0.081124	-0.060997	-0.003023	-0.043128	-0.482286	0.494082	0.514829	0.508168
48153	9.712147	0.436537	-0.054518	-0.016240	0.026203	-0.090631	-0.482239	0.494123	0.514939	0.508060
48154	9.704034	0.435050	-0.025078	-0.017448	0.058325	-0.099064	-0.482172	0.494188	0.515003	0.507997
48155	9.697750	0.399334	-0.029587	-0.053051	0.056136	-0.106982	-0.482069	0.494267	0.515048	0.507972
48156	9.736493	0.356923	0.037523	-0.098025	0.126549	-0.070897	-0.481895	0.494390	0.515112	0.507952
48157	9.702610	0.315289	0.023280	-0.139049	0.116863	-0.106627	-0.481668	0.494551	0.515268	0.507853
48158	9.701036	0.274506	0.002341	-0.180885	0.102228	-0.109993	-0.481423	0.494726	0.515427	0.507753
48159	9.682498	0.277802	0.004674	-0.178060	0.111389	-0.128481	-0.481213	0.494855	0.515676	0.507573
48160	9.751669	0.349513	0.023963	-0.111129	0.138953	-0.056350	-0.481034	0.494957	0.515938	0.507378
48161	9.798804	0.419408	-0.049943	-0.044582	0.072781	-0.005156	-0.480862	0.495074	0.516160	0.507200
48162	9.836184	0.522427	-0.056611	0.055850	0.072572	0.037098	-0.480673	0.495235	0.516237	0.507144
48163	9.873395	0.570888	-0.068841	0.102171	0.064022	0.076703	-0.480448	0.495449	0.516106	0.507281
48164	9.896604	0.561969	-0.090143	0.091681	0.043376	0.099750	-0.480177	0.495682	0.515851	0.507570
48165	9.894190	0.490945	-0.191565	0.019984	-0.060163	0.095324	-0.479922	0.495902	0.515475	0.507978
48166	9.872589	0.411169	-0.207327	-0.059451	-0.081218	0.070122	-0.479754	0.496054	0.514992	0.508478
48167	9.832956	0.442331	-0.194344	-0.027135	-0.076886	0.031793	-0.479585	0.496197	0.514388	0.509109
48168	9.774824	0.475896	-0.171075	0.008728	-0.063871	-0.025003	-0.479396	0.496392	0.513728	0.509762
48169	9.694176	0.471946	-0.086956	0.008714	0.009747	-0.106650	-0.479091	0.496676	0.512963	0.510543
48170	9.683206	0.442766	-0.067573	-0.020634	0.019993	-0.119171	-0.478661	0.497053	0.512156	0.511389
48171	9.698211	0.379894	-0.056758	-0.085722	0.022637	-0.107278	-0.478156	0.497447	0.511298	0.512336
48172	9.709782	0.310575	-0.027193	-0.157545	0.044482	-0.099281	-0.477616	0.497848	0.510469	0.513276
48173	9.691045	0.260903	-0.019795	-0.208796	0.045284	-0.120465	-0.477084	0.498234	0.509747	0.514112
48174	9.640757	0.217778	0.037734	-0.250760	0.098851	-0.173165	-0.476530	0.498664	0.509166	0.514785
48175	9.669464	0.184263	-0.036038	-0.288883	0.024698	-0.145748	-0.476025	0.499087	0.508722	0.515280
48176	9.776718	0.128941	-0.038122	-0.350306	0.025038	-0.041354	-0.475691	0.499395	0.508446	0.515564
48177	9.815933	0.143535	-0.081045	-0.338390	-0.017786	-0.001220	-0.475588	0.499547	0.508257	0.515698
48178	9.783169	0.215121	-0.023577	-0.262714	0.037067	-0.030723	-0.475654	0.499558	0.508213	0.515669
48179	9.822539	0.308738	-0.136511	-0.172430	-0.077940	0.013828	-0.475827	0.499459	0.508340	0.515480
48180	9.855881	0.368864	-0.081878	-0.111468	-0.026147	0.049769	-0.476036	0.499310	0.508303	0.515468
48181	9.681075	0.339387	-0.097598	-0.131886	-0.045959	-0.126181	-0.476273	0.499118	0.508314	0.515424
48182	9.630666	0.475252	0.026930	0.009888	0.073765	-0.170552	-0.476441	0.499002	0.508467	0.515230
48183	9.656447	0.539004	-0.011855	0.073218	0.035562	-0.141544	-0.476601	0.498982	0.508634	0.514936
48184	9.719960	0.524133	0.048766	0.059467	0.100049	-0.079180	-0.476725	0.499019	0.508776	0.514646
48185	9.678034	0.477464	0.065733	0.018033	0.121951	-0.123444	-0.476737	0.499140	0.508916	0.514379
48186	9.723221	0.546157	0.061828	0.086216	0.122923	-0.075101	-0.476672	0.499254	0.509152	0.514095
48187	9.895611	0.599082	0.061445	0.131128	0.130260	0.099509	-0.476505	0.499384	0.509418	0.513860
48188	9.911681	0.420074	-0.078095	-0.052270	0.001288	0.108061	-0.476269	0.499534	0.509550	0.513802
48189	9.879024	0.366288	-0.086143	-0.106174	-0.001687	0.072929	-0.476141	0.499574	0.509651	0.513782
48190	9.847981	0.353664	-0.075800	-0.118957	0.010464	0.041210	-0.476083	0.499523	0.509740	0.513797
48191	9.791173	0.430137	-0.045966	-0.041886	0.038563	-0.012128	-0.476015	0.499425	0.509824	0.513870
48192	9.778009	0.542942	-0.151418	0.065817	-0.069596	-0.018914	-0.475907	0.499341	0.509872	0.514006
48193	9.766368	0.616472	-0.169452	0.136269	-0.090451	-0.026782	-0.475726	0.499387	0.509733	0.514266
48194	9.750849	0.599364	-0.266624	0.116079	-0.189416	-0.042322	-0.475430	0.499643	0.509380	0.514641
48195	9.723860	0.572224	-0.313143	0.088652	-0.237556	-0.070272	-0.475000	0.500082	0.508867	0.515120
48196	9.827236	0.529144	-0.251622	0.041742	-0.176850	0.030323	-0.474464	0.500612	0.508165	0.515791
48197	9.835846	0.350009	-0.179981	-0.136612	-0.104743	0.029525	-0.473932	0.501076	0.507445	0.516537
48198	9.732369	0.259508	-0.173078	-0.223538	-0.100691	-0.078408	-0.473425	0.501477	0.506803	0.517243
48199	9.601266	0.371549	-0.183332	-0.107828	-0.118497	-0.203822	-0.472862	0.501919	0.506257	0.517863
48200	9.540197	0.431928	-0.180737	-0.045842	-0.119044	-0.261859	-0.472246	0.502512	0.505687	0.518407
48201	9.569127	0.424348	-0.167711	-0.054165	-0.104220	-0.233408	-0.471525	0.503273	0.505035	0.518961
48202	9.686246	0.255282	-0.171931	-0.228017	-0.097557	-0.124727	-0.470775	0.504050	0.504475	0.519431
48203	9.762136	0.130956	-0.178886	-0.355786	-0.093841	-0.054969	-0.470145	0.504661	0.504087	0.519786
48204	9.686921	0.052595	-0.127368	-0.428924	-0.034411	-0.134347	-0.469654	0.505051	0.503951	0.519983
48205	9.607472	0.169398	-0.112250	-0.309232	-0.017916	-0.208060	-0.469287	0.505330	0.504128	0.519871
48206	9.625936	0.294430	-0.067903	-0.183916	0.031818	-0.183820	-0.468956	0.505652	0.504447	0.519548
48207	9.718341	0.355796	-0.073447	-0.127034	0.038578	-0.088465	-0.468560	0.506052	0.504823	0.519150
48208	9.878614	0.365522	0.000961	-0.122307	0.129668	0.071078	-0.468155	0.506353	0.505250	0.518806
48209	9.984400	0.441799	-0.123037	-0.059878	0.018601	0.182042	-0.467809	0.506451	0.505853	0.518434
48210	9.752851	0.485516	-0.001000	-0.005033	0.147779	-0.048879	-0.467339	0.506530	0.506349	0.518298
48211	9.469130	0.399431	0.025471	-0.083581	0.184686	-0.337271	-0.466818	0.506526	0.506951	0.518182
48212	9.394561	0.384332	0.079879	-0.102596	0.252473	-0.413881	-0.466260	0.506458	0.507855	0.517866
48213	9.563622	0.510482	0.025055	0.000702	0.213884	-0.237809	-0.465656	0.506419	0.508862	0.517459
48214	9.744385	0.564892	-0.013174	0.032812	0.196654	-0.053972	-0.465061	0.506450	0.509741	0.517097
48215	9.889646	0.570234	-0.109555	0.016336	0.121297	0.093233	-0.464516	0.506477	0.510502	0.516811
48216	10.002584	0.593058	-0.155234	0.022184	0.091906	0.208218	-0.464131	0.506430	0.511109	0.516603
48217	10.008161	0.635061	-0.160289	0.056358	0.095182	0.216273	-0.463945	0.506276	0.511623	0.516413
48218	9.996918	0.698835	-0.174867	0.113833	0.081145	0.209177	-0.463896	0.506024	0.511803	0.516525
48219	9.840131	0.638811	-0.165213	0.057592	0.085064	0.049006	-0.463883	0.505750	0.511757	0.516850
48220	9.750808	0.662516	-0.133210	0.081649	0.109627	-0.039447	-0.463763	0.505534	0.511859	0.517069
48221	9.762643	0.665199	-0.176890	0.075218	0.066107	-0.026322	-0.463463	0.505469	0.511993	0.517267
48222	9.742518	0.559471	-0.237829	-0.038437	0.010618	-0.051302	-0.463085	0.505472	0.512067	0.517531
48223	9.808206	0.574838	-0.201024	-0.032659	0.049310	0.014228	-0.462789	0.505390	0.512107	0.517835
48224	10.014431	0.752909	-0.196751	0.125745	0.049857	0.231022	-0.462650	0.505215	0.512063	0.518174
48225	10.136653	0.853957	-0.153426	0.215865	0.086249	0.358373	-0.462551	0.505145	0.511743	0.518646
48226	9.979078	0.749074	-0.155234	0.118571	0.074944	0.194686	-0.462574	0.505072	0.511273	0.519160
48227	9.735438	0.687235	-0.105678	0.074197	0.109509	-0.053348	-0.462620	0.505102	0.510679	0.519675
48228	9.652144	0.501294	-0.081280	-0.102899	0.129025	-0.148603	-0.462654	0.505230	0.510032	0.520156
48229	9.648542	0.375053	-0.121949	-0.226869	0.084048	-0.159120	-0.462731	0.505388	0.509393	0.520559
48230	9.685005	0.251779	-0.200369	-0.351320	0.002627	-0.128710	-0.462848	0.505529	0.508759	0.520938
48231	9.727462	0.129141	-0.242823	-0.473641	-0.043376	-0.092969	-0.463114	0.505529	0.508210	0.521237
48232	9.738478	0.241065	-0.260137	-0.358920	-0.076823	-0.074669	-0.463504	0.505410	0.507772	0.521433
48233	9.746298	0.398464	-0.248193	-0.196846	-0.082657	-0.057426	-0.463937	0.505281	0.507433	0.521502
48234	9.693022	0.418959	-0.236425	-0.166931	-0.082194	-0.109519	-0.464369	0.505192	0.507081	0.521547
48235	9.664943	0.356811	-0.131267	-0.216917	0.017174	-0.142717	-0.464751	0.505063	0.506862	0.521546
48236	9.679564	0.381630	-0.031946	-0.185219	0.110448	-0.127951	-0.464998	0.504916	0.506874	0.521456
48237	9.661447	0.416410	-0.051581	-0.149556	0.086906	-0.143680	-0.465165	0.504760	0.506972	0.521362
48238	9.686376	0.439833	0.065768	-0.121978	0.203171	-0.119004	-0.465331	0.504618	0.507152	0.521176
48239	9.765592	0.459147	-0.015185	-0.110679	0.124101	-0.037710	-0.465576	0.504412	0.507471	0.520846
48240	9.731476	0.489032	0.024936	-0.076010	0.163782	-0.070573	-0.465780	0.504302	0.507632	0.520614
48241	9.639833	0.458526	-0.013851	-0.101290	0.125184	-0.163289	-0.465947	0.504221	0.507707	0.520469
48242	9.696574	0.402904	-0.002317	-0.158548	0.139266	-0.110041	-0.466132	0.504071	0.507795	0.520363
48243	9.809181	0.376330	-0.048878	-0.193980	0.094829	0.001457	-0.466311	0.503835	0.508010	0.520221
48244	9.892713	0.358046	-0.109622	-0.221674	0.036025	0.084562	-0.466522	0.503487	0.508359	0.520028
48245	9.831295	0.366272	-0.117020	-0.213599	0.026966	0.023768	-0.466820	0.502992	0.508823	0.519786
48246	9.780596	0.458514	-0.122619	-0.122844	0.016654	-0.021367	-0.467135	0.502475	0.509339	0.519497
48247	9.783765	0.469246	-0.139510	-0.116786	-0.002008	-0.017379	-0.467536	0.501898	0.509761	0.519281
48248	9.797488	0.474970	-0.131233	-0.114855	0.002322	-0.003488	-0.468019	0.501277	0.510129	0.519084
48249	9.821555	0.529607	-0.087882	-0.062979	0.038083	0.023253	-0.468536	0.500651	0.510387	0.518968
48250	9.817182	0.570404	-0.097316	-0.024702	0.018358	0.021484	-0.469083	0.500011	0.510482	0.518997
48251	9.773855	0.594410	-0.061352	0.001119	0.041772	-0.020671	-0.469619	0.499417	0.510473	0.519093
48252	9.714276	0.533017	-0.062401	-0.057837	0.030990	-0.083820	-0.470133	0.498873	0.510500	0.519125
48253	9.695246	0.501228	-0.012572	-0.087604	0.072768	-0.105154	-0.470593	0.498408	0.510581	0.519074
48254	9.705620	0.496574	0.017607	-0.092423	0.096268	-0.095273	-0.471044	0.497956	0.510710	0.518973
48255	9.689643	0.526254	0.054871	-0.061372	0.127310	-0.109638	-0.471455	0.497524	0.510923	0.518804
48256	9.681914	0.558078	0.058669	-0.029831	0.126749	-0.115400	-0.471791	0.497160	0.511140	0.518634
48257	9.738902	0.591852	0.051103	-0.000366	0.116628	-0.056381	-0.472081	0.496864	0.511346	0.518450
48258	9.759801	0.555520	0.008612	-0.039043	0.074165	-0.037445	-0.472275	0.496682	0.511501	0.518295
48259	9.746100	0.551374	0.005412	-0.042340	0.070841	-0.051350	-0.472437	0.496526	0.511666	0.518134
48260	9.729332	0.627303	-0.001890	0.034419	0.062472	-0.063414	-0.472524	0.496454	0.511805	0.517987
48261	9.731657	0.592692	-0.038443	-0.000613	0.028609	-0.062964	-0.472552	0.496462	0.511918	0.517842
48262	9.786711	0.604906	-0.025215	0.009093	0.044422	-0.007373	-0.472535	0.496498	0.512003	0.517739
48263	9.808800	0.609137	-0.054454	0.011486	0.017156	0.015137	-0.472520	0.496509	0.512059	0.517687
48264	9.755242	0.582384	-0.062913	-0.012595	0.009086	-0.039886	-0.472424	0.496561	0.511967	0.517816
48265	9.686482	0.539630	-0.000778	-0.050642	0.070948	-0.111577	-0.472274	0.496648	0.511858	0.517977
48266	9.742045	0.587210	-0.016948	-0.008226	0.054112	-0.053100	-0.472081	0.496759	0.511762	0.518140
48267	9.841664	0.618901	-0.007576	0.015982	0.062267	0.048211	-0.471831	0.496920	0.511456	0.518515
48268	9.889760	0.644558	-0.027675	0.036544	0.035935	0.097960	-0.471580	0.497092	0.510842	0.519184
48269	9.865347	0.557971	-0.022592	-0.049399	0.033809	0.068271	-0.471364	0.497268	0.510194	0.519848
48270	9.888914	0.549452	-0.035072	-0.060010	0.013300	0.091351	-0.471221	0.497424	0.509675	0.520338
48271	9.706439	0.524487	0.031150	-0.071437	0.072096	-0.092569	-0.471055	0.497609	0.509153	0.520821
48272	9.630544	0.545457	0.066048	-0.044489	0.100216	-0.167106	-0.470920	0.497748	0.508776	0.521180
48273	9.665733	0.519020	0.077558	-0.072230	0.109449	-0.133607	-0.470769	0.497929	0.508503	0.521410
48274	9.732912	0.486684	0.033863	-0.109406	0.066078	-0.068394	-0.470606	0.498115	0.508302	0.521576
48275	9.812045	0.464178	-0.060635	-0.139354	-0.028046	0.009490	-0.470576	0.498169	0.508182	0.521668
48276	9.915921	0.454043	-0.030336	-0.154186	0.000394	0.112472	-0.470658	0.498131	0.508019	0.521789
48277	9.890656	0.445597	0.069874	-0.156355	0.095687	0.086551	-0.470847	0.498046	0.507806	0.521906
48278	9.897036	0.423892	0.069366	-0.176296	0.090517	0.091682	-0.470951	0.498069	0.507547	0.522042
48279	9.938108	0.309174	-0.031489	-0.294065	-0.010093	0.125924	-0.470972	0.498197	0.507276	0.522165
48280	10.076473	0.243166	0.088695	-0.360398	0.107617	0.260089	-0.471099	0.498303	0.506812	0.522400
48281	9.870345	0.114220	0.156274	-0.469916	0.170391	0.046893	-0.471117	0.498496	0.506080	0.522909
48282	9.742847	0.005222	0.315657	-0.562330	0.323218	-0.086329	-0.471091	0.498584	0.505441	0.523466
48283	9.619462	0.043584	0.123653	-0.524442	0.121366	-0.207404	-0.470963	0.498584	0.505061	0.523948
48284	9.883176	0.214904	0.160582	-0.369618	0.144830	0.066156	-0.470796	0.498676	0.504620	0.524435
48285	10.039695	0.034197	0.204342	-0.556133	0.189181	0.211949	-0.470645	0.499005	0.503937	0.524914
48286	9.997896	-0.235417	0.138245	-0.821875	0.129047	0.154274	-0.470532	0.499259	0.503420	0.525270
48287	9.765960	-0.237584	0.187026	-0.808570	0.175080	-0.077136	-0.470343	0.499243	0.503293	0.525575
48288	9.491532	-0.182146	0.179075	-0.744230	0.163419	-0.348342	-0.470046	0.498984	0.503419	0.525967
48289	9.271904	-0.102202	0.236448	-0.661228	0.214986	-0.563304	-0.469616	0.498577	0.503559	0.526602
48290	9.272897	-0.038535	0.306052	-0.612455	0.278531	-0.559090	-0.468996	0.498044	0.503879	0.527353
48291	9.491665	0.064417	0.189357	-0.551243	0.157654	-0.336246	-0.468188	0.497555	0.504530	0.527909
48292	9.711275	0.061862	0.044602	-0.598176	0.019838	-0.119576	-0.467434	0.497090	0.505447	0.528139
48293	9.785299	-0.141533	0.024604	-0.828219	0.019149	-0.061464	-0.466776	0.496680	0.506354	0.528238
48294	9.869099	-0.115004	0.045743	-0.826465	0.049502	0.022398	-0.466198	0.496234	0.507289	0.528269
48295	9.930877	0.041425	0.140382	-0.691587	0.146520	0.094075	-0.465665	0.495630	0.508261	0.528373
48296	9.901953	0.071845	0.121018	-0.684380	0.132582	0.065697	-0.465116	0.494765	0.509338	0.528629
48297	10.159432	0.189670	0.560730	-0.597752	0.567250	0.330552	-0.464726	0.493636	0.510109	0.529285
48298	10.126958	0.189150	0.759671	-0.618045	0.755435	0.297476	-0.464423	0.492410	0.510489	0.530325
48299	10.052280	0.103356	0.967285	-0.719820	0.949455	0.216018	-0.464194	0.491054	0.510838	0.531446
48300	9.808451	0.239865	0.962154	-0.595600	0.922273	-0.015568	-0.464154	0.489404	0.511606	0.532263
48301	9.839846	0.586891	0.848038	-0.290791	0.774665	0.046388	-0.464313	0.487613	0.512059	0.533331
48302	9.525384	0.593173	0.987470	-0.282196	0.880659	-0.262586	-0.464982	0.485335	0.511829	0.535044
48303	9.397966	0.508454	1.168498	-0.380670	1.020864	-0.391523	-0.466400	0.482345	0.512365	0.536000
48304	9.554995	0.362036	1.104206	-0.579307	0.914944	-0.248416	-0.468256	0.478906	0.513513	0.536367
48305	9.746565	0.267659	0.743230	-0.736003	0.505442	-0.075025	-0.470884	0.474896	0.514943	0.536261
48306	9.690728	0.345702	0.911568	-0.680356	0.617690	-0.116509	-0.474427	0.470231	0.516522	0.535730
48307	9.207537	0.843931	0.910693	-0.157684	0.577374	-0.541123	-0.478121	0.465852	0.518437	0.534420
48308	9.278317	1.557208	0.256223	0.533103	-0.104421	-0.416805	-0.481234	0.462240	0.520759	0.532501
48309	9.596111	2.035043	0.369412	0.960084	-0.008225	-0.043278	-0.483829	0.458937	0.522857	0.530949
48310	9.641030	2.180558	0.495099	1.075116	0.114704	0.025011	-0.485293	0.455988	0.525065	0.529974
48311	9.730307	1.801006	0.153562	0.663059	-0.235191	0.059037	-0.485423	0.453403	0.527793	0.529363
48312	9.965845	1.596883	-0.064875	0.391277	-0.454700	0.262637	-0.484748	0.451046	0.530765	0.529022
48313	9.704348	1.620147	-0.379330	0.401914	-0.730875	-0.002129	-0.483638	0.448666	0.534235	0.528570
48314	9.499561	2.152708	-0.267316	0.884642	-0.552917	-0.124630	-0.481887	0.446549	0.537746	0.528401
48315	9.522928	2.207923	-0.376130	0.868207	-0.617458	-0.088140	-0.479268	0.444844	0.541521	0.528367
48316	10.024777	2.285704	-0.445323	0.790104	-0.645868	0.428233	-0.475759	0.443453	0.545534	0.528579
48317	9.846900	2.632534	-0.707076	1.076764	-0.815003	0.314832	-0.471347	0.442574	0.549866	0.528780
48318	9.658689	2.968856	-0.681845	1.333296	-0.691992	0.202868	-0.466448	0.441908	0.554065	0.529298
48319	9.523807	3.093922	-0.394199	1.355307	-0.322252	0.111450	-0.460773	0.441794	0.557899	0.530335
48320	9.096201	2.710300	-0.828548	0.973931	-0.702630	-0.361258	-0.454691	0.442120	0.561380	0.531638
48321	9.082545	2.356962	-0.955921	0.533197	-0.781817	-0.428394	-0.448768	0.442482	0.564342	0.533230
48322	8.959615	1.948462	-1.109240	0.069627	-0.895856	-0.620665	-0.443491	0.442674	0.567074	0.534586
48323	9.057770	1.818015	-1.102931	-0.162708	-0.838128	-0.547960	-0.439260	0.442486	0.569856	0.535276
48324	9.471154	1.876871	-1.236822	-0.265108	-0.905871	-0.124363	-0.435973	0.441855	0.572844	0.535296
48325	9.430123	2.367406	-0.783549	0.140443	-0.380416	-0.066878	-0.433263	0.441032	0.575846	0.534953
48326	9.214453	2.584947	-0.814014	0.346825	-0.351285	-0.220686	-0.430485	0.440703	0.578950	0.534116
48327	9.175346	2.682283	-0.892834	0.404373	-0.365334	-0.227213	-0.427793	0.440674	0.581750	0.533260
48328	9.375264	2.723215	-0.825933	0.350177	-0.228006	-0.023987	-0.425234	0.440998	0.584086	0.532485
48329	9.872452	2.916813	-0.468621	0.365148	0.211970	0.483635	-0.423002	0.441475	0.585365	0.532463
48330	10.002011	2.928133	0.028102	0.298376	0.747336	0.578046	-0.420814	0.442325	0.585869	0.532936
48331	9.293350	2.829276	-0.692350	0.385697	0.009677	-0.081214	-0.418305	0.444011	0.585936	0.533437
48332	9.354840	3.078749	-0.860020	0.603675	-0.119081	0.054061	-0.416250	0.445769	0.585546	0.534006
48333	9.937716	3.152006	-0.675788	0.515767	0.118465	0.621390	-0.413824	0.448124	0.584121	0.535479
48334	10.736293	2.230629	-1.482453	-0.570936	-0.649935	1.218766	-0.411742	0.450565	0.582619	0.536670
48335	10.282271	1.953863	-1.694426	-0.717779	-0.896180	0.727493	-0.410631	0.452581	0.580711	0.537891
48336	9.992506	2.244682	-0.892043	-0.347055	-0.127632	0.460952	-0.410358	0.454317	0.578132	0.539412
48337	9.811481	2.073176	-0.742842	-0.437024	-0.028246	0.233356	-0.411144	0.455764	0.575164	0.540764
48338	9.639411	1.882321	-1.028979	-0.542162	-0.374949	0.040496	-0.412470	0.457239	0.571487	0.542405
48339	9.928310	2.155029	-0.711381	-0.291567	-0.103539	0.366953	-0.414667	0.458461	0.567351	0.544038
48340	9.814103	2.028518	-0.649069	-0.324228	-0.122688	0.223833	-0.417293	0.459723	0.562973	0.545512
48341	9.430036	1.904168	-0.957377	-0.298209	-0.521299	-0.163512	-0.419917	0.461143	0.558760	0.546630
48342	9.613919	2.124991	-0.841292	-0.053249	-0.476275	0.057476	-0.423310	0.461883	0.554423	0.547803
48343	9.431779	1.818819	-0.549311	-0.237547	-0.270591	-0.198236	-0.426677	0.462442	0.550002	0.549173
48344	9.398498	1.833984	0.533101	-0.121668	0.723456	-0.250243	-0.429892	0.462712	0.545751	0.550678
48345	8.501803	1.873942	-0.747642	0.112845	-0.643087	-1.099215	-0.432194	0.463595	0.542661	0.551187
48346	8.674117	2.202792	-1.062848	0.438942	-1.015694	-0.868556	-0.434794	0.464082	0.539581	0.551757
48347	9.876187	2.709869	0.264596	0.802948	0.238709	0.397597	-0.437754	0.464174	0.535896	0.552928
48348	9.627879	2.437382	0.398693	0.640297	0.297598	0.101769	-0.440780	0.464089	0.532091	0.554269
48349	8.907216	2.006306	1.311191	0.428519	1.154823	-0.671286	-0.442899	0.464450	0.528616	0.555600
48350	8.413553	1.670294	0.296021	0.184771	0.118897	-1.232653	-0.443495	0.465977	0.526368	0.555981
48351	8.359451	1.627453	-0.354179	0.156735	-0.534022	-1.307122	-0.443351	0.468106	0.524962	0.555636
48352	9.425926	2.091211	-2.152877	0.382910	-2.369116	-0.215987	-0.444427	0.469123	0.523495	0.555302
48353	9.873948	2.936515	0.888868	1.319701	0.577380	0.426087	-0.447032	0.468478	0.520754	0.556333
48354	9.845054	2.200746	0.745820	0.629116	0.403394	0.275207	-0.449295	0.468267	0.517956	0.557299
48355	9.789769	1.621908	1.363793	0.134639	0.988514	0.153975	-0.451540	0.468094	0.515212	0.558172
48356	9.946941	0.939940	0.438579	-0.565155	0.052153	0.172056	-0.453015	0.469110	0.513030	0.558134
48357	9.420228	0.896048	-0.267138	-0.517132	-0.644568	-0.382319	-0.454156	0.470760	0.511704	0.557033
48358	9.594102	1.821402	-0.482283	0.408180	-0.915359	-0.086834	-0.455326	0.472059	0.510824	0.555785
48359	9.756051	2.344323	0.058060	0.972203	-0.414718	0.165411	-0.456945	0.472532	0.509914	0.554890
48360	9.638295	2.409633	0.904921	1.131864	0.410595	0.090446	-0.458786	0.472595	0.508432	0.554677
48361	8.976641	2.264383	1.363783	1.134133	0.874882	-0.565224	-0.460214	0.473240	0.506674	0.554553
48362	8.572387	2.004200	1.130050	0.956899	0.659741	-1.013337	-0.460870	0.475071	0.505099	0.553879
48363	8.620981	1.742322	0.412329	0.697234	-0.029797	-1.035458	-0.460643	0.477839	0.504327	0.552388
48364	8.647100	1.613845	-0.250837	0.573226	-0.648735	-1.055404	-0.460152	0.480866	0.504121	0.550354
48365	8.731852	1.979624	-0.065067	0.980657	-0.442402	-0.923897	-0.459863	0.483772	0.504271	0.547906
48366	8.900802	2.242500	0.735942	1.316481	0.385126	-0.707039	-0.459685	0.486660	0.504381	0.545392
48367	9.381889	1.958878	1.060630	1.052287	0.771843	-0.258714	-0.458931	0.489876	0.504704	0.542843
48368	9.995588	0.833445	0.706961	-0.103085	0.550571	0.226824	-0.457805	0.492997	0.505692	0.540041
48369	10.242305	-0.255572	0.437536	-1.188271	0.423840	0.364219	-0.457497	0.494922	0.507592	0.536749
48370	9.993984	-0.260644	0.346857	-1.145492	0.396978	0.116960	-0.458424	0.495579	0.510092	0.532968
48371	9.625497	0.152145	0.475363	-0.665406	0.550688	-0.213050	-0.460310	0.495641	0.512663	0.528802
48372	9.726472	1.382611	1.051932	0.609347	1.121679	-0.015104	-0.462631	0.495656	0.515003	0.524470
48373	10.264183	1.272584	1.086119	0.493625	1.217567	0.503616	-0.464646	0.495953	0.516949	0.520480
48374	10.722236	0.911280	1.063831	0.133767	1.262602	0.925849	-0.466320	0.496271	0.518866	0.516758
48375	10.875478	0.550789	0.948656	-0.207015	1.204242	1.049451	-0.467971	0.496383	0.520790	0.513210
48376	10.492700	0.904212	0.838019	0.200661	1.124197	0.690278	-0.469469	0.496618	0.522656	0.509706
48377	10.070944	1.304766	0.534565	0.656589	0.852305	0.299399	-0.470643	0.497183	0.524170	0.506507
48378	9.800585	1.467545	0.419655	0.868080	0.769350	0.037978	-0.471561	0.498051	0.524963	0.503974
48379	9.650784	1.226116	0.275184	0.669652	0.653268	-0.125514	-0.471977	0.499426	0.525258	0.501911
48380	9.694927	0.773417	0.098875	0.249238	0.510994	-0.103098	-0.471997	0.501114	0.525371	0.500089
48381	9.665278	0.550488	0.060412	0.061682	0.503854	-0.144883	-0.471972	0.502865	0.525295	0.498433
48382	9.864262	0.419222	-0.128451	-0.043156	0.354510	0.054844	-0.472001	0.504730	0.524893	0.496940
48383	10.268349	0.422831	-0.205801	-0.016317	0.319330	0.461440	-0.472432	0.506510	0.523878	0.495790
48384	10.823216	0.445519	-0.076086	0.034020	0.480449	1.009235	-0.473419	0.508122	0.521930	0.495253
48385	11.277279	0.475174	0.038681	0.105981	0.593995	1.458506	-0.474969	0.509344	0.519106	0.495481
48386	11.383027	0.767223	0.521129	0.460559	1.020720	1.552990	-0.476812	0.510398	0.514823	0.497093
48387	11.000858	1.018434	0.785056	0.792632	1.178027	1.171626	-0.478323	0.511941	0.509288	0.499749
48388	10.439974	0.937201	0.915901	0.797443	1.191920	0.610956	-0.479047	0.514322	0.502594	0.503374
48389	9.498826	0.229352	0.572582	0.159471	0.751231	-0.324938	-0.479117	0.517031	0.495359	0.507686
48390	8.748456	-0.653968	0.403116	-0.672116	0.530393	-1.072433	-0.478755	0.519595	0.488285	0.512243
48391	8.304929	-1.396619	0.066580	-1.395674	0.180281	-1.509302	-0.477825	0.521965	0.482164	0.516482
48392	8.912440	-1.783527	-0.263314	-1.782929	-0.157239	-0.897632	-0.477029	0.523693	0.477483	0.519806
48393	9.723883	-1.810853	-0.372385	-1.797537	-0.296556	-0.083732	-0.476523	0.525378	0.473607	0.522112
48394	10.412817	-1.274646	-0.606988	-1.247829	-0.612789	0.603026	-0.476744	0.527385	0.469682	0.523430
48395	10.523253	-0.999568	-0.296857	-0.889115	-0.370651	0.718109	-0.477465	0.529679	0.464713	0.524889
48396	9.622905	-0.948082	0.259823	-0.729295	0.152756	-0.168468	-0.477906	0.532365	0.459617	0.526256
48397	9.005950	-1.559626	-0.470308	-1.372114	-0.510100	-0.778444	-0.478041	0.535399	0.455529	0.526609
48398	9.293600	-2.027829	-0.205066	-1.734919	-0.207990	-0.460064	-0.478915	0.537822	0.451857	0.526510
48399	9.098445	-2.794534	-0.532862	-2.474050	-0.446097	-0.617330	-0.480594	0.540149	0.448154	0.525763
48400	9.720708	-2.612091	-0.022395	-2.113041	-0.007494	0.028540	-0.483494	0.542127	0.444666	0.524027
48401	9.929471	-1.917562	0.632840	-1.225234	0.519061	0.232225	-0.486551	0.544359	0.441755	0.521338
48402	10.012836	-1.235777	-0.503420	-0.584815	-0.698312	0.247468	-0.489074	0.547127	0.440297	0.517299
48403	10.359069	-0.782067	-0.735585	-0.031537	-0.984404	0.555150	-0.491660	0.549343	0.438761	0.513791
48404	10.237996	-0.976969	-0.487904	-0.105844	-0.705823	0.458584	-0.493396	0.551731	0.436452	0.511530
48405	9.323890	-1.136217	-0.265529	-0.239465	-0.432371	-0.429102	-0.494957	0.553864	0.434591	0.509296
48406	9.066816	-1.231669	-0.372310	-0.303436	-0.508401	-0.674207	-0.496036	0.556171	0.433117	0.506983
48407	9.172502	-1.089750	-0.965993	-0.163313	-1.102129	-0.592397	-0.497364	0.557966	0.432429	0.504290
48408	10.218719	-1.400259	-1.003831	-0.290236	-1.120693	0.485375	-0.498648	0.559454	0.431239	0.502389
48409	10.597138	-1.649969	-0.235302	-0.335309	-0.336267	0.904185	-0.500110	0.560349	0.430452	0.500610
48410	9.513361	-1.521475	-0.244783	-0.298279	-0.328221	-0.185539	-0.501427	0.561230	0.429956	0.498729
48411	9.150239	-1.330251	-0.250442	-0.117444	-0.337727	-0.569788	-0.502513	0.562014	0.430080	0.496641
48412	9.035363	-1.382926	-0.357885	-0.165122	-0.422314	-0.676350	-0.503245	0.562682	0.430217	0.495022
48413	9.240683	-1.414098	-0.202290	-0.125593	-0.260219	-0.466710	-0.504078	0.562797	0.430577	0.493729
48414	9.390040	-1.166854	-0.597086	0.104495	-0.681369	-0.356698	-0.504411	0.562714	0.430686	0.493387
48415	9.498574	-1.244968	-0.147589	0.092048	-0.231654	-0.234979	-0.504510	0.562133	0.431021	0.493657
48416	9.274464	-1.086670	-0.499977	0.158114	-0.599082	-0.481956	-0.504309	0.561103	0.431899	0.494268
48417	9.723537	-1.121496	-0.684311	0.132491	-0.799703	-0.034345	-0.503841	0.559778	0.432369	0.495832
48418	9.526568	-1.272302	-0.390383	-0.053758	-0.510282	-0.207321	-0.503637	0.557600	0.432882	0.498041
48419	9.472023	-1.094980	-0.161236	0.085021	-0.331446	-0.282380	-0.502990	0.555436	0.433490	0.500578
48420	9.357198	-1.319032	-0.443591	-0.245806	-0.613907	-0.375739	-0.502167	0.552951	0.434203	0.503529
48421	9.288001	-1.373243	0.750513	-0.242029	0.546943	-0.412808	-0.501348	0.550053	0.435190	0.506658
48422	9.383267	-1.277400	-0.042103	-0.305530	-0.280299	-0.351885	-0.500084	0.547456	0.436896	0.509244
48423	9.732459	-1.424159	-0.355106	-0.531172	-0.606904	-0.003302	-0.498949	0.544785	0.438599	0.511752
48424	10.082820	-1.320137	0.319503	-0.399710	0.013395	0.353313	-0.497852	0.542179	0.439773	0.514572
48425	9.780997	-1.348390	0.597269	-0.499808	0.284392	0.062108	-0.496563	0.539737	0.441296	0.517075
48426	9.454577	-1.384708	-0.148984	-0.722268	-0.444899	-0.293836	-0.495082	0.537360	0.443728	0.518887
48427	9.382086	-1.612354	-0.280749	-1.043193	-0.550068	-0.362251	-0.494196	0.534482	0.446533	0.520296
48428	9.726828	-1.628521	-0.036981	-1.085744	-0.329948	-0.015928	-0.493318	0.531867	0.448803	0.521854
48429	9.770250	-1.017763	0.457299	-0.491056	0.087901	0.008391	-0.492398	0.529832	0.450468	0.523355
48430	9.697136	-1.173834	0.040330	-0.751471	-0.314355	-0.078718	-0.491827	0.527647	0.452309	0.524511
48431	9.477415	-1.154016	0.262757	-0.773790	-0.088809	-0.293481	-0.491131	0.525550	0.454482	0.525389
48432	9.225525	-1.170856	-0.451130	-0.923594	-0.777460	-0.580839	-0.490363	0.523507	0.457586	0.525452
48433	9.208961	-0.951127	-0.591451	-0.768081	-0.920042	-0.613623	-0.489613	0.521626	0.460732	0.525272
48434	9.632395	-1.404155	-0.416155	-1.240803	-0.707270	-0.174853	-0.488915	0.519869	0.463538	0.525196
48435	9.780060	-1.042118	0.221927	-0.869669	-0.090644	-0.013704	-0.487836	0.518605	0.466052	0.525224
48436	9.754975	-1.154434	-0.149151	-1.060505	-0.424577	-0.055161	-0.486852	0.517098	0.469269	0.524759
48437	9.604365	-0.745302	-0.044907	-0.698046	-0.319439	-0.209996	-0.485803	0.515229	0.472738	0.524455
48438	9.370584	-0.979680	-0.342786	-1.012762	-0.563355	-0.456315	-0.484712	0.513004	0.476778	0.523989
48439	9.402661	-0.374852	0.140941	-0.439774	-0.092544	-0.412261	-0.483043	0.511164	0.480399	0.524021
48440	9.256156	-0.917289	0.074576	-1.050808	-0.084577	-0.570850	-0.480843	0.509628	0.484014	0.524213
48441	9.282400	-0.699957	0.287574	-0.893110	0.157441	-0.543789	-0.478056	0.508290	0.487983	0.524382
48442	9.248088	-0.748385	0.602607	-1.001501	0.526319	-0.583954	-0.475415	0.506415	0.492759	0.524132
48443	9.453565	-0.745466	0.730473	-1.083972	0.709791	-0.390403	-0.472421	0.504835	0.497716	0.523678
48444	9.842942	0.298671	0.663022	-0.146374	0.653716	0.034273	-0.469250	0.503807	0.501994	0.523436
48445	10.314110	1.254615	0.589702	0.706772	0.589126	0.553394	-0.466242	0.503529	0.503985	0.524477
48446	10.842301	2.032413	0.812067	1.405201	0.797244	1.129672	-0.464165	0.503066	0.504628	0.526142
48447	11.326844	2.243537	0.230615	1.508678	0.207302	1.635667	-0.462653	0.502755	0.504647	0.527751
48448	11.801688	1.012575	0.270842	0.220958	0.314101	2.029228	-0.461190	0.503065	0.504172	0.529189
48449	11.029919	-0.482315	0.194580	-1.238447	0.311271	1.155400	-0.460166	0.503316	0.503017	0.530937
48450	10.186772	-0.685660	0.425941	-1.379420	0.530067	0.298596	-0.459982	0.502917	0.502056	0.532382
48451	9.525633	0.023044	0.554261	-0.628017	0.580496	-0.309322	-0.460449	0.502019	0.501230	0.533603
48452	9.648355	1.332203	0.790346	0.673118	0.696738	-0.088926	-0.461072	0.501031	0.500499	0.534678
48453	10.032704	1.765706	0.619704	1.058809	0.466876	0.327223	-0.461307	0.500592	0.499663	0.535668
48454	9.948190	1.221762	0.401776	0.506583	0.267165	0.201932	-0.461355	0.500490	0.499155	0.536196
48455	9.449843	0.585643	0.309241	-0.096337	0.213356	-0.342559	-0.461381	0.500449	0.498999	0.536356
48456	8.955331	0.208320	0.210369	-0.443667	0.142378	-0.864588	-0.461763	0.499922	0.499611	0.535949
48457	8.902472	0.573338	0.162890	-0.085512	0.072556	-0.890991	-0.462318	0.498950	0.500714	0.535346
48458	9.083605	1.593204	0.333565	0.916102	0.181798	-0.631776	-0.462878	0.497769	0.502082	0.534681
48459	9.361840	2.310358	0.507977	1.605646	0.321705	-0.296479	-0.463037	0.496925	0.503335	0.534149
48460	9.687215	2.396042	0.548679	1.654318	0.369910	0.036707	-0.462584	0.496690	0.504206	0.533940
48461	9.897059	1.824658	0.555231	1.058012	0.422258	0.201888	-0.461780	0.496947	0.504636	0.533990
48462	9.937096	1.245241	0.664441	0.476869	0.576154	0.196240	-0.460920	0.497431	0.504670	0.534250
48463	9.864411	0.815366	0.566208	0.044788	0.512431	0.088193	-0.460205	0.497884	0.504618	0.534493
48464	9.871549	0.700102	0.475034	-0.078363	0.435402	0.085169	-0.459771	0.498201	0.504595	0.534593
48465	9.772984	0.803828	0.506426	0.033454	0.466514	-0.004779	-0.459615	0.498284	0.504829	0.534430
48466	9.635184	1.104051	0.408777	0.336222	0.357489	-0.118259	-0.459571	0.498270	0.505204	0.534126
48467	9.633139	1.303612	0.305203	0.526942	0.248959	-0.104429	-0.459618	0.498113	0.505647	0.533812
48468	9.680197	1.340351	0.220668	0.551744	0.168647	-0.054687	-0.459598	0.497955	0.506070	0.533576
48469	9.755467	1.320818	0.037143	0.510905	-0.008102	0.018589	-0.459531	0.497729	0.506470	0.533465
48470	9.812425	1.218594	0.033038	0.398775	-0.002200	0.067126	-0.459492	0.497488	0.506855	0.533358
48471	9.750999	1.133768	-0.008836	0.312885	-0.035947	-0.001047	-0.459591	0.497230	0.507249	0.533138
48472	9.670994	1.198330	0.149499	0.391458	0.121733	-0.075213	-0.459781	0.497086	0.507561	0.532812
48473	9.578556	1.146307	0.127794	0.348071	0.107744	-0.171820	-0.459886	0.497146	0.507842	0.532397
48474	9.639513	1.097777	0.112722	0.296665	0.103185	-0.115298	-0.459950	0.497215	0.508198	0.531938
48475	9.603748	0.997735	0.146915	0.204004	0.151088	-0.159471	-0.459943	0.497308	0.508555	0.531516
48476	9.670257	0.897072	0.153934	0.100512	0.173366	-0.101758	-0.459980	0.497375	0.509010	0.530985
48477	9.859346	0.956038	0.091953	0.142791	0.120617	0.091565	-0.460120	0.497390	0.509556	0.530326
48478	9.764629	0.805219	0.204864	0.009290	0.252042	-0.016019	-0.460271	0.497420	0.510157	0.529588
48479	9.691864	0.878146	0.164055	0.089772	0.221119	-0.082667	-0.460447	0.497497	0.510880	0.528666
48480	9.634966	0.885943	0.119132	0.105628	0.192232	-0.138830	-0.460638	0.497658	0.511652	0.527600
48481	9.638387	0.846779	0.065722	0.070721	0.158275	-0.138507	-0.460756	0.497908	0.512277	0.526653
48482	9.764453	0.824206	-0.047452	0.040787	0.064523	-0.013695	-0.461023	0.498068	0.512939	0.525623
48483	9.757743	0.733368	-0.131316	-0.043756	-0.001199	-0.026642	-0.461501	0.498091	0.513576	0.524559
48484	9.755619	0.809734	-0.096413	0.043786	0.042448	-0.023238	-0.462071	0.498054	0.514175	0.523504
48485	9.751654	0.945819	-0.105011	0.190143	0.040170	-0.016639	-0.462615	0.498110	0.514718	0.522436
48486	9.756989	0.921531	-0.178049	0.174983	-0.019600	-0.012242	-0.463193	0.498188	0.515275	0.521300
48487	9.736835	0.829473	-0.213230	0.096266	-0.041450	-0.038822	-0.463892	0.498149	0.515762	0.520232
48488	9.620777	0.747441	-0.133984	0.038566	0.045636	-0.162175	-0.464588	0.498161	0.516114	0.519249
48489	9.826181	0.788937	-0.138923	0.078217	0.051593	0.045647	-0.465210	0.498232	0.516486	0.518254
48490	9.847169	0.841009	-0.219294	0.139161	-0.021310	0.071759	-0.465763	0.498304	0.516820	0.517354
48491	9.986123	0.788273	-0.240256	0.086911	-0.030605	0.206956	-0.466323	0.498195	0.517237	0.516537
48492	9.899279	0.611593	-0.235123	-0.075483	-0.019863	0.107946	-0.466917	0.497930	0.517547	0.515945
48493	9.873231	0.530469	-0.245404	-0.147926	-0.029335	0.076679	-0.467654	0.497578	0.517841	0.515322
48494	9.965973	0.503200	-0.164660	-0.171618	0.050819	0.165734	-0.468584	0.497112	0.518079	0.514686
48495	9.909549	0.514652	-0.138489	-0.147549	0.069770	0.109841	-0.469509	0.496615	0.518262	0.514139
48496	9.842430	0.476862	-0.143824	-0.173083	0.056934	0.040652	-0.470387	0.496149	0.518407	0.513640
48497	9.832656	0.473095	-0.159311	-0.169411	0.034321	0.031115	-0.471267	0.495609	0.518591	0.513168
48498	9.813306	0.481835	-0.147988	-0.153172	0.036486	0.012292	-0.472198	0.494998	0.518702	0.512791
48499	9.752960	0.609880	-0.087010	-0.014825	0.085161	-0.040673	-0.473112	0.494429	0.518760	0.512438
48500	9.812718	0.723064	-0.109893	0.100414	0.052074	0.026597	-0.473911	0.493969	0.518659	0.512245
48501	9.630045	0.566671	-0.097516	-0.037429	0.050027	-0.165695	-0.474705	0.493566	0.518366	0.512196
48502	9.796656	0.576707	-0.078396	-0.031085	0.057482	0.001023	-0.475442	0.493162	0.518043	0.512228
48503	9.706763	0.528983	-0.097392	-0.067561	0.024183	-0.091299	-0.476009	0.492888	0.517709	0.512303
48504	9.766453	0.476812	-0.093421	-0.119129	0.019647	-0.034901	-0.476376	0.492681	0.517576	0.512295
48505	9.865074	0.378951	-0.189420	-0.220973	-0.084012	0.058648	-0.476853	0.492285	0.517400	0.512410
48506	9.921281	0.339296	-0.065667	-0.262946	0.026333	0.111092	-0.477422	0.491714	0.517138	0.512693
48507	9.879002	0.343266	-0.066822	-0.257688	0.008065	0.069139	-0.477963	0.491065	0.516943	0.513008
48508	9.863663	0.414078	-0.105826	-0.188910	-0.048079	0.058305	-0.478533	0.490333	0.516808	0.513313
48509	9.754198	0.461393	-0.015223	-0.138055	0.024718	-0.048580	-0.478947	0.489765	0.516487	0.513791
48510	9.612049	0.386601	0.068782	-0.206586	0.091199	-0.195273	-0.479338	0.489261	0.516114	0.514281
48511	9.608987	0.368211	0.109631	-0.227046	0.117456	-0.199423	-0.479640	0.488839	0.515896	0.514619
48512	9.516764	0.353915	0.073401	-0.237387	0.070690	-0.292284	-0.479863	0.488556	0.515719	0.514857
48513	9.585051	0.428330	0.054567	-0.167524	0.045364	-0.219486	-0.480043	0.488425	0.515640	0.514893
48514	9.597301	0.388601	0.046233	-0.206828	0.034461	-0.209700	-0.480174	0.488368	0.515644	0.514822
48515	9.717366	0.341517	0.100217	-0.260218	0.088220	-0.092688	-0.480329	0.488254	0.515807	0.514622
48516	9.721608	0.288662	0.125739	-0.313028	0.115505	-0.091706	-0.480489	0.488082	0.516115	0.514325
48517	9.713696	0.274588	0.159994	-0.327210	0.154149	-0.100527	-0.480624	0.487908	0.516608	0.513870
48518	9.656265	0.355015	0.124866	-0.244212	0.127116	-0.153015	-0.480693	0.487789	0.517212	0.513311
48519	9.662697	0.398765	0.166324	-0.202094	0.178473	-0.144095	-0.480706	0.487731	0.517775	0.512786
48520	9.720039	0.499419	0.147833	-0.106706	0.171242	-0.080796	-0.480627	0.487691	0.518379	0.512288
48521	9.808881	0.484542	0.059415	-0.129068	0.094384	0.007032	-0.480448	0.487720	0.518921	0.511879
48522	9.841399	0.478422	-0.003193	-0.139567	0.042631	0.039253	-0.480318	0.487698	0.519436	0.511499
48523	9.855182	0.466556	-0.103696	-0.154292	-0.048650	0.052750	-0.480215	0.487648	0.519902	0.511170
48524	9.800038	0.455717	-0.127621	-0.164351	-0.064289	-0.002817	-0.480125	0.487566	0.520422	0.510804
48525	9.768469	0.445295	-0.124838	-0.176457	-0.052789	-0.035013	-0.479994	0.487460	0.520978	0.510461
48526	9.719771	0.480299	-0.098772	-0.143657	-0.017541	-0.081632	-0.479824	0.487322	0.521567	0.510151
48527	9.692463	0.541749	-0.059082	-0.086898	0.031467	-0.105357	-0.479563	0.487253	0.522052	0.509967
48528	9.689803	0.572929	-0.080893	-0.061550	0.018534	-0.105837	-0.479185	0.487293	0.522439	0.509887
48529	9.722860	0.557258	-0.133806	-0.085085	-0.026520	-0.073360	-0.478785	0.487354	0.522718	0.509919
48530	9.737772	0.607140	-0.121098	-0.042515	-0.006614	-0.055350	-0.478407	0.487426	0.522948	0.509968
48531	9.701307	0.603779	-0.103302	-0.048321	0.017248	-0.092196	-0.477993	0.487647	0.523085	0.510005
48532	9.726814	0.562584	-0.165872	-0.093498	-0.037518	-0.068727	-0.477511	0.488005	0.523184	0.510013
48533	9.782545	0.555508	-0.199787	-0.106108	-0.062094	-0.013117	-0.477075	0.488346	0.523275	0.510001
48534	9.798512	0.533944	-0.189524	-0.130552	-0.044191	0.001224	-0.476689	0.488646	0.523322	0.510026
48535	9.777574	0.526657	-0.113104	-0.138900	0.038299	-0.021346	-0.476311	0.488914	0.523366	0.510078
48536	9.772922	0.588032	-0.099044	-0.079341	0.059880	-0.022095	-0.475877	0.489256	0.523433	0.510086
48537	9.728659	0.596178	-0.179096	-0.069095	-0.013042	-0.064387	-0.475415	0.489656	0.523425	0.510142
48538	9.726932	0.639149	-0.104343	-0.027438	0.069828	-0.064510	-0.474881	0.490156	0.523356	0.510229
48539	9.795115	0.692512	-0.181389	0.021100	0.003430	0.008529	-0.474389	0.490636	0.523394	0.510187
48540	9.869251	0.726927	-0.263923	0.050314	-0.068644	0.086451	-0.473900	0.491103	0.523329	0.510258
48541	9.656072	0.625663	-0.200878	-0.036207	-0.003546	-0.134350	-0.473314	0.491730	0.523020	0.510515
48542	9.675634	0.508482	-0.178847	-0.153685	0.025722	-0.123304	-0.472795	0.492296	0.522896	0.510577
48543	9.734885	0.535220	-0.143669	-0.130250	0.071180	-0.063172	-0.472310	0.492809	0.522872	0.510556
48544	9.793009	0.645882	-0.235015	-0.023333	-0.009584	0.004378	-0.471853	0.493293	0.522852	0.510531
48545	9.802897	0.687054	-0.258992	0.017361	-0.025142	0.017622	-0.471363	0.493790	0.522745	0.510613
48546	9.802599	0.586254	-0.234855	-0.083121	0.005779	0.009881	-0.470908	0.494236	0.522599	0.510751
48547	9.791081	0.531597	-0.150428	-0.136824	0.095972	-0.007456	-0.470523	0.494585	0.522558	0.510810
48548	9.742205	0.528726	-0.087868	-0.136735	0.163678	-0.058082	-0.470121	0.494929	0.522559	0.510847
48549	9.711965	0.548754	-0.114454	-0.115978	0.142679	-0.086296	-0.469716	0.495254	0.522548	0.510915
48550	9.757611	0.599459	-0.159824	-0.070228	0.103757	-0.036177	-0.469331	0.495557	0.522490	0.511035
48551	9.816140	0.645551	-0.247529	-0.030321	0.020994	0.027701	-0.468995	0.495829	0.522346	0.511227
48552	9.875282	0.719768	-0.243336	0.038887	0.027338	0.091666	-0.468704	0.496103	0.522072	0.511506
48553	9.833080	0.676236	-0.220368	-0.001501	0.048149	0.045963	-0.468409	0.496417	0.521659	0.511894
48554	9.803441	0.648584	-0.198920	-0.026557	0.066311	0.013939	-0.468084	0.496763	0.521177	0.512345
48555	9.765480	0.544983	-0.195765	-0.127185	0.065988	-0.031103	-0.467799	0.497049	0.520692	0.512822
48556	9.716787	0.492369	-0.253727	-0.177537	0.003375	-0.081746	-0.467563	0.497267	0.520278	0.513246
48557	9.778667	0.539805	-0.230551	-0.134400	0.023121	-0.017369	-0.467379	0.497456	0.519850	0.513664
48558	9.809544	0.572238	-0.194856	-0.102597	0.053851	0.014781	-0.467227	0.497721	0.519316	0.514085
48559	9.793816	0.545394	-0.166800	-0.125347	0.076059	-0.003375	-0.467080	0.498028	0.518716	0.514527
48560	9.772551	0.516237	-0.173933	-0.149933	0.062751	-0.026315	-0.466956	0.498345	0.518099	0.514955
48561	9.761603	0.482114	-0.157379	-0.178965	0.072571	-0.039828	-0.466911	0.498627	0.517423	0.515401
48562	9.811206	0.508104	-0.126722	-0.151168	0.094983	0.010862	-0.466884	0.498909	0.516669	0.515909
48563	9.799485	0.392385	-0.206996	-0.263442	0.006955	-0.006706	-0.466924	0.499098	0.515950	0.516410
48564	9.792137	0.439829	-0.154727	-0.210612	0.047656	-0.011835	-0.466971	0.499239	0.515325	0.516854
48565	9.798472	0.390132	-0.240884	-0.259898	-0.046643	-0.007048	-0.467000	0.499372	0.514719	0.517304
48566	9.767107	0.439905	-0.216674	-0.204895	-0.033125	-0.035481	-0.467021	0.499497	0.514197	0.517682
48567	9.751325	0.459785	-0.225074	-0.181797	-0.050072	-0.049756	-0.467052	0.499609	0.513716	0.518024
48568	9.727550	0.484527	-0.153906	-0.151002	0.012335	-0.073040	-0.467147	0.499653	0.513289	0.518319
48569	9.732387	0.502364	-0.068277	-0.128676	0.089562	-0.068366	-0.467251	0.499666	0.512869	0.518629
48570	9.656284	0.469054	-0.041455	-0.154233	0.107896	-0.146762	-0.467280	0.499740	0.512382	0.519012
48571	9.618785	0.498007	0.073258	-0.117588	0.214133	-0.183839	-0.467257	0.499842	0.511997	0.519314
48572	9.752682	0.519721	-0.135141	-0.110020	0.002392	-0.045853	-0.467264	0.499904	0.511724	0.519519
48573	9.786711	0.511445	-0.079112	-0.117330	0.053228	-0.013149	-0.467280	0.499963	0.511283	0.519881
48574	9.717571	0.447004	-0.054043	-0.175219	0.072540	-0.086540	-0.467288	0.500009	0.510928	0.520178
48575	9.713896	0.437880	-0.029301	-0.182618	0.092100	-0.091034	-0.467312	0.500003	0.510691	0.520395
48576	9.683147	0.470086	-0.051489	-0.148732	0.064397	-0.119355	-0.467355	0.500012	0.510520	0.520516
48577	9.722379	0.503688	-0.048250	-0.116504	0.063714	-0.078056	-0.467400	0.500039	0.510327	0.520639
48578	9.737008	0.558429	-0.030063	-0.060942	0.077048	-0.060127	-0.467437	0.500068	0.510155	0.520746
48579	9.782030	0.567109	-0.081943	-0.056167	0.022785	-0.014077	-0.467413	0.500118	0.509982	0.520889
48580	9.771254	0.510455	-0.160280	-0.114436	-0.056514	-0.027629	-0.467436	0.500119	0.509812	0.521033
48581	9.805033	0.502823	-0.106643	-0.121763	-0.005671	0.005053	-0.467513	0.500074	0.509680	0.521136
48582	9.763849	0.492535	-0.115044	-0.129237	-0.017379	-0.036617	-0.467575	0.500043	0.509569	0.521220
48583	9.746467	0.487097	-0.048504	-0.130801	0.046022	-0.054921	-0.467657	0.499973	0.509471	0.521310
48584	9.733156	0.423009	-0.005080	-0.192609	0.088264	-0.072646	-0.467745	0.499848	0.509424	0.521395
48585	9.772210	0.452520	-0.050101	-0.168522	0.039708	-0.031410	-0.467833	0.499680	0.509462	0.521441
48586	9.817325	0.469926	-0.053045	-0.155652	0.033369	0.014732	-0.467939	0.499508	0.509430	0.521542
48587	9.804259	0.514977	-0.089219	-0.112754	-0.009317	0.004841	-0.468088	0.499281	0.509370	0.521683
48588	9.750325	0.496944	-0.044443	-0.127392	0.029465	-0.050481	-0.468305	0.498985	0.509330	0.521812
48589	9.753174	0.512411	-0.111119	-0.116393	-0.043689	-0.046222	-0.468515	0.498683	0.509351	0.521891
48590	9.776843	0.505328	-0.125884	-0.127393	-0.063861	-0.023022	-0.468694	0.498417	0.509293	0.522041
48591	9.738685	0.464126	-0.064604	-0.165824	-0.007630	-0.064149	-0.468936	0.498078	0.509324	0.522117
48592	9.706067	0.471707	-0.006502	-0.156599	0.044988	-0.096529	-0.469219	0.497658	0.509539	0.522054
48593	9.713667	0.495885	0.008067	-0.135683	0.055253	-0.087471	-0.469450	0.497252	0.509774	0.522003
48594	9.696654	0.535155	-0.011792	-0.099510	0.031628	-0.101832	-0.469679	0.496855	0.510078	0.521879
48595	9.696092	0.604492	-0.005933	-0.033185	0.034212	-0.097886	-0.469859	0.496537	0.510357	0.521747
48596	9.725540	0.586026	0.016092	-0.055412	0.056243	-0.069814	-0.469985	0.496293	0.510544	0.521681
48597	9.731952	0.501695	0.007067	-0.142361	0.048933	-0.068972	-0.470101	0.496078	0.510717	0.521613
48598	9.704430	0.496795	-0.000318	-0.147535	0.041255	-0.096757	-0.470216	0.495874	0.510926	0.521499
48599	9.699382	0.503391	0.012463	-0.141898	0.054120	-0.101430	-0.470340	0.495673	0.511145	0.521364
48600	9.746402	0.500757	0.065414	-0.147021	0.109069	-0.054928	-0.470486	0.495521	0.511443	0.521083
48601	9.782634	0.515524	0.085949	-0.134638	0.134193	-0.017946	-0.470589	0.495381	0.511917	0.520658
48602	9.715383	0.473633	-0.031062	-0.175796	0.025143	-0.087338	-0.470655	0.495271	0.512428	0.520200
48603	9.755349	0.503472	0.015479	-0.148584	0.079105	-0.045793	-0.470696	0.495156	0.512938	0.519770
48604	9.804521	0.514492	-0.113029	-0.145251	-0.042072	0.004809	-0.470831	0.494952	0.513460	0.519326
48605	9.860307	0.528482	0.000451	-0.133784	0.077265	0.060563	-0.470955	0.494750	0.513907	0.518964
48606	9.655153	0.477047	-0.011087	-0.173083	0.071018	-0.147561	-0.471009	0.494614	0.514405	0.518551
48607	9.607197	0.448116	0.060837	-0.198907	0.151938	-0.198111	-0.471005	0.494518	0.515046	0.518010
48608	9.628679	0.474287	0.063834	-0.175743	0.166291	-0.175160	-0.470945	0.494505	0.515699	0.517427
48609	9.694666	0.463024	0.048300	-0.193091	0.165069	-0.110176	-0.470859	0.494508	0.516407	0.516795
48610	9.686448	0.508883	0.027264	-0.148376	0.157872	-0.115264	-0.470723	0.494579	0.517111	0.516147
48611	9.701972	0.553373	0.031305	-0.105909	0.177935	-0.097104	-0.470520	0.494726	0.517848	0.515452
48612	9.739592	0.594662	-0.041737	-0.068848	0.122750	-0.055886	-0.470262	0.494956	0.518520	0.514790
48613	9.806222	0.561301	-0.103059	-0.107349	0.080316	0.009210	-0.470025	0.495202	0.519094	0.514192
48614	9.860768	0.490741	-0.201356	-0.182242	-0.000758	0.060655	-0.469791	0.495443	0.519553	0.513709
48615	9.960228	0.510889	-0.253504	-0.168616	-0.038583	0.162356	-0.469699	0.495590	0.519937	0.513264
48616	9.978718	0.506518	-0.269348	-0.173374	-0.046379	0.180896	-0.469729	0.495590	0.520152	0.513017
48617	9.895958	0.514716	-0.204834	-0.158252	0.018628	0.097483	-0.469865	0.495471	0.520302	0.512856
48618	9.799448	0.520109	-0.141953	-0.145353	0.079548	0.000181	-0.470009	0.495336	0.520437	0.512718
48619	9.758859	0.563883	-0.143070	-0.098794	0.076535	-0.037303	-0.470175	0.495179	0.520532	0.512620
48620	9.722332	0.575915	-0.075662	-0.083283	0.141470	-0.074402	-0.470372	0.495016	0.520598	0.512531
48621	9.680437	0.586130	-0.043171	-0.069545	0.170866	-0.116181	-0.470527	0.494877	0.520622	0.512498
48622	9.672852	0.609719	-0.089551	-0.045956	0.122455	-0.121107	-0.470591	0.494802	0.520635	0.512498
48623	9.734627	0.582142	-0.120092	-0.078180	0.092412	-0.060681	-0.470618	0.494762	0.520622	0.512525
48624	9.768406	0.615652	-0.155712	-0.047894	0.056315	-0.023941	-0.470611	0.494728	0.520608	0.512578
48625	9.745026	0.624287	-0.132849	-0.038189	0.077439	-0.047163	-0.470585	0.494722	0.520546	0.512671
48626	9.733535	0.595311	-0.121760	-0.067162	0.087169	-0.060826	-0.470496	0.494746	0.520457	0.512820
48627	9.691633	0.578997	-0.180396	-0.082576	0.027424	-0.102489	-0.470381	0.494778	0.520455	0.512897
48628	9.694111	0.599930	-0.205979	-0.063470	0.002172	-0.098054	-0.470302	0.494797	0.520449	0.512957
48629	9.778246	0.651631	-0.214864	-0.018001	-0.005126	-0.010416	-0.470231	0.494898	0.520358	0.513017
48630	9.817691	0.647051	-0.129039	-0.023719	0.081316	0.026784	-0.470067	0.495099	0.520134	0.513200
48631	9.764536	0.486685	-0.142645	-0.180242	0.067754	-0.036886	-0.469883	0.495247	0.519982	0.513380
48632	9.687469	0.403419	-0.133925	-0.259408	0.076967	-0.119673	-0.469719	0.495290	0.520073	0.513397
48633	9.665320	0.446754	-0.148278	-0.216877	0.065682	-0.138565	-0.469569	0.495333	0.520295	0.513268
48634	9.695496	0.519944	-0.210262	-0.147478	0.009571	-0.102108	-0.469422	0.495486	0.520475	0.513073
48635	9.763457	0.621413	-0.153126	-0.048995	0.073989	-0.028679	-0.469309	0.495704	0.520609	0.512828
48636	9.899889	0.672933	-0.303834	-0.005889	-0.067221	0.114467	-0.469305	0.495878	0.520756	0.512515
48637	9.949067	0.625536	-0.336542	-0.053415	-0.094651	0.161113	-0.469341	0.496023	0.520656	0.512442
48638	9.776927	0.530868	-0.255780	-0.131903	-0.018423	-0.018924	-0.469471	0.496070	0.520463	0.512474
48639	9.656757	0.533981	-0.216720	-0.116552	0.015138	-0.139464	-0.469677	0.496088	0.520357	0.512376
48640	9.703509	0.578583	-0.255571	-0.071028	-0.023490	-0.088873	-0.469827	0.496204	0.520298	0.512186
48641	9.735738	0.593632	-0.218997	-0.052468	0.014081	-0.056561	-0.469947	0.496373	0.520132	0.512081
48642	9.766883	0.621927	-0.187857	-0.020877	0.044983	-0.024346	-0.470031	0.496535	0.519922	0.512059
48643	9.716771	0.599077	-0.213136	-0.036675	0.016632	-0.075217	-0.470104	0.496650	0.519668	0.512139
48644	9.665130	0.544141	-0.205037	-0.085282	0.020670	-0.130479	-0.470177	0.496694	0.519436	0.512265
48645	9.723116	0.545867	-0.300828	-0.086516	-0.077246	-0.070306	-0.470314	0.496663	0.519310	0.512297
48646	9.805702	0.553118	-0.322076	-0.082025	-0.099964	0.013031	-0.470519	0.496659	0.519148	0.512276
48647	9.862902	0.622071	-0.244983	-0.011903	-0.026247	0.072806	-0.470713	0.496694	0.518907	0.512309
48648	9.928601	0.759703	-0.194720	0.125610	0.018234	0.146030	-0.470834	0.496747	0.518521	0.512537
48649	9.876500	0.764991	-0.225510	0.135904	-0.023467	0.095000	-0.470890	0.496768	0.517908	0.513085
48650	9.733697	0.597976	-0.291739	-0.022450	-0.104067	-0.056859	-0.470992	0.496661	0.517276	0.513731
48651	9.592735	0.501088	-0.252434	-0.110743	-0.080018	-0.204529	-0.471038	0.496551	0.516723	0.514352
48652	9.577853	0.505152	-0.299651	-0.108616	-0.138242	-0.218453	-0.470991	0.496477	0.516362	0.514828
48653	9.779645	0.617756	-0.264083	-0.011124	-0.109273	-0.010608	-0.470906	0.496435	0.515998	0.515311
48654	9.865347	0.590854	-0.258917	-0.045801	-0.111930	0.072988	-0.470864	0.496383	0.515491	0.515907
48655	9.740989	0.458388	-0.199222	-0.170990	-0.063766	-0.060592	-0.470931	0.496228	0.514999	0.516486
48656	9.513029	0.463791	-0.210066	-0.153270	-0.089012	-0.287693	-0.471005	0.496052	0.514681	0.516905
48657	9.569112	0.523625	-0.224009	-0.099289	-0.111082	-0.227800	-0.471052	0.495934	0.514489	0.517166
48658	9.798235	0.566808	-0.233535	-0.072499	-0.123890	0.003656	-0.471077	0.495857	0.514330	0.517375
48659	9.971367	0.558425	-0.172663	-0.092311	-0.066218	0.175150	-0.471111	0.495733	0.514143	0.517649
48660	9.910472	0.507144	-0.130926	-0.141311	-0.030799	0.110562	-0.471183	0.495491	0.514024	0.517932
48661	9.582019	0.493027	-0.109458	-0.137528	-0.018040	-0.218371	-0.471148	0.495285	0.514022	0.518164
48662	9.431311	0.584672	-0.137140	-0.041371	-0.051927	-0.362510	-0.470975	0.495210	0.513998	0.518416
48663	9.522264	0.622506	-0.045944	-0.012362	0.037752	-0.270069	-0.470699	0.495227	0.513895	0.518753
48664	9.789201	0.605785	0.069976	-0.049747	0.156756	-0.005890	-0.470261	0.495326	0.513871	0.519080
48665	10.075276	0.507152	0.075981	-0.174341	0.169533	0.272700	-0.469801	0.495365	0.513887	0.519442
48666	10.114649	0.416406	0.068527	-0.276309	0.164718	0.305649	-0.469484	0.495209	0.513954	0.519812
48667	9.723824	0.433003	0.117627	-0.240698	0.207799	-0.083712	-0.469242	0.494971	0.514079	0.520133
48668	9.406516	0.511876	0.080760	-0.149571	0.165512	-0.394550	-0.468972	0.494767	0.514321	0.520331
48669	9.261979	0.460943	0.081893	-0.198537	0.169391	-0.542557	-0.468521	0.494745	0.514580	0.520502
48670	9.517423	0.458545	0.010403	-0.229511	0.108210	-0.287598	-0.468006	0.494775	0.515045	0.520477
48671	9.858994	0.489309	-0.011300	-0.232660	0.100749	0.055190	-0.467547	0.494785	0.515603	0.520328
48672	10.000971	0.521738	0.005809	-0.217862	0.130257	0.198668	-0.467173	0.494796	0.516110	0.520151
48673	9.923713	0.577367	0.114429	-0.159862	0.246179	0.124131	-0.466897	0.494805	0.516517	0.519986
48674	9.726812	0.610652	0.169282	-0.114692	0.305816	-0.070729	-0.466645	0.494881	0.516859	0.519800
48675	9.721190	0.685441	0.177863	-0.042105	0.320889	-0.071114	-0.466347	0.495055	0.517096	0.519666
48676	9.781007	0.686841	0.125879	-0.048423	0.277663	-0.010838	-0.466037	0.495252	0.517265	0.519589
48677	9.852731	0.643808	0.014293	-0.101485	0.175135	0.058991	-0.465723	0.495440	0.517380	0.519576
48678	9.872969	0.724120	-0.067960	-0.027593	0.096001	0.086530	-0.465442	0.495556	0.517415	0.519683
48679	9.924828	0.704877	-0.124263	-0.055436	0.042952	0.137668	-0.465105	0.495702	0.517291	0.519969
48680	9.982975	0.673816	-0.136438	-0.094608	0.032119	0.193434	-0.464750	0.495884	0.517030	0.520371
48681	9.939637	0.706185	-0.061175	-0.059628	0.102696	0.151484	-0.464456	0.496069	0.516629	0.520856
48682	9.767313	0.660557	-0.017536	-0.091746	0.139454	-0.024471	-0.464229	0.496280	0.516147	0.521334
48683	9.663259	0.568368	-0.012944	-0.174950	0.140116	-0.135314	-0.464020	0.496553	0.515676	0.521728
48684	9.640875	0.553711	-0.029997	-0.186236	0.119950	-0.158419	-0.463868	0.496859	0.515257	0.521985
48685	9.648795	0.571220	-0.017442	-0.165370	0.130288	-0.149276	-0.463762	0.497184	0.514883	0.522139
48686	9.654001	0.560990	-0.029761	-0.172321	0.118420	-0.144616	-0.463639	0.497505	0.514637	0.522184
48687	9.693114	0.585521	-0.080815	-0.148424	0.070114	-0.102956	-0.463460	0.497909	0.514473	0.522120
48688	9.710736	0.585206	-0.148425	-0.148213	0.007819	-0.084334	-0.463319	0.498252	0.514417	0.521973
48689	9.750899	0.596476	-0.195943	-0.137372	-0.033820	-0.042622	-0.463251	0.498553	0.514411	0.521752
48690	9.777500	0.610776	-0.198968	-0.120667	-0.031676	-0.014903	-0.463293	0.498740	0.514474	0.521474
48691	9.766167	0.576840	-0.195162	-0.149572	-0.022006	-0.028721	-0.463346	0.498858	0.514625	0.521164
48692	9.726060	0.551510	-0.206148	-0.169733	-0.027292	-0.070339	-0.463377	0.498905	0.514891	0.520829
48693	9.687627	0.568193	-0.200435	-0.149047	-0.017021	-0.107502	-0.463424	0.498873	0.515214	0.520498
48694	9.672292	0.530371	-0.179056	-0.184681	0.011678	-0.125978	-0.463474	0.498811	0.515641	0.520091
48695	9.688880	0.560362	-0.159997	-0.155346	0.038541	-0.107618	-0.463532	0.498742	0.516197	0.519552
48696	9.747112	0.646696	-0.168324	-0.073708	0.038866	-0.043051	-0.463627	0.498644	0.516803	0.518960
48697	9.739610	0.630922	-0.139942	-0.087836	0.077420	-0.052363	-0.463710	0.498558	0.517368	0.518404
48698	9.716555	0.645404	-0.079728	-0.070016	0.146396	-0.075748	-0.463779	0.498467	0.517952	0.517848
48699	9.764728	0.636032	-0.254123	-0.087862	-0.015778	-0.024375	-0.463903	0.498325	0.518653	0.517171
48700	9.831150	0.677092	-0.257406	-0.051664	-0.007813	0.044974	-0.464017	0.498209	0.519238	0.516592
48701	9.812981	0.658451	-0.298830	-0.069223	-0.040370	0.026572	-0.464143	0.498124	0.519726	0.516070
48702	9.791459	0.705666	-0.267834	-0.018571	-0.003744	0.007802	-0.464276	0.498052	0.520110	0.515633
48703	9.712120	0.646001	-0.277383	-0.071250	-0.008237	-0.075420	-0.464397	0.497975	0.520475	0.515230
48704	9.661035	0.599732	-0.231347	-0.111599	0.043506	-0.131033	-0.464516	0.497897	0.520894	0.514774
48705	9.674756	0.601545	-0.234304	-0.110113	0.048150	-0.117162	-0.464586	0.497839	0.521333	0.514323
48706	9.745264	0.582758	-0.258009	-0.134165	0.034842	-0.047590	-0.464658	0.497757	0.521819	0.513845
48707	9.762439	0.545998	-0.242574	-0.171820	0.059466	-0.033674	-0.464792	0.497597	0.522370	0.513317
48708	9.742184	0.535393	-0.167558	-0.180096	0.141745	-0.057057	-0.464948	0.497392	0.522953	0.512782
48709	9.676868	0.414327	-0.177433	-0.297542	0.139129	-0.130899	-0.465051	0.497175	0.523565	0.512274
48710	9.727313	0.318575	-0.292596	-0.400429	0.035947	-0.084065	-0.465268	0.496817	0.524446	0.511521
48711	9.823451	0.434478	-0.354557	-0.294354	-0.012438	0.022345	-0.465674	0.496302	0.525579	0.510488
48712	9.867022	0.631735	-0.406851	-0.102115	-0.052972	0.082235	-0.466156	0.495756	0.526612	0.509513
48713	9.745719	0.772751	-0.373377	0.047668	-0.015330	-0.029381	-0.466613	0.495276	0.527436	0.508710
48714	9.640017	0.836621	-0.330549	0.119621	0.030887	-0.131579	-0.466961	0.494917	0.528105	0.508045
48715	9.605307	0.815287	-0.306792	0.101191	0.061073	-0.168686	-0.467120	0.494747	0.528674	0.507472
48716	9.652617	0.783848	-0.351545	0.066527	0.027077	-0.122185	-0.467117	0.494738	0.529141	0.506997
48717	9.732083	0.773920	-0.360337	0.050873	0.030334	-0.043413	-0.466992	0.494851	0.529441	0.506688
48718	9.795254	0.807703	-0.343000	0.080217	0.057369	0.021300	-0.466810	0.495061	0.529517	0.506572
48719	9.772465	0.769144	-0.286212	0.044126	0.117395	-0.006626	-0.466559	0.495354	0.529392	0.506648
48720	9.724215	0.723366	-0.302071	0.002524	0.102116	-0.057462	-0.466203	0.495722	0.529161	0.506857
48721	9.765782	0.710851	-0.334137	-0.012820	0.073841	-0.015655	-0.465768	0.496183	0.528813	0.507168
48722	9.800621	0.663250	-0.368060	-0.062698	0.042365	0.016952	-0.465289	0.496687	0.528341	0.507606
48723	9.855206	0.621024	-0.361171	-0.108769	0.050621	0.067941	-0.464836	0.497153	0.527790	0.508137
48724	9.841538	0.596700	-0.402130	-0.132623	0.005673	0.054227	-0.464420	0.497568	0.527147	0.508779
48725	9.778689	0.536755	-0.339453	-0.188102	0.059839	-0.015385	-0.463996	0.497954	0.526401	0.509560
48726	9.744473	0.496136	-0.342173	-0.227550	0.048746	-0.052368	-0.463609	0.498279	0.525719	0.510297
48727	9.801110	0.522284	-0.393756	-0.207937	-0.007661	0.008019	-0.463257	0.498576	0.525099	0.510966
48728	9.772444	0.530485	-0.400137	-0.199798	-0.022172	-0.019742	-0.462944	0.498781	0.524532	0.511630
48729	9.793319	0.543997	-0.304851	-0.188644	0.065970	-0.001570	-0.462692	0.498935	0.523974	0.512280
48730	9.814437	0.569578	-0.452115	-0.169898	-0.088912	0.026785	-0.462583	0.498926	0.523575	0.512795
48731	9.757639	0.632806	-0.337874	-0.102842	0.011984	-0.029263	-0.462482	0.498943	0.522968	0.513489
48732	9.646199	0.622446	-0.362088	-0.107378	-0.027637	-0.140284	-0.462360	0.498994	0.522356	0.514172
48733	9.658865	0.659466	-0.312210	-0.071811	0.011625	-0.126577	-0.462226	0.499090	0.521795	0.514769
48734	9.659958	0.713417	-0.293191	-0.018563	0.021050	-0.122025	-0.462110	0.499185	0.521326	0.515254
48735	9.685095	0.765659	-0.248744	0.032177	0.057861	-0.094417	-0.461866	0.499419	0.520759	0.515820
48736	9.675782	0.729720	-0.178262	-0.001739	0.122049	-0.108558	-0.461501	0.499743	0.520121	0.516476
48737	9.682887	0.651172	-0.134689	-0.080697	0.162459	-0.108690	-0.461025	0.500114	0.519545	0.517122
48738	9.639162	0.576255	-0.249193	-0.157530	0.045603	-0.154493	-0.460556	0.500473	0.519076	0.517663
48739	9.630536	0.548777	-0.305913	-0.187627	-0.011704	-0.163510	-0.460168	0.500812	0.518719	0.518039
48740	9.757691	0.576949	-0.337590	-0.170531	-0.040472	-0.033697	-0.459832	0.501167	0.518346	0.518366
48741	9.882435	0.536088	-0.306329	-0.219145	-0.004565	0.086591	-0.459570	0.501458	0.518003	0.518660
48742	9.874226	0.392232	-0.329997	-0.362068	-0.025218	0.068171	-0.459521	0.501556	0.517795	0.518816
48743	9.852698	0.365236	-0.341659	-0.386308	-0.038807	0.045053	-0.459705	0.501488	0.517764	0.518749
48744	9.791173	0.502184	-0.338125	-0.242156	-0.044749	-0.005907	-0.460115	0.501281	0.517810	0.518540
48745	9.789885	0.643982	-0.330795	-0.095889	-0.046308	0.003352	-0.460643	0.501048	0.517820	0.518286
48746	9.760512	0.751384	-0.251041	0.021310	0.024018	-0.020131	-0.461172	0.500798	0.517813	0.518065
48747	9.666636	0.698880	-0.260739	-0.020141	0.008476	-0.117338	-0.461569	0.500601	0.517811	0.517904
48748	9.613110	0.602670	-0.270789	-0.109164	-0.003455	-0.177518	-0.461956	0.500380	0.517914	0.517670
48749	9.622404	0.607886	-0.252523	-0.101397	0.013580	-0.168338	-0.462329	0.500133	0.518152	0.517337
48750	9.676521	0.697494	-0.239269	-0.013679	0.026511	-0.108157	-0.462635	0.499906	0.518449	0.516985
48751	9.700431	0.761019	-0.209651	0.050072	0.056735	-0.080486	-0.462781	0.499812	0.518629	0.516765
48752	9.660148	0.737989	-0.216457	0.030093	0.051301	-0.122156	-0.462760	0.499803	0.518741	0.516680
48753	9.720575	0.724809	-0.256810	0.010502	0.014936	-0.061762	-0.462606	0.499883	0.518737	0.516745
48754	9.759829	0.694671	-0.261629	-0.024699	0.012404	-0.024709	-0.462397	0.499937	0.518633	0.516983
48755	9.758749	0.643453	-0.270377	-0.079227	0.003945	-0.029333	-0.462142	0.500002	0.518498	0.517283
48756	9.737979	0.608585	-0.276501	-0.116473	-0.003023	-0.052488	-0.461876	0.500058	0.518377	0.517589
48757	9.794661	0.591127	-0.294891	-0.142827	-0.020340	0.003165	-0.461634	0.500071	0.518295	0.517874
48758	9.752520	0.579314	-0.352362	-0.157735	-0.080354	-0.038228	-0.461424	0.500051	0.518191	0.518184
48759	9.751544	0.670126	-0.303577	-0.070425	-0.036244	-0.033752	-0.461201	0.500000	0.518153	0.518470
48760	9.878590	0.676848	-0.423488	-0.082514	-0.154055	0.096574	-0.461033	0.499889	0.518174	0.518705
48761	9.873072	0.707060	-0.363517	-0.055832	-0.099898	0.091682	-0.460834	0.499782	0.517882	0.519276
48762	9.607892	0.539589	-0.329501	-0.207736	-0.075711	-0.186555	-0.460631	0.499655	0.517618	0.519841
48763	9.607248	0.450214	-0.248535	-0.300154	0.002704	-0.196369	-0.460425	0.499543	0.517528	0.520221
48764	9.696457	0.508480	-0.217365	-0.253780	0.031717	-0.103843	-0.460260	0.499405	0.517559	0.520469
48765	9.815763	0.520308	-0.256043	-0.258325	-0.006756	0.016794	-0.460179	0.499198	0.517568	0.520731
48766	9.778019	0.523315	-0.281929	-0.258467	-0.037882	-0.020100	-0.460165	0.498969	0.517549	0.520981
48767	9.710610	0.504851	-0.242591	-0.274596	-0.003842	-0.089815	-0.460191	0.498727	0.517599	0.521140
48768	9.654031	0.461716	-0.224328	-0.316411	0.012121	-0.150205	-0.460279	0.498440	0.517831	0.521107
48769	9.701439	0.502656	-0.256326	-0.284258	-0.019398	-0.099032	-0.460406	0.498110	0.518258	0.520885
48770	9.802421	0.642478	-0.228019	-0.155866	0.009545	0.012171	-0.460593	0.497718	0.518778	0.520576
48771	9.864453	0.626019	-0.213829	-0.180592	0.027836	0.072234	-0.460726	0.497385	0.519153	0.520404
48772	9.881691	0.640382	-0.228364	-0.172427	0.013574	0.090854	-0.460880	0.496984	0.519504	0.520300
48773	9.789119	0.637425	-0.224559	-0.172922	0.013536	-0.001801	-0.461122	0.496447	0.519905	0.520198
48774	9.696301	0.627537	-0.267274	-0.181364	-0.034465	-0.094179	-0.461532	0.495811	0.520320	0.520025
48775	9.671317	0.644520	-0.294537	-0.166359	-0.068051	-0.117110	-0.462118	0.495111	0.520674	0.519818
48776	9.769181	0.660538	-0.204829	-0.157564	0.016531	-0.020341	-0.462767	0.494448	0.520941	0.519604
48777	9.855471	0.637986	-0.154421	-0.184910	0.062285	0.062691	-0.463393	0.493977	0.521082	0.519353
48778	9.851140	0.645228	-0.087368	-0.171273	0.123086	0.057693	-0.464069	0.493658	0.521150	0.518984
48779	9.746467	0.565565	-0.041414	-0.232733	0.164342	-0.053895	-0.464857	0.493432	0.521281	0.518362
48780	9.588977	0.565347	0.011024	-0.207805	0.213363	-0.211672	-0.465691	0.493292	0.521577	0.517447
48781	9.484255	0.595846	0.014772	-0.156434	0.218023	-0.313512	-0.466477	0.493208	0.521936	0.516458
48782	9.484636	0.650513	0.012838	-0.090154	0.220850	-0.308754	-0.467117	0.493183	0.522283	0.515551
48783	9.600910	0.705882	-0.012643	-0.034670	0.203798	-0.188075	-0.467585	0.493153	0.522654	0.514779
48784	9.777830	0.750091	-0.077365	0.001732	0.150001	-0.006971	-0.467848	0.493153	0.523031	0.514157
48785	9.917185	0.728105	-0.175517	-0.028259	0.062209	0.132504	-0.468018	0.493073	0.523393	0.513710
48786	9.900486	0.770492	-0.155584	0.016131	0.086478	0.118564	-0.468159	0.492898	0.523757	0.513377
48787	9.839671	0.784935	-0.120640	0.034539	0.123720	0.058144	-0.468244	0.492746	0.524076	0.513122
48788	9.746471	0.799179	-0.079958	0.055146	0.164862	-0.034725	-0.468308	0.492643	0.524276	0.512957
48789	9.684141	0.779945	-0.010684	0.040719	0.234372	-0.100096	-0.468341	0.492601	0.524382	0.512859
48790	9.725125	0.705974	-0.098914	-0.036578	0.149312	-0.062682	-0.468417	0.492546	0.524541	0.512680
48791	9.763283	0.753565	-0.107928	0.008106	0.142541	-0.020812	-0.468514	0.492445	0.524668	0.512557
48792	9.630361	0.715894	-0.159696	-0.019448	0.088411	-0.154858	-0.468555	0.492425	0.524747	0.512459
48793	9.643153	0.730741	-0.162962	-0.004988	0.086471	-0.140901	-0.468562	0.492464	0.524755	0.512407
