// General information: 
//  MT Manager version: 2021.0.0 
//  XDA version: 2021.0.0 build 5908 rev 109668 built on 2021-04-19
// Device information: 
//  DeviceId: 00B43DF7
//  ProductCode: MTW2-3A7G6
//  Firmware Version: 4.3.5
//  Hardware Version: 1.1.0
// Device settings: 
//  Filter Profile: human(46.1)
//  Option Flags: Orientation Smoother Disabled, Position/Velocity Smoother Disabled, Continuous Zero Rotation Update Disabled, AHS Disabled, ICC Disabled
// Coordinate system: ENU
PacketCounter	Acc_X	Acc_Y	Acc_Z	FreeAcc_E	FreeAcc_N	FreeAcc_U	Quat_q0	Quat_q1	Quat_q2	Quat_q3
47597	-0.498203	2.612496	9.649228	-0.074790	-0.067670	0.195847	0.990980	0.132294	0.018182	-0.011236
47598	-0.514961	2.614619	9.663518	-0.094870	-0.061656	0.210894	0.991025	0.131996	0.017958	-0.011172
47599	-0.539568	2.728031	9.661156	-0.120738	0.053932	0.239861	0.991058	0.131777	0.017756	-0.011162
47600	-0.552750	2.788466	9.653037	-0.135496	0.119821	0.248598	0.991099	0.131481	0.017661	-0.011135
47601	-0.561740	2.680088	9.615010	-0.150546	0.034517	0.183461	0.991178	0.130901	0.017585	-0.011066
47602	-0.453153	2.613212	9.539892	-0.047671	0.000306	0.088902	0.991262	0.130271	0.017544	-0.011040
47603	-0.508891	2.514577	9.560015	-0.105728	-0.089259	0.084625	0.991310	0.129903	0.017522	-0.011118
47604	-0.581350	2.613952	9.622541	-0.172894	-0.003146	0.174009	0.991331	0.129728	0.017549	-0.011250
47605	-0.506949	2.709207	9.613498	-0.094771	0.094460	0.187224	0.991364	0.129449	0.017644	-0.011322
47606	-0.475235	2.614632	9.603400	-0.063568	0.011750	0.151411	0.991409	0.129089	0.017788	-0.011298
47607	-0.458780	2.504612	9.636161	-0.045676	-0.098097	0.153628	0.991427	0.128927	0.017972	-0.011302
47608	-0.510778	2.538224	9.688395	-0.091378	-0.077821	0.214977	0.991411	0.129024	0.018129	-0.011368
47609	-0.581466	2.654698	9.714543	-0.154008	0.026090	0.273613	0.991382	0.129204	0.018340	-0.011445
47610	-0.509934	2.755979	9.703989	-0.075965	0.123710	0.286906	0.991381	0.129184	0.018540	-0.011429
47611	-0.511180	2.680921	9.698326	-0.075652	0.055581	0.261902	0.991413	0.128920	0.018730	-0.011373
47612	-0.509786	2.590382	9.708816	-0.072429	-0.029551	0.248374	0.991440	0.128681	0.018945	-0.011323
47613	-0.553712	2.569580	9.730590	-0.111204	-0.050368	0.265944	0.991459	0.128497	0.019220	-0.011306
47614	-0.581625	2.599195	9.737367	-0.132990	-0.019094	0.281488	0.991483	0.128281	0.019442	-0.011308
47615	-0.521348	2.699176	9.722736	-0.066592	0.086232	0.290633	0.991528	0.127902	0.019612	-0.011323
47616	-0.529696	2.645590	9.755629	-0.071484	0.033812	0.308862	0.991575	0.127516	0.019803	-0.011282
47617	-0.604870	2.615652	9.764605	-0.143557	0.010955	0.313234	0.991613	0.127194	0.019967	-0.011221
47618	-0.397786	2.572882	9.684639	0.062856	-0.007541	0.215581	0.991640	0.126962	0.020217	-0.011095
47619	-0.459333	2.389245	9.743780	0.004177	-0.199231	0.228279	0.991605	0.127185	0.020536	-0.011019
47620	-0.598822	2.637314	9.711983	-0.123826	0.044669	0.267952	0.991551	0.127560	0.020803	-0.011100
47621	-0.566005	2.671780	9.605585	-0.090243	0.099015	0.172706	0.991519	0.127773	0.020951	-0.011176
47622	-0.559874	2.736647	9.643144	-0.076387	0.148924	0.225485	0.991504	0.127844	0.021227	-0.011226
47623	-0.642240	2.832846	9.669084	-0.148961	0.235204	0.279446	0.991492	0.127882	0.021535	-0.011233
47624	-0.592703	2.781216	9.589396	-0.098460	0.205874	0.186857	0.991500	0.127772	0.021829	-0.011180
47625	-0.452084	2.613688	9.505843	0.038447	0.064597	0.056008	0.991496	0.127771	0.022029	-0.011190
47626	-0.417989	2.585215	9.471642	0.075007	0.041746	0.013943	0.991442	0.128140	0.022324	-0.011189
47627	-0.526463	2.630249	9.612313	-0.018587	0.039689	0.166792	0.991343	0.128822	0.022771	-0.011183
47628	-0.685513	2.726286	9.812316	-0.155970	0.066934	0.392962	0.991223	0.129654	0.023304	-0.011145
47629	-0.653522	2.890710	9.807377	-0.109419	0.212632	0.429907	0.991150	0.130132	0.023814	-0.010989
47630	-0.531562	2.815661	9.732807	0.015862	0.154688	0.331959	0.991163	0.129965	0.024272	-0.010763
47631	-0.669398	2.445444	9.786165	-0.121823	-0.210935	0.293646	0.991183	0.129758	0.024633	-0.010562
47632	-0.701193	2.409716	9.828418	-0.146047	-0.256562	0.326792	0.991146	0.129990	0.024942	-0.010469
47633	-0.720314	2.491259	9.851194	-0.155621	-0.191191	0.371146	0.991074	0.130480	0.025256	-0.010461
47634	-0.742378	2.551342	9.947766	-0.162882	-0.169523	0.481157	0.990988	0.131039	0.025763	-0.010417
47635	-0.834266	2.577900	9.972433	-0.243177	-0.159737	0.517188	0.990921	0.131463	0.026204	-0.010291
47636	-0.765690	2.440758	9.932707	-0.172812	-0.289693	0.438579	0.990877	0.131739	0.026556	-0.010153
47637	-0.818218	2.484080	9.819270	-0.223818	-0.224096	0.343979	0.990817	0.132134	0.026851	-0.010064
47638	-0.884370	2.463844	9.829630	-0.284247	-0.254687	0.352380	0.990745	0.132615	0.027127	-0.010053
47639	-0.820827	2.636075	9.789168	-0.212557	-0.089559	0.355756	0.990659	0.133190	0.027415	-0.010153
47640	-0.858351	2.762989	9.850581	-0.237902	0.007489	0.451237	0.990611	0.133497	0.027611	-0.010332
47641	-0.862326	2.664120	9.789822	-0.245151	-0.076713	0.366496	0.990575	0.133740	0.027651	-0.010526
47642	-0.803925	2.650567	9.762948	-0.186972	-0.089750	0.333442	0.990514	0.134154	0.027735	-0.010772
47643	-0.840268	2.690821	9.655280	-0.226216	-0.031858	0.243097	0.990422	0.134803	0.027771	-0.011039
47644	-0.791707	2.794430	9.585073	-0.177846	0.073343	0.200916	0.990328	0.135467	0.027723	-0.011439
47645	-0.834022	2.851019	9.504643	-0.223516	0.138599	0.141857	0.990250	0.136024	0.027573	-0.011928
47646	-0.802742	2.844428	9.590569	-0.188792	0.095963	0.220722	0.990152	0.136717	0.027498	-0.012344
47647	-0.712071	2.879744	9.578614	-0.097871	0.118495	0.213587	0.990059	0.137364	0.027474	-0.012630
47648	-0.576625	2.890233	9.594297	0.039729	0.109922	0.223388	0.989976	0.137921	0.027552	-0.012878
47649	-0.738606	2.773147	9.684225	-0.119573	-0.038947	0.287028	0.989854	0.138766	0.027546	-0.013195
47650	-0.723418	2.839997	9.663827	-0.103406	0.012263	0.285214	0.989713	0.139752	0.027465	-0.013509
47651	-0.649879	2.857087	9.564945	-0.035736	0.035254	0.190858	0.989568	0.140766	0.027374	-0.013835
47652	-0.707545	3.053448	9.713385	-0.079383	0.162414	0.392278	0.989429	0.141720	0.027278	-0.014208
47653	-0.806113	3.174231	9.718444	-0.175401	0.264190	0.437832	0.989363	0.142192	0.027047	-0.014536
47654	-0.755077	3.107497	9.639776	-0.134644	0.217556	0.340465	0.989369	0.142169	0.026835	-0.014750
47655	-0.727410	3.021921	9.625126	-0.115019	0.142715	0.300204	0.989415	0.141879	0.026575	-0.014929
47656	-0.705650	2.903513	9.626732	-0.102433	0.033317	0.266533	0.989446	0.141705	0.026312	-0.014996
47657	-0.618477	2.827620	9.578879	-0.025487	-0.028343	0.193881	0.989413	0.141974	0.026090	-0.014968
47658	-0.690468	2.929617	9.531239	-0.098585	0.076381	0.181729	0.989337	0.142516	0.026068	-0.014894
47659	-0.740715	3.172247	9.590448	-0.137438	0.281797	0.311056	0.989264	0.143037	0.026058	-0.014803
47660	-0.761015	3.220279	9.628085	-0.154102	0.312527	0.362180	0.989275	0.142971	0.026117	-0.014591
47661	-0.743615	2.986515	9.562919	-0.148991	0.111690	0.231564	0.989337	0.142580	0.026107	-0.014229
47662	-0.677806	2.831777	9.514100	-0.091310	-0.018569	0.136573	0.989360	0.142436	0.026237	-0.013769
47663	-0.729641	2.900332	9.592138	-0.133772	0.026215	0.233945	0.989354	0.142473	0.026530	-0.013301
47664	-0.794962	2.941409	9.635322	-0.191359	0.053982	0.290963	0.989362	0.142415	0.026776	-0.012820
47665	-0.738515	2.862443	9.565053	-0.138835	-0.000344	0.197804	0.989390	0.142233	0.026911	-0.012405
47666	-0.697444	2.825072	9.559369	-0.098180	-0.031868	0.179226	0.989416	0.142058	0.027001	-0.012062
47667	-0.643107	2.840289	9.606187	-0.040123	-0.029873	0.225099	0.989421	0.142040	0.027089	-0.011731
47668	-0.685666	2.884114	9.646925	-0.077278	-0.000654	0.279163	0.989397	0.142197	0.027276	-0.011388
47669	-0.731888	2.930640	9.662048	-0.118442	0.037362	0.309766	0.989382	0.142290	0.027455	-0.011101
47670	-0.728935	2.938139	9.627909	-0.114470	0.054515	0.279120	0.989401	0.142150	0.027629	-0.010799
47671	-0.679925	2.989995	9.558538	-0.065375	0.126211	0.224634	0.989421	0.141999	0.027783	-0.010553
47672	-0.700719	2.923588	9.566228	-0.084342	0.064972	0.214264	0.989460	0.141697	0.028043	-0.010248
47673	-0.753485	2.814653	9.557212	-0.135995	-0.031719	0.177849	0.989479	0.141525	0.028337	-0.009935
47674	-0.711007	2.857743	9.546675	-0.087693	0.013143	0.177476	0.989468	0.141562	0.028669	-0.009604
47675	-0.729726	2.886265	9.651323	-0.093580	0.009153	0.286927	0.989448	0.141644	0.029040	-0.009267
47676	-0.792690	2.788359	9.658274	-0.152897	-0.088559	0.269690	0.989425	0.141768	0.029343	-0.008898
47677	-0.586584	2.810277	9.602782	0.055634	-0.056738	0.209730	0.989393	0.141942	0.029700	-0.008512
47678	-0.660791	2.788980	9.751075	-0.004219	-0.124586	0.350136	0.989338	0.142275	0.030033	-0.008180
47679	-0.740541	2.892237	9.677556	-0.081282	-0.011042	0.314593	0.989287	0.142601	0.030223	-0.007877
47680	-0.747361	2.875475	9.632332	-0.088389	-0.019613	0.267022	0.989255	0.142799	0.030399	-0.007631
47681	-0.803548	2.997540	9.694982	-0.134430	0.075636	0.365712	0.989227	0.142957	0.030605	-0.007472
47682	-0.843047	3.142436	9.724978	-0.165733	0.206445	0.438690	0.989258	0.142726	0.030735	-0.007270
47683	-0.756842	2.972731	9.691373	-0.084675	0.060692	0.352045	0.989333	0.142211	0.030784	-0.007024
47684	-0.788148	2.850919	9.647274	-0.120982	-0.033935	0.277061	0.989391	0.141803	0.030849	-0.006799
47685	-0.771026	2.847107	9.621980	-0.105339	-0.024549	0.250677	0.989418	0.141617	0.030863	-0.006608
47686	-0.754837	2.765877	9.649682	-0.089385	-0.109158	0.252913	0.989412	0.141666	0.030897	-0.006350
47687	-0.709823	2.804273	9.603939	-0.046193	-0.063727	0.217130	0.989360	0.142024	0.030965	-0.006087
47688	-0.729590	2.889417	9.668462	-0.059600	-0.008409	0.304454	0.989304	0.142413	0.031014	-0.005852
47689	-0.740067	2.888857	9.675387	-0.069261	-0.018574	0.311598	0.989254	0.142756	0.031064	-0.005661
47690	-0.829123	2.903163	9.734361	-0.154533	-0.026955	0.377945	0.989235	0.142902	0.031035	-0.005405
47691	-0.771685	2.770928	9.711323	-0.103307	-0.149825	0.314021	0.989224	0.143013	0.030941	-0.005109
47692	-0.743841	2.829999	9.686365	-0.078318	-0.089395	0.305303	0.989199	0.143209	0.030868	-0.004899
47693	-0.801599	2.816749	9.707483	-0.137706	-0.111744	0.325380	0.989185	0.143348	0.030712	-0.004708
47694	-0.784116	2.763597	9.727825	-0.123494	-0.171070	0.328238	0.989175	0.143450	0.030555	-0.004618
47695	-0.822561	2.880668	9.679372	-0.166107	-0.047317	0.318219	0.989162	0.143572	0.030395	-0.004572
47696	-0.783896	2.954890	9.655644	-0.131143	0.030604	0.314464	0.989186	0.143451	0.030217	-0.004545
47697	-0.717089	2.859207	9.628047	-0.071685	-0.049443	0.256125	0.989223	0.143231	0.030023	-0.004536
47698	-0.752131	2.734994	9.616579	-0.112820	-0.162061	0.211557	0.989238	0.143160	0.029893	-0.004537
47699	-0.723799	2.802715	9.601608	-0.086680	-0.093385	0.214961	0.989223	0.143286	0.029765	-0.004630
47700	-0.690618	2.810279	9.615597	-0.054287	-0.092396	0.228370	0.989210	0.143389	0.029693	-0.004741
47701	-0.755270	2.775594	9.686735	-0.115761	-0.149950	0.290347	0.989170	0.143663	0.029676	-0.004836
47702	-0.902341	2.925981	9.743277	-0.257166	-0.027569	0.397119	0.989137	0.143904	0.029584	-0.004952
47703	-0.783956	2.949178	9.664970	-0.145942	0.015099	0.321530	0.989144	0.143894	0.029380	-0.005064
47704	-0.634392	2.765129	9.699221	-0.001588	-0.170203	0.291486	0.989158	0.143831	0.029210	-0.005126
47705	-0.687851	2.575717	9.564486	-0.070019	-0.314766	0.111166	0.989118	0.144146	0.029026	-0.005099
47706	-0.677400	2.813448	9.770582	-0.044655	-0.160150	0.376079	0.988979	0.145092	0.029030	-0.005164
47707	-0.835778	3.181626	9.802622	-0.194651	0.163997	0.524036	0.988854	0.145954	0.028925	-0.005262
47708	-0.744323	3.298280	9.568266	-0.119778	0.334775	0.329204	0.988856	0.146024	0.028535	-0.005252
47709	-0.510803	2.981562	9.485358	0.093104	0.056712	0.142751	0.988887	0.145918	0.027989	-0.005209
47710	-0.589640	2.735826	9.539072	0.002980	-0.195618	0.126530	0.988857	0.146207	0.027538	-0.005234
47711	-0.691528	2.953137	9.585873	-0.099806	-0.011552	0.241072	0.988762	0.146909	0.027187	-0.005321
47712	-0.632114	3.194086	9.598900	-0.041673	0.201240	0.321334	0.988678	0.147532	0.026870	-0.005383
47713	-0.668562	3.363081	9.559686	-0.083693	0.366763	0.336370	0.988670	0.147651	0.026526	-0.005294
47714	-0.597597	3.048352	9.527734	-0.029493	0.076433	0.208319	0.988713	0.147457	0.026013	-0.005054
47715	-0.466652	2.750068	9.473062	0.083300	-0.192431	0.060284	0.988693	0.147667	0.025602	-0.004908
47716	-0.642825	2.832892	9.552925	-0.094016	-0.148923	0.170590	0.988553	0.148653	0.025311	-0.004949
47717	-0.688780	3.333899	9.672896	-0.129526	0.272658	0.437340	0.988402	0.149684	0.025110	-0.005060
47718	-0.569480	3.482610	9.536868	-0.018918	0.442947	0.346455	0.988383	0.149852	0.024893	-0.004971
47719	-0.469448	3.041805	9.377184	0.060153	0.074215	0.056224	0.988468	0.149333	0.024673	-0.004697
47720	-0.498064	2.536758	9.278591	0.014903	-0.371975	-0.187882	0.988481	0.149262	0.024655	-0.004333
47721	-0.636367	2.685395	9.434714	-0.111005	-0.285256	0.012608	0.988344	0.150128	0.024941	-0.004042
47722	-0.730137	3.192390	9.686412	-0.178561	0.104839	0.410234	0.988216	0.150919	0.025234	-0.003886
47723	-0.653281	3.412040	9.644785	-0.097236	0.320742	0.433206	0.988248	0.150700	0.025329	-0.003699
47724	-0.641384	3.191439	9.602967	-0.089630	0.136991	0.325694	0.988419	0.149565	0.025432	-0.003490
47725	-0.679075	2.744060	9.606442	-0.132113	-0.269915	0.196528	0.988555	0.148643	0.025548	-0.003297
47726	-0.657992	2.766211	9.566077	-0.109221	-0.225862	0.163874	0.988572	0.148487	0.025826	-0.003281
47727	-0.693400	3.075337	9.603101	-0.133033	0.056193	0.293607	0.988516	0.148814	0.026039	-0.003426
47728	-0.605853	3.217876	9.540451	-0.042737	0.206152	0.271838	0.988487	0.148982	0.026188	-0.003603
47729	-0.663296	3.139061	9.499069	-0.099975	0.143921	0.212045	0.988515	0.148760	0.026340	-0.003766
47730	-0.705441	3.093217	9.528071	-0.137302	0.097718	0.228297	0.988569	0.148367	0.026543	-0.003826
47731	-0.661243	3.130156	9.519275	-0.088932	0.142471	0.228403	0.988605	0.148084	0.026755	-0.003782
47732	-0.581039	3.206651	9.577258	-0.000234	0.204666	0.301767	0.988652	0.147732	0.027006	-0.003609
47733	-0.683813	3.039907	9.571333	-0.102184	0.054381	0.252384	0.988705	0.147352	0.027170	-0.003426
47734	-0.496981	2.885246	9.537464	0.082441	-0.075689	0.163400	0.988752	0.147014	0.027308	-0.003176
47735	-0.510515	2.628638	9.667888	0.076736	-0.358223	0.212491	0.988713	0.147217	0.027654	-0.002955
47736	-0.749651	2.805941	9.816747	-0.144585	-0.244366	0.420746	0.988584	0.148023	0.027972	-0.002893
47737	-0.830939	3.186950	9.824656	-0.215510	0.102407	0.546562	0.988497	0.148579	0.028088	-0.002864
47738	-0.697106	3.282616	9.748186	-0.084738	0.213559	0.494391	0.988534	0.148354	0.028005	-0.002825
47739	-0.731338	3.150082	9.646549	-0.129700	0.129043	0.359838	0.988676	0.147444	0.027795	-0.002833
47740	-0.672982	2.843439	9.562401	-0.084885	-0.117872	0.185133	0.988847	0.146329	0.027580	-0.002813
47741	-0.556553	2.673059	9.495784	0.021798	-0.243624	0.064816	0.988935	0.145758	0.027459	-0.002800
47742	-0.603501	2.786447	9.586174	-0.020767	-0.157769	0.187208	0.988917	0.145907	0.027340	-0.002802
47743	-0.579322	2.976830	9.586205	0.004792	0.019458	0.241767	0.988869	0.146229	0.027355	-0.002669
47744	-0.710713	3.095476	9.681662	-0.119661	0.099542	0.375415	0.988851	0.146354	0.027356	-0.002490
47745	-0.691311	3.119245	9.673407	-0.101704	0.125352	0.373398	0.988882	0.146157	0.027288	-0.002297
47746	-0.623271	2.923902	9.648723	-0.039352	-0.046820	0.288391	0.988956	0.145663	0.027262	-0.002035
47747	-0.673253	2.777942	9.613282	-0.094302	-0.167691	0.214695	0.989010	0.145309	0.027226	-0.001847
47748	-0.704496	2.858830	9.649235	-0.123494	-0.095989	0.274557	0.989033	0.145159	0.027188	-0.001835
47749	-0.655332	2.968808	9.670323	-0.072449	0.006711	0.324035	0.989061	0.144971	0.027165	-0.001899
47750	-0.684982	2.966819	9.692153	-0.101576	0.003267	0.345989	0.989106	0.144677	0.027100	-0.001946
47751	-0.709030	2.867998	9.622306	-0.131581	-0.064401	0.251876	0.989158	0.144326	0.027082	-0.001885
47752	-0.698703	2.786995	9.600433	-0.123513	-0.131108	0.206863	0.989169	0.144243	0.027111	-0.001835
47753	-0.615148	2.835886	9.535952	-0.041811	-0.065573	0.154709	0.989148	0.144366	0.027220	-0.001865
47754	-0.619532	2.884578	9.547058	-0.042171	-0.024830	0.179736	0.989124	0.144499	0.027387	-0.001890
47755	-0.713000	2.874752	9.587935	-0.130003	-0.049691	0.221340	0.989095	0.144671	0.027537	-0.001948
47756	-0.714140	2.898459	9.630492	-0.124907	-0.043230	0.268978	0.989059	0.144876	0.027718	-0.002037
47757	-0.637446	3.009729	9.654641	-0.041757	0.052999	0.320049	0.989033	0.145021	0.027878	-0.002207
47758	-0.656600	2.995305	9.603456	-0.060208	0.052622	0.268133	0.989027	0.145028	0.028045	-0.002403
47759	-0.681821	2.854507	9.544591	-0.086866	-0.065567	0.172324	0.989012	0.145099	0.028197	-0.002640
47760	-0.599053	2.869163	9.595422	0.002859	-0.070585	0.220164	0.988949	0.145486	0.028361	-0.002988
47761	-0.690924	3.015036	9.728954	-0.074847	0.019583	0.395856	0.988857	0.146076	0.028502	-0.003333
47762	-0.714396	3.235259	9.605358	-0.099197	0.256270	0.344312	0.988793	0.146490	0.028546	-0.003652
47763	-0.581606	3.213025	9.606767	0.036039	0.230736	0.331140	0.988787	0.146495	0.028721	-0.003782
47764	-0.645799	2.951505	9.629144	-0.027396	-0.026921	0.279258	0.988767	0.146600	0.028860	-0.003926
47765	-0.686253	3.068041	9.511282	-0.069415	0.116154	0.203799	0.988732	0.146801	0.029016	-0.004094
47766	-0.687978	2.989741	9.495482	-0.070230	0.040228	0.165764	0.988671	0.147186	0.029123	-0.004292
47767	-0.709426	3.087025	9.568433	-0.083013	0.103133	0.265526	0.988600	0.147635	0.029212	-0.004505
47768	-0.786984	3.213503	9.606128	-0.153789	0.205366	0.343976	0.988557	0.147907	0.029280	-0.004632
47769	-0.755578	3.174045	9.608421	-0.122042	0.164569	0.332520	0.988561	0.147877	0.029298	-0.004574
47770	-0.656485	3.060393	9.627075	-0.023932	0.052107	0.310270	0.988580	0.147750	0.029329	-0.004414
47771	-0.765671	3.020790	9.677801	-0.130719	0.000524	0.353638	0.988584	0.147727	0.029327	-0.004286
47772	-0.822164	3.025317	9.743247	-0.184467	-0.014503	0.420842	0.988588	0.147725	0.029216	-0.004267
47773	-0.730016	3.072186	9.610978	-0.102357	0.070211	0.302981	0.988599	0.147682	0.029053	-0.004271
47774	-0.708541	3.047344	9.591808	-0.084894	0.054470	0.275967	0.988628	0.147503	0.029001	-0.004105
47775	-0.707636	3.077917	9.620559	-0.082585	0.078001	0.312359	0.988645	0.147385	0.029027	-0.003914
47776	-0.662700	3.212693	9.610270	-0.036940	0.214864	0.339668	0.988705	0.147001	0.028973	-0.003768
47777	-0.694760	3.067011	9.523860	-0.078933	0.113752	0.215970	0.988836	0.146148	0.028836	-0.003570
47778	-0.660494	2.904466	9.474355	-0.052999	-0.009304	0.118710	0.988973	0.145241	0.028765	-0.003300
47779	-0.600334	2.916526	9.466802	0.005947	0.019338	0.111346	0.989056	0.144663	0.028828	-0.003057
47780	-0.693698	3.140821	9.486549	-0.081891	0.238769	0.201146	0.989131	0.144138	0.028923	-0.002873
47781	-0.670196	3.057670	9.389977	-0.064579	0.200701	0.083054	0.989248	0.143321	0.028979	-0.002666
47782	-0.675544	2.867241	9.399394	-0.070466	0.031478	0.037189	0.989357	0.142535	0.029148	-0.002457
47783	-0.632611	2.711810	9.413194	-0.024363	-0.109364	0.003105	0.989408	0.142115	0.029509	-0.002213
47784	-0.572509	2.729594	9.384058	0.042432	-0.079544	-0.023364	0.989394	0.142098	0.030081	-0.001921
47785	-0.625977	2.820204	9.436194	0.005296	-0.009160	0.055800	0.989356	0.142208	0.030800	-0.001655
47786	-0.849190	2.912642	9.605059	-0.191339	0.029777	0.258273	0.989355	0.142049	0.031573	-0.001545
47787	-0.901237	3.071332	9.749925	-0.217384	0.147978	0.445829	0.989425	0.141404	0.032271	-0.001456
47788	-0.818341	2.931566	9.712456	-0.127865	0.045445	0.364595	0.989600	0.140074	0.032702	-0.001343
47789	-0.737543	2.380227	9.660543	-0.049926	-0.443388	0.154078	0.989745	0.138964	0.033055	-0.001302
47790	-0.749598	2.347370	9.618841	-0.056672	-0.451452	0.106341	0.989737	0.138895	0.033554	-0.001467
47791	-0.725137	2.855413	9.698207	-0.008162	0.009645	0.323103	0.989642	0.139404	0.034229	-0.001685
47792	-0.854691	3.189051	9.739767	-0.115563	0.310686	0.466111	0.989600	0.139529	0.034931	-0.001814
47793	-0.855541	3.075879	9.569887	-0.117663	0.257187	0.271740	0.989700	0.138687	0.035455	-0.001808
47794	-0.798121	2.647248	9.560395	-0.057123	-0.133630	0.138439	0.989809	0.137779	0.035943	-0.001758
47795	-0.864098	2.612380	9.658629	-0.105699	-0.183114	0.228009	0.989827	0.137504	0.036506	-0.001832
47796	-0.864895	2.914260	9.726828	-0.084856	0.091947	0.377331	0.989820	0.137384	0.037135	-0.001979
47797	-0.862782	2.920321	9.803902	-0.064694	0.081249	0.452709	0.989848	0.137035	0.037665	-0.002084
47798	-0.892474	2.863652	9.794329	-0.086599	0.037414	0.430211	0.989895	0.136595	0.038020	-0.002193
47799	-0.875055	2.726138	9.766221	-0.067432	-0.078563	0.364046	0.989936	0.136235	0.038232	-0.002351
47800	-0.865911	2.774690	9.703196	-0.058505	-0.009285	0.316341	0.989948	0.136100	0.038375	-0.002519
47801	-0.802524	2.799047	9.649600	0.004609	0.029613	0.266628	0.989925	0.136212	0.038570	-0.002613
47802	-0.867318	2.885069	9.753796	-0.045754	0.080325	0.395342	0.989892	0.136381	0.038822	-0.002597
47803	-0.887234	2.940354	9.733638	-0.061489	0.137944	0.392888	0.989894	0.136297	0.039057	-0.002545
47804	-0.882679	2.865748	9.659375	-0.060796	0.089597	0.300840	0.989919	0.136089	0.039174	-0.002436
47805	-0.886276	2.783134	9.593957	-0.069001	0.031966	0.215749	0.989939	0.135910	0.039282	-0.002341
47806	-0.922510	2.788057	9.563365	-0.105677	0.046682	0.190756	0.989937	0.135898	0.039383	-0.002259
47807	-0.926122	2.910845	9.643042	-0.098865	0.144050	0.301088	0.989948	0.135780	0.039513	-0.002179
47808	-0.988813	2.912319	9.682797	-0.156553	0.137970	0.344692	0.989984	0.135503	0.039581	-0.001977
47809	-0.858230	2.812228	9.726392	-0.024410	0.035170	0.348319	0.990008	0.135328	0.039583	-0.001700
47810	-0.857539	2.739522	9.695475	-0.027880	-0.023437	0.298755	0.990026	0.135203	0.039591	-0.001483
47811	-0.867612	2.661306	9.672427	-0.040269	-0.091331	0.256135	0.990022	0.135199	0.039700	-0.001290
47812	-0.921071	2.774446	9.608896	-0.094928	0.032511	0.230556	0.989992	0.135368	0.039864	-0.001115
47813	-0.981383	2.863773	9.594897	-0.152202	0.120749	0.246567	0.989999	0.135267	0.040039	-0.000872
47814	-0.891616	2.702176	9.643429	-0.058863	-0.043563	0.241520	0.990033	0.134989	0.040157	-0.000454
47815	-0.858348	2.640363	9.687988	-0.020854	-0.110672	0.264649	0.990049	0.134816	0.040351	0.000038
47816	-0.948562	2.552609	9.744932	-0.104216	-0.211483	0.302830	0.990026	0.134922	0.040550	0.000502
47817	-1.017879	2.484077	9.808289	-0.166073	-0.302802	0.350480	0.989943	0.135484	0.040687	0.000738
47818	-0.963155	2.796766	9.744439	-0.112186	0.004336	0.370192	0.989863	0.136053	0.040738	0.000839
47819	-0.810171	2.951515	9.839082	0.051608	0.119643	0.490631	0.989809	0.136397	0.040907	0.001032
47820	-0.975679	2.844659	9.812002	-0.115240	0.016495	0.449177	0.989784	0.136572	0.040921	0.001199
47821	-0.944937	2.784633	9.590898	-0.104284	0.016513	0.218327	0.989761	0.136744	0.040903	0.001315
47822	-0.877705	2.779927	9.508278	-0.044127	0.031209	0.132301	0.989720	0.137020	0.040958	0.001338
47823	-0.892809	2.892803	9.559776	-0.051050	0.120162	0.214161	0.989680	0.137241	0.041184	0.001368
47824	-0.955434	2.829045	9.590709	-0.107644	0.047267	0.231427	0.989676	0.137224	0.041349	0.001441
47825	-0.843324	2.599713	9.655984	0.010955	-0.191575	0.220802	0.989637	0.137442	0.041542	0.001517
47826	-0.915013	2.659588	9.773118	-0.047012	-0.175720	0.355468	0.989554	0.138011	0.041633	0.001482
47827	-0.944802	2.738802	9.871098	-0.066617	-0.139870	0.473626	0.989465	0.138659	0.041604	0.001357
47828	-0.886928	2.804058	9.826536	-0.012914	-0.076834	0.444218	0.989382	0.139274	0.041517	0.001204
47829	-0.819224	2.911363	9.776778	0.049160	0.028909	0.421045	0.989308	0.139855	0.041339	0.001028
47830	-0.876389	2.881568	9.775029	-0.012712	-0.009552	0.415823	0.989271	0.140213	0.041025	0.000886
47831	-0.919974	2.795814	9.769144	-0.063455	-0.097388	0.389547	0.989241	0.140513	0.040714	0.000782
47832	-0.985193	2.878926	9.676729	-0.141585	0.000888	0.330185	0.989203	0.140876	0.040387	0.000773
47833	-0.930075	3.008375	9.708822	-0.089699	0.111179	0.393005	0.989193	0.141048	0.040016	0.000818
47834	-0.958990	2.898410	9.727849	-0.126271	-0.001787	0.382190	0.989211	0.141040	0.039599	0.000955
47835	-0.978911	2.796525	9.713580	-0.157521	-0.096279	0.341049	0.989221	0.141096	0.039145	0.001143
47836	-0.877679	2.787283	9.681245	-0.069537	-0.098410	0.299248	0.989196	0.141411	0.038631	0.001327
47837	-0.854979	2.863076	9.574720	-0.066621	-0.002587	0.217218	0.989161	0.141828	0.037994	0.001440
47838	-0.906902	2.813528	9.505449	-0.137716	-0.038833	0.140779	0.989136	0.142185	0.037292	0.001510
47839	-0.867111	2.900405	9.475826	-0.113974	0.046922	0.134186	0.989121	0.142487	0.036533	0.001434
47840	-0.877979	3.110965	9.546247	-0.131712	0.226568	0.262583	0.989164	0.142370	0.035842	0.001267
47841	-0.808261	3.166298	9.517536	-0.076919	0.297716	0.245525	0.989294	0.141627	0.035172	0.001110
47842	-0.831805	3.120603	9.465676	-0.116517	0.288337	0.183927	0.989487	0.140426	0.034582	0.000877
47843	-0.869274	2.943370	9.473705	-0.165042	0.141889	0.143351	0.989699	0.139050	0.034065	0.000593
47844	-0.831498	2.735314	9.539481	-0.131713	-0.051941	0.144971	0.989844	0.138086	0.033770	0.000220
47845	-0.895342	2.622278	9.412508	-0.210361	-0.111216	-0.003678	0.989917	0.137638	0.033461	-0.000184
47846	-0.607486	2.557698	9.455258	0.076193	-0.178901	-0.000707	0.989901	0.137773	0.033380	-0.000515
47847	-0.619243	2.642527	9.656455	0.080723	-0.162555	0.216300	0.989788	0.138549	0.033521	-0.000835
47848	-0.771078	2.860043	9.732488	-0.060130	0.008639	0.360416	0.989685	0.139266	0.033589	-0.001067
47849	-0.702886	2.892467	9.700888	0.006802	0.038497	0.334535	0.989638	0.139604	0.033540	-0.001168
47850	-0.669528	2.733316	9.777264	0.042059	-0.139226	0.360464	0.989637	0.139637	0.033443	-0.001107
47851	-0.702174	2.762690	9.765504	0.007459	-0.108276	0.359765	0.989640	0.139626	0.033410	-0.000970
47852	-0.739928	2.791068	9.822465	-0.027950	-0.096960	0.424900	0.989650	0.139585	0.033278	-0.000855
47853	-0.735432	2.871806	9.746148	-0.031882	0.005768	0.374288	0.989704	0.139259	0.033036	-0.000768
47854	-0.816362	2.998933	9.793563	-0.113676	0.123556	0.460857	0.989802	0.138633	0.032736	-0.000721
47855	-0.781609	2.912506	9.722491	-0.092113	0.077018	0.366014	0.989948	0.137684	0.032335	-0.000643
47856	-0.622393	2.737111	9.592050	0.048148	-0.034769	0.181461	0.990088	0.136760	0.031973	-0.000529
47857	-0.626114	2.625066	9.553745	0.033884	-0.118556	0.114136	0.990153	0.136357	0.031667	-0.000483
47858	-0.571958	2.687812	9.566042	0.084302	-0.057850	0.139708	0.990150	0.136426	0.031486	-0.000343
47859	-0.787984	2.946431	9.564283	-0.132053	0.187289	0.223516	0.990136	0.136552	0.031376	-0.000258
47860	-0.874453	2.919079	9.620250	-0.217875	0.145074	0.275245	0.990163	0.136391	0.031219	-0.000160
47861	-0.714360	2.839654	9.612150	-0.062531	0.079312	0.235057	0.990239	0.135866	0.031093	-0.000059
47862	-0.594082	2.736075	9.495075	0.047154	0.023590	0.086438	0.990313	0.135328	0.031081	0.000127
47863	-0.671650	2.545494	9.485888	-0.032811	-0.149558	0.030548	0.990355	0.135012	0.031113	0.000333
47864	-0.763570	2.553687	9.544953	-0.119247	-0.158422	0.095449	0.990313	0.135285	0.031261	0.000447
47865	-0.686063	2.769869	9.633735	-0.031139	0.018693	0.234719	0.990246	0.135730	0.031466	0.000553
47866	-0.650230	2.832867	9.652051	0.010284	0.070032	0.267244	0.990239	0.135731	0.031680	0.000619
47867	-0.821163	2.783464	9.754966	-0.151511	-0.004244	0.363675	0.990282	0.135411	0.031697	0.000522
47868	-0.774828	2.799830	9.705002	-0.108598	0.033471	0.317147	0.990343	0.134979	0.031633	0.000352
47869	-0.671572	2.703391	9.648773	-0.011296	-0.033982	0.230064	0.990405	0.134544	0.031540	0.000236
47870	-0.559089	2.651381	9.587119	0.094391	-0.058755	0.149385	0.990449	0.134253	0.031401	0.000133
47871	-0.665939	2.750892	9.606400	-0.010943	0.033448	0.201930	0.990445	0.134283	0.031426	0.000009
47872	-0.880452	2.776765	9.693361	-0.218563	0.032273	0.306505	0.990441	0.134313	0.031407	-0.000182
47873	-0.627458	2.892968	9.550316	0.026665	0.187602	0.184092	0.990473	0.134059	0.031495	-0.000281
47874	-0.654996	2.766661	9.601182	0.005098	0.057552	0.200443	0.990504	0.133765	0.031769	-0.000311
47875	-0.758934	2.738595	9.675442	-0.088817	0.013999	0.271060	0.990516	0.133620	0.031997	-0.000399
47876	-0.689087	2.737648	9.559923	-0.022798	0.047620	0.155206	0.990527	0.133503	0.032142	-0.000548
47877	-0.639621	2.717560	9.579834	0.031348	0.024328	0.165583	0.990518	0.133528	0.032321	-0.000743
47878	-0.846514	2.781100	9.711506	-0.160930	0.047290	0.323205	0.990499	0.133609	0.032563	-0.000864
47879	-0.811686	2.748703	9.679559	-0.123775	0.025113	0.281475	0.990503	0.133524	0.032782	-0.000956
47880	-0.756970	2.748380	9.651268	-0.066719	0.037665	0.250498	0.990548	0.133143	0.032977	-0.001063
47881	-0.760291	2.702718	9.649984	-0.067073	0.003471	0.237208	0.990616	0.132595	0.033119	-0.001125
47882	-0.781100	2.618211	9.671297	-0.083819	-0.074688	0.236517	0.990656	0.132242	0.033327	-0.001106
47883	-0.681270	2.714232	9.598931	0.015974	0.043160	0.185739	0.990671	0.132078	0.033528	-0.001163
47884	-0.620434	2.672563	9.641879	0.084184	-0.005372	0.211595	0.990675	0.131980	0.033815	-0.001245
47885	-0.733719	2.714935	9.637196	-0.022524	0.037423	0.226379	0.990671	0.131929	0.034116	-0.001378
47886	-0.779043	2.815351	9.608603	-0.061853	0.144318	0.228911	0.990689	0.131710	0.034440	-0.001565
47887	-0.805256	2.769067	9.632580	-0.079229	0.099487	0.241495	0.990727	0.131310	0.034842	-0.001687
47888	-0.760863	2.752020	9.664234	-0.024151	0.084191	0.264131	0.990779	0.130801	0.035290	-0.001777
47889	-0.768332	2.657547	9.649297	-0.024845	0.008675	0.225296	0.990847	0.130159	0.035733	-0.001862
47890	-0.756351	2.599965	9.636802	-0.005638	-0.032131	0.197245	0.990894	0.129678	0.036166	-0.001991
47891	-0.780838	2.668975	9.639240	-0.019379	0.041586	0.219559	0.990915	0.129377	0.036659	-0.002129
47892	-0.819999	2.705322	9.723755	-0.041623	0.060791	0.313375	0.990942	0.129041	0.037118	-0.002304
47893	-0.838385	2.634140	9.709403	-0.052876	0.001246	0.282424	0.990951	0.128844	0.037530	-0.002496
47894	-0.881661	2.638082	9.678593	-0.089387	0.016223	0.257254	0.990951	0.128717	0.037972	-0.002626
47895	-0.848366	2.645383	9.711070	-0.044913	0.016871	0.287825	0.990942	0.128663	0.038361	-0.002749
47896	-0.896160	2.668075	9.792775	-0.077150	0.018695	0.376221	0.990936	0.128577	0.038797	-0.002871
47897	-0.950906	2.692284	9.739351	-0.127715	0.058916	0.335602	0.990952	0.128355	0.039104	-0.003018
47898	-0.888477	2.742037	9.742909	-0.057851	0.112868	0.346857	0.990993	0.127946	0.039410	-0.003146
47899	-1.020849	2.640356	9.826666	-0.179291	-0.000123	0.412029	0.991026	0.127623	0.039619	-0.003200
47900	-0.928583	2.660216	9.731906	-0.090619	0.051105	0.318363	0.991066	0.127253	0.039801	-0.003238
47901	-0.764602	2.587717	9.741295	0.077267	-0.014562	0.295108	0.991083	0.127028	0.040102	-0.003278
47902	-0.929718	2.550896	9.866053	-0.071539	-0.080993	0.419554	0.991067	0.127054	0.040395	-0.003367
47903	-0.951795	2.733185	9.726486	-0.097412	0.132405	0.333924	0.991082	0.126896	0.040518	-0.003457
47904	-0.923039	2.689458	9.704491	-0.069198	0.100966	0.299056	0.991121	0.126566	0.040588	-0.003527
47905	-0.954707	2.692374	9.760291	-0.094392	0.096069	0.356161	0.991159	0.126241	0.040669	-0.003592
47906	-0.933810	2.646623	9.782112	-0.070808	0.053994	0.363677	0.991209	0.125818	0.040762	-0.003549
47907	-0.882017	2.555430	9.745455	-0.022351	-0.017338	0.300733	0.991244	0.125522	0.040835	-0.003473
47908	-0.957810	2.577018	9.737457	-0.098011	0.010902	0.304959	0.991279	0.125261	0.040789	-0.003468
47909	-0.926957	2.641696	9.813996	-0.060446	0.059437	0.392465	0.991312	0.125004	0.040768	-0.003474
47910	-0.946423	2.609188	9.822242	-0.080407	0.031876	0.393807	0.991356	0.124666	0.040737	-0.003354
47911	-0.874840	2.567995	9.773826	-0.014574	0.012540	0.330647	0.991414	0.124217	0.040725	-0.003237
47912	-0.842257	2.549443	9.807678	0.019874	-0.004225	0.355851	0.991476	0.123723	0.040710	-0.003184
47913	-0.881234	2.530990	9.862568	-0.015324	-0.026501	0.407479	0.991532	0.123285	0.040674	-0.003170
47914	-0.855998	2.548992	9.790608	0.003824	0.019291	0.340426	0.991602	0.122721	0.040689	-0.003117
47915	-0.915282	2.494355	9.817461	-0.054684	-0.028333	0.357774	0.991684	0.122086	0.040610	-0.003094
47916	-1.002256	2.409178	9.833788	-0.144591	-0.102677	0.359853	0.991766	0.121496	0.040365	-0.003212
47917	-1.022528	2.405692	9.762877	-0.176398	-0.076951	0.292244	0.991844	0.120963	0.040011	-0.003405
47918	-0.899087	2.436691	9.679107	-0.066100	-0.016221	0.208604	0.991905	0.120572	0.039681	-0.003615
47919	-0.895999	2.640859	9.667146	-0.066321	0.193321	0.246581	0.991970	0.120133	0.039370	-0.003835
47920	-0.748854	2.359582	9.532404	0.058854	-0.036104	0.035680	0.992047	0.119585	0.039070	-0.003865
47921	-0.794612	2.109172	9.538725	0.005171	-0.275406	-0.015167	0.992050	0.119607	0.038940	-0.003835
47922	-0.874896	2.357877	9.642181	-0.063213	-0.067476	0.151655	0.991955	0.120379	0.038972	-0.003870
47923	-0.909652	2.648774	9.703369	-0.086546	0.187180	0.284654	0.991896	0.120833	0.039066	-0.003893
47924	-0.948441	2.494646	9.829127	-0.117058	0.002387	0.371655	0.991899	0.120816	0.039046	-0.003938
47925	-0.823604	2.452109	9.808744	0.004808	-0.031418	0.331356	0.991922	0.120631	0.039032	-0.004036
47926	-0.866571	2.314536	9.845947	-0.038438	-0.170884	0.337190	0.991939	0.120520	0.038930	-0.004160
47927	-0.928778	2.345935	9.854198	-0.101695	-0.142629	0.357886	0.991929	0.120653	0.038752	-0.004354
47928	-0.853254	2.509910	9.828901	-0.029115	0.021807	0.367374	0.991940	0.120628	0.038505	-0.004641
47929	-0.916642	2.463663	9.896965	-0.092376	-0.036547	0.426937	0.991980	0.120372	0.038230	-0.004968
47930	-0.904457	2.394333	9.771428	-0.097544	-0.065163	0.287704	0.992052	0.119896	0.037814	-0.005318
47931	-0.819531	2.407811	9.705223	-0.025713	-0.024435	0.220221	0.992142	0.119273	0.037333	-0.005791
47932	-0.883555	2.446272	9.780971	-0.091886	0.009040	0.307775	0.992249	0.118524	0.036809	-0.006276
47933	-0.875006	2.582413	9.772494	-0.089915	0.159969	0.331396	0.992365	0.117677	0.036340	-0.006657
47934	-0.951894	2.549302	9.748216	-0.177353	0.154972	0.305476	0.992517	0.116504	0.035894	-0.006952
47935	-0.803084	2.329730	9.684478	-0.045578	-0.018414	0.180272	0.992681	0.115188	0.035577	-0.007091
47936	-0.696430	2.088848	9.814578	0.060668	-0.261488	0.242269	0.992786	0.114313	0.035469	-0.007063
47937	-0.735316	1.988056	9.763311	0.014729	-0.338179	0.172337	0.992791	0.114280	0.035461	-0.007002
47938	-0.742766	2.192790	9.679908	0.005915	-0.125885	0.139435	0.992714	0.114937	0.035480	-0.006995
47939	-0.932812	2.560322	9.852381	-0.162234	0.181230	0.406687	0.992665	0.115342	0.035524	-0.007054
47940	-0.919541	2.702382	9.872206	-0.145437	0.314808	0.458078	0.992720	0.114922	0.035366	-0.007063
47941	-0.738471	2.578156	9.798820	0.023645	0.228082	0.343910	0.992877	0.113610	0.035188	-0.007017
47942	-0.712121	2.232101	9.501734	0.016241	-0.010201	-0.026377	0.993075	0.111964	0.034885	-0.007034
47943	-0.781616	2.196822	9.494981	-0.058753	-0.015149	-0.035782	0.993208	0.110826	0.034713	-0.007120
47944	-0.712142	2.342954	9.604829	0.020034	0.118355	0.098665	0.993265	0.110308	0.034709	-0.007171
47945	-0.780570	2.615901	9.672220	-0.035575	0.379384	0.230164	0.993311	0.109840	0.034885	-0.007161
47946	-0.737685	2.552738	9.707053	0.010943	0.321333	0.246345	0.993383	0.109159	0.034980	-0.007153
47947	-0.669887	2.224676	9.698890	0.072799	0.014588	0.160320	0.993430	0.108686	0.035091	-0.007207
47948	-0.726116	2.070863	9.705528	0.016223	-0.132782	0.136941	0.993413	0.108795	0.035196	-0.007478
47949	-0.775696	2.196922	9.768761	-0.022777	-0.030128	0.229993	0.993343	0.109356	0.035316	-0.007990
47950	-0.805155	2.500729	9.840008	-0.036537	0.241545	0.369061	0.993299	0.109692	0.035399	-0.008486
47951	-0.783852	2.561451	9.985744	-0.000845	0.269563	0.522586	0.993345	0.109229	0.035440	-0.008874
47952	-0.757945	2.347978	10.067830	0.026317	0.056926	0.552867	0.993438	0.108369	0.035402	-0.009148
47953	-0.818768	2.191794	10.130470	-0.034234	-0.093326	0.583988	0.993501	0.107781	0.035344	-0.009433
47954	-1.027700	2.099629	9.986519	-0.257704	-0.143448	0.439541	0.993499	0.107847	0.035099	-0.009821
47955	-0.814096	2.172393	9.708664	-0.068651	-0.017719	0.169055	0.993468	0.108241	0.034645	-0.010206
47956	-0.674579	2.017623	9.646483	0.053606	-0.167027	0.064038	0.993404	0.108936	0.034209	-0.010540
47957	-0.784491	2.116183	9.535885	-0.068100	-0.061272	-0.013793	0.993306	0.109922	0.033866	-0.010668
47958	-0.799961	2.390786	9.685641	-0.070383	0.156836	0.194204	0.993243	0.110551	0.033715	-0.010497
47959	-0.786182	2.428159	9.756963	-0.053091	0.170397	0.270988	0.993248	0.110551	0.033715	-0.010021
47960	-0.678666	2.226215	9.772284	0.048708	-0.025821	0.232765	0.993314	0.110000	0.033752	-0.009422
47961	-0.699676	1.877409	9.765944	0.018583	-0.355302	0.150308	0.993354	0.109649	0.033868	-0.008865
47962	-0.718402	1.638342	9.780799	-0.002143	-0.593037	0.112664	0.993296	0.110127	0.034121	-0.008441
47963	-0.720294	1.939148	9.820869	0.011800	-0.326605	0.218351	0.993146	0.111377	0.034478	-0.008270
47964	-0.830165	2.332380	9.895421	-0.076618	0.015211	0.387429	0.993000	0.112574	0.034775	-0.008259
47965	-0.839483	2.545992	9.895614	-0.074547	0.207255	0.437262	0.992951	0.112913	0.035093	-0.008196
47966	-0.785666	2.456228	9.775758	-0.025111	0.148575	0.296371	0.992997	0.112408	0.035450	-0.008002
47967	-0.745318	2.064297	9.623712	0.000311	-0.186673	0.056345	0.993067	0.111731	0.035700	-0.007784
47968	-0.724671	1.900076	9.556144	0.017599	-0.325441	-0.048001	0.993047	0.111804	0.036033	-0.007740
47969	-0.775217	2.132029	9.616213	-0.015505	-0.121752	0.066734	0.992940	0.112608	0.036450	-0.007856
47970	-0.788634	2.392731	9.844890	0.003303	0.059882	0.349267	0.992792	0.113742	0.036918	-0.007942
47971	-0.871663	2.585655	9.868939	-0.062911	0.221014	0.423939	0.992663	0.114697	0.037429	-0.007992
47972	-0.908818	2.539603	9.883328	-0.090447	0.158827	0.430471	0.992597	0.115122	0.037848	-0.008051
47973	-0.900111	2.267855	9.874398	-0.081741	-0.109300	0.357783	0.992567	0.115276	0.038166	-0.008061
47974	-0.896592	2.194163	9.784117	-0.080611	-0.164189	0.252784	0.992522	0.115557	0.038481	-0.008136
47975	-0.946788	2.322653	9.905824	-0.112433	-0.072656	0.404873	0.992487	0.115771	0.038681	-0.008327
47976	-0.881372	2.421847	9.974696	-0.035963	0.003438	0.489517	0.992466	0.115915	0.038774	-0.008445
47977	-0.810549	2.518443	9.916124	0.034744	0.110815	0.449650	0.992480	0.115758	0.038876	-0.008480
47978	-0.863315	2.344747	9.903674	-0.023558	-0.052341	0.401157	0.992493	0.115691	0.038756	-0.008452
47979	-0.731994	2.189447	9.795937	0.092354	-0.182602	0.249519	0.992445	0.116139	0.038637	-0.008437
47980	-0.746195	2.320208	9.647872	0.068727	-0.035042	0.137972	0.992327	0.117149	0.038620	-0.008495
47981	-0.819636	2.349957	9.673900	-0.001278	-0.033543	0.176170	0.992186	0.118309	0.038662	-0.008619
47982	-0.885357	2.368777	9.646788	-0.067207	-0.029070	0.159779	0.992073	0.119227	0.038722	-0.008723
47983	-0.714978	2.324522	9.710335	0.108118	-0.105690	0.196425	0.991975	0.120003	0.038837	-0.008714
47984	-0.816154	2.378653	9.683201	0.009462	-0.061387	0.191542	0.991876	0.120764	0.039023	-0.008641
47985	-0.874127	2.468693	9.744844	-0.038224	-0.001554	0.277855	0.991813	0.121251	0.039136	-0.008607
47986	-0.855631	2.393695	9.875377	-0.009272	-0.116164	0.383948	0.991753	0.121700	0.039253	-0.008626
47987	-0.953320	2.293479	9.923438	-0.103565	-0.234531	0.413639	0.991683	0.122233	0.039319	-0.008774
47988	-0.969825	2.339931	9.883008	-0.120915	-0.192610	0.387212	0.991584	0.123013	0.039305	-0.009142
47989	-0.909355	2.489572	9.842428	-0.059081	-0.053459	0.380051	0.991486	0.123775	0.039282	-0.009647
47990	-0.918835	2.550631	9.743179	-0.073833	0.016782	0.300362	0.991400	0.124422	0.039254	-0.010195
47991	-0.939423	2.662249	9.713060	-0.092609	0.125114	0.301134	0.991379	0.124559	0.039214	-0.010718
47992	-0.897706	2.477366	9.696594	-0.058036	-0.048350	0.235270	0.991410	0.124302	0.039141	-0.011130
47993	-0.738737	2.405164	9.688893	0.097602	-0.113887	0.196443	0.991421	0.124175	0.039131	-0.011557
47994	-0.813004	2.423765	9.729869	0.028336	-0.104519	0.246848	0.991406	0.124249	0.039132	-0.012016
47995	-0.841271	2.399901	9.778514	0.003270	-0.142966	0.290092	0.991366	0.124550	0.039036	-0.012534
47996	-0.869727	2.511587	9.791635	-0.020503	-0.045581	0.333155	0.991298	0.125049	0.038980	-0.013073
47997	-0.926707	2.642222	9.893069	-0.065010	0.045793	0.468685	0.991229	0.125569	0.038887	-0.013582
47998	-0.923526	2.730736	9.867171	-0.061725	0.130219	0.465937	0.991194	0.125842	0.038730	-0.014113
47999	-0.863013	2.564668	9.748604	-0.019471	-0.003895	0.304487	0.991189	0.125898	0.038498	-0.014536
48000	-0.814360	2.498152	9.737391	0.022004	-0.068343	0.272727	0.991167	0.126094	0.038271	-0.014974
48001	-0.816335	2.435089	9.745331	0.014127	-0.137002	0.264443	0.991119	0.126500	0.038012	-0.015334
48002	-0.799078	2.530217	9.736175	0.029748	-0.052655	0.278395	0.991052	0.127069	0.037726	-0.015672
48003	-0.911612	2.690746	9.716561	-0.082580	0.099271	0.309863	0.990996	0.127566	0.037414	-0.015925
48004	-0.903067	2.808021	9.745678	-0.073624	0.197923	0.367399	0.990982	0.127770	0.037029	-0.016054
48005	-0.844926	2.681192	9.735998	-0.029875	0.075003	0.320714	0.991000	0.127760	0.036574	-0.016095
48006	-0.815542	2.522561	9.716058	-0.017396	-0.074465	0.258279	0.991000	0.127877	0.036148	-0.016111
48007	-0.755225	2.502184	9.700782	0.032414	-0.096315	0.233513	0.990965	0.128257	0.035735	-0.016157
48008	-0.786233	2.492617	9.741254	-0.004217	-0.126791	0.272312	0.990880	0.129016	0.035337	-0.016192
48009	-0.883255	2.649580	9.752621	-0.101879	0.007606	0.331452	0.990782	0.129869	0.034910	-0.016300
48010	-0.774049	2.770053	9.678407	-0.001382	0.125832	0.283256	0.990709	0.130522	0.034493	-0.016422
48011	-0.821996	2.858562	9.740041	-0.049304	0.185505	0.369582	0.990670	0.130912	0.034089	-0.016552
48012	-0.853588	2.825746	9.559162	-0.102396	0.199430	0.189351	0.990689	0.130871	0.033643	-0.016631
48013	-0.769072	2.710658	9.491068	-0.035352	0.106345	0.087158	0.990713	0.130769	0.033255	-0.016750
48014	-0.815286	2.635890	9.572176	-0.086237	0.014384	0.148814	0.990713	0.130839	0.032904	-0.016893
48015	-0.793018	2.791319	9.554604	-0.063800	0.166557	0.171249	0.990702	0.130966	0.032691	-0.017011
48016	-0.770961	2.708291	9.603681	-0.045600	0.072361	0.194939	0.990715	0.130909	0.032556	-0.016954
48017	-0.688818	2.608679	9.604989	0.029459	-0.023982	0.163988	0.990740	0.130767	0.032443	-0.016808
48018	-0.727678	2.559931	9.568838	-0.015934	-0.059077	0.119164	0.990746	0.130768	0.032369	-0.016562
48019	-0.775903	2.622719	9.697648	-0.055232	-0.035906	0.263061	0.990698	0.131171	0.032315	-0.016329
48020	-0.765793	2.816355	9.750897	-0.035531	0.128838	0.364759	0.990663	0.131479	0.032276	-0.016073
48021	-0.742478	2.772665	9.735314	-0.016130	0.088331	0.336560	0.990685	0.131352	0.032295	-0.015728
48022	-0.715567	2.674278	9.732287	0.006349	-0.002752	0.305670	0.990721	0.131113	0.032349	-0.015352
48023	-0.777487	2.696047	9.613466	-0.062249	0.057233	0.201539	0.990777	0.130729	0.032373	-0.014947
48024	-0.829027	2.529117	9.616847	-0.119649	-0.097818	0.164465	0.990810	0.130507	0.032482	-0.014434
48025	-0.820150	2.680801	9.643322	-0.102364	0.043266	0.229257	0.990817	0.130478	0.032611	-0.013907
48026	-0.798977	2.783365	9.637534	-0.076832	0.144816	0.249155	0.990843	0.130309	0.032739	-0.013348
48027	-0.755822	2.754628	9.666861	-0.032135	0.111906	0.266692	0.990873	0.130107	0.032856	-0.012742
48028	-0.741097	2.630705	9.626666	-0.023486	0.005227	0.194408	0.990887	0.130025	0.032983	-0.012160
48029	-0.826615	2.657492	9.660554	-0.104387	0.022505	0.240196	0.990872	0.130148	0.033126	-0.011673
48030	-0.857294	2.774343	9.684095	-0.127475	0.127606	0.295779	0.990871	0.130150	0.033344	-0.011158
48031	-0.785312	2.713322	9.663984	-0.056283	0.073952	0.255221	0.990887	0.130021	0.033541	-0.010603
48032	-0.791006	2.634350	9.724701	-0.057929	-0.013859	0.293338	0.990931	0.129678	0.033723	-0.010067
48033	-0.791416	2.439711	9.737442	-0.061243	-0.199442	0.254724	0.990963	0.129437	0.033845	-0.009632
48034	-0.785343	2.425446	9.685031	-0.057936	-0.197068	0.200164	0.990968	0.129405	0.033935	-0.009236
48035	-0.768886	2.526102	9.771994	-0.031349	-0.125744	0.308946	0.990930	0.129681	0.034080	-0.008864
48036	-0.812292	2.626711	9.707721	-0.074515	-0.017088	0.276586	0.990897	0.129925	0.034224	-0.008406
48037	-0.787650	2.585786	9.776868	-0.044953	-0.078423	0.330569	0.990890	0.129981	0.034323	-0.007966
48038	-0.825836	2.500027	9.784804	-0.083323	-0.165763	0.318458	0.990866	0.130157	0.034464	-0.007503
48039	-0.855065	2.697522	9.698440	-0.112055	0.045409	0.289435	0.990863	0.130165	0.034585	-0.007162
48040	-0.847264	2.712830	9.700850	-0.103259	0.061819	0.295196	0.990899	0.129902	0.034596	-0.006901
48041	-0.922138	2.794461	9.777726	-0.171210	0.127753	0.396016	0.990960	0.129444	0.034596	-0.006682
48042	-0.813804	2.663093	9.717903	-0.071883	0.028169	0.296021	0.991059	0.128722	0.034508	-0.006390
48043	-0.799579	2.409872	9.724585	-0.063764	-0.206427	0.235580	0.991117	0.128279	0.034561	-0.006164
48044	-0.884341	2.382055	9.684708	-0.151702	-0.218919	0.196252	0.991111	0.128332	0.034547	-0.006007
48045	-0.800204	2.540106	9.689759	-0.064437	-0.072343	0.235919	0.991062	0.128714	0.034557	-0.005889
48046	-0.777633	2.676569	9.676943	-0.040427	0.054434	0.257435	0.991008	0.129138	0.034535	-0.005760
48047	-0.759571	2.668643	9.604148	-0.028674	0.058415	0.184013	0.990972	0.129436	0.034498	-0.005605
48048	-0.771375	2.588642	9.695493	-0.036424	-0.048421	0.251854	0.990940	0.129684	0.034513	-0.005342
48049	-0.787574	2.637964	9.666334	-0.052739	0.001491	0.237903	0.990903	0.129941	0.034665	-0.005012
48050	-0.810879	2.660042	9.710610	-0.069732	0.005373	0.288026	0.990861	0.130220	0.034872	-0.004671
48051	-0.834822	2.714392	9.784477	-0.084435	0.032788	0.375180	0.990826	0.130451	0.035032	-0.004421
48052	-0.851020	2.811605	9.830458	-0.093866	0.112330	0.446252	0.990831	0.130401	0.035089	-0.004284
48053	-0.840576	2.799854	9.839105	-0.083536	0.103422	0.450648	0.990888	0.129989	0.035012	-0.004229
48054	-0.802219	2.678459	9.834721	-0.050316	-0.003532	0.411640	0.990954	0.129533	0.034847	-0.004209
48055	-0.731654	2.670289	9.730599	0.008683	0.022187	0.304117	0.990979	0.129393	0.034634	-0.004240
48056	-0.819340	2.796977	9.718598	-0.081517	0.150123	0.332083	0.991001	0.129279	0.034425	-0.004268
48057	-0.734776	2.751474	9.615964	-0.010292	0.134722	0.215224	0.991016	0.129247	0.034143	-0.004116
48058	-0.700463	2.716028	9.567841	0.015310	0.113266	0.157166	0.991020	0.129258	0.034020	-0.003810
48059	-0.712474	2.563927	9.540447	-0.003990	-0.029345	0.091887	0.990990	0.129518	0.033959	-0.003330
48060	-0.695056	2.508711	9.606842	0.015548	-0.108037	0.140012	0.990924	0.130027	0.033992	-0.002719
48061	-0.665956	2.675591	9.758365	0.057844	0.001994	0.327559	0.990847	0.130584	0.034134	-0.002106
48062	-0.850444	2.781023	9.949502	-0.110796	0.046175	0.552424	0.990849	0.130561	0.034197	-0.001542
48063	-0.831105	2.783007	9.875656	-0.100444	0.075493	0.480448	0.990960	0.129793	0.033915	-0.001055
48064	-0.668216	2.676868	9.803123	0.047816	0.013413	0.371164	0.991130	0.128590	0.033531	-0.000740
48065	-0.740095	2.483043	9.714909	-0.040727	-0.129669	0.240879	0.991264	0.127668	0.033102	-0.000731
48066	-0.697988	2.547735	9.437842	-0.025653	0.020529	-0.012182	0.991360	0.127039	0.032628	-0.001049
48067	-0.575906	2.591851	9.339291	0.083829	0.099448	-0.104197	0.991415	0.126672	0.032363	-0.001549
48068	-0.803954	2.627928	9.401884	-0.139632	0.122774	-0.019159	0.991438	0.126471	0.032444	-0.001967
48069	-0.835097	2.635703	9.517437	-0.159016	0.105752	0.096372	0.991468	0.126171	0.032663	-0.002209
48070	-0.789227	2.286637	9.607361	-0.105962	-0.247945	0.090861	0.991501	0.125827	0.032991	-0.002286
48071	-0.730638	2.201926	9.609985	-0.041480	-0.328419	0.067826	0.991468	0.125988	0.033356	-0.002361
48072	-0.703916	2.461371	9.785485	0.009729	-0.127283	0.301325	0.991408	0.126319	0.033878	-0.002419
48073	-0.808887	2.666939	9.995107	-0.067819	0.013453	0.563451	0.991389	0.126358	0.034282	-0.002567
48074	-0.849046	2.692844	9.984310	-0.102413	0.044550	0.562584	0.991430	0.125997	0.034410	-0.002714
48075	-0.751058	2.664345	9.901582	-0.008944	0.046257	0.468457	0.991476	0.125624	0.034445	-0.002825
48076	-0.724006	2.689416	9.889639	0.018172	0.081411	0.461315	0.991522	0.125254	0.034442	-0.002926
48077	-0.664821	2.572976	9.728987	0.064631	0.017859	0.272494	0.991572	0.124846	0.034481	-0.002970
48078	-0.685772	2.470123	9.641212	0.036342	-0.054745	0.163306	0.991580	0.124788	0.034476	-0.002948
48079	-0.703723	2.530910	9.598263	0.017863	0.012669	0.138538	0.991540	0.125058	0.034664	-0.002764
48080	-0.817214	2.701600	9.675540	-0.083958	0.151246	0.264645	0.991489	0.125404	0.034896	-0.002371
48081	-0.753369	2.873326	9.753079	-0.009822	0.292573	0.378506	0.991467	0.125542	0.035051	-0.001826
48082	-0.760630	2.767971	9.756869	-0.016957	0.190804	0.355892	0.991500	0.125249	0.035199	-0.001143
48083	-0.762781	2.551714	9.747166	-0.021731	-0.010259	0.291755	0.991537	0.124937	0.035295	-0.000459
48084	-0.734149	2.365733	9.772558	0.007695	-0.194589	0.267027	0.991520	0.125030	0.035434	0.000101
48085	-0.782993	2.507936	9.817334	-0.034653	-0.075461	0.349791	0.991450	0.125545	0.035579	0.000532
48086	-0.800556	2.631277	9.821937	-0.049491	0.031011	0.386898	0.991374	0.126112	0.035665	0.000951
48087	-0.785772	2.675037	9.738380	-0.040416	0.085722	0.316494	0.991336	0.126395	0.035715	0.001447
48088	-0.820046	2.668829	9.660987	-0.080845	0.095251	0.242868	0.991327	0.126448	0.035759	0.001982
48089	-0.816554	2.626562	9.706409	-0.075133	0.041916	0.275551	0.991327	0.126437	0.035762	0.002497
48090	-0.808161	2.467353	9.727366	-0.067783	-0.118479	0.254287	0.991316	0.126532	0.035693	0.002959
48091	-0.573362	2.463688	9.605018	0.155504	-0.089428	0.118208	0.991299	0.126653	0.035692	0.003346
48092	-0.624865	2.301306	9.762469	0.116665	-0.294449	0.231811	0.991222	0.127197	0.035881	0.003640
48093	-0.845055	2.558473	9.774971	-0.098562	-0.067609	0.326131	0.991103	0.128073	0.036009	0.003832
48094	-0.884387	2.724433	9.758174	-0.137725	0.080216	0.355952	0.991014	0.128755	0.036010	0.003973
48095	-0.779081	2.679151	9.751813	-0.033615	0.027709	0.330329	0.990948	0.129267	0.036003	0.004111
48096	-0.717510	2.624246	9.687885	0.022741	-0.015921	0.249909	0.990906	0.129580	0.036016	0.004159
48097	-0.797221	2.473174	9.661038	-0.058111	-0.162344	0.190216	0.990864	0.129883	0.036086	0.004086
48098	-0.901904	2.526897	9.737575	-0.155459	-0.140698	0.285582	0.990797	0.130401	0.036087	0.003852
48099	-0.992673	2.818868	9.859798	-0.235596	0.096346	0.486936	0.990726	0.130954	0.036054	0.003568
48100	-0.974212	2.856250	9.826036	-0.220526	0.131776	0.463120	0.990675	0.131377	0.035935	0.003462
48101	-0.547187	2.853851	9.532472	0.180383	0.207512	0.149055	0.990643	0.131667	0.035746	0.003386
48102	-0.478937	2.496687	9.516774	0.242784	-0.139214	0.033809	0.990585	0.132164	0.035560	0.003244
48103	-0.598870	2.358589	9.464349	0.117900	-0.278566	-0.045193	0.990401	0.133526	0.035608	0.003112
48104	-0.697762	2.783733	9.542226	0.029481	0.077046	0.151409	0.990155	0.135288	0.035792	0.003023
48105	-0.729802	3.031329	9.594932	0.006760	0.271331	0.272479	0.989995	0.136389	0.036019	0.003149
48106	-0.689951	3.024999	9.655149	0.054979	0.236262	0.325839	0.989963	0.136560	0.036244	0.003440
48107	-0.762771	2.815932	9.839821	-0.000948	-0.013006	0.450508	0.990031	0.135998	0.036453	0.003790
48108	-0.931278	2.637209	10.026170	-0.151424	-0.226567	0.592694	0.990112	0.135338	0.036691	0.003959
48109	-0.994191	2.704377	9.896216	-0.221927	-0.115203	0.491420	0.990186	0.134803	0.036667	0.003848
48110	-0.834040	2.673854	9.703284	-0.078742	-0.078168	0.286150	0.990263	0.134295	0.036493	0.003533
48111	-0.709010	2.557002	9.542879	0.030117	-0.137136	0.091240	0.990304	0.134065	0.036256	0.003066
48112	-0.667810	2.498470	9.432458	0.060197	-0.162561	-0.033652	0.990279	0.134295	0.036138	0.002574
48113	-0.684065	2.759056	9.324844	0.038325	0.108830	-0.064882	0.990188	0.134940	0.036249	0.002156
48114	-0.689707	3.073760	9.418516	0.047319	0.377979	0.111375	0.990150	0.135124	0.036609	0.001927
48115	-0.765642	2.855591	9.591560	-0.009412	0.120869	0.223444	0.990177	0.134843	0.036931	0.001871
48116	-0.763959	2.632528	9.592233	-0.002699	-0.088088	0.163133	0.990205	0.134551	0.037247	0.001781
48117	-0.766300	2.558849	9.669499	0.007286	-0.176497	0.217413	0.990199	0.134502	0.037586	0.001568
48118	-0.805607	2.454089	9.852295	-0.010851	-0.331779	0.367149	0.990120	0.134981	0.037946	0.001320
48119	-0.935185	2.657438	9.875515	-0.129525	-0.158267	0.454761	0.989988	0.135881	0.038202	0.000985
48120	-0.796944	2.882822	9.813914	0.010608	0.061926	0.446686	0.989899	0.136479	0.038372	0.000736
48121	-0.930718	2.835214	9.894000	-0.113630	-0.018697	0.520882	0.989829	0.136966	0.038443	0.000525
48122	-0.884402	3.002296	9.645855	-0.085748	0.206263	0.325783	0.989837	0.136960	0.038280	0.000291
48123	-0.781939	2.809760	9.596229	0.007387	0.039371	0.216878	0.989884	0.136670	0.038078	0.000149
48124	-0.818265	2.795106	9.674450	-0.026172	0.006597	0.290600	0.989894	0.136649	0.037900	-0.000050
48125	-0.875482	2.912084	9.606530	-0.090777	0.139527	0.262253	0.989930	0.136454	0.037668	-0.000238
48126	-0.804931	2.980246	9.571799	-0.026065	0.220182	0.242160	0.989973	0.136188	0.037493	-0.000313
48127	-0.862919	3.155233	9.589479	-0.083655	0.389941	0.311500	0.990036	0.135770	0.037350	-0.000286
48128	-0.872425	3.142744	9.550967	-0.099605	0.399119	0.271444	0.990130	0.135126	0.037200	-0.000102
48129	-0.774283	2.857084	9.577212	-0.005444	0.127528	0.210742	0.990171	0.134838	0.037159	0.000133
48130	-0.615052	2.639492	9.383395	0.135257	-0.027282	-0.046713	0.990131	0.135129	0.037153	0.000216
48131	-0.654912	2.752534	9.351951	0.096304	0.079733	-0.042903	0.990026	0.135837	0.037369	0.000148
48132	-0.881318	2.921669	9.519410	-0.108789	0.180216	0.181697	0.989922	0.136494	0.037744	0.000175
48133	-0.811749	2.867162	9.608541	-0.025123	0.095411	0.246829	0.989879	0.136668	0.038231	0.000628
48134	-0.775352	2.787109	9.674104	0.025167	0.001840	0.284678	0.989897	0.136347	0.038876	0.001361
48135	-0.956503	2.488912	9.817700	-0.136144	-0.318456	0.354753	0.989953	0.135771	0.039426	0.002098
48136	-0.948623	2.323191	9.860025	-0.116866	-0.479107	0.349693	0.989999	0.135282	0.039910	0.002670
48137	-1.091412	2.328788	9.951967	-0.242894	-0.493726	0.451489	0.990021	0.134983	0.040355	0.003013
48138	-1.171352	2.865823	10.095788	-0.299526	-0.015290	0.742880	0.990001	0.135021	0.040717	0.003009
48139	-1.051887	3.342484	10.110547	-0.172157	0.449818	0.877019	0.990111	0.134198	0.040775	0.002938
48140	-0.535929	2.839699	9.610106	0.295424	0.135856	0.217239	0.990334	0.132584	0.040620	0.003088
48141	-0.529128	2.001461	9.267424	0.265713	-0.553478	-0.336718	0.990478	0.131546	0.040495	0.003111
48142	-0.699167	2.067407	9.255528	0.095593	-0.489145	-0.316405	0.990344	0.132530	0.040590	0.002718
48143	-1.135955	3.138479	9.613843	-0.296971	0.412693	0.351357	0.990097	0.134249	0.040976	0.002261
48144	-0.995083	3.727003	9.570675	-0.147013	0.974160	0.459019	0.990059	0.134414	0.041362	0.002100
48145	-0.780199	3.078952	9.448832	0.057641	0.402305	0.147423	0.990278	0.132729	0.041560	0.002222
48146	-0.610061	2.114488	9.419460	0.221175	-0.486635	-0.154340	0.990441	0.131440	0.041770	0.002297
48147	-0.943475	1.853123	9.729516	-0.078336	-0.818354	0.102545	0.990357	0.131892	0.042338	0.002248
48148	-1.119322	2.435115	10.081210	-0.206444	-0.374961	0.609891	0.990123	0.133457	0.042910	0.001997
48149	-0.922799	3.148251	10.110339	0.009064	0.277609	0.812979	0.989937	0.134689	0.043354	0.001781
48150	-1.062148	3.122918	10.121359	-0.123315	0.234009	0.829339	0.989924	0.134782	0.043370	0.001572
48151	-0.903816	2.753085	9.810574	-0.000022	-0.030524	0.416818	0.990008	0.134300	0.042967	0.001294
48152	-0.929427	2.533091	9.762444	-0.040153	-0.222339	0.313252	0.990055	0.134119	0.042467	0.000807
48153	-1.005463	2.754947	9.733519	-0.124808	-0.001404	0.352277	0.990051	0.134305	0.041955	0.000112
48154	-1.032969	2.992547	9.645542	-0.164744	0.251243	0.334656	0.990090	0.134160	0.041502	-0.000576
48155	-0.988589	2.818034	9.593008	-0.134693	0.105891	0.232961	0.990185	0.133608	0.041012	-0.001186
48156	-0.953760	2.769191	9.378402	-0.126622	0.128254	0.010754	0.990269	0.133125	0.040530	-0.001759
48157	-0.826654	2.818169	9.367359	-0.007085	0.185920	0.002516	0.990299	0.133008	0.040153	-0.002186
48158	-0.607339	2.773817	9.184793	0.191248	0.192924	-0.202820	0.990273	0.133256	0.039963	-0.002390
48159	-0.599297	2.656044	9.209995	0.197658	0.065693	-0.210898	0.990208	0.133744	0.039922	-0.002441
48160	-0.533855	2.362113	9.217653	0.260683	-0.232001	-0.288618	0.990081	0.134615	0.040169	-0.002305
48161	-0.569542	2.259784	9.147605	0.226126	-0.330680	-0.381401	0.989902	0.135723	0.040860	-0.001942
48162	-0.888057	2.353553	9.268936	-0.063695	-0.299767	-0.213363	0.989681	0.137013	0.041919	-0.001571
48163	-1.131901	2.627538	9.279076	-0.278458	-0.065272	-0.106787	0.989471	0.138073	0.043383	-0.000944
48164	-1.081622	2.706969	9.244136	-0.202217	0.007325	-0.121938	0.989363	0.138326	0.045013	-0.000295
48165	-0.845117	2.489041	9.099717	0.047775	-0.159837	-0.342393	0.989312	0.138118	0.046750	0.000012
48166	-0.852655	2.265817	8.816092	0.045503	-0.292006	-0.675021	0.989233	0.137954	0.048864	-0.000183
48167	-1.037543	2.133252	8.644230	-0.112852	-0.375059	-0.857446	0.989052	0.138236	0.051637	-0.000723
48168	-1.025373	2.132240	8.607204	-0.044090	-0.377844	-0.894356	0.988685	0.139338	0.055532	-0.001437
48169	-1.025135	2.465041	8.270070	0.002799	0.012542	-1.122432	0.988175	0.140899	0.060448	-0.001873
48170	-0.891084	2.960463	8.001034	0.205936	0.541626	-1.254750	0.987638	0.142068	0.066203	-0.002358
48171	-1.100001	2.564934	8.075982	0.105108	0.128515	-1.269752	0.987192	0.141945	0.072769	-0.002982
48172	-1.213046	2.030700	7.994818	0.084742	-0.360280	-1.483577	0.986641	0.141817	0.080071	-0.003947
48173	-1.819128	2.329271	8.518505	-0.279318	-0.231270	-0.803468	0.985920	0.141638	0.088715	-0.005402
48174	-2.190632	2.214269	8.612727	-0.467959	-0.370279	-0.673630	0.985088	0.141322	0.097904	-0.006713
48175	-1.949192	2.399829	8.554687	-0.058735	-0.166074	-0.718327	0.984118	0.140847	0.107729	-0.008227
48176	-2.021016	2.326663	8.693474	0.083249	-0.268655	-0.593566	0.983013	0.140352	0.117813	-0.010342
48177	-2.296124	2.304849	8.408593	-0.055052	-0.204498	-0.799326	0.981667	0.140021	0.128622	-0.013442
48178	-2.735916	2.809002	8.109714	-0.313546	0.375311	-0.818244	0.980222	0.138706	0.140165	-0.016716
48179	-2.842114	2.231426	8.144761	-0.226005	-0.157768	-0.906872	0.978620	0.136567	0.152509	-0.019838
48180	-3.593176	1.309938	8.384988	-0.710949	-1.083743	-0.688546	0.976595	0.135541	0.165404	-0.023083
48181	-3.898771	1.325969	8.555727	-0.694981	-1.118807	-0.409559	0.973904	0.137271	0.178589	-0.027794
48182	-4.131824	2.687056	8.458590	-0.527213	0.190237	-0.039336	0.970773	0.139021	0.192724	-0.033630
48183	-4.667972	3.295137	8.264685	-0.716864	0.835277	0.173966	0.967783	0.137971	0.206998	-0.038887
48184	-4.966022	2.144599	8.191359	-0.868791	-0.204338	-0.037472	0.964717	0.135772	0.221374	-0.043359
48185	-5.071599	1.636204	8.141733	-0.767305	-0.642616	-0.133975	0.961281	0.135002	0.235306	-0.048427
48186	-5.130096	1.889129	7.983762	-0.560572	-0.340916	-0.159213	0.957392	0.135191	0.249335	-0.054376
48187	-5.686234	2.080788	7.806643	-0.790164	-0.078836	0.034531	0.953067	0.135230	0.263995	-0.060684
48188	-6.268884	2.190555	7.560982	-1.061379	0.132287	0.192930	0.948253	0.135426	0.279261	-0.067007
48189	-6.646677	2.243596	7.440167	-1.086239	0.238698	0.352005	0.943001	0.136040	0.294855	-0.072815
48190	-6.333662	1.589770	7.365615	-0.682821	-0.394281	-0.001234	0.937564	0.137392	0.309895	-0.077854
48191	-6.527372	0.869947	7.117231	-0.828989	-1.026114	-0.206971	0.931437	0.140328	0.325165	-0.083678
48192	-7.171436	1.368626	6.955283	-0.970862	-0.519002	0.210120	0.924598	0.144581	0.340528	-0.090864
48193	-7.865003	2.201646	6.952269	-0.909439	0.246721	0.870904	0.917300	0.148664	0.356063	-0.098379
48194	-8.530422	3.029938	7.294620	-0.538005	0.887185	1.766103	0.909857	0.151434	0.371757	-0.104994
48195	-8.668205	3.316548	7.394560	-0.061112	1.076511	2.004216	0.902538	0.152732	0.387166	-0.110454
48196	-8.233895	2.802594	6.950437	0.169972	0.695033	1.297494	0.895490	0.152516	0.402158	-0.114481
48197	-7.941202	1.595726	6.264751	-0.153885	-0.207782	0.423515	0.888533	0.151650	0.416658	-0.117932
48198	-8.138617	1.038881	6.003934	-0.324516	-0.627402	0.329118	0.881235	0.152436	0.430263	-0.122726
48199	-8.715659	1.291700	6.001811	-0.264101	-0.394862	0.837113	0.873127	0.156732	0.443027	-0.129659
48200	-9.479365	1.880317	6.077892	-0.092142	0.081524	1.602567	0.864172	0.163531	0.455576	-0.137533
48201	-9.688952	1.845853	5.702568	-0.148500	0.096802	1.578501	0.854804	0.170806	0.467917	-0.145566
48202	-9.242701	1.602419	5.062537	-0.156124	0.000966	0.845170	0.845075	0.177148	0.480331	-0.154104
48203	-9.341322	1.204662	4.808965	-0.238888	-0.320276	0.754645	0.835051	0.183117	0.492354	-0.163542
48204	-9.882308	0.875804	4.850820	-0.283366	-0.658567	1.207043	0.824747	0.189665	0.503377	-0.174445
48205	-10.919092	0.919165	4.654022	-0.531249	-0.500800	2.069588	0.814158	0.196915	0.513455	-0.186375
48206	-10.392008	1.523466	4.282960	0.040600	0.077059	1.529315	0.803429	0.203380	0.523412	-0.197935
48207	-9.593164	2.079127	3.974630	0.732489	0.551082	0.737170	0.792793	0.208054	0.533772	-0.208037
48208	-8.805441	2.438392	3.757667	1.353582	0.817697	-0.061147	0.782568	0.210862	0.544273	-0.216546
48209	-9.075287	2.223090	4.171835	1.762084	0.377939	0.259626	0.772891	0.212215	0.554660	-0.223508
48210	-9.342073	1.419388	3.973725	1.344765	-0.177445	0.347707	0.763967	0.213909	0.563648	-0.229997
48211	-9.581811	0.527598	3.625630	0.734654	-0.706797	0.394684	0.755253	0.216121	0.571864	-0.236340
48212	-10.439178	-0.266393	3.524286	0.215661	-1.226322	1.137769	0.746388	0.218581	0.579690	-0.243081
48213	-10.794452	-0.614821	3.092896	-0.161548	-1.227991	1.364318	0.737373	0.221505	0.586584	-0.251268
48214	-10.639424	-0.075845	2.894121	0.290769	-0.723472	1.185799	0.728098	0.225209	0.592445	-0.261081
48215	-10.234907	1.116844	3.027540	1.451371	0.028067	0.820065	0.719310	0.228824	0.597218	-0.271226
48216	-9.729097	1.950520	3.367782	2.525977	0.340074	0.351095	0.712034	0.230502	0.601627	-0.279145
48217	-9.566119	1.536782	3.126152	2.265076	0.163664	0.111291	0.705955	0.230265	0.606292	-0.284633
48218	-9.585130	0.879368	2.444625	1.475096	0.144257	0.006974	0.700542	0.230333	0.610214	-0.289528
48219	-9.449772	0.278127	2.098718	0.951012	-0.075830	-0.175838	0.695605	0.231276	0.613360	-0.293998
48220	-9.886694	-0.016018	1.875530	0.663015	-0.092394	0.228008	0.690800	0.233365	0.615832	-0.298474
48221	-10.483630	0.288871	1.844233	0.911870	0.198620	0.794835	0.686512	0.236218	0.617269	-0.303118
48222	-10.759934	0.770849	1.950785	1.385062	0.471570	1.051697	0.683088	0.239688	0.617406	-0.307814
48223	-10.735895	0.812381	1.976782	1.476523	0.453620	1.024335	0.680477	0.243237	0.616861	-0.311881
48224	-10.447378	0.048047	1.762584	0.800979	0.027662	0.752081	0.678557	0.247032	0.615698	-0.315359
48225	-9.932939	-0.372731	1.511958	0.339834	-0.158123	0.234585	0.676485	0.251643	0.614236	-0.318997
48226	-9.615541	-0.705142	1.328872	-0.023072	-0.309070	-0.085117	0.673972	0.256774	0.613025	-0.322535
48227	-9.583551	-0.810875	1.293225	-0.126090	-0.388263	-0.116933	0.670708	0.262665	0.611933	-0.326643
48228	-9.770280	-0.504844	1.298634	0.105811	-0.207742	0.053682	0.667522	0.268553	0.610439	-0.331146
48229	-9.852017	-0.159692	1.133856	0.266217	0.121224	0.101332	0.664919	0.273552	0.608592	-0.335660
48230	-9.750878	0.756283	1.254758	1.060471	0.572588	-0.026291	0.663484	0.276715	0.606801	-0.339131
48231	-9.822077	0.944727	1.130776	1.123485	0.794172	0.023543	0.663310	0.278099	0.605241	-0.341121
48232	-9.638381	0.618089	1.039860	0.792722	0.661144	-0.153697	0.664635	0.277940	0.603770	-0.341279
48233	-9.460626	-0.006586	0.948548	0.213628	0.352250	-0.313562	0.666406	0.277319	0.602465	-0.340636
48234	-9.408566	-0.749251	0.794659	-0.500251	0.028351	-0.354208	0.668033	0.276670	0.601529	-0.339630
48235	-9.586940	-1.009187	0.915019	-0.668588	-0.196632	-0.154560	0.669202	0.276465	0.600748	-0.338878
48236	-9.700429	-0.725730	1.082862	-0.371162	-0.136673	-0.033059	0.669893	0.276753	0.599936	-0.338714
48237	-9.622289	-0.410527	1.249701	-0.037584	-0.079469	-0.101304	0.670520	0.277100	0.599101	-0.338669
48238	-9.548262	-0.350633	1.603003	0.213088	-0.326264	-0.132294	0.670996	0.277154	0.598790	-0.338232
48239	-9.589785	-0.457997	1.505887	0.057812	-0.310508	-0.099723	0.671350	0.276943	0.598640	-0.337967
48240	-9.659418	-0.613402	1.447508	-0.112219	-0.348643	-0.033028	0.671758	0.276914	0.598247	-0.337876
48241	-9.742382	-0.715381	1.545096	-0.149467	-0.474971	0.064820	0.672065	0.277332	0.597672	-0.337939
48242	-9.861364	-0.600149	1.591900	-0.049459	-0.425620	0.185173	0.672178	0.277917	0.597076	-0.338288
48243	-9.778087	-0.383074	1.529321	0.076906	-0.250548	0.088214	0.672217	0.278551	0.596313	-0.339035
48244	-9.626206	-0.223437	1.497623	0.181112	-0.140606	-0.070816	0.672203	0.279314	0.595421	-0.340001
48245	-9.568095	-0.172007	1.538751	0.238302	-0.141838	-0.124093	0.672281	0.279941	0.594557	-0.340841
48246	-9.814672	-0.122241	1.410469	0.173533	0.027704	0.102012	0.672526	0.280304	0.593734	-0.341495
48247	-9.855709	-0.012824	1.370659	0.220881	0.139274	0.134456	0.672974	0.280410	0.593042	-0.341728
48248	-9.830503	0.115674	1.400922	0.329060	0.198283	0.110374	0.673628	0.280146	0.592553	-0.341504
48249	-9.824074	0.044954	1.358450	0.233845	0.194647	0.100297	0.674425	0.279636	0.592296	-0.340793
48250	-9.786833	0.101925	1.362362	0.269698	0.225183	0.062790	0.675251	0.279162	0.592094	-0.339896
48251	-9.740789	-0.023373	1.432841	0.201208	0.088603	0.030493	0.676133	0.278668	0.591990	-0.338728
48252	-9.680428	-0.061245	1.558262	0.235749	-0.041976	-0.010378	0.677027	0.278298	0.591835	-0.337515
48253	-9.656189	-0.146340	1.688777	0.233480	-0.202353	-0.013713	0.677944	0.277898	0.591742	-0.336163
48254	-9.616283	-0.340960	1.788752	0.128297	-0.409459	-0.034924	0.678796	0.277613	0.591618	-0.334895
48255	-9.599006	-0.474086	1.820408	0.029016	-0.523587	-0.045162	0.679507	0.277535	0.591410	-0.333886
48256	-9.616847	-0.506051	1.879469	0.023842	-0.592634	-0.018790	0.680085	0.277672	0.591124	-0.333099
48257	-9.692142	-0.582420	1.909488	-0.039524	-0.659608	0.060828	0.680575	0.278065	0.590654	-0.332604
48258	-9.759757	-0.610634	1.869322	-0.109387	-0.640875	0.121968	0.680924	0.278681	0.589936	-0.332649
48259	-9.767907	-0.488379	1.833652	-0.053861	-0.535407	0.123269	0.681129	0.279435	0.589038	-0.333187
48260	-9.747479	-0.265152	1.730014	0.043903	-0.314969	0.085568	0.681192	0.280218	0.588105	-0.334048
48261	-9.626889	-0.005407	1.725023	0.242611	-0.160328	-0.036791	0.681304	0.280743	0.587352	-0.334703
48262	-9.548181	0.054190	1.765899	0.308634	-0.160081	-0.108657	0.681660	0.281010	0.586690	-0.334915
48263	-9.553729	0.074224	1.818414	0.341449	-0.183920	-0.094898	0.682175	0.281152	0.586094	-0.334791
48264	-9.809525	-0.224861	1.744588	0.022265	-0.274449	0.149496	0.682739	0.281263	0.585492	-0.334603
48265	-9.848090	-0.279420	1.582026	-0.139521	-0.172583	0.163108	0.683124	0.281676	0.584731	-0.334797
48266	-9.840075	-0.096425	1.575430	-0.012703	-0.054242	0.153016	0.683209	0.282362	0.584075	-0.335193
48267	-9.830382	0.134297	1.567221	0.154054	0.091713	0.141130	0.683233	0.283090	0.583443	-0.335630
48268	-9.691877	0.027797	1.781420	0.200759	-0.161696	0.038213	0.683273	0.283782	0.583036	-0.335670
48269	-9.772348	0.049499	1.731188	0.171386	-0.107481	0.109878	0.683116	0.284641	0.582783	-0.335703
48270	-9.662095	0.171058	1.544273	0.158538	0.087894	-0.028147	0.682898	0.285649	0.582496	-0.335787
48271	-9.652481	-0.001029	1.530439	0.006686	-0.020239	-0.039656	0.682591	0.286870	0.582189	-0.335905
48272	-9.741288	-0.093867	1.678002	0.003871	-0.196099	0.070566	0.682240	0.288222	0.581768	-0.336189
48273	-9.714382	0.005364	1.745105	0.116653	-0.205460	0.054368	0.681865	0.289506	0.581327	-0.336608
48274	-9.662255	0.061310	1.675072	0.117013	-0.132922	-0.007718	0.681625	0.290471	0.580945	-0.336923
48275	-9.562477	-0.014641	1.715199	0.082789	-0.229948	-0.100667	0.681541	0.291105	0.580718	-0.336938
48276	-9.572667	-0.147316	1.721265	-0.026737	-0.320199	-0.090694	0.681567	0.291495	0.580629	-0.336701
48277	-9.714053	-0.170114	1.655631	-0.103155	-0.271847	0.038624	0.681598	0.291893	0.580492	-0.336530
48278	-9.728798	-0.072716	1.655383	-0.033036	-0.217463	0.053756	0.681649	0.292305	0.580301	-0.336397
48279	-9.834165	-0.023819	1.621837	-0.029434	-0.154669	0.153101	0.681634	0.292652	0.580200	-0.336301
48280	-9.810583	-0.070708	1.576913	-0.095240	-0.155291	0.122402	0.681571	0.293073	0.580085	-0.336261
48281	-9.814267	-0.222557	1.589627	-0.214770	-0.262549	0.126186	0.681461	0.293712	0.579898	-0.336248
48282	-9.816791	-0.292066	1.593559	-0.275024	-0.315762	0.128076	0.681253	0.294614	0.579616	-0.336365
48283	-9.773644	-0.313881	1.452804	-0.379496	-0.231392	0.063329	0.681013	0.295757	0.579147	-0.336657
48284	-9.819560	-0.302454	1.270830	-0.491195	-0.084521	0.080836	0.680664	0.297088	0.578640	-0.337063
48285	-10.018075	-0.427372	1.196053	-0.664651	-0.086517	0.263312	0.680170	0.298583	0.578061	-0.337733
48286	-10.254364	-0.374937	1.107404	-0.706586	0.034626	0.483838	0.679688	0.300058	0.577314	-0.338671
48287	-10.286035	-0.220488	1.025808	-0.641500	0.190248	0.505049	0.679301	0.301466	0.576497	-0.339588
48288	-10.053020	0.055873	0.938620	-0.454078	0.393195	0.266328	0.679164	0.302542	0.575721	-0.340219
48289	-9.687411	0.303138	0.918439	-0.240377	0.511393	-0.093530	0.679430	0.303241	0.574945	-0.340378
48290	-9.281452	0.365970	0.953230	-0.145674	0.472953	-0.488365	0.680123	0.303619	0.574271	-0.339796
48291	-9.288285	0.039975	1.013298	-0.403156	0.231385	-0.480782	0.681241	0.303806	0.573615	-0.338494
48292	-9.481003	-0.311581	0.989825	-0.755189	0.059857	-0.305203	0.682487	0.304050	0.572831	-0.337091
48293	-9.924931	-0.537626	0.976980	-1.029810	-0.021039	0.121433	0.683619	0.304310	0.572087	-0.335823
48294	-10.179669	-0.580443	1.077790	-1.067590	-0.105648	0.384039	0.684611	0.304539	0.571335	-0.334875
48295	-10.186968	-0.229136	1.185910	-0.749468	0.010810	0.418213	0.685531	0.304623	0.570692	-0.334010
48296	-10.066006	-0.014419	1.341831	-0.496302	-0.004410	0.330232	0.686573	0.304441	0.570272	-0.332751
48297	-10.134249	0.039342	1.408717	-0.448245	-0.022855	0.409227	0.687804	0.304025	0.569916	-0.331194
48298	-9.943729	0.046087	1.319811	-0.499242	0.030055	0.205872	0.689306	0.303582	0.569257	-0.329609
48299	-9.918870	-0.219283	1.276744	-0.767239	-0.098355	0.160463	0.690786	0.303245	0.568654	-0.327857
48300	-9.947915	-0.140780	1.069672	-0.862906	0.110147	0.155672	0.692016	0.303430	0.567855	-0.326473
48301	-9.756606	0.031724	0.867348	-0.851775	0.344975	-0.060763	0.692927	0.304376	0.566770	-0.325546
48302	-9.722819	0.057549	0.979745	-0.796938	0.256122	-0.076385	0.693443	0.306060	0.565380	-0.325285
48303	-9.717020	0.626288	1.118785	-0.295640	0.473677	-0.027366	0.693791	0.307986	0.563711	-0.325619
48304	-9.556537	1.298974	0.903630	0.109708	1.020766	-0.180596	0.694232	0.309755	0.561985	-0.325985
48305	-9.426880	1.589596	1.066995	0.424304	1.041499	-0.259336	0.694824	0.311107	0.560570	-0.325874
48306	-9.224231	1.520519	1.512784	0.623802	0.618149	-0.383180	0.695665	0.311836	0.559370	-0.325444
48307	-8.973195	1.662806	1.913385	0.977944	0.357280	-0.546615	0.696828	0.311675	0.558549	-0.324518
48308	-8.801364	1.599702	2.106211	1.039640	0.156862	-0.682865	0.698366	0.310629	0.558187	-0.322834
48309	-8.783443	1.266800	2.345740	0.892838	-0.223049	-0.679823	0.699915	0.309212	0.558242	-0.320738
48310	-9.138544	1.286164	2.541290	0.948174	-0.318860	-0.292991	0.701207	0.307619	0.558480	-0.319028
48311	-9.310379	1.235097	2.748645	0.992621	-0.480738	-0.089146	0.702258	0.306058	0.558708	-0.317816
48312	-9.414159	1.105465	2.938536	0.981204	-0.683246	0.038903	0.703072	0.304753	0.558985	-0.316783
48313	-9.706966	0.963590	2.996729	0.851416	-0.773570	0.326877	0.703756	0.303769	0.559120	-0.315968
48314	-9.667666	1.095791	2.800319	0.843151	-0.532044	0.262645	0.704392	0.302898	0.559156	-0.315324
48315	-9.530836	1.290794	2.659000	0.933515	-0.306510	0.117461	0.704910	0.302115	0.559295	-0.314671
48316	-9.343858	1.384650	2.643045	1.030094	-0.248380	-0.061388	0.705476	0.301023	0.559807	-0.313536
48317	-9.217203	1.389163	2.625838	1.050044	-0.239368	-0.188669	0.706144	0.299412	0.560859	-0.311690
48318	-9.076439	1.151941	2.552496	0.853958	-0.339975	-0.358635	0.706904	0.297554	0.562129	-0.309449
48319	-8.881645	0.998590	2.611966	0.815311	-0.499654	-0.550465	0.707604	0.295758	0.563482	-0.307102
48320	-8.818483	0.939641	2.701164	0.847577	-0.613283	-0.601263	0.708143	0.294162	0.564927	-0.304729
48321	-8.965562	0.787534	2.767692	0.760903	-0.752321	-0.457655	0.708578	0.292644	0.566480	-0.302288
48322	-9.152859	0.673020	2.920711	0.753589	-0.933292	-0.256571	0.708860	0.291283	0.568072	-0.299944
48323	-9.392269	0.555749	3.001768	0.694206	-1.059470	-0.018315	0.708981	0.290059	0.569675	-0.297795
48324	-9.525909	0.411834	3.069158	0.627403	-1.205112	0.111338	0.708867	0.289152	0.571210	-0.296003
48325	-9.648169	0.391240	2.997975	0.569980	-1.170614	0.213916	0.708431	0.288651	0.572700	-0.294653
48326	-9.783283	0.330186	2.824802	0.415909	-1.089291	0.308653	0.707667	0.288675	0.574067	-0.293807
48327	-9.919887	0.371572	2.534281	0.263596	-0.854613	0.393432	0.706574	0.289192	0.575166	-0.293777
48328	-9.815654	0.654712	2.373722	0.416587	-0.577346	0.282029	0.705231	0.290005	0.576148	-0.294277
48329	-9.801566	0.992063	2.273443	0.640012	-0.302697	0.273047	0.703695	0.290592	0.577481	-0.294762
48330	-9.799317	1.059141	2.156972	0.652558	-0.190006	0.254032	0.702332	0.290808	0.578898	-0.295020
48331	-9.595247	0.915713	2.033561	0.531517	-0.223972	0.021430	0.701094	0.290955	0.580397	-0.294876
48332	-9.621429	0.527927	1.869527	0.161653	-0.374555	-0.005590	0.699903	0.291299	0.581954	-0.294295
48333	-9.822368	0.123779	1.573520	-0.336651	-0.429543	0.120703	0.698729	0.292247	0.583062	-0.293954
48334	-10.030006	-0.048128	1.411182	-0.584700	-0.432865	0.290058	0.697440	0.294116	0.583327	-0.294623
48335	-10.239547	0.231681	1.346729	-0.435102	-0.208373	0.506369	0.695998	0.296450	0.582896	-0.296541
48336	-10.277999	0.804673	1.441679	0.065664	0.081922	0.596547	0.694515	0.298580	0.582210	-0.299214
48337	-10.031331	1.235897	1.654759	0.576334	0.176225	0.411306	0.693406	0.299967	0.581631	-0.301517
48338	-9.653347	1.336102	2.014102	0.937698	-0.059706	0.094181	0.693073	0.300251	0.581406	-0.302434
48339	-9.477831	1.015537	2.207689	0.838103	-0.418664	-0.073243	0.693440	0.299417	0.581745	-0.301767
48340	-9.531444	0.484560	2.322204	0.496496	-0.834047	-0.038553	0.694154	0.297929	0.582414	-0.300304
48341	-9.551286	-0.105819	2.390744	0.089585	-1.258375	-0.047321	0.694742	0.296645	0.583107	-0.298867
48342	-9.712456	-0.381074	2.362455	-0.153967	-1.403553	0.090066	0.694750	0.296266	0.583538	-0.298383
48343	-9.880698	-0.201857	2.309199	-0.067370	-1.238650	0.260174	0.694063	0.296949	0.583477	-0.299421
48344	-9.668734	0.244744	2.274090	0.287502	-0.939784	0.074170	0.692935	0.298333	0.582964	-0.301648
48345	-9.394423	0.439741	2.130726	0.390030	-0.723584	-0.204730	0.691681	0.300096	0.582219	-0.304205
48346	-9.255823	0.498408	1.723168	0.201881	-0.381465	-0.394529	0.690611	0.302194	0.581076	-0.306734
48347	-9.240896	0.838745	1.494920	0.325349	0.007981	-0.419790	0.689700	0.304141	0.579838	-0.309193
48348	-9.270238	1.197618	1.546423	0.631368	0.197499	-0.361476	0.688995	0.305545	0.578545	-0.311791
48349	-9.184605	1.132922	1.835474	0.764541	-0.064294	-0.409455	0.688583	0.306329	0.577480	-0.313900
48350	-9.390183	0.824568	1.896032	0.528141	-0.271363	-0.215927	0.688398	0.306603	0.576783	-0.315317
48351	-9.586825	0.607167	1.593275	0.145912	-0.134222	-0.077439	0.688363	0.306896	0.575906	-0.316707
48352	-9.682187	0.554905	1.217139	-0.137014	0.157233	-0.040760	0.688074	0.307694	0.574665	-0.318809
48353	-9.659185	0.876515	1.430518	0.246676	0.199341	-0.014019	0.687205	0.309042	0.573217	-0.321969
48354	-9.576343	1.634612	1.809216	1.091504	0.364339	0.001964	0.686227	0.310120	0.571649	-0.325784
48355	-9.398091	1.852365	2.169511	1.505654	0.211776	-0.109581	0.685748	0.310474	0.570395	-0.328641
48356	-9.632354	1.467985	2.262780	1.221540	-0.041299	0.115227	0.685807	0.309958	0.569711	-0.330186
48357	-9.813660	0.867140	2.112202	0.625214	-0.226425	0.241119	0.686251	0.309164	0.569069	-0.331115
48358	-9.866879	0.547179	1.784846	0.170714	-0.117694	0.227100	0.686421	0.308619	0.568470	-0.332298
48359	-9.682030	0.553167	1.513278	0.048509	0.110620	0.001744	0.685853	0.308951	0.567572	-0.334688
48360	-9.349472	0.824479	1.548437	0.341494	0.226258	-0.308888	0.684534	0.310330	0.566257	-0.338320
48361	-9.282182	1.205136	1.823841	0.828422	0.232067	-0.315452	0.683079	0.311761	0.564828	-0.342312
48362	-9.225882	1.458238	1.904393	1.101294	0.323123	-0.349455	0.682060	0.312495	0.563547	-0.345769
48363	-9.283704	1.312025	1.731601	0.889425	0.415294	-0.328839	0.681708	0.312222	0.562647	-0.348167
48364	-9.252547	0.921059	1.444714	0.421906	0.460135	-0.423579	0.681617	0.311523	0.561933	-0.350118
48365	-9.164650	0.769868	1.285954	0.232206	0.527072	-0.544172	0.681168	0.311107	0.561264	-0.352427
48366	-9.095554	0.790867	1.246495	0.253766	0.592392	-0.620685	0.680153	0.311259	0.560374	-0.355655
48367	-9.118340	1.187308	1.336566	0.653120	0.769377	-0.575719	0.678787	0.311786	0.559079	-0.359817
48368	-9.318059	1.567783	1.337064	0.976190	1.036420	-0.376342	0.677521	0.312036	0.557715	-0.364079
48369	-9.726607	1.580275	1.203657	0.898237	1.251391	-0.005551	0.676629	0.311758	0.556509	-0.367801
48370	-9.971686	1.393307	1.053399	0.657329	1.358117	0.197743	0.676288	0.311005	0.555396	-0.370738
48371	-9.935526	1.241922	1.038919	0.539856	1.331020	0.150904	0.676356	0.309894	0.554438	-0.372970
48372	-9.868774	1.262854	1.126568	0.619270	1.304418	0.095464	0.676796	0.308316	0.553697	-0.374577
48373	-9.803216	1.240458	1.281996	0.692961	1.200463	0.054621	0.677646	0.306130	0.553188	-0.375584
48374	-10.046765	1.076071	1.461244	0.624264	1.056990	0.322573	0.678817	0.303410	0.552958	-0.376014
48375	-10.410022	0.750122	1.711527	0.446018	0.791541	0.724622	0.680135	0.300158	0.553295	-0.375747
48376	-10.670930	0.445893	1.911575	0.279270	0.557790	1.019320	0.681489	0.296543	0.554248	-0.374760
48377	-10.566700	0.111321	2.130739	0.144450	0.216809	0.964120	0.682706	0.292955	0.555666	-0.373262
48378	-10.108406	-0.076830	2.319185	0.160098	-0.099160	0.556924	0.683529	0.290003	0.557330	-0.371577
48379	-9.547024	-0.017061	2.456328	0.368937	-0.273735	0.034566	0.683747	0.288068	0.559196	-0.369874
48380	-9.050062	0.083104	2.482587	0.544407	-0.341645	-0.449966	0.683307	0.287288	0.561233	-0.368206
48381	-8.866086	0.022074	2.537530	0.568872	-0.483411	-0.620868	0.682364	0.287643	0.563277	-0.366550
48382	-8.823365	-0.073512	2.561698	0.529150	-0.609394	-0.660210	0.681196	0.288920	0.565147	-0.364837
48383	-8.981408	-0.013904	2.439314	0.511299	-0.505769	-0.533754	0.679917	0.290814	0.566787	-0.363169
48384	-9.242209	0.093408	2.499495	0.622438	-0.513895	-0.272104	0.678594	0.292764	0.568534	-0.361343
48385	-9.738994	0.197296	2.860366	0.877646	-0.734183	0.274879	0.677886	0.293815	0.570524	-0.358672
48386	-10.173117	0.248169	2.736433	0.825289	-0.595307	0.675699	0.678119	0.293408	0.572786	-0.354940
48387	-10.397553	-0.238389	2.191729	0.119679	-0.452881	0.805686	0.678329	0.292108	0.575878	-0.350582
48388	-10.430986	-1.017644	1.724381	-0.751762	-0.579764	0.766201	0.678317	0.290473	0.579145	-0.346558
48389	-9.746365	-1.541307	1.248081	-1.352885	-0.650113	0.019487	0.677672	0.289577	0.582021	-0.343741
48390	-9.002086	-1.748367	1.080799	-1.515022	-0.786296	-0.738080	0.675974	0.290133	0.584744	-0.341989
48391	-8.683846	-1.610290	0.868257	-1.464081	-0.629822	-1.082541	0.673287	0.292336	0.587153	-0.341286
48392	-8.874588	-1.530780	0.595236	-1.537533	-0.402545	-0.928464	0.669871	0.295927	0.589093	-0.341569
48393	-9.408922	-1.683746	0.501518	-1.719928	-0.419033	-0.406295	0.666099	0.300485	0.590322	-0.342843
48394	-10.224594	-1.509628	0.444109	-1.631601	-0.243717	0.399888	0.662013	0.305442	0.590968	-0.345256
48395	-10.690826	-0.961305	0.548333	-1.111104	-0.016538	0.877655	0.658147	0.309576	0.591453	-0.348120
48396	-10.761571	-0.210073	0.724380	-0.348164	0.232064	0.967151	0.655021	0.312048	0.592267	-0.350419
48397	-10.307062	0.147688	0.964473	0.154209	0.165658	0.537968	0.653062	0.312388	0.593955	-0.350915
48398	-9.733543	-0.151122	0.925482	-0.043202	-0.041211	-0.034272	0.652016	0.311219	0.596579	-0.349443
48399	-9.362303	-0.950010	0.681578	-0.784239	-0.348013	-0.416764	0.651233	0.310036	0.599391	-0.347136
48400	-9.382992	-1.686282	0.382212	-1.523804	-0.555735	-0.410610	0.649883	0.310033	0.601772	-0.345547
48401	-9.929234	-2.115379	0.181611	-1.972942	-0.634186	0.127260	0.647526	0.311591	0.603375	-0.345774
48402	-10.390138	-1.942037	0.206579	-1.789813	-0.555697	0.591961	0.644253	0.314346	0.604203	-0.347943
48403	-10.701139	-1.247254	0.365602	-1.084147	-0.304183	0.908109	0.640424	0.317445	0.604880	-0.351008
48404	-10.764919	-0.566465	0.461402	-0.407138	-0.032592	0.969245	0.636840	0.319909	0.605793	-0.353706
48405	-10.391246	-0.288891	0.560204	-0.060055	-0.015573	0.597458	0.634038	0.321405	0.607046	-0.355230
48406	-10.141311	-0.425965	0.645153	-0.079397	-0.206537	0.355627	0.631926	0.321986	0.608939	-0.355229
48407	-9.831024	-0.681377	0.650882	-0.248259	-0.400538	0.052131	0.630429	0.321992	0.611048	-0.354261
48408	-9.785657	-1.152592	0.521257	-0.680157	-0.584524	0.013541	0.629199	0.322076	0.613020	-0.352963
48409	-10.013212	-1.568109	0.364787	-1.086118	-0.704589	0.246149	0.627776	0.322966	0.614377	-0.352322
48410	-10.071823	-1.555818	0.347176	-1.061951	-0.713742	0.303904	0.625782	0.324790	0.615070	-0.352984
48411	-10.132756	-1.080975	0.390411	-0.610797	-0.518818	0.353496	0.623299	0.326787	0.615591	-0.354621
48412	-10.180894	-0.581522	0.327162	-0.186325	-0.214012	0.386095	0.620766	0.328493	0.615857	-0.357018
48413	-10.037080	-0.205985	0.282374	0.145765	0.011601	0.229405	0.618415	0.329773	0.615952	-0.359743
48414	-9.855010	-0.003513	0.220162	0.322865	0.164823	0.038107	0.616308	0.330488	0.616282	-0.362129
48415	-9.611090	0.016897	0.055954	0.288576	0.312343	-0.210838	0.614750	0.330513	0.616731	-0.363987
48416	-9.342919	-0.070379	0.018972	0.218631	0.298210	-0.476807	0.613838	0.330081	0.617173	-0.365167
48417	-9.273731	-0.168428	0.100688	0.197797	0.182922	-0.540796	0.613247	0.329458	0.617775	-0.365705
48418	-9.487625	-0.475048	0.077434	-0.052638	0.061257	-0.313206	0.612987	0.328802	0.618160	-0.366079
48419	-9.451206	-0.878418	0.211256	-0.321408	-0.252694	-0.327205	0.613020	0.328288	0.618220	-0.366383
48420	-9.392368	-0.919985	0.383280	-0.266795	-0.416301	-0.380543	0.613181	0.327833	0.618277	-0.366427
48421	-9.573676	-0.865916	0.443846	-0.182344	-0.428987	-0.200986	0.613548	0.327332	0.618418	-0.366021
48422	-9.716914	-1.036744	0.559368	-0.269175	-0.608157	-0.047246	0.614347	0.326699	0.618479	-0.365143
48423	-9.891837	-1.380015	0.766204	-0.460468	-0.954383	0.148089	0.615428	0.325926	0.618527	-0.363930
48424	-10.149012	-1.471089	0.714545	-0.569186	-0.944478	0.407934	0.616630	0.324962	0.618485	-0.362827
48425	-10.247076	-1.386095	0.594840	-0.570725	-0.786641	0.499107	0.617994	0.323895	0.618254	-0.361853
48426	-10.230531	-1.072250	0.634898	-0.299030	-0.646177	0.468829	0.619347	0.322763	0.618046	-0.360906
48427	-10.042696	-0.850598	0.507520	-0.198084	-0.419592	0.268063	0.620669	0.321609	0.617980	-0.359775
48428	-9.945502	-0.860231	0.235527	-0.371268	-0.191411	0.163983	0.621894	0.321069	0.617537	-0.358902
48429	-9.787737	-0.692058	0.056405	-0.351837	0.047422	-0.006780	0.622889	0.321222	0.616711	-0.358461
48430	-9.743525	-0.633558	0.110210	-0.303198	0.035725	-0.052742	0.623913	0.321718	0.615582	-0.358173
48431	-9.752878	-0.628406	0.165787	-0.301567	-0.005868	-0.042838	0.625082	0.322148	0.614613	-0.357412
48432	-9.713047	-0.659421	0.120361	-0.388872	0.010820	-0.084319	0.626668	0.322270	0.613852	-0.355829
48433	-9.518877	-0.736771	0.064438	-0.526638	-0.001124	-0.279666	0.628571	0.322177	0.613239	-0.353608
48434	-9.491483	-1.089621	0.050590	-0.874116	-0.190313	-0.300714	0.630468	0.322115	0.612471	-0.351611
48435	-9.661053	-0.948718	0.137388	-0.749985	-0.183622	-0.134952	0.632282	0.321911	0.611566	-0.350115
48436	-9.806461	-0.837461	0.168288	-0.681134	-0.135542	0.006370	0.634395	0.321171	0.610450	-0.348917
48437	-9.706083	-0.719474	0.237595	-0.585394	-0.117497	-0.095410	0.636824	0.319967	0.609319	-0.347572
48438	-9.697815	-0.644200	0.293780	-0.535263	-0.105534	-0.104388	0.639567	0.318395	0.608382	-0.345615
48439	-9.494851	-0.764428	0.205044	-0.726722	-0.093587	-0.313134	0.642619	0.316497	0.607530	-0.343187
48440	-9.277122	-0.843897	0.187653	-0.844644	-0.120641	-0.534531	0.645835	0.314436	0.606582	-0.340713
48441	-9.018343	-0.864815	0.242381	-0.870294	-0.176397	-0.793351	0.649156	0.312136	0.605687	-0.338100
48442	-8.894280	-1.005464	0.385703	-0.943516	-0.367577	-0.910864	0.652400	0.309811	0.604937	-0.335324
48443	-9.007912	-1.056827	0.694246	-0.852098	-0.631749	-0.778528	0.655501	0.307541	0.604391	-0.332338
48444	-9.225947	-1.137944	0.943499	-0.817952	-0.860330	-0.544791	0.658440	0.305204	0.604037	-0.329313
48445	-9.449734	-0.940867	1.201224	-0.550866	-0.928024	-0.301596	0.661209	0.302984	0.603609	-0.326587
48446	-9.835983	-0.600665	1.605394	-0.084610	-1.013247	0.119623	0.663486	0.300707	0.603775	-0.323755
48447	-10.745163	-0.564276	1.787734	-0.013148	-1.068199	1.042344	0.665431	0.298112	0.604330	-0.321117
48448	-11.514969	-0.653654	1.877898	-0.075757	-1.129783	1.817709	0.666707	0.295560	0.605099	-0.319378
48449	-11.595653	-0.389488	1.800884	0.094807	-0.879920	1.895033	0.667175	0.293442	0.605847	-0.318933
48450	-10.769111	0.448972	1.610681	0.710385	-0.242054	1.059583	0.666935	0.291837	0.606575	-0.319525
48451	-9.906213	0.663824	1.370982	0.807673	0.039489	0.177275	0.666095	0.291462	0.606820	-0.321150
48452	-9.397686	0.979748	1.397289	1.121711	0.184963	-0.329210	0.664796	0.292569	0.606665	-0.323120
48453	-9.531887	1.015149	1.240095	1.060438	0.330870	-0.211063	0.663632	0.294115	0.606498	-0.324422
48454	-9.647762	0.585991	0.882541	0.503828	0.341404	-0.126040	0.662547	0.296130	0.606092	-0.325562
48455	-9.438374	0.617322	0.774273	0.476053	0.410358	-0.343347	0.661199	0.298848	0.605427	-0.327053
48456	-9.317357	0.464797	0.787323	0.369151	0.277154	-0.461969	0.659564	0.302140	0.604383	-0.329253
48457	-9.179125	0.627186	0.702653	0.457658	0.414840	-0.606067	0.657674	0.305781	0.602810	-0.332541
48458	-9.272033	1.068922	0.519794	0.705700	0.819575	-0.527557	0.656176	0.309006	0.600805	-0.336128
48459	-9.234980	1.369392	0.388274	0.877925	1.100001	-0.575259	0.655336	0.311046	0.599008	-0.339080
48460	-9.400207	1.350452	0.549769	0.944934	0.985510	-0.398567	0.655497	0.311010	0.597825	-0.340885
48461	-9.398263	1.369111	0.775938	1.085640	0.846905	-0.383591	0.656593	0.308955	0.597269	-0.341618
48462	-9.380110	1.182970	0.950959	1.030247	0.642734	-0.388489	0.658055	0.306118	0.597189	-0.341497
48463	-9.575023	0.763575	1.106208	0.763787	0.336927	-0.179892	0.659522	0.303264	0.597229	-0.341143
48464	-9.543230	0.534859	1.335520	0.711007	0.056797	-0.188028	0.660654	0.300943	0.597212	-0.341040
48465	-9.733810	0.398493	1.483247	0.677157	-0.096380	0.017776	0.661195	0.299762	0.597203	-0.341045
48466	-10.023531	0.286916	1.541759	0.604277	-0.170081	0.313341	0.661412	0.299617	0.597018	-0.341077
48467	-10.054842	0.278967	1.571684	0.606511	-0.195892	0.348101	0.661504	0.300169	0.596639	-0.341076
48468	-9.977151	0.406701	1.480274	0.646858	-0.062619	0.260931	0.661625	0.301321	0.595937	-0.341052
48469	-10.051746	0.443786	1.429059	0.616995	-0.006390	0.331075	0.662115	0.302850	0.594841	-0.340661
48470	-9.856297	0.691458	1.632670	0.908394	-0.055452	0.160371	0.663250	0.303994	0.593318	-0.340089
48471	-9.892332	0.913414	1.657119	1.051186	0.058860	0.203794	0.665197	0.304307	0.591506	-0.339162
48472	-9.667662	1.313409	1.600340	1.296029	0.332003	-0.016799	0.668031	0.304226	0.589179	-0.337711
48473	-9.733270	1.587698	1.499361	1.371950	0.603836	0.049246	0.671963	0.303596	0.586393	-0.335318
48474	-9.811459	1.602297	1.480120	1.259902	0.664816	0.136801	0.676617	0.302961	0.583115	-0.332235
48475	-9.869642	1.852213	1.697939	1.452157	0.676368	0.244918	0.682155	0.302471	0.578942	-0.328637
48476	-10.003722	2.403350	2.329144	2.095450	0.553090	0.510889	0.688266	0.301858	0.574517	-0.324194
48477	-10.381692	2.703295	2.529870	2.222293	0.657896	0.962863	0.695367	0.301141	0.569161	-0.319115
48478	-10.475558	2.603325	2.882061	2.118679	0.376157	1.150230	0.703248	0.301189	0.562727	-0.313155
48479	-10.580768	2.414588	3.250476	1.914738	0.022531	1.353110	0.711944	0.301784	0.555052	-0.306560
48480	-10.557083	2.543861	3.376035	1.802208	0.042227	1.415090	0.721212	0.302592	0.546432	-0.299506
48481	-10.622433	2.760899	3.382993	1.636543	0.217820	1.552520	0.730909	0.303615	0.537031	-0.291868
48482	-10.891339	2.923844	3.402981	1.348440	0.372679	1.882665	0.741305	0.304377	0.526662	-0.283635
48483	-10.538498	3.272737	3.421440	1.334319	0.602934	1.646797	0.752318	0.304598	0.515267	-0.275204
48484	-10.284370	3.528716	3.697275	1.369594	0.607890	1.572853	0.763801	0.303889	0.503639	-0.265719
48485	-10.409794	3.374650	4.096699	1.041555	0.298940	1.821103	0.775877	0.302287	0.491616	-0.254856
48486	-10.623812	3.289028	4.454617	0.672881	0.087016	2.147586	0.788436	0.300059	0.478552	-0.243558
48487	-10.195048	3.638346	4.796609	0.825849	0.149876	1.996596	0.801379	0.297324	0.464093	-0.232397
48488	-9.509540	3.954311	5.080372	1.037224	0.232364	1.620938	0.814356	0.294030	0.448996	-0.220848
48489	-9.411210	3.746475	5.183524	0.536899	0.125390	1.551794	0.827159	0.290293	0.433477	-0.208892
48490	-9.596738	3.380426	5.421459	-0.129709	-0.166104	1.713409	0.839780	0.286311	0.417005	-0.197236
48491	-9.662391	3.081947	5.568901	-0.756805	-0.365368	1.726104	0.851968	0.282942	0.399181	-0.186411
48492	-9.137910	3.241008	5.586868	-0.849841	-0.199933	1.342325	0.863288	0.280722	0.380478	-0.176537
48493	-8.634536	3.459237	5.666438	-0.864917	-0.035438	1.043651	0.873884	0.278652	0.361690	-0.166913
48494	-8.827415	3.747438	6.020261	-1.157986	0.082195	1.449669	0.883963	0.275996	0.342981	-0.157478
48495	-8.649288	3.907896	6.356101	-1.289780	0.091346	1.535735	0.893769	0.273120	0.323485	-0.148122
48496	-7.856714	4.245834	6.331303	-1.070882	0.414220	1.073083	0.903268	0.269605	0.303737	-0.138435
48497	-7.143235	4.226857	6.199485	-1.070069	0.523465	0.477490	0.912281	0.265097	0.284655	-0.128212
48498	-6.889617	3.536068	6.325663	-1.522201	-0.033759	0.069117	0.920642	0.260488	0.265817	-0.117923
48499	-6.692758	3.113618	6.412298	-1.892707	-0.364180	-0.227526	0.928104	0.256936	0.246737	-0.108296
48500	-6.167551	3.377013	6.398852	-1.761892	-0.104268	-0.471389	0.934690	0.253770	0.228171	-0.099464
48501	-5.635758	3.496396	6.375293	-1.639886	0.038625	-0.761217	0.940559	0.250392	0.210629	-0.091045
48502	-5.368379	3.477764	6.644025	-1.656714	-0.073026	-0.740893	0.945651	0.247515	0.193900	-0.082966
48503	-5.162247	3.562759	7.086164	-1.639592	-0.184450	-0.494770	0.950207	0.244941	0.177484	-0.074902
48504	-4.368686	3.815170	7.095809	-1.173947	0.034849	-0.724059	0.954288	0.242417	0.161458	-0.067081
48505	-3.833585	3.881081	7.237685	-0.930914	0.054034	-0.797937	0.958144	0.238836	0.146292	-0.059306
48506	-3.530831	3.713362	7.457240	-0.915715	-0.139994	-0.812658	0.961767	0.234596	0.131466	-0.051814
48507	-3.316812	3.543869	7.820404	-0.940989	-0.392899	-0.665444	0.964955	0.230508	0.117226	-0.044576
48508	-2.949836	3.503262	7.892126	-0.852738	-0.395932	-0.736924	0.967878	0.226035	0.103367	-0.037888
48509	-2.608658	3.053074	7.654036	-0.874782	-0.621931	-1.236367	0.970408	0.221760	0.090042	-0.031975
48510	-1.941097	2.628804	7.594834	-0.502800	-0.924916	-1.612230	0.972417	0.218410	0.077316	-0.026934
48511	-1.696998	2.696926	7.648933	-0.453143	-0.840299	-1.581968	0.973916	0.215854	0.066120	-0.022877
48512	-1.625199	3.031871	7.599744	-0.545390	-0.474413	-1.502182	0.975141	0.213456	0.056149	-0.019603
48513	-1.484414	3.324099	7.599877	-0.551626	-0.165730	-1.405711	0.976286	0.210609	0.047245	-0.016672
48514	-1.041338	3.354049	7.620527	-0.255171	-0.096447	-1.426381	0.977436	0.207067	0.039289	-0.014097
48515	-0.766064	2.829485	7.670850	-0.127417	-0.533577	-1.619253	0.978547	0.203097	0.032521	-0.011798
48516	-0.592849	2.621690	7.696496	-0.065225	-0.673108	-1.688498	0.979444	0.199662	0.026887	-0.010086
48517	-0.474418	2.361991	8.017765	-0.023670	-0.993506	-1.500020	0.979982	0.197625	0.022397	-0.008800
48518	-0.312289	2.452441	8.259270	0.082664	-0.984204	-1.248124	0.980161	0.197125	0.018919	-0.008220
48519	-0.265677	2.985789	8.384578	0.094873	-0.540549	-0.925318	0.980151	0.197387	0.016460	-0.008452
48520	-0.452240	3.412534	8.407446	-0.116032	-0.158016	-0.729925	0.980153	0.197478	0.014799	-0.009134
48521	-0.516807	3.509946	8.361300	-0.204281	-0.042683	-0.732239	0.980311	0.196741	0.013341	-0.010246
48522	-0.294062	3.463258	8.464282	0.008333	-0.107015	-0.663201	0.980607	0.195200	0.013002	-0.011741
48523	-0.568262	3.331105	8.482975	-0.261093	-0.191371	-0.687174	0.981117	0.192491	0.013663	-0.013053
48524	-0.447971	3.413909	8.411535	-0.124401	-0.033437	-0.724649	0.981734	0.189180	0.014202	-0.014402
48525	-0.438385	3.746531	8.636844	-0.075474	0.258421	-0.391928	0.982453	0.185195	0.015458	-0.015836
48526	-0.734225	3.572844	8.915877	-0.339559	0.088262	-0.185996	0.983327	0.180235	0.016693	-0.017433
48527	-0.596439	3.459387	8.979925	-0.172882	0.058651	-0.172784	0.984269	0.174727	0.018069	-0.018933
48528	-0.574982	3.413495	9.180363	-0.112792	0.061270	-0.002299	0.985302	0.168465	0.019533	-0.020436
48529	-0.589043	3.249282	9.467086	-0.087606	-0.057734	0.213167	0.986377	0.161619	0.021056	-0.022276
48530	-0.849007	3.384065	9.644558	-0.291887	0.171227	0.437842	0.987521	0.153915	0.022750	-0.024382
48531	-0.797029	3.375894	9.580475	-0.199447	0.354481	0.368124	0.988798	0.144909	0.024330	-0.026237
48532	-0.584535	2.492449	9.552315	0.002856	-0.304461	0.071893	0.990030	0.135568	0.026233	-0.027825
48533	-0.660913	2.294689	9.660364	-0.035257	-0.342660	0.132350	0.991050	0.127085	0.028111	-0.029653
48534	-0.608804	2.310983	9.657305	0.061245	-0.162319	0.134289	0.991947	0.118927	0.029781	-0.031804
48535	-0.706787	2.357011	9.760126	0.018232	0.033985	0.252634	0.992828	0.110050	0.031688	-0.034314
48536	-0.992398	2.543307	9.960433	-0.188651	0.380163	0.506205	0.993724	0.100109	0.033656	-0.036852
48537	-1.096502	2.248846	10.001377	-0.260840	0.301863	0.488959	0.994577	0.089731	0.035556	-0.038742
48538	-0.611787	2.024649	9.948674	0.250393	0.272747	0.351388	0.995331	0.079143	0.037568	-0.040503
48539	-0.836626	1.603712	10.066349	0.051632	0.076862	0.414241	0.995986	0.068021	0.039587	-0.042640
48540	-1.148775	1.704529	10.112636	-0.195709	0.420649	0.496086	0.996492	0.057153	0.041145	-0.045219
48541	-0.985866	1.496662	10.042028	-0.016841	0.430906	0.378692	0.996884	0.046562	0.042386	-0.047512
48542	-0.652966	0.637654	9.627684	0.234703	-0.199449	-0.146928	0.997132	0.036182	0.044065	-0.049773
48543	-0.928333	0.164044	9.724968	-0.032614	-0.466588	-0.053469	0.997164	0.027541	0.046147	-0.052695
48544	-1.477518	0.978908	10.179941	-0.391319	0.530789	0.499213	0.997040	0.020122	0.048478	-0.056173
48545	-1.555200	1.809681	10.001009	-0.331713	1.546698	0.346449	0.996924	0.010803	0.050266	-0.059151
48546	-1.062985	0.776241	9.731767	0.061177	0.685209	-0.016688	0.996721	-0.001207	0.052437	-0.061618
48547	-1.218822	-0.851275	9.710516	-0.235797	-0.679947	-0.015661	0.996382	-0.012842	0.054870	-0.063616
48548	-1.028492	-1.304728	9.723388	-0.049834	-0.963340	0.004220	0.995990	-0.020719	0.057008	-0.065760
48549	-1.073128	-0.149802	9.934595	0.131568	0.330400	0.174417	0.995526	-0.026839	0.059247	-0.068538
48550	-1.657950	1.163464	10.160456	-0.181667	1.869523	0.375843	0.994944	-0.035482	0.061329	-0.071177
48551	-1.586845	0.783277	10.076123	-0.109753	1.697864	0.274869	0.994120	-0.048507	0.063669	-0.072925
48552	-1.646179	-0.976192	10.151146	-0.329926	0.265620	0.508194	0.993029	-0.063759	0.066304	-0.073696
48553	-1.439183	-2.484354	10.282512	-0.242235	-0.948420	0.817886	0.991972	-0.076034	0.068771	-0.074034
48554	-1.171288	-2.290863	10.523385	0.147105	-0.555126	1.005310	0.991140	-0.084029	0.070778	-0.074641
48555	-1.388270	-1.636553	10.511710	0.071148	0.267546	0.912208	0.990439	-0.090242	0.072243	-0.075289
48556	-1.484634	-1.243442	10.240199	0.025534	0.754393	0.581571	0.989706	-0.096687	0.073417	-0.075790
48557	-1.529545	-1.688547	10.057338	-0.073526	0.441324	0.489665	0.988860	-0.104256	0.074555	-0.075679
48558	-1.410920	-2.538659	9.937085	-0.057899	-0.280721	0.536101	0.988102	-0.110745	0.075561	-0.075372
48559	-1.440139	-2.658276	10.089065	-0.050468	-0.263591	0.716191	0.987739	-0.113759	0.076193	-0.074998
48560	-1.505147	-2.070880	9.971360	-0.042769	0.322630	0.476924	0.987725	-0.114084	0.076504	-0.074373
48561	-1.395758	-1.816740	9.539344	0.030025	0.456220	-0.012753	0.987831	-0.113548	0.076756	-0.073525
48562	-1.313444	-2.005098	9.362322	0.061454	0.208720	-0.150842	0.987986	-0.112654	0.077049	-0.072502
48563	-1.533742	-2.493216	9.464291	-0.192330	-0.234198	0.089299	0.988241	-0.110908	0.077351	-0.071389
48564	-1.528059	-2.295787	9.695833	-0.118090	-0.053908	0.266869	0.988679	-0.107264	0.077687	-0.070517
48565	-1.686897	-1.793430	9.919596	-0.170644	0.420786	0.397779	0.989152	-0.103220	0.078014	-0.069554
48566	-1.798406	-1.900930	10.111277	-0.259592	0.288625	0.624483	0.989597	-0.099675	0.078151	-0.068225
48567	-1.737274	-2.110543	10.190385	-0.214243	0.005009	0.735764	0.990122	-0.095423	0.078114	-0.066722
48568	-1.651289	-2.036415	10.082065	-0.147151	-0.063741	0.603394	0.990773	-0.089459	0.077951	-0.065490
48569	-1.810886	-1.650131	10.147645	-0.260846	0.210675	0.621043	0.991474	-0.082513	0.077552	-0.064477
48570	-1.774570	-1.747817	10.185800	-0.251291	-0.028996	0.670097	0.992140	-0.075741	0.076763	-0.063472
48571	-1.508609	-1.546855	10.256617	0.016623	-0.012351	0.668922	0.992832	-0.067913	0.075810	-0.062658
48572	-1.724762	-0.958779	10.369143	-0.142412	0.436385	0.732438	0.993525	-0.059326	0.074639	-0.061778
48573	-1.635033	-0.741395	10.229429	-0.090486	0.453562	0.562669	0.994136	-0.051529	0.073106	-0.060777
48574	-1.612253	-1.053756	10.015342	-0.177280	-0.024686	0.384526	0.994623	-0.044882	0.071573	-0.059906
48575	-1.757188	-0.716540	10.115264	-0.306359	0.195202	0.472540	0.995069	-0.037829	0.069997	-0.059221
48576	-1.785077	-0.061955	10.379020	-0.263268	0.719763	0.690893	0.995486	-0.031021	0.068352	-0.058076
48577	-1.602124	0.099175	10.482793	-0.095118	0.729667	0.766665	0.995856	-0.025201	0.066586	-0.056590
48578	-1.579038	-0.366941	10.273398	-0.199170	0.149363	0.584806	0.996171	-0.020788	0.064550	-0.055176
48579	-1.425765	-0.598858	9.964689	-0.162226	-0.199950	0.267950	0.996450	-0.016053	0.062399	-0.054193
48580	-1.497691	0.061282	9.775840	-0.234231	0.356707	0.068130	0.996688	-0.010263	0.060376	-0.053494
48581	-1.592028	0.566656	9.876602	-0.306804	0.763953	0.173513	0.996889	-0.005242	0.058438	-0.052629
48582	-1.410731	0.390446	10.089294	-0.163939	0.479533	0.369601	0.997069	-0.001297	0.056666	-0.051387
48583	-1.288338	-0.067740	10.297218	-0.105266	-0.070219	0.564233	0.997227	0.002511	0.055073	-0.049993
48584	-1.288871	-0.343096	10.079114	-0.198036	-0.428099	0.343299	0.997362	0.007278	0.053161	-0.048883
48585	-1.238429	0.284519	9.863069	-0.155115	0.090629	0.130210	0.997446	0.013223	0.051026	-0.048198
48586	-1.364619	1.026744	9.960927	-0.244706	0.724643	0.264530	0.997499	0.018672	0.049011	-0.047375
48587	-1.307157	1.353588	9.974018	-0.200784	0.952935	0.290426	0.997569	0.022317	0.047052	-0.046300
48588	-1.312180	0.841206	9.817654	-0.315083	0.388974	0.115293	0.997663	0.025045	0.044904	-0.044992
48589	-1.160213	0.246319	9.946026	-0.257606	-0.282756	0.196475	0.997730	0.028320	0.042410	-0.043972
48590	-1.054586	0.039077	9.970108	-0.227734	-0.578828	0.193749	0.997723	0.033156	0.039445	-0.043518
48591	-0.834655	0.273477	9.921498	-0.059068	-0.469660	0.136274	0.997608	0.039520	0.036191	-0.043658
48592	-0.658924	0.397387	9.703201	0.043265	-0.473413	-0.090739	0.997366	0.046827	0.033164	-0.044376
48593	-0.770017	0.978635	9.500455	-0.084744	-0.005875	-0.231440	0.997012	0.054221	0.030773	-0.045599
48594	-0.863656	1.734972	9.862994	-0.136307	0.563726	0.222064	0.996575	0.061890	0.028317	-0.046975
48595	-0.775405	1.489635	9.948821	-0.120574	0.154512	0.274876	0.996102	0.069244	0.025927	-0.048105
48596	-0.559004	0.940529	9.518693	-0.030455	-0.479831	-0.243471	0.995590	0.076067	0.023798	-0.049484
48597	-0.503342	1.541637	9.165371	0.031459	0.033555	-0.505140	0.994984	0.083091	0.022201	-0.051095
48598	-0.768587	2.769481	9.456124	-0.117137	1.079812	0.010640	0.994337	0.090071	0.021367	-0.052196
48599	-0.884017	2.619001	9.576991	-0.259236	0.806800	0.119107	0.993884	0.094822	0.020882	-0.052600
48600	-0.490866	1.836711	9.178101	0.021675	0.011359	-0.439791	0.993616	0.097475	0.020483	-0.052984
48601	-0.473747	2.166932	9.370528	0.076281	0.237850	-0.186465	0.993268	0.100581	0.020525	-0.053672
48602	-0.915489	2.806387	9.869209	-0.275627	0.737495	0.458387	0.992910	0.103864	0.020625	-0.053998
48603	-0.646909	2.596248	9.796976	-0.034342	0.462639	0.332474	0.992660	0.106304	0.020826	-0.053776
48604	-0.596176	1.626062	9.499724	-0.098626	-0.465420	-0.168116	0.992408	0.108516	0.021213	-0.053861
48605	-0.634676	1.900371	9.631148	-0.097874	-0.271638	0.020403	0.992087	0.111057	0.021432	-0.054498
48606	-0.692940	2.254092	9.787586	-0.107738	-0.012601	0.254383	0.991731	0.113883	0.021664	-0.055055
48607	-0.884347	2.733110	9.921459	-0.235833	0.385672	0.506361	0.991429	0.116267	0.021857	-0.055427
48608	-0.883694	2.842350	9.787174	-0.224720	0.491889	0.402800	0.991323	0.116923	0.021912	-0.055922
48609	-0.857027	2.488886	9.796743	-0.237967	0.146968	0.327676	0.991391	0.116171	0.021818	-0.056330
48610	-0.703263	2.205513	9.800035	-0.118706	-0.125940	0.255558	0.991495	0.115212	0.021714	-0.056498
48611	-0.661253	2.098288	9.669497	-0.093579	-0.186278	0.101735	0.991570	0.114516	0.021727	-0.056594
48612	-0.704574	2.198498	9.467009	-0.128765	-0.027502	-0.069139	0.991586	0.114233	0.021902	-0.056821
48613	-0.730890	2.356958	9.509026	-0.131506	0.120458	0.009697	0.991559	0.114315	0.021996	-0.057088
48614	-0.581065	2.319362	9.590393	0.018025	0.045519	0.071153	0.991516	0.114572	0.022130	-0.057267
48615	-0.561134	2.368897	9.671856	0.051268	0.067064	0.160487	0.991467	0.114790	0.022460	-0.057542
48616	-0.728054	2.468787	9.820971	-0.089926	0.146396	0.338515	0.991462	0.114549	0.022781	-0.057984
48617	-0.756518	2.388025	9.830243	-0.120138	0.077297	0.330696	0.991499	0.113991	0.023051	-0.058346
48618	-0.769573	2.235845	9.700950	-0.145494	-0.026717	0.171188	0.991527	0.113407	0.023686	-0.058760
48619	-0.714834	2.088184	9.491954	-0.102292	-0.116117	-0.068730	0.991536	0.112881	0.024366	-0.059335
48620	-0.713202	1.858609	9.236474	-0.121608	-0.272405	-0.368826	0.991496	0.112695	0.025315	-0.059961
48621	-0.759315	1.876499	9.255229	-0.142791	-0.258043	-0.343261	0.991365	0.113178	0.026557	-0.060675
48622	-0.611855	2.172627	9.169541	0.063089	0.020447	-0.369664	0.991219	0.113693	0.027968	-0.061449
48623	-0.630919	2.281746	9.079669	0.086178	0.142116	-0.430946	0.991100	0.113727	0.029790	-0.062451
48624	-0.772775	2.104813	8.706108	-0.054408	0.079613	-0.823013	0.991032	0.113026	0.032140	-0.063625
48625	-0.902758	1.990627	8.556837	-0.154135	0.032644	-0.982518	0.990964	0.111989	0.035278	-0.064837
48626	-0.990894	1.920690	8.580922	-0.183669	-0.020577	-0.965737	0.990789	0.111574	0.039287	-0.065912
48627	-1.141944	2.143716	8.618127	-0.219093	0.201442	-0.863809	0.990485	0.111790	0.044072	-0.067076
48628	-1.276354	2.007034	8.542770	-0.282296	0.092822	-0.950014	0.990091	0.112154	0.049737	-0.068318
48629	-1.163532	1.829400	8.502155	-0.093702	-0.100560	-1.039594	0.989544	0.113059	0.056061	-0.069840
48630	-1.295175	1.810519	8.908494	-0.062511	-0.221629	-0.633248	0.988873	0.113841	0.063348	-0.071822
48631	-1.548241	1.490816	8.971732	-0.217444	-0.533669	-0.605199	0.988116	0.114503	0.070719	-0.074258
48632	-1.714307	1.867239	8.823547	-0.192224	-0.133789	-0.635346	0.987223	0.115097	0.078770	-0.077060
48633	-2.415220	2.160629	8.931892	-0.648434	0.200291	-0.335493	0.986266	0.115145	0.087554	-0.079718
48634	-2.438003	2.121010	8.756534	-0.531981	0.202943	-0.496429	0.985297	0.114659	0.096621	-0.081902
48635	-2.131884	2.330057	8.811276	-0.007263	0.344762	-0.459034	0.984160	0.114151	0.106279	-0.084281
48636	-2.126671	1.896448	8.604235	0.064687	-0.020422	-0.749334	0.982875	0.113237	0.116550	-0.086887
48637	-2.408767	1.568660	8.096249	-0.179640	-0.166499	-1.224986	0.981246	0.112497	0.128041	-0.090035
48638	-3.239989	1.490528	8.278415	-0.723895	-0.170409	-0.829724	0.979209	0.112330	0.140729	-0.093420
48639	-4.096782	1.295241	8.649334	-1.233414	-0.343756	-0.240480	0.976807	0.113346	0.153760	-0.096745
48640	-3.788339	1.957004	8.131734	-0.694703	0.329582	-0.663362	0.974125	0.115557	0.166437	-0.100130
48641	-3.636022	2.229557	7.687647	-0.380053	0.629698	-1.052261	0.971089	0.117487	0.180171	-0.103544
48642	-4.310385	1.777078	7.721807	-0.835784	0.247769	-0.835077	0.967732	0.119068	0.194703	-0.106807
48643	-4.756888	1.263875	7.889974	-1.036386	-0.263490	-0.575436	0.964060	0.120894	0.209270	-0.110360
48644	-5.347682	1.731052	8.356170	-0.964578	0.080547	0.210995	0.959898	0.123283	0.224373	-0.114257
48645	-5.812881	1.779441	8.323007	-1.051296	0.133701	0.438937	0.955384	0.126403	0.239680	-0.117550
48646	-5.567204	1.622444	7.768056	-0.803179	0.018241	-0.152778	0.950291	0.130390	0.255769	-0.120531
48647	-6.200753	1.392416	7.608846	-1.143149	-0.154935	0.033156	0.944468	0.134865	0.272858	-0.123859
48648	-6.666773	1.485474	7.701873	-1.097492	-0.139319	0.421343	0.938242	0.139207	0.289749	-0.127940
48649	-6.939313	1.921956	7.707021	-0.808231	0.203037	0.701101	0.931996	0.142352	0.306056	-0.132096
48650	-7.122861	2.248556	7.905511	-0.365156	0.377416	1.050102	0.925761	0.144227	0.322148	-0.135592
48651	-7.826272	1.353131	7.544461	-1.036707	-0.290338	1.088195	0.919273	0.146591	0.338059	-0.138436
48652	-8.163628	1.202555	7.149457	-1.204367	-0.335626	1.033076	0.912124	0.150997	0.353509	-0.142341
48653	-7.694238	2.101998	6.840474	-0.363531	0.411914	0.680047	0.904331	0.155401	0.369399	-0.146899
48654	-7.726474	2.399841	6.729813	0.033285	0.627081	0.691644	0.896486	0.157581	0.385663	-0.150816
48655	-8.796762	2.015578	6.316835	-0.702081	0.528675	1.167411	0.888812	0.158385	0.401532	-0.153944
48656	-9.740758	1.717475	6.041061	-1.206939	0.434582	1.705430	0.880777	0.160312	0.416887	-0.157277
48657	-9.809016	2.040561	5.742933	-0.929379	0.749858	1.673053	0.872068	0.165335	0.431243	-0.161836
48658	-8.770456	2.031600	5.626287	-0.055051	0.499735	0.791001	0.862567	0.172517	0.445322	-0.167045
48659	-8.065203	2.189014	5.405447	0.591333	0.486416	0.110002	0.852497	0.178347	0.460399	-0.171680
48660	-9.164093	1.961961	5.277579	0.192827	0.347526	0.934933	0.842411	0.182561	0.475389	-0.176124
48661	-10.392103	1.258708	5.238190	-0.383330	-0.226707	1.883755	0.832248	0.187693	0.489020	-0.181645
48662	-10.887734	0.919326	5.109351	-0.494736	-0.543969	2.226380	0.821488	0.194905	0.501662	-0.188427
48663	-10.640921	1.276625	4.425702	-0.363050	-0.085098	1.775847	0.809979	0.204650	0.513049	-0.197063
48664	-9.297064	1.995509	3.989323	0.552244	0.432536	0.474655	0.798277	0.214075	0.523906	-0.206032
48665	-8.384339	2.473531	4.139798	1.576913	0.502587	-0.283542	0.787057	0.218789	0.535898	-0.213274
48666	-9.761953	1.430865	4.970052	1.466723	-0.782209	1.108446	0.776712	0.220455	0.547693	-0.219434
48667	-10.008194	0.723045	5.163864	1.434399	-1.511739	1.277939	0.767267	0.222487	0.557398	-0.226069
48668	-10.432546	1.311780	5.082632	1.888922	-1.017177	1.666969	0.758769	0.223935	0.566069	-0.231706
48669	-10.926151	1.044135	4.894482	1.718804	-1.116593	2.028793	0.751432	0.224691	0.573376	-0.236862
48670	-10.608524	-0.327421	3.612431	0.196274	-1.457108	1.301846	0.744581	0.225928	0.579160	-0.243165
48671	-9.915955	-0.947549	2.313715	-0.837576	-1.201417	0.308067	0.736280	0.229586	0.584552	-0.251954
48672	-9.977543	0.096324	1.915400	-0.280121	-0.151968	0.342322	0.726669	0.235152	0.589504	-0.262945
48673	-9.488253	2.353260	2.502323	1.928711	1.058043	0.035322	0.717976	0.240843	0.593086	-0.273412
48674	-9.583600	3.421500	3.008499	3.187777	1.435548	0.206169	0.711250	0.244508	0.596575	-0.280068
48675	-9.806785	3.010745	2.725471	2.813216	1.290710	0.340354	0.706548	0.246911	0.599498	-0.283598
48676	-9.689970	1.637600	1.745627	1.267199	0.928591	0.044078	0.703440	0.248714	0.601754	-0.284965
48677	-9.741307	0.647025	1.217832	0.260609	0.553154	0.006700	0.700404	0.250580	0.604221	-0.285589
48678	-10.138939	0.580716	1.365188	0.332906	0.391236	0.421311	0.697432	0.253592	0.605703	-0.287061
48679	-10.273693	1.105745	1.672203	0.947239	0.503035	0.599665	0.694798	0.257536	0.606020	-0.289258
48680	-10.323474	1.322231	2.051838	1.380808	0.333657	0.699887	0.692814	0.261307	0.605827	-0.291035
48681	-10.106540	0.776682	2.203182	1.109508	-0.214653	0.498578	0.691692	0.264650	0.604878	-0.292652
48682	-9.872446	0.138895	1.826474	0.388555	-0.424773	0.211731	0.691141	0.268148	0.602953	-0.294734
48683	-9.690753	0.288949	1.587379	0.319996	-0.178830	0.004616	0.690637	0.272088	0.600442	-0.297419
48684	-9.687119	0.203646	1.488672	0.152315	-0.173932	-0.012468	0.690241	0.275856	0.597830	-0.300117
48685	-9.711456	0.400724	1.563937	0.306206	-0.102966	0.026742	0.690026	0.279284	0.595158	-0.302740
48686	-9.626178	0.423967	1.377698	0.172156	0.042958	-0.080807	0.690044	0.282201	0.592627	-0.304952
48687	-9.448690	0.431776	1.353081	0.143473	0.051457	-0.259067	0.690143	0.284874	0.590259	-0.306829
48688	-9.477778	-0.023730	1.288875	-0.285257	-0.189519	-0.253783	0.690375	0.287054	0.588129	-0.308361
48689	-9.375571	-0.232826	1.003800	-0.646958	-0.107431	-0.403491	0.690535	0.288943	0.586113	-0.310073
48690	-9.352436	0.032721	0.788631	-0.597953	0.235709	-0.449038	0.690527	0.290246	0.584634	-0.311661
48691	-9.423392	0.338494	0.870018	-0.330239	0.383619	-0.356705	0.690519	0.290614	0.583982	-0.312557
48692	-9.553297	0.441140	1.226814	-0.048767	0.197061	-0.172981	0.690997	0.289808	0.583826	-0.312541
48693	-9.622018	0.376847	1.438175	0.021762	0.017104	-0.076528	0.691923	0.288112	0.583922	-0.311879
48694	-9.654517	0.261542	1.424953	-0.080679	-0.020410	-0.050433	0.692955	0.285970	0.584127	-0.311174
48695	-9.493175	0.175815	1.367712	-0.160450	-0.022264	-0.221252	0.693792	0.283861	0.584461	-0.310614
48696	-9.648527	0.111515	1.341149	-0.239290	-0.005687	-0.073701	0.694225	0.282318	0.584688	-0.310625
48697	-9.660947	0.205089	1.554162	-0.028542	-0.086082	-0.025802	0.694419	0.281489	0.584602	-0.311107
48698	-9.874313	0.216037	1.753537	0.086541	-0.195579	0.216164	0.694292	0.281077	0.584759	-0.311466
48699	-10.076522	0.497443	1.524385	0.142583	0.187956	0.387892	0.694064	0.280615	0.585048	-0.311847
48700	-9.888540	0.602161	1.337215	0.138293	0.385055	0.175634	0.693887	0.280061	0.585451	-0.311983
48701	-9.764466	0.477644	1.413851	0.116910	0.238075	0.061600	0.693780	0.279538	0.585905	-0.311839
48702	-9.714503	0.355168	1.626691	0.174426	-0.004418	0.041924	0.693805	0.278699	0.586499	-0.311416
48703	-9.819366	0.187419	1.526310	-0.019894	-0.021843	0.126317	0.693915	0.277835	0.586974	-0.311049
48704	-9.723058	0.294658	1.367421	-0.020194	0.162260	0.009113	0.693942	0.277160	0.587390	-0.310805
48705	-9.536732	0.308647	1.320705	-0.008088	0.189298	-0.181858	0.693845	0.276431	0.588084	-0.310358
48706	-9.415457	0.301337	1.398529	0.061988	0.112307	-0.290028	0.693701	0.275811	0.588807	-0.309860
48707	-9.514706	0.214137	1.595655	0.123395	-0.086291	-0.163910	0.693568	0.275216	0.589610	-0.309158
48708	-9.727604	-0.050485	1.589863	-0.093801	-0.237077	0.040813	0.693628	0.274512	0.590253	-0.308423
48709	-9.558061	0.075380	1.427023	-0.075969	-0.049053	-0.148816	0.693702	0.273653	0.590765	-0.308039
48710	-9.360001	0.301429	1.479440	0.162677	0.043139	-0.333190	0.693506	0.272822	0.591548	-0.307717
48711	-9.422010	0.245549	1.767193	0.317812	-0.202570	-0.230649	0.693279	0.271892	0.592629	-0.306968
48712	-9.604193	-0.073440	1.905426	0.166723	-0.503447	-0.035404	0.693107	0.271124	0.593732	-0.305903
48713	-9.750447	-0.350938	1.919350	-0.031052	-0.692910	0.106847	0.692787	0.270758	0.594658	-0.305151
48714	-9.906531	-0.409530	1.783564	-0.164022	-0.626044	0.240636	0.692179	0.270840	0.595366	-0.305080
48715	-9.984744	-0.363321	1.602584	-0.240516	-0.460563	0.293024	0.691418	0.271242	0.595758	-0.305680
48716	-9.901791	-0.105555	1.575251	-0.042208	-0.281199	0.210143	0.690548	0.271851	0.595973	-0.306688
48717	-9.834552	0.131727	1.625101	0.190108	-0.169919	0.152838	0.689769	0.272220	0.596251	-0.307571
48718	-9.700779	0.173030	1.620422	0.246218	-0.153012	0.019747	0.689196	0.272227	0.596678	-0.308020
48719	-9.680064	-0.029055	1.544315	0.059755	-0.232071	-0.013098	0.688802	0.272116	0.597100	-0.308182
48720	-9.737069	-0.177616	1.472803	-0.093988	-0.271570	0.032546	0.688433	0.272195	0.597313	-0.308525
48721	-9.811399	-0.185467	1.433459	-0.124515	-0.241054	0.100896	0.687904	0.272648	0.597384	-0.309166
48722	-9.833146	-0.074228	1.536117	0.031473	-0.246378	0.136896	0.687273	0.273337	0.597451	-0.309831
48723	-9.885504	-0.106466	1.641551	0.077171	-0.349192	0.202367	0.686606	0.274216	0.597536	-0.310370
48724	-9.865104	-0.098203	1.619483	0.075116	-0.338988	0.178913	0.686001	0.275226	0.597452	-0.310973
48725	-9.773571	-0.161508	1.494104	-0.044631	-0.302528	0.071016	0.685478	0.276265	0.597189	-0.311710
48726	-9.762243	-0.123112	1.392351	-0.080139	-0.208451	0.046588	0.684897	0.277398	0.596898	-0.312538
48727	-9.771321	-0.055507	1.341876	-0.062379	-0.131180	0.049429	0.684375	0.278487	0.596512	-0.313446
48728	-9.668316	-0.033902	1.497969	0.061638	-0.250451	-0.032357	0.683944	0.279409	0.596237	-0.314089
48729	-9.714175	-0.059865	1.641580	0.128633	-0.377994	0.031303	0.683512	0.280167	0.596114	-0.314589
48730	-9.688188	-0.048007	1.521138	0.061494	-0.283944	-0.009997	0.683234	0.281002	0.595587	-0.315445
48731	-9.503909	-0.089366	1.564648	0.067001	-0.359548	-0.187375	0.682956	0.282036	0.594818	-0.316572
48732	-9.424876	-0.116216	1.598714	0.064870	-0.406276	-0.261332	0.682776	0.283085	0.593844	-0.317851
48733	-9.427007	0.096596	1.579966	0.204906	-0.249599	-0.259166	0.682862	0.283822	0.592802	-0.318952
48734	-9.540826	0.235977	1.617074	0.309474	-0.167028	-0.139309	0.683258	0.284301	0.591531	-0.320034
48735	-9.528371	0.197120	1.716424	0.321272	-0.250774	-0.137531	0.683973	0.284452	0.590087	-0.321037
48736	-9.536435	0.151121	1.681403	0.236903	-0.226975	-0.133546	0.685006	0.284392	0.588383	-0.322016
48737	-9.466868	0.244334	1.484459	0.164351	0.004930	-0.228444	0.686092	0.284434	0.586484	-0.323129
48738	-9.872403	0.341120	1.272026	0.033131	0.298690	0.142627	0.687034	0.285250	0.584328	-0.324311
48739	-10.152486	0.579512	1.504082	0.291022	0.316971	0.457937	0.687964	0.286552	0.581929	-0.325504
48740	-10.355146	0.671313	1.670078	0.391827	0.284435	0.686559	0.689375	0.287520	0.579449	-0.326088
48741	-10.390001	0.739149	1.597314	0.336520	0.409683	0.711968	0.691421	0.287879	0.576721	-0.326276
48742	-10.280198	1.010933	1.605535	0.503764	0.588537	0.612361	0.693491	0.288083	0.573902	-0.326673
48743	-9.974293	1.138199	1.597811	0.573740	0.672296	0.314178	0.696094	0.287301	0.571374	-0.326258
48744	-9.660727	1.188974	1.351431	0.441344	0.897299	-0.036735	0.699445	0.285101	0.569450	-0.324377
48745	-9.752189	1.210983	1.495695	0.466211	0.850918	0.080081	0.702951	0.282764	0.567787	-0.321749
48746	-9.780313	0.874267	1.566494	0.171583	0.622717	0.109763	0.706975	0.279951	0.566268	-0.318047
48747	-9.851118	1.001380	1.344113	0.039733	0.906701	0.138674	0.710900	0.277980	0.564467	-0.314205
48748	-9.983955	1.391038	1.404404	0.265828	1.142822	0.297176	0.714282	0.277120	0.562424	-0.310943
48749	-9.938111	1.325572	1.859601	0.421448	0.763861	0.347015	0.717791	0.276034	0.560356	-0.307542
48750	-9.602658	0.486322	2.196629	-0.023853	-0.063034	0.049746	0.722026	0.273680	0.558397	-0.303266
48751	-9.582613	0.478505	1.745237	-0.400317	0.272556	-0.072766	0.725782	0.272787	0.556111	-0.299280
48752	-9.921085	1.002791	1.814454	-0.128230	0.601499	0.303968	0.728877	0.273329	0.554080	-0.295000
48753	-10.017865	1.049982	2.527700	0.244493	0.099496	0.568966	0.732398	0.273668	0.551751	-0.290292
48754	-9.826529	0.718251	2.915496	0.191387	-0.446464	0.450834	0.736523	0.272811	0.549514	-0.284856
48755	-9.433165	0.561219	3.278190	0.305455	-0.870027	0.146985	0.740952	0.271600	0.547245	-0.278831
48756	-9.251956	0.554249	2.905699	-0.000305	-0.636339	-0.120259	0.745764	0.269907	0.544755	-0.272450
48757	-8.819083	0.800149	2.038062	-0.391361	0.085063	-0.734750	0.749917	0.269001	0.542623	-0.266127
48758	-9.507764	1.260546	1.822974	-0.498564	0.587223	-0.080517	0.752496	0.271311	0.540521	-0.260725
48759	-9.919004	1.405399	2.625479	-0.073918	0.095704	0.542938	0.754316	0.274550	0.538669	-0.255861
48760	-9.362913	1.281018	3.929617	0.786198	-1.017789	0.340749	0.757013	0.275439	0.537473	-0.249375
48761	-8.875615	1.215213	2.745991	0.007725	-0.340136	-0.449075	0.760542	0.274760	0.536536	-0.241270
48762	-8.860388	1.950606	1.710574	-0.286777	0.829556	-0.622165	0.762721	0.276508	0.536019	-0.233416
48763	-9.511350	2.026496	2.236920	-0.161434	0.459609	0.154120	0.763945	0.279776	0.535756	-0.226007
48764	-9.474324	1.663352	2.516838	-0.263187	-0.117046	0.126106	0.765087	0.282540	0.535689	-0.218747
48765	-9.315101	1.509438	3.166562	0.083191	-0.776993	0.110266	0.766357	0.284220	0.535894	-0.211502
48766	-9.049672	1.347599	3.445390	0.219749	-1.170347	-0.108834	0.768501	0.283453	0.536669	-0.202598
48767	-8.996984	1.674223	2.007683	-0.627803	-0.056085	-0.464889	0.770404	0.283926	0.536647	-0.194612
48768	-9.239592	2.375963	1.594234	-0.637161	0.642813	-0.182720	0.770679	0.287188	0.536803	-0.188203
48769	-9.485819	2.280937	2.136638	-0.438297	0.098776	0.164568	0.770539	0.290776	0.536808	-0.183184
48770	-9.070556	2.012884	2.789893	-0.016377	-0.614980	-0.131209	0.770602	0.292963	0.537252	-0.178057
48771	-8.570896	1.880430	3.357980	0.471330	-1.137903	-0.498453	0.771398	0.292975	0.538383	-0.171042
48772	-8.290259	2.331858	2.492825	0.180189	-0.281806	-0.853451	0.772772	0.292033	0.539290	-0.163418
48773	-8.947953	2.946742	0.819039	-0.972858	1.132296	-0.475102	0.772702	0.294009	0.540082	-0.157487
48774	-9.247277	3.222012	1.514921	-0.431380	0.782494	0.055906	0.771328	0.297860	0.540930	-0.154037
48775	-9.665338	2.389309	2.008056	-0.689503	-0.292955	0.316391	0.770244	0.300435	0.541489	-0.152489
48776	-9.146880	2.219370	2.492364	-0.226221	-0.729548	-0.106021	0.769082	0.301847	0.542356	-0.152481
48777	-8.912156	2.423326	3.133021	0.472430	-0.967402	-0.119611	0.768595	0.300893	0.543568	-0.152513
48778	-8.540711	2.214285	2.734255	0.215075	-0.815577	-0.614244	0.769073	0.298104	0.544402	-0.152601
48779	-8.275442	2.213214	2.790924	0.372554	-0.784843	-0.845217	0.769420	0.295127	0.545451	-0.152895
48780	-8.349338	2.210973	2.279764	-0.010845	-0.435340	-0.890391	0.769155	0.293263	0.546511	-0.154025
48781	-8.942970	2.126030	2.166165	-0.317952	-0.455486	-0.385055	0.767950	0.293029	0.547642	-0.156445
48782	-9.483805	2.083730	2.487542	-0.244754	-0.715660	0.182314	0.766210	0.293691	0.548679	-0.160056
48783	-9.914557	2.105713	2.569540	-0.273857	-0.760247	0.612369	0.764963	0.293806	0.549305	-0.163627
48784	-9.813891	2.412619	2.864088	0.191023	-0.667795	0.668417	0.764358	0.293273	0.549488	-0.166764
48785	-9.615463	2.532023	2.459079	0.049582	-0.261869	0.426654	0.764229	0.292552	0.549110	-0.169838
48786	-9.372694	2.396097	2.291532	-0.054588	-0.199756	0.126967	0.763868	0.292127	0.548801	-0.173161
48787	-9.565653	2.179667	2.305022	-0.214470	-0.343921	0.257135	0.763028	0.292386	0.548470	-0.177425
48788	-9.522253	1.637285	2.719301	-0.193464	-0.974544	0.175361	0.761999	0.292477	0.548082	-0.182813
48789	-9.406350	0.841032	3.034780	-0.381672	-1.704890	-0.048285	0.761963	0.290143	0.547658	-0.187884
48790	-9.348201	0.651968	1.780880	-1.363795	-0.921108	-0.417167	0.762085	0.287654	0.546423	-0.194686
48791	-9.155671	1.378315	1.744543	-0.851585	-0.231940	-0.432417	0.760774	0.287567	0.545015	-0.203682
48792	-9.461199	1.732789	2.495170	-0.150122	-0.367941	0.116253	0.758705	0.288297	0.543677	-0.213698
48793	-9.271269	1.444840	3.648721	0.584544	-1.260258	0.158572	0.757137	0.286395	0.543476	-0.222161
48794	-10.046055	1.191660	2.589866	-0.496791	-0.572725	0.602364	0.756800	0.282120	0.542743	-0.230416
