// General information: 
//  MT Manager version: 2021.0.0 
//  XDA version: 2021.0.0 build 5908 rev 109668 built on 2021-04-19
// Device information: 
//  DeviceId: 00B43DF6
//  ProductCode: MTW2-3A7G6
//  Firmware Version: 4.3.5
//  Hardware Version: 1.1.0
// Device settings: 
//  Filter Profile: human(46.1)
//  Option Flags: Orientation Smoother Disabled, Position/Velocity Smoother Disabled, Continuous Zero Rotation Update Disabled, AHS Disabled, ICC Disabled
// Coordinate system: ENU
PacketCounter	Acc_X	Acc_Y	Acc_Z	FreeAcc_E	FreeAcc_N	FreeAcc_U	Quat_q0	Quat_q1	Quat_q2	Quat_q3
47597	2.566589	2.496912	9.102557	0.020460	0.142662	-0.032212	0.073217	-0.128680	-0.142184	-0.978705
47598	2.729828	2.603139	8.943773	-0.138449	-0.013543	-0.107019	0.073183	-0.129279	-0.142750	-0.978547
47599	2.819232	2.680973	8.893636	-0.217136	-0.101320	-0.108306	0.073179	-0.129151	-0.143261	-0.978489
47600	2.631349	2.611384	8.928827	-0.050716	0.003681	-0.144974	0.073261	-0.128420	-0.143674	-0.978519
47601	2.483243	2.732249	9.101925	0.137408	-0.036511	0.008539	0.073365	-0.127683	-0.143875	-0.978578
47602	2.386207	2.643082	9.297646	0.251020	0.116372	0.139675	0.073467	-0.127733	-0.143512	-0.978617
47603	2.594618	2.464762	9.207282	0.005708	0.230016	0.062949	0.073539	-0.128333	-0.143409	-0.978548
47604	2.677709	2.351062	9.026979	-0.125594	0.278462	-0.112655	0.073454	-0.128696	-0.144011	-0.978418
47605	2.735208	2.613704	9.022648	-0.131238	0.039708	-0.029939	0.073284	-0.128699	-0.145080	-0.978273
47606	2.683521	2.808773	9.107316	-0.031252	-0.094243	0.088010	0.073062	-0.128444	-0.145841	-0.978210
47607	2.656810	2.712042	9.060835	-0.040983	-0.003006	0.011306	0.072887	-0.128080	-0.146270	-0.978207
47608	2.622618	2.797376	9.224655	0.036987	-0.024406	0.177094	0.072685	-0.127854	-0.146261	-0.978252
47609	2.580707	2.685480	9.223986	0.053539	0.084204	0.134363	0.072396	-0.127834	-0.146114	-0.978299
47610	2.737492	2.731989	9.254363	-0.082069	0.029742	0.216931	0.071948	-0.127890	-0.145825	-0.978367
47611	2.714492	2.627729	9.101880	-0.117439	0.081909	0.041101	0.071456	-0.127471	-0.145933	-0.978442
47612	2.586249	2.908357	9.213797	0.068220	-0.127929	0.188324	0.071020	-0.126824	-0.146477	-0.978476
47613	2.555780	2.933146	9.271897	0.099989	-0.118001	0.241142	0.070739	-0.126185	-0.147158	-0.978477
47614	2.330337	3.187935	9.463316	0.392916	-0.263951	0.430539	0.070672	-0.125895	-0.147594	-0.978454
47615	2.478191	3.123959	9.490878	0.248626	-0.209307	0.476709	0.070711	-0.126484	-0.147212	-0.978433
47616	2.563191	2.802516	9.282963	0.079137	0.012651	0.216819	0.070827	-0.127293	-0.146796	-0.978382
47617	2.655633	2.722709	9.135269	-0.041908	0.026695	0.082573	0.070937	-0.127865	-0.146584	-0.978331
47618	2.712670	2.860758	9.137674	-0.062693	-0.112097	0.138348	0.071065	-0.128117	-0.146410	-0.978315
47619	2.477242	2.703661	9.130228	0.137011	0.054487	0.025292	0.071270	-0.128179	-0.146217	-0.978321
47620	2.495168	2.678625	9.145733	0.123480	0.076736	0.037398	0.071344	-0.128530	-0.145959	-0.978308
47621	2.627010	2.639044	9.059250	-0.021191	0.071877	-0.018294	0.071341	-0.128978	-0.146007	-0.978242
47622	2.614837	2.689643	9.085431	0.014436	0.036800	0.016608	0.071306	-0.129471	-0.146198	-0.978151
47623	2.689223	2.661902	9.008146	-0.069965	0.033665	-0.042411	0.071143	-0.129957	-0.146159	-0.978104
47624	2.706947	2.706394	9.024188	-0.070050	-0.003267	-0.010484	0.070878	-0.130085	-0.146278	-0.978088
47625	2.607848	2.668813	8.945125	-0.001477	0.022155	-0.120516	0.070488	-0.129899	-0.146556	-0.978100
47626	2.600666	2.826769	9.037160	0.048583	-0.091263	0.006358	0.070033	-0.129657	-0.146837	-0.978122
47627	2.710377	2.910682	9.086600	-0.039396	-0.162149	0.104805	0.069653	-0.129152	-0.146913	-0.978205
47628	2.750512	2.878177	9.245954	-0.061034	-0.085243	0.253388	0.069297	-0.128456	-0.146867	-0.978329
47629	2.615139	2.908342	9.433447	0.099722	-0.044142	0.398845	0.069036	-0.127637	-0.146694	-0.978480
47630	2.393639	2.970407	9.675845	0.366120	-0.013781	0.581568	0.068769	-0.127450	-0.146023	-0.978624
47631	2.413342	2.700165	9.511374	0.267275	0.175512	0.359780	0.068517	-0.128002	-0.145393	-0.978663
47632	2.635974	2.726642	9.324611	0.030115	0.063981	0.253408	0.068323	-0.128805	-0.145236	-0.978595
47633	2.660097	2.795191	9.147493	-0.005729	-0.056020	0.115185	0.068309	-0.129557	-0.145461	-0.978463
47634	2.681497	2.955088	9.059495	-0.005620	-0.229954	0.084004	0.068521	-0.130088	-0.145824	-0.978324
47635	2.679583	3.003845	9.073006	0.018845	-0.267075	0.109561	0.069113	-0.130558	-0.145927	-0.978204
47636	2.668883	2.949657	9.084662	0.035476	-0.215460	0.102290	0.069942	-0.131161	-0.145464	-0.978133
47637	2.589572	2.752897	9.129027	0.107128	-0.019362	0.067168	0.070954	-0.132280	-0.144812	-0.978007
47638	2.704549	2.662476	8.912668	-0.038205	-0.026503	-0.125751	0.072047	-0.133916	-0.144086	-0.977811
47639	2.834799	2.540129	8.692658	-0.202547	-0.003905	-0.325353	0.073151	-0.135399	-0.143650	-0.977589
47640	2.798954	2.646207	8.653470	-0.128531	-0.120047	-0.342307	0.074347	-0.136632	-0.143351	-0.977371
47641	2.803461	2.618553	8.622504	-0.119291	-0.115378	-0.376789	0.075586	-0.137707	-0.142556	-0.977242
47642	2.881332	2.312753	8.600798	-0.233235	0.140044	-0.455843	0.076804	-0.138649	-0.141562	-0.977158
47643	2.821674	2.174688	8.503721	-0.207547	0.232049	-0.598164	0.077830	-0.139347	-0.141068	-0.977049
47644	2.928753	2.191208	8.526994	-0.288390	0.207032	-0.541087	0.078718	-0.139696	-0.141288	-0.976896
47645	2.887053	2.471765	8.734165	-0.136418	0.013621	-0.288427	0.079519	-0.139905	-0.141602	-0.976756
47646	2.863471	2.389460	8.786858	-0.112296	0.112257	-0.268441	0.080287	-0.140034	-0.141680	-0.976663
47647	2.747193	2.568861	8.932994	0.074366	-0.003189	-0.120477	0.081036	-0.140189	-0.141255	-0.976641
47648	2.799341	2.270902	8.780612	-0.063231	0.209199	-0.323502	0.081632	-0.140647	-0.140142	-0.976686
47649	2.814195	2.015987	8.519512	-0.183321	0.352804	-0.625310	0.082073	-0.140916	-0.139670	-0.976677
47650	3.004366	2.161621	8.490143	-0.341557	0.179387	-0.558905	0.082342	-0.140527	-0.139876	-0.976681
47651	2.973729	2.398814	8.696996	-0.226723	0.024899	-0.316211	0.082587	-0.139531	-0.140172	-0.976761
47652	2.822397	2.558860	9.027949	0.009470	-0.009914	-0.013845	0.082659	-0.138417	-0.139766	-0.976972
47653	2.650547	2.388692	9.242309	0.170301	0.223642	0.090466	0.082561	-0.137504	-0.138965	-0.977223
47654	2.769529	2.287534	9.253051	0.027849	0.294900	0.108719	0.082277	-0.137220	-0.138560	-0.977345
47655	2.887776	2.341650	9.149966	-0.106886	0.197516	0.061217	0.081922	-0.136694	-0.138934	-0.977395
47656	2.789871	2.728464	9.329790	0.093158	-0.091471	0.299474	0.081671	-0.136055	-0.139590	-0.977412
47657	2.790961	2.830657	9.245184	0.079674	-0.206134	0.248458	0.081594	-0.135503	-0.139781	-0.977467
47658	2.765040	2.727563	9.316920	0.089822	-0.084976	0.280615	0.081807	-0.134965	-0.139591	-0.977551
47659	2.726950	2.573318	9.281528	0.078742	0.047258	0.197135	0.082133	-0.134563	-0.139196	-0.977636
47660	2.703889	2.381201	9.207863	0.039762	0.203086	0.072810	0.082429	-0.134313	-0.139107	-0.977658
47661	2.714394	2.478623	9.212782	0.048258	0.114008	0.105555	0.082720	-0.134284	-0.139575	-0.977571
47662	2.902804	2.530215	9.130693	-0.137877	0.021292	0.095812	0.082957	-0.134452	-0.139636	-0.977519
47663	2.896773	2.478472	9.119180	-0.143423	0.068948	0.070037	0.083118	-0.134424	-0.139771	-0.977489
47664	2.879067	2.427096	9.084219	-0.146756	0.112442	0.019336	0.083153	-0.134277	-0.140028	-0.977470
47665	2.837733	2.469319	9.085197	-0.102511	0.082185	0.019596	0.083090	-0.134063	-0.140220	-0.977477
47666	2.845872	2.571282	9.035762	-0.107125	-0.026303	0.002775	0.082932	-0.133714	-0.140452	-0.977505
47667	2.763995	2.599225	8.961558	-0.049958	-0.059951	-0.081343	0.082807	-0.133181	-0.140793	-0.977539
47668	2.681857	2.719392	9.104350	0.074382	-0.116071	0.059375	0.082735	-0.132661	-0.140861	-0.977606
47669	2.658250	2.672419	9.143869	0.088998	-0.060323	0.077049	0.082512	-0.132452	-0.140463	-0.977711
47670	2.691019	2.434342	9.009986	-0.024799	0.115481	-0.100144	0.082225	-0.132275	-0.140447	-0.977761
47671	2.707236	2.655326	8.973301	-0.009858	-0.100232	-0.071545	0.081950	-0.132005	-0.141070	-0.977731
47672	2.651333	2.933596	9.109221	0.124360	-0.306426	0.112235	0.081708	-0.131845	-0.141227	-0.977750
47673	2.719849	2.691924	8.963118	-0.025185	-0.132314	-0.067771	0.081617	-0.131761	-0.140990	-0.977803
47674	2.718275	2.638419	8.887412	-0.055048	-0.105991	-0.152351	0.081550	-0.131495	-0.141121	-0.977826
47675	2.707459	2.675826	8.877050	-0.046572	-0.137993	-0.154987	0.081613	-0.131075	-0.141591	-0.977809
47676	2.647261	2.890194	9.010690	0.074328	-0.284952	0.009075	0.081897	-0.130523	-0.141953	-0.977807
47677	2.532177	2.942892	9.126305	0.212135	-0.286294	0.098670	0.082170	-0.130115	-0.141584	-0.977892
47678	2.489142	2.638051	8.955919	0.149624	-0.057929	-0.151534	0.082339	-0.129902	-0.140801	-0.978019
47679	2.527444	2.616833	8.991250	0.116593	-0.042510	-0.114081	0.082573	-0.129974	-0.140547	-0.978026
47680	2.723866	2.668028	8.972665	-0.062845	-0.124705	-0.064506	0.082975	-0.129972	-0.140531	-0.977995
47681	2.729923	2.738988	9.216788	0.002396	-0.123018	0.181739	0.083424	-0.130045	-0.140127	-0.978005
47682	2.803800	2.458293	9.173553	-0.132694	0.108461	0.088282	0.083775	-0.129954	-0.139548	-0.978070
47683	2.816805	2.348906	9.215676	-0.162158	0.214658	0.102354	0.083998	-0.129486	-0.139435	-0.978129
47684	2.650522	2.543506	9.371603	0.060433	0.100300	0.252496	0.084142	-0.128910	-0.139737	-0.978149
47685	2.654890	2.650642	9.449114	0.086923	0.023418	0.353531	0.084287	-0.128647	-0.139675	-0.978180
47686	2.562329	2.592634	9.343060	0.139152	0.053997	0.215162	0.084410	-0.128753	-0.139379	-0.978198
47687	2.684529	2.502987	9.229046	-0.016145	0.084640	0.119055	0.084543	-0.129053	-0.139327	-0.978154
47688	2.641904	2.582177	9.209942	0.042806	0.011308	0.110436	0.084668	-0.129370	-0.139507	-0.978076
47689	2.672928	2.689694	9.162771	0.031680	-0.106251	0.103112	0.084830	-0.129726	-0.139523	-0.978012
47690	2.777994	2.600672	9.089847	-0.097090	-0.058410	0.040902	0.085025	-0.129899	-0.139477	-0.977979
47691	2.737047	2.605802	9.076510	-0.058462	-0.061140	0.018768	0.085293	-0.129816	-0.139649	-0.977942
47692	2.741165	2.726295	9.180755	-0.015910	-0.143252	0.147843	0.085589	-0.129673	-0.139611	-0.977941
47693	2.708262	2.687939	9.223736	0.017047	-0.096865	0.168661	0.085886	-0.129672	-0.139006	-0.978001
47694	2.512374	2.488426	9.257626	0.175634	0.116482	0.095062	0.086206	-0.130067	-0.138492	-0.977993
47695	2.637209	2.486407	9.189718	0.054509	0.075551	0.065537	0.086555	-0.130888	-0.138394	-0.977867
47696	2.669408	2.581134	9.135699	0.049653	-0.032885	0.048622	0.086915	-0.131819	-0.138553	-0.977687
47697	2.786473	2.594715	8.941132	-0.084664	-0.114666	-0.095667	0.087343	-0.132658	-0.138895	-0.977487
47698	2.782362	2.709089	8.968922	-0.035693	-0.209239	-0.041444	0.087883	-0.133207	-0.138970	-0.977353
47699	2.796348	2.624592	8.936742	-0.064293	-0.144961	-0.089095	0.088564	-0.133449	-0.138581	-0.977314
47700	2.632022	2.469823	9.091692	0.102571	0.059296	-0.031462	0.089280	-0.133767	-0.137911	-0.977300
47701	2.740493	2.283329	9.189072	-0.006654	0.235876	0.041613	0.089902	-0.134332	-0.137254	-0.977258
47702	2.773980	2.187039	9.133555	-0.057621	0.296291	-0.024490	0.090336	-0.135022	-0.136991	-0.977160
47703	2.850320	2.359270	9.093552	-0.086449	0.110636	0.003800	0.090736	-0.135815	-0.137158	-0.976990
47704	2.914028	2.501216	9.051503	-0.109652	-0.045498	0.019059	0.091225	-0.136535	-0.136882	-0.976883
47705	2.949379	2.260306	8.961744	-0.203213	0.138806	-0.114230	0.091693	-0.136973	-0.136049	-0.976894
47706	2.934045	2.128989	9.016176	-0.197424	0.267131	-0.100720	0.092019	-0.137074	-0.135478	-0.976928
47707	2.770677	2.164784	9.092074	-0.013072	0.267964	-0.068111	0.091983	-0.137254	-0.134853	-0.976993
47708	2.753079	2.232591	9.023128	0.007962	0.175544	-0.119914	0.091756	-0.137607	-0.134306	-0.977040
47709	2.856586	2.355399	9.042076	-0.051022	0.039280	-0.042172	0.091537	-0.138011	-0.133574	-0.977104
47710	2.936225	2.230222	8.925736	-0.176256	0.099477	-0.157477	0.091325	-0.138085	-0.132924	-0.977202
47711	2.808147	2.301625	9.076691	-0.003865	0.083148	-0.037078	0.090939	-0.137975	-0.132297	-0.977339
47712	2.755209	2.368603	9.209847	0.090745	0.054409	0.087390	0.090451	-0.137942	-0.131615	-0.977481
47713	2.775582	2.234661	9.096256	0.013892	0.134462	-0.044312	0.089826	-0.137864	-0.131083	-0.977621
47714	2.664443	2.371044	9.045530	0.132209	0.004173	-0.090279	0.089178	-0.137666	-0.131270	-0.977683
47715	2.671029	2.652511	9.058055	0.186533	-0.253844	-0.008641	0.088679	-0.137831	-0.131548	-0.977667
47716	2.764744	2.629609	8.871945	0.050573	-0.294566	-0.159670	0.088378	-0.138037	-0.131622	-0.977656
47717	2.644819	2.664712	8.650991	0.120522	-0.373477	-0.390300	0.088174	-0.138091	-0.131667	-0.977661
47718	2.684623	2.762632	8.548185	0.077557	-0.500876	-0.450321	0.088231	-0.137918	-0.131690	-0.977677
47719	2.753080	2.694605	8.618624	0.009740	-0.428795	-0.382043	0.088588	-0.137425	-0.131431	-0.977749
47720	2.803838	2.656173	8.874692	0.005814	-0.335842	-0.139835	0.089048	-0.136820	-0.130789	-0.977878
47721	2.841201	2.429303	9.023640	-0.053211	-0.101536	-0.046070	0.089479	-0.136071	-0.129795	-0.978075
47722	2.665661	2.315311	9.159380	0.111150	0.048393	0.002908	0.089833	-0.135563	-0.128777	-0.978248
47723	2.653314	2.212792	9.127632	0.088921	0.121854	-0.054233	0.090219	-0.135384	-0.128272	-0.978304
47724	2.765368	2.284945	9.138227	-0.000842	0.033961	0.004352	0.090690	-0.135269	-0.128252	-0.978279
47725	2.849124	2.358363	9.256729	-0.039297	-0.015677	0.155493	0.091241	-0.134998	-0.128275	-0.978262
47726	2.869485	2.266413	9.336293	-0.065555	0.087552	0.213526	0.091836	-0.134538	-0.128122	-0.978290
47727	2.806307	2.097203	9.378133	-0.041238	0.263578	0.194901	0.092387	-0.133970	-0.127988	-0.978333
47728	2.647966	2.041505	9.489847	0.113337	0.370677	0.241486	0.092893	-0.133515	-0.128273	-0.978310
47729	2.723603	2.231715	9.666232	0.121074	0.230683	0.471608	0.093281	-0.133641	-0.128246	-0.978260
47730	2.877040	2.026743	9.528102	-0.095859	0.358566	0.337781	0.093595	-0.133916	-0.127931	-0.978233
47731	2.851237	2.000892	9.584653	-0.057741	0.397670	0.377367	0.093831	-0.134165	-0.127731	-0.978203
47732	2.869685	1.852549	9.354638	-0.155842	0.468887	0.133777	0.093898	-0.134372	-0.127806	-0.978158
47733	2.682389	2.050182	9.371296	0.073031	0.319771	0.142816	0.093800	-0.134603	-0.128182	-0.978086
47734	2.770082	2.135566	9.262661	-0.012753	0.202149	0.086295	0.093596	-0.134823	-0.128465	-0.978039
47735	2.776251	2.200881	9.175302	-0.021400	0.117226	0.022119	0.093284	-0.134990	-0.128354	-0.978060
47736	2.885801	2.224307	9.081632	-0.140004	0.052104	-0.028562	0.092944	-0.135085	-0.128365	-0.978078
47737	2.833450	2.326872	9.038788	-0.078595	-0.045941	-0.059013	0.092584	-0.135035	-0.128614	-0.978086
47738	2.735120	2.423396	9.020347	0.029133	-0.120092	-0.081032	0.092360	-0.134994	-0.129120	-0.978046
47739	2.610855	2.521892	9.145343	0.197486	-0.150065	0.023586	0.092210	-0.135166	-0.129496	-0.977987
47740	2.683187	2.452883	9.061008	0.100127	-0.113384	-0.050766	0.092065	-0.135678	-0.129648	-0.977909
47741	2.840346	2.523917	9.055144	-0.025408	-0.202811	0.005234	0.091983	-0.136167	-0.129620	-0.977853
47742	2.900481	2.368598	8.928423	-0.138827	-0.103648	-0.132307	0.092008	-0.136386	-0.129287	-0.977864
47743	2.940032	2.251454	9.022101	-0.178828	0.022215	-0.061859	0.092098	-0.136207	-0.128998	-0.977919
47744	2.674962	2.136052	9.123137	0.067084	0.196270	-0.070678	0.092112	-0.135963	-0.129036	-0.977946
47745	2.618823	2.217989	9.082904	0.127792	0.118621	-0.104626	0.091987	-0.136154	-0.129323	-0.977894
47746	2.731608	2.291029	8.992588	0.021613	0.014641	-0.139196	0.091841	-0.136668	-0.129713	-0.977784
47747	2.822886	2.377210	8.881546	-0.064369	-0.102874	-0.195674	0.091656	-0.137081	-0.130149	-0.977686
47748	2.902084	2.363515	8.808117	-0.155570	-0.114147	-0.244303	0.091438	-0.137216	-0.130484	-0.977642
47749	2.915341	2.468903	8.848552	-0.138123	-0.197288	-0.177670	0.091232	-0.136944	-0.130820	-0.977655
47750	2.842545	2.500223	8.888813	-0.060931	-0.201651	-0.153609	0.091125	-0.136455	-0.130850	-0.977729
47751	2.769754	2.450392	8.989075	0.009707	-0.116101	-0.093333	0.091131	-0.135809	-0.130814	-0.977824
47752	2.765378	2.415554	9.135957	0.027960	-0.042067	0.033396	0.091219	-0.135136	-0.130792	-0.977911
47753	2.753869	2.425303	9.300529	0.069996	-0.005114	0.185352	0.091323	-0.134833	-0.130630	-0.977965
47754	2.662189	2.225330	9.122127	0.069959	0.143606	-0.054254	0.091304	-0.134868	-0.130604	-0.977966
47755	2.792601	2.377650	8.957479	-0.058583	-0.063076	-0.133800	0.091249	-0.134910	-0.131024	-0.977909
47756	2.813882	2.578516	8.925220	-0.045228	-0.258464	-0.109215	0.091285	-0.134673	-0.131357	-0.977894
47757	2.712582	2.650055	9.079860	0.096103	-0.263769	0.023264	0.091585	-0.134263	-0.131421	-0.977913
47758	2.747795	2.542832	9.156598	0.051999	-0.151109	0.078425	0.092006	-0.133998	-0.130914	-0.977978
47759	2.648117	2.324601	9.235325	0.115431	0.080453	0.071022	0.092500	-0.133869	-0.130323	-0.978028
47760	2.754074	2.242962	9.242040	-0.001209	0.131897	0.087499	0.092882	-0.133812	-0.129812	-0.978068
47761	2.684839	2.239726	9.285707	0.075422	0.147893	0.108075	0.093220	-0.133872	-0.129403	-0.978081
47762	2.691946	2.114333	9.284012	0.043682	0.257318	0.078811	0.093538	-0.133968	-0.129093	-0.978079
47763	2.724793	2.091172	9.256940	0.003793	0.262752	0.057438	0.093769	-0.134041	-0.129064	-0.978050
47764	2.765357	2.114149	9.133351	-0.057727	0.202165	-0.040752	0.093953	-0.133970	-0.129419	-0.977996
47765	2.765111	2.227548	9.052739	-0.054201	0.078361	-0.088963	0.094088	-0.133725	-0.129819	-0.977963
47766	2.826283	2.330571	9.077233	-0.090049	-0.017314	-0.024573	0.094204	-0.133333	-0.129931	-0.977991
47767	2.752982	2.279855	9.266958	0.003670	0.093301	0.119303	0.094269	-0.132887	-0.129625	-0.978086
47768	2.722709	2.178132	9.500000	0.056487	0.251451	0.303684	0.094309	-0.132614	-0.129062	-0.978193
47769	2.819179	2.113058	9.535292	-0.043866	0.297585	0.348222	0.094242	-0.132562	-0.128581	-0.978270
47770	2.792989	2.050093	9.441243	-0.054547	0.331185	0.238585	0.094070	-0.132585	-0.128728	-0.978264
47771	2.735494	2.259069	9.347041	0.024874	0.124561	0.184180	0.093910	-0.132688	-0.129461	-0.978169
47772	2.713791	2.473361	9.310930	0.087094	-0.071622	0.195452	0.093879	-0.132971	-0.130028	-0.978058
47773	2.825039	2.480200	9.217965	-0.032411	-0.115997	0.141639	0.093906	-0.133295	-0.129960	-0.978021
47774	2.740570	2.246240	9.191977	-0.003580	0.108909	0.038043	0.094013	-0.133574	-0.129814	-0.977992
47775	2.781873	2.150219	9.166993	-0.063498	0.185108	0.003509	0.094035	-0.133893	-0.129788	-0.977949
47776	2.669983	2.053552	9.032094	-0.004990	0.261587	-0.176498	0.093913	-0.134125	-0.130470	-0.977839
47777	2.668879	2.232456	8.945250	0.017785	0.087460	-0.214966	0.093708	-0.134312	-0.131787	-0.977656
47778	2.788017	2.538830	8.895140	-0.039533	-0.208978	-0.153654	0.093616	-0.134301	-0.133070	-0.977493
47779	2.837122	2.625525	9.002526	-0.046718	-0.250024	-0.018638	0.093688	-0.133983	-0.133537	-0.977466
47780	2.782286	2.470402	9.194031	0.008457	-0.038904	0.105610	0.093833	-0.133633	-0.133183	-0.977548
47781	2.632792	2.121837	9.236926	0.078807	0.316001	0.018310	0.093967	-0.133475	-0.132700	-0.977622
47782	2.688091	2.048029	9.259791	0.015623	0.380000	0.037152	0.093978	-0.133624	-0.132782	-0.977590
47783	2.725796	2.148274	9.184175	-0.012439	0.267910	0.001698	0.093970	-0.133833	-0.133724	-0.977433
47784	2.785243	2.443780	9.182939	-0.000830	-0.001061	0.089635	0.094002	-0.134041	-0.134687	-0.977270
47785	2.774700	2.398190	9.107020	-0.013593	0.036687	0.004978	0.094046	-0.134421	-0.135269	-0.977133
47786	2.878304	2.204339	8.986643	-0.177361	0.177951	-0.125563	0.093968	-0.134643	-0.135633	-0.977059
47787	2.936608	2.208651	9.009231	-0.227475	0.182553	-0.087310	0.093685	-0.134446	-0.136313	-0.977019
47788	2.895010	2.449258	9.126409	-0.116800	0.011959	0.069492	0.093333	-0.133928	-0.137141	-0.977008
47789	2.782182	2.583850	9.240434	0.034912	-0.050070	0.177242	0.092996	-0.133537	-0.137715	-0.977013
47790	2.768767	2.663444	9.343733	0.083133	-0.082877	0.289370	0.092700	-0.133534	-0.138003	-0.977001
47791	2.681507	2.588996	9.280686	0.136318	-0.014549	0.187598	0.092401	-0.133771	-0.138081	-0.976986
47792	2.686645	2.560056	9.119333	0.094713	-0.031378	0.032323	0.092281	-0.134278	-0.138444	-0.976876
47793	2.833712	2.661436	9.040467	-0.030821	-0.162282	0.026820	0.092270	-0.134844	-0.138951	-0.976727
47794	2.831896	2.542875	8.951287	-0.067969	-0.066908	-0.086317	0.092354	-0.135129	-0.139458	-0.976608
47795	2.823425	2.549208	9.069123	-0.028395	-0.027105	0.021825	0.092465	-0.135190	-0.139806	-0.976539
47796	2.783324	2.530353	9.155967	0.025726	0.026778	0.085794	0.092505	-0.135166	-0.139850	-0.976532
47797	2.707747	2.484534	9.186416	0.096297	0.090650	0.080621	0.092502	-0.135396	-0.139838	-0.976502
47798	2.804898	2.461668	9.127743	-0.008293	0.081957	0.048153	0.092583	-0.135779	-0.139980	-0.976421
47799	2.835686	2.454745	9.090433	-0.041358	0.076147	0.020692	0.092626	-0.136038	-0.140147	-0.976357
47800	2.759480	2.432781	9.037599	0.017923	0.096387	-0.055550	0.092743	-0.136219	-0.140444	-0.976278
47801	2.862605	2.479820	9.095914	-0.052384	0.057397	0.039907	0.092860	-0.136371	-0.140364	-0.976257
47802	2.764446	2.328611	9.063958	0.003413	0.200207	-0.056672	0.092812	-0.136566	-0.140030	-0.976282
47803	2.734148	2.368093	9.098942	0.056827	0.175499	-0.022890	0.092591	-0.137179	-0.139961	-0.976227
47804	2.881586	2.392424	8.838040	-0.128220	0.054105	-0.214833	0.092342	-0.137687	-0.140155	-0.976152
47805	2.789458	2.690910	8.851828	0.034403	-0.204239	-0.151734	0.092222	-0.137904	-0.140344	-0.976105
47806	2.883619	2.632581	8.860231	-0.063888	-0.161998	-0.131825	0.092213	-0.137878	-0.139939	-0.976168
47807	2.907416	2.441458	8.951693	-0.109720	0.032428	-0.089854	0.092208	-0.137569	-0.139337	-0.976298
47808	2.767552	2.400483	9.221486	0.070124	0.164523	0.108274	0.092217	-0.137118	-0.139083	-0.976397
47809	2.709731	2.453114	9.408745	0.178802	0.174356	0.278027	0.092191	-0.137372	-0.138738	-0.976413
47810	2.848892	2.386107	9.295519	0.017148	0.177022	0.196544	0.092078	-0.138224	-0.138359	-0.976357
47811	2.963140	2.208140	8.785499	-0.236643	0.173731	-0.286152	0.091913	-0.138834	-0.138630	-0.976247
47812	2.936079	2.543066	8.781541	-0.133202	-0.126530	-0.212196	0.091781	-0.138874	-0.139548	-0.976123
47813	2.910247	2.735525	8.824846	-0.060105	-0.279287	-0.130285	0.091763	-0.138523	-0.139837	-0.976133
47814	2.894801	2.598242	8.896556	-0.067053	-0.128392	-0.104008	0.091780	-0.138003	-0.139387	-0.976270
47815	2.737921	2.544858	9.084269	0.107264	-0.010485	0.009982	0.091772	-0.137750	-0.138672	-0.976408
47816	2.856312	2.499343	9.032030	-0.021857	-0.018604	-0.015651	0.091498	-0.138446	-0.137445	-0.976509
47817	2.947526	2.331876	8.747610	-0.201686	0.024622	-0.294025	0.091194	-0.138806	-0.136865	-0.976568
47818	3.008857	2.658882	8.761762	-0.184338	-0.292560	-0.180877	0.090924	-0.138558	-0.136879	-0.976626
47819	2.833476	2.928822	8.980493	0.083881	-0.459330	0.038090	0.090856	-0.137964	-0.136608	-0.976755
47820	2.851980	2.892804	9.069262	0.071655	-0.415608	0.115843	0.090965	-0.137659	-0.135533	-0.976937
47821	2.752885	2.672627	9.135693	0.131528	-0.197465	0.093163	0.091228	-0.137562	-0.134311	-0.977095
47822	2.825007	2.565196	9.159920	0.050390	-0.123786	0.109364	0.091570	-0.137877	-0.133088	-0.977186
47823	2.823371	2.400145	9.105507	0.010772	-0.003722	0.017990	0.091851	-0.138106	-0.132284	-0.977236
47824	2.975882	2.307900	8.998038	-0.176011	0.020042	-0.059965	0.092099	-0.138061	-0.132127	-0.977241
47825	2.943507	2.582378	9.185919	-0.045244	-0.180044	0.171277	0.092396	-0.137569	-0.132382	-0.977248
47826	2.833633	2.610973	9.347386	0.095732	-0.145378	0.296218	0.092704	-0.137217	-0.132133	-0.977302
47827	2.768569	2.527359	9.360474	0.143265	-0.064814	0.269288	0.092891	-0.137534	-0.131267	-0.977356
47828	2.858024	2.308225	9.142400	-0.030778	0.049887	0.040039	0.093064	-0.138089	-0.130485	-0.977366
47829	2.907389	2.381148	9.060081	-0.070624	-0.063848	-0.004590	0.093154	-0.138440	-0.129803	-0.977398
47830	2.949495	2.303309	9.017183	-0.134336	-0.020938	-0.050728	0.093214	-0.138331	-0.129230	-0.977484
47831	2.868994	2.330438	9.107350	-0.036175	-0.018055	0.016058	0.093306	-0.137799	-0.128942	-0.977589
47832	2.792032	2.479361	9.393504	0.127939	-0.072998	0.294680	0.093455	-0.137304	-0.128622	-0.977686
47833	2.648887	2.276270	9.403649	0.216121	0.136522	0.215337	0.093825	-0.137199	-0.128369	-0.977699
47834	2.643800	2.318666	9.421495	0.240678	0.098994	0.240308	0.094215	-0.137795	-0.128321	-0.977584
47835	2.786819	2.226806	9.146107	0.035880	0.085795	0.004014	0.094642	-0.138717	-0.128299	-0.977415
47836	2.923530	2.249552	8.927444	-0.122789	-0.018246	-0.153943	0.095150	-0.139481	-0.128321	-0.977254
47837	2.919092	2.297262	8.900108	-0.100934	-0.072966	-0.169300	0.095671	-0.139951	-0.128046	-0.977172
47838	2.925806	2.081688	8.769739	-0.178809	0.085878	-0.338368	0.096258	-0.140157	-0.127682	-0.977132
47839	2.830650	2.019823	8.862147	-0.076483	0.179531	-0.294713	0.096887	-0.140207	-0.127561	-0.977079
47840	2.772067	2.012838	8.910753	-0.006483	0.206465	-0.268332	0.097434	-0.140484	-0.127522	-0.976990
47841	2.870121	1.845956	8.815277	-0.153428	0.322641	-0.366703	0.097861	-0.140819	-0.127724	-0.976873
47842	2.871895	1.934315	8.790217	-0.137343	0.238404	-0.369088	0.098072	-0.140850	-0.128290	-0.976773
47843	2.926204	1.967239	8.766726	-0.189405	0.205520	-0.367580	0.098254	-0.140605	-0.129250	-0.976663
47844	2.812650	2.360170	8.938156	0.041436	-0.078440	-0.150176	0.098550	-0.140105	-0.130518	-0.976536
47845	2.891979	2.447824	9.107243	0.018105	-0.109291	0.050627	0.099099	-0.139652	-0.131033	-0.976477
47846	2.814960	2.360580	9.301614	0.112261	0.041400	0.187415	0.099772	-0.139477	-0.130682	-0.976480
47847	2.725954	1.946622	9.255475	0.092004	0.422701	0.020767	0.100410	-0.139783	-0.130171	-0.976439
47848	2.935294	1.795102	9.014246	-0.189256	0.456120	-0.176759	0.100969	-0.140251	-0.130187	-0.976313
47849	2.927587	2.044182	9.008733	-0.117327	0.224639	-0.125454	0.101320	-0.140464	-0.130604	-0.976190
47850	2.967942	2.111181	9.070649	-0.120285	0.175261	-0.040418	0.101569	-0.140646	-0.130458	-0.976157
47851	3.082789	1.890077	9.064407	-0.280454	0.355948	-0.064144	0.101608	-0.140566	-0.129899	-0.976239
47852	2.968617	1.867026	9.106747	-0.173327	0.400495	-0.063797	0.101329	-0.140083	-0.129646	-0.976371
47853	2.953767	2.098650	9.248666	-0.081901	0.222362	0.117606	0.100772	-0.139488	-0.129570	-0.976524
47854	2.860312	2.182038	9.355809	0.040157	0.187734	0.209138	0.100072	-0.139098	-0.129380	-0.976677
47855	2.863566	2.240361	9.314102	0.033028	0.120295	0.185121	0.099392	-0.138879	-0.129491	-0.976763
47856	2.795759	2.385482	9.398315	0.145329	0.022539	0.277579	0.098823	-0.138754	-0.129672	-0.976814
47857	2.763221	2.573362	9.548533	0.253357	-0.103941	0.451672	0.098361	-0.138861	-0.129602	-0.976855
47858	2.789869	2.281304	9.255261	0.095328	0.078542	0.118693	0.097951	-0.139250	-0.129094	-0.976908
47859	2.861654	2.297837	9.203806	0.027403	0.030737	0.095766	0.097483	-0.139753	-0.128777	-0.976925
47860	3.023578	2.291863	9.058327	-0.155688	-0.030817	0.006822	0.097096	-0.139955	-0.128894	-0.976919
47861	3.034218	2.513085	9.101395	-0.106093	-0.224281	0.101742	0.096901	-0.139752	-0.129190	-0.976929
47862	2.764569	2.694946	9.361578	0.249107	-0.276439	0.306909	0.096938	-0.139691	-0.129195	-0.976933
47863	2.767807	2.587170	9.424010	0.243834	-0.166454	0.340094	0.097147	-0.140370	-0.128222	-0.976943
47864	2.712890	2.177989	9.125358	0.151387	0.124156	-0.048613	0.097328	-0.141611	-0.127086	-0.976894
47865	2.928701	2.158175	8.929911	-0.076630	0.035136	-0.170533	0.097346	-0.143012	-0.126023	-0.976826
47866	3.178338	1.967428	8.640481	-0.404076	0.082315	-0.407347	0.097304	-0.143862	-0.125484	-0.976775
47867	3.198632	2.143913	8.695947	-0.361848	-0.079352	-0.309537	0.097265	-0.143720	-0.125165	-0.976841
47868	2.971940	2.101901	8.923420	-0.110501	0.053512	-0.176156	0.097204	-0.142905	-0.124926	-0.976997
47869	2.785131	2.333386	9.371177	0.214223	-0.018163	0.235912	0.097241	-0.142199	-0.124597	-0.977138
47870	2.818891	2.137209	9.380726	0.132623	0.153868	0.210812	0.097166	-0.142087	-0.123894	-0.977251
47871	2.709011	1.972096	9.251080	0.171085	0.280930	0.021039	0.096997	-0.142575	-0.123470	-0.977251
47872	2.949436	2.053811	9.135142	-0.055651	0.135547	0.002946	0.096771	-0.143128	-0.123911	-0.977136
47873	2.988819	2.179366	8.924051	-0.110704	-0.038639	-0.153101	0.096492	-0.143299	-0.124323	-0.977087
47874	3.015783	2.217918	8.937175	-0.128764	-0.066146	-0.124229	0.096345	-0.142783	-0.124884	-0.977105
47875	2.869976	2.469452	9.330955	0.151230	-0.165523	0.254656	0.096266	-0.142218	-0.125040	-0.977175
47876	2.864664	2.304688	9.468174	0.145687	0.026994	0.343210	0.096336	-0.142075	-0.124678	-0.977236
47877	2.862851	2.081970	9.447682	0.096102	0.224024	0.273430	0.096403	-0.142541	-0.124171	-0.977226
47878	2.938268	1.996558	9.365350	-0.001671	0.261858	0.200347	0.096321	-0.143281	-0.123689	-0.977187
47879	3.059398	2.104937	9.264160	-0.101240	0.106679	0.166976	0.096121	-0.144023	-0.123398	-0.977134
47880	3.157532	2.106835	9.104441	-0.222603	0.042100	0.048767	0.095898	-0.144347	-0.123163	-0.977138
47881	2.995502	2.103033	8.972849	-0.102890	0.037701	-0.122704	0.095757	-0.144187	-0.123700	-0.977108
47882	2.864862	2.265164	9.043422	0.071355	-0.063611	-0.060112	0.095708	-0.144170	-0.124481	-0.977015
47883	2.773194	2.418932	9.137532	0.219454	-0.160384	0.034263	0.095603	-0.144639	-0.124523	-0.976951
47884	2.912184	2.202510	9.003704	0.019769	-0.018966	-0.096836	0.095472	-0.145536	-0.123768	-0.976927
47885	2.914973	1.922954	8.877450	-0.059754	0.201616	-0.275408	0.095265	-0.146453	-0.123334	-0.976865
47886	2.996055	1.965807	8.819428	-0.127339	0.133534	-0.294862	0.094909	-0.147039	-0.123617	-0.976776
47887	3.137618	2.176398	8.807819	-0.214249	-0.076336	-0.215435	0.094616	-0.146848	-0.124716	-0.976693
47888	3.064233	2.568447	9.068068	-0.001564	-0.346831	0.091654	0.094408	-0.146170	-0.125440	-0.976722
47889	2.849706	2.507476	9.236670	0.217321	-0.203271	0.169084	0.094214	-0.145740	-0.125427	-0.976807
47890	2.827790	2.300935	9.095180	0.152332	-0.046259	-0.015358	0.094131	-0.145822	-0.125217	-0.976830
47891	2.873932	2.246189	8.974125	0.069709	-0.035068	-0.125909	0.094159	-0.146123	-0.125398	-0.976759
47892	3.006930	2.353786	8.945475	-0.035632	-0.157592	-0.087599	0.094299	-0.146170	-0.125963	-0.976665
47893	2.959970	2.395474	9.066335	0.048139	-0.148905	0.019589	0.094527	-0.146083	-0.126180	-0.976628
47894	2.955279	2.230736	9.087091	0.020647	0.014886	-0.000224	0.094838	-0.146082	-0.126161	-0.976601
47895	3.074797	2.173385	9.165473	-0.082246	0.069756	0.095503	0.095023	-0.146255	-0.125851	-0.976597
47896	3.038860	2.095845	9.121043	-0.073219	0.131828	0.025906	0.095027	-0.146420	-0.125715	-0.976589
47897	3.052817	2.166202	9.130146	-0.065859	0.062912	0.054602	0.095037	-0.146468	-0.125550	-0.976603
47898	3.085731	2.156803	9.119232	-0.100824	0.061446	0.052402	0.095028	-0.146490	-0.125468	-0.976611
47899	3.091994	2.056807	9.077752	-0.141122	0.145052	-0.006796	0.095026	-0.146342	-0.125716	-0.976601
47900	2.961061	2.230174	9.202574	0.047907	0.041962	0.108243	0.095052	-0.146051	-0.126158	-0.976585
47901	2.856568	2.250054	9.165424	0.136710	0.033726	0.046719	0.095030	-0.145924	-0.126310	-0.976587
47902	2.815445	2.300785	9.158762	0.187322	-0.008532	0.039627	0.095014	-0.146288	-0.126279	-0.976538
47903	3.102297	2.122250	8.905381	-0.179849	0.046510	-0.148346	0.095018	-0.146656	-0.126313	-0.976478
47904	3.061719	2.266126	8.946288	-0.094888	-0.068251	-0.089938	0.095113	-0.146713	-0.126641	-0.976417
47905	3.034035	2.276212	9.126047	-0.021548	-0.019794	0.070146	0.095271	-0.146578	-0.126647	-0.976422
47906	3.014054	2.086171	9.217928	-0.023668	0.185075	0.105579	0.095368	-0.146516	-0.126273	-0.976470
47907	3.032442	1.953961	9.157253	-0.087182	0.285680	0.024982	0.095332	-0.146438	-0.126200	-0.976494
47908	2.919177	2.099821	9.206189	0.064296	0.180573	0.069014	0.095205	-0.146509	-0.126464	-0.976462
47909	2.947294	2.143514	9.120404	0.028946	0.117085	0.008128	0.095092	-0.146820	-0.126785	-0.976385
47910	3.011686	2.227469	8.973693	-0.044263	-0.005581	-0.088643	0.095000	-0.147181	-0.127206	-0.976284
47911	3.027671	2.344074	9.003948	-0.019992	-0.100573	-0.028924	0.094997	-0.147442	-0.127647	-0.976188
47912	3.058529	2.266792	8.969785	-0.072866	-0.035070	-0.068795	0.095067	-0.147458	-0.127880	-0.976148
47913	2.942175	2.112914	9.038901	0.018121	0.154443	-0.076243	0.095113	-0.147350	-0.128364	-0.976096
47914	2.930828	2.207378	9.169937	0.083737	0.115280	0.063026	0.094988	-0.147569	-0.128969	-0.975996
47915	3.087613	2.250234	9.135630	-0.058870	0.053047	0.089350	0.094725	-0.147874	-0.129430	-0.975914
47916	3.008297	2.265032	9.071895	0.007073	0.041299	0.009621	0.094445	-0.148144	-0.129738	-0.975859
47917	3.114268	2.412136	9.066936	-0.056994	-0.107720	0.072227	0.094203	-0.148367	-0.130033	-0.975810
47918	3.026844	2.399391	9.025876	0.013105	-0.085928	0.004529	0.094129	-0.148391	-0.130567	-0.975742
47919	2.957872	2.504783	9.167769	0.138964	-0.124549	0.139001	0.094106	-0.148538	-0.130969	-0.975668
47920	3.011879	2.488220	9.148614	0.085851	-0.116335	0.134115	0.094327	-0.149035	-0.131133	-0.975549
47921	2.991601	2.260872	8.983339	0.021856	0.057404	-0.078325	0.094536	-0.149612	-0.131347	-0.975411
47922	3.089880	2.177396	8.826267	-0.120078	0.084729	-0.212178	0.094683	-0.150076	-0.132002	-0.975237
47923	3.006661	2.500737	8.947550	0.070561	-0.157801	-0.049366	0.094914	-0.150457	-0.132842	-0.975042
47924	3.067597	2.456681	8.936149	0.010250	-0.117743	-0.051222	0.095101	-0.151098	-0.133054	-0.974896
47925	3.072772	2.324663	8.799575	-0.048467	-0.029065	-0.206683	0.095321	-0.151664	-0.133324	-0.974749
47926	3.097504	2.463385	9.005062	0.024695	-0.095424	0.023176	0.095623	-0.152175	-0.133723	-0.974586
47927	3.096809	2.402020	8.973452	0.014361	-0.040083	-0.020806	0.095875	-0.152793	-0.133967	-0.974431
47928	3.035738	2.623759	9.059825	0.157599	-0.207777	0.092474	0.096118	-0.153374	-0.134308	-0.974268
47929	3.148437	2.561334	9.050268	0.048500	-0.166523	0.104487	0.096366	-0.154072	-0.134081	-0.974165
47930	3.268778	2.545784	8.908129	-0.093319	-0.216854	0.008970	0.096971	-0.154435	-0.133844	-0.974080
47931	3.040396	2.646173	9.224587	0.240143	-0.191898	0.249357	0.097809	-0.154984	-0.133224	-0.973994
47932	3.115099	2.469484	9.023564	0.088573	-0.112841	0.046637	0.098405	-0.155439	-0.132273	-0.973991
47933	3.050074	2.589700	9.462858	0.311129	-0.115483	0.455948	0.098816	-0.156144	-0.130270	-0.974107
47934	3.039916	2.386423	9.527230	0.318230	0.053532	0.463489	0.099660	-0.157666	-0.127933	-0.974086
47935	3.413757	2.219691	9.389232	-0.062194	0.059152	0.421106	0.100666	-0.159872	-0.124789	-0.974030
47936	3.627071	1.775665	8.926159	-0.448499	0.250610	-0.029002	0.101280	-0.161582	-0.121297	-0.974126
47937	3.748753	1.754129	8.689811	-0.607089	0.123630	-0.207543	0.101642	-0.161885	-0.118176	-0.974421
47938	3.845321	2.115777	8.640983	-0.626139	-0.318394	-0.146478	0.101469	-0.160771	-0.114008	-0.975120
47939	3.664116	2.042300	8.478108	-0.550901	-0.354159	-0.376318	0.101004	-0.158114	-0.108642	-0.976215
47940	3.297347	1.969422	8.694154	-0.214224	-0.284730	-0.314745	0.100530	-0.154922	-0.102189	-0.977471
47941	3.321400	1.190912	8.416397	-0.549066	0.263673	-0.707025	0.100367	-0.151041	-0.095626	-0.978759
47942	2.958734	0.706044	8.744194	-0.300520	0.759818	-0.590712	0.100462	-0.146559	-0.091541	-0.979820
47943	2.864742	0.860482	9.093845	-0.165101	0.637119	-0.262229	0.100396	-0.142099	-0.089452	-0.980677
47944	2.620730	0.886519	9.236569	0.023099	0.652082	-0.192813	0.100216	-0.137691	-0.089084	-0.981357
47945	2.169188	1.152974	9.316711	0.448849	0.491653	-0.200604	0.100043	-0.133978	-0.090384	-0.981770
47946	2.194743	1.502452	9.300903	0.438530	0.173884	-0.150481	0.099673	-0.131787	-0.092398	-0.981917
47947	2.410165	1.323914	8.921677	0.065976	0.269767	-0.480994	0.099442	-0.130198	-0.095388	-0.981866
47948	2.476565	1.816715	9.223555	0.151162	-0.085843	-0.092755	0.099793	-0.129151	-0.099217	-0.981589
47949	2.464503	1.829549	9.037010	0.101849	-0.073717	-0.269499	0.100530	-0.128439	-0.102504	-0.981270
47950	2.469832	1.870467	9.263012	0.141769	-0.005696	-0.046329	0.101379	-0.127954	-0.105240	-0.980956
47951	2.592482	1.493732	9.058640	-0.117812	0.328800	-0.279115	0.101893	-0.127487	-0.107496	-0.980719
47952	2.566713	1.745018	9.379538	0.022523	0.218965	0.064566	0.101821	-0.127104	-0.110221	-0.980474
47953	2.734565	1.951192	9.499247	-0.073303	0.070146	0.262542	0.101233	-0.126958	-0.112192	-0.980330
47954	2.852075	2.023237	9.481348	-0.180137	0.009294	0.291331	0.100454	-0.126753	-0.113325	-0.980306
47955	2.911797	2.114901	9.703740	-0.180408	-0.014689	0.535315	0.099717	-0.126025	-0.113725	-0.980429
47956	2.781570	2.028121	9.834245	-0.067837	0.124582	0.605691	0.098906	-0.125054	-0.113447	-0.980667
47957	2.538854	1.889523	9.815501	0.108202	0.288553	0.495811	0.097899	-0.124298	-0.113355	-0.980875
47958	2.214752	2.146013	9.775985	0.454294	0.095466	0.427668	0.096762	-0.124286	-0.114103	-0.980903
47959	2.345818	2.301156	9.585465	0.329675	-0.104112	0.314490	0.095847	-0.125343	-0.114908	-0.980764
47960	2.622203	2.306499	9.322225	0.031665	-0.201646	0.140102	0.095357	-0.126675	-0.115708	-0.980547
47961	2.749108	2.352397	9.217034	-0.082010	-0.276192	0.084890	0.095118	-0.127578	-0.116270	-0.980387
47962	2.671618	2.246551	9.130690	-0.035074	-0.180134	-0.039237	0.094872	-0.128343	-0.116023	-0.980340
47963	2.708551	2.174530	9.035056	-0.095849	-0.144575	-0.134517	0.094532	-0.128785	-0.115825	-0.980338
47964	2.649091	2.301503	9.047943	-0.003201	-0.254719	-0.111400	0.094177	-0.129006	-0.115668	-0.980362
47965	2.606232	2.364692	9.094160	0.062279	-0.298889	-0.066163	0.093831	-0.128945	-0.115449	-0.980429
47966	2.361394	2.500345	9.343224	0.382710	-0.334549	0.130417	0.093518	-0.129322	-0.114648	-0.980503
47967	2.436400	2.244353	9.282390	0.256888	-0.131786	0.038836	0.093178	-0.130368	-0.113823	-0.980493
47968	2.682270	2.099762	9.126361	-0.019204	-0.081990	-0.071697	0.092878	-0.131751	-0.113279	-0.980400
47969	2.934010	2.259867	8.996820	-0.232376	-0.310055	-0.091163	0.092783	-0.132562	-0.113176	-0.980311
47970	2.726848	2.323265	9.078837	0.006578	-0.321180	-0.057927	0.093016	-0.132711	-0.112842	-0.980307
47971	2.658955	2.299417	9.273151	0.116422	-0.251840	0.100520	0.093297	-0.132958	-0.111829	-0.980363
47972	2.595641	1.997615	9.291647	0.124469	0.031865	0.038505	0.093737	-0.133342	-0.110921	-0.980372
47973	2.617430	1.961630	9.342828	0.121906	0.060012	0.085234	0.094175	-0.134139	-0.110200	-0.980303
47974	2.821460	1.888611	9.327653	-0.071144	0.081337	0.113081	0.094570	-0.135123	-0.109537	-0.980204
47975	2.860174	1.902808	9.353269	-0.077642	0.055539	0.151034	0.094874	-0.136062	-0.108809	-0.980126
47976	2.780354	1.978937	9.407370	0.048481	-0.008727	0.194444	0.094904	-0.137043	-0.107601	-0.980120
47977	2.785684	1.892982	9.521742	0.077983	0.069314	0.286614	0.094424	-0.138403	-0.105352	-0.980219
47978	2.872831	1.406686	9.192062	-0.161658	0.402645	-0.089648	0.093923	-0.139628	-0.103219	-0.980320
47979	2.816275	1.482635	9.151110	-0.077931	0.303277	-0.128973	0.093654	-0.140671	-0.102314	-0.980292
47980	2.819321	1.516413	9.017712	-0.086573	0.231467	-0.246805	0.093482	-0.141662	-0.102153	-0.980182
47981	2.740193	1.794769	9.083879	0.083733	-0.002833	-0.156619	0.093216	-0.142733	-0.102533	-0.980013
47982	3.134473	1.973617	8.946596	-0.268780	-0.258639	-0.136814	0.092983	-0.143412	-0.102860	-0.979901
47983	3.187832	2.204301	8.896922	-0.279812	-0.498559	-0.125088	0.092942	-0.143032	-0.102596	-0.979989
47984	2.961160	2.114957	8.879290	-0.102689	-0.396043	-0.225412	0.092931	-0.141956	-0.101540	-0.980256
47985	2.725931	2.046841	9.096504	0.139490	-0.267094	-0.103117	0.092973	-0.140796	-0.100359	-0.980541
47986	2.604367	2.007716	9.328537	0.290223	-0.183858	0.072511	0.092942	-0.140360	-0.098936	-0.980751
47987	2.798557	1.851664	9.342111	0.076467	-0.087333	0.113142	0.092926	-0.140551	-0.097712	-0.980848
47988	2.962127	1.762855	9.202992	-0.127315	-0.076009	0.013549	0.092890	-0.140666	-0.097166	-0.980889
47989	3.046083	1.913337	9.218928	-0.173510	-0.234573	0.078873	0.092946	-0.140235	-0.097303	-0.980932
47990	2.938728	2.083288	9.358261	-0.014777	-0.347369	0.208906	0.093189	-0.139304	-0.097592	-0.981013
47991	2.635211	2.146023	9.598386	0.330307	-0.306426	0.359616	0.093496	-0.138725	-0.097454	-0.981079
47992	2.622480	1.989785	9.515709	0.285529	-0.178108	0.250717	0.093956	-0.138858	-0.097201	-0.981042
47993	2.727777	1.923782	9.394915	0.153344	-0.164737	0.155033	0.094589	-0.139662	-0.096862	-0.980900
47994	2.829694	1.889798	9.275208	0.039629	-0.181526	0.065239	0.095291	-0.140605	-0.096546	-0.980729
47995	2.961009	1.743012	9.164231	-0.124756	-0.094695	-0.026767	0.095969	-0.141359	-0.096031	-0.980605
47996	2.980089	1.800077	9.266699	-0.092716	-0.139397	0.085033	0.096679	-0.141576	-0.095634	-0.980542
47997	2.862229	1.757426	9.388177	0.045917	-0.062423	0.157907	0.097419	-0.141753	-0.095115	-0.980494
47998	2.850461	1.624599	9.421349	0.043027	0.064043	0.163299	0.098135	-0.142040	-0.094708	-0.980421
47999	2.858992	1.538554	9.348658	0.004586	0.123673	0.082922	0.098785	-0.142283	-0.094685	-0.980322
48000	2.862232	1.654036	9.356785	0.036919	0.013097	0.110825	0.099382	-0.142674	-0.094705	-0.980203
48001	2.908594	1.618244	9.297615	-0.019916	0.025090	0.062698	0.099885	-0.143144	-0.094596	-0.980094
48002	2.969567	1.523004	9.188947	-0.117122	0.080477	-0.037493	0.100352	-0.143495	-0.094599	-0.979995
48003	2.877149	1.595297	9.175096	-0.011461	0.025263	-0.065658	0.100844	-0.143668	-0.094823	-0.979897
48004	2.915676	1.868568	9.287328	0.047355	-0.220703	0.096713	0.101394	-0.143801	-0.094475	-0.979854
48005	2.877272	1.678509	9.294995	0.051432	-0.048227	0.060912	0.101969	-0.144333	-0.093031	-0.979855
48006	2.912406	1.220798	9.153015	-0.109159	0.326234	-0.136339	0.102380	-0.144847	-0.091658	-0.979866
48007	2.978569	1.151826	9.043725	-0.205626	0.340766	-0.229935	0.102652	-0.145112	-0.091338	-0.979828
48008	2.919886	1.444249	9.082875	-0.069494	0.080816	-0.163913	0.102852	-0.145204	-0.091889	-0.979742
48009	2.860169	1.823679	9.265058	0.126069	-0.227834	0.050368	0.103089	-0.145622	-0.091876	-0.979656
48010	2.997062	1.498177	9.058326	-0.120214	0.007370	-0.155273	0.103304	-0.146181	-0.091020	-0.979630
48011	2.951039	1.265395	8.886358	-0.167155	0.192733	-0.367470	0.103577	-0.146368	-0.090929	-0.979582
48012	2.920250	1.502369	8.960527	-0.064197	-0.010300	-0.269533	0.103726	-0.146156	-0.091387	-0.979555
48013	2.943964	1.703140	9.104367	-0.008266	-0.170550	-0.095283	0.103917	-0.145786	-0.091601	-0.979570
48014	2.896795	1.655894	9.378428	0.091187	-0.057861	0.141038	0.104226	-0.145635	-0.091424	-0.979576
48015	2.987388	1.308383	9.283655	-0.101257	0.234455	0.023845	0.104356	-0.145516	-0.091264	-0.979595
48016	2.865338	1.492942	9.378577	0.078516	0.103682	0.105973	0.104366	-0.145435	-0.091846	-0.979551
48017	2.957771	1.652116	9.355687	0.022166	-0.060424	0.137319	0.104430	-0.145500	-0.092307	-0.979491
48018	2.956036	1.680658	9.364324	0.034882	-0.079472	0.149531	0.104500	-0.145693	-0.092455	-0.979441
48019	2.930342	1.539184	9.336232	0.023107	0.057890	0.092732	0.104674	-0.145959	-0.092621	-0.979367
48020	2.940491	1.606381	9.377605	0.046647	0.003526	0.145436	0.104830	-0.146344	-0.092701	-0.979286
48021	2.973538	1.521429	9.267660	-0.026295	0.058354	0.038307	0.104935	-0.146612	-0.092950	-0.979211
48022	2.979497	1.620453	9.229224	-0.015983	-0.039040	0.019914	0.105120	-0.146637	-0.093437	-0.979141
48023	3.004895	1.757854	9.326596	0.017360	-0.145221	0.141379	0.105454	-0.146580	-0.093882	-0.979071
48024	2.929458	1.745488	9.494419	0.129577	-0.080336	0.274394	0.105869	-0.146676	-0.093729	-0.979026
48025	2.948569	1.552740	9.525347	0.083773	0.097511	0.277938	0.106200	-0.147378	-0.092858	-0.978968
48026	2.968112	1.300101	9.377986	-0.013295	0.288347	0.105135	0.106372	-0.148443	-0.092073	-0.978863
48027	3.132224	1.190150	9.171375	-0.226461	0.311185	-0.055984	0.106288	-0.149379	-0.091904	-0.978745
48028	3.169415	1.300712	9.105280	-0.238800	0.190102	-0.089006	0.106124	-0.149890	-0.092501	-0.978629
48029	3.115703	1.557919	9.060390	-0.135300	-0.041918	-0.106746	0.105870	-0.149958	-0.093294	-0.978571
48030	2.940189	1.846520	9.110430	0.108745	-0.262395	-0.067248	0.106052	-0.149821	-0.093861	-0.978518
48031	2.924477	1.684891	9.168953	0.104034	-0.091056	-0.043246	0.106426	-0.150267	-0.093392	-0.978453
48032	2.981160	1.444011	9.088203	-0.014899	0.101033	-0.140176	0.106740	-0.150985	-0.092745	-0.978370
48033	3.028463	1.353613	8.983881	-0.094179	0.146896	-0.237537	0.106970	-0.151612	-0.092372	-0.978284
48034	3.084773	1.443388	8.974901	-0.115901	0.045129	-0.214116	0.107196	-0.152112	-0.092304	-0.978187
48035	3.207834	1.420680	8.896525	-0.250408	0.025979	-0.252703	0.107387	-0.152268	-0.092253	-0.978147
48036	3.072790	1.486486	8.970888	-0.089167	0.003091	-0.214742	0.107644	-0.152002	-0.092271	-0.978159
48037	3.039180	1.357104	9.035595	-0.075361	0.144210	-0.184923	0.107830	-0.151816	-0.092027	-0.978190
48038	2.988803	1.253456	8.936007	-0.082369	0.228855	-0.310205	0.107995	-0.151736	-0.092165	-0.978171
48039	3.086558	1.427698	8.947599	-0.128387	0.049944	-0.241600	0.108000	-0.151821	-0.092414	-0.978134
48040	3.059605	1.378643	8.848408	-0.140967	0.084627	-0.350704	0.107952	-0.151872	-0.092653	-0.978109
48041	3.124768	1.379004	8.806713	-0.216683	0.069643	-0.369584	0.107902	-0.151494	-0.093156	-0.978125
48042	3.118453	1.419693	8.950645	-0.174827	0.071246	-0.230483	0.107794	-0.150671	-0.093548	-0.978227
48043	2.964309	1.521884	9.073773	0.008452	0.034994	-0.146495	0.107710	-0.149716	-0.093935	-0.978345
48044	2.840118	1.670421	9.222267	0.184858	-0.047305	-0.021346	0.107646	-0.149226	-0.094083	-0.978413
48045	3.034988	1.668495	9.111542	-0.032148	-0.110674	-0.065794	0.107600	-0.149144	-0.093526	-0.978484
48046	2.988506	1.456605	8.967320	-0.080338	0.058440	-0.249434	0.107645	-0.148873	-0.093082	-0.978563
48047	2.975081	1.391553	8.999060	-0.081822	0.123552	-0.234136	0.107777	-0.148373	-0.092937	-0.978638
48048	3.002813	1.462493	9.088212	-0.078632	0.066365	-0.130706	0.107927	-0.147646	-0.092855	-0.978739
48049	3.038870	1.343276	9.066520	-0.162617	0.165093	-0.159337	0.108012	-0.146698	-0.092773	-0.978880
48050	2.853730	1.439055	9.279775	0.070352	0.152120	0.000608	0.108123	-0.145727	-0.092807	-0.979010
48051	2.912503	1.453835	9.313995	0.015380	0.127802	0.052921	0.107972	-0.145397	-0.092226	-0.979130
48052	3.159184	1.384652	9.314135	-0.238454	0.133374	0.115864	0.107680	-0.144990	-0.091312	-0.979308
48053	3.106902	1.255014	9.377145	-0.217854	0.263054	0.139299	0.107265	-0.143945	-0.090454	-0.979588
48054	2.988648	1.293499	9.603688	-0.064661	0.284088	0.323930	0.106851	-0.142522	-0.090161	-0.979868
48055	2.937169	1.333114	9.788778	0.011971	0.290376	0.489730	0.106382	-0.141282	-0.090139	-0.980101
48056	2.796387	1.458531	9.939959	0.188202	0.228341	0.611433	0.105861	-0.140362	-0.090269	-0.980277
48057	2.727327	1.526983	9.907690	0.246313	0.170315	0.572043	0.105440	-0.139956	-0.090376	-0.980371
48058	2.849639	1.539802	9.814840	0.107177	0.117833	0.521583	0.105147	-0.140039	-0.090438	-0.980385
48059	2.897014	1.526787	9.719519	0.040316	0.104039	0.443060	0.104984	-0.140433	-0.090546	-0.980336
48060	3.040027	1.471578	9.478390	-0.158497	0.080155	0.247910	0.104827	-0.140888	-0.090405	-0.980300
48061	3.072970	1.325878	9.307409	-0.259342	0.176474	0.073189	0.104582	-0.141121	-0.090335	-0.980300
48062	2.906916	1.440053	9.325304	-0.070467	0.103725	0.059976	0.104218	-0.141135	-0.090585	-0.980313
48063	2.789244	1.643527	9.380912	0.099390	-0.053649	0.110508	0.103609	-0.141061	-0.090698	-0.980378
48064	2.780071	1.698701	9.311930	0.098522	-0.115705	0.051558	0.102798	-0.140812	-0.090873	-0.980483
48065	2.668105	1.785254	9.087584	0.160469	-0.214314	-0.178458	0.102122	-0.140592	-0.091939	-0.980486
48066	2.683638	2.157901	9.040889	0.210150	-0.556426	-0.156486	0.101622	-0.140254	-0.093786	-0.980411
48067	2.531381	2.318222	8.990911	0.365958	-0.658415	-0.218368	0.101322	-0.139802	-0.095746	-0.980317
48068	2.648885	2.413490	8.969662	0.259288	-0.739063	-0.185497	0.101637	-0.139242	-0.097654	-0.980176
48069	2.581894	2.477326	9.221950	0.392032	-0.700564	0.046478	0.102677	-0.139104	-0.099092	-0.979943
48070	2.710392	2.230934	9.180871	0.210174	-0.479891	0.002464	0.104065	-0.139610	-0.099579	-0.979675
48071	2.839047	1.895057	9.154026	0.020823	-0.186405	-0.044760	0.105776	-0.140415	-0.099451	-0.979390
48072	2.864092	1.578118	9.081310	-0.074986	0.087125	-0.161241	0.107594	-0.141295	-0.099031	-0.979108
48073	2.898620	1.237838	9.058626	-0.173609	0.389005	-0.230859	0.109264	-0.142239	-0.098527	-0.978837
48074	3.098900	1.014157	9.077562	-0.394034	0.559389	-0.191584	0.110722	-0.142808	-0.098289	-0.978614
48075	3.131708	1.048201	9.307683	-0.350188	0.565143	0.041107	0.111699	-0.142939	-0.097911	-0.978522
48076	3.092616	0.885159	9.465090	-0.310677	0.750690	0.151028	0.112077	-0.143036	-0.097056	-0.978550
48077	3.113537	0.749566	9.495869	-0.354939	0.867312	0.164751	0.111971	-0.142904	-0.096353	-0.978651
48078	3.104450	0.946890	9.721268	-0.242103	0.718427	0.408002	0.111287	-0.142791	-0.095548	-0.978824
48079	3.037505	0.880792	9.655168	-0.214057	0.767004	0.316003	0.110211	-0.142644	-0.094880	-0.979032
48080	2.962619	1.084026	9.501409	-0.136203	0.547650	0.182838	0.109079	-0.142442	-0.094790	-0.979197
48081	2.896749	1.400039	9.512507	0.000865	0.262584	0.225743	0.107996	-0.142364	-0.094821	-0.979325
48082	2.819988	1.558242	9.367336	0.071477	0.095536	0.092523	0.106917	-0.142319	-0.094796	-0.979453
48083	2.842593	1.622119	9.297620	0.046456	0.013825	0.044036	0.105883	-0.142387	-0.094471	-0.979587
48084	2.802658	1.592625	9.257752	0.067251	0.036793	-0.010063	0.104998	-0.142496	-0.094158	-0.979696
48085	2.824897	1.588400	9.216397	0.040053	0.020399	-0.043194	0.104125	-0.142996	-0.093428	-0.979786
48086	2.861175	1.352013	8.939799	-0.110998	0.171670	-0.331524	0.103223	-0.143396	-0.093015	-0.979863
48087	2.893801	1.531762	8.866776	-0.116499	-0.022157	-0.361443	0.102165	-0.143380	-0.093144	-0.979964
48088	2.855990	1.817207	8.948249	-0.001633	-0.265206	-0.249230	0.101137	-0.142968	-0.093436	-0.980103
48089	2.783032	1.841871	8.845563	0.034895	-0.293365	-0.363114	0.100335	-0.142437	-0.093602	-0.980247
48090	2.764840	2.002959	8.956622	0.104648	-0.419581	-0.237185	0.099779	-0.141925	-0.093469	-0.980390
48091	2.690445	1.999523	9.042747	0.185967	-0.388401	-0.178248	0.099479	-0.141532	-0.093205	-0.980503
48092	2.714071	1.929813	9.046289	0.143837	-0.337113	-0.179862	0.099313	-0.141354	-0.092177	-0.980642
48093	2.790291	1.659731	8.998912	-0.000757	-0.119325	-0.246779	0.099082	-0.141360	-0.091227	-0.980754
48094	2.934565	1.604482	8.954921	-0.161330	-0.112829	-0.255602	0.098812	-0.141158	-0.090792	-0.980850
48095	2.921533	1.791079	9.119923	-0.075576	-0.261528	-0.073992	0.098562	-0.140404	-0.090536	-0.981007
48096	2.791646	1.720718	9.241657	0.045776	-0.155236	-0.007783	0.098374	-0.139517	-0.089942	-0.981207
48097	2.786559	1.519856	9.261738	-0.004600	0.030256	-0.022197	0.098248	-0.138725	-0.089350	-0.981386
48098	2.864931	1.436086	9.299343	-0.102963	0.098494	0.022333	0.098236	-0.137933	-0.089371	-0.981497
48099	2.822243	1.605941	9.507242	0.010696	-0.013698	0.233777	0.098100	-0.137250	-0.089508	-0.981594
48100	2.834489	1.728836	9.539296	0.023709	-0.131258	0.286994	0.097893	-0.136928	-0.089043	-0.981702
48101	2.684097	1.570896	9.463491	0.111428	0.015654	0.148089	0.097735	-0.137032	-0.088011	-0.981796
48102	2.683623	1.261030	9.172768	-0.021793	0.235259	-0.175475	0.097622	-0.137283	-0.087080	-0.981856
48103	2.765086	1.150046	8.997846	-0.164566	0.281270	-0.335170	0.097396	-0.137065	-0.086798	-0.981933
48104	2.714486	1.491228	9.218725	-0.001157	0.007634	-0.087617	0.097089	-0.136048	-0.087259	-0.982064
48105	2.803138	1.703569	9.527672	0.011581	-0.147139	0.262749	0.096911	-0.134695	-0.087106	-0.982282
48106	2.636874	1.634121	9.763092	0.182010	-0.013934	0.429773	0.096818	-0.133231	-0.086522	-0.982543
48107	2.475059	1.393956	9.845317	0.279322	0.248907	0.427395	0.096706	-0.132321	-0.086080	-0.982715
48108	2.658672	1.496710	9.976687	0.148480	0.140398	0.618095	0.096710	-0.132244	-0.086104	-0.982723
48109	2.625504	1.433741	9.809513	0.132449	0.174897	0.440473	0.096783	-0.132855	-0.086250	-0.982621
48110	2.740972	1.283266	9.464782	-0.075617	0.236919	0.121089	0.096782	-0.133792	-0.086621	-0.982461
48111	2.715672	1.306050	9.144431	-0.107889	0.166930	-0.186592	0.096721	-0.134499	-0.087452	-0.982297
48112	2.711833	1.477186	8.966707	-0.103147	-0.013019	-0.329698	0.096612	-0.134679	-0.088737	-0.982168
48113	2.660916	1.800624	9.067274	0.035027	-0.273680	-0.196970	0.096569	-0.134288	-0.089723	-0.982136
48114	2.659230	1.728924	9.145294	0.031276	-0.180356	-0.134694	0.096644	-0.133871	-0.089619	-0.982195
48115	2.517583	1.709707	9.479522	0.233652	-0.071824	0.140347	0.096898	-0.133514	-0.089422	-0.982237
48116	2.703038	1.344152	9.477966	-0.022843	0.237573	0.131558	0.097077	-0.133608	-0.088556	-0.982284
48117	2.674652	1.329506	9.532448	0.017814	0.254897	0.173484	0.097117	-0.133784	-0.088109	-0.982297
48118	2.812455	1.265747	9.385989	-0.156190	0.255825	0.062482	0.097037	-0.134057	-0.087806	-0.982295
48119	2.911309	1.355497	9.366373	-0.231818	0.142742	0.085187	0.096784	-0.134074	-0.087424	-0.982351
48120	2.728661	1.299101	9.280025	-0.094530	0.206136	-0.055604	0.096492	-0.133768	-0.087370	-0.982426
48121	2.682555	1.390120	9.214414	-0.053296	0.113005	-0.116382	0.096229	-0.133463	-0.087462	-0.982486
48122	2.657030	1.445723	9.247439	-0.017172	0.076428	-0.083407	0.095934	-0.133066	-0.087992	-0.982521
48123	2.591084	1.693100	9.283430	0.099308	-0.133862	-0.028282	0.095724	-0.132825	-0.088479	-0.982530
48124	2.568131	1.718070	9.395354	0.149547	-0.127687	0.075744	0.095517	-0.132805	-0.088299	-0.982569
48125	2.638627	1.613747	9.640384	0.119995	0.002810	0.311003	0.095234	-0.132965	-0.087477	-0.982649
48126	2.598892	1.171481	9.457609	0.022052	0.391417	0.057433	0.094941	-0.132962	-0.087535	-0.982672
48127	2.626408	1.437514	9.386902	0.034911	0.126327	0.039277	0.094634	-0.133013	-0.088487	-0.982610
48128	2.532858	1.733949	9.420298	0.193959	-0.115191	0.092515	0.094572	-0.133136	-0.089725	-0.982487
48129	2.607622	1.892396	9.439821	0.165100	-0.263058	0.156997	0.094583	-0.133502	-0.089746	-0.982434
48130	2.753376	1.326254	9.141439	-0.158351	0.193929	-0.177167	0.094755	-0.133675	-0.089468	-0.982419
48131	2.458494	1.313897	9.194433	0.135787	0.265792	-0.209613	0.094975	-0.133962	-0.089808	-0.982328
48132	2.677862	1.251354	8.827024	-0.167513	0.225395	-0.508156	0.095142	-0.134325	-0.090816	-0.982170
48133	2.785975	1.702247	8.868373	-0.164459	-0.192948	-0.365837	0.095427	-0.134059	-0.092544	-0.982017
48134	2.890342	2.049753	9.067609	-0.151591	-0.474996	-0.090114	0.095996	-0.133377	-0.093842	-0.981931
48135	2.615330	2.191519	9.509117	0.235072	-0.465450	0.276618	0.096687	-0.133037	-0.093251	-0.981966
48136	2.741991	1.523361	9.436684	-0.044623	0.116015	0.130883	0.097410	-0.133258	-0.091567	-0.982023
48137	2.870923	1.147884	9.200969	-0.295981	0.377720	-0.117980	0.097955	-0.133533	-0.090576	-0.982023
48138	2.818828	1.276054	9.128521	-0.230146	0.242819	-0.179823	0.098414	-0.133720	-0.091151	-0.981899
48139	2.895434	1.741096	9.005198	-0.225417	-0.232331	-0.200001	0.098804	-0.133977	-0.091874	-0.981757
48140	2.551463	1.850504	9.123375	0.157302	-0.243207	-0.164558	0.099510	-0.134206	-0.092293	-0.981615
48141	2.771299	1.446515	8.662552	-0.241727	0.007557	-0.606504	0.100046	-0.134684	-0.091955	-0.981527
48142	2.727217	1.398655	8.596549	-0.220366	0.047145	-0.688882	0.100849	-0.134746	-0.092465	-0.981388
48143	2.795336	1.360200	8.512475	-0.318966	0.066623	-0.756195	0.101449	-0.134077	-0.093666	-0.981304
48144	2.718690	1.656444	8.723358	-0.149906	-0.137184	-0.528795	0.101245	-0.132737	-0.095054	-0.981374
48145	2.654435	2.023600	9.122315	0.059810	-0.372990	-0.106254	0.100532	-0.131507	-0.095622	-0.981558
48146	2.557117	1.860192	9.186296	0.104738	-0.182968	-0.099670	0.099760	-0.130362	-0.095374	-0.981813
48147	2.645224	1.791481	9.143769	-0.025633	-0.147330	-0.128023	0.099094	-0.129389	-0.095103	-0.982036
48148	2.854405	1.930568	9.133231	-0.221952	-0.317422	-0.058688	0.098634	-0.127815	-0.095682	-0.982232
48149	2.610522	2.262391	9.450782	0.118075	-0.519299	0.235535	0.098532	-0.125905	-0.095890	-0.982468
48150	2.397531	1.991297	9.381299	0.210280	-0.240592	0.067596	0.098780	-0.124260	-0.095833	-0.982659
48151	2.122841	2.094577	9.734749	0.546555	-0.213515	0.351696	0.099462	-0.123363	-0.096292	-0.982658
48152	2.269521	2.115037	9.851599	0.434021	-0.233387	0.504059	0.099992	-0.123833	-0.095878	-0.982586
48153	2.544053	1.575810	9.557687	0.002659	0.164756	0.201183	0.100360	-0.124494	-0.095642	-0.982487
48154	2.780185	1.556245	9.456964	-0.239632	0.124170	0.162915	0.100646	-0.124642	-0.096300	-0.982375
48155	2.789502	1.814132	9.578982	-0.169635	-0.080498	0.326050	0.101027	-0.124050	-0.097494	-0.982293
48156	2.687410	1.926752	9.733570	-0.029884	-0.120147	0.466494	0.101606	-0.123123	-0.098131	-0.982287
48157	2.336165	1.729152	9.894238	0.281943	0.170663	0.494347	0.102556	-0.122804	-0.098084	-0.982233
48158	2.133743	1.410014	9.746021	0.376869	0.478639	0.244886	0.103602	-0.123658	-0.098218	-0.982002
48159	2.359946	1.410899	9.614480	0.160106	0.412884	0.177408	0.104696	-0.125296	-0.098572	-0.981643
48160	2.438675	1.527785	9.459455	0.114010	0.259198	0.070746	0.105387	-0.127099	-0.098793	-0.981315
48161	2.791365	1.458165	9.098049	-0.286604	0.182102	-0.190987	0.105729	-0.128212	-0.098739	-0.981139
48162	2.909156	1.480199	8.905984	-0.422200	0.094640	-0.337271	0.106077	-0.128414	-0.098665	-0.981082
48163	2.715275	1.536924	8.740851	-0.263002	0.034004	-0.535458	0.106446	-0.128012	-0.098414	-0.981120
48164	2.466637	1.643009	8.696395	-0.018000	-0.040248	-0.625245	0.106935	-0.127659	-0.097916	-0.981163
48165	2.225379	1.496011	8.505769	0.134629	0.086978	-0.895695	0.107623	-0.127910	-0.096913	-0.981155
48166	2.064483	1.056394	7.927587	0.065896	0.391222	-1.562398	0.108216	-0.128807	-0.096135	-0.981049
48167	2.129209	0.861169	7.235159	-0.183273	0.409488	-2.234998	0.108547	-0.129537	-0.096870	-0.980843
48168	2.144064	1.123729	6.696608	-0.248589	0.053848	-2.696539	0.108770	-0.129918	-0.098901	-0.980566
48169	2.054016	1.227799	6.028722	-0.291950	-0.150728	-3.334733	0.109033	-0.129405	-0.101768	-0.980311
48170	1.859801	1.519294	5.770499	-0.109998	-0.417106	-3.577341	0.109287	-0.128064	-0.104928	-0.980126
48171	1.772238	1.639541	5.457441	-0.089928	-0.557079	-3.871811	0.109527	-0.125964	-0.107869	-0.980052
48172	1.209012	1.537902	5.117744	0.315452	-0.408010	-4.358147	0.109928	-0.123180	-0.110894	-0.980023
48173	0.864878	1.859364	5.027321	0.664952	-0.640554	-4.462313	0.110312	-0.119505	-0.114151	-0.980061
48174	1.387393	2.010080	4.970410	0.144128	-0.869443	-4.345222	0.110537	-0.113942	-0.117172	-0.980342
48175	1.492980	2.189926	5.497137	0.105732	-0.897234	-3.777279	0.111088	-0.105366	-0.120095	-0.980885
48176	0.887906	2.353648	6.274163	0.737132	-0.706301	-3.130673	0.112068	-0.094912	-0.122568	-0.981534
48177	0.190984	2.186538	6.623994	1.274989	-0.296544	-2.958543	0.113253	-0.084123	-0.125033	-0.982071
48178	-0.544871	2.138333	6.650647	1.831672	-0.063713	-3.049589	0.113943	-0.074060	-0.128735	-0.982323
48179	-0.414550	2.808957	6.912453	1.763660	-0.599260	-2.575789	0.114505	-0.065161	-0.133144	-0.982301
48180	-0.302244	3.032348	6.951901	1.581988	-0.767405	-2.428783	0.115123	-0.056254	-0.137314	-0.982205
48181	-0.058455	3.407731	7.321259	1.316261	-1.025825	-1.911439	0.115627	-0.045768	-0.139571	-0.982372
48182	0.445694	3.192477	7.401176	0.598952	-0.903307	-1.813320	0.116413	-0.032791	-0.140635	-0.982647
48183	-0.468288	3.366352	8.228475	1.320273	-0.627939	-1.031088	0.117752	-0.017748	-0.141449	-0.982757
48184	-1.328862	2.866741	8.371539	1.776854	0.066515	-1.043487	0.119343	-0.002123	-0.142144	-0.982623
48185	-2.044998	2.716417	8.523918	2.161560	0.427207	-0.904453	0.120902	0.013203	-0.144354	-0.982023
48186	-1.630917	3.433901	8.645444	1.644732	-0.273366	-0.517058	0.122600	0.028283	-0.147264	-0.981062
48187	-2.733031	4.144503	8.902501	2.575474	-0.556042	0.033730	0.124434	0.042778	-0.148359	-0.980141
48188	-3.032375	4.106617	9.058900	2.577943	-0.417853	0.251980	0.126660	0.055760	-0.146222	-0.979524
48189	-3.006786	2.368243	8.530934	1.999435	0.985201	-0.732325	0.129149	0.068739	-0.144233	-0.978669
48190	-3.903667	1.389200	7.908521	2.508169	1.955573	-1.470459	0.130581	0.082457	-0.146141	-0.977135
48191	-3.409674	2.612926	7.730396	2.096049	0.695809	-1.249553	0.130909	0.097975	-0.152216	-0.974728
48192	-3.750158	3.822900	7.918670	2.342695	-0.189220	-0.547158	0.131104	0.114914	-0.156926	-0.972101
48193	-4.237193	5.560343	9.158818	2.488361	-1.244356	1.367759	0.132787	0.132491	-0.158239	-0.969420
48194	-4.397653	4.417901	9.558376	1.923864	-0.097875	1.434482	0.137139	0.148469	-0.152443	-0.967425
48195	-5.321538	2.128770	8.907372	2.175685	1.991722	0.359874	0.141758	0.164203	-0.146019	-0.965205
48196	-5.845075	0.779644	7.933953	2.402034	3.082550	-0.733009	0.144008	0.179240	-0.143894	-0.962512
48197	-6.202800	1.899049	7.355985	2.913737	2.038009	-0.672593	0.143407	0.193438	-0.146901	-0.959394
48198	-4.321141	3.417514	7.796686	1.106380	0.153703	-0.331942	0.143094	0.208751	-0.149794	-0.955777
48199	-4.457825	4.123148	8.602889	0.664052	-0.269657	0.692347	0.144387	0.227598	-0.148647	-0.951449
48200	-5.995720	3.488562	9.068702	1.198819	0.836102	1.510038	0.147602	0.248478	-0.141995	-0.946736
48201	-7.675924	1.933532	9.144330	1.763283	2.685326	1.846316	0.150734	0.269159	-0.133349	-0.941834
48202	-9.220771	0.561276	8.629481	2.542882	4.219973	1.828195	0.151041	0.287273	-0.126543	-0.937362
48203	-9.105111	0.650907	8.206445	2.317725	3.887923	1.596612	0.146978	0.302665	-0.124684	-0.933405
48204	-6.877098	1.931704	8.333870	0.408335	1.847590	0.998737	0.141454	0.319263	-0.124747	-0.928709
48205	-7.124985	3.106037	8.628172	0.200762	0.779571	1.771402	0.135868	0.338280	-0.122382	-0.923108
48206	-7.775854	3.305593	8.780540	0.129131	0.647774	2.353956	0.131920	0.358536	-0.115637	-0.916884
48207	-8.127169	2.332327	8.351556	0.035854	1.365971	1.991803	0.129072	0.378766	-0.105983	-0.910299
48208	-8.546755	1.186725	7.755086	0.097851	2.243980	1.568248	0.125821	0.399309	-0.096355	-0.903016
48209	-9.764334	-0.021772	7.022631	0.782285	3.441744	1.684167	0.119377	0.419131	-0.089109	-0.895622
48210	-10.665425	-0.396947	6.044635	1.595650	3.763342	1.750917	0.107524	0.438208	-0.087441	-0.888125
48211	-10.753834	0.962526	5.604996	1.693999	2.253882	2.020141	0.090452	0.457394	-0.091045	-0.879955
48212	-9.678947	3.894420	6.615885	-0.098841	-0.907646	2.505980	0.072278	0.478060	-0.095642	-0.870107
48213	-9.412836	5.178181	7.462441	-1.619207	-2.268001	2.965691	0.057855	0.501574	-0.095292	-0.857902
48214	-10.100536	5.465991	7.817777	-2.372671	-2.583621	3.627891	0.047798	0.526720	-0.089746	-0.843935
48215	-11.224352	4.943803	7.399775	-2.282311	-2.199028	4.154384	0.040889	0.550694	-0.081352	-0.829727
48216	-11.885219	5.028161	7.603837	-2.947470	-2.453345	4.665015	0.036993	0.571277	-0.072534	-0.816709
48217	-11.517152	5.403531	7.868816	-3.934087	-3.121185	4.276724	0.036333	0.587950	-0.064128	-0.805532
48218	-11.103851	4.418493	7.571808	-4.202855	-2.451849	3.471014	0.038823	0.601608	-0.055535	-0.795912
48219	-10.906602	2.539516	6.812835	-3.852955	-0.829435	2.688241	0.041243	0.612727	-0.049347	-0.787674
48220	-10.860498	1.736614	5.998955	-3.368710	-0.158383	2.252696	0.039932	0.621722	-0.048342	-0.780724
48221	-10.545443	3.046323	5.992343	-3.698285	-1.515926	2.036953	0.035969	0.629110	-0.050177	-0.774861
48222	-13.286406	4.608231	9.079855	-6.388865	-2.563763	5.445602	0.031659	0.631368	-0.054305	-0.772931
48223	-12.271980	7.180789	11.386676	-8.844288	-5.067169	5.284153	0.032449	0.623956	-0.053912	-0.778922
48224	-7.276779	1.816020	12.111511	-10.159483	-0.426183	0.163160	0.034804	0.611449	-0.044626	-0.789257
48225	-7.860410	-0.743175	6.383058	-4.149769	1.877030	-0.738979	0.025131	0.602568	-0.050462	-0.796074
48226	-6.572327	4.295793	6.696023	-4.806015	-3.175678	-1.250987	0.018384	0.597525	-0.053963	-0.799821
48227	-7.807987	2.192991	3.290877	-1.049396	-1.212281	-1.208467	0.018123	0.595286	-0.052163	-0.801614
48228	-8.351498	2.048281	2.204036	0.170019	-1.116707	-1.007871	0.018791	0.596230	-0.050899	-0.800978
48229	-9.073504	2.757691	2.306692	0.208381	-1.760691	-0.215273	0.020065	0.599249	-0.048897	-0.798816
48230	-9.508036	2.853826	2.690381	-0.106679	-1.809907	0.311426	0.023298	0.602750	-0.045159	-0.796311
48231	-10.193767	2.545962	2.553735	0.162319	-1.455656	0.900432	0.028649	0.605371	-0.041308	-0.794354
48232	-10.541102	2.096118	2.275096	0.507268	-0.957916	1.119351	0.035808	0.606069	-0.038320	-0.793681
48233	-10.305982	1.570832	1.999088	0.738527	-0.401471	0.768890	0.043852	0.604629	-0.036331	-0.794469
48234	-9.733706	1.543480	1.810567	0.836608	-0.356384	0.166160	0.052228	0.601693	-0.034773	-0.796259
48235	-9.098844	1.392227	1.650399	0.899131	-0.196556	-0.506624	0.061119	0.598417	-0.032949	-0.798171
48236	-8.230881	0.988299	1.625014	0.732028	0.168436	-1.398419	0.070144	0.596179	-0.030955	-0.799182
48237	-8.040316	0.440019	1.757813	0.533366	0.750090	-1.622283	0.077866	0.596158	-0.029523	-0.798536
48238	-8.948079	0.169743	2.199431	0.304592	1.204930	-0.680911	0.083352	0.597672	-0.029075	-0.796866
48239	-9.651288	0.251608	2.658983	0.009044	1.270885	0.120352	0.086830	0.599223	-0.029331	-0.795319
48240	-9.857420	0.916848	2.981887	-0.220138	0.676432	0.502099	0.089209	0.599825	-0.029830	-0.794583
48241	-9.718595	1.266813	2.985277	-0.229068	0.339360	0.424503	0.091934	0.599170	-0.029442	-0.794781
48242	-9.360915	1.320090	2.871919	-0.185017	0.253016	0.062480	0.095432	0.597840	-0.028157	-0.795416
48243	-9.177758	0.937319	2.613373	-0.000685	0.627180	-0.244714	0.099174	0.596839	-0.026025	-0.795783
48244	-9.193467	0.534449	2.461586	0.110207	1.043491	-0.338309	0.101655	0.596765	-0.024412	-0.795577
48245	-9.237423	0.773486	2.708911	-0.099091	0.801527	-0.189063	0.102668	0.597682	-0.023706	-0.794779
48246	-9.387653	1.104179	2.897249	-0.226598	0.491657	0.058894	0.102956	0.598925	-0.023612	-0.793808
48247	-9.468056	1.412154	3.085228	-0.375888	0.191720	0.236133	0.103237	0.599920	-0.023607	-0.793020
48248	-9.374673	1.623428	3.239267	-0.538133	-0.042960	0.223319	0.104173	0.600303	-0.023158	-0.792621
48249	-9.523868	1.644202	3.239812	-0.499944	-0.031322	0.368320	0.106031	0.600070	-0.022111	-0.792581
48250	-9.494526	1.326420	3.141873	-0.440940	0.288152	0.261998	0.108653	0.599137	-0.020706	-0.792969
48251	-9.372077	1.005136	2.885643	-0.246208	0.610042	0.022974	0.111160	0.597913	-0.019418	-0.793578
48252	-9.120289	0.696360	2.651525	-0.107122	0.892779	-0.331832	0.112940	0.596912	-0.018576	-0.794100
48253	-8.955741	0.648041	2.612895	-0.107090	0.918288	-0.506897	0.113481	0.596653	-0.018575	-0.794218
48254	-9.005452	0.946413	2.780695	-0.213402	0.624180	-0.363297	0.112954	0.597124	-0.018981	-0.793930
48255	-9.103570	1.356833	3.018468	-0.368247	0.216490	-0.135672	0.112322	0.597803	-0.018964	-0.793509
48256	-9.217295	1.536115	3.135138	-0.435350	0.041998	0.033934	0.112235	0.598122	-0.018193	-0.793298
48257	-9.309920	1.534092	3.157591	-0.431231	0.045428	0.127654	0.112630	0.597793	-0.016923	-0.793518
48258	-9.307088	1.447895	3.060828	-0.334403	0.123560	0.084776	0.113279	0.596872	-0.015463	-0.794149
48259	-9.328495	1.282820	2.945131	-0.215221	0.286549	0.046913	0.113821	0.595670	-0.014060	-0.794999
48260	-9.359072	1.126405	2.771266	-0.036013	0.449283	0.002490	0.113872	0.594611	-0.012977	-0.795803
48261	-9.283535	1.135273	2.650964	0.082291	0.424212	-0.101162	0.112985	0.594044	-0.012633	-0.796358
48262	-9.316467	1.465305	2.745848	0.061781	0.084153	0.009352	0.111491	0.593965	-0.012815	-0.796625
48263	-9.373725	1.744377	2.849629	0.021938	-0.201230	0.136633	0.110040	0.594037	-0.013156	-0.796767
48264	-9.405791	1.877623	2.893026	0.011487	-0.338821	0.199757	0.109262	0.593802	-0.013309	-0.797047
48265	-9.392622	1.853403	2.882135	0.024832	-0.320993	0.180285	0.109249	0.593257	-0.013096	-0.797458
48266	-9.421322	1.593941	2.794291	0.094352	-0.053853	0.142120	0.109755	0.592472	-0.012703	-0.797979
48267	-9.259886	1.387456	2.661862	0.164685	0.132989	-0.080719	0.110363	0.591736	-0.012363	-0.798446
48268	-9.174478	1.158923	2.569170	0.208119	0.352532	-0.223778	0.110575	0.591365	-0.012348	-0.798692
48269	-9.224177	1.117002	2.607893	0.182866	0.401599	-0.172173	0.110181	0.591338	-0.012799	-0.798759
48270	-9.162957	1.307643	2.658689	0.145843	0.199691	-0.185788	0.109478	0.591447	-0.013339	-0.798766
48271	-9.222084	1.401638	2.751000	0.085758	0.108538	-0.088477	0.108963	0.591544	-0.013571	-0.798761
48272	-9.282987	1.450506	2.840272	0.025180	0.058337	0.002653	0.108839	0.591452	-0.013153	-0.798852
48273	-9.203116	1.321431	2.762235	0.063702	0.166396	-0.115178	0.108933	0.591246	-0.012178	-0.799008
48274	-9.140099	1.220515	2.687844	0.108036	0.246361	-0.211480	0.108730	0.591130	-0.011333	-0.799134
48275	-9.117258	1.379225	2.711629	0.105845	0.069314	-0.202091	0.108071	0.591189	-0.010818	-0.799186
48276	-9.223186	1.492948	2.721652	0.141195	-0.038196	-0.082218	0.107145	0.591365	-0.010623	-0.799184
48277	-9.281310	1.644318	2.770118	0.130328	-0.192532	0.009023	0.106230	0.591545	-0.010706	-0.799172
48278	-9.297085	1.704164	2.893117	0.023316	-0.269105	0.068463	0.105538	0.591672	-0.010770	-0.799169
48279	-9.318102	1.685349	2.913842	0.005552	-0.255741	0.091477	0.105206	0.591674	-0.010623	-0.799213
48280	-9.331393	1.487278	2.870418	0.022024	-0.061186	0.062634	0.105048	0.591695	-0.010381	-0.799221
48281	-9.375233	1.382822	2.760217	0.122970	0.054146	0.056858	0.104733	0.591779	-0.010272	-0.799202
48282	-9.337821	1.462277	2.742443	0.138337	-0.034197	0.027731	0.104182	0.591984	-0.010356	-0.799121
48283	-9.202291	1.697479	2.786792	0.086426	-0.298953	-0.053951	0.103825	0.592392	-0.010267	-0.798866
48284	-9.091493	1.814506	2.862483	-0.009829	-0.446751	-0.120331	0.104060	0.592977	-0.009778	-0.798407
48285	-9.087776	1.838145	2.962081	-0.116577	-0.486152	-0.092070	0.104933	0.593720	-0.008881	-0.797751
48286	-9.282144	1.581991	3.099501	-0.250971	-0.219215	0.094720	0.106330	0.594569	-0.007804	-0.796945
48287	-9.312992	1.461439	3.139793	-0.318402	-0.101760	0.117779	0.107786	0.595336	-0.006862	-0.796185
48288	-9.160237	1.367432	3.115376	-0.367845	-0.033438	-0.048010	0.109128	0.596062	-0.006190	-0.795464
48289	-8.841457	1.468257	3.030621	-0.373747	-0.175173	-0.360630	0.110289	0.596940	-0.005961	-0.794647
48290	-8.609969	1.567087	3.005736	-0.418549	-0.302463	-0.573909	0.111546	0.598114	-0.005911	-0.793588
48291	-8.654628	1.500152	3.057151	-0.497932	-0.223653	-0.528231	0.113076	0.599513	-0.005887	-0.792315
48292	-8.819734	1.533237	3.181712	-0.603771	-0.227628	-0.334009	0.115051	0.600856	-0.005536	-0.791015
48293	-9.033080	1.584620	3.325025	-0.710756	-0.244577	-0.086523	0.117740	0.602025	-0.004481	-0.789736
48294	-9.130916	1.714414	3.444070	-0.801172	-0.360808	0.056577	0.121552	0.602742	-0.002408	-0.788620
48295	-9.165525	1.744628	3.477823	-0.830732	-0.386093	0.102283	0.126645	0.603106	0.000821	-0.787543
48296	-9.318263	1.531918	3.469424	-0.830706	-0.149887	0.212339	0.132698	0.603132	0.004822	-0.786511
48297	-9.287960	1.302219	3.328695	-0.747321	0.087121	0.110825	0.139247	0.602635	0.009183	-0.785721
48298	-9.036755	1.076112	3.127891	-0.657448	0.290341	-0.216432	0.145603	0.602027	0.013153	-0.784978
48299	-9.211576	0.889182	3.003184	-0.543763	0.537605	-0.113296	0.151230	0.601747	0.016391	-0.784067
48300	-9.325942	0.975162	2.995238	-0.497069	0.493062	0.005936	0.156061	0.601682	0.018909	-0.783113
48301	-9.217034	1.164863	3.029377	-0.514622	0.294293	-0.058905	0.160558	0.601740	0.021112	-0.782102
48302	-9.074958	1.304312	2.958310	-0.453810	0.159858	-0.191037	0.165052	0.601949	0.023176	-0.780947
48303	-8.968864	1.489720	2.976325	-0.453580	-0.028324	-0.256971	0.169924	0.602015	0.025484	-0.779778
48304	-8.891993	1.411863	2.865971	-0.397391	0.070113	-0.372782	0.175164	0.601946	0.027992	-0.778586
48305	-8.897049	1.202564	2.754957	-0.363161	0.312656	-0.433788	0.180440	0.601770	0.030612	-0.777417
48306	-8.865310	0.970210	2.556021	-0.268127	0.588501	-0.557959	0.184997	0.601825	0.032975	-0.776206
48307	-9.018300	0.868593	2.409134	-0.152821	0.770652	-0.470804	0.188261	0.602342	0.034666	-0.774945
48308	-9.364242	0.955681	2.305185	0.013229	0.809677	-0.155545	0.189832	0.603322	0.035394	-0.773766
48309	-9.573510	1.128784	2.140863	0.232271	0.746365	0.031013	0.189944	0.604535	0.035361	-0.772793
48310	-9.792188	1.105592	1.993399	0.370917	0.857019	0.197844	0.188495	0.606069	0.034306	-0.771993
48311	-10.124451	1.222322	1.966616	0.460256	0.824175	0.530180	0.185551	0.607949	0.032510	-0.771305
48312	-10.665039	1.424321	2.005050	0.551068	0.731742	1.093853	0.181508	0.609882	0.030554	-0.770821
48313	-11.037817	1.831983	2.001512	0.715425	0.400382	1.524121	0.177011	0.611429	0.029025	-0.770701
48314	-11.064667	2.357880	1.996972	0.861275	-0.135176	1.642183	0.173263	0.612261	0.028431	-0.770914
48315	-10.860125	2.852716	2.004043	0.959291	-0.695217	1.531597	0.171397	0.612258	0.029135	-0.771307
48316	-10.465911	3.069151	1.964645	1.004813	-1.009666	1.177564	0.172283	0.611500	0.031531	-0.771617
48317	-9.924756	2.798930	1.912130	0.903870	-0.878040	0.598990	0.175524	0.610608	0.035217	-0.771433
48318	-9.442502	2.481676	1.927581	0.728443	-0.695483	0.087857	0.180265	0.610017	0.039564	-0.770596
48319	-9.125079	2.367339	2.109093	0.479187	-0.709581	-0.190499	0.185853	0.609827	0.044458	-0.769151
48320	-8.948811	2.290134	2.394577	0.166822	-0.762490	-0.302130	0.192348	0.609630	0.050050	-0.767364
48321	-8.817037	2.029917	2.462137	0.000578	-0.578305	-0.453821	0.199570	0.609257	0.056174	-0.765390
48322	-8.833754	1.787016	2.564824	-0.169332	-0.392112	-0.451891	0.207038	0.608630	0.062536	-0.763410
48323	-8.853425	1.483360	2.660612	-0.357952	-0.155024	-0.458001	0.214225	0.607674	0.068846	-0.761643
48324	-8.952572	1.239571	2.666061	-0.428237	0.072542	-0.399703	0.220702	0.606276	0.074803	-0.760345
48325	-9.133661	0.960344	2.610687	-0.441394	0.372674	-0.282319	0.225910	0.604402	0.079956	-0.759783
48326	-9.289375	0.703882	2.426542	-0.328186	0.698383	-0.216831	0.229465	0.602153	0.083889	-0.760079
48327	-9.268113	0.725853	2.327874	-0.188689	0.704924	-0.257007	0.231023	0.599788	0.086344	-0.761201
48328	-9.086489	0.902569	2.135524	0.082511	0.574921	-0.453105	0.230903	0.597537	0.087594	-0.762863
48329	-9.182192	0.998532	1.882931	0.417175	0.606638	-0.415194	0.229278	0.595767	0.087728	-0.764720
48330	-9.287103	1.466301	1.979950	0.607677	0.166651	-0.225023	0.226748	0.594388	0.087283	-0.766596
48331	-9.506132	1.935191	2.159165	0.741770	-0.286340	0.093932	0.224584	0.593107	0.087487	-0.768200
48332	-9.651858	2.167459	2.178578	0.898472	-0.488799	0.264815	0.223685	0.591627	0.088921	-0.769439
48333	-9.670412	2.078491	2.101294	0.976122	-0.396406	0.244265	0.224250	0.590037	0.091357	-0.770210
48334	-9.617479	1.906726	2.052306	0.970557	-0.252861	0.154130	0.225783	0.588811	0.094106	-0.770368
48335	-9.706324	1.751432	2.226867	0.788292	-0.176048	0.266338	0.227813	0.588244	0.096684	-0.769885
48336	-9.741260	1.903805	2.598365	0.546090	-0.460222	0.422453	0.230446	0.588260	0.098980	-0.768796
48337	-9.778482	1.697825	2.887516	0.196897	-0.389077	0.514408	0.233899	0.588581	0.101049	-0.767237
48338	-9.618251	1.381055	2.936872	-0.047821	-0.157606	0.336995	0.237768	0.589014	0.102314	-0.765546
48339	-9.634264	0.787485	2.815124	-0.253504	0.442992	0.242331	0.241321	0.589468	0.102339	-0.764080
48340	-9.739610	0.219955	2.738092	-0.473093	1.036599	0.242505	0.243791	0.589801	0.100734	-0.763252
48341	-9.539652	-0.116051	2.582576	-0.562598	1.400654	-0.044913	0.244776	0.590067	0.097322	-0.763174
48342	-9.354566	-0.153837	2.632186	-0.671949	1.424722	-0.222154	0.243837	0.590585	0.092852	-0.763630
48343	-9.109346	0.313999	2.694490	-0.557414	0.974222	-0.374513	0.241299	0.591292	0.088775	-0.764374
48344	-8.811278	0.927335	2.780704	-0.409211	0.343916	-0.542027	0.238237	0.592209	0.086230	-0.764915
48345	-8.913340	1.167990	2.819803	-0.323427	0.136354	-0.397811	0.235450	0.593003	0.085204	-0.765278
48346	-8.829987	1.213205	2.559475	-0.092523	0.160401	-0.541381	0.233042	0.593379	0.084834	-0.765765
48347	-8.674514	1.375238	2.490661	0.016542	-0.016311	-0.683543	0.230661	0.593591	0.084574	-0.766350
48348	-8.659153	1.548259	2.677519	-0.068523	-0.270419	-0.621971	0.228499	0.593875	0.084624	-0.766772
48349	-8.938046	1.532735	2.914476	-0.228919	-0.307994	-0.295083	0.226620	0.594198	0.085157	-0.767021
48350	-9.237807	1.387423	3.028756	-0.331934	-0.181794	0.000164	0.224906	0.594303	0.086028	-0.767347
48351	-9.453096	1.211843	2.908444	-0.248345	0.040682	0.148496	0.223042	0.593976	0.086902	-0.768045
48352	-9.460564	1.379549	2.720651	0.018454	-0.062968	0.127278	0.220831	0.593116	0.087350	-0.769296
48353	-9.045109	1.745871	2.572826	0.262207	-0.452532	-0.262409	0.218772	0.591955	0.087555	-0.770754
48354	-8.816945	1.803675	2.678758	0.180373	-0.617435	-0.444995	0.217128	0.591116	0.087964	-0.771816
48355	-9.048363	1.541589	2.800565	0.029296	-0.398486	-0.224527	0.215461	0.590731	0.088465	-0.772520
48356	-9.451264	1.274325	2.962255	-0.125676	-0.153347	0.171594	0.213309	0.590269	0.088565	-0.773458
48357	-10.047949	0.977790	2.823366	0.024946	0.279192	0.666341	0.210286	0.589278	0.087712	-0.775137
48358	-10.218659	1.133667	2.491792	0.472975	0.288865	0.751767	0.206224	0.587357	0.085700	-0.777907
48359	-9.834906	1.464539	2.153783	0.894417	0.022040	0.321814	0.201705	0.584991	0.083182	-0.781141
48360	-9.341361	1.893436	2.032060	1.128852	-0.441616	-0.142850	0.197268	0.582849	0.080876	-0.784112
48361	-8.965701	2.208787	2.048558	1.197643	-0.834764	-0.467754	0.193537	0.581510	0.079729	-0.786151
48362	-8.898848	2.460493	2.337470	1.049663	-1.207874	-0.424055	0.190876	0.581005	0.080003	-0.787146
48363	-9.184882	2.324502	2.465539	0.971418	-1.103000	-0.133645	0.189408	0.580668	0.081372	-0.787609
48364	-9.274968	2.254207	2.546029	0.916342	-1.078914	-0.035934	0.188765	0.579902	0.082890	-0.788169
48365	-9.012759	2.268077	2.509393	0.917683	-1.149707	-0.299171	0.188731	0.578661	0.084004	-0.788971
48366	-8.542350	2.377289	2.497914	0.882796	-1.342173	-0.741746	0.189318	0.577293	0.084615	-0.789767
48367	-8.567002	2.178306	2.554605	0.790051	-1.162358	-0.719327	0.190437	0.576024	0.084582	-0.790428
48368	-8.954413	1.664818	2.623340	0.654166	-0.610748	-0.376907	0.191618	0.574655	0.083599	-0.791243
48369	-9.478567	1.183539	2.565757	0.683050	-0.001123	0.054443	0.192102	0.572876	0.081320	-0.792652
48370	-9.596036	1.033470	2.402855	0.839443	0.269384	0.094280	0.191514	0.570736	0.077700	-0.794698
48371	-9.347900	1.191265	2.219949	1.038528	0.188596	-0.188966	0.190051	0.568725	0.073217	-0.796914
48372	-8.990242	1.574619	2.158192	1.172000	-0.171155	-0.509002	0.188272	0.567391	0.068597	-0.798696
48373	-9.022744	1.649817	2.268386	1.124762	-0.223611	-0.433875	0.186811	0.566899	0.064386	-0.799739
48374	-9.407969	1.504049	2.604920	0.881092	-0.065076	0.024841	0.185835	0.566836	0.060951	-0.800280
48375	-9.895825	1.447661	3.020034	0.624924	0.008214	0.615783	0.185465	0.566797	0.058727	-0.800560
48376	-10.778643	1.339105	3.375825	0.521477	0.229258	1.547067	0.185994	0.566347	0.058305	-0.800786
48377	-11.018521	1.013503	3.513481	0.368398	0.554224	1.777680	0.187587	0.565269	0.059757	-0.801069
48378	-10.616923	0.672939	3.385597	0.270519	0.808552	1.318672	0.189473	0.564152	0.062203	-0.801226
48379	-9.944743	0.758358	3.463497	0.059906	0.528531	0.731781	0.191332	0.563530	0.065442	-0.800964
48380	-9.496802	0.744769	3.559788	-0.150815	0.373211	0.348703	0.193396	0.563478	0.069152	-0.800193
48381	-9.228863	0.638286	3.831086	-0.510307	0.289592	0.182921	0.196243	0.563643	0.072448	-0.799091
48382	-9.074582	0.439242	4.072488	-0.855883	0.333944	0.101042	0.199602	0.564006	0.075307	-0.797738
48383	-8.931050	0.145751	4.218259	-1.155503	0.499677	-0.015051	0.203138	0.564152	0.078260	-0.796456
48384	-9.236524	-0.255063	4.366362	-1.376252	0.863916	0.277064	0.206483	0.564101	0.080987	-0.795359
48385	-9.747694	-0.568531	4.571765	-1.551754	1.178312	0.791341	0.209194	0.563586	0.083160	-0.794791
48386	-10.225619	-0.924424	4.645412	-1.625875	1.576979	1.226666	0.210979	0.562448	0.084554	-0.794979
48387	-10.611720	-0.848487	4.822468	-1.607164	1.537164	1.660702	0.211338	0.560538	0.085019	-0.796182
48388	-10.372979	-0.666309	4.678913	-1.407328	1.378134	1.414714	0.210459	0.557814	0.084795	-0.798348
48389	-9.605985	-0.621011	4.519574	-1.385022	1.234005	0.658482	0.208861	0.554647	0.083315	-0.801126
48390	-9.070815	-0.555721	4.332832	-1.265775	1.153826	0.108382	0.206332	0.551414	0.080302	-0.804314
48391	-8.313953	-0.293139	4.185694	-1.174948	0.838170	-0.612473	0.202997	0.548194	0.076165	-0.807759
48392	-8.113168	-0.163608	4.076058	-1.013661	0.767812	-0.821207	0.199320	0.545204	0.071402	-0.811126
48393	-8.416447	0.047082	4.177437	-0.848632	0.674930	-0.479232	0.195715	0.542341	0.066857	-0.814305
48394	-8.832804	0.367002	4.468225	-0.767325	0.441292	0.053114	0.192727	0.539407	0.063639	-0.817219
48395	-9.212916	0.362127	4.614934	-0.690500	0.524193	0.461283	0.190871	0.536361	0.062436	-0.819748
48396	-9.218760	0.175713	4.481259	-0.561341	0.746979	0.396350	0.189982	0.533128	0.062805	-0.822032
48397	-8.600398	0.101208	4.234650	-0.513847	0.732333	-0.267613	0.189183	0.529768	0.064084	-0.824287
48398	-7.604677	0.221845	3.925695	-0.491713	0.456153	-1.277983	0.188057	0.526869	0.065532	-0.826286
48399	-7.012558	0.459479	3.831663	-0.487125	0.102268	-1.823896	0.186330	0.524930	0.066746	-0.827813
48400	-6.923502	0.837703	4.029665	-0.513216	-0.353184	-1.782334	0.184245	0.523904	0.068006	-0.828826
48401	-7.551781	1.115745	4.299090	-0.374337	-0.581322	-1.078950	0.182469	0.523003	0.070192	-0.829606
48402	-8.234507	1.060522	4.468461	-0.241850	-0.477977	-0.399317	0.181290	0.521632	0.073701	-0.830423
48403	-8.505628	0.948208	4.411067	-0.078702	-0.360532	-0.191592	0.180582	0.519615	0.077999	-0.831449
48404	-8.494596	0.584347	4.122865	0.084823	-0.004702	-0.352786	0.179661	0.517435	0.082342	-0.832588
48405	-8.504806	0.637209	3.997539	0.273643	-0.081494	-0.398025	0.177590	0.515532	0.086126	-0.833829
48406	-8.438878	0.940560	3.902358	0.492456	-0.416026	-0.490051	0.174455	0.514232	0.089020	-0.834989
48407	-8.503059	1.508054	3.932242	0.744085	-1.006625	-0.406765	0.170945	0.513419	0.091127	-0.835987
48408	-8.521150	1.946251	3.877869	0.988007	-1.453602	-0.413415	0.168080	0.512683	0.093010	-0.836812
48409	-8.711947	1.991328	3.764923	1.203418	-1.475371	-0.304118	0.166282	0.511913	0.094918	-0.837428
48410	-8.879663	1.938734	3.890773	1.171979	-1.478404	-0.107748	0.165449	0.511387	0.096903	-0.837687
48411	-8.841503	1.618856	3.899715	1.042653	-1.225155	-0.147677	0.165307	0.511537	0.098819	-0.837400
48412	-8.800410	1.240286	3.880483	0.893976	-0.900569	-0.198459	0.165300	0.512526	0.099907	-0.836667
48413	-8.793848	1.135748	3.964909	0.755859	-0.846232	-0.166203	0.164947	0.514079	0.099659	-0.835813
48414	-8.762463	1.386817	4.088576	0.696620	-1.125605	-0.134461	0.164632	0.515651	0.098598	-0.835032
48415	-8.637470	1.697286	4.224813	0.609865	-1.469220	-0.179150	0.165104	0.517007	0.097563	-0.834222
48416	-8.528358	1.712069	4.202504	0.558549	-1.475121	-0.281841	0.167034	0.518079	0.097053	-0.833231
48417	-8.499074	1.258126	4.123394	0.418771	-1.005578	-0.345226	0.170114	0.518874	0.096852	-0.832136
48418	-8.276385	0.746162	3.963475	0.244705	-0.484583	-0.621956	0.173450	0.519760	0.096277	-0.830961
48419	-8.198281	0.478405	4.108307	-0.046095	-0.261729	-0.634020	0.176413	0.521250	0.095106	-0.829537
48420	-8.156736	0.391867	4.228223	-0.244227	-0.190619	-0.622072	0.179008	0.523115	0.093518	-0.827986
48421	-8.215109	0.412158	4.320923	-0.346151	-0.189497	-0.529793	0.181303	0.525152	0.091762	-0.826392
48422	-8.180240	0.313607	4.301374	-0.437078	-0.062050	-0.575738	0.183515	0.527196	0.090161	-0.824777
48423	-8.349445	0.332965	4.399964	-0.504663	-0.045292	-0.382591	0.185619	0.529143	0.088888	-0.823196
48424	-8.468105	0.371559	4.450631	-0.541070	-0.048044	-0.254462	0.187751	0.530967	0.088325	-0.821598
48425	-8.663893	0.437627	4.501488	-0.536012	-0.070712	-0.054335	0.190037	0.532653	0.088634	-0.819946
48426	-8.771117	0.560285	4.584361	-0.563996	-0.187252	0.082234	0.192589	0.534224	0.089880	-0.818190
48427	-8.766184	0.662550	4.558388	-0.542766	-0.282831	0.071093	0.195593	0.535627	0.091949	-0.816328
48428	-8.614992	0.568780	4.447452	-0.576945	-0.207228	-0.120140	0.198900	0.536998	0.094329	-0.814355
48429	-8.650701	0.392344	4.303817	-0.555931	-0.003103	-0.158560	0.202071	0.538411	0.096443	-0.812391
48430	-8.748856	0.200088	4.251539	-0.601853	0.202981	-0.104211	0.204777	0.539825	0.097655	-0.810629
48431	-8.882230	0.157310	4.253996	-0.621590	0.272370	0.013528	0.206829	0.541299	0.097866	-0.809098
48432	-8.659243	0.295965	4.278769	-0.698238	0.096146	-0.175208	0.208442	0.542858	0.097657	-0.807664
48433	-8.406427	0.543703	4.207220	-0.653128	-0.148837	-0.420380	0.210023	0.544405	0.097553	-0.806224
48434	-8.274964	0.626881	4.064682	-0.577360	-0.193775	-0.592133	0.211848	0.545841	0.097778	-0.804747
48435	-8.446745	0.532467	3.868127	-0.437987	0.008624	-0.517453	0.213773	0.547257	0.098294	-0.803212
48436	-8.649922	0.443085	3.812332	-0.406034	0.158358	-0.359577	0.215726	0.548547	0.098959	-0.801727
48437	-8.935441	0.258726	3.681234	-0.329549	0.440746	-0.160872	0.217452	0.549874	0.099528	-0.800280
48438	-9.038991	0.403815	3.613042	-0.213895	0.360977	-0.079018	0.218886	0.551197	0.100161	-0.798898
48439	-8.725115	0.538220	3.373538	-0.080953	0.256802	-0.446502	0.220163	0.552777	0.100804	-0.797374
48440	-8.546252	0.639112	3.230228	-0.010060	0.174848	-0.655703	0.221237	0.554856	0.101276	-0.795571
48441	-8.365484	0.832428	3.300178	-0.085886	-0.075877	-0.782074	0.222225	0.557452	0.101632	-0.793432
48442	-8.592193	1.027060	3.519651	-0.184796	-0.294553	-0.477419	0.223420	0.560468	0.102234	-0.790890
48443	-9.098905	0.885591	3.676130	-0.318211	-0.127066	0.034668	0.225043	0.563301	0.103028	-0.788310
48444	-9.294093	0.900599	3.863601	-0.485860	-0.178007	0.279419	0.227138	0.565442	0.103557	-0.786104
48445	-9.388853	0.650631	3.536916	-0.355140	0.205349	0.232966	0.229453	0.566880	0.103615	-0.784387
48446	-9.668283	0.601629	3.533615	-0.353393	0.337372	0.487076	0.231422	0.568170	0.102719	-0.782992
48447	-10.105677	0.413808	3.450837	-0.309342	0.674674	0.848132	0.232974	0.569198	0.101206	-0.781981
48448	-10.415709	0.361346	3.523295	-0.361709	0.802686	1.153433	0.233939	0.570239	0.099448	-0.781160
48449	-10.457572	0.705278	3.612928	-0.306889	0.505157	1.258080	0.234704	0.571465	0.098065	-0.780208
48450	-10.268962	0.964563	3.481249	-0.161662	0.301910	1.067734	0.235738	0.573011	0.097701	-0.778807
48451	-10.050305	1.048493	3.482644	-0.221565	0.177298	0.871696	0.237165	0.574610	0.097950	-0.777163
48452	-10.737322	0.048938	4.631751	-1.557385	0.761506	1.751919	0.238124	0.575016	0.096590	-0.776740
48453	-10.968085	-0.048383	4.981484	-1.841513	0.832993	2.062926	0.236619	0.573392	0.091112	-0.779058
48454	-10.549645	0.836475	4.616643	-1.140981	0.224510	1.674407	0.234271	0.569333	0.083999	-0.783531
48455	-9.312259	0.469448	2.798726	0.065914	1.049940	-0.134733	0.231622	0.564791	0.076921	-0.788318
48456	-8.517656	0.972589	2.429168	0.496543	0.615273	-0.937369	0.228160	0.561686	0.069751	-0.792204
48457	-8.081272	1.186418	2.032366	0.863439	0.504298	-1.455354	0.224633	0.560618	0.063700	-0.794475
48458	-8.274202	1.446205	2.182180	0.896688	0.304015	-1.186025	0.221447	0.561523	0.059381	-0.795064
48459	-8.501571	1.507719	2.476026	0.693561	0.222263	-0.860035	0.219269	0.563849	0.056886	-0.794204
48460	-8.751060	1.424153	2.995063	0.213667	0.187614	-0.458628	0.218481	0.566864	0.056489	-0.792301
48461	-9.070181	1.261011	3.409495	-0.196876	0.260708	-0.046632	0.218710	0.569564	0.058074	-0.790183
48462	-9.293698	1.162931	3.688649	-0.473417	0.275967	0.238720	0.219574	0.571212	0.060966	-0.788535
48463	-9.204110	1.166519	3.715648	-0.535467	0.190252	0.165255	0.220675	0.571514	0.064569	-0.787722
48464	-9.030113	1.190205	3.520678	-0.387835	0.139468	-0.056428	0.221604	0.571047	0.068442	-0.787472
48465	-9.000451	1.146442	3.288466	-0.189801	0.200695	-0.165933	0.222182	0.570525	0.072501	-0.787325
48466	-9.011058	1.268522	3.097606	0.047101	0.106287	-0.200733	0.222192	0.570590	0.076376	-0.786908
48467	-9.337708	1.456055	3.338926	0.002834	-0.127246	0.209526	0.221655	0.571183	0.079944	-0.786275
48468	-9.245265	1.738316	3.676333	-0.195011	-0.594332	0.268009	0.221038	0.572170	0.083278	-0.785385
48469	-9.114393	2.086289	4.395075	-0.717527	-1.275400	0.414702	0.220945	0.573962	0.086623	-0.783739
48470	-9.054956	1.893070	4.804929	-1.205438	-1.343236	0.454024	0.222157	0.576197	0.090411	-0.781325
48471	-9.582777	1.288216	5.093148	-1.643528	-0.848884	0.957972	0.224370	0.578115	0.093258	-0.778938
48472	-9.932676	0.813046	5.697264	-2.338752	-0.598328	1.410059	0.226931	0.578789	0.093202	-0.777701
48473	-10.235513	0.789399	6.310643	-2.822549	-0.696352	1.881788	0.229470	0.577540	0.090537	-0.778199
48474	-9.881654	1.329738	6.969182	-3.186771	-1.422850	1.840778	0.231640	0.574218	0.087227	-0.780390
48475	-9.472790	1.346513	7.114487	-3.307080	-1.501089	1.543848	0.234003	0.569362	0.085685	-0.783407
48476	-9.447600	1.185726	7.221838	-3.351199	-1.339765	1.579878	0.236171	0.563918	0.085764	-0.786679
48477	-9.946482	0.848952	7.519074	-3.493010	-0.965615	2.147825	0.238293	0.558314	0.085358	-0.790073
48478	-10.700841	0.599756	8.221144	-3.849605	-0.704618	3.115358	0.241638	0.551545	0.082555	-0.794100
48479	-10.699401	0.347343	8.712736	-4.188591	-0.492080	3.329420	0.244870	0.543128	0.077734	-0.799380
48480	-10.400751	0.482568	8.852350	-4.083030	-0.537780	3.218101	0.246647	0.532863	0.073165	-0.806144
48481	-10.190084	0.704862	9.169814	-4.005297	-0.713053	3.296710	0.247099	0.521164	0.069617	-0.813931
48482	-10.048068	1.437802	9.983337	-4.028464	-1.514653	3.757878	0.247251	0.508574	0.067421	-0.821994
48483	-10.493650	1.511318	10.524429	-3.863029	-1.478685	4.541249	0.248673	0.494549	0.068017	-0.830034
48484	-10.948898	0.949318	10.709989	-3.609957	-0.775043	5.081093	0.251002	0.478431	0.069300	-0.838629
48485	-11.198496	0.090196	10.538473	-3.225469	0.280547	5.219227	0.253489	0.460152	0.069008	-0.848081
48486	-11.284533	-0.426394	10.667264	-2.921968	0.955045	5.413007	0.254431	0.440243	0.065748	-0.858562
48487	-10.956576	-0.167742	11.028868	-2.562618	0.797927	5.499389	0.253243	0.419256	0.060443	-0.869735
48488	-10.766064	0.165289	11.047236	-1.822741	0.760249	5.485213	0.250786	0.397067	0.055035	-0.881144
48489	-10.975267	-0.060198	10.638695	-0.807064	1.479632	5.377654	0.247222	0.373638	0.049446	-0.892654
48490	-11.432577	-0.117804	10.089957	0.574022	2.175518	5.267099	0.242050	0.348495	0.042885	-0.904502
48491	-11.185427	0.125255	9.492705	1.718590	2.318122	4.569462	0.235227	0.321230	0.034640	-0.916668
48492	-10.270945	0.779678	9.393499	2.264624	1.697923	3.835128	0.228015	0.292715	0.025280	-0.928272
48493	-9.932274	1.115305	8.886167	3.215850	1.646782	3.061580	0.221029	0.263931	0.015528	-0.938747
48494	-9.656639	1.371382	8.385351	4.082111	1.633369	2.273024	0.214149	0.235658	0.006280	-0.947927
48495	-9.107108	1.837295	8.518218	4.442513	1.191195	1.920859	0.207725	0.207690	-0.001679	-0.955883
48496	-8.525456	2.002546	8.541810	4.653976	0.980332	1.456547	0.202090	0.179820	-0.007177	-0.962690
48497	-7.967942	1.717404	8.341016	4.754755	1.163544	0.770828	0.196703	0.151324	-0.011060	-0.968652
48498	-7.540212	1.776679	8.084877	5.071402	1.052088	0.112770	0.191166	0.122162	-0.014500	-0.973818
48499	-6.611157	2.344343	8.024677	5.026766	0.249250	-0.419311	0.185938	0.092372	-0.015934	-0.978080
48500	-5.466195	1.915989	7.751378	4.406908	0.265188	-1.203572	0.181495	0.063307	-0.015005	-0.981237
48501	-4.731973	1.202509	7.685968	3.962412	0.681680	-1.644153	0.177543	0.035711	-0.012819	-0.983381
48502	-4.548493	0.620643	7.576135	4.036371	1.172625	-2.016164	0.173441	0.009181	-0.011831	-0.984730
48503	-4.830603	1.965712	8.282056	5.169462	0.048734	-1.503483	0.169577	-0.017813	-0.011512	-0.985289
48504	-3.702813	3.185589	8.594202	4.990146	-1.470867	-1.408735	0.166101	-0.047371	-0.006322	-0.984950
48505	-2.259635	2.029312	7.525940	3.640680	-0.969964	-2.626278	0.162795	-0.078251	0.005811	-0.983535
48506	-1.484465	0.074014	6.437169	2.543792	0.495261	-3.736844	0.159378	-0.106921	0.017856	-0.981248
48507	-1.010100	0.089642	6.871686	2.568311	0.226018	-3.363875	0.155014	-0.133502	0.029513	-0.978405
48508	-0.140186	-1.079833	6.350939	1.636888	0.967603	-3.656895	0.149301	-0.158216	0.040520	-0.975210
48509	-0.892331	-0.917139	6.134467	2.612964	0.961943	-4.199548	0.142593	-0.181772	0.048656	-0.971730
48510	0.680055	-1.107472	5.465817	1.203211	0.643488	-4.363362	0.134806	-0.205476	0.056307	-0.967696
48511	2.179992	-1.983997	3.824648	-0.750916	1.117587	-5.175875	0.127173	-0.225246	0.059402	-0.964138
48512	1.694093	-0.811553	3.411468	-0.088654	0.173956	-5.923304	0.120242	-0.239697	0.057168	-0.961675
48513	1.555176	0.111404	2.933140	0.091343	-0.616191	-6.549910	0.113830	-0.251002	0.052874	-0.959815
48514	2.184719	1.005270	2.868932	-0.245077	-1.591151	-6.433015	0.107958	-0.259206	0.049224	-0.958506
48515	2.199865	0.936537	2.860716	-0.241080	-1.492731	-6.404800	0.103381	-0.264531	0.046954	-0.957670
48516	2.495590	1.027617	3.345447	-0.201522	-1.639696	-5.844476	0.100542	-0.268514	0.046563	-0.956882
48517	2.881853	0.123393	3.623168	-0.512276	-0.842145	-5.287651	0.099212	-0.271545	0.047355	-0.956126
48518	3.529359	-0.567042	3.936252	-0.990249	-0.311559	-4.597870	0.099201	-0.272269	0.046430	-0.955967
48519	3.368979	-0.755369	4.890370	-0.395998	-0.102784	-3.840346	0.099909	-0.270886	0.044156	-0.956394
48520	2.868795	-0.465805	6.344210	0.811389	-0.280794	-2.887470	0.100702	-0.270176	0.041321	-0.956638
48521	3.419529	-0.969531	6.765862	0.486428	0.118657	-2.186467	0.101715	-0.272076	0.039326	-0.956076
48522	4.480907	-1.852241	6.523325	-0.658306	0.795649	-1.750654	0.103312	-0.274231	0.035348	-0.955445
48523	4.699324	-2.444087	6.590906	-0.910368	1.409436	-1.525298	0.105182	-0.274689	0.027253	-0.955374
48524	5.191270	-3.230471	5.894745	-1.890784	2.210986	-1.833616	0.107312	-0.272037	0.012671	-0.956201
48525	5.614670	-4.503590	4.962418	-3.140820	3.555134	-2.470064	0.109671	-0.264204	-0.012255	-0.958133
48526	4.859719	-3.922308	5.174935	-2.553371	3.515978	-2.966953	0.110833	-0.249496	-0.051609	-0.960627
48527	3.266962	-1.117730	6.619674	-0.200649	1.874844	-2.592031	0.109564	-0.231909	-0.100442	-0.961314
48528	3.440615	0.450645	6.623629	-0.306927	1.049322	-2.419498	0.104949	-0.213813	-0.154073	-0.958922
48529	2.728315	2.712205	6.367685	0.488216	-0.249546	-2.397973	0.098429	-0.194824	-0.211655	-0.952658
48530	2.744306	5.651038	6.377812	0.928869	-1.949124	-1.130253	0.091327	-0.176639	-0.267773	-0.942738
48531	2.863644	5.459463	5.139004	0.088441	-1.575195	-1.947620	0.084041	-0.158165	-0.319959	-0.930348
48532	2.523579	4.653962	3.641748	-0.444143	-1.114321	-3.503666	0.077704	-0.137381	-0.375028	-0.913478
48533	1.428608	6.793750	2.970932	0.730494	-2.239989	-2.644202	0.072716	-0.115166	-0.434671	-0.890230
48534	0.883205	9.456111	3.012374	1.570413	-2.725196	-0.366526	0.068408	-0.093759	-0.492652	-0.862452
48535	0.264110	9.307481	2.136668	1.732315	-2.214595	-0.689363	0.062385	-0.074040	-0.545368	-0.832586
48536	0.375135	10.328786	1.467298	1.425677	-2.064123	0.313662	0.054652	-0.054964	-0.594799	-0.800129
48537	-0.241237	10.875655	0.870337	1.715203	-1.583046	0.841669	0.045190	-0.037694	-0.638220	-0.767601
48538	-0.043402	10.711501	-0.506831	1.109312	-1.806857	0.693994	0.034566	-0.021670	-0.676374	-0.735428
48539	-0.325012	10.432094	-1.490931	0.999749	-1.749832	0.531479	0.023720	-0.006005	-0.710360	-0.703413
48540	0.064006	11.822439	-1.974268	0.278259	-1.189388	2.106429	0.013913	0.009539	-0.741862	-0.670341
48541	-0.752300	11.867491	-1.985633	0.680698	-0.149181	2.219467	0.005104	0.023651	-0.767476	-0.640621
48542	-1.003479	9.172099	-3.678285	0.740328	-1.482009	-0.021371	-0.003416	0.036785	-0.789638	-0.612460
48543	-0.852953	7.435351	-5.355078	0.497331	-2.846605	-1.078571	-0.011762	0.051493	-0.813492	-0.579172
48544	-1.329999	8.694806	-5.952402	0.573024	-2.089649	0.579899	-0.019540	0.068868	-0.839601	-0.538465
48545	-1.964173	11.160990	-5.679130	0.446794	0.364076	2.844622	-0.026819	0.086322	-0.863014	-0.497027
48546	-2.308703	11.198228	-5.539013	0.335953	1.628879	2.779091	-0.033295	0.101146	-0.880073	-0.462744
48547	-1.896951	9.514995	-6.821969	-0.024270	0.444170	2.037091	-0.038451	0.113269	-0.893577	-0.432680
48548	-2.233600	6.516309	-8.053104	0.785892	-1.555531	0.638346	-0.042881	0.123935	-0.905669	-0.403193
48549	-1.942831	3.786230	-10.026046	1.045942	-4.092903	0.222960	-0.047267	0.136263	-0.919878	-0.364722
48550	-1.815887	4.225539	-10.997937	0.566045	-3.422769	1.585475	-0.050340	0.152887	-0.936394	-0.311862
48551	-2.886436	7.934038	-10.288321	0.052080	1.552410	3.396565	-0.051336	0.169221	-0.951281	-0.252573
48552	-3.283784	9.247451	-8.748818	-0.395649	4.920401	2.365822	-0.052351	0.180192	-0.961162	-0.202383
48553	-2.438309	6.706219	-9.375562	-0.549437	3.290569	1.483677	-0.053493	0.186078	-0.967750	-0.161160
48554	-1.925240	4.809821	-9.425030	-0.512396	2.283696	0.681899	-0.054650	0.189046	-0.972718	-0.122863
48555	-1.075897	4.492934	-9.201637	-1.325644	2.503582	0.083854	-0.055669	0.190600	-0.976265	-0.086479
48556	-1.069869	5.251384	-7.899231	-1.633220	4.010846	-1.307221	-0.055725	0.190387	-0.978317	-0.059521
48557	-1.314688	3.141528	-8.581897	-0.728458	2.448799	-0.940779	-0.056504	0.188529	-0.979533	-0.042189
48558	-1.659132	0.660011	-9.702127	0.340943	0.455377	0.035638	-0.058601	0.186029	-0.980399	-0.027877
48559	-0.942313	1.487492	-9.365535	-0.681182	1.250880	-0.390456	-0.061292	0.184354	-0.980858	-0.013223
48560	-1.040404	1.519486	-9.307247	-0.675743	1.531113	-0.473924	-0.063933	0.181282	-0.981343	-0.003936
48561	-1.146699	1.278844	-9.192079	-0.531317	1.453468	-0.590462	-0.066173	0.177726	-0.981853	-0.000647
48562	-1.294071	-0.478313	-9.942876	0.081299	-0.143904	0.224076	-0.068401	0.174272	-0.982317	-0.001866
48563	-1.146080	-1.000882	-10.313305	0.038511	-0.710615	0.587938	-0.069715	0.172883	-0.982471	-0.001606
48564	-1.534942	-0.176387	-9.948223	0.144626	0.194575	0.251877	-0.070946	0.171473	-0.982629	-0.001992
48565	-1.314427	0.632325	-9.790765	-0.330398	0.854985	0.043595	-0.072345	0.169286	-0.982900	-0.003941
48566	-1.378124	1.559314	-9.518425	-0.545224	1.658305	-0.227181	-0.073829	0.165713	-0.983338	-0.011608
48567	-1.523070	2.435020	-9.374623	-0.642967	2.293468	-0.302229	-0.074689	0.161094	-0.983667	-0.029470
48568	-1.890908	-0.530932	-11.086517	0.477306	-0.998604	1.390494	-0.076353	0.155571	-0.983246	-0.056526
48569	-1.404434	-1.690343	-12.158151	0.301540	-2.940634	2.182646	-0.077330	0.154061	-0.981922	-0.078197
48570	-1.757387	0.395720	-11.680625	0.103910	-1.253955	1.938261	-0.077139	0.154984	-0.980246	-0.095640
48571	-1.811880	1.344114	-11.291285	-0.029687	-0.624487	1.684437	-0.076059	0.155946	-0.978773	-0.109084
48572	-2.325552	4.556220	-10.052031	-0.364485	2.467279	1.186370	-0.074540	0.156051	-0.976937	-0.125240
48573	-1.952561	7.176254	-9.697432	-1.416914	4.384516	1.504579	-0.072506	0.153807	-0.973495	-0.152951
48574	-1.854372	8.825162	-9.579489	-1.821252	5.049626	2.193619	-0.067951	0.148870	-0.966464	-0.197908
48575	-2.006434	7.284975	-10.840632	-0.938417	1.958234	3.214107	-0.061324	0.141157	-0.954615	-0.255000
48576	-2.668042	4.873371	-11.006438	0.814908	-1.484635	2.391124	-0.054450	0.132218	-0.937922	-0.316001
48577	-1.794089	4.301477	-10.527365	0.504196	-3.186978	1.232565	-0.047940	0.125899	-0.919921	-0.368234
48578	-1.910665	8.513443	-8.040993	-0.205614	0.325035	2.041398	-0.040452	0.120260	-0.901258	-0.414289
48579	-2.952962	11.683224	-6.371928	0.339194	2.450640	3.584480	-0.033653	0.109558	-0.877058	-0.466513
48580	-3.245416	12.325103	-6.838067	0.995521	0.722358	4.586559	-0.027039	0.093530	-0.844359	-0.526857
48581	-2.976702	11.406488	-7.136183	1.465963	-2.019816	3.724769	-0.020704	0.073188	-0.802675	-0.591547
48582	-1.932231	10.289756	-6.797631	1.068573	-4.109889	1.911161	-0.013394	0.051624	-0.755145	-0.653385
48583	-1.333403	7.314040	-6.176293	1.083931	-5.488049	-1.941932	-0.005383	0.030804	-0.706182	-0.707340
48584	-1.532265	8.250875	-2.213045	1.345261	-2.572685	-1.639730	0.002782	0.012440	-0.663655	-0.747930
48585	-2.569693	12.781368	1.441437	2.643612	-0.637674	3.010548	0.009429	-0.010151	-0.620437	-0.784134
48586	-1.912812	13.378099	1.565458	2.582680	-2.375204	3.317713	0.014128	-0.039008	-0.562547	-0.825724
48587	-0.097255	9.830139	-0.193350	0.943107	-4.374506	-1.069260	0.019999	-0.070619	-0.497437	-0.864390
48588	1.664397	7.307927	-0.209951	-0.755845	-4.190909	-3.649007	0.029924	-0.099822	-0.432782	-0.895455
48589	1.691881	6.116119	1.314126	-0.467385	-3.060050	-4.125018	0.042215	-0.123874	-0.371020	-0.919357
48590	2.614542	4.123736	2.675698	-1.212841	-1.368014	-4.557346	0.053371	-0.141665	-0.311533	-0.938099
48591	2.815246	2.230291	4.514522	-1.163566	0.620021	-4.199585	0.062369	-0.153833	-0.257167	-0.952004
48592	2.533302	-0.339250	6.068522	-0.859475	3.064640	-4.050962	0.069181	-0.162048	-0.212519	-0.961140
48593	1.918747	1.008193	8.326637	0.778420	2.361149	-1.577326	0.073799	-0.170351	-0.179917	-0.966004
48594	1.715430	3.636902	9.659823	2.153561	-0.131382	0.423654	0.076387	-0.183680	-0.147971	-0.968778
48595	3.136103	2.014582	8.348942	0.408258	0.210170	-0.683156	0.076989	-0.200261	-0.113658	-0.970077
48596	4.633965	-0.610156	7.116355	-1.605743	1.730508	-1.634075	0.077561	-0.214881	-0.083184	-0.969995
48597	4.634735	-0.231041	7.300367	-1.208556	1.010318	-1.307695	0.079748	-0.225085	-0.062135	-0.969080
48598	3.678609	1.965708	8.256954	0.659271	-1.216772	-0.667079	0.081134	-0.234975	-0.040159	-0.967776
48599	4.731712	0.863197	7.726175	-0.503768	-0.739443	-0.756693	0.081402	-0.243753	-0.016189	-0.966279
48600	4.961714	-0.429838	7.781295	-0.729059	0.104527	-0.604306	0.081283	-0.249856	0.007271	-0.964838
48601	4.167912	-1.030009	7.914552	0.066762	0.444782	-0.820607	0.080865	-0.254788	0.029006	-0.963173
48602	4.337493	-1.917582	7.726093	-0.169507	0.945516	-0.798782	0.080094	-0.259683	0.048264	-0.961156
48603	4.498870	-2.557955	7.614497	-0.330595	1.270231	-0.700332	0.079669	-0.263437	0.062335	-0.959358
48604	3.949163	-2.391225	7.818370	0.363588	0.987455	-0.794367	0.080089	-0.267558	0.072530	-0.957464
48605	4.560202	-2.815891	7.331120	-0.363244	1.189826	-0.817085	0.081317	-0.271904	0.078234	-0.955686
48606	5.029996	-2.163249	7.346257	-0.598329	0.388652	-0.678219	0.082727	-0.275058	0.080230	-0.954496
48607	5.500876	-1.756185	7.587622	-0.772594	-0.159028	-0.310396	0.084050	-0.276344	0.081156	-0.953930
48608	5.460234	-2.053490	7.661433	-0.729025	0.106812	-0.211355	0.085286	-0.275631	0.082027	-0.953953
48609	5.101685	-2.826975	7.520015	-0.630281	0.934508	-0.362881	0.086255	-0.273359	0.081660	-0.954550
48610	4.841443	-2.816159	7.892581	-0.271122	0.966122	-0.186908	0.087283	-0.270504	0.078296	-0.955552
48611	4.775629	-2.167688	8.199784	-0.037877	0.388021	-0.087000	0.088621	-0.267873	0.073224	-0.956571
48612	4.761508	-1.760232	8.431028	0.082909	0.061056	0.028093	0.090064	-0.265257	0.067948	-0.957554
48613	4.855870	-1.488810	8.483618	0.003977	-0.143513	0.073987	0.091315	-0.262674	0.063286	-0.958467
48614	5.039813	-1.916444	8.142945	-0.458686	0.330233	-0.062831	0.092343	-0.259326	0.059096	-0.959547
48615	4.762269	-2.502889	7.839811	-0.555335	1.057389	-0.379865	0.093441	-0.254759	0.053209	-0.961007
48616	4.314997	-1.882142	7.913981	-0.152101	0.652623	-0.628955	0.095082	-0.249447	0.044723	-0.962671
48617	4.007546	-0.765394	8.298416	0.368263	-0.251233	-0.576423	0.097194	-0.244640	0.036021	-0.964058
48618	4.100285	-0.197872	8.538883	0.407836	-0.713900	-0.374106	0.098612	-0.240986	0.030531	-0.965023
48619	4.293612	-1.008504	8.000970	-0.229010	0.109288	-0.680177	0.099006	-0.237668	0.027451	-0.965897
48620	4.182170	-1.873500	7.464375	-0.610607	1.031140	-1.136257	0.099099	-0.233592	0.023338	-0.966990
48621	4.202561	-1.938657	7.084379	-0.905815	1.175090	-1.481730	0.100061	-0.228453	0.015182	-0.968280
48622	3.851681	-0.592752	7.205751	-0.399954	0.064449	-1.630854	0.102284	-0.222475	0.004193	-0.969549
48623	3.265282	0.865868	7.468586	0.411566	-1.081151	-1.697860	0.105428	-0.216567	-0.006503	-0.970537
48624	2.975952	1.384536	7.487484	0.693280	-1.402961	-1.788644	0.108557	-0.211428	-0.013700	-0.971250
48625	3.093402	0.879900	6.978282	0.193774	-0.903667	-2.184784	0.111002	-0.206347	-0.017865	-0.971998
48626	3.215032	-0.273311	6.327026	-0.520046	0.177214	-2.731758	0.113172	-0.199719	-0.021952	-0.973048
48627	3.039177	-1.060130	5.966530	-0.804283	1.000992	-3.156205	0.115509	-0.190264	-0.029916	-0.974455
48628	1.947693	0.390797	6.835830	0.680214	0.032322	-2.727009	0.118121	-0.179315	-0.041557	-0.975790
48629	1.026937	1.762142	7.505747	1.924007	-0.861235	-2.326123	0.120255	-0.170421	-0.052124	-0.976616
48630	0.692038	2.222423	7.532786	2.245900	-1.097548	-2.335351	0.122180	-0.165360	-0.059709	-0.976813
48631	1.518173	1.703244	6.771053	1.062230	-0.818426	-2.794542	0.124040	-0.162329	-0.064609	-0.976775
48632	2.381768	0.729434	5.839825	-0.313724	-0.186783	-3.474335	0.125889	-0.158001	-0.068972	-0.976950
48633	2.294187	-0.275362	5.379293	-0.720263	0.759651	-4.052591	0.127430	-0.149396	-0.075857	-0.977593
48634	1.551039	0.201442	5.740311	0.048496	0.628209	-3.896879	0.128260	-0.135965	-0.087337	-0.978486
48635	0.362229	3.006394	7.250346	2.090978	-1.324437	-2.355809	0.128471	-0.121956	-0.096888	-0.979405
48636	-0.391607	2.705231	7.235189	2.518044	-0.788831	-2.542619	0.128466	-0.110498	-0.100818	-0.980369
48637	-0.251402	1.670417	6.506474	1.814447	0.016550	-3.340168	0.128617	-0.100233	-0.103609	-0.981161
48638	0.183114	0.928376	5.932771	0.967415	0.507017	-3.905199	0.128489	-0.088793	-0.107873	-0.981820
48639	0.654890	0.895887	6.068885	0.358191	0.507418	-3.674814	0.128347	-0.073481	-0.114835	-0.982314
48640	0.372305	1.848046	6.734772	0.717796	-0.082248	-2.856972	0.128826	-0.054001	-0.122664	-0.982569
48641	-1.974233	3.025136	7.570312	3.039220	-0.328133	-2.002221	0.129540	-0.032997	-0.127858	-0.982743
48642	-3.665132	2.645722	8.017799	4.268094	0.596842	-1.680281	0.129597	-0.014931	-0.129470	-0.982964
48643	-2.802994	2.069272	8.147987	3.012594	0.940024	-1.532406	0.129383	0.000141	-0.129156	-0.983147
48644	-1.436800	2.020585	7.752417	1.452741	0.494555	-1.819757	0.129795	0.015474	-0.127729	-0.983158
48645	-2.437161	2.080012	7.119769	2.235179	0.485809	-2.348149	0.129312	0.032524	-0.125462	-0.983097
48646	-2.367574	2.394456	7.270682	1.954757	0.146618	-2.044120	0.128778	0.052422	-0.122847	-0.982638
48647	-3.203202	2.348135	8.360666	2.237085	0.591280	-0.851353	0.131182	0.075784	-0.119191	-0.981245
48648	-4.721586	1.243748	8.733990	2.930700	2.038210	-0.465975	0.135624	0.098857	-0.114282	-0.979170
48649	-5.944105	-0.337315	7.838781	3.493147	3.627329	-1.355910	0.138432	0.120754	-0.112551	-0.976518
48650	-6.606514	0.760258	7.422259	4.095536	2.704952	-1.140396	0.135984	0.142417	-0.115672	-0.973574
48651	-4.031643	3.811645	8.364168	1.686926	-0.737588	0.053006	0.131924	0.166301	-0.118768	-0.969966
48652	-4.452444	5.737553	9.801141	1.399597	-2.223898	2.098071	0.133439	0.194756	-0.113696	-0.965058
48653	-7.014666	4.166032	9.556768	2.825273	-0.249815	2.426979	0.140674	0.222345	-0.099639	-0.959607
48654	-9.284476	0.170056	7.790238	4.105110	3.729371	0.963072	0.149260	0.247746	-0.085074	-0.953470
48655	-9.751332	-0.504201	7.789535	3.741387	4.362186	1.276022	0.153044	0.271365	-0.079497	-0.946899
48656	-7.142219	2.976139	9.195106	1.115625	0.201353	2.149703	0.155314	0.297515	-0.075261	-0.938988
48657	-7.171622	4.239134	10.456560	0.015497	-1.135037	3.506472	0.160684	0.327042	-0.065039	-0.928975
48658	-9.789717	2.128193	9.585982	1.168775	1.370251	3.932993	0.168411	0.357070	-0.049971	-0.917410
48659	-9.867143	-1.003850	8.561856	0.247405	3.999076	2.659335	0.173955	0.386749	-0.038005	-0.904832
48660	-11.544979	-1.932869	7.779497	0.800445	5.234100	3.204577	0.172590	0.414710	-0.035365	-0.892736
48661	-11.864899	0.499726	7.902015	0.798454	2.903323	4.128513	0.164809	0.438890	-0.039465	-0.882415
48662	-12.569847	3.043433	7.795889	1.226286	0.624544	5.224254	0.154809	0.458216	-0.043694	-0.874165
48663	-11.358861	5.409267	8.036202	0.332754	-2.160569	4.954182	0.147265	0.473721	-0.043378	-0.867190
48664	-7.758687	6.047723	8.741220	-2.378585	-4.082423	2.469006	0.146991	0.489351	-0.035655	-0.858870
48665	-8.731793	2.543094	7.686655	-2.145542	-0.657757	1.880689	0.152803	0.508026	-0.022045	-0.847393
48666	-10.089572	-0.649293	6.680825	-1.884900	2.597052	1.871910	0.156050	0.526404	-0.012834	-0.835693
48667	-11.137958	-1.384957	5.890415	-1.434152	3.497572	2.285261	0.151437	0.543328	-0.011391	-0.825671
48668	-12.546258	0.954101	6.143705	-1.069435	1.459777	4.071567	0.138886	0.557742	-0.015609	-0.818163
48669	-11.889940	4.484732	6.825261	-1.645538	-2.312805	4.329188	0.124450	0.569348	-0.019483	-0.812389
48670	-9.931664	7.135828	7.915564	-3.241926	-5.588329	3.243244	0.115888	0.580543	-0.017287	-0.805755
48671	-10.288443	5.826622	7.132842	-2.928536	-4.369266	2.954469	0.116154	0.591470	-0.008783	-0.797868
48672	-10.519741	3.376997	6.251184	-2.693849	-2.055751	2.420623	0.120140	0.601872	0.000413	-0.789503
48673	-10.617886	1.746588	5.710246	-2.714252	-0.550138	2.049808	0.122517	0.611737	0.006474	-0.781489
48674	-10.801443	2.287977	6.013225	-3.139491	-1.203454	2.301458	0.121394	0.621199	0.008276	-0.774149
48675	-10.773902	3.377396	6.589500	-3.764110	-2.426093	2.469182	0.119918	0.629572	0.008566	-0.767584
48676	-10.702509	3.622973	6.601343	-3.974161	-2.718211	2.355334	0.120406	0.636258	0.008769	-0.761972
48677	-11.481939	2.357606	8.042702	-5.655575	-1.574093	3.133858	0.122187	0.640080	0.007159	-0.758496
48678	-11.315661	0.716017	9.594751	-7.491949	-0.149332	3.011512	0.122017	0.635543	0.002060	-0.762360
48679	-11.042401	0.734918	8.815404	-6.585949	0.074971	2.709165	0.117937	0.627792	-0.004196	-0.769383
48680	-9.165839	2.089566	7.295716	-4.954335	-1.261205	0.932599	0.114483	0.616706	-0.006740	-0.778795
48681	-7.744111	2.083390	5.182498	-2.946220	-1.216093	-0.812368	0.113350	0.606149	-0.006514	-0.787206
48682	-7.452863	0.712276	3.034254	-0.975745	0.334350	-1.800621	0.113230	0.598236	-0.006231	-0.793256
48683	-7.680684	1.506212	2.652429	-0.310442	-0.342823	-1.561466	0.111690	0.594726	-0.007590	-0.796096
48684	-7.854398	2.591130	2.767806	-0.152720	-1.389108	-1.203784	0.111379	0.593597	-0.005962	-0.796995
48685	-8.237611	2.793815	2.843528	-0.075902	-1.561903	-0.795827	0.113215	0.594503	-0.001289	-0.796082
48686	-9.049611	2.595542	3.080148	-0.125363	-1.306274	0.005521	0.117567	0.595944	0.005549	-0.794353
48687	-9.447835	1.818973	3.020623	-0.119164	-0.529267	0.257060	0.123216	0.597044	0.013021	-0.792583
48688	-9.862880	1.231801	2.894931	-0.026274	0.086249	0.539418	0.128520	0.597569	0.019375	-0.791213
48689	-9.641140	1.174664	2.855921	-0.061014	0.074846	0.310470	0.133064	0.597425	0.024434	-0.790431
48690	-9.432505	1.279189	2.730391	0.037951	-0.058475	0.089769	0.136988	0.596891	0.028162	-0.790040
48691	-9.435611	1.124913	2.545095	0.191481	0.123084	0.022040	0.140541	0.595941	0.031037	-0.790025
48692	-9.493136	0.967781	2.382854	0.338826	0.322883	0.011524	0.143225	0.594842	0.032909	-0.790295
48693	-9.327676	0.887016	2.275566	0.398039	0.401078	-0.187137	0.144787	0.593901	0.033746	-0.790683
48694	-9.112815	1.088756	2.233656	0.450452	0.187174	-0.379763	0.145354	0.593411	0.033499	-0.790957
48695	-8.962164	1.428278	2.347363	0.398269	-0.178975	-0.448938	0.145588	0.593459	0.032810	-0.790907
48696	-9.258268	1.617838	2.481637	0.391278	-0.320170	-0.105173	0.146135	0.593553	0.032308	-0.790757
48697	-9.216215	1.649842	2.532574	0.339326	-0.355474	-0.125943	0.147353	0.593433	0.032303	-0.790620
48698	-9.513817	1.393631	2.583609	0.300167	-0.047966	0.139073	0.149228	0.593096	0.032763	-0.790503
48699	-9.526884	1.162434	2.556038	0.273010	0.198902	0.113640	0.151233	0.592627	0.033293	-0.790452
48700	-9.432354	1.050200	2.575757	0.206316	0.298955	0.014560	0.153022	0.592260	0.033817	-0.790360
48701	-9.324040	1.066863	2.616685	0.148033	0.264578	-0.074565	0.154548	0.592103	0.034330	-0.790158
48702	-9.246777	1.035400	2.673794	0.065095	0.275406	-0.135703	0.155972	0.592126	0.034828	-0.789839
48703	-9.313217	0.974152	2.751348	-0.012206	0.336695	-0.058643	0.157214	0.592181	0.035328	-0.789530
48704	-9.217767	1.014967	2.879755	-0.147243	0.254181	-0.106808	0.158293	0.592210	0.035744	-0.789274
48705	-9.092500	1.011750	2.956512	-0.253439	0.217737	-0.204019	0.159292	0.592277	0.036210	-0.789001
48706	-9.161704	1.068632	3.057844	-0.316411	0.157235	-0.101644	0.160276	0.592190	0.036711	-0.788844
48707	-9.202208	0.906732	3.004363	-0.300449	0.335276	-0.100514	0.161212	0.591845	0.037220	-0.788889
48708	-9.005134	0.888053	2.953742	-0.300051	0.327995	-0.304372	0.161829	0.591473	0.037445	-0.789031
48709	-9.262457	0.903596	2.903018	-0.179007	0.382766	-0.073152	0.162139	0.591128	0.037608	-0.789218
48710	-9.451159	0.855501	2.817123	-0.059275	0.488721	0.074178	0.162349	0.590744	0.037995	-0.789443
48711	-9.384932	1.025165	2.901680	-0.096212	0.287053	0.059293	0.162317	0.590550	0.038705	-0.789560
48712	-9.198282	1.299053	3.083870	-0.226321	-0.072687	-0.027513	0.162213	0.590670	0.040057	-0.789425
48713	-9.260717	1.464383	3.261605	-0.327982	-0.286800	0.104644	0.162343	0.591029	0.041957	-0.789031
48714	-9.465941	1.571203	3.400848	-0.376755	-0.410842	0.352335	0.162731	0.591234	0.043983	-0.788686
48715	-9.500939	1.661845	3.453492	-0.384796	-0.528626	0.411236	0.163457	0.591016	0.045830	-0.788595
48716	-9.339996	1.497102	3.302949	-0.321648	-0.379610	0.194246	0.164588	0.590359	0.047019	-0.788782
48717	-9.228894	1.203022	3.079307	-0.213795	-0.060917	-0.012054	0.165978	0.589328	0.047309	-0.789243
48718	-9.016827	0.868179	2.836562	-0.125325	0.294960	-0.325844	0.167146	0.588248	0.046771	-0.789835
48719	-8.999873	0.831101	2.823410	-0.113320	0.354304	-0.351099	0.167922	0.587552	0.045912	-0.790239
48720	-9.107404	0.723729	2.806324	-0.096280	0.501663	-0.268941	0.168228	0.587249	0.045267	-0.790436
48721	-9.270882	0.720918	2.747757	0.000486	0.563862	-0.132749	0.167983	0.587164	0.044770	-0.790579
48722	-9.328303	0.931121	2.759817	0.071673	0.378005	-0.047813	0.167366	0.587048	0.044264	-0.790825
48723	-9.251241	1.137774	2.750278	0.130341	0.173522	-0.096880	0.166836	0.586750	0.043478	-0.791201
48724	-9.172642	1.261997	2.710963	0.193115	0.060343	-0.167047	0.166510	0.586277	0.042422	-0.791678
48725	-8.962385	1.349254	2.735825	0.153511	-0.059420	-0.346830	0.166418	0.585784	0.041597	-0.792106
48726	-9.004790	1.399937	2.865195	0.066905	-0.122804	-0.260942	0.166318	0.585644	0.041354	-0.792243
48727	-8.844387	1.533545	2.907249	0.028713	-0.297229	-0.382001	0.166159	0.585800	0.041871	-0.792134
48728	-8.824368	1.771550	3.084013	-0.071763	-0.583302	-0.316710	0.166162	0.586286	0.042739	-0.791727
48729	-9.071992	1.865259	3.244990	-0.138309	-0.670075	-0.022792	0.166566	0.586747	0.043200	-0.791275
48730	-9.258224	2.104832	3.586443	-0.338829	-0.935017	0.287733	0.167559	0.586668	0.042522	-0.791162
48731	-9.143025	2.167432	3.815647	-0.557016	-1.037432	0.260298	0.169442	0.585942	0.040486	-0.791405
48732	-9.088966	2.276167	3.916261	-0.619958	-1.111749	0.262357	0.171427	0.584805	0.037600	-0.791961
48733	-9.074936	2.680513	3.905552	-0.474520	-1.426102	0.313204	0.172863	0.583583	0.035285	-0.792656
48734	-9.094042	2.857851	3.800441	-0.297731	-1.513982	0.332820	0.173898	0.582304	0.034045	-0.793424
48735	-9.141011	3.104988	3.781880	-0.172557	-1.688278	0.415772	0.174680	0.581202	0.031986	-0.794146
48736	-9.029461	3.589968	4.070968	-0.310651	-2.172088	0.491517	0.176257	0.580300	0.027810	-0.794614
48737	-9.311617	3.625680	4.259110	-0.403753	-2.062777	0.844324	0.178828	0.579161	0.021438	-0.795068
48738	-9.481068	3.640125	4.250422	-0.356320	-1.868689	1.031000	0.181295	0.577732	0.013364	-0.795726
48739	-9.829770	3.703618	4.180027	-0.188627	-1.629874	1.372947	0.182862	0.575785	0.003959	-0.796879
48740	-9.531485	4.224867	4.304443	-0.240102	-2.019470	1.281764	0.184139	0.573590	-0.006937	-0.798147
48741	-9.594304	4.684573	4.353787	-0.154932	-2.206484	1.503389	0.186397	0.571302	-0.018292	-0.799084
48742	-9.754983	4.806502	4.287847	-0.029656	-1.997997	1.704626	0.189585	0.568651	-0.030253	-0.799862
48743	-9.778718	4.856578	4.141499	0.116749	-1.728731	1.735132	0.193321	0.565788	-0.042974	-0.800415
48744	-9.768861	5.263882	4.373775	-0.014678	-1.834091	1.972735	0.197404	0.563159	-0.056373	-0.800441
48745	-9.910766	5.664900	4.419336	0.049674	-1.808877	2.293453	0.202155	0.560492	-0.071476	-0.799921
48746	-10.316953	6.511401	5.085417	-0.305163	-2.040677	3.241764	0.208725	0.557122	-0.090573	-0.798652
48747	-10.013432	7.053705	5.196810	-0.420997	-2.094266	3.318703	0.218075	0.551958	-0.112314	-0.796977
48748	-9.816000	6.836852	5.012313	-0.376079	-1.351240	3.079867	0.228019	0.545945	-0.134478	-0.794900
48749	-9.777443	6.658074	4.538886	0.003226	-0.580075	2.842857	0.236310	0.539778	-0.156717	-0.792614
48750	-10.233789	7.467868	4.629305	0.201589	-0.377668	3.667305	0.243505	0.532706	-0.180370	-0.790188
48751	-9.606024	8.065826	4.346721	0.378116	-0.560528	3.443651	0.251471	0.524395	-0.204957	-0.787251
48752	-9.028384	8.172364	4.230369	0.323354	-0.319297	3.069475	0.260508	0.516117	-0.229026	-0.783138
48753	-8.680006	7.861155	3.883640	0.474070	0.318979	2.510571	0.269963	0.508723	-0.251969	-0.777710
48754	-8.515868	7.611756	3.639366	0.578262	0.979347	2.119612	0.279544	0.502468	-0.274013	-0.770907
48755	-8.561255	7.838955	3.311814	0.871031	1.407910	2.143098	0.289000	0.497220	-0.295804	-0.762726
48756	-9.229838	8.605937	3.318564	1.104408	2.027468	3.028528	0.298434	0.491989	-0.318076	-0.753467
48757	-9.120901	9.444687	3.269898	1.128133	2.104908	3.504133	0.308237	0.485551	-0.340959	-0.743624
48758	-8.273726	9.840001	3.240546	0.861528	1.911744	3.277079	0.319690	0.477615	-0.362076	-0.733882
48759	-7.668156	9.205041	2.950238	0.842407	2.357902	2.267600	0.332613	0.469302	-0.380780	-0.723969
48760	-7.493363	8.588645	2.354208	1.263805	2.974416	1.366909	0.346192	0.461514	-0.398139	-0.713191
48761	-8.362881	8.829595	2.487075	1.419135	4.255821	1.759766	0.359124	0.453889	-0.416972	-0.700821
48762	-7.011118	8.441647	1.976409	1.356940	3.698837	0.616425	0.371214	0.445557	-0.437874	-0.686983
48763	-5.340604	8.155389	1.575761	1.086753	2.758118	-0.394655	0.382854	0.438203	-0.458796	-0.671496
48764	-4.512181	7.915636	1.397789	0.861985	2.534196	-0.993198	0.394127	0.433005	-0.477746	-0.654926
48765	-4.623540	8.091000	1.297494	0.864110	3.041309	-0.952258	0.404582	0.430332	-0.494986	-0.637273
48766	-5.178277	9.391708	1.391344	0.850846	3.835395	0.261695	0.413625	0.428403	-0.511850	-0.619189
48767	-5.331257	10.936809	1.730443	0.460700	4.414163	1.645827	0.422420	0.423943	-0.529196	-0.601486
48768	-3.596843	10.532654	1.340067	0.204830	3.249656	0.912921	0.433012	0.414960	-0.545045	-0.585863
48769	-1.228169	8.244560	0.633064	0.122813	1.347029	-1.564361	0.447070	0.402531	-0.558511	-0.571106
48770	0.092060	6.284468	0.265828	0.071579	0.321179	-3.531353	0.463784	0.390201	-0.569433	-0.555332
48771	-1.183919	5.860394	0.639360	0.053344	1.933139	-4.120022	0.479917	0.380066	-0.579230	-0.538259
48772	-1.548189	6.586027	0.982552	-0.138339	2.777267	-3.568077	0.493526	0.369487	-0.590161	-0.521173
48773	-0.535186	7.050285	1.522991	-0.865407	2.371619	-3.035757	0.504468	0.356239	-0.602856	-0.505145
48774	2.042670	5.288927	0.807290	-0.867862	-0.314524	-4.161411	0.515081	0.340428	-0.615038	-0.490437
48775	3.877736	3.222815	0.454280	-1.069700	-2.439208	-5.508000	0.526268	0.324539	-0.624323	-0.477428
48776	4.280376	2.046368	0.185054	-0.956695	-3.094906	-6.341849	0.536797	0.312930	-0.629885	-0.466012
48777	3.624793	3.056650	0.546741	-1.015157	-1.935639	-5.569709	0.544662	0.307660	-0.631555	-0.458068
48778	4.356681	3.492575	0.479312	-1.007596	-2.358271	-4.829604	0.550729	0.304348	-0.631344	-0.453293
48779	4.041883	4.317947	0.696066	-1.022240	-1.632800	-4.177579	0.555924	0.302430	-0.631894	-0.447431
48780	3.608529	5.356777	1.301661	-1.389824	-0.606796	-3.400952	0.559971	0.298847	-0.633576	-0.442385
48781	4.231956	5.317754	0.838582	-1.031693	-1.180927	-3.146999	0.562917	0.293155	-0.635447	-0.439763
48782	4.809269	4.792584	0.696734	-1.022981	-1.864791	-3.327417	0.565575	0.285768	-0.636196	-0.440131
48783	5.497049	3.254010	0.270392	-0.882749	-3.191850	-4.343534	0.568905	0.277341	-0.634720	-0.443350
48784	5.846792	1.651939	-0.091044	-0.780454	-4.287788	-5.578568	0.572742	0.270937	-0.629858	-0.449264
