// General information: 
//  MT Manager version: 2021.0.0 
//  XDA version: 2021.0.0 build 5908 rev 109668 built on 2021-04-19
// Device information: 
//  DeviceId: 00B43DEC
//  ProductCode: MTW2-3A7G6
//  Firmware Version: 4.3.5
//  Hardware Version: 1.1.0
// Device settings: 
//  Filter Profile: human(46.1)
//  Option Flags: Orientation Smoother Disabled, Position/Velocity Smoother Disabled, Continuous Zero Rotation Update Disabled, AHS Disabled, ICC Disabled
// Coordinate system: ENU
PacketCounter	Acc_X	Acc_Y	Acc_Z	FreeAcc_E	FreeAcc_N	FreeAcc_U	Quat_q0	Quat_q1	Quat_q2	Quat_q3
47597	-9.142992	0.952859	3.395438	-0.075320	0.026337	-0.013459	0.340492	0.545361	0.183288	-0.743675
47598	-9.171404	0.988313	3.440928	-0.075645	-0.029689	0.032351	0.340378	0.545495	0.183829	-0.743495
47599	-9.156807	1.013428	3.414903	-0.043252	-0.044687	0.012374	0.340204	0.545667	0.184110	-0.743379
47600	-9.130405	0.989191	3.357885	-0.026778	-0.006004	-0.034271	0.340015	0.545850	0.184225	-0.743303
47601	-9.155829	0.998140	3.372597	-0.028717	-0.018556	-0.004592	0.339848	0.546050	0.184290	-0.743216
47602	-9.128944	1.033449	3.389785	-0.023770	-0.067442	-0.020284	0.339647	0.546278	0.184359	-0.743123
47603	-9.172236	0.954467	3.326505	-0.031863	0.036504	-0.009412	0.339239	0.546705	0.184255	-0.743021
47604	-9.161202	1.019324	3.372316	-0.027121	-0.046787	0.002415	0.338822	0.547104	0.183996	-0.742982
47605	-9.168378	0.937963	3.311094	-0.046337	0.049152	-0.019950	0.338412	0.547506	0.183657	-0.742956
47606	-9.114273	1.049019	3.382377	-0.035096	-0.093434	-0.035115	0.338113	0.547837	0.183395	-0.742914
47607	-9.162706	1.015332	3.342481	-0.027174	-0.031897	-0.006745	0.337873	0.548103	0.183303	-0.742849
47608	-9.113333	1.040472	3.360677	-0.035108	-0.079607	-0.044269	0.337698	0.548321	0.183278	-0.742774
47609	-9.169643	0.988409	3.310673	-0.028720	0.002477	-0.013757	0.337609	0.548448	0.183432	-0.742683
47610	-9.146381	1.032329	3.319542	-0.009319	-0.045582	-0.028047	0.337601	0.548480	0.183639	-0.742612
47611	-9.169335	0.970772	3.336190	-0.057953	-0.008622	-0.007290	0.337704	0.548370	0.183988	-0.742560
47612	-9.160930	0.980685	3.326846	-0.041830	-0.015616	-0.017266	0.337940	0.548121	0.184468	-0.742517
47613	-9.170437	0.957449	3.337010	-0.058208	-0.006349	-0.007290	0.338177	0.547913	0.185024	-0.742424
47614	-9.174577	0.960510	3.305212	-0.029105	0.008200	-0.013761	0.338330	0.547795	0.185487	-0.742326
47615	-9.164814	0.960680	3.345281	-0.056741	-0.024508	-0.009432	0.338383	0.547797	0.185770	-0.742230
47616	-9.149572	0.989847	3.343092	-0.038891	-0.051944	-0.021542	0.338290	0.547981	0.185794	-0.742130
47617	-9.181645	0.986190	3.326258	-0.027748	-0.031544	0.002474	0.338127	0.548206	0.185701	-0.742062
47618	-9.166094	0.984159	3.332585	-0.040602	-0.040504	-0.010204	0.337969	0.548444	0.185551	-0.741995
47619	-9.169504	0.962163	3.285152	-0.027583	0.005120	-0.025094	0.337758	0.548755	0.185304	-0.741923
47620	-9.185772	0.992850	3.289388	-0.013246	-0.015447	-0.005353	0.337448	0.549141	0.184944	-0.741869
47621	-9.167460	1.019523	3.315997	-0.024575	-0.056369	-0.010963	0.336982	0.549582	0.184289	-0.741917
47622	-9.159322	1.005999	3.311422	-0.039057	-0.044795	-0.021508	0.336732	0.549841	0.183914	-0.741931
47623	-9.193359	0.980844	3.274139	-0.029570	0.007646	-0.004580	0.336525	0.550091	0.183629	-0.741910
47624	-9.151957	0.993061	3.304582	-0.053747	-0.032029	-0.032052	0.336398	0.550239	0.183384	-0.741919
47625	-9.200076	0.994157	3.278811	-0.029811	-0.001376	0.004617	0.336272	0.550399	0.183207	-0.741901
47626	-9.149830	1.055688	3.290671	-0.007011	-0.067663	-0.032209	0.336175	0.550498	0.183045	-0.741912
47627	-9.171187	1.033758	3.277637	-0.010355	-0.036729	-0.018772	0.336170	0.550500	0.183012	-0.741921
47628	-9.177767	1.041550	3.308037	-0.025068	-0.059393	-0.001715	0.336173	0.550483	0.183039	-0.741925
47629	-9.162594	1.012847	3.276644	-0.024931	-0.024093	-0.029325	0.336185	0.550466	0.183096	-0.741918
47630	-9.182521	1.013324	3.305717	-0.041348	-0.037552	-0.000952	0.336158	0.550485	0.183143	-0.741905
47631	-9.171651	0.994209	3.263207	-0.026717	-0.001159	-0.027217	0.336114	0.550513	0.183126	-0.741908
47632	-9.170682	1.017385	3.303871	-0.039767	-0.044309	-0.012253	0.336082	0.550543	0.183150	-0.741895
47633	-9.153068	1.013201	3.293130	-0.038065	-0.040883	-0.032768	0.336078	0.550535	0.183224	-0.741884
47634	-9.181229	1.031631	3.301531	-0.025249	-0.052298	-0.001675	0.336074	0.550487	0.183360	-0.741888
47635	-9.187970	0.944911	3.288301	-0.073776	0.018881	-0.008669	0.336042	0.550500	0.183395	-0.741884
47636	-9.192817	0.988053	3.267129	-0.028534	0.002569	-0.006697	0.336008	0.550526	0.183319	-0.741899
47637	-9.174364	1.009979	3.319591	-0.054420	-0.050690	-0.004366	0.335971	0.550574	0.183183	-0.741914
47638	-9.184110	0.971038	3.265193	-0.043067	0.015463	-0.017271	0.335869	0.550675	0.183009	-0.741928
47639	-9.135089	1.066342	3.289032	-0.003982	-0.081846	-0.045500	0.335817	0.550709	0.182903	-0.741952
47640	-9.165109	1.027461	3.286623	-0.023575	-0.042772	-0.022161	0.335797	0.550650	0.182902	-0.742005
47641	-9.193316	0.953496	3.274604	-0.059337	0.027159	-0.007332	0.335875	0.550525	0.182936	-0.742054
47642	-9.173562	1.042854	3.289790	-0.009133	-0.050775	-0.011573	0.335983	0.550356	0.182977	-0.742121
47643	-9.162271	1.022298	3.272480	-0.009010	-0.026874	-0.030018	0.336124	0.550101	0.183116	-0.742211
47644	-9.187184	0.937214	3.292697	-0.073834	0.029612	-0.008696	0.336162	0.549998	0.183205	-0.742249
47645	-9.132564	1.020869	3.308330	-0.034841	-0.056303	-0.046083	0.336173	0.549936	0.183202	-0.742290
47646	-9.141541	1.003042	3.318419	-0.051147	-0.046966	-0.036136	0.336229	0.549856	0.183303	-0.742299
47647	-9.153951	1.028459	3.287831	-0.007579	-0.042702	-0.032069	0.336310	0.549721	0.183478	-0.742320
47648	-9.176035	1.001992	3.297571	-0.025608	-0.024151	-0.010833	0.336431	0.549566	0.183720	-0.742320
47649	-9.144381	1.025478	3.352767	-0.049855	-0.086666	-0.019712	0.336579	0.549381	0.184016	-0.742316
47650	-9.216084	0.880033	3.274616	-0.079238	0.087085	0.006677	0.336737	0.549207	0.184267	-0.742311
47651	-9.141978	1.019019	3.314222	-0.020718	-0.059404	-0.035455	0.336840	0.549062	0.184332	-0.742356
47652	-9.184408	0.938442	3.321116	-0.072851	0.007348	-0.001547	0.336800	0.549092	0.184280	-0.742364
47653	-9.139266	1.007769	3.344843	-0.050053	-0.070476	-0.028911	0.336790	0.549120	0.184222	-0.742362
47654	-9.184035	0.938653	3.298493	-0.058407	0.022118	-0.009437	0.336763	0.549160	0.184166	-0.742359
47655	-9.147044	1.026826	3.301726	-0.006462	-0.053630	-0.034075	0.336812	0.549132	0.184160	-0.742359
47656	-9.159634	0.984877	3.310948	-0.038901	-0.024675	-0.023452	0.336873	0.549048	0.184178	-0.742389
47657	-9.148891	0.965729	3.291536	-0.038840	-0.000742	-0.041938	0.336969	0.548937	0.184203	-0.742421
47658	-9.160498	1.016843	3.324400	-0.022880	-0.053163	-0.014882	0.337071	0.548843	0.184243	-0.742434
47659	-9.145788	0.987788	3.315075	-0.037330	-0.030264	-0.034724	0.337139	0.548746	0.184327	-0.742454
47660	-9.133790	0.991712	3.337360	-0.050271	-0.050642	-0.038104	0.337251	0.548631	0.184460	-0.742455
47661	-9.168348	0.995493	3.314955	-0.024670	-0.028986	-0.012836	0.337303	0.548608	0.184537	-0.742430
47662	-9.168585	0.960000	3.323011	-0.055482	-0.009332	-0.013515	0.337250	0.548697	0.184505	-0.742396
47663	-9.144240	1.042319	3.302982	0.009297	-0.063480	-0.034695	0.337133	0.548821	0.184394	-0.742385
47664	-9.144558	1.007527	3.310615	-0.021418	-0.043837	-0.035375	0.337045	0.548870	0.184341	-0.742402
47665	-9.141356	1.031674	3.310302	-0.005225	-0.062219	-0.036034	0.337035	0.548865	0.184355	-0.742406
47666	-9.127048	1.002379	3.299879	-0.019760	-0.039312	-0.055893	0.337074	0.548790	0.184449	-0.742421
47667	-9.171864	1.022707	3.299041	0.005812	-0.040361	-0.012125	0.337202	0.548593	0.184692	-0.742448
47668	-9.160332	0.964134	3.291541	-0.024883	0.001993	-0.031335	0.337556	0.548147	0.185209	-0.742488
47669	-9.195303	1.028606	3.277683	0.047716	-0.025702	0.003212	0.338129	0.547419	0.186082	-0.742546
47670	-9.182841	0.892815	3.337991	-0.073621	0.028833	-0.001592	0.338886	0.546424	0.187040	-0.742693
47671	-9.143172	0.933609	3.384644	-0.067027	-0.040867	-0.018870	0.339506	0.545629	0.187824	-0.742796
47672	-9.129562	0.964306	3.405451	-0.049151	-0.079790	-0.021513	0.339887	0.545105	0.188377	-0.742867
47673	-9.143791	0.893454	3.372581	-0.068713	-0.006623	-0.026130	0.339757	0.545229	0.188505	-0.742803
47674	-9.131710	0.956260	3.401959	-0.049341	-0.077430	-0.021495	0.339560	0.545438	0.188494	-0.742742
47675	-9.169489	0.937253	3.332647	-0.010648	-0.011421	-0.011450	0.339408	0.545604	0.188482	-0.742693
47676	-9.137742	0.929565	3.371549	-0.050975	-0.043166	-0.028757	0.339265	0.545757	0.188484	-0.742646
47677	-9.173555	0.900069	3.353277	-0.056136	-0.002993	-0.004246	0.339003	0.546060	0.188390	-0.742566
47678	-9.166250	0.974851	3.370317	-0.022159	-0.072744	0.001777	0.338717	0.546387	0.188258	-0.742490
47679	-9.163228	0.909407	3.299047	-0.025332	0.014843	-0.031348	0.338362	0.546802	0.187999	-0.742412
47680	-9.156547	0.950447	3.345411	-0.036709	-0.048840	-0.018111	0.338044	0.547154	0.187797	-0.742348
47681	-9.186126	0.914992	3.294765	-0.027157	0.015053	-0.010819	0.337760	0.547502	0.187541	-0.742285
47682	-9.160585	0.955018	3.333031	-0.036752	-0.046471	-0.018099	0.337481	0.547827	0.187203	-0.742258
47683	-9.170703	0.942311	3.338047	-0.053089	-0.037156	-0.008193	0.337248	0.548084	0.186839	-0.742266
47684	-9.152105	0.944263	3.304548	-0.036831	-0.021427	-0.036652	0.337049	0.548323	0.186474	-0.742272
47685	-9.165925	0.941088	3.300425	-0.038620	-0.011011	-0.025399	0.336878	0.548544	0.186165	-0.742264
47686	-9.177379	0.962298	3.317695	-0.038772	-0.032509	-0.006830	0.336668	0.548783	0.185828	-0.742266
47687	-9.146661	0.993836	3.369029	-0.062964	-0.095015	-0.015418	0.336513	0.548981	0.185478	-0.742278
47688	-9.166097	1.010072	3.303772	-0.006480	-0.057728	-0.017326	0.336417	0.549113	0.185248	-0.742281
47689	-9.152237	1.018407	3.282708	0.009782	-0.053431	-0.036501	0.336385	0.549138	0.185160	-0.742300
47690	-9.143157	0.999324	3.282041	-0.004811	-0.042046	-0.047137	0.336372	0.549142	0.185196	-0.742294
47691	-9.143085	0.962682	3.290959	-0.035638	-0.022396	-0.047883	0.336409	0.549088	0.185325	-0.742284
47692	-9.152878	0.978111	3.290747	-0.021207	-0.031501	-0.037236	0.336494	0.548983	0.185510	-0.742277
47693	-9.161995	0.958283	3.300668	-0.037515	-0.022141	-0.027343	0.336603	0.548844	0.185749	-0.742271
47694	-9.158407	0.979242	3.302750	-0.021348	-0.040483	-0.027934	0.336820	0.548622	0.186042	-0.742263
47695	-9.183390	0.927139	3.312980	-0.055561	-0.002354	-0.006211	0.337042	0.548361	0.186308	-0.742289
47696	-9.153367	0.962566	3.317724	-0.035933	-0.039105	-0.029276	0.337150	0.548236	0.186398	-0.742309
47697	-9.161235	0.978853	3.298949	-0.006975	-0.035786	-0.026568	0.337290	0.548025	0.186566	-0.742359
47698	-9.168876	0.924368	3.320687	-0.054004	-0.007952	-0.017448	0.337507	0.547769	0.186821	-0.742385
47699	-9.157078	0.960946	3.335491	-0.036219	-0.046837	-0.019961	0.337714	0.547530	0.187095	-0.742398
47700	-9.175142	0.935640	3.284123	-0.010476	0.008841	-0.022696	0.337892	0.547327	0.187357	-0.742401
47701	-9.154928	0.953181	3.319976	-0.021785	-0.032187	-0.027904	0.338147	0.547010	0.187620	-0.742452
47702	-9.188412	0.918581	3.332729	-0.041568	-0.004367	0.004442	0.338558	0.546550	0.188048	-0.742495
47703	-9.153173	0.975525	3.344345	-0.005759	-0.060715	-0.019162	0.339153	0.545879	0.188616	-0.742573
47704	-9.140178	0.913979	3.363726	-0.051187	-0.030859	-0.030598	0.339891	0.545085	0.189376	-0.742626
47705	-9.152529	0.872460	3.352249	-0.054546	0.011460	-0.026758	0.340707	0.544189	0.190283	-0.742678
47706	-9.148791	0.919813	3.396768	-0.036858	-0.050063	-0.010617	0.341445	0.543380	0.191092	-0.742723
47707	-9.153778	0.893731	3.395602	-0.038579	-0.028344	-0.008698	0.342140	0.542598	0.191922	-0.742761
47708	-9.113095	0.868711	3.435801	-0.078904	-0.048921	-0.035200	0.342566	0.542098	0.192485	-0.742784
47709	-9.147983	0.904114	3.406901	-0.022628	-0.045554	-0.009249	0.342529	0.542104	0.192580	-0.742772
47710	-9.130308	0.899898	3.396335	-0.020951	-0.042346	-0.029783	0.342522	0.542083	0.192620	-0.742779
47711	-9.152990	0.909993	3.395679	-0.008303	-0.042151	-0.007887	0.342556	0.542021	0.192654	-0.742801
47712	-9.158324	0.858721	3.374617	-0.026305	0.010345	-0.014752	0.342691	0.541776	0.192727	-0.742898
47713	-9.152997	0.880783	3.381693	-0.010220	-0.007990	-0.015300	0.342979	0.541335	0.192889	-0.743045
47714	-9.134677	0.906877	3.413520	-0.007090	-0.047945	-0.019092	0.343517	0.540683	0.193291	-0.743167
47715	-9.128618	0.831589	3.421486	-0.054173	0.002441	-0.028679	0.344298	0.539857	0.193921	-0.743241
47716	-9.126852	0.857732	3.444688	-0.038086	-0.027219	-0.019894	0.345147	0.539071	0.194652	-0.743227
47717	-9.109449	0.879307	3.497799	-0.049383	-0.079550	-0.015695	0.345852	0.538394	0.195363	-0.743203
47718	-9.112742	0.824012	3.460027	-0.052817	-0.014675	-0.030569	0.346357	0.537930	0.195907	-0.743161
47719	-9.116179	0.920827	3.479469	0.010262	-0.093544	-0.012152	0.346561	0.537705	0.196196	-0.743153
47720	-9.100459	0.854868	3.478156	-0.035137	-0.052452	-0.032977	0.346696	0.537542	0.196416	-0.743150
47721	-9.096897	0.876518	3.480819	-0.018973	-0.070823	-0.033498	0.346780	0.537410	0.196566	-0.743166
47722	-9.118546	0.850335	3.489743	-0.037074	-0.052277	-0.012424	0.346837	0.537300	0.196696	-0.743185
47723	-9.116980	0.813792	3.477687	-0.053362	-0.020416	-0.021231	0.346943	0.537216	0.196880	-0.743148
47724	-9.131155	0.838799	3.468201	-0.024375	-0.028417	-0.009189	0.347086	0.537097	0.197124	-0.743102
47725	-9.121125	0.818501	3.446538	-0.024402	-0.004733	-0.027859	0.347246	0.537012	0.197351	-0.743028
47726	-9.115449	0.864708	3.470298	-0.006566	-0.054981	-0.020903	0.347379	0.536907	0.197536	-0.742992
47727	-9.120075	0.835744	3.489273	-0.037573	-0.046687	-0.012398	0.347392	0.536851	0.197630	-0.743002
47728	-9.100534	0.890135	3.493292	-0.003520	-0.093880	-0.024616	0.347354	0.536827	0.197688	-0.743022
47729	-9.104501	0.862339	3.490941	-0.019860	-0.073175	-0.024098	0.347267	0.536808	0.197759	-0.743057
47730	-9.129417	0.812231	3.475410	-0.039689	-0.022764	-0.010526	0.347201	0.536817	0.197862	-0.743054
47731	-9.118236	0.850930	3.466381	-0.007269	-0.049345	-0.020874	0.347108	0.536848	0.197944	-0.743054
47732	-9.128633	0.830360	3.494589	-0.038225	-0.052370	-0.003030	0.346996	0.536850	0.197983	-0.743094
47733	-9.120175	0.788266	3.429568	-0.025464	0.015542	-0.037208	0.346888	0.536845	0.197967	-0.743152
47734	-9.123112	0.818670	3.462588	-0.023985	-0.026469	-0.020362	0.346776	0.536816	0.197918	-0.743239
47735	-9.121459	0.839596	3.506244	-0.036929	-0.069540	-0.004860	0.346612	0.536781	0.197797	-0.743372
47736	-9.092437	0.819523	3.476272	-0.035156	-0.043836	-0.044098	0.346449	0.536753	0.197631	-0.743513
47737	-9.132084	0.797490	3.494610	-0.055034	-0.027266	-0.002516	0.346309	0.536772	0.197487	-0.743603
47738	-9.123463	0.849599	3.456747	0.006451	-0.040404	-0.019484	0.346156	0.536782	0.197342	-0.743705
47739	-9.122431	0.814119	3.465453	-0.024485	-0.020872	-0.020350	0.345972	0.536798	0.197162	-0.743827
47740	-9.104868	0.811087	3.477100	-0.037446	-0.030157	-0.032892	0.345782	0.536818	0.196905	-0.743969
47741	-9.119193	0.839063	3.489522	-0.023023	-0.050523	-0.012821	0.345599	0.536838	0.196582	-0.744125
47742	-9.098446	0.805394	3.468843	-0.037576	-0.016680	-0.042244	0.345393	0.536885	0.196215	-0.744283
47743	-9.097133	0.829575	3.533505	-0.065086	-0.072155	-0.018698	0.345207	0.536943	0.195815	-0.744433
47744	-9.104555	0.852938	3.493109	-0.021561	-0.056526	-0.023991	0.345032	0.537049	0.195490	-0.744523
47745	-9.090228	0.884497	3.535888	-0.032825	-0.108927	-0.019621	0.344864	0.537173	0.195262	-0.744571
47746	-9.094491	0.895719	3.502984	-0.003787	-0.094313	-0.026265	0.344672	0.537308	0.195166	-0.744588
47747	-9.095845	0.858566	3.528767	-0.049228	-0.087187	-0.019133	0.344458	0.537474	0.195161	-0.744569
47748	-9.078108	0.877495	3.557298	-0.060436	-0.128324	-0.024108	0.344247	0.537666	0.195223	-0.744511
47749	-9.124242	0.841776	3.475643	-0.023721	-0.041653	-0.012781	0.344016	0.537844	0.195373	-0.744450
47750	-9.130835	0.811820	3.489597	-0.054684	-0.033347	-0.004304	0.343829	0.538005	0.195498	-0.744388
47751	-9.129922	0.775897	3.452304	-0.056427	0.010877	-0.021233	0.343659	0.538137	0.195596	-0.744345
47752	-9.140171	0.850032	3.462067	-0.009508	-0.048311	-0.002042	0.343511	0.538272	0.195709	-0.744286
47753	-9.102149	0.832338	3.469439	-0.035159	-0.056794	-0.036469	0.343322	0.538389	0.195818	-0.744260
47754	-9.109354	0.837190	3.475980	-0.035239	-0.066961	-0.027089	0.343145	0.538504	0.195971	-0.744218
47755	-9.157877	0.797110	3.456959	-0.042364	-0.017302	0.008238	0.342937	0.538649	0.196139	-0.744164
47756	-9.133178	0.807361	3.433566	-0.024360	-0.022450	-0.022128	0.342750	0.538766	0.196314	-0.744120
47757	-9.132970	0.826868	3.451398	-0.022797	-0.053177	-0.014543	0.342567	0.538871	0.196497	-0.744080
47758	-9.154417	0.764968	3.443068	-0.057229	-0.003817	-0.002491	0.342350	0.538997	0.196687	-0.744038
47759	-9.143669	0.802770	3.410424	-0.010255	-0.018016	-0.020768	0.342153	0.539096	0.196864	-0.744010
47760	-9.157432	0.813991	3.448080	-0.024930	-0.051784	0.006024	0.341935	0.539203	0.197047	-0.743984
47761	-9.148429	0.733974	3.389024	-0.042954	0.034355	-0.029287	0.341730	0.539271	0.197214	-0.743985
47762	-9.139096	0.734444	3.428279	-0.070499	0.001442	-0.024398	0.341573	0.539345	0.197308	-0.743979
47763	-9.157835	0.791650	3.448508	-0.039880	-0.049554	0.004686	0.341425	0.539414	0.197403	-0.743972
47764	-9.170946	0.782530	3.424217	-0.027174	-0.026738	0.007823	0.341291	0.539468	0.197495	-0.743970
47765	-9.158202	0.787311	3.402045	-0.010893	-0.022600	-0.011371	0.341158	0.539528	0.197578	-0.743965
47766	-9.177706	0.785779	3.409119	-0.012743	-0.023436	0.009182	0.341014	0.539575	0.197674	-0.743971
47767	-9.111114	0.806168	3.442706	-0.033186	-0.082411	-0.039937	0.340874	0.539626	0.197749	-0.743978
47768	-9.142557	0.798697	3.427844	-0.022241	-0.061578	-0.016255	0.340704	0.539708	0.197856	-0.743969
47769	-9.154450	0.754231	3.412055	-0.040338	-0.020500	-0.014071	0.340537	0.539750	0.197974	-0.743983
47770	-9.157504	0.726617	3.387850	-0.042101	0.012403	-0.021700	0.340412	0.539780	0.198042	-0.744001
47771	-9.137241	0.769246	3.441341	-0.051541	-0.060435	-0.018943	0.340289	0.539826	0.198084	-0.744012
47772	-9.135148	0.791880	3.440797	-0.035289	-0.078809	-0.019341	0.340171	0.539873	0.198131	-0.744020
47773	-9.159531	0.741818	3.424511	-0.055148	-0.028317	-0.006020	0.340060	0.539933	0.198197	-0.744009
47774	-9.140193	0.761597	3.435196	-0.051682	-0.057131	-0.018924	0.339957	0.539948	0.198256	-0.744030
47775	-9.143776	0.828375	3.416026	0.009961	-0.092705	-0.017006	0.339827	0.539996	0.198325	-0.744036
47776	-9.147903	0.799958	3.412408	-0.006364	-0.072166	-0.016600	0.339661	0.540035	0.198413	-0.744060
47777	-9.147132	0.703739	3.384721	-0.055256	0.009732	-0.034218	0.339512	0.540085	0.198513	-0.744065
47778	-9.150831	0.734473	3.394045	-0.039023	-0.019811	-0.025206	0.339389	0.540164	0.198575	-0.744047
47779	-9.172259	0.709404	3.378708	-0.042557	0.011170	-0.012314	0.339283	0.540224	0.198664	-0.744028
47780	-9.156061	0.704180	3.387650	-0.055436	0.001808	-0.024816	0.339208	0.540260	0.198729	-0.744019
47781	-9.174731	0.762872	3.408828	-0.024722	-0.049148	0.004377	0.339176	0.540290	0.198759	-0.744004
47782	-9.125248	0.787922	3.432012	-0.032321	-0.097760	-0.032142	0.339097	0.540335	0.198808	-0.743994
47783	-9.156967	0.758240	3.374934	-0.008581	-0.032656	-0.024224	0.339009	0.540377	0.198885	-0.743982
47784	-9.162162	0.729753	3.391712	-0.039460	-0.024537	-0.015785	0.338950	0.540447	0.198967	-0.743937
47785	-9.167614	0.737475	3.379050	-0.024995	-0.022318	-0.014429	0.338882	0.540506	0.199021	-0.743910
47786	-9.156579	0.800070	3.411904	-0.005259	-0.093026	-0.008838	0.338806	0.540548	0.199110	-0.743891
47787	-9.162873	0.689079	3.372305	-0.055978	0.009417	-0.024823	0.338705	0.540622	0.199232	-0.743850
47788	-9.144282	0.744719	3.352692	-0.007135	-0.025393	-0.044763	0.338627	0.540688	0.199319	-0.743815
47789	-9.158291	0.735348	3.348938	-0.009006	-0.014959	-0.033623	0.338552	0.540751	0.199412	-0.743778
47790	-9.170127	0.714130	3.397105	-0.054460	-0.030343	-0.007707	0.338466	0.540777	0.199483	-0.743779
47791	-9.189197	0.713433	3.405148	-0.056298	-0.031162	0.012852	0.338427	0.540777	0.199533	-0.743784
47792	-9.144523	0.724813	3.376187	-0.036497	-0.034562	-0.038038	0.338385	0.540777	0.199595	-0.743786
47793	-9.162390	0.725421	3.363564	-0.023811	-0.023000	-0.025548	0.338342	0.540803	0.199652	-0.743771
47794	-9.169713	0.731218	3.393542	-0.038395	-0.045477	-0.008050	0.338302	0.540800	0.199670	-0.743787
47795	-9.150172	0.751882	3.405174	-0.034891	-0.074347	-0.020883	0.338238	0.540814	0.199728	-0.743790
47796	-9.168140	0.693617	3.379415	-0.054790	-0.012683	-0.017118	0.338199	0.540812	0.199761	-0.743800
47797	-9.171254	0.725895	3.390518	-0.038524	-0.042190	-0.008036	0.338174	0.540815	0.199764	-0.743809
47798	-9.180390	0.685171	3.356473	-0.042164	0.011314	-0.014064	0.338164	0.540788	0.199740	-0.743839
47799	-9.183162	0.718200	3.368365	-0.025914	-0.018210	-0.004978	0.338168	0.540774	0.199710	-0.743856
47800	-9.170234	0.724812	3.369842	-0.024213	-0.026440	-0.016102	0.338189	0.540720	0.199651	-0.743902
47801	-9.145614	0.737402	3.393248	-0.035231	-0.056467	-0.030269	0.338203	0.540688	0.199622	-0.743926
47802	-9.139618	0.751478	3.425450	-0.048064	-0.088297	-0.023871	0.338200	0.540684	0.199589	-0.743939
47803	-9.139853	0.809541	3.437974	-0.015465	-0.137239	-0.015093	0.338175	0.540707	0.199613	-0.743928
47804	-9.179562	0.704943	3.377177	-0.040736	-0.013891	-0.006323	0.338146	0.540722	0.199680	-0.743912
47805	-9.166148	0.711192	3.356356	-0.024403	-0.009779	-0.025527	0.338122	0.540720	0.199723	-0.743913
47806	-9.180409	0.701964	3.375496	-0.040769	-0.011744	-0.006320	0.338156	0.540682	0.199722	-0.743925
47807	-9.153525	0.716121	3.357376	-0.022668	-0.017059	-0.036644	0.338162	0.540626	0.199720	-0.743963
47808	-9.162999	0.697797	3.387663	-0.053549	-0.020142	-0.018788	0.338194	0.540580	0.199677	-0.743994
47809	-9.152727	0.738236	3.401290	-0.035469	-0.059040	-0.020781	0.338244	0.540527	0.199658	-0.744015
47810	-9.148247	0.728169	3.411806	-0.050092	-0.059100	-0.022127	0.338273	0.540495	0.199642	-0.744029
47811	-9.171426	0.715696	3.368545	-0.024633	-0.014556	-0.016078	0.338299	0.540456	0.199617	-0.744053
47812	-9.165281	0.730064	3.401139	-0.037427	-0.046464	-0.009649	0.338362	0.540420	0.199585	-0.744058
47813	-9.162411	0.755072	3.402686	-0.021142	-0.064800	-0.009956	0.338397	0.540397	0.199577	-0.744061
47814	-9.172628	0.713712	3.389389	-0.039273	-0.023789	-0.007977	0.338407	0.540386	0.199581	-0.744064
47815	-9.141451	0.718726	3.381100	-0.035720	-0.030338	-0.039646	0.338435	0.540346	0.199540	-0.744091
47816	-9.138192	0.766601	3.425306	-0.032116	-0.092850	-0.024056	0.338463	0.540331	0.199548	-0.744087
47817	-9.133255	0.734036	3.371705	-0.019478	-0.036489	-0.049396	0.338447	0.540316	0.199552	-0.744104
47818	-9.159948	0.740979	3.432309	-0.050321	-0.073127	-0.003174	0.338431	0.540322	0.199559	-0.744105
47819	-9.147993	0.782523	3.402989	-0.003105	-0.087321	-0.021323	0.338402	0.540331	0.199597	-0.744101
47820	-9.161413	0.715062	3.387371	-0.037637	-0.026888	-0.019070	0.338375	0.540343	0.199636	-0.744095
47821	-9.166359	0.723111	3.376033	-0.023138	-0.024642	-0.017715	0.338340	0.540354	0.199668	-0.744094
47822	-9.183835	0.724165	3.364328	-0.010438	-0.012953	-0.005258	0.338328	0.540307	0.199672	-0.744133
47823	-9.152077	0.692727	3.386145	-0.052282	-0.013618	-0.029873	0.338320	0.540237	0.199628	-0.744199
47824	-9.154846	0.702795	3.356590	-0.023255	0.000964	-0.036631	0.338333	0.540167	0.199552	-0.744264
47825	-9.159459	0.734386	3.411399	-0.035982	-0.053294	-0.011233	0.338337	0.540090	0.199447	-0.744346
47826	-9.126087	0.764161	3.426647	-0.030606	-0.091502	-0.035060	0.338318	0.540042	0.199326	-0.744422
47827	-9.161904	0.744823	3.382666	-0.006980	-0.037586	-0.017984	0.338293	0.540027	0.199288	-0.744455
47828	-9.141467	0.731160	3.424913	-0.048809	-0.060626	-0.023664	0.338286	0.539997	0.199236	-0.744494
47829	-9.168726	0.751287	3.413959	-0.021514	-0.058987	-0.000392	0.338278	0.539989	0.199217	-0.744508
47830	-9.158888	0.732262	3.413387	-0.036177	-0.047917	-0.011206	0.338259	0.539970	0.199208	-0.744533
47831	-9.153374	0.722618	3.402904	-0.036222	-0.035695	-0.020670	0.338255	0.539933	0.199203	-0.744563
47832	-9.153431	0.721846	3.402913	-0.036137	-0.034600	-0.020666	0.338266	0.539911	0.199182	-0.744579
47833	-9.156248	0.754897	3.414942	-0.019758	-0.064114	-0.011459	0.338270	0.539864	0.199165	-0.744617
47834	-9.153307	0.720170	3.403602	-0.036158	-0.032546	-0.020659	0.338271	0.539809	0.199156	-0.744658
47835	-9.153058	0.719401	3.404435	-0.036194	-0.031519	-0.020656	0.338286	0.539745	0.199106	-0.744711
47836	-9.148207	0.709561	3.415833	-0.050724	-0.031665	-0.022003	0.338305	0.539676	0.199030	-0.744773
47837	-9.144946	0.734479	3.418573	-0.034345	-0.050004	-0.022260	0.338305	0.539603	0.198962	-0.744844
47838	-9.133200	0.717168	3.399112	-0.034351	-0.026631	-0.041211	0.338339	0.539521	0.198881	-0.744909
47839	-9.139492	0.725000	3.431485	-0.048795	-0.049126	-0.023599	0.338346	0.539484	0.198781	-0.744960
47840	-9.134924	0.774272	3.455437	-0.030547	-0.099203	-0.015973	0.338334	0.539453	0.198742	-0.744998
47841	-9.126614	0.789949	3.446390	-0.014189	-0.106335	-0.025696	0.338291	0.539432	0.198726	-0.745037
47842	-9.122950	0.755628	3.413321	-0.016075	-0.062345	-0.043051	0.338225	0.539437	0.198752	-0.745057
47843	-9.159237	0.757361	3.410178	-0.005051	-0.052420	-0.010047	0.338133	0.539453	0.198823	-0.745068
47844	-9.145538	0.727183	3.418550	-0.034123	-0.042639	-0.022225	0.338040	0.539472	0.198875	-0.745082
47845	-9.150713	0.734429	3.406867	-0.019538	-0.040465	-0.020872	0.337929	0.539501	0.198911	-0.745102
47846	-9.153877	0.730408	3.446492	-0.048520	-0.064100	-0.004589	0.337802	0.539554	0.198916	-0.745120
47847	-9.150892	0.754134	3.425241	-0.017596	-0.069965	-0.012962	0.337652	0.539595	0.198970	-0.745144
47848	-9.154725	0.726101	3.421523	-0.033957	-0.049535	-0.012716	0.337525	0.539665	0.199049	-0.745129
47849	-9.160036	0.756115	3.451414	-0.031889	-0.091358	0.004688	0.337405	0.539712	0.199131	-0.745128
47850	-9.157023	0.720096	3.416640	-0.033819	-0.047418	-0.012705	0.337255	0.539752	0.199233	-0.745139
47851	-9.149455	0.674357	3.392308	-0.050387	-0.004559	-0.031456	0.337092	0.539791	0.199284	-0.745172
47852	-9.149435	0.731382	3.382969	-0.003119	-0.040873	-0.030567	0.336955	0.539828	0.199308	-0.745200
47853	-9.150996	0.669004	3.389210	-0.050524	-0.002185	-0.031456	0.336832	0.539840	0.199314	-0.745246
47854	-9.154444	0.700953	3.400141	-0.034138	-0.031507	-0.022183	0.336730	0.539857	0.199262	-0.745293
47855	-9.147685	0.715461	3.411003	-0.032339	-0.050891	-0.023748	0.336677	0.539863	0.199235	-0.745320
47856	-9.146481	0.738793	3.432558	-0.030485	-0.081424	-0.015809	0.336630	0.539858	0.199179	-0.745360
47857	-9.149364	0.712488	3.430842	-0.046953	-0.060881	-0.015582	0.336564	0.539860	0.199165	-0.745392
47858	-9.171375	0.722912	3.408691	-0.019764	-0.047831	-0.001815	0.336499	0.539862	0.199150	-0.745424
47859	-9.148839	0.710355	3.408974	-0.032603	-0.046139	-0.023726	0.336425	0.539854	0.199143	-0.745465
47860	-9.137613	0.738075	3.472386	-0.057892	-0.110825	-0.010517	0.336336	0.539882	0.199154	-0.745482
47861	-9.162677	0.722715	3.447921	-0.047108	-0.078414	0.003460	0.336253	0.539922	0.199202	-0.745477
47862	-9.146538	0.694637	3.414700	-0.047335	-0.043796	-0.025058	0.336152	0.539958	0.199258	-0.745482
47863	-9.162691	0.660107	3.410606	-0.065625	-0.013825	-0.013791	0.336088	0.539988	0.199287	-0.745482
47864	-9.148564	0.726445	3.382139	-0.002042	-0.047190	-0.032065	0.336037	0.539996	0.199292	-0.745497
47865	-9.147170	0.690190	3.390130	-0.033051	-0.027874	-0.033209	0.335965	0.540009	0.199289	-0.745521
47866	-9.154505	0.719469	3.462774	-0.060091	-0.094258	0.000615	0.335900	0.540023	0.199307	-0.745535
47867	-9.173629	0.695608	3.428363	-0.049369	-0.050698	0.005052	0.335818	0.540037	0.199328	-0.745557
47868	-9.153204	0.693996	3.376808	-0.018713	-0.023091	-0.031853	0.335750	0.540027	0.199347	-0.745590
47869	-9.143401	0.697684	3.418330	-0.045916	-0.056062	-0.026560	0.335714	0.540045	0.199349	-0.745592
47870	-9.150936	0.704259	3.448069	-0.060402	-0.078368	-0.008861	0.335669	0.540088	0.199342	-0.745583
47871	-9.142137	0.720611	3.416609	-0.029633	-0.073038	-0.026730	0.335620	0.540127	0.199369	-0.745570
47872	-9.169624	0.680597	3.390844	-0.035273	-0.021259	-0.012619	0.335589	0.540158	0.199392	-0.745555
47873	-9.149257	0.726548	3.423824	-0.029703	-0.081794	-0.017189	0.335560	0.540193	0.199410	-0.745538
47874	-9.163855	0.693909	3.399490	-0.033525	-0.039457	-0.014136	0.335539	0.540203	0.199420	-0.745537
47875	-9.145842	0.691234	3.389258	-0.031826	-0.036589	-0.034704	0.335525	0.540199	0.199441	-0.745541
47876	-9.139217	0.705770	3.400003	-0.030010	-0.055978	-0.036217	0.335517	0.540199	0.199444	-0.745543
47877	-9.151119	0.721746	3.419861	-0.029958	-0.077043	-0.017152	0.335499	0.540215	0.199466	-0.745535
47878	-9.147277	0.687563	3.386133	-0.032021	-0.033033	-0.034692	0.335473	0.540241	0.199499	-0.745518
47879	-9.154817	0.693998	3.415989	-0.046379	-0.055360	-0.016970	0.335466	0.540244	0.199510	-0.745517
47880	-9.154079	0.693644	3.394162	-0.031848	-0.041872	-0.025151	0.335446	0.540257	0.199560	-0.745503
47881	-9.154687	0.692106	3.392834	-0.031815	-0.040697	-0.025146	0.335417	0.540267	0.199592	-0.745500
47882	-9.154008	0.715083	3.413524	-0.029825	-0.071198	-0.017107	0.335404	0.540282	0.199612	-0.745490
47883	-9.162871	0.697076	3.421308	-0.046161	-0.061761	-0.007407	0.335372	0.540299	0.199648	-0.745482
47884	-9.162177	0.696509	3.399379	-0.031638	-0.048303	-0.015593	0.335361	0.540302	0.199689	-0.745474
47885	-9.165343	0.693308	3.439363	-0.060604	-0.071828	0.000802	0.335333	0.540330	0.199716	-0.745459
47886	-9.139213	0.707316	3.419641	-0.042437	-0.077271	-0.029452	0.335336	0.540330	0.199756	-0.745447
47887	-9.158087	0.683933	3.385308	-0.031680	-0.033734	-0.025119	0.335306	0.540334	0.199780	-0.745450
47888	-9.152971	0.697362	3.416292	-0.044190	-0.065520	-0.018403	0.335295	0.540348	0.199821	-0.745435
47889	-9.157189	0.646652	3.391888	-0.062571	-0.013382	-0.026315	0.335310	0.540348	0.199855	-0.745419
47890	-9.155116	0.670969	3.392224	-0.046120	-0.031499	-0.026452	0.335311	0.540354	0.199852	-0.745415
47891	-9.166993	0.687366	3.412219	-0.045934	-0.052521	-0.007352	0.335319	0.540352	0.199848	-0.745414
47892	-9.148879	0.685379	3.402106	-0.044205	-0.049709	-0.027922	0.335320	0.540364	0.199839	-0.745408
47893	-9.164035	0.711993	3.390931	-0.015106	-0.057141	-0.015678	0.335304	0.540382	0.199856	-0.745396
47894	-9.161365	0.700623	3.420729	-0.044071	-0.069538	-0.008806	0.335319	0.540384	0.199871	-0.745385
47895	-9.160542	0.700442	3.399002	-0.029602	-0.056001	-0.017008	0.335309	0.540391	0.199907	-0.745374
47896	-9.150814	0.681152	3.397748	-0.044213	-0.044990	-0.027899	0.335322	0.540390	0.199944	-0.745359
47897	-9.148850	0.705220	3.397907	-0.027737	-0.063120	-0.028015	0.335309	0.540405	0.199964	-0.745349
47898	-9.179265	0.699080	3.384153	-0.016866	-0.041674	-0.004625	0.335286	0.540418	0.199981	-0.745345
47899	-9.162361	0.672427	3.351989	-0.017134	-0.007196	-0.033296	0.335292	0.540417	0.199980	-0.745343
47900	-9.150099	0.702169	3.395175	-0.027821	-0.059495	-0.027993	0.335285	0.540405	0.199966	-0.745359
47901	-9.144666	0.715951	3.427134	-0.040408	-0.091236	-0.021222	0.335279	0.540373	0.199966	-0.745385
47902	-9.154932	0.709509	3.384362	-0.013310	-0.055890	-0.026636	0.335280	0.540364	0.199970	-0.745390
47903	-9.165867	0.666568	3.391733	-0.046128	-0.027135	-0.016850	0.335277	0.540342	0.199973	-0.745406
47904	-9.164945	0.689727	3.413344	-0.044181	-0.057649	-0.008730	0.335279	0.540320	0.199982	-0.745419
47905	-9.137067	0.704833	3.374132	-0.011615	-0.050739	-0.047195	0.335267	0.540288	0.199977	-0.745449
47906	-9.139872	0.701871	3.415234	-0.040567	-0.074192	-0.030737	0.335258	0.540272	0.199967	-0.745467
47907	-9.165466	0.686475	3.412601	-0.044246	-0.053993	-0.008709	0.335243	0.540259	0.199947	-0.745489
47908	-9.144848	0.709372	3.404021	-0.026092	-0.070539	-0.029377	0.335229	0.540262	0.199955	-0.745491
47909	-9.173022	0.668542	3.399735	-0.046180	-0.031030	-0.007262	0.335208	0.540252	0.199957	-0.745506
47910	-9.165137	0.683926	3.389966	-0.029837	-0.038120	-0.016922	0.335189	0.540245	0.199977	-0.745515
47911	-9.165559	0.682632	3.389085	-0.029817	-0.036899	-0.016918	0.335172	0.540252	0.199991	-0.745514
47912	-9.158760	0.673709	3.357406	-0.015461	-0.012273	-0.034724	0.335133	0.540229	0.199983	-0.745550
47913	-9.150230	0.677119	3.420261	-0.057013	-0.057559	-0.021016	0.335126	0.540216	0.199953	-0.745571
47914	-9.171066	0.712153	3.419953	-0.027841	-0.075971	0.000831	0.335113	0.540218	0.199965	-0.745572
47915	-9.169069	0.652915	3.385730	-0.046422	-0.012673	-0.016822	0.335103	0.540200	0.199960	-0.745591
47916	-9.173664	0.661369	3.375334	-0.031907	-0.010233	-0.015480	0.335124	0.540163	0.199956	-0.745609
47917	-9.169101	0.651379	3.385939	-0.046515	-0.010298	-0.016820	0.335141	0.540121	0.199893	-0.745649
47918	-9.167628	0.675672	3.408949	-0.044562	-0.040774	-0.008647	0.335199	0.540042	0.199817	-0.745700
47919	-9.133542	0.707008	3.403445	-0.024573	-0.066851	-0.040287	0.335247	0.539979	0.199744	-0.745745
47920	-9.158470	0.692809	3.402296	-0.028277	-0.046631	-0.018291	0.335292	0.539923	0.199654	-0.745788
47921	-9.145464	0.700421	3.404218	-0.026493	-0.054923	-0.029278	0.335334	0.539890	0.199580	-0.745813
47922	-9.158057	0.693165	3.403336	-0.028379	-0.044219	-0.018280	0.335366	0.539865	0.199554	-0.745824
47923	-9.141181	0.713988	3.457245	-0.053563	-0.097770	-0.014163	0.335382	0.539847	0.199518	-0.745839
47924	-9.151445	0.707909	3.414349	-0.026564	-0.062392	-0.019667	0.335378	0.539848	0.199524	-0.745839
47925	-9.164223	0.699890	3.413120	-0.028464	-0.051673	-0.008671	0.335388	0.539802	0.199477	-0.745881
47926	-9.161605	0.641062	3.380467	-0.047033	0.011555	-0.026412	0.335410	0.539716	0.199447	-0.745941
47927	-9.142786	0.663024	3.415355	-0.057742	-0.029680	-0.030532	0.335479	0.539630	0.199340	-0.746000
47928	-9.152503	0.705054	3.460062	-0.055601	-0.082269	-0.003121	0.335545	0.539534	0.199228	-0.746070
47929	-9.160469	0.701092	3.398967	-0.014141	-0.034622	-0.016907	0.335632	0.539441	0.199149	-0.746120
47930	-9.125452	0.697172	3.423428	-0.039555	-0.054980	-0.041547	0.335692	0.539366	0.199051	-0.746173
47931	-9.142308	0.723204	3.455918	-0.039370	-0.087006	-0.012735	0.335753	0.539308	0.198981	-0.746206
47932	-9.141735	0.699823	3.414345	-0.027003	-0.041799	-0.029215	0.335782	0.539248	0.198921	-0.746252
47933	-9.146137	0.649295	3.412914	-0.059965	-0.001963	-0.029141	0.335817	0.539185	0.198836	-0.746305
47934	-9.130567	0.765221	3.451053	-0.006694	-0.110933	-0.022374	0.335855	0.539145	0.198768	-0.746335
47935	-9.150281	0.682463	3.446597	-0.057945	-0.042299	-0.011295	0.335880	0.539120	0.198701	-0.746359
47936	-9.158047	0.725698	3.448298	-0.026937	-0.070199	-0.000370	0.335914	0.539089	0.198653	-0.746379
47937	-9.144095	0.733400	3.428787	-0.010669	-0.066206	-0.019607	0.335910	0.539071	0.198634	-0.746399
47938	-9.144299	0.732440	3.428448	-0.010737	-0.064992	-0.019599	0.335888	0.539061	0.198623	-0.746419
47939	-9.159614	0.698709	3.425710	-0.029088	-0.034975	-0.008599	0.335861	0.539040	0.198625	-0.746446
47940	-9.157543	0.662947	3.434835	-0.060134	-0.015718	-0.009916	0.335858	0.538994	0.198583	-0.746491
47941	-9.158087	0.697898	3.406036	-0.014746	-0.020217	-0.016868	0.335871	0.538927	0.198519	-0.746552
47942	-9.133478	0.711048	3.430440	-0.025525	-0.050420	-0.030524	0.335897	0.538827	0.198446	-0.746631
47943	-9.147924	0.678261	3.429798	-0.043896	-0.020374	-0.019540	0.335933	0.538746	0.198372	-0.746693
47944	-9.154054	0.662761	3.420277	-0.045845	0.001388	-0.018192	0.336006	0.538639	0.198249	-0.746770
47945	-9.131399	0.735136	3.478813	-0.038086	-0.090805	-0.013947	0.336087	0.538551	0.198157	-0.746822
47946	-9.092736	0.757371	3.483623	-0.032589	-0.118256	-0.046827	0.336145	0.538486	0.198077	-0.746863
47947	-9.127966	0.737335	3.439767	-0.009326	-0.063788	-0.030496	0.336175	0.538448	0.198052	-0.746884
47948	-9.137385	0.719402	3.469703	-0.040179	-0.066671	-0.012579	0.336198	0.538430	0.198008	-0.746898
47949	-9.130530	0.734955	3.481132	-0.038255	-0.086068	-0.013905	0.336216	0.538411	0.197976	-0.746912
47950	-9.139752	0.670039	3.425703	-0.044308	-0.001031	-0.029156	0.336214	0.538395	0.197941	-0.746934
47951	-9.116718	0.742470	3.461345	-0.022093	-0.080874	-0.033133	0.336252	0.538383	0.197884	-0.746940
47952	-9.133055	0.708959	3.479682	-0.054904	-0.063139	-0.013886	0.336274	0.538353	0.197856	-0.746960
47953	-9.142426	0.750763	3.501338	-0.038314	-0.103349	0.005399	0.336294	0.538362	0.197853	-0.746945
47954	-9.155273	0.719359	3.456983	-0.027791	-0.048676	-0.000242	0.336309	0.538348	0.197863	-0.746946
47955	-9.120882	0.667033	3.393942	-0.028388	0.018727	-0.058042	0.336309	0.538341	0.197884	-0.746945
47956	-9.139785	0.690733	3.445283	-0.042636	-0.025506	-0.020840	0.336316	0.538326	0.197873	-0.746955
47957	-9.165176	0.675603	3.443112	-0.046356	-0.005200	0.001065	0.336356	0.538281	0.197849	-0.746977
47958	-9.117548	0.738397	3.460029	-0.022463	-0.072564	-0.033068	0.336417	0.538213	0.197760	-0.747022
47959	-9.120529	0.772405	3.472756	-0.005955	-0.101694	-0.023391	0.336465	0.538161	0.197703	-0.747053
47960	-9.121446	0.747794	3.451416	-0.007996	-0.068913	-0.031714	0.336487	0.538118	0.197677	-0.747080
47961	-9.104320	0.744699	3.462781	-0.020715	-0.078575	-0.043989	0.336487	0.538094	0.197690	-0.747094
47962	-9.147443	0.694930	3.499268	-0.071665	-0.054040	0.005432	0.336483	0.538082	0.197664	-0.747112
47963	-9.172548	0.716191	3.446528	-0.015519	-0.027078	0.012085	0.336489	0.538061	0.197641	-0.747130
47964	-9.139167	0.686983	3.447671	-0.042926	-0.015955	-0.020821	0.336511	0.538003	0.197587	-0.747176
47965	-9.154997	0.653596	3.467250	-0.075770	0.001813	-0.001610	0.336563	0.537926	0.197487	-0.747235
47966	-9.141343	0.721444	3.462463	-0.026492	-0.043852	-0.011123	0.336664	0.537828	0.197377	-0.747289
47967	-9.117304	0.712045	3.465913	-0.039311	-0.042500	-0.033044	0.336777	0.537711	0.197218	-0.747364
47968	-9.132171	0.740193	3.479324	-0.024607	-0.062048	-0.012398	0.336898	0.537595	0.197066	-0.747433
47969	-9.120618	0.723590	3.482160	-0.039296	-0.051099	-0.023380	0.337021	0.537453	0.196939	-0.747513
47970	-9.132006	0.717734	3.484181	-0.041189	-0.040353	-0.012439	0.337143	0.537331	0.196779	-0.747588
47971	-9.136294	0.787735	3.489712	0.006344	-0.087470	-0.001327	0.337249	0.537215	0.196631	-0.747663
47972	-9.098757	0.690149	3.531978	-0.097565	-0.052680	-0.028708	0.337346	0.537095	0.196481	-0.747745
47973	-9.126207	0.770203	3.536191	-0.037295	-0.099966	0.004345	0.337424	0.536997	0.196384	-0.747805
47974	-9.112641	0.754517	3.496789	-0.023111	-0.064455	-0.023287	0.337494	0.536899	0.196282	-0.747871
47975	-9.149797	0.733309	3.495858	-0.028734	-0.034533	0.009509	0.337586	0.536787	0.196184	-0.747936
47976	-9.108652	0.720838	3.510392	-0.054187	-0.044034	-0.024678	0.337651	0.536673	0.196080	-0.748015
47977	-9.126238	0.722403	3.521897	-0.056014	-0.044272	-0.004082	0.337739	0.536572	0.196011	-0.748066
47978	-9.110475	0.755091	3.525872	-0.037717	-0.071929	-0.014927	0.337818	0.536487	0.195946	-0.748108
47979	-9.112347	0.752694	3.568636	-0.066628	-0.095341	0.001743	0.337885	0.536377	0.195974	-0.748150
47980	-9.127774	0.717027	3.566137	-0.085003	-0.065284	0.012598	0.338019	0.536300	0.196333	-0.748050
47981	-9.115977	0.732061	3.472532	-0.010942	-0.023156	-0.030317	0.338220	0.536188	0.196782	-0.747922
47982	-9.088204	0.731114	3.504139	-0.036222	-0.054723	-0.045157	0.338377	0.536084	0.197114	-0.747837
47983	-9.113147	0.736575	3.522885	-0.037974	-0.065999	-0.014887	0.338528	0.535993	0.197423	-0.747753
47984	-9.110287	0.758992	3.502469	-0.007122	-0.071786	-0.023127	0.338697	0.535910	0.197699	-0.747663
47985	-9.132765	0.707711	3.487843	-0.027487	-0.021118	-0.011050	0.338830	0.535820	0.197888	-0.747617
47986	-9.109871	0.718278	3.531622	-0.052696	-0.063697	-0.016199	0.338962	0.535717	0.197963	-0.747611
47987	-9.147266	0.732201	3.479443	0.001525	-0.027144	0.001302	0.339078	0.535599	0.197979	-0.747639
47988	-9.090481	0.715490	3.525031	-0.051058	-0.059901	-0.036777	0.339200	0.535495	0.197977	-0.747659
47989	-9.100167	0.792805	3.519075	0.011024	-0.105730	-0.024217	0.339322	0.535396	0.198019	-0.747663
47990	-9.118425	0.709921	3.494300	-0.025899	-0.024789	-0.021952	0.339407	0.535298	0.198046	-0.747688
47991	-9.122580	0.741624	3.528105	-0.023818	-0.066182	-0.003812	0.339486	0.535192	0.198046	-0.747728
47992	-9.114300	0.697324	3.527551	-0.054985	-0.036013	-0.014932	0.339582	0.535101	0.198105	-0.747734
47993	-9.101465	0.762758	3.521534	-0.005673	-0.081680	-0.024278	0.339692	0.535021	0.198243	-0.747704
47994	-9.109690	0.720647	3.488047	-0.009732	-0.028341	-0.031514	0.339765	0.534932	0.198346	-0.747708
47995	-9.101484	0.759030	3.522290	-0.005797	-0.079315	-0.024258	0.339783	0.534867	0.198316	-0.747754
47996	-9.108066	0.742691	3.511728	-0.007800	-0.057530	-0.023034	0.339756	0.534811	0.198220	-0.747832
47997	-9.107535	0.742528	3.513139	-0.007840	-0.056356	-0.023027	0.339695	0.534753	0.198063	-0.747942
47998	-9.123057	0.709541	3.533009	-0.040741	-0.038533	-0.003884	0.339641	0.534715	0.197849	-0.748051
47999	-9.101509	0.734838	3.526714	-0.022555	-0.055227	-0.024347	0.339551	0.534694	0.197579	-0.748178
48000	-9.132988	0.705748	3.514837	-0.028345	-0.014208	-0.001336	0.339477	0.534648	0.197358	-0.748302
48001	-9.095308	0.727545	3.540635	-0.037253	-0.054111	-0.025669	0.339436	0.534598	0.197139	-0.748414
48002	-9.074857	0.751751	3.555149	-0.033497	-0.083100	-0.037760	0.339376	0.534556	0.196908	-0.748533
48003	-9.077572	0.763412	3.525843	-0.004611	-0.068287	-0.044780	0.339283	0.534548	0.196666	-0.748644
48004	-9.067910	0.745577	3.547277	-0.033735	-0.069690	-0.047440	0.339169	0.534554	0.196436	-0.748752
48005	-9.111255	0.733431	3.555419	-0.039339	-0.050593	-0.005049	0.339081	0.534566	0.196201	-0.748844
48006	-9.083318	0.751254	3.516627	-0.006862	-0.044031	-0.043566	0.338967	0.534612	0.195961	-0.748926
48007	-9.057768	0.814391	3.603763	-0.027950	-0.149742	-0.031568	0.338814	0.534705	0.195653	-0.749010
48008	-9.075339	0.817819	3.591446	-0.015397	-0.137577	-0.019326	0.338669	0.534802	0.195514	-0.749042
48009	-9.111894	0.714354	3.510394	-0.027372	-0.001856	-0.021924	0.338512	0.534895	0.195404	-0.749075
48010	-9.102332	0.742832	3.593290	-0.066836	-0.078645	0.000840	0.338346	0.535008	0.195290	-0.749099
48011	-9.088337	0.751332	3.550585	-0.036208	-0.062522	-0.026789	0.338207	0.535119	0.195236	-0.749097
48012	-9.101129	0.827129	3.560454	0.011432	-0.120472	-0.005706	0.338027	0.535271	0.195219	-0.749074
48013	-9.154519	0.688059	3.496132	-0.033388	0.031850	0.010727	0.337829	0.535384	0.195263	-0.749071
48014	-9.081302	0.751735	3.562167	-0.049053	-0.080809	-0.029271	0.337642	0.535505	0.195288	-0.749062
48015	-9.098990	0.752072	3.526599	-0.022024	-0.056398	-0.025427	0.337453	0.535633	0.195351	-0.749040
48016	-9.144396	0.712196	3.487401	-0.015283	0.006541	0.000002	0.337248	0.535771	0.195419	-0.749016
48017	-9.120695	0.687569	3.536527	-0.071493	-0.018101	-0.006495	0.337107	0.535846	0.195467	-0.749013
48018	-9.125128	0.635977	3.510991	-0.090118	0.033929	-0.015228	0.337015	0.535923	0.195469	-0.748999
48019	-9.105676	0.742462	3.534976	-0.036752	-0.063900	-0.017014	0.336963	0.536019	0.195462	-0.748956
48020	-9.129972	0.811873	3.523315	0.023454	-0.099923	0.006617	0.336871	0.536118	0.195497	-0.748917
48021	-9.110659	0.773731	3.519769	-0.005883	-0.079454	-0.015484	0.336728	0.536220	0.195587	-0.748885
48022	-9.105482	0.786469	3.527650	-0.003992	-0.098822	-0.016623	0.336594	0.536319	0.195704	-0.748843
48023	-9.126884	0.759492	3.510912	-0.007912	-0.067381	-0.004593	0.336401	0.536455	0.195869	-0.748790
48024	-9.127653	0.696275	3.493402	-0.041095	-0.016671	-0.014691	0.336219	0.536590	0.196027	-0.748733
48025	-9.097573	0.722950	3.502677	-0.035460	-0.055342	-0.037570	0.336063	0.536700	0.196161	-0.748690
48026	-9.129364	0.714012	3.485865	-0.024772	-0.033513	-0.014493	0.335894	0.536844	0.196299	-0.748626
48027	-9.135650	0.660106	3.479152	-0.057886	0.006229	-0.014884	0.335733	0.536961	0.196400	-0.748587
48028	-9.096387	0.728926	3.501702	-0.033752	-0.072333	-0.038685	0.335594	0.537076	0.196475	-0.748548
48029	-9.135883	0.703996	3.494694	-0.039457	-0.042189	-0.006081	0.335442	0.537188	0.196573	-0.748510
48030	-9.124951	0.708284	3.492025	-0.037649	-0.050648	-0.016940	0.335279	0.537303	0.196660	-0.748478
48031	-9.133322	0.689429	3.476832	-0.039701	-0.028840	-0.015809	0.335128	0.537414	0.196745	-0.748443
48032	-9.121554	0.718439	3.495997	-0.035818	-0.068823	-0.018052	0.334996	0.537535	0.196832	-0.748392
48033	-9.127240	0.749242	3.503163	-0.019272	-0.097804	-0.008092	0.334829	0.537687	0.196958	-0.748324
48034	-9.109245	0.685645	3.476220	-0.050735	-0.045840	-0.038851	0.334660	0.537846	0.197106	-0.748247
48035	-9.126471	0.709292	3.460980	-0.021649	-0.052938	-0.026437	0.334480	0.537998	0.197239	-0.748183
48036	-9.125878	0.755088	3.478913	-0.003136	-0.102524	-0.017581	0.334269	0.538161	0.197396	-0.748119
48037	-9.144326	0.669321	3.427604	-0.025790	-0.009342	-0.024204	0.334048	0.538324	0.197561	-0.748057
48038	-9.136228	0.694999	3.486405	-0.050781	-0.073850	-0.009593	0.333813	0.538501	0.197725	-0.747991
48039	-9.110932	0.671111	3.492468	-0.078127	-0.074026	-0.032850	0.333531	0.538685	0.197805	-0.747963
48040	-9.162664	0.649842	3.389081	-0.013515	0.016206	-0.021766	0.333283	0.538889	0.198002	-0.747874
48041	-9.134264	0.699683	3.439522	-0.020181	-0.066301	-0.027502	0.333067	0.539051	0.198156	-0.747813
48042	-9.164266	0.630926	3.408938	-0.042603	0.004963	-0.014685	0.332852	0.539211	0.198313	-0.747751
48043	-9.127225	0.722236	3.472604	-0.030760	-0.117399	-0.021258	0.332641	0.539375	0.198486	-0.747682
48044	-9.166800	0.647568	3.399526	-0.026240	-0.011895	-0.014447	0.332424	0.539527	0.198635	-0.747629
48045	-9.135227	0.615435	3.395774	-0.053715	-0.001160	-0.047468	0.332231	0.539683	0.198765	-0.747567
48046	-9.165887	0.655461	3.421925	-0.038833	-0.042323	-0.007108	0.332077	0.539829	0.198861	-0.747505
48047	-9.157913	0.694329	3.409281	-0.005971	-0.068716	-0.016367	0.331920	0.539972	0.199008	-0.747433
48048	-9.130161	0.720765	3.438389	-0.014736	-0.119706	-0.030698	0.331752	0.540166	0.199187	-0.747319
48049	-9.176896	0.678170	3.417024	-0.022464	-0.068900	0.002919	0.331533	0.540355	0.199395	-0.747224
48050	-9.161385	0.647885	3.379828	-0.022854	-0.034937	-0.026359	0.331312	0.540544	0.199617	-0.747126
48051	-9.178155	0.634794	3.392815	-0.039279	-0.036322	-0.007086	0.331113	0.540740	0.199833	-0.747015
48052	-9.186809	0.638766	3.397011	-0.039254	-0.046032	0.002683	0.330917	0.540910	0.200022	-0.746928
48053	-9.185017	0.600568	3.379789	-0.055993	-0.014666	-0.007340	0.330743	0.541076	0.200235	-0.746828
48054	-9.172856	0.629514	3.376883	-0.037660	-0.042419	-0.017909	0.330609	0.541222	0.200379	-0.746742
48055	-9.192169	0.603759	3.338540	-0.027222	0.001269	-0.014442	0.330472	0.541374	0.200513	-0.746658
48056	-9.164480	0.606581	3.346879	-0.038073	-0.018229	-0.037440	0.330346	0.541505	0.200618	-0.746590
48057	-9.164157	0.653552	3.365603	-0.019516	-0.067792	-0.028454	0.330217	0.541635	0.200723	-0.746524
48058	-9.180191	0.642314	3.380303	-0.035891	-0.069145	-0.009175	0.330091	0.541788	0.200863	-0.746431
48059	-9.169824	0.622509	3.355049	-0.036202	-0.046132	-0.028716	0.329995	0.541917	0.200998	-0.746344
48060	-9.174598	0.629923	3.319351	-0.007312	-0.031351	-0.035822	0.329869	0.542072	0.201118	-0.746254
48061	-9.181236	0.649157	3.398517	-0.048516	-0.098406	-0.001756	0.329751	0.542198	0.201222	-0.746188
48062	-9.173722	0.639586	3.342148	-0.019874	-0.061786	-0.028415	0.329612	0.542374	0.201365	-0.746082
48063	-9.183829	0.619367	3.345996	-0.036370	-0.052236	-0.018916	0.329447	0.542516	0.201519	-0.746010
48064	-9.198380	0.608452	3.339606	-0.038358	-0.041336	-0.008087	0.329323	0.542678	0.201662	-0.745908
48065	-9.158475	0.643061	3.370591	-0.045203	-0.102052	-0.033136	0.329193	0.542832	0.201829	-0.745809
48066	-9.198217	0.568093	3.317536	-0.055177	-0.008825	-0.018156	0.329057	0.542999	0.202004	-0.745699
48067	-9.167492	0.621224	3.327425	-0.032932	-0.066864	-0.040531	0.328930	0.543171	0.202164	-0.745587
48068	-9.188587	0.618692	3.330330	-0.034785	-0.066880	-0.019919	0.328768	0.543369	0.202355	-0.745462
48069	-9.189394	0.615705	3.303353	-0.020466	-0.053429	-0.028367	0.328616	0.543559	0.202564	-0.745334
48070	-9.199821	0.546033	3.262358	-0.041179	0.019077	-0.036401	0.328443	0.543756	0.202763	-0.745212
48071	-9.202192	0.567046	3.278257	-0.039138	-0.011217	-0.027638	0.328342	0.543919	0.202924	-0.745094
48072	-9.198280	0.628629	3.328222	-0.032950	-0.093619	-0.011119	0.328213	0.544062	0.203107	-0.744997
48073	-9.220788	0.576326	3.308554	-0.053450	-0.042936	0.000411	0.328087	0.544238	0.203277	-0.744877
48074	-9.194688	0.614327	3.286171	-0.018803	-0.068153	-0.029355	0.327958	0.544411	0.203464	-0.744756
48075	-9.232446	0.588936	3.255627	-0.010165	-0.025615	-0.005381	0.327842	0.544570	0.203650	-0.744640
48076	-9.225526	0.567186	3.271291	-0.039277	-0.027122	-0.008041	0.327741	0.544708	0.203798	-0.744544
48077	-9.213125	0.597683	3.269589	-0.020969	-0.054884	-0.018523	0.327672	0.544828	0.203884	-0.744463
48078	-9.228999	0.586981	3.284705	-0.037359	-0.056219	0.000757	0.327593	0.544946	0.204013	-0.744376
48079	-9.223977	0.551890	3.248780	-0.039714	-0.012681	-0.017834	0.327540	0.545047	0.204106	-0.744300
48080	-9.202206	0.564692	3.269088	-0.050423	-0.043159	-0.030969	0.327520	0.545128	0.204161	-0.744234
48081	-9.215798	0.556052	3.264538	-0.052415	-0.032271	-0.020162	0.327504	0.545233	0.204215	-0.744150
48082	-9.202987	0.588183	3.263827	-0.034057	-0.060021	-0.030626	0.327481	0.545346	0.204250	-0.744067
48083	-9.215007	0.605052	3.260291	-0.019503	-0.068354	-0.019482	0.327438	0.545449	0.204283	-0.744001
48084	-9.211660	0.594621	3.267810	-0.034094	-0.068540	-0.020805	0.327397	0.545523	0.204330	-0.743952
48085	-9.219079	0.601586	3.275249	-0.034053	-0.078291	-0.010988	0.327370	0.545598	0.204403	-0.743890
48086	-9.195615	0.639546	3.297289	-0.028195	-0.128042	-0.023750	0.327263	0.545678	0.204433	-0.743869
48087	-9.240890	0.524403	3.234033	-0.056776	0.005033	-0.008364	0.327204	0.545709	0.204511	-0.743851
48088	-9.210466	0.529607	3.224850	-0.053159	-0.002343	-0.039766	0.327192	0.545759	0.204535	-0.743813
48089	-9.231068	0.589544	3.224044	-0.007424	-0.039422	-0.017126	0.327203	0.545778	0.204524	-0.743797
48090	-9.211296	0.528380	3.222678	-0.053350	-0.000026	-0.039767	0.327240	0.545759	0.204528	-0.743794
48091	-9.212302	0.563630	3.192652	-0.007970	-0.004492	-0.046566	0.327291	0.545748	0.204481	-0.743792
48092	-9.218451	0.585650	3.276140	-0.049111	-0.071477	-0.012259	0.327330	0.545741	0.204435	-0.743793
48093	-9.197929	0.585720	3.246300	-0.033025	-0.056932	-0.041347	0.327369	0.545752	0.204428	-0.743770
48094	-9.219505	0.596535	3.223199	-0.005954	-0.043285	-0.027892	0.327411	0.545757	0.204400	-0.743755
48095	-9.227778	0.579572	3.231300	-0.022444	-0.033751	-0.018431	0.327445	0.545776	0.204393	-0.743728
48096	-9.217248	0.561765	3.230767	-0.037154	-0.023064	-0.029581	0.327480	0.545776	0.204366	-0.743720
48097	-9.219278	0.560967	3.251084	-0.051671	-0.034153	-0.021085	0.327529	0.545765	0.204319	-0.743720
48098	-9.207156	0.593161	3.274491	-0.047675	-0.074170	-0.022995	0.327564	0.545738	0.204267	-0.743738
48099	-9.210328	0.542866	3.272065	-0.080823	-0.034570	-0.023738	0.327617	0.545735	0.204211	-0.743732
48100	-9.213107	0.578309	3.262877	-0.049855	-0.051272	-0.022027	0.327686	0.545726	0.204111	-0.743736
48101	-9.228438	0.630708	3.274534	-0.018601	-0.089704	-0.000652	0.327753	0.545688	0.204021	-0.743759
48102	-9.221441	0.598402	3.243280	-0.020944	-0.046225	-0.019355	0.327814	0.545642	0.203969	-0.743780
48103	-9.208785	0.606265	3.245394	-0.019122	-0.054825	-0.030127	0.327852	0.545609	0.203896	-0.743808
48104	-9.204173	0.596719	3.256361	-0.033706	-0.055032	-0.031451	0.327872	0.545559	0.203880	-0.743840
48105	-9.214429	0.589251	3.235070	-0.021302	-0.031889	-0.029174	0.327900	0.545490	0.203834	-0.743891
48106	-9.222029	0.571845	3.245177	-0.037810	-0.022313	-0.019727	0.327913	0.545424	0.203770	-0.743951
48107	-9.205157	0.594287	3.279901	-0.048357	-0.063679	-0.022925	0.327941	0.545374	0.203713	-0.743991
48108	-9.221731	0.595417	3.268907	-0.035825	-0.051376	-0.010817	0.327963	0.545305	0.203677	-0.744042
48109	-9.219148	0.571433	3.227533	-0.023657	-0.006547	-0.028231	0.328007	0.545244	0.203617	-0.744084
48110	-9.208641	0.602537	3.272369	-0.034104	-0.058757	-0.021574	0.328032	0.545198	0.203550	-0.744125
48111	-9.212801	0.611353	3.262847	-0.019671	-0.056223	-0.020237	0.328058	0.545128	0.203519	-0.744173
48112	-9.196940	0.559397	3.252581	-0.051072	-0.015505	-0.041656	0.328087	0.545078	0.203479	-0.744208
48113	-9.166161	0.614871	3.289625	-0.043115	-0.085900	-0.055179	0.328105	0.545039	0.203413	-0.744246
48114	-9.190017	0.673152	3.331702	-0.026103	-0.147324	-0.015372	0.328095	0.545019	0.203410	-0.744266
48115	-9.204176	0.614251	3.306185	-0.046813	-0.085748	-0.013939	0.328052	0.545050	0.203468	-0.744247
48116	-9.207207	0.597727	3.251450	-0.020119	-0.039585	-0.030055	0.327999	0.545077	0.203559	-0.744226
48117	-9.205134	0.560784	3.258810	-0.051269	-0.020591	-0.031800	0.327943	0.545103	0.203630	-0.744212
48118	-9.197963	0.575524	3.248026	-0.034919	-0.027805	-0.041227	0.327910	0.545131	0.203702	-0.744186
48119	-9.192697	0.589692	3.257868	-0.032947	-0.047216	-0.042130	0.327847	0.545170	0.203731	-0.744177
48120	-9.218517	0.597168	3.275217	-0.034715	-0.057962	-0.011660	0.327826	0.545182	0.203771	-0.744167
48121	-9.203257	0.544269	3.263189	-0.066156	-0.017281	-0.033122	0.327800	0.545173	0.203787	-0.744181
48122	-9.218390	0.545815	3.230240	-0.039269	0.007235	-0.029564	0.327835	0.545158	0.203766	-0.744182
48123	-9.200699	0.618136	3.287176	-0.031036	-0.084817	-0.023289	0.327865	0.545118	0.203714	-0.744212
48124	-9.189783	0.599926	3.287728	-0.045752	-0.074152	-0.034467	0.327865	0.545089	0.203699	-0.744237
48125	-9.210267	0.574581	3.294939	-0.064180	-0.054836	-0.014286	0.327866	0.545088	0.203679	-0.744243
48126	-9.188288	0.599278	3.266176	-0.031531	-0.059591	-0.042983	0.327868	0.545094	0.203681	-0.744238
48127	-9.198538	0.580599	3.294838	-0.062483	-0.062254	-0.025023	0.327868	0.545105	0.203691	-0.744227
48128	-9.203907	0.613029	3.305018	-0.045839	-0.091166	-0.014706	0.327838	0.545124	0.203729	-0.744215
48129	-9.197289	0.554035	3.249872	-0.050399	-0.016305	-0.042532	0.327810	0.545132	0.203785	-0.744206
48130	-9.208621	0.570272	3.248514	-0.035801	-0.024583	-0.031334	0.327809	0.545137	0.203787	-0.744203
48131	-9.211750	0.617400	3.311919	-0.045908	-0.098440	-0.004806	0.327806	0.545143	0.203785	-0.744200
48132	-9.217702	0.575764	3.277575	-0.050228	-0.045234	-0.012919	0.327788	0.545144	0.203809	-0.744200
48133	-9.205613	0.582401	3.278399	-0.048396	-0.053828	-0.023655	0.327804	0.545135	0.203797	-0.744204
48134	-9.183646	0.620309	3.322772	-0.056889	-0.115816	-0.027581	0.327773	0.545171	0.203824	-0.744184
48135	-9.212317	0.637654	3.308285	-0.029732	-0.112924	-0.004298	0.327728	0.545234	0.203932	-0.744127
48136	-9.200428	0.593789	3.262729	-0.032260	-0.058626	-0.033046	0.327631	0.545339	0.204065	-0.744057
48137	-9.187652	0.599115	3.239769	-0.015990	-0.055049	-0.052324	0.327521	0.545427	0.204215	-0.743999
48138	-9.215475	0.555111	3.231661	-0.036461	-0.015105	-0.031317	0.327412	0.545530	0.204357	-0.743933
48139	-9.234313	0.577812	3.237810	-0.021754	-0.034194	-0.010230	0.327310	0.545607	0.204495	-0.743884
48140	-9.238487	0.524145	3.232380	-0.054992	0.005392	-0.011177	0.327210	0.545664	0.204583	-0.743862
48141	-9.231433	0.538665	3.221383	-0.038683	-0.001767	-0.020582	0.327161	0.545687	0.204629	-0.743854
48142	-9.215594	0.559933	3.254181	-0.049185	-0.043185	-0.023606	0.327154	0.545673	0.204637	-0.743865
48143	-9.209268	0.550595	3.243829	-0.049416	-0.031196	-0.033486	0.327169	0.545645	0.204619	-0.743884
48144	-9.202048	0.591172	3.256457	-0.030820	-0.069842	-0.033839	0.327157	0.545643	0.204606	-0.743894
48145	-9.215421	0.606598	3.275710	-0.030634	-0.090272	-0.014058	0.327119	0.545664	0.204649	-0.743883
48146	-9.223560	0.563206	3.260943	-0.049359	-0.049283	-0.013700	0.327066	0.545707	0.204730	-0.743853
48147	-9.215936	0.553754	3.228119	-0.035189	-0.025066	-0.032145	0.327020	0.545749	0.204770	-0.743832
48148	-9.202259	0.560938	3.207301	-0.018951	-0.021500	-0.051428	0.326996	0.545783	0.204792	-0.743811
48149	-9.228119	0.568795	3.224665	-0.020678	-0.032134	-0.020920	0.326964	0.545803	0.204795	-0.743810
48150	-9.216214	0.575413	3.225098	-0.018858	-0.040754	-0.031637	0.326978	0.545811	0.204821	-0.743791
48151	-9.218629	0.573395	3.244776	-0.033307	-0.051775	-0.023066	0.326956	0.545811	0.204828	-0.743798
48152	-9.225542	0.580191	3.253964	-0.033273	-0.061352	-0.013164	0.326925	0.545815	0.204870	-0.743798
48153	-9.231199	0.538115	3.219615	-0.037602	-0.008226	-0.021414	0.326909	0.545805	0.204882	-0.743808
48154	-9.216613	0.534603	3.251829	-0.064664	-0.030408	-0.024887	0.326906	0.545786	0.204867	-0.743827
48155	-9.213879	0.584446	3.254167	-0.031624	-0.067598	-0.023858	0.326923	0.545763	0.204842	-0.743844
48156	-9.213895	0.583627	3.254268	-0.031710	-0.066414	-0.023850	0.326926	0.545725	0.204829	-0.743874
48157	-9.202248	0.540796	3.233136	-0.048655	-0.024464	-0.044165	0.326956	0.545677	0.204805	-0.743903
48158	-9.213105	0.557850	3.233166	-0.034066	-0.032645	-0.032931	0.326958	0.545652	0.204755	-0.743934
48159	-9.211219	0.571898	3.286287	-0.060857	-0.076426	-0.016578	0.326990	0.545623	0.204703	-0.743956
48160	-9.203937	0.599480	3.225236	-0.001240	-0.057860	-0.041780	0.326981	0.545652	0.204695	-0.743940
48161	-9.233115	0.581468	3.262283	-0.033944	-0.061466	-0.003198	0.326992	0.545654	0.204711	-0.743930
48162	-9.208229	0.571716	3.242431	-0.032392	-0.048503	-0.033715	0.326999	0.545685	0.204714	-0.743903
48163	-9.221767	0.587719	3.261260	-0.032177	-0.068913	-0.013889	0.327003	0.545715	0.204732	-0.743874
48164	-9.213759	0.579283	3.229223	-0.018040	-0.044762	-0.032377	0.327000	0.545727	0.204755	-0.743860
48165	-9.224398	0.571628	3.206278	-0.005717	-0.021575	-0.030254	0.327022	0.545723	0.204738	-0.743858
48166	-9.222646	0.584943	3.259274	-0.032498	-0.065346	-0.013866	0.327035	0.545653	0.204747	-0.743901
48167	-9.206313	0.532942	3.249108	-0.063972	-0.024836	-0.035560	0.327082	0.545594	0.204689	-0.743940
48168	-9.223167	0.558998	3.260609	-0.049233	-0.043769	-0.014396	0.327146	0.545486	0.204585	-0.744020
48169	-9.202183	0.510159	3.210713	-0.051940	0.021111	-0.053284	0.327225	0.545390	0.204461	-0.744090
48170	-9.200431	0.561503	3.236335	-0.033228	-0.028256	-0.043595	0.327331	0.545295	0.204257	-0.744168
48171	-9.204358	0.597336	3.250613	-0.016573	-0.057035	-0.033118	0.327431	0.545191	0.204063	-0.744254
48172	-9.188404	0.597050	3.286035	-0.043596	-0.079278	-0.036539	0.327541	0.545097	0.203880	-0.744324
48173	-9.193306	0.582954	3.276738	-0.045725	-0.057502	-0.035760	0.327635	0.545024	0.203718	-0.744381
48174	-9.185248	0.625918	3.291475	-0.027115	-0.096098	-0.035960	0.327722	0.544958	0.203590	-0.744427
48175	-9.205513	0.626950	3.322008	-0.043403	-0.108056	-0.006734	0.327811	0.544916	0.203489	-0.744445
48176	-9.210701	0.587107	3.288745	-0.047754	-0.054894	-0.015124	0.327866	0.544917	0.203463	-0.744427
48177	-9.201882	0.569208	3.309208	-0.076892	-0.056548	-0.017772	0.327949	0.544922	0.203405	-0.744403
48178	-9.210875	0.588659	3.287980	-0.047924	-0.052507	-0.015111	0.328034	0.544923	0.203339	-0.744383
48179	-9.191382	0.638484	3.301746	-0.027414	-0.100931	-0.025974	0.328116	0.544940	0.203327	-0.744337
48180	-9.209474	0.590372	3.265546	-0.033725	-0.037929	-0.023705	0.328167	0.544968	0.203338	-0.744292
48181	-9.201626	0.596330	3.306861	-0.060623	-0.070916	-0.017170	0.328230	0.545000	0.203336	-0.744241
48182	-9.200667	0.621711	3.306768	-0.044144	-0.088963	-0.016583	0.328308	0.545018	0.203354	-0.744188
48183	-9.211012	0.589995	3.261275	-0.033990	-0.034380	-0.023693	0.328346	0.545053	0.203410	-0.744131
48184	-9.200046	0.547457	3.238278	-0.051028	0.007541	-0.044150	0.328412	0.545068	0.203420	-0.744088
48185	-9.218376	0.597977	3.268974	-0.034114	-0.042745	-0.013747	0.328460	0.545088	0.203376	-0.744064
48186	-9.216644	0.598961	3.247550	-0.019829	-0.029379	-0.022356	0.328493	0.545099	0.203365	-0.744044
48187	-9.179826	0.621868	3.251486	-0.014102	-0.057681	-0.054381	0.328530	0.545096	0.203344	-0.744036
48188	-9.226351	0.629968	3.298557	-0.032003	-0.081260	0.005421	0.328537	0.545109	0.203374	-0.744016
48189	-9.220385	0.620257	3.287234	-0.032221	-0.069349	-0.004514	0.328534	0.545111	0.203426	-0.744000
48190	-9.200161	0.618552	3.256607	-0.016085	-0.055081	-0.033743	0.328491	0.545130	0.203504	-0.743985
48191	-9.199894	0.581144	3.284687	-0.061665	-0.048356	-0.027044	0.328464	0.545161	0.203560	-0.743958
48192	-9.199827	0.629147	3.306077	-0.042923	-0.097709	-0.017209	0.328431	0.545183	0.203607	-0.743944
48193	-9.215436	0.555633	3.226898	-0.037129	0.008764	-0.032892	0.328392	0.545219	0.203662	-0.743920
48194	-9.199205	0.552871	3.237492	-0.049799	-0.001335	-0.044887	0.328378	0.545238	0.203648	-0.743916
48195	-9.225435	0.585854	3.277434	-0.049299	-0.043210	-0.005080	0.328396	0.545231	0.203604	-0.743925
48196	-9.202816	0.600119	3.301105	-0.059838	-0.073886	-0.017779	0.328416	0.545202	0.203575	-0.743946
48197	-9.209158	0.594569	3.237497	-0.018736	-0.026355	-0.032991	0.328421	0.545207	0.203551	-0.743946
48198	-9.188776	0.607925	3.281237	-0.043664	-0.069227	-0.037055	0.328455	0.545204	0.203531	-0.743939
48199	-9.192884	0.592421	3.248136	-0.031442	-0.035303	-0.044974	0.328475	0.545224	0.203530	-0.743916
48200	-9.186409	0.573006	3.288579	-0.074963	-0.049140	-0.038989	0.328511	0.545253	0.203493	-0.743889
48201	-9.196451	0.616256	3.288091	-0.043731	-0.076454	-0.027072	0.328538	0.545311	0.203459	-0.743843
48202	-9.212657	0.642818	3.275104	-0.014701	-0.083168	-0.014451	0.328544	0.545385	0.203514	-0.743771
48203	-9.204934	0.623411	3.292923	-0.043836	-0.084826	-0.017093	0.328536	0.545495	0.203581	-0.743676
48204	-9.208612	0.621281	3.309262	-0.058261	-0.095844	-0.008446	0.328480	0.545655	0.203687	-0.743554
48205	-9.188510	0.644900	3.275538	-0.025620	-0.100798	-0.037057	0.328383	0.545879	0.203853	-0.743387
48206	-9.150306	0.595495	3.311946	-0.096547	-0.105906	-0.064295	0.328254	0.546155	0.204066	-0.743183
48207	-9.208344	0.729534	3.323419	-0.004460	-0.201746	0.002107	0.328051	0.546545	0.204376	-0.742901
48208	-9.226393	0.741304	3.331051	-0.004258	-0.222007	0.022069	0.327699	0.547029	0.204727	-0.742603
48209	-9.205519	0.502929	3.163180	-0.066007	0.036225	-0.066174	0.327335	0.547524	0.205283	-0.742245
48210	-9.247510	0.571138	3.188601	-0.034243	-0.034001	-0.014348	0.327011	0.548046	0.205812	-0.741856
48211	-9.222075	0.570776	3.166390	-0.030627	-0.041816	-0.045612	0.326684	0.548525	0.206336	-0.741501
48212	-9.259027	0.506269	3.135273	-0.053362	0.018833	-0.024296	0.326386	0.548978	0.206841	-0.741156
48213	-9.283647	0.535544	3.100527	-0.009794	0.013593	-0.010346	0.326155	0.549360	0.207259	-0.740858
48214	-9.273368	0.527382	3.122299	-0.036864	-0.008665	-0.013667	0.325946	0.549659	0.207608	-0.740630
48215	-9.276868	0.521883	3.112810	-0.037012	-0.007421	-0.013667	0.325765	0.549925	0.207946	-0.740418
48216	-9.254770	0.497105	3.137396	-0.078687	-0.020450	-0.028286	0.325611	0.550176	0.208235	-0.740218
48217	-9.265340	0.536576	3.109249	-0.033137	-0.035529	-0.024966	0.325452	0.550437	0.208502	-0.740018
48218	-9.273737	0.516351	3.089508	-0.035369	-0.013743	-0.024305	0.325289	0.550662	0.208737	-0.739857
48219	-9.261701	0.570495	3.087021	-0.000279	-0.060754	-0.033599	0.325122	0.550843	0.208969	-0.739729
48220	-9.284215	0.541018	3.087710	-0.018827	-0.041232	-0.013644	0.324962	0.551001	0.209207	-0.739615
48221	-9.283507	0.487786	3.038975	-0.023460	0.022590	-0.032312	0.324823	0.551090	0.209389	-0.739558
48222	-9.304898	0.459055	3.042668	-0.042001	0.042052	-0.012373	0.324715	0.551127	0.209497	-0.739547
48223	-9.295907	0.512712	3.086965	-0.035707	-0.029277	-0.004324	0.324645	0.551099	0.209519	-0.739592
48224	-9.299952	0.583188	3.153007	-0.029049	-0.122019	0.023721	0.324569	0.551013	0.209527	-0.739688
48225	-9.288552	0.512710	3.130999	-0.062716	-0.061065	0.002381	0.324477	0.550941	0.209613	-0.739758
48226	-9.276123	0.467723	3.109954	-0.079738	-0.019360	-0.018286	0.324428	0.550880	0.209642	-0.739816
48227	-9.276082	0.465539	3.110404	-0.079878	-0.018225	-0.018285	0.324415	0.550819	0.209666	-0.739860
48228	-9.263668	0.472284	3.112960	-0.078042	-0.026893	-0.028910	0.324449	0.550762	0.209609	-0.739904
48229	-9.258727	0.523666	3.096025	-0.030582	-0.051859	-0.036185	0.324510	0.550700	0.209565	-0.739936
48230	-9.270452	0.516250	3.095627	-0.032721	-0.040802	-0.025555	0.324597	0.550626	0.209448	-0.739986
48231	-9.281894	0.509158	3.096028	-0.034785	-0.029746	-0.014928	0.324688	0.550511	0.209351	-0.740059
48232	-9.272534	0.541248	3.142880	-0.045036	-0.081874	-0.007494	0.324788	0.550404	0.209214	-0.740134
48233	-9.286865	0.519190	3.111195	-0.034819	-0.038092	-0.004920	0.324901	0.550292	0.209128	-0.740191
48234	-9.265579	0.495419	3.083756	-0.035405	-0.004823	-0.034923	0.325033	0.550171	0.209008	-0.740258
48235	-9.226204	0.559902	3.146102	-0.039621	-0.097394	-0.049325	0.325149	0.550076	0.208865	-0.740317
48236	-9.258216	0.577858	3.175807	-0.041225	-0.118371	-0.008682	0.325226	0.550044	0.208807	-0.740324
48237	-9.262315	0.537630	3.142195	-0.045686	-0.065332	-0.017456	0.325280	0.550030	0.208787	-0.740316
48238	-9.257083	0.553810	3.153348	-0.043748	-0.084750	-0.018056	0.325337	0.550057	0.208772	-0.740275
48239	-9.244686	0.686778	3.201238	0.012536	-0.213544	-0.007686	0.325316	0.550149	0.208694	-0.740238
48240	-9.218921	0.428841	3.063935	-0.080402	0.051324	-0.088954	0.325264	0.550262	0.208849	-0.740133
48241	-9.266158	0.584662	3.155218	-0.027234	-0.111169	-0.007290	0.325218	0.550415	0.208984	-0.740002
48242	-9.265310	0.533890	3.106346	-0.031832	-0.047427	-0.026108	0.325130	0.550578	0.209117	-0.739882
48243	-9.250223	0.480808	3.090587	-0.063381	-0.007209	-0.048187	0.325078	0.550716	0.209234	-0.739768
48244	-9.292680	0.465132	3.070391	-0.054874	0.025173	-0.015039	0.325076	0.550831	0.209297	-0.739666
48245	-9.249906	0.494585	3.115367	-0.075825	-0.037637	-0.040087	0.325126	0.550947	0.209308	-0.739554
48246	-9.274957	0.539920	3.080448	-0.017716	-0.041351	-0.024762	0.325164	0.551012	0.209335	-0.739482
48247	-9.265578	0.497572	3.077526	-0.049131	-0.011844	-0.036843	0.325243	0.551079	0.209312	-0.739403
48248	-9.290876	0.532746	3.095234	-0.034278	-0.041265	-0.005456	0.325336	0.551138	0.209264	-0.739332
48249	-9.265747	0.574970	3.098843	-0.013796	-0.079112	-0.025909	0.325434	0.551173	0.209241	-0.739270
48250	-9.270882	0.524304	3.115207	-0.061578	-0.051756	-0.018699	0.325523	0.551229	0.209224	-0.739194
48251	-9.273205	0.535603	3.082401	-0.032806	-0.037001	-0.026066	0.325631	0.551284	0.209196	-0.739113
48252	-9.272558	0.562297	3.082134	-0.016198	-0.054994	-0.025309	0.325739	0.551332	0.209161	-0.739039
48253	-9.285086	0.555520	3.079168	-0.018264	-0.043969	-0.014706	0.325859	0.551334	0.209157	-0.738986
48254	-9.241336	0.522081	3.051210	-0.031600	-0.011459	-0.066734	0.325979	0.551321	0.209106	-0.738956
48255	-9.258878	0.563153	3.113475	-0.043458	-0.075077	-0.028508	0.326098	0.551322	0.209053	-0.738919
48256	-9.276616	0.540228	3.099270	-0.047657	-0.043325	-0.017343	0.326200	0.551325	0.209028	-0.738878
48257	-9.264552	0.549139	3.100451	-0.045718	-0.052070	-0.027930	0.326308	0.551345	0.208971	-0.738832
48258	-9.269089	0.559816	3.088939	-0.031324	-0.049413	-0.026599	0.326433	0.551381	0.208934	-0.738760
48259	-9.268327	0.586186	3.089009	-0.014759	-0.067436	-0.025823	0.326532	0.551412	0.208934	-0.738694
48260	-9.272421	0.560262	3.106803	-0.045832	-0.059277	-0.017878	0.326609	0.551438	0.208953	-0.738635
48261	-9.251324	0.560791	3.076697	-0.029796	-0.045227	-0.047206	0.326672	0.551465	0.208974	-0.738580
48262	-9.269216	0.551038	3.114105	-0.060506	-0.058390	-0.019190	0.326743	0.551521	0.208993	-0.738502
48263	-9.279673	0.544461	3.089361	-0.048267	-0.035184	-0.017314	0.326825	0.551593	0.209031	-0.738402
48264	-9.250300	0.527045	3.079324	-0.061249	-0.024120	-0.049300	0.326896	0.551672	0.209033	-0.738311
48265	-9.277353	0.572212	3.065836	-0.017491	-0.039948	-0.025238	0.327003	0.551714	0.209005	-0.738239
48266	-9.259534	0.561852	3.107862	-0.059049	-0.063825	-0.029749	0.327109	0.551768	0.208976	-0.738160
48267	-9.276536	0.564674	3.093691	-0.046582	-0.051256	-0.017836	0.327209	0.551836	0.208937	-0.738077
48268	-9.282743	0.599545	3.103247	-0.029857	-0.079864	-0.006993	0.327305	0.551890	0.208914	-0.738000
48269	-9.296655	0.567108	3.098256	-0.048615	-0.049645	0.002799	0.327386	0.551932	0.208929	-0.737928
48270	-9.264753	0.600142	3.091736	-0.028373	-0.076794	-0.027599	0.327467	0.551978	0.208934	-0.737856
48271	-9.272368	0.594476	3.047159	-0.001770	-0.041413	-0.034463	0.327497	0.552018	0.208926	-0.737815
48272	-9.269967	0.623338	3.130579	-0.040624	-0.117867	-0.009330	0.327520	0.552087	0.208966	-0.737743
48273	-9.276247	0.606512	3.116209	-0.042868	-0.096101	-0.008796	0.327493	0.552156	0.208997	-0.737694
48274	-9.284412	0.599235	3.070203	-0.016265	-0.060708	-0.015668	0.327445	0.552257	0.209092	-0.737613
48275	-9.292550	0.605382	3.076692	-0.016203	-0.070188	-0.005607	0.327383	0.552342	0.209196	-0.737547
48276	-9.293166	0.677140	3.097781	0.019376	-0.138539	0.005567	0.327248	0.552423	0.209362	-0.737499
48277	-9.253352	0.761279	3.134420	0.046344	-0.238188	-0.016271	0.327041	0.552527	0.209626	-0.737438
48278	-9.277719	0.579197	3.084951	-0.043494	-0.079614	-0.018800	0.326707	0.552745	0.210031	-0.737308
48279	-9.352041	0.523425	3.043213	-0.041123	-0.006670	0.035867	0.326417	0.552966	0.210645	-0.737095
48280	-9.357951	0.544187	2.919503	0.059718	0.047430	0.004902	0.326193	0.553125	0.211322	-0.736881
48281	-9.197208	0.232816	2.885586	-0.165011	0.237939	-0.174970	0.326109	0.553247	0.211833	-0.736680
48282	-9.030081	0.971585	3.500025	-0.100347	-0.745428	-0.108526	0.325820	0.553763	0.212362	-0.736267
48283	-9.378141	1.230198	3.464612	0.160989	-0.850020	0.223138	0.324855	0.554767	0.214178	-0.735412
48284	-9.363058	0.568650	3.167112	-0.110524	-0.238369	0.084360	0.323644	0.555780	0.216163	-0.734600
48285	-9.375297	0.556947	2.939980	0.031166	-0.127290	0.027661	0.322587	0.556930	0.218046	-0.733637
48286	-9.366804	0.327426	2.734129	-0.002013	0.122306	-0.050284	0.321720	0.558013	0.219821	-0.732664
48287	-9.346172	-0.013135	2.610134	-0.171949	0.398976	-0.118616	0.321071	0.558923	0.221362	-0.731791
48288	-9.340512	-0.253923	2.358214	-0.180594	0.703311	-0.203136	0.320788	0.559612	0.222608	-0.731010
48289	-9.032528	-0.024279	2.745850	-0.348598	0.190998	-0.380360	0.320801	0.560283	0.223041	-0.730358
48290	-9.339393	0.524147	2.753374	0.070949	-0.146431	-0.063147	0.320748	0.561175	0.223457	-0.729568
48291	-9.454604	0.014100	2.590113	-0.175146	0.338335	-0.017114	0.320954	0.561706	0.223562	-0.729037
48292	-9.463062	0.119671	2.565371	-0.096282	0.285126	-0.011953	0.321629	0.562017	0.223109	-0.728638
48293	-9.422146	0.280491	2.613528	-0.036007	0.147171	-0.031940	0.322720	0.562032	0.222220	-0.728416
48294	-9.353895	0.274164	2.589967	-0.047495	0.180029	-0.104768	0.324076	0.561802	0.221071	-0.728341
48295	-9.293486	0.059956	2.610211	-0.235581	0.340005	-0.168289	0.325754	0.561511	0.219500	-0.728292
48296	-9.373239	0.300644	2.775011	-0.181368	0.125060	-0.035167	0.327762	0.561301	0.217500	-0.728153
48297	-9.398273	0.814613	2.974550	0.031011	-0.312288	0.073684	0.329772	0.561133	0.215519	-0.727964
48298	-9.250158	0.642896	2.989211	-0.145540	-0.190865	-0.073266	0.331806	0.561037	0.213971	-0.727570
48299	-9.242143	0.495714	2.988741	-0.277089	-0.046823	-0.090737	0.333914	0.561282	0.212237	-0.726924
48300	-9.265973	0.683044	2.881065	-0.098943	-0.058335	-0.085821	0.336068	0.561740	0.210670	-0.726033
48301	-9.160984	0.341558	2.696225	-0.268754	0.314401	-0.266033	0.338117	0.562374	0.208984	-0.725078
48302	-9.129740	0.826070	3.002504	-0.180461	-0.198142	-0.170206	0.340073	0.563482	0.206913	-0.723896
48303	-9.324870	1.430809	3.040504	0.203234	-0.558008	0.081358	0.341740	0.564733	0.205242	-0.722610
48304	-9.300280	1.146932	2.758598	0.143647	-0.154021	-0.046625	0.343172	0.565876	0.204001	-0.721388
48305	-9.305863	0.958267	2.677477	0.021852	0.053913	-0.082185	0.344548	0.566994	0.202644	-0.720236
48306	-9.320011	1.195283	2.879698	0.011662	-0.218802	0.012574	0.345977	0.568048	0.201301	-0.719097
48307	-9.398125	1.131040	2.794775	-0.007325	-0.074690	0.056911	0.347326	0.569031	0.200186	-0.717979
48308	-9.437260	1.412962	2.890086	0.096265	-0.304215	0.152703	0.348470	0.569932	0.199270	-0.716964
48309	-9.434298	1.478694	2.846413	0.141624	-0.308494	0.146193	0.349405	0.570683	0.198770	-0.716050
48310	-9.395216	1.493598	2.733900	0.200344	-0.247567	0.080424	0.350056	0.571345	0.198489	-0.715282
48311	-9.403579	1.415037	2.840910	0.051378	-0.262586	0.108441	0.350426	0.571950	0.198496	-0.714614
48312	-9.434272	1.402755	2.757964	0.088178	-0.195103	0.113727	0.350549	0.572465	0.198742	-0.714074
48313	-9.419615	1.326980	2.692803	0.068410	-0.111860	0.072858	0.350559	0.572764	0.199155	-0.713714
48314	-9.408535	1.173282	2.606849	0.012903	0.040822	0.020468	0.350617	0.572840	0.199528	-0.713520
48315	-9.475211	0.956361	2.595346	-0.126616	0.214105	0.054845	0.350872	0.572575	0.199663	-0.713570
48316	-9.448895	1.279101	2.685613	0.047042	-0.069177	0.093030	0.351317	0.572034	0.199738	-0.713763
48317	-9.338044	1.367975	2.669709	0.122714	-0.141409	-0.006430	0.351702	0.571227	0.199940	-0.714164
48318	-9.262971	1.236472	2.755266	-0.021307	-0.122883	-0.070645	0.351970	0.570358	0.200285	-0.714629
48319	-9.257985	1.088236	2.803911	-0.146273	-0.051370	-0.079630	0.352178	0.569761	0.200585	-0.714919
48320	-9.186663	1.367813	2.848011	0.028548	-0.291715	-0.102335	0.352193	0.569440	0.201018	-0.715046
48321	-9.259358	1.082213	2.863370	-0.173128	-0.093848	-0.062457	0.352089	0.569356	0.201685	-0.714976
48322	-9.278136	1.085401	2.812962	-0.131988	-0.067495	-0.058064	0.352047	0.569504	0.202315	-0.714700
48323	-9.312215	1.239931	2.837416	-0.035545	-0.192630	-0.001097	0.352004	0.569819	0.203008	-0.714274
48324	-9.353931	1.196184	2.763428	-0.015238	-0.116633	0.013276	0.351892	0.570091	0.203873	-0.713866
48325	-9.388415	1.322130	2.764277	0.078945	-0.210693	0.060556	0.351658	0.570277	0.204765	-0.713577
48326	-9.345229	1.285440	2.739022	0.067686	-0.199256	0.007881	0.351339	0.570405	0.205833	-0.713325
48327	-9.258476	1.402955	2.802880	0.105091	-0.370198	-0.045619	0.350748	0.570640	0.207162	-0.713042
48328	-9.261512	1.181443	2.866995	-0.094423	-0.296343	-0.050812	0.349923	0.571112	0.208931	-0.712554
48329	-9.412945	1.422049	2.987292	0.016895	-0.547532	0.149710	0.348907	0.571922	0.211152	-0.711748
48330	-9.416957	1.285986	2.971913	-0.074951	-0.503604	0.132435	0.347641	0.573208	0.213920	-0.710504
48331	-9.470466	1.367053	2.655441	0.197438	-0.400192	0.107506	0.346080	0.574637	0.217212	-0.709112
48332	-9.396819	0.897481	2.426386	-0.003802	-0.021307	-0.066303	0.344469	0.576014	0.220602	-0.707731
48333	-9.441198	0.709524	2.245951	-0.021898	0.165668	-0.083579	0.342923	0.577452	0.223513	-0.706396
48334	-9.354240	0.297823	1.982483	-0.163207	0.540414	-0.262728	0.341585	0.578675	0.226092	-0.705222
48335	-9.425012	-0.026034	1.649477	-0.174598	0.957624	-0.294041	0.340694	0.579354	0.227780	-0.704551
48336	-9.476262	0.244158	1.991766	-0.201582	0.515615	-0.142126	0.340259	0.579577	0.228687	-0.704284
48337	-9.450819	0.358074	1.989682	-0.116618	0.421791	-0.157972	0.340211	0.579488	0.229090	-0.704250
48338	-9.450642	0.074902	1.916120	-0.272105	0.667490	-0.196442	0.340580	0.579165	0.228776	-0.704440
48339	-9.511302	0.712790	2.246407	-0.015859	0.036422	-0.013828	0.341266	0.578600	0.227874	-0.704864
48340	-9.574974	0.822273	2.378869	-0.012186	-0.088725	0.087171	0.341969	0.577839	0.226887	-0.705466
48341	-9.463056	0.888080	2.219770	0.140870	-0.016752	-0.053318	0.342656	0.576929	0.225971	-0.706170
48342	-9.452510	0.531091	2.295425	-0.161402	0.202507	-0.074423	0.343549	0.575842	0.224674	-0.707037
48343	-9.445467	0.332379	2.314984	-0.310048	0.365050	-0.093794	0.344751	0.574652	0.222959	-0.707962
48344	-9.515942	0.760859	2.773931	-0.287775	-0.176874	0.122726	0.346096	0.573561	0.221046	-0.708790
48345	-9.414291	1.287370	2.593334	0.215627	-0.380792	0.027024	0.347206	0.572520	0.219489	-0.709573
48346	-9.282530	1.094142	2.432157	0.176562	-0.130693	-0.157143	0.348169	0.571518	0.218386	-0.710248
48347	-9.315364	0.649861	2.620064	-0.263947	0.083135	-0.118032	0.349253	0.570573	0.217036	-0.710889
48348	-9.328678	1.035325	2.872017	-0.144197	-0.311154	-0.003156	0.350169	0.569917	0.215807	-0.711339
48349	-9.421969	1.113974	2.877010	-0.079123	-0.315114	0.096199	0.350973	0.569500	0.215069	-0.711501
48350	-9.362775	1.293728	2.678920	0.178514	-0.295351	0.005296	0.351434	0.569258	0.214606	-0.711607
48351	-9.335163	1.255847	2.760660	0.093465	-0.323941	-0.002999	0.351573	0.569097	0.214414	-0.711724
48352	-9.127196	1.162371	2.466626	0.200517	-0.108764	-0.289609	0.351508	0.569065	0.214410	-0.711784
48353	-9.211700	0.003145	2.677985	-0.788016	0.546492	-0.267668	0.351692	0.569449	0.214085	-0.711483
48354	-9.408189	0.842601	2.798862	-0.250515	-0.045502	0.035801	0.352102	0.570319	0.213357	-0.710802
48355	-9.557905	0.775996	2.604070	-0.178879	0.180738	0.120699	0.352656	0.571069	0.212616	-0.710146
48356	-9.587217	1.330787	2.610058	0.205536	-0.173988	0.208568	0.353338	0.571360	0.211554	-0.709891
48357	-9.471720	1.715527	2.494258	0.545255	-0.363964	0.109411	0.353777	0.571035	0.210867	-0.710138
48358	-9.380405	1.284230	2.550333	0.189809	-0.117969	-0.009859	0.354118	0.570150	0.210264	-0.710858
48359	-9.279533	1.102717	2.621987	0.014026	-0.050896	-0.107138	0.354399	0.569176	0.209616	-0.711689
48360	-9.318020	1.042630	3.012879	-0.273332	-0.249344	0.028709	0.354593	0.568398	0.209041	-0.712383
48361	-9.397919	1.221023	3.037242	-0.139087	-0.349900	0.131900	0.354713	0.567913	0.208788	-0.712784
48362	-9.452519	1.294751	2.791358	0.097823	-0.208395	0.125379	0.354655	0.567330	0.208920	-0.713238
48363	-9.426778	1.051333	2.521583	0.116435	0.140607	0.000286	0.354578	0.566363	0.208858	-0.714063
48364	-9.241635	1.499165	2.713603	0.321814	-0.335033	-0.076001	0.354255	0.565160	0.209042	-0.715121
48365	-9.153698	0.706923	2.727550	-0.249324	0.169623	-0.239889	0.353918	0.564128	0.209178	-0.716063
48366	-9.325526	1.052142	3.015084	-0.146472	-0.207644	0.041173	0.353675	0.563422	0.209195	-0.716733
48367	-9.464393	0.976490	2.813641	-0.029554	0.024091	0.109174	0.353392	0.562567	0.209365	-0.717494
48368	-9.415333	1.184255	2.659793	0.247397	-0.016875	0.039413	0.353093	0.561274	0.209361	-0.718655
48369	-9.371304	0.898699	2.681417	0.056610	0.162526	-0.025492	0.352743	0.559443	0.209196	-0.720300
48370	-9.277403	0.818013	2.746439	-0.010712	0.167917	-0.104253	0.352339	0.557292	0.208704	-0.722305
48371	-9.127740	1.192301	3.032153	0.100215	-0.298005	-0.125990	0.351764	0.555348	0.208174	-0.724234
48372	-9.049933	0.898207	3.102776	-0.129768	-0.153897	-0.205678	0.350979	0.553852	0.208155	-0.725764
48373	-9.196047	0.798074	3.092383	-0.139870	-0.030458	-0.078908	0.350044	0.552854	0.207897	-0.727049
48374	-9.185845	1.348486	3.474885	0.032180	-0.669188	0.077918	0.348702	0.552245	0.208289	-0.728044
48375	-9.191791	1.132399	3.325845	-0.001433	-0.441632	0.017746	0.346956	0.552242	0.209343	-0.728578
48376	-9.260258	1.070473	3.416311	-0.079000	-0.481255	0.103532	0.344984	0.552623	0.211023	-0.728740
48377	-9.332355	0.672498	3.356434	-0.302661	-0.202367	0.120987	0.342906	0.553276	0.213187	-0.728596
48378	-9.303135	0.734753	3.260798	-0.189005	-0.250724	0.067698	0.340775	0.554272	0.215593	-0.728130
48379	-9.302026	0.655006	3.016602	-0.079272	-0.101154	-0.012707	0.338395	0.555550	0.218247	-0.727476
48380	-9.258430	0.522872	3.073273	-0.220403	-0.135723	-0.046960	0.335841	0.557110	0.220710	-0.726723
48381	-9.343602	0.883568	3.306166	-0.111632	-0.604192	0.118885	0.332699	0.559366	0.223122	-0.725698
48382	-9.394240	0.611911	3.060888	-0.151545	-0.336005	0.079649	0.328888	0.562124	0.226134	-0.724370
48383	-9.496562	0.804584	3.665997	-0.431828	-0.983223	0.341952	0.324321	0.565775	0.229653	-0.722478
48384	-9.896496	0.224081	4.226698	-1.211644	-1.030904	0.832610	0.319005	0.570484	0.233662	-0.719851
48385	-10.506846	0.521797	4.900831	-1.436343	-1.771720	1.566137	0.312952	0.576409	0.238322	-0.716251
48386	-11.177513	0.268439	5.994353	-2.371056	-2.465665	2.403385	0.306280	0.583370	0.243779	-0.711649
48387	-12.020466	0.457119	7.254221	-3.136790	-3.622425	3.391529	0.299192	0.591751	0.249274	-0.705817
48388	-12.325829	0.629944	8.752429	-4.260357	-5.071485	3.790066	0.288817	0.603952	0.253390	-0.698299
48389	-14.403238	-0.268959	9.777496	-5.869390	-5.350611	5.678446	0.270789	0.624662	0.255236	-0.686532
48390	-17.792079	0.877319	3.376916	-0.904403	-2.200201	8.159071	0.256234	0.647367	0.252154	-0.672071
48391	-20.825106	0.354914	-0.120001	0.699538	-0.023391	11.002237	0.246285	0.664468	0.252202	-0.658954
48392	-19.133491	-4.637699	-4.504091	0.194305	6.152249	9.421813	0.235063	0.681489	0.244364	-0.648540
48393	-30.575079	-0.199705	-10.246757	6.471013	5.415220	21.309146	0.220109	0.697163	0.234769	-0.640624
48394	-22.238848	3.829442	-2.562470	2.766433	-2.683072	12.568584	0.202533	0.706297	0.223510	-0.640444
48395	-19.050645	2.473995	-0.431729	0.219582	-3.035477	9.159643	0.183826	0.714433	0.218357	-0.638838
48396	-16.637326	0.566640	-0.745163	-0.577497	-1.552238	6.767674	0.165670	0.724193	0.216987	-0.633257
48397	-15.329716	0.137988	-1.136201	-0.617124	-1.322152	5.489479	0.149343	0.734756	0.216648	-0.625215
48398	-14.655764	0.336757	-2.257915	0.212393	-1.286874	4.961640	0.137361	0.744641	0.217473	-0.615912
48399	-12.898583	0.457149	-2.458212	0.392459	-1.352007	3.249912	0.130127	0.752888	0.219342	-0.606725
48400	-11.044552	-0.036251	-1.927725	-0.248910	-1.046622	1.346887	0.126889	0.759858	0.221709	-0.597796
48401	-8.370327	0.005809	-2.127371	0.235151	-0.612732	-1.201367	0.127839	0.765441	0.224652	-0.589312
48402	-5.677662	0.252540	-1.519897	0.240434	-0.625370	-3.968034	0.133164	0.769379	0.229912	-0.580917
48403	-4.426921	-0.037317	-1.525009	0.279810	-0.129344	-5.140521	0.141642	0.771778	0.237034	-0.572809
48404	-3.490649	-0.770415	-2.669170	0.972333	1.256265	-5.643977	0.151774	0.773041	0.244074	-0.565509
48405	-2.882837	-0.575776	-3.173281	1.544333	1.513242	-6.066164	0.161255	0.773127	0.249816	-0.560235
48406	-1.641812	-0.581789	-3.324364	1.900034	1.898933	-7.191818	0.169379	0.772241	0.254131	-0.557111
48407	-0.146230	-0.224823	-2.756999	1.987099	1.643648	-8.801404	0.176024	0.770775	0.257181	-0.555680
48408	0.205451	-0.284210	-2.723047	1.989354	1.773271	-9.152503	0.182123	0.768938	0.259593	-0.555136
48409	1.023547	-0.714143	-3.033089	2.150340	2.476351	-9.842373	0.188261	0.767067	0.261270	-0.554891
48410	2.534583	-0.655236	-2.524083	2.139484	2.438166	-11.456560	0.194300	0.765099	0.262360	-0.555013
48411	4.343737	-1.107868	-1.411952	1.437641	2.480356	-13.536929	0.200587	0.763366	0.264108	-0.554333
48412	4.950641	-2.347683	-0.980449	0.480336	3.294392	-14.273395	0.206039	0.762522	0.265824	-0.552672
48413	4.843339	-2.520748	-0.912749	0.289683	3.354879	-14.206555	0.208970	0.762757	0.266514	-0.550911
48414	4.533923	-2.302068	-0.513218	0.059701	2.888682	-14.028290	0.209046	0.763509	0.267065	-0.549572
48415	3.975819	-2.049840	-0.423977	0.020004	2.556094	-13.507907	0.206521	0.764531	0.268343	-0.548483
48416	2.756849	-2.597256	-0.778963	-0.355841	3.002623	-12.223123	0.201084	0.766120	0.269964	-0.547489
48417	0.824319	-3.089116	-1.503067	-0.588044	3.469622	-10.124126	0.193378	0.768370	0.270379	-0.546908
48418	-0.899979	-1.803915	-1.957356	0.139213	2.370793	-8.310990	0.185375	0.770368	0.270194	-0.546959
48419	-1.500408	-1.899205	-1.578253	-0.331411	2.083715	-7.838538	0.178906	0.771206	0.271267	-0.547402
48420	-2.299223	-2.562858	-1.292286	-1.127721	2.257166	-7.137243	0.173804	0.771578	0.272533	-0.547892
48421	-2.887211	-2.368325	-1.403672	-1.052676	2.010662	-6.531793	0.169901	0.771482	0.273690	-0.548674
48422	-3.312000	-2.195207	-1.213593	-1.177138	1.648944	-6.185525	0.166508	0.770557	0.275237	-0.550238
48423	-4.804329	-2.910222	-0.928930	-2.138853	1.691349	-4.814870	0.161882	0.769093	0.276031	-0.553260
48424	-6.397863	-2.565647	-1.428395	-1.845999	1.285012	-3.142169	0.156306	0.767434	0.274719	-0.557801
48425	-7.446259	-1.924603	-1.892897	-1.234734	0.754663	-2.025615	0.151708	0.764229	0.273431	-0.564069
48426	-7.923261	-2.988125	-2.047628	-1.675053	1.604515	-1.415272	0.148531	0.759150	0.271540	-0.572623
48427	-8.218643	-2.196193	-0.880380	-2.032007	0.330083	-1.511902	0.146651	0.753143	0.268780	-0.582260
48428	-7.915378	-1.615889	0.282802	-2.424404	-0.611795	-2.125712	0.146646	0.746850	0.266904	-0.591162
48429	-9.296744	-0.758258	0.648543	-2.294002	-1.740810	-0.917232	0.148253	0.740447	0.266477	-0.598957
48430	-11.019118	0.898400	0.049462	-0.935495	-3.087760	0.761715	0.151355	0.734385	0.268922	-0.604526
48431	-13.957258	0.120207	-2.578808	0.633398	-1.582496	4.278397	0.155998	0.727049	0.274403	-0.609727
48432	-15.867681	-1.915193	-3.744611	0.485332	0.451979	6.589234	0.161435	0.718669	0.277059	-0.617002
48433	-17.044472	0.136121	-4.440188	2.521239	-0.722884	7.603896	0.169650	0.707612	0.275743	-0.628069
48434	-15.640269	1.053954	-2.015109	1.664574	-2.149601	5.755092	0.180442	0.693058	0.274143	-0.641838
48435	-15.487201	0.035329	-1.845278	1.415391	-0.904734	5.691998	0.193453	0.678100	0.272003	-0.654806
48436	-15.846272	0.284728	-1.458842	1.702461	-0.806993	5.989872	0.207760	0.664034	0.268309	-0.666262
48437	-16.407435	1.150517	-1.829224	2.945384	-0.655879	6.457457	0.223252	0.649872	0.263569	-0.677020
48438	-17.224758	0.529041	-0.685636	2.091552	-0.241597	7.303308	0.239792	0.635684	0.259231	-0.686444
48439	-18.169008	0.844304	-1.116697	3.061654	0.531740	8.141628	0.256692	0.620915	0.255436	-0.695217
48440	-16.140468	-0.542526	-0.225885	1.617409	1.578742	6.178247	0.271542	0.606056	0.250810	-0.704312
48441	-25.865110	-5.719548	-10.393617	7.049157	13.847870	14.023234	0.284214	0.592330	0.241671	-0.714116
48442	-11.893200	4.805472	6.441228	0.418785	-6.040680	3.199692	0.292801	0.579762	0.223705	-0.726705
48443	-10.074611	5.801360	12.964127	-3.708836	-10.730146	3.388595	0.298707	0.565766	0.209157	-0.739551
48444	-10.721828	3.983294	10.053719	-2.480314	-6.926515	3.519778	0.302327	0.555240	0.201579	-0.748113
48445	-10.695798	-3.374271	7.615406	-5.423903	0.399595	2.604684	0.303334	0.547540	0.193694	-0.755428
48446	-9.573186	-2.981480	6.251592	-4.302506	0.921173	1.153293	0.307561	0.541992	0.186823	-0.759439
48447	-9.486376	-1.182165	5.697970	-2.705439	0.106634	0.981791	0.313814	0.538896	0.179019	-0.760962
48448	-8.802261	3.064868	5.213183	0.255853	-2.782780	0.494515	0.318392	0.538375	0.171790	-0.761096
48449	-9.038720	2.903963	3.184406	1.628588	-1.264668	-0.013729	0.320898	0.537293	0.168362	-0.761574
48450	-8.396114	3.505669	4.325235	1.064387	-2.511453	-0.114674	0.322876	0.535836	0.166490	-0.762176
48451	-8.299985	3.318571	4.804946	0.585629	-2.652849	-0.034671	0.323699	0.535547	0.167114	-0.761893
48452	-9.059655	1.057711	3.769503	0.002880	-0.135485	0.055788	0.323166	0.536158	0.168406	-0.761405
48453	-8.973049	0.868693	4.406840	-0.610822	-0.429372	0.193954	0.322792	0.537435	0.169461	-0.760429
48454	-9.300130	0.309598	3.631386	-0.381137	0.508102	0.155839	0.322629	0.539221	0.171203	-0.758841
48455	-9.308207	0.476209	3.301769	-0.065976	0.548391	0.059797	0.323009	0.540672	0.172075	-0.757449
48456	-9.307640	1.013852	3.165614	0.360013	0.215797	0.061772	0.323717	0.541546	0.172492	-0.756427
48457	-9.166394	1.046618	3.381174	0.181537	0.017835	0.011631	0.324355	0.541707	0.172518	-0.756033
48458	-9.053029	1.068128	3.615648	-0.000968	-0.170323	-0.007478	0.324759	0.541692	0.172644	-0.755841
48459	-9.101987	0.785340	3.687933	-0.234526	0.010701	0.036610	0.325082	0.541804	0.172829	-0.755579
48460	-9.083074	0.795171	3.580637	-0.161651	0.062776	-0.018535	0.325614	0.542004	0.172850	-0.755202
48461	-9.101739	0.989686	3.590519	-0.044100	-0.078246	0.021177	0.326244	0.542229	0.172923	-0.754752
48462	-9.089783	1.063339	3.532890	0.034864	-0.098563	-0.003242	0.326798	0.542413	0.172935	-0.754377
48463	-9.084260	1.103100	3.611294	-0.002495	-0.175108	0.023540	0.327240	0.542533	0.173127	-0.754055
48464	-9.097143	1.046119	3.565250	-0.010437	-0.101813	0.013447	0.327628	0.542662	0.173326	-0.753748
48465	-9.097502	1.072719	3.560489	0.006568	-0.119405	0.014726	0.327939	0.542751	0.173547	-0.753498
48466	-9.043359	0.959841	3.541745	-0.070430	-0.044045	-0.053553	0.328190	0.542878	0.173793	-0.753240
48467	-9.057562	1.061492	3.523229	0.009896	-0.106049	-0.036799	0.328387	0.543043	0.174035	-0.752980
48468	-9.097081	0.960318	3.474280	-0.019466	0.006309	-0.027531	0.328538	0.543206	0.174286	-0.752738
48469	-9.107153	0.968958	3.499842	-0.033282	-0.015126	-0.008266	0.328680	0.543308	0.174404	-0.752575
48470	-9.134310	1.030293	3.556552	-0.029034	-0.086574	0.043166	0.328824	0.543318	0.174457	-0.752492
48471	-9.115367	0.926875	3.486674	-0.052864	0.026583	-0.009504	0.328940	0.543244	0.174477	-0.752491
48472	-9.074172	0.949795	3.450069	-0.018032	0.021723	-0.058464	0.329077	0.543087	0.174420	-0.752557
48473	-9.113376	0.818864	3.504320	-0.135447	0.102270	-0.015973	0.329316	0.542907	0.174185	-0.752637
48474	-9.059220	1.117259	3.560844	0.015570	-0.159680	-0.016178	0.329541	0.542753	0.173914	-0.752712
48475	-9.075859	0.985971	3.565498	-0.071733	-0.054479	-0.012278	0.329688	0.542583	0.173717	-0.752816
48476	-9.057772	1.249855	3.670763	0.029987	-0.312136	0.035233	0.329749	0.542416	0.173606	-0.752935
48477	-9.055084	1.009463	3.583744	-0.067022	-0.082812	-0.022619	0.329669	0.542258	0.173694	-0.753063
48478	-9.074327	1.090654	3.583012	-0.003341	-0.136404	0.003233	0.329565	0.542099	0.173762	-0.753208
48479	-9.019604	1.023500	3.610489	-0.074587	-0.123103	-0.044591	0.329405	0.541999	0.173960	-0.753304
48480	-9.082660	0.927888	3.585468	-0.105486	-0.021409	-0.004544	0.329290	0.541973	0.174073	-0.753347
48481	-9.060897	1.075065	3.615397	-0.029772	-0.156970	0.000629	0.329154	0.541943	0.174221	-0.753394
48482	-9.077028	0.934797	3.572899	-0.088843	-0.027388	-0.013543	0.329008	0.541955	0.174416	-0.753404
48483	-9.092111	0.956239	3.538708	-0.045425	-0.020826	-0.009584	0.328916	0.541931	0.174493	-0.753443
48484	-9.044100	1.085739	3.602578	-0.010927	-0.171915	-0.018635	0.328761	0.541882	0.174653	-0.753509
48485	-9.087692	0.853472	3.560114	-0.125490	0.034275	-0.016155	0.328612	0.541822	0.174784	-0.753587
48486	-9.089747	0.960224	3.568979	-0.057038	-0.049998	-0.000583	0.328554	0.541765	0.174774	-0.753656
48487	-9.103177	1.033983	3.557443	0.006312	-0.093140	0.015010	0.328435	0.541646	0.174817	-0.753783
48488	-9.074204	0.985785	3.551983	-0.023700	-0.064359	-0.018565	0.328268	0.541489	0.174875	-0.753956
48489	-9.060479	1.013905	3.554878	-0.004484	-0.092102	-0.027549	0.328095	0.541332	0.174944	-0.754127
48490	-9.034303	1.066543	3.630373	-0.022899	-0.187124	-0.019822	0.327827	0.541226	0.175102	-0.754283
48491	-9.079994	0.967217	3.617620	-0.066119	-0.097348	0.008470	0.327473	0.541146	0.175314	-0.754445
48492	-9.081789	0.983893	3.637538	-0.063221	-0.127110	0.018816	0.327111	0.541071	0.175545	-0.754602
48493	-9.042883	1.047993	3.617791	-0.008438	-0.181765	-0.018438	0.326670	0.541030	0.175888	-0.754742
48494	-9.056919	0.951319	3.574196	-0.033484	-0.089758	-0.030127	0.326180	0.540987	0.176292	-0.754891
48495	-9.049588	0.837645	3.625645	-0.142155	-0.049888	-0.029064	0.325711	0.540985	0.176668	-0.755007
48496	-9.101911	0.853680	3.586685	-0.088290	-0.031522	0.007143	0.325317	0.541010	0.176986	-0.755085
48497	-9.108767	0.852578	3.572775	-0.073807	-0.028516	0.008463	0.324948	0.541015	0.177273	-0.755173
48498	-9.081537	0.851090	3.582707	-0.083906	-0.049475	-0.013454	0.324631	0.541032	0.177571	-0.755227
48499	-9.070831	0.909527	3.527973	-0.004926	-0.069797	-0.037775	0.324338	0.541057	0.177829	-0.755275
48500	-9.093061	0.902673	3.554999	-0.020912	-0.080994	-0.008117	0.324045	0.541041	0.178064	-0.755356
48501	-9.076412	0.817807	3.524668	-0.056046	-0.011171	-0.041809	0.323751	0.541009	0.178286	-0.755453
48502	-9.119172	0.719227	3.490444	-0.085172	0.090801	-0.022678	0.323532	0.540942	0.178362	-0.755576
48503	-9.086786	0.766252	3.556649	-0.103906	0.006147	-0.025157	0.323440	0.540795	0.178252	-0.755747
48504	-9.151262	0.766750	3.493167	-0.040703	0.067496	0.012255	0.323421	0.540555	0.178024	-0.755981
48505	-9.108530	0.783961	3.535419	-0.062681	0.024139	-0.010923	0.323512	0.540173	0.177654	-0.756301
48506	-9.098425	0.803831	3.556913	-0.060096	0.004762	-0.010879	0.323676	0.539725	0.177196	-0.756659
48507	-9.069747	0.849929	3.591368	-0.052756	-0.045351	-0.021070	0.323876	0.539245	0.176683	-0.757035
48508	-8.978358	0.929155	3.682433	-0.077131	-0.172555	-0.065954	0.324065	0.538794	0.176165	-0.757396
48509	-8.992792	1.085943	3.761149	-0.019088	-0.320561	-0.009999	0.324126	0.538485	0.175893	-0.757653
48510	-9.048437	0.866751	3.662649	-0.078834	-0.076280	-0.013278	0.324123	0.538233	0.175710	-0.757875
48511	-9.021435	0.958426	3.688717	-0.037403	-0.163872	-0.020688	0.324077	0.538057	0.175598	-0.758047
48512	-8.999963	0.948399	3.735064	-0.078257	-0.188667	-0.024543	0.324006	0.537930	0.175523	-0.758183
48513	-9.041029	0.835632	3.610560	-0.053538	-0.017414	-0.041738	0.323913	0.537850	0.175547	-0.758275
48514	-9.033429	0.893383	3.694446	-0.073696	-0.112567	-0.013106	0.323842	0.537763	0.175495	-0.758379
48515	-9.060063	0.857642	3.641970	-0.052469	-0.046065	-0.010679	0.323778	0.537701	0.175499	-0.758449
48516	-9.044469	0.855760	3.675014	-0.078848	-0.069050	-0.013224	0.323730	0.537641	0.175464	-0.758520
48517	-9.064164	0.888080	3.631644	-0.020951	-0.060586	-0.007970	0.323666	0.537626	0.175449	-0.758562
48518	-9.021105	0.851422	3.604552	-0.034672	-0.029985	-0.060973	0.323622	0.537584	0.175376	-0.758627
48519	-9.047827	0.911293	3.664386	-0.030284	-0.101107	-0.009105	0.323553	0.537546	0.175322	-0.758696
48520	-9.044505	0.902092	3.696187	-0.058863	-0.113881	-0.001357	0.323490	0.537528	0.175263	-0.758750
48521	-9.033380	0.883685	3.696898	-0.073703	-0.104130	-0.013012	0.323426	0.537542	0.175254	-0.758769
48522	-9.043920	0.898830	3.673789	-0.044764	-0.099285	-0.010379	0.323348	0.537574	0.175292	-0.758770
48523	-9.055761	0.812170	3.631558	-0.069904	-0.007348	-0.022401	0.323299	0.537580	0.175294	-0.758787
48524	-9.066676	0.853716	3.629743	-0.038037	-0.033426	-0.009325	0.323279	0.537550	0.175242	-0.758829
48525	-9.066321	0.853140	3.630767	-0.038033	-0.032238	-0.009321	0.323274	0.537459	0.175158	-0.758915
48526	-9.031254	0.852122	3.656491	-0.062548	-0.055106	-0.032471	0.323273	0.537327	0.175038	-0.759036
48527	-9.060823	0.844484	3.667809	-0.066602	-0.043835	-0.001565	0.323291	0.537170	0.174903	-0.759170
48528	-9.025406	0.895157	3.714385	-0.071147	-0.116333	-0.012824	0.323329	0.537034	0.174757	-0.759285
48529	-9.029922	0.878456	3.706578	-0.073726	-0.094597	-0.012916	0.323366	0.536919	0.174662	-0.759372
48530	-9.023445	0.895282	3.719117	-0.071154	-0.113969	-0.012796	0.323407	0.536826	0.174590	-0.759436
48531	-9.022976	0.895078	3.720304	-0.071134	-0.112771	-0.012782	0.323431	0.536777	0.174538	-0.759473
48532	-9.045038	0.903390	3.697788	-0.044387	-0.097712	0.000108	0.323434	0.536773	0.174518	-0.759480
48533	-9.028188	0.902503	3.708990	-0.056639	-0.108573	-0.011447	0.323431	0.536768	0.174494	-0.759490
48534	-9.044839	0.876257	3.676278	-0.047307	-0.064413	-0.010362	0.323425	0.536780	0.174507	-0.759481
48535	-9.046999	0.875675	3.695682	-0.061381	-0.075391	-0.001285	0.323397	0.536814	0.174503	-0.759469
48536	-9.047618	0.874680	3.694402	-0.061364	-0.074180	-0.001276	0.323375	0.536830	0.174513	-0.759465
48537	-9.023273	0.915283	3.694187	-0.039851	-0.112151	-0.020341	0.323351	0.536870	0.174520	-0.759445
48538	-9.054068	0.880710	3.680366	-0.046880	-0.069921	0.000049	0.323295	0.536913	0.174561	-0.759430
48539	-9.026378	0.861609	3.691492	-0.073973	-0.072242	-0.023188	0.323269	0.536945	0.174593	-0.759411
48540	-9.033947	0.920181	3.719334	-0.053583	-0.130962	-0.000840	0.323243	0.536992	0.174621	-0.759382
48541	-9.062360	0.859191	3.664368	-0.049435	-0.045689	-0.000061	0.323199	0.537030	0.174694	-0.759357
48542	-9.022707	0.899119	3.696313	-0.054303	-0.107847	-0.021579	0.323171	0.537043	0.174719	-0.759354
48543	-9.068121	0.889249	3.650235	-0.017905	-0.060115	0.002702	0.323114	0.537052	0.174776	-0.759359
48544	-9.047886	0.828118	3.672933	-0.078759	-0.035371	-0.013044	0.323100	0.537028	0.174767	-0.759384
48545	-9.045676	0.852096	3.652006	-0.047571	-0.040727	-0.020673	0.323075	0.536987	0.174725	-0.759433
48546	-9.034971	0.859734	3.674034	-0.059452	-0.061905	-0.021824	0.323058	0.536932	0.174675	-0.759491
48547	-9.018039	0.909639	3.706105	-0.051669	-0.122374	-0.021363	0.323031	0.536897	0.174640	-0.759535
48548	-9.044819	0.874391	3.652825	-0.030509	-0.055807	-0.019200	0.322985	0.536868	0.174626	-0.759578
48549	-9.023769	0.890133	3.695897	-0.054275	-0.099376	-0.021489	0.322944	0.536828	0.174585	-0.759634
48550	-9.041548	0.863706	3.684795	-0.059092	-0.067349	-0.011398	0.322864	0.536805	0.174547	-0.759692
48551	-9.026100	0.862604	3.717310	-0.085450	-0.090370	-0.013836	0.322798	0.536777	0.174482	-0.759755
48552	-9.041572	0.861362	3.685284	-0.059051	-0.064936	-0.011382	0.322740	0.536739	0.174437	-0.759817
48553	-9.040830	0.885633	3.685398	-0.041971	-0.082423	-0.009904	0.322673	0.536695	0.174359	-0.759894
48554	-9.058889	0.834258	3.675444	-0.063817	-0.031711	-0.001303	0.322633	0.536631	0.174285	-0.759974
48555	-9.045265	0.816025	3.657467	-0.064550	-0.009893	-0.022104	0.322615	0.536539	0.174190	-0.760068
48556	-9.052239	0.901312	3.709409	-0.041129	-0.099421	0.010934	0.322625	0.536417	0.174080	-0.760175
48557	-9.032142	0.849474	3.683366	-0.059298	-0.048565	-0.021748	0.322641	0.536284	0.173955	-0.760291
48558	-9.040010	0.884613	3.736788	-0.070001	-0.100682	0.008355	0.322699	0.536152	0.173835	-0.760386
48559	-9.014723	0.901211	3.740736	-0.065527	-0.119972	-0.012084	0.322706	0.536054	0.173721	-0.760478
48560	-9.035878	0.858356	3.699922	-0.058848	-0.055259	-0.011321	0.322729	0.535981	0.173684	-0.760529
48561	-9.018755	0.908580	3.732350	-0.051037	-0.115705	-0.010754	0.322737	0.535917	0.173637	-0.760581
48562	-9.011121	0.873015	3.703050	-0.054345	-0.073354	-0.031752	0.322717	0.535868	0.173627	-0.760627
48563	-9.012767	0.872175	3.723754	-0.068395	-0.084285	-0.022630	0.322713	0.535844	0.173627	-0.760645
48564	-9.025104	0.862873	3.722750	-0.070599	-0.072848	-0.012401	0.322711	0.535821	0.173630	-0.760662
48565	-9.035265	0.878639	3.700689	-0.041618	-0.067926	-0.009791	0.322712	0.535797	0.173618	-0.760681
48566	-9.029386	0.843723	3.691435	-0.059039	-0.037725	-0.021698	0.322730	0.535758	0.173594	-0.760706
48567	-9.042912	0.835548	3.711776	-0.075337	-0.038392	-0.002360	0.322749	0.535712	0.173530	-0.760745
48568	-9.023283	0.860605	3.703197	-0.056386	-0.055825	-0.021484	0.322809	0.535655	0.173433	-0.760782
48569	-9.033807	0.903527	3.702459	-0.024425	-0.081762	-0.008252	0.322860	0.535601	0.173378	-0.760810
48570	-9.013545	0.870141	3.746823	-0.082267	-0.087976	-0.013437	0.322898	0.535560	0.173309	-0.760839
48571	-9.022324	0.861249	3.705383	-0.056334	-0.052247	-0.021464	0.322941	0.535512	0.173256	-0.760867
48572	-9.012499	0.895633	3.747427	-0.065145	-0.104285	-0.011902	0.322978	0.535481	0.173204	-0.760885
48573	-9.038723	0.886681	3.693596	-0.026934	-0.056415	-0.008430	0.322992	0.535476	0.173176	-0.760889
48574	-9.029382	0.920536	3.734598	-0.035784	-0.108438	0.001145	0.323005	0.535478	0.173171	-0.760883
48575	-9.030888	0.868948	3.734928	-0.069929	-0.069823	-0.001881	0.322994	0.535464	0.173167	-0.760899
48576	-9.029577	0.867433	3.713974	-0.055824	-0.056477	-0.011004	0.323012	0.535433	0.173182	-0.760910
48577	-9.017645	0.874557	3.714515	-0.053585	-0.065547	-0.021200	0.322999	0.535414	0.173168	-0.760932
48578	-9.018849	0.899291	3.734371	-0.050554	-0.095126	-0.010530	0.322993	0.535400	0.173167	-0.760944
48579	-9.018724	0.847139	3.714235	-0.070606	-0.044399	-0.022713	0.322992	0.535381	0.173162	-0.760959
48580	-9.019853	0.872074	3.734237	-0.067589	-0.074013	-0.012038	0.322999	0.535357	0.173140	-0.760978
48581	-9.025051	0.879515	3.723046	-0.053051	-0.070933	-0.010732	0.322997	0.535338	0.173151	-0.760990
48582	-9.018640	0.869817	3.713211	-0.053412	-0.059438	-0.021160	0.323016	0.535299	0.173126	-0.761015
48583	-9.002701	0.894848	3.744740	-0.062664	-0.101184	-0.021963	0.323015	0.535315	0.173106	-0.761008
48584	-9.001508	0.893664	3.723419	-0.048506	-0.087921	-0.031095	0.323004	0.535301	0.173107	-0.761023
48585	-9.003431	0.892868	3.743457	-0.062565	-0.098840	-0.021938	0.322977	0.535301	0.173117	-0.761031
48586	-9.025575	0.849011	3.700286	-0.055929	-0.034135	-0.021382	0.322945	0.535307	0.173117	-0.761042
48587	-9.043123	0.848013	3.687805	-0.043669	-0.020778	-0.009893	0.322928	0.535308	0.173120	-0.761047
48588	-9.000775	0.906862	3.772165	-0.073888	-0.127907	-0.012496	0.322900	0.535315	0.173103	-0.761058
48589	-9.032872	0.879722	3.707196	-0.038250	-0.059474	-0.009372	0.322845	0.535308	0.173116	-0.761083
48590	-9.005681	0.886919	3.739457	-0.062301	-0.092799	-0.021878	0.322839	0.535318	0.173112	-0.761079
48591	-9.034304	0.851792	3.706089	-0.055270	-0.038340	-0.010913	0.322794	0.535304	0.173128	-0.761105
48592	-9.020848	0.858491	3.685940	-0.038904	-0.035316	-0.030249	0.322799	0.535278	0.173091	-0.761129
48593	-9.016899	0.875247	3.717143	-0.050327	-0.066775	-0.020819	0.322787	0.535247	0.173059	-0.761164
48594	-9.002491	0.900504	3.769592	-0.073560	-0.120714	-0.012402	0.322764	0.535234	0.173029	-0.761189
48595	-9.025565	0.882615	3.746640	-0.063929	-0.086805	-0.001188	0.322724	0.535259	0.173042	-0.761186
48596	-9.036290	0.898149	3.723325	-0.034963	-0.081862	0.001406	0.322699	0.535294	0.173055	-0.761168
48597	-9.030960	0.862759	3.712623	-0.052431	-0.051728	-0.010609	0.322670	0.535316	0.173084	-0.761159
48598	-9.010677	0.878378	3.753968	-0.076144	-0.095354	-0.012624	0.322639	0.535341	0.173140	-0.761142
48599	-9.021635	0.893351	3.730215	-0.047202	-0.090369	-0.010030	0.322589	0.535397	0.173181	-0.761114
48600	-9.028663	0.849216	3.718180	-0.066932	-0.049954	-0.011881	0.322545	0.535435	0.173239	-0.761093
48601	-9.023631	0.889794	3.726234	-0.047128	-0.087942	-0.010008	0.322502	0.535480	0.173285	-0.761069
48602	-9.023518	0.862230	3.704102	-0.050155	-0.055903	-0.020750	0.322458	0.535518	0.173340	-0.761048
48603	-9.038765	0.903797	3.741779	-0.046351	-0.105933	0.010941	0.322433	0.535561	0.173389	-0.761017
48604	-9.001223	0.868081	3.774303	-0.102361	-0.112265	-0.014838	0.322389	0.535630	0.173469	-0.760970
48605	-9.037319	0.848308	3.675792	-0.038266	-0.029827	-0.019738	0.322368	0.535697	0.173539	-0.760915
48606	-9.041651	0.847471	3.714744	-0.066451	-0.052817	-0.001378	0.322344	0.535742	0.173604	-0.760879
48607	-9.016895	0.861853	3.693568	-0.047878	-0.060073	-0.030881	0.322315	0.535790	0.173659	-0.760845
48608	-9.018335	0.835318	3.691936	-0.064967	-0.040191	-0.032468	0.322322	0.535846	0.173685	-0.760796
48609	-9.049464	0.852236	3.697739	-0.051919	-0.047249	-0.000071	0.322348	0.535879	0.173712	-0.760756
48610	-9.010893	0.843313	3.730897	-0.090799	-0.072287	-0.024251	0.322382	0.535893	0.173690	-0.760737
48611	-9.051709	0.877634	3.715363	-0.048851	-0.075588	0.010728	0.322436	0.535936	0.173695	-0.760682
48612	-9.033601	0.877088	3.705030	-0.046967	-0.074462	-0.009896	0.322485	0.535958	0.173694	-0.760646
48613	-9.010433	0.868087	3.705854	-0.059584	-0.075246	-0.031807	0.322521	0.535985	0.173691	-0.760613
48614	-9.053412	0.877353	3.711278	-0.048817	-0.071966	0.010756	0.322595	0.536019	0.173710	-0.760553
48615	-9.028597	0.868188	3.691413	-0.047351	-0.060617	-0.020347	0.322655	0.536035	0.173692	-0.760520
48616	-9.025338	0.885649	3.721213	-0.058730	-0.092027	-0.010820	0.322722	0.536073	0.173715	-0.760460
48617	-9.047348	0.842995	3.677095	-0.052187	-0.027305	-0.010509	0.322791	0.536111	0.173724	-0.760401
48618	-9.037381	0.851895	3.697368	-0.063981	-0.048512	-0.011460	0.322867	0.536118	0.173702	-0.760369
48619	-9.031995	0.869730	3.707522	-0.061315	-0.067836	-0.011120	0.322984	0.536099	0.173637	-0.760348
48620	-9.036834	0.879180	3.696641	-0.046822	-0.064745	-0.009826	0.323089	0.536076	0.173584	-0.760332
48621	-9.001448	0.854230	3.699984	-0.074304	-0.057180	-0.043508	0.323195	0.536063	0.173519	-0.760311
48622	-9.041648	0.889480	3.685611	-0.032332	-0.060407	-0.008525	0.323291	0.536045	0.173483	-0.760291
48623	-9.036670	0.882034	3.696360	-0.046760	-0.061039	-0.009802	0.323396	0.536040	0.173418	-0.760265
48624	-9.012456	0.899599	3.697840	-0.042253	-0.080452	-0.030080	0.323486	0.536025	0.173354	-0.760251
48625	-9.017871	0.883373	3.687258	-0.044877	-0.058697	-0.030420	0.323575	0.536007	0.173313	-0.760236
48626	-9.027751	0.893492	3.738241	-0.072577	-0.091921	-0.001503	0.323669	0.535978	0.173275	-0.760225
48627	-9.030164	0.851005	3.687305	-0.064184	-0.027271	-0.021904	0.323773	0.535925	0.173213	-0.760233
48628	-9.013796	0.877891	3.720119	-0.073298	-0.069025	-0.022470	0.323908	0.535874	0.173110	-0.760234
48629	-9.024789	0.896592	3.719924	-0.058410	-0.076123	-0.010681	0.324034	0.535811	0.173019	-0.760246
48630	-9.000622	0.888936	3.722890	-0.071013	-0.076933	-0.032588	0.324163	0.535763	0.172957	-0.760238
48631	-9.029819	0.856873	3.711561	-0.078158	-0.034545	-0.012675	0.324307	0.535710	0.172869	-0.760234
48632	-9.005587	0.926411	3.734064	-0.053414	-0.103409	-0.020419	0.324457	0.535653	0.172738	-0.760241
48633	-9.003852	0.902393	3.714916	-0.056450	-0.071487	-0.031278	0.324609	0.535592	0.172686	-0.760230
48634	-9.006285	0.929868	3.756221	-0.067419	-0.113091	-0.011173	0.324748	0.535573	0.172622	-0.760198
48635	-9.040786	0.906080	3.733210	-0.060092	-0.068747	0.010006	0.324875	0.535546	0.172577	-0.760174
48636	-9.019824	0.931427	3.703209	-0.027025	-0.074193	-0.018184	0.325021	0.535521	0.172563	-0.760132
48637	-8.996706	0.897903	3.705494	-0.056764	-0.056379	-0.041749	0.325154	0.535500	0.172548	-0.760093
48638	-8.998990	0.950086	3.745551	-0.050573	-0.116675	-0.019962	0.325277	0.535494	0.172540	-0.760047
48639	-9.016273	0.874326	3.713740	-0.075640	-0.035187	-0.022767	0.325388	0.535492	0.172542	-0.760000
48640	-9.016248	0.874902	3.713665	-0.075585	-0.034018	-0.022763	0.325511	0.535439	0.172501	-0.759994
48641	-9.027497	0.893219	3.712889	-0.060649	-0.041091	-0.010967	0.325669	0.535405	0.172442	-0.759964
48642	-9.009521	0.919960	3.724720	-0.055647	-0.070743	-0.020689	0.325823	0.535355	0.172370	-0.759949
48643	-9.026197	0.921580	3.713539	-0.043429	-0.057273	-0.009282	0.325975	0.535314	0.172319	-0.759925
48644	-8.997195	0.905579	3.727159	-0.070492	-0.060016	-0.032466	0.326118	0.535260	0.172243	-0.759918
48645	-9.014947	0.932881	3.736214	-0.055178	-0.077233	-0.010146	0.326258	0.535227	0.172183	-0.759895
48646	-9.021281	0.942783	3.746252	-0.054717	-0.086163	0.000382	0.326378	0.535188	0.172130	-0.759883
48647	-9.009103	0.951476	3.747098	-0.052496	-0.095243	-0.009720	0.326470	0.535169	0.172125	-0.759858
48648	-8.986691	0.968058	3.769004	-0.061987	-0.126866	-0.020691	0.326518	0.535156	0.172124	-0.759847
48649	-9.002002	0.916094	3.716045	-0.055915	-0.051957	-0.031152	0.326527	0.535159	0.172148	-0.759836
48650	-9.012940	0.906631	3.693663	-0.044085	-0.028296	-0.030281	0.326536	0.535164	0.172149	-0.759828
48651	-9.002716	0.914525	3.714703	-0.055852	-0.049514	-0.031139	0.326553	0.535135	0.172125	-0.759847
48652	-9.028569	0.897922	3.733881	-0.074370	-0.039627	-0.001668	0.326580	0.535090	0.172096	-0.759873
48653	-9.016164	0.905892	3.735466	-0.072093	-0.048759	-0.011769	0.326624	0.535020	0.172023	-0.759920
48654	-8.985922	0.939341	3.748813	-0.064895	-0.088808	-0.031549	0.326676	0.534951	0.171956	-0.759962
48655	-8.997790	0.930943	3.748630	-0.067122	-0.077222	-0.021434	0.326702	0.534916	0.171931	-0.759980
48656	-9.007709	0.947137	3.726869	-0.038143	-0.072204	-0.018874	0.326719	0.534882	0.171915	-0.760001
48657	-8.988630	0.963703	3.790144	-0.075742	-0.128001	-0.011296	0.326692	0.534881	0.171911	-0.760014
48658	-8.988361	1.012764	3.787728	-0.041398	-0.164041	-0.007863	0.326611	0.534947	0.171979	-0.759987
48659	-8.994404	0.967162	3.753850	-0.047133	-0.111578	-0.019250	0.326473	0.535044	0.172114	-0.759947
48660	-9.011241	0.912098	3.697738	-0.041119	-0.036651	-0.029813	0.326331	0.535154	0.172278	-0.759893
48661	-9.000496	0.865416	3.674909	-0.059055	0.003513	-0.052598	0.326180	0.535250	0.172404	-0.759862
48662	-9.011583	0.897213	3.722197	-0.069560	-0.048220	-0.021814	0.326071	0.535340	0.172477	-0.759830
48663	-9.003469	0.954219	3.760177	-0.061098	-0.118743	-0.009928	0.325919	0.535454	0.172557	-0.759796
48664	-9.029616	0.934449	3.754597	-0.065599	-0.096781	0.010270	0.325773	0.535571	0.172705	-0.759742
48665	-9.022893	0.946914	3.719698	-0.034757	-0.091982	-0.007805	0.325603	0.535691	0.172847	-0.759698
48666	-9.024245	0.891650	3.695849	-0.055023	-0.041414	-0.020518	0.325428	0.535791	0.173011	-0.759666
48667	-9.043210	0.887732	3.680244	-0.042765	-0.027882	-0.009152	0.325268	0.535895	0.173131	-0.759633
48668	-9.009762	0.858451	3.679935	-0.070251	-0.020581	-0.042871	0.325134	0.536005	0.173235	-0.759589
48669	-9.044817	0.899428	3.724843	-0.068105	-0.070140	0.009868	0.325028	0.536104	0.173312	-0.759547
48670	-9.037828	0.888213	3.691555	-0.054463	-0.046634	-0.009949	0.324935	0.536182	0.173345	-0.759525
48671	-9.011233	0.920255	3.722090	-0.061251	-0.098736	-0.020362	0.324872	0.536237	0.173390	-0.759503
48672	-9.011877	0.943777	3.719511	-0.044079	-0.116077	-0.018608	0.324831	0.536283	0.173449	-0.759474
48673	-9.025728	0.908016	3.716287	-0.063501	-0.085886	-0.010257	0.324768	0.536377	0.173558	-0.759410
48674	-8.998525	0.913729	3.725154	-0.073391	-0.107315	-0.031674	0.324677	0.536512	0.173676	-0.759326
48675	-9.050486	0.860717	3.665570	-0.057013	-0.019879	-0.010398	0.324611	0.536637	0.173768	-0.759245
48676	-9.018893	0.935039	3.704682	-0.044044	-0.111189	-0.018552	0.324545	0.536770	0.173866	-0.759157
48677	-9.042433	0.839629	3.658953	-0.071944	-0.009182	-0.022220	0.324467	0.536881	0.173949	-0.759093
48678	-9.049794	0.897359	3.664608	-0.037144	-0.055286	-0.008151	0.324395	0.536968	0.173973	-0.759057
48679	-9.047201	0.913351	3.693878	-0.048474	-0.086668	0.001635	0.324384	0.536975	0.174004	-0.759049
48680	-9.059400	0.802096	3.673345	-0.105287	0.011459	-0.004612	0.324381	0.536949	0.173988	-0.759072
48681	-9.036279	0.869923	3.695049	-0.080465	-0.057419	-0.011936	0.324475	0.536929	0.173906	-0.759065
48682	-9.045887	0.887753	3.673392	-0.051413	-0.052348	-0.009392	0.324559	0.536896	0.173831	-0.759070
48683	-9.050768	0.871915	3.663631	-0.054078	-0.030556	-0.009883	0.324673	0.536830	0.173728	-0.759091
48684	-9.027253	0.915766	3.687300	-0.046383	-0.080821	-0.018944	0.324806	0.536739	0.173600	-0.759128
48685	-9.026581	0.892057	3.689954	-0.063521	-0.061005	-0.020704	0.324935	0.536624	0.173469	-0.759184
48686	-9.032152	0.902278	3.702050	-0.063082	-0.069944	-0.010128	0.325062	0.536515	0.173347	-0.759235
48687	-9.023968	0.920468	3.694162	-0.046291	-0.077179	-0.018914	0.325196	0.536419	0.173225	-0.759273
48688	-9.019504	0.939163	3.727219	-0.057632	-0.108544	-0.009089	0.325292	0.536335	0.173119	-0.759316
48689	-9.018883	0.939913	3.728534	-0.057614	-0.107286	-0.009075	0.325387	0.536271	0.173062	-0.759332
48690	-8.994512	0.956915	3.730823	-0.053085	-0.126865	-0.029177	0.325460	0.536248	0.173013	-0.759329
48691	-9.037533	0.922633	3.665052	-0.020067	-0.047817	-0.016863	0.325495	0.536241	0.173021	-0.759317
48692	-9.019480	0.914312	3.728593	-0.074769	-0.085028	-0.010822	0.325522	0.536232	0.173012	-0.759314
48693	-9.021125	0.921505	3.675766	-0.032203	-0.057813	-0.028172	0.325548	0.536233	0.173006	-0.759304
48694	-9.023286	0.921347	3.695609	-0.046237	-0.068658	-0.018850	0.325555	0.536243	0.172998	-0.759295
48695	-9.030685	0.904066	3.705191	-0.062940	-0.058956	-0.010055	0.325562	0.536218	0.172974	-0.759315
48696	-9.047930	0.903451	3.692841	-0.050729	-0.045364	0.001267	0.325571	0.536224	0.172974	-0.759307
48697	-9.031563	0.877423	3.704793	-0.080003	-0.037908	-0.011837	0.325605	0.536184	0.172948	-0.759327
48698	-9.024361	0.893962	3.694920	-0.063216	-0.045168	-0.020616	0.325644	0.536157	0.172889	-0.759342
48699	-9.006573	0.944687	3.705882	-0.040997	-0.093537	-0.028316	0.325685	0.536147	0.172862	-0.759338
48700	-9.010054	0.970282	3.746088	-0.051868	-0.134986	-0.007853	0.325688	0.536153	0.172872	-0.759330
48701	-9.048820	0.901183	3.691216	-0.050446	-0.039304	0.001295	0.325684	0.536134	0.172897	-0.759340
48702	-9.026687	0.917081	3.713462	-0.059880	-0.070955	-0.009458	0.325716	0.536095	0.172882	-0.759357
48703	-9.057792	0.864940	3.649684	-0.041684	0.016278	-0.009121	0.325716	0.536030	0.172862	-0.759408
48704	-9.029797	0.897912	3.683770	-0.048398	-0.035992	-0.019322	0.325742	0.535936	0.172828	-0.759470
48705	-9.031335	0.872329	3.706552	-0.079527	-0.028294	-0.011801	0.325812	0.535817	0.172783	-0.759534
48706	-9.029586	0.923249	3.707972	-0.045098	-0.064229	-0.008162	0.325904	0.535696	0.172676	-0.759605
48707	-9.052709	0.907167	3.708454	-0.049570	-0.042189	0.011919	0.325988	0.535581	0.172605	-0.759666
48708	-9.017407	0.932692	3.733913	-0.056707	-0.084322	-0.008845	0.326073	0.535466	0.172518	-0.759730
48709	-8.987173	0.966109	3.748172	-0.049356	-0.124502	-0.028338	0.326096	0.535366	0.172470	-0.759802
48710	-9.009114	0.948465	3.726906	-0.039811	-0.090368	-0.017596	0.326116	0.535306	0.172443	-0.759841
48711	-8.993577	0.973237	3.758974	-0.048786	-0.132188	-0.017707	0.326112	0.535301	0.172448	-0.759846
48712	-9.004756	0.938039	3.736984	-0.054162	-0.089956	-0.018833	0.326068	0.535314	0.172458	-0.759853
48713	-8.999091	0.902171	3.726604	-0.071708	-0.060049	-0.031257	0.326018	0.535316	0.172512	-0.759861
48714	-9.016868	0.900229	3.713330	-0.059450	-0.046466	-0.019963	0.325971	0.535345	0.172560	-0.759850
48715	-9.012748	0.890255	3.722692	-0.073862	-0.047229	-0.021216	0.325937	0.535374	0.172588	-0.759838
48716	-9.027199	0.880964	3.741227	-0.090090	-0.047638	-0.001836	0.325923	0.535373	0.172609	-0.759839
48717	-9.018614	0.896568	3.709973	-0.059259	-0.042882	-0.019946	0.325939	0.535361	0.172561	-0.759852
48718	-9.021784	0.922285	3.750942	-0.070072	-0.084312	0.000607	0.325963	0.535312	0.172538	-0.759881
48719	-9.019931	0.921200	3.730669	-0.056004	-0.071020	-0.008736	0.325974	0.535267	0.172513	-0.759914
48720	-9.018251	0.894822	3.711276	-0.059113	-0.039143	-0.019929	0.326001	0.535182	0.172460	-0.759974
48721	-9.017727	0.894398	3.712653	-0.059031	-0.037929	-0.019924	0.326034	0.535096	0.172399	-0.760035
48722	-9.006474	0.928131	3.735319	-0.053509	-0.077784	-0.018726	0.326086	0.534996	0.172343	-0.760096
48723	-9.017838	0.919630	3.736111	-0.055760	-0.066115	-0.008700	0.326134	0.534901	0.172275	-0.760157
48724	-9.009025	0.885276	3.707902	-0.059333	-0.024193	-0.030526	0.326209	0.534806	0.172198	-0.760209
48725	-8.976734	0.962449	3.773214	-0.060013	-0.127597	-0.028755	0.326271	0.534727	0.172104	-0.760260
48726	-8.979882	0.945268	3.742989	-0.048667	-0.093825	-0.038711	0.326322	0.534677	0.172073	-0.760280
48727	-9.009045	0.911578	3.731297	-0.055909	-0.051200	-0.019287	0.326375	0.534621	0.172019	-0.760309
48728	-9.020740	0.903704	3.731152	-0.058174	-0.039572	-0.009271	0.326456	0.534575	0.171945	-0.760323
48729	-8.990747	0.938226	3.744620	-0.050800	-0.079836	-0.028669	0.326532	0.534496	0.171831	-0.760371
48730	-8.984934	0.956027	3.756116	-0.047944	-0.099193	-0.028042	0.326598	0.534463	0.171774	-0.760380
48731	-9.014296	0.922889	3.743847	-0.055144	-0.056551	-0.008637	0.326654	0.534450	0.171727	-0.760375
48732	-8.998309	0.974194	3.775364	-0.046912	-0.116937	-0.006764	0.326700	0.534429	0.171684	-0.760380
48733	-9.005533	0.939409	3.712899	-0.024246	-0.050616	-0.026749	0.326722	0.534410	0.171647	-0.760392
48734	-8.995672	0.922433	3.734755	-0.053104	-0.053349	-0.029246	0.326759	0.534379	0.171626	-0.760403
48735	-9.020055	0.880248	3.733670	-0.074780	-0.012695	-0.011118	0.326803	0.534333	0.171585	-0.760425
48736	-8.997190	0.922606	3.755987	-0.066954	-0.063005	-0.019852	0.326865	0.534297	0.171545	-0.760433
48737	-9.017636	0.905567	3.713259	-0.043389	-0.016827	-0.018611	0.326929	0.534259	0.171492	-0.760444
48738	-8.984304	0.957241	3.757313	-0.047233	-0.089621	-0.027946	0.327004	0.534209	0.171398	-0.760468
48739	-9.020028	0.932936	3.755531	-0.054006	-0.057033	0.002053	0.327073	0.534147	0.171349	-0.760493
48740	-8.995162	0.975337	3.757691	-0.032176	-0.095287	-0.016038	0.327159	0.534091	0.171275	-0.760512
48741	-9.018995	0.959097	3.756478	-0.036642	-0.073199	0.003960	0.327213	0.534054	0.171247	-0.760521
48742	-8.979529	0.975984	3.790939	-0.058185	-0.117430	-0.017866	0.327272	0.534013	0.171211	-0.760533
48743	-8.995122	0.950088	3.759087	-0.049171	-0.073203	-0.017901	0.327311	0.533980	0.171197	-0.760542
48744	-9.000115	0.958085	3.748145	-0.034595	-0.070012	-0.016643	0.327339	0.533952	0.171162	-0.760558
48745	-8.991507	0.966724	3.790477	-0.060253	-0.103349	-0.007834	0.327364	0.533906	0.171136	-0.760585
48746	-8.983209	0.956793	3.760045	-0.046647	-0.080075	-0.027860	0.327356	0.533896	0.171145	-0.760593
48747	-9.000688	0.955759	3.747362	-0.034432	-0.066366	-0.016617	0.327356	0.533907	0.171160	-0.760583
48748	-9.003274	0.929798	3.767524	-0.065600	-0.058596	-0.009118	0.327345	0.533906	0.171151	-0.760590
48749	-8.986374	0.953969	3.778094	-0.060479	-0.088325	-0.018428	0.327318	0.533910	0.171167	-0.760595
48750	-8.996879	0.969086	3.755198	-0.031496	-0.083151	-0.015925	0.327274	0.533910	0.171195	-0.760608
48751	-8.980645	0.967200	3.765670	-0.043587	-0.094412	-0.027141	0.327217	0.533944	0.171245	-0.760597
48752	-8.993913	0.931317	3.763678	-0.063009	-0.064234	-0.019067	0.327154	0.533949	0.171315	-0.760605
48753	-9.000955	0.988195	3.770729	-0.028067	-0.110141	-0.004568	0.327060	0.533999	0.171390	-0.760594
48754	-8.992775	0.943059	3.790514	-0.074124	-0.094364	-0.008965	0.326927	0.534064	0.171509	-0.760578
48755	-8.990972	0.938691	3.746026	-0.046060	-0.069104	-0.027774	0.326788	0.534155	0.171651	-0.760542
48756	-9.004712	0.926612	3.741947	-0.048281	-0.057426	-0.017791	0.326634	0.534219	0.171767	-0.760537
48757	-9.004503	0.922411	3.718470	-0.034265	-0.044257	-0.027198	0.326494	0.534282	0.171903	-0.760522
48758	-9.013029	0.902036	3.725887	-0.051004	-0.034520	-0.018464	0.326360	0.534334	0.172005	-0.760520
48759	-9.012405	0.941816	3.774908	-0.058997	-0.096407	0.002995	0.326206	0.534388	0.172072	-0.760533
48760	-9.027760	0.886731	3.720069	-0.053262	-0.021624	-0.008487	0.326061	0.534446	0.172207	-0.760524
48761	-9.018943	0.892058	3.739065	-0.064906	-0.042930	-0.009032	0.325944	0.534500	0.172274	-0.760521
48762	-9.008086	0.897701	3.737862	-0.062557	-0.052169	-0.018993	0.325830	0.534539	0.172329	-0.760530
48763	-8.997018	0.928793	3.736141	-0.042966	-0.080004	-0.027010	0.325733	0.534597	0.172406	-0.760513
48764	-9.000097	0.926824	3.754325	-0.056854	-0.090808	-0.017575	0.325628	0.534663	0.172448	-0.760502
48765	-9.004925	0.907126	3.720199	-0.045566	-0.057036	-0.027694	0.325520	0.534766	0.172531	-0.760457
48766	-8.986144	0.947234	3.759304	-0.051685	-0.119332	-0.026805	0.325386	0.534874	0.172632	-0.760416
48767	-9.030974	0.858935	3.690554	-0.053277	-0.003062	-0.019139	0.325269	0.535009	0.172764	-0.760341
48768	-8.995446	0.924495	3.740273	-0.054341	-0.096393	-0.027488	0.325168	0.535152	0.172877	-0.760258
48769	-9.031634	0.871472	3.713198	-0.064390	-0.033183	-0.008991	0.325086	0.535269	0.172949	-0.760193
48770	-9.004172	0.928592	3.721223	-0.039777	-0.092030	-0.026225	0.325009	0.535404	0.173065	-0.760105
48771	-9.016410	0.917575	3.695011	-0.028033	-0.068298	-0.025694	0.324910	0.535572	0.173179	-0.760003
48772	-9.025859	0.898227	3.699806	-0.044730	-0.058555	-0.016970	0.324782	0.535751	0.173332	-0.759897
48773	-9.050297	0.878356	3.672031	-0.035271	-0.024345	-0.006497	0.324680	0.535914	0.173451	-0.759799
48774	-9.057528	0.833800	3.657580	-0.055194	0.015848	-0.009187	0.324627	0.536023	0.173547	-0.759723
48775	-9.042604	0.875874	3.738311	-0.089266	-0.070552	0.010646	0.324606	0.536106	0.173606	-0.759660
48776	-9.038949	0.917130	3.744856	-0.069218	-0.108396	0.013357	0.324582	0.536250	0.173691	-0.759549
48777	-9.040902	0.916207	3.740367	-0.069137	-0.107219	0.013370	0.324583	0.536408	0.173778	-0.759417
48778	-9.036051	0.906784	3.726046	-0.069544	-0.095964	0.002701	0.324578	0.536571	0.173866	-0.759283
48779	-9.049404	0.854014	3.648226	-0.049834	-0.009167	-0.018402	0.324586	0.536731	0.173970	-0.759143
48780	-9.022539	0.861991	3.656504	-0.059645	-0.030965	-0.039523	0.324615	0.536895	0.174038	-0.758999
48781	-9.033077	0.921602	3.681032	-0.038668	-0.088872	-0.015420	0.324644	0.537074	0.174122	-0.758841
