// General information: 
//  MT Manager version: 2021.0.0 
//  XDA version: 2021.0.0 build 5908 rev 109668 built on 2021-04-19
// Device information: 
//  DeviceId: 00B43DF4
//  ProductCode: MTW2-3A7G6
//  Firmware Version: 4.3.5
//  Hardware Version: 1.1.0
// Device settings: 
//  Filter Profile: human(46.1)
//  Option Flags: Orientation Smoother Disabled, Position/Velocity Smoother Disabled, Continuous Zero Rotation Update Disabled, AHS Disabled, ICC Disabled
// Coordinate system: ENU
PacketCounter	Acc_X	Acc_Y	Acc_Z	FreeAcc_E	FreeAcc_N	FreeAcc_U	Quat_q0	Quat_q1	Quat_q2	Quat_q3
47597	9.147693	0.088027	4.344601	0.061505	-0.191641	0.312681	-0.605735	-0.381460	0.388524	-0.580191
47598	9.187616	0.124369	4.303928	0.022073	-0.131707	0.332938	-0.605643	-0.381257	0.388624	-0.580354
47599	9.235071	0.066869	4.211422	0.076698	-0.026381	0.337214	-0.605547	-0.381002	0.388637	-0.580614
47600	9.258546	0.036140	4.301447	0.100991	-0.094484	0.395412	-0.605571	-0.380697	0.388614	-0.580804
47601	9.236797	0.144336	4.300415	-0.011978	-0.094428	0.376707	-0.605588	-0.380440	0.388608	-0.580958
47602	9.248983	0.115888	4.257959	0.013916	-0.046917	0.369893	-0.605601	-0.380217	0.388566	-0.581119
47603	9.197308	0.056359	4.251127	0.069693	-0.057832	0.319318	-0.605662	-0.379966	0.388405	-0.581327
47604	9.151821	0.064258	4.364062	0.056918	-0.171663	0.324979	-0.605769	-0.379703	0.388202	-0.581523
47605	9.119248	0.068812	4.391773	0.050183	-0.202308	0.307078	-0.605893	-0.379459	0.387982	-0.581700
47606	9.112649	0.064218	4.362890	0.055065	-0.171904	0.289130	-0.606028	-0.379275	0.387806	-0.581796
47607	9.124703	0.084127	4.395028	0.035596	-0.189547	0.313830	-0.606140	-0.379151	0.387584	-0.581909
47608	9.209871	0.055433	4.365672	0.068682	-0.122265	0.378692	-0.606234	-0.379090	0.387301	-0.582038
47609	9.187708	0.097972	4.458293	0.027119	-0.209525	0.397862	-0.606305	-0.379128	0.387021	-0.582126
47610	9.199169	0.104577	4.363422	0.026460	-0.114801	0.368728	-0.606400	-0.379176	0.386789	-0.582150
47611	9.199953	0.126602	4.377098	0.008119	-0.122124	0.375500	-0.606521	-0.379159	0.386494	-0.582232
47612	9.172301	0.082533	4.389889	0.055049	-0.141878	0.355197	-0.606650	-0.379159	0.386263	-0.582250
47613	9.164125	0.078090	4.322156	0.064918	-0.080783	0.319320	-0.606790	-0.379235	0.386038	-0.582204
47614	9.207960	0.115731	4.343670	0.033838	-0.075109	0.368697	-0.607026	-0.379189	0.385537	-0.582320
47615	9.143788	0.152727	4.467504	-0.000020	-0.206009	0.363183	-0.607228	-0.379245	0.385145	-0.582332
47616	9.094790	0.100047	4.454944	0.055783	-0.216931	0.312607	-0.607274	-0.379383	0.385373	-0.582044
47617	9.163858	0.157583	4.410989	0.000931	-0.154013	0.357575	-0.607148	-0.379577	0.385684	-0.581843
47618	9.063018	-0.027915	4.541728	0.181731	-0.325814	0.317821	-0.607300	-0.379602	0.385845	-0.581561
47619	9.218538	0.020898	4.270638	0.145737	-0.023970	0.345973	-0.607272	-0.380199	0.386285	-0.580908
47620	9.327006	0.193498	4.163137	-0.015296	0.111918	0.402469	-0.607324	-0.380540	0.386259	-0.580648
47621	9.185318	0.049360	4.398817	0.127814	-0.168705	0.369518	-0.607388	-0.380829	0.386039	-0.580537
47622	9.087390	-0.036924	4.446685	0.218976	-0.260188	0.298662	-0.607559	-0.381256	0.386080	-0.580051
47623	9.054742	0.053255	4.607689	0.135836	-0.434396	0.336932	-0.607592	-0.382183	0.386604	-0.579055
47624	9.284548	0.117483	4.486702	0.090977	-0.257345	0.496169	-0.607678	-0.383070	0.387682	-0.577657
47625	9.282088	0.256132	4.012554	-0.031171	0.145276	0.301718	-0.607711	-0.383839	0.388712	-0.576418
47626	9.425514	0.358128	3.773999	-0.117966	0.404131	0.337898	-0.607862	-0.384083	0.389067	-0.575857
47627	9.349774	0.323111	4.024640	-0.088303	0.145143	0.370216	-0.608277	-0.383593	0.388747	-0.575961
47628	9.209026	0.269429	4.330252	-0.047083	-0.179343	0.365497	-0.608520	-0.383094	0.388481	-0.576216
47629	9.235394	0.227444	4.270519	-0.006739	-0.102946	0.364292	-0.608797	-0.382499	0.388389	-0.576380
47630	9.241131	0.133428	4.267305	0.082262	-0.088571	0.366289	-0.609070	-0.381872	0.388277	-0.576584
47631	9.232385	0.218024	4.377497	-0.010290	-0.176598	0.405710	-0.609343	-0.381263	0.388128	-0.576798
47632	9.138292	0.102781	4.331793	0.098641	-0.166049	0.298992	-0.609831	-0.380617	0.388152	-0.576693
47633	9.062326	0.297362	4.365607	-0.102315	-0.212253	0.247988	-0.610301	-0.380070	0.388287	-0.576466
47634	9.034133	0.316747	4.399494	-0.127332	-0.249898	0.236828	-0.610713	-0.379596	0.388708	-0.576058
47635	9.058127	0.268127	4.473289	-0.084895	-0.310990	0.288201	-0.611129	-0.379225	0.389385	-0.575404
47636	9.087264	0.298351	4.484460	-0.118725	-0.315319	0.319648	-0.611486	-0.379037	0.390159	-0.574624
47637	9.154332	0.335216	4.428355	-0.155246	-0.245306	0.357868	-0.611931	-0.378783	0.391055	-0.573707
47638	9.146127	0.298152	4.416204	-0.122681	-0.251780	0.344327	-0.612381	-0.378549	0.392124	-0.572651
47639	9.231801	0.342459	4.291067	-0.164670	-0.117425	0.371405	-0.612659	-0.378468	0.393369	-0.571552
47640	9.297074	0.338823	4.105329	-0.157359	0.060244	0.354697	-0.612877	-0.378343	0.394468	-0.570642
47641	9.336081	0.310744	4.148192	-0.135892	0.024226	0.407264	-0.613061	-0.378065	0.395108	-0.570188
47642	9.359891	0.239267	4.105704	-0.067842	0.063669	0.410470	-0.613199	-0.377792	0.395621	-0.569864
47643	9.291680	0.232835	4.038922	-0.066188	0.094758	0.320874	-0.613367	-0.377479	0.395917	-0.569684
47644	9.242118	0.266265	4.267191	-0.115220	-0.128144	0.369005	-0.613634	-0.377098	0.395911	-0.569653
47645	9.134228	0.173522	4.223185	-0.027295	-0.134671	0.251141	-0.613700	-0.376950	0.396160	-0.569507
47646	9.131050	0.249466	4.178874	-0.107526	-0.098444	0.231217	-0.613647	-0.376818	0.397077	-0.569013
47647	9.262768	0.128548	4.184311	0.007516	-0.068045	0.351916	-0.613363	-0.376701	0.397695	-0.568965
47648	9.101293	-0.059885	4.368185	0.170895	-0.321073	0.276210	-0.613331	-0.376543	0.398374	-0.568628
47649	9.274497	0.028631	4.063675	0.099923	0.019215	0.312538	-0.613212	-0.376891	0.399009	-0.568081
47650	9.319186	0.152802	4.120270	-0.025241	-0.020341	0.377805	-0.613057	-0.377202	0.399272	-0.567858
47651	9.295839	0.119746	4.096280	0.008470	-0.016499	0.346354	-0.613050	-0.377262	0.399410	-0.567728
47652	9.376797	0.124681	3.959322	0.013623	0.140458	0.365534	-0.613148	-0.377169	0.399413	-0.567681
47653	9.331687	0.159858	4.019386	-0.025806	0.073940	0.348772	-0.613207	-0.377043	0.399132	-0.567899
47654	9.194659	0.111029	4.189900	0.009253	-0.133406	0.291344	-0.613268	-0.376879	0.398952	-0.568069
47655	9.162271	0.136372	4.176525	-0.017331	-0.128551	0.256689	-0.613300	-0.376769	0.398934	-0.568119
47656	9.114423	0.110324	4.149580	0.006995	-0.122894	0.201739	-0.613269	-0.376702	0.398916	-0.568211
47657	9.220805	0.207009	4.286271	-0.094985	-0.198599	0.355388	-0.613200	-0.376632	0.399030	-0.568251
47658	9.306494	0.155195	4.135169	-0.036119	-0.030862	0.372217	-0.612955	-0.376660	0.399156	-0.568408
47659	9.289041	0.115889	4.200583	-0.005849	-0.100218	0.382141	-0.612844	-0.376473	0.399234	-0.568597
47660	9.326827	0.052346	4.316067	0.048717	-0.195383	0.462542	-0.612688	-0.376528	0.399414	-0.568602
47661	9.294833	0.160194	4.192232	-0.055699	-0.091166	0.384517	-0.612561	-0.376590	0.399444	-0.568677
47662	9.252450	0.176737	4.171438	-0.074500	-0.087773	0.337520	-0.612559	-0.376444	0.399463	-0.568763
47663	9.279068	0.173671	4.039152	-0.067104	0.047694	0.308539	-0.612528	-0.376188	0.399386	-0.569019
47664	9.205450	0.133632	4.214688	-0.042019	-0.136690	0.311605	-0.612530	-0.375908	0.399083	-0.569415
47665	9.133023	0.063663	4.340155	0.016908	-0.274826	0.295591	-0.612583	-0.375631	0.398809	-0.569733
47666	9.205417	0.025417	4.307050	0.057935	-0.209183	0.348213	-0.612618	-0.375443	0.398570	-0.569986
47667	9.255784	0.068211	4.286524	0.017601	-0.159528	0.386465	-0.612689	-0.375251	0.398271	-0.570244
47668	9.257884	0.047708	4.265394	0.039744	-0.132389	0.379720	-0.612729	-0.375124	0.397942	-0.570515
47669	9.265539	0.068481	4.149056	0.026119	-0.013973	0.339588	-0.612767	-0.375003	0.397598	-0.570793
47670	9.283773	0.094150	4.255731	-0.003356	-0.093003	0.400044	-0.612865	-0.374777	0.397215	-0.571103
47671	9.255824	0.085495	4.244093	0.005494	-0.084392	0.369786	-0.612938	-0.374586	0.396872	-0.571389
47672	9.200865	0.064664	4.175432	0.028267	-0.036202	0.291381	-0.612984	-0.374402	0.396513	-0.571709
47673	9.252569	0.121583	4.282997	-0.031111	-0.098955	0.383297	-0.613051	-0.374214	0.395998	-0.572117
47674	9.136516	0.170504	4.410118	-0.087846	-0.246461	0.330570	-0.613167	-0.373970	0.395427	-0.572547
47675	9.104065	0.089585	4.287671	-0.003557	-0.146810	0.249846	-0.613132	-0.373830	0.395664	-0.572512
47676	9.202144	0.199430	4.414258	-0.122717	-0.219223	0.392300	-0.612853	-0.373777	0.396092	-0.572550
47677	9.074262	-0.044091	4.398761	0.110681	-0.274783	0.267269	-0.612804	-0.373630	0.396272	-0.572573
47678	9.234259	-0.069143	4.306954	0.143007	-0.133701	0.374944	-0.612748	-0.373918	0.396734	-0.572125
47679	9.366501	0.194310	4.057599	-0.102067	0.155761	0.395081	-0.612663	-0.374105	0.396576	-0.572203
47680	9.305486	0.037005	4.276024	0.045171	-0.073260	0.427938	-0.612689	-0.374051	0.396164	-0.572496
47681	9.312165	0.025499	4.074483	0.070466	0.122121	0.350904	-0.612849	-0.373967	0.395569	-0.572792
47682	9.200325	0.192177	4.231297	-0.101403	-0.045433	0.315216	-0.612961	-0.373902	0.394921	-0.573162
47683	9.153408	0.097145	4.238318	-0.003508	-0.064450	0.274606	-0.613028	-0.373819	0.394307	-0.573566
47684	9.112729	0.072128	4.351519	0.018932	-0.174508	0.284437	-0.613016	-0.373790	0.393742	-0.573986
47685	9.130897	0.104797	4.343237	-0.009832	-0.148134	0.297996	-0.612937	-0.373776	0.393235	-0.574427
47686	9.179602	0.166588	4.399458	-0.070788	-0.168377	0.366444	-0.612818	-0.373792	0.392889	-0.574780
47687	9.235528	0.089429	4.442592	0.007157	-0.183724	0.434546	-0.612587	-0.373925	0.392573	-0.575156
47688	9.197406	0.109050	4.356303	-0.009270	-0.117426	0.364133	-0.612396	-0.374029	0.392335	-0.575454
47689	9.229514	0.101861	4.385728	-0.001015	-0.129874	0.405534	-0.612194	-0.374248	0.392116	-0.575675
47690	9.218309	0.217259	4.250130	-0.109168	-0.003730	0.339952	-0.611974	-0.374404	0.391716	-0.576079
47691	9.175707	0.193873	4.310607	-0.088284	-0.071278	0.326328	-0.611828	-0.374364	0.391274	-0.576561
47692	9.163098	0.161051	4.250476	-0.053288	-0.014919	0.289380	-0.611669	-0.374327	0.390793	-0.577080
47693	9.134717	0.201330	4.300117	-0.096554	-0.059562	0.284922	-0.611514	-0.374167	0.390253	-0.577713
47694	9.176067	0.215737	4.354254	-0.114313	-0.077569	0.345421	-0.611325	-0.373867	0.389732	-0.578459
47695	9.159576	0.117161	4.367321	-0.021365	-0.085150	0.335087	-0.611201	-0.373437	0.389200	-0.579226
47696	9.124408	0.096048	4.439601	-0.008231	-0.151225	0.333797	-0.610997	-0.373158	0.388699	-0.579956
47697	9.121669	0.130799	4.420979	-0.046328	-0.123023	0.323867	-0.610734	-0.373014	0.388346	-0.580562
47698	9.190467	0.127429	4.429994	-0.045694	-0.091852	0.390020	-0.610573	-0.372725	0.387959	-0.581176
47699	9.077567	0.078166	4.618660	-0.009057	-0.299551	0.368203	-0.610461	-0.372392	0.387494	-0.581817
47700	9.036445	0.026026	4.616538	0.039064	-0.308997	0.329967	-0.610215	-0.372396	0.387359	-0.582161
47701	9.126837	0.109750	4.409999	-0.038426	-0.083328	0.323923	-0.609804	-0.372742	0.387466	-0.582299
47702	9.215458	0.144448	4.559857	-0.076309	-0.182009	0.468309	-0.609604	-0.372810	0.387227	-0.582624
47703	8.915752	0.025202	4.646415	0.035613	-0.393280	0.233432	-0.609268	-0.373246	0.387088	-0.582789
47704	8.941404	0.022111	4.745620	0.037629	-0.488962	0.298175	-0.608645	-0.374118	0.387915	-0.582330
47705	9.156546	0.176060	4.631954	-0.113088	-0.323289	0.444549	-0.607796	-0.375040	0.389230	-0.581746
47706	9.171402	-0.117521	4.212398	0.186520	0.019889	0.278768	-0.607194	-0.375803	0.390173	-0.581251
47707	9.303546	-0.104536	4.353580	0.175208	-0.083980	0.457790	-0.606638	-0.377146	0.390782	-0.580552
47708	9.149936	0.045446	4.384050	0.033934	-0.204470	0.331287	-0.605946	-0.378853	0.391062	-0.579974
47709	9.154918	-0.064370	4.306052	0.160734	-0.165773	0.301924	-0.605457	-0.380247	0.391284	-0.579423
47710	9.274542	0.036692	4.110841	0.080954	0.039151	0.331737	-0.605128	-0.381426	0.391417	-0.578901
47711	9.316853	0.140544	4.024865	-0.006835	0.119073	0.336637	-0.604852	-0.382396	0.391320	-0.578615
47712	9.255674	0.044139	4.106230	0.099176	0.003551	0.312563	-0.604590	-0.383331	0.391070	-0.578440
47713	9.089282	0.018427	4.310067	0.130293	-0.266243	0.242369	-0.604182	-0.384507	0.391000	-0.578133
47714	9.084610	0.103959	4.180958	0.060232	-0.168517	0.186776	-0.603796	-0.385679	0.391162	-0.577645
47715	9.245077	0.182466	4.120363	-0.001581	-0.072732	0.310393	-0.603119	-0.387057	0.391499	-0.577203
47716	9.463253	0.195639	3.953669	0.002091	0.136989	0.444216	-0.602281	-0.388407	0.391938	-0.576872
47717	9.452676	0.164740	4.076982	0.036667	-0.007103	0.482971	-0.601700	-0.389360	0.392169	-0.576680
47718	9.220211	0.156320	4.276925	0.042283	-0.303481	0.347770	-0.601243	-0.390310	0.392432	-0.576336
47719	9.248674	0.253172	4.054064	-0.043635	-0.107809	0.288002	-0.600764	-0.391340	0.392801	-0.575884
47720	9.322399	0.334212	3.888988	-0.115851	0.053442	0.293091	-0.600308	-0.392046	0.393154	-0.575640
47721	9.398915	0.376333	3.909998	-0.155736	0.050120	0.372721	-0.599931	-0.392414	0.393411	-0.575606
47722	9.317473	0.230105	4.028842	-0.014295	-0.103764	0.340581	-0.599629	-0.392727	0.393598	-0.575579
47723	9.308214	0.164604	3.970613	0.052159	-0.063957	0.308029	-0.599354	-0.393152	0.393713	-0.575496
47724	9.363114	0.176512	3.949480	0.043410	-0.030962	0.350708	-0.599182	-0.393406	0.393836	-0.575418
47725	9.335882	0.233836	3.910289	-0.014570	-0.009436	0.311710	-0.599002	-0.393538	0.393938	-0.575445
47726	9.378937	0.221681	3.915435	-0.002327	-0.001561	0.353148	-0.598802	-0.393700	0.393973	-0.575519
47727	9.366353	0.182009	3.927062	0.037001	-0.019868	0.345154	-0.598718	-0.393807	0.393899	-0.575584
47728	9.314769	0.192850	4.017462	0.025300	-0.123296	0.332571	-0.598711	-0.393885	0.393828	-0.575586
47729	9.284922	0.213093	4.012300	0.005450	-0.130198	0.303476	-0.598643	-0.393971	0.393798	-0.575618
47730	9.350752	0.191558	3.963724	0.029411	-0.061296	0.345056	-0.598497	-0.394075	0.393735	-0.575742
47731	9.236822	0.190843	4.168310	0.026908	-0.293022	0.318627	-0.598443	-0.394199	0.393463	-0.575900
47732	9.243805	0.072992	4.053675	0.148319	-0.189898	0.278273	-0.598273	-0.394543	0.393650	-0.575712
47733	9.298301	0.266364	4.105775	-0.044777	-0.227065	0.352604	-0.597909	-0.394922	0.394285	-0.575397
47734	9.249926	0.110358	4.134222	0.105692	-0.287736	0.315053	-0.597667	-0.395056	0.394670	-0.575291
47735	9.186089	0.019417	4.065339	0.192687	-0.262265	0.227515	-0.597475	-0.395391	0.395245	-0.574866
47736	9.564726	0.332248	3.727715	-0.106954	0.184741	0.455937	-0.597228	-0.395844	0.395572	-0.574586
47737	9.492276	0.238281	3.892700	-0.013689	-0.002143	0.449524	-0.597145	-0.395997	0.395214	-0.574813
47738	9.375553	0.097709	3.944627	0.128440	-0.092729	0.358130	-0.597229	-0.396137	0.394800	-0.574913
47739	9.335720	0.229087	3.785129	0.004297	0.047156	0.263676	-0.597402	-0.396253	0.394335	-0.574974
47740	9.250070	0.343241	3.885892	-0.105922	-0.068912	0.225529	-0.597552	-0.396240	0.393767	-0.575215
47741	9.204126	0.322285	4.099080	-0.082980	-0.274049	0.264031	-0.597657	-0.396125	0.393306	-0.575501
47742	9.215021	0.258235	4.023635	-0.016359	-0.192096	0.243940	-0.597729	-0.395977	0.392967	-0.575759
47743	9.251899	0.189434	3.994162	0.054626	-0.142734	0.265184	-0.597828	-0.395796	0.392577	-0.576047
47744	9.329831	0.235106	4.118395	0.011392	-0.219353	0.386036	-0.597921	-0.395659	0.392408	-0.576159
47745	9.321157	0.191977	3.999575	0.055390	-0.111865	0.331368	-0.597870	-0.395766	0.392406	-0.576141
47746	9.335632	0.181139	4.041001	0.067576	-0.146155	0.360346	-0.597856	-0.395841	0.392391	-0.576114
47747	9.431757	0.334063	3.916269	-0.081431	0.008723	0.404949	-0.597892	-0.395785	0.392312	-0.576169
47748	9.411896	0.244026	3.942638	0.007679	-0.019157	0.394531	-0.597986	-0.395560	0.392054	-0.576401
47749	9.336397	0.191025	4.009397	0.058508	-0.102869	0.349304	-0.598124	-0.395396	0.391814	-0.576534
47750	9.287276	0.263399	4.006295	-0.013894	-0.110140	0.304671	-0.598316	-0.395193	0.391517	-0.576676
47751	9.213129	0.307280	4.089706	-0.059919	-0.206891	0.269746	-0.598476	-0.394909	0.391348	-0.576820
47752	9.222412	0.286506	4.037135	-0.040350	-0.147555	0.257567	-0.598614	-0.394606	0.391225	-0.576965
47753	9.235020	0.238238	4.035767	0.005681	-0.135566	0.267558	-0.598651	-0.394360	0.391140	-0.577154
47754	9.215270	0.242448	3.961680	-0.001289	-0.071023	0.220749	-0.598605	-0.394277	0.391108	-0.577281
47755	9.286370	0.275117	4.010310	-0.034431	-0.086211	0.305925	-0.598499	-0.394220	0.391101	-0.577433
47756	9.368658	0.256104	4.015445	-0.016581	-0.058453	0.383265	-0.598365	-0.394131	0.391167	-0.577588
47757	9.355648	0.185822	3.966761	0.049988	-0.018655	0.350729	-0.598232	-0.394079	0.391140	-0.577780
47758	9.313158	0.194649	3.960269	0.037893	-0.026977	0.309287	-0.598135	-0.394038	0.391023	-0.577988
47759	9.356815	0.246334	4.057955	-0.013607	-0.091364	0.388740	-0.598233	-0.393759	0.390539	-0.578403
47760	9.248335	0.231308	4.081372	-0.002567	-0.146183	0.297774	-0.598167	-0.393617	0.390377	-0.578677
47761	9.310141	0.185038	4.027583	0.039740	-0.070275	0.332650	-0.598035	-0.393329	0.390652	-0.578824
47762	9.393833	0.115052	4.191017	0.101452	-0.188345	0.472067	-0.597858	-0.392996	0.390953	-0.579031
47763	9.197229	-0.083385	4.120854	0.286785	-0.202496	0.259758	-0.597861	-0.392726	0.391216	-0.579032
47764	9.403723	0.127718	3.857278	0.077740	0.121986	0.351170	-0.597878	-0.392712	0.391400	-0.578900
47765	9.433538	0.237244	3.930906	-0.032987	0.069010	0.409548	-0.597812	-0.392564	0.391175	-0.579220
47766	9.333194	0.101419	3.957602	0.098621	0.012085	0.324942	-0.597873	-0.392291	0.390837	-0.579571
47767	9.242433	0.125234	4.017251	0.071973	-0.067228	0.265350	-0.598131	-0.391943	0.390535	-0.579743
47768	9.217615	0.250605	3.993102	-0.054063	-0.043136	0.235561	-0.598330	-0.391630	0.390314	-0.579898
47769	9.240968	0.224468	4.086819	-0.029782	-0.111512	0.293481	-0.598444	-0.391266	0.390177	-0.580118
47770	9.268891	0.201831	4.096528	-0.009771	-0.105148	0.322571	-0.598394	-0.391168	0.390251	-0.580186
47771	9.283595	0.146851	3.986088	0.043622	0.000470	0.291455	-0.598274	-0.391220	0.390342	-0.580214
47772	9.253379	0.167488	4.159144	0.020692	-0.174807	0.332290	-0.598028	-0.391481	0.390475	-0.580202
47773	9.223403	0.234649	4.232061	-0.048560	-0.267215	0.334369	-0.597510	-0.392103	0.391129	-0.579874
47774	9.345688	0.192417	4.041108	-0.007696	-0.064471	0.370889	-0.597103	-0.392386	0.391935	-0.579558
47775	9.336019	0.207403	4.034889	-0.028662	-0.081734	0.359680	-0.596625	-0.392853	0.392632	-0.579263
47776	9.287564	0.082661	3.807101	0.091798	0.085183	0.224442	-0.596002	-0.393528	0.393447	-0.578892
47777	9.294835	0.051663	3.983400	0.120306	-0.100106	0.298670	-0.595581	-0.394220	0.394195	-0.578346
47778	9.196918	0.127024	4.096503	0.041484	-0.274884	0.252269	-0.595032	-0.395206	0.395684	-0.577220
47779	9.439761	0.126658	3.646011	0.046937	0.187762	0.305656	-0.594297	-0.396395	0.397391	-0.575988
47780	9.466570	0.109225	3.607880	0.064178	0.184161	0.316797	-0.593404	-0.397783	0.398742	-0.575018
47781	9.280202	0.054813	3.518501	0.117311	0.153330	0.110397	-0.592632	-0.399116	0.399791	-0.574161
47782	9.205274	0.072878	3.446878	0.104678	0.155863	0.015232	-0.591752	-0.400688	0.400184	-0.573699
47783	9.438813	0.162537	4.215297	0.027722	-0.506425	0.513445	-0.590803	-0.402316	0.400359	-0.573416
47784	9.465884	0.291201	4.578102	-0.093508	-0.863636	0.670255	-0.590549	-0.403041	0.401180	-0.572595
47785	9.758418	0.292404	3.261871	-0.084652	0.443108	0.470720	-0.590413	-0.403354	0.402338	-0.571701
47786	9.326827	0.162593	2.684726	0.036189	0.822678	-0.140782	-0.590722	-0.402866	0.401809	-0.572098
47787	9.318742	0.122019	3.854322	0.073973	-0.251697	0.269017	-0.590912	-0.402554	0.400659	-0.572927
47788	9.175827	0.236356	4.735159	-0.040022	-1.116739	0.454965	-0.590907	-0.403031	0.400833	-0.572476
47789	9.345029	0.318610	3.623140	-0.111266	-0.036988	0.214496	-0.590865	-0.403526	0.401966	-0.571374
47790	9.687115	0.284099	3.242238	-0.066427	0.417589	0.397807	-0.590563	-0.404004	0.402492	-0.570979
47791	9.191457	0.050509	3.895587	0.155970	-0.384062	0.161739	-0.590503	-0.404467	0.402396	-0.570780
47792	9.625869	0.326745	3.822623	-0.102282	-0.167253	0.547724	-0.590572	-0.404840	0.402641	-0.570271
47793	9.481521	0.303538	3.549000	-0.075799	0.028712	0.315501	-0.590406	-0.405277	0.402563	-0.570189
47794	9.464839	0.149995	3.613515	0.082935	-0.044300	0.319159	-0.590473	-0.405555	0.402465	-0.569991
47795	9.412292	0.234906	3.539007	0.002358	0.002914	0.245691	-0.590578	-0.405766	0.402648	-0.569602
47796	9.399520	0.241677	3.439901	-0.000664	0.087829	0.199035	-0.590734	-0.405788	0.402624	-0.569442
47797	9.371075	0.218164	3.692163	0.023800	-0.159975	0.260572	-0.590735	-0.405932	0.402632	-0.569332
47798	9.441396	0.174445	3.755914	0.071978	-0.201484	0.347603	-0.590655	-0.406258	0.402826	-0.569045
47799	9.289957	0.146952	3.515957	0.101169	-0.037672	0.120851	-0.590705	-0.406600	0.402810	-0.568760
47800	9.298679	0.222539	3.794938	0.030441	-0.298972	0.228537	-0.590802	-0.406767	0.402778	-0.568561
47801	9.349725	0.325447	3.900916	-0.068105	-0.386056	0.315823	-0.590704	-0.407097	0.403120	-0.568185
47802	9.553485	0.249809	3.518843	0.014884	0.029992	0.371251	-0.590534	-0.407301	0.403614	-0.567866
47803	9.471711	0.201151	3.545077	0.060200	-0.031448	0.302486	-0.590480	-0.407418	0.403681	-0.567791
47804	9.477092	0.216721	3.631679	0.046295	-0.113536	0.337992	-0.590473	-0.407593	0.403659	-0.567687
47805	9.441837	0.234051	3.590618	0.031510	-0.089634	0.291103	-0.590437	-0.407812	0.403580	-0.567624
47806	9.370794	0.227441	3.541207	0.039934	-0.070048	0.207151	-0.590422	-0.408006	0.403471	-0.567577
47807	9.365357	0.258865	3.556762	0.011247	-0.085853	0.208290	-0.590532	-0.407988	0.403371	-0.567547
47808	9.415534	0.271221	3.543396	0.002609	-0.052949	0.251044	-0.590593	-0.407983	0.403167	-0.567632
47809	9.390725	0.296621	3.792186	-0.022720	-0.291195	0.314951	-0.590682	-0.407928	0.403046	-0.567665
47810	9.437159	0.217856	3.534108	0.059341	-0.032775	0.266636	-0.590700	-0.407949	0.403038	-0.567637
47811	9.449076	0.260982	3.588543	0.017866	-0.077882	0.297921	-0.590698	-0.408004	0.402831	-0.567747
47812	9.416858	0.283760	3.656481	-0.004321	-0.147653	0.292052	-0.590827	-0.407864	0.402566	-0.567901
47813	9.403153	0.230435	3.639124	0.050619	-0.126749	0.271804	-0.590997	-0.407655	0.402011	-0.568267
47814	9.430572	0.333884	3.820979	-0.049166	-0.266358	0.364426	-0.591382	-0.407138	0.401015	-0.568939
47815	9.378770	0.333089	3.803973	-0.045673	-0.235383	0.310793	-0.591969	-0.406308	0.399529	-0.569968
47816	9.448070	0.271337	3.900222	0.023599	-0.259961	0.409009	-0.592597	-0.405467	0.397935	-0.571029
47817	9.235533	0.377967	3.935298	-0.085573	-0.333270	0.227534	-0.593041	-0.404816	0.397025	-0.571662
47818	9.650746	0.322974	3.734944	-0.016818	0.031636	0.540557	-0.593418	-0.404116	0.396038	-0.572450
47819	9.278870	0.154316	4.052763	0.144761	-0.367990	0.306089	-0.594023	-0.403418	0.394592	-0.573313
47820	9.666474	0.383821	3.920931	-0.065468	-0.065303	0.625372	-0.594659	-0.402771	0.393342	-0.573967
47821	9.552499	0.320318	3.896310	0.001588	-0.046314	0.508735	-0.595381	-0.401878	0.391717	-0.574955
47822	9.549234	0.310281	3.796709	0.016988	0.087813	0.467925	-0.596132	-0.400912	0.390286	-0.575825
47823	9.344461	0.328014	3.821993	-0.003075	0.028970	0.288460	-0.596875	-0.399867	0.388877	-0.576734
47824	9.187740	0.331901	3.899780	-0.009359	-0.064467	0.173736	-0.597450	-0.398952	0.387750	-0.577530
47825	9.226353	0.302650	4.139873	0.023563	-0.240427	0.301526	-0.597809	-0.398289	0.386848	-0.578220
47826	9.170173	0.298885	4.014323	0.023952	-0.124224	0.201311	-0.597969	-0.397807	0.386279	-0.578767
47827	9.236213	0.210484	3.802171	0.111606	0.111918	0.176479	-0.597998	-0.397557	0.385758	-0.579256
47828	9.250370	0.233770	4.067527	0.090687	-0.116900	0.294087	-0.597872	-0.397521	0.385427	-0.579631
47829	9.167886	0.196896	4.001206	0.125108	-0.091655	0.191036	-0.597419	-0.398111	0.385594	-0.579582
47830	9.205767	0.263300	3.724202	0.058990	0.163881	0.119824	-0.596929	-0.398792	0.385853	-0.579446
47831	9.213660	0.310740	3.781140	0.013594	0.098437	0.151007	-0.596257	-0.399531	0.386074	-0.579482
47832	9.190192	0.294972	4.552262	0.038836	-0.646467	0.426951	-0.595361	-0.400710	0.386828	-0.579086
47833	9.316581	0.365829	4.539871	-0.030637	-0.633794	0.538158	-0.594373	-0.402112	0.388897	-0.577741
47834	9.318111	0.400102	3.871107	-0.081590	-0.074365	0.284849	-0.593600	-0.403093	0.391358	-0.576190
47835	9.161423	0.333832	3.468443	-0.036088	0.192339	-0.012954	-0.592939	-0.403581	0.393107	-0.575337
47836	9.075612	0.190157	3.464746	0.095482	0.135429	-0.097757	-0.592303	-0.404060	0.393770	-0.575202
47837	9.257897	0.290034	4.015588	-0.000082	-0.322871	0.277579	-0.591997	-0.404230	0.394104	-0.575169
47838	9.621358	0.275521	3.776639	0.018442	0.020270	0.526977	-0.591780	-0.404459	0.394828	-0.574735
47839	9.781649	0.330791	3.924225	-0.032995	-0.076511	0.731630	-0.591533	-0.404965	0.395428	-0.574219
47840	9.619601	0.408156	3.516764	-0.118487	0.226110	0.434544	-0.591454	-0.405139	0.396182	-0.573658
47841	9.603574	0.255188	2.864844	0.027134	0.821422	0.178590	-0.591423	-0.404938	0.396093	-0.573893
47842	9.533789	0.231539	3.735395	0.052016	-0.007788	0.429243	-0.591336	-0.404857	0.395634	-0.574357
47843	9.404605	0.273215	3.769493	0.006452	-0.083081	0.322567	-0.591291	-0.404877	0.395772	-0.574295
47844	9.262696	0.279275	3.531431	-0.007482	0.078722	0.103979	-0.591046	-0.405102	0.396362	-0.573981
47845	9.217626	0.371965	4.013896	-0.101689	-0.399820	0.239384	-0.590552	-0.405508	0.396660	-0.573997
47846	9.180596	0.201074	4.049993	0.065860	-0.464024	0.212607	-0.590029	-0.406087	0.397294	-0.573687
47847	9.351862	0.158042	3.718744	0.109775	-0.114241	0.251418	-0.589624	-0.406666	0.397910	-0.573266
47848	9.433950	0.319160	3.683346	-0.049185	-0.062924	0.319535	-0.589183	-0.407040	0.397676	-0.573615
47849	9.408087	0.219193	4.193775	0.054625	-0.548290	0.475378	-0.588945	-0.407136	0.397346	-0.574020
47850	9.418634	0.266751	3.944450	0.002923	-0.305992	0.397448	-0.588991	-0.406792	0.397280	-0.574264
47851	9.408337	0.238612	3.615598	0.022805	0.007110	0.269262	-0.589057	-0.406326	0.397030	-0.574699
47852	9.383798	0.221250	3.804757	0.035141	-0.164548	0.314131	-0.589184	-0.405732	0.396773	-0.575165
47853	9.345474	0.180291	3.754305	0.067479	-0.118003	0.259388	-0.589378	-0.405084	0.396741	-0.575445
47854	9.348791	0.062745	3.676078	0.177404	-0.033867	0.231452	-0.589306	-0.404745	0.396601	-0.575853
47855	9.303474	0.190297	4.193381	0.046502	-0.526486	0.380248	-0.589246	-0.404450	0.396722	-0.576040
47856	9.374754	0.232446	3.720121	-0.006615	-0.062157	0.275693	-0.589058	-0.404254	0.397396	-0.575904
47857	9.220965	0.089573	3.613293	0.121275	-0.022908	0.090588	-0.589035	-0.403791	0.397897	-0.575906
47858	9.272718	0.231528	3.783410	-0.029464	-0.163300	0.203478	-0.589186	-0.403279	0.398494	-0.575698
47859	9.716570	0.302726	3.396050	-0.104614	0.356079	0.478026	-0.589054	-0.402936	0.399092	-0.575658
47860	9.282812	0.159451	3.947325	0.021175	-0.321654	0.270639	-0.588616	-0.402930	0.399578	-0.575773
47861	9.297535	-0.019752	3.850014	0.191433	-0.238728	0.245816	-0.588174	-0.403174	0.400308	-0.575548
47862	9.510194	0.129276	3.751047	0.040188	-0.083858	0.410922	-0.587895	-0.403402	0.400784	-0.575343
47863	9.391861	0.147651	3.597818	0.015015	0.006105	0.245785	-0.587779	-0.403396	0.401318	-0.575093
47864	9.439885	0.223684	3.549383	-0.067029	0.063871	0.274483	-0.587737	-0.403090	0.401682	-0.575096
47865	9.312443	0.129615	3.845008	0.016525	-0.258517	0.259818	-0.587678	-0.402739	0.402018	-0.575168
47866	9.435703	0.160004	3.620809	-0.019423	-0.009265	0.295126	-0.587602	-0.402692	0.402593	-0.574875
47867	9.395433	0.062298	3.535211	0.074348	0.046535	0.225642	-0.587529	-0.402832	0.402989	-0.574574
47868	9.348310	-0.037294	3.773855	0.174257	-0.205471	0.265094	-0.587382	-0.403311	0.403305	-0.574167
47869	9.364186	0.059931	3.758708	0.081468	-0.198277	0.275598	-0.587270	-0.403771	0.403569	-0.573773
47870	9.477885	0.199979	3.809018	-0.053315	-0.215215	0.401506	-0.587313	-0.403995	0.403882	-0.573351
47871	9.485288	0.096554	3.486814	0.050767	0.081486	0.293185	-0.587423	-0.403858	0.404237	-0.573085
47872	9.487618	0.167175	3.782078	-0.024231	-0.200212	0.400357	-0.587378	-0.403850	0.404804	-0.572736
47873	9.507489	0.109193	3.562662	0.029203	0.000541	0.340931	-0.587403	-0.403728	0.405637	-0.572206
47874	9.342417	-0.068633	3.540875	0.200419	-0.053162	0.176319	-0.587459	-0.403881	0.406421	-0.571485
47875	9.523507	0.153427	3.673805	-0.018556	-0.128101	0.395192	-0.587318	-0.404348	0.406853	-0.570991
47876	9.515415	0.032493	3.682781	0.105943	-0.152520	0.388909	-0.587523	-0.404504	0.407112	-0.570484
47877	9.399727	0.135020	3.243811	0.009336	0.215761	0.129584	-0.587692	-0.404617	0.407105	-0.570235
47878	9.287210	0.181070	3.439248	-0.035761	-0.007628	0.092471	-0.587698	-0.404818	0.406991	-0.570168
47879	9.357285	0.214263	3.725820	-0.066894	-0.256009	0.257884	-0.587631	-0.405039	0.407171	-0.569952
47880	9.428932	0.165466	3.718634	-0.016248	-0.234804	0.321659	-0.587552	-0.405254	0.407658	-0.569533
47881	9.440766	0.076377	3.412017	0.076235	0.042986	0.225643	-0.587398	-0.405650	0.408030	-0.569142
47882	9.399163	0.089359	3.705991	0.063531	-0.261160	0.287528	-0.587176	-0.406233	0.408276	-0.568780
47883	9.583349	0.181991	3.819385	-0.023176	-0.319606	0.500348	-0.587072	-0.406634	0.408872	-0.568172
47884	9.542693	0.108064	3.243837	0.056310	0.193724	0.264834	-0.587041	-0.406827	0.409133	-0.567877
47885	9.582509	0.173758	3.499237	-0.008036	-0.037408	0.390148	-0.586943	-0.407119	0.409002	-0.567865
47886	9.453392	0.074421	3.425405	0.092678	-0.014183	0.242001	-0.587093	-0.407108	0.408950	-0.567754
47887	9.402569	0.100511	3.494362	0.067537	-0.093781	0.218046	-0.587251	-0.407057	0.408814	-0.567725
47888	9.400629	0.109552	3.483110	0.061064	-0.082144	0.212551	-0.587308	-0.407124	0.408748	-0.567666
47889	9.404671	0.120038	3.371466	0.054425	0.024667	0.178582	-0.587378	-0.407200	0.408633	-0.567622
47890	9.426149	0.157615	3.554489	0.018494	-0.137899	0.261645	-0.587496	-0.407173	0.408499	-0.567615
47891	9.454399	0.138101	3.494896	0.041070	-0.068683	0.267621	-0.587702	-0.407020	0.408364	-0.567609
47892	9.414873	0.131156	3.530951	0.048693	-0.112468	0.242641	-0.587781	-0.407020	0.408226	-0.567627
47893	9.462127	0.164775	3.543948	0.017937	-0.106987	0.292103	-0.587805	-0.407077	0.408180	-0.567594
47894	9.502608	0.201441	3.575102	-0.016808	-0.121817	0.341444	-0.587837	-0.407085	0.408148	-0.567578
47895	9.489483	0.159971	3.454113	0.027456	-0.014259	0.287105	-0.587798	-0.407291	0.408083	-0.567518
47896	9.442774	0.204459	3.530019	-0.016036	-0.100855	0.269891	-0.587962	-0.407225	0.408006	-0.567450
47897	9.418459	0.171646	3.355305	0.020154	0.061223	0.186850	-0.588156	-0.407054	0.407550	-0.567699
47898	9.444864	0.128928	3.585247	0.064244	-0.138221	0.289433	-0.588225	-0.407013	0.407261	-0.567865
47899	9.405540	0.280049	3.700507	-0.087818	-0.256518	0.294877	-0.588154	-0.407087	0.407382	-0.567798
47900	9.528699	0.218963	3.507133	-0.025093	-0.037098	0.343199	-0.588210	-0.406899	0.407777	-0.567592
47901	9.401822	0.077930	3.593904	0.108653	-0.168444	0.250925	-0.588176	-0.406897	0.408062	-0.567423
47902	9.599849	0.203526	3.470589	-0.012343	0.012435	0.397269	-0.588168	-0.406970	0.408231	-0.567257
47903	9.507621	0.207833	3.545108	-0.018396	-0.091749	0.336060	-0.588133	-0.407099	0.408174	-0.567242
47904	9.479698	0.171075	3.396287	0.020458	0.038121	0.258401	-0.588184	-0.407076	0.408112	-0.567250
47905	9.485524	0.180892	3.567092	0.010450	-0.118853	0.322292	-0.588202	-0.407109	0.407997	-0.567291
47906	9.525985	0.245384	3.448887	-0.050726	0.009014	0.321254	-0.588190	-0.407127	0.407839	-0.567405
47907	9.424196	0.183597	3.593672	0.008700	-0.160875	0.273823	-0.588147	-0.407199	0.407687	-0.567506
47908	9.432970	0.125574	3.498473	0.069018	-0.067194	0.248462	-0.588260	-0.407126	0.407594	-0.567508
47909	9.407797	0.147980	3.398094	0.049045	0.021303	0.190948	-0.588264	-0.407235	0.407371	-0.567587
47910	9.458494	0.241784	3.456947	-0.040522	-0.014601	0.260554	-0.588110	-0.407509	0.407128	-0.567723
47911	9.401602	0.232570	3.504166	-0.029181	-0.080145	0.223054	-0.587747	-0.407972	0.406805	-0.567998
47912	9.487804	0.062619	3.701317	0.145165	-0.242135	0.367803	-0.587355	-0.408442	0.406637	-0.568187
47913	9.733837	0.143749	4.104702	0.070130	-0.546716	0.737810	-0.587040	-0.408917	0.406997	-0.567913
47914	9.495455	0.233651	3.356714	-0.024037	0.065728	0.261084	-0.587074	-0.408812	0.407518	-0.567580
47915	9.522383	0.266913	3.288706	-0.061676	0.136206	0.264030	-0.586951	-0.408609	0.407666	-0.567746
47916	9.554417	0.214805	3.201491	-0.016705	0.232724	0.263429	-0.587011	-0.408017	0.407838	-0.567986
47917	9.219034	0.054125	3.821178	0.127062	-0.460008	0.155621	-0.587033	-0.407875	0.407713	-0.568155
47918	9.599298	0.304516	3.700463	-0.118684	-0.213563	0.476772	-0.587237	-0.407479	0.408346	-0.567774
47919	9.234001	0.048015	3.309487	0.128127	0.025966	-0.004288	-0.587183	-0.407406	0.408235	-0.567962
47920	9.238090	0.129909	3.879552	0.042571	-0.507692	0.194837	-0.587034	-0.407652	0.408190	-0.567972
47921	9.464341	0.225009	3.358108	-0.043058	0.057558	0.232018	-0.587184	-0.407578	0.408445	-0.567687
47922	9.404427	0.234224	3.432549	-0.054034	-0.035298	0.201120	-0.587121	-0.407674	0.408474	-0.567662
47923	9.368588	0.151612	3.587790	0.027035	-0.199338	0.218524	-0.586934	-0.407930	0.408630	-0.567559
47924	9.478388	0.133540	3.413774	0.050519	-0.003892	0.262478	-0.586891	-0.408139	0.408602	-0.567473
47925	9.575134	0.187013	3.839661	-0.001420	-0.375536	0.498478	-0.586906	-0.408280	0.408766	-0.567238
47926	9.426389	0.225644	3.457310	-0.041487	-0.070496	0.229923	-0.586959	-0.408167	0.409162	-0.566979
47927	9.563138	0.343816	3.291971	-0.161692	0.131867	0.304889	-0.587027	-0.407675	0.409528	-0.566998
47928	9.458527	0.196880	3.355299	-0.027792	0.042539	0.225137	-0.587312	-0.406810	0.409638	-0.567246
47929	9.452394	0.018838	3.610824	0.137604	-0.191317	0.303172	-0.587647	-0.406053	0.409829	-0.567303
47930	9.471657	0.130458	3.723099	0.018878	-0.284718	0.361267	-0.587684	-0.405917	0.410113	-0.567156
47931	9.663356	0.165624	3.355379	-0.010461	0.121598	0.417247	-0.587791	-0.405880	0.410594	-0.566724
47932	9.424716	0.190171	3.092093	-0.037055	0.287113	0.103898	-0.588031	-0.405652	0.410582	-0.566647
47933	9.328306	0.134379	3.342025	0.014552	0.023414	0.097091	-0.588089	-0.405616	0.410253	-0.566851
47934	9.263738	0.067380	3.860673	0.075936	-0.485863	0.211501	-0.587872	-0.405933	0.410101	-0.566959
47935	9.418507	0.182296	3.801055	-0.034749	-0.380743	0.338339	-0.587722	-0.406053	0.410461	-0.566767
47936	9.510428	0.187836	3.694609	-0.041448	-0.253332	0.388673	-0.587573	-0.405891	0.410601	-0.566936
47937	9.369028	0.200700	3.851175	-0.066505	-0.448652	0.308814	-0.587352	-0.405707	0.410870	-0.567103
47938	9.495295	0.188794	3.635941	-0.059770	-0.207692	0.354398	-0.587173	-0.405414	0.411559	-0.566998
47939	9.551248	0.088858	3.427946	0.031280	-0.004008	0.335417	-0.586980	-0.405145	0.412471	-0.566726
47940	9.488074	-0.031997	3.550127	0.139441	-0.152091	0.315757	-0.586872	-0.405080	0.412958	-0.566531
47941	9.327152	0.035178	3.509844	0.065459	-0.178799	0.151234	-0.586712	-0.405292	0.413703	-0.566001
47942	9.545268	0.002223	3.143572	0.106017	0.224135	0.233840	-0.586680	-0.405419	0.414265	-0.565533
47943	9.516772	-0.012440	3.596254	0.111290	-0.221448	0.357894	-0.586910	-0.405350	0.414660	-0.565053
47944	9.466547	0.189352	3.255131	-0.087208	0.082526	0.198947	-0.587207	-0.404987	0.415348	-0.564499
47945	9.526602	-0.036512	2.947268	0.142783	0.385718	0.150982	-0.587436	-0.404684	0.415459	-0.564397
47946	9.313348	-0.074784	3.553341	0.164157	-0.252192	0.151233	-0.587775	-0.404426	0.415269	-0.564368
47947	9.450245	-0.055333	3.238278	0.156728	0.097264	0.175436	-0.588017	-0.404288	0.415100	-0.564340
47948	9.503280	-0.023807	3.236654	0.130065	0.123034	0.225080	-0.588111	-0.404347	0.414688	-0.564502
47949	9.385801	-0.029892	3.379586	0.136669	-0.046967	0.162024	-0.588167	-0.404575	0.414342	-0.564535
47950	9.528570	-0.074008	3.453506	0.192351	-0.069905	0.320621	-0.588149	-0.405210	0.413804	-0.564492
47951	9.584763	-0.022528	3.563797	0.153951	-0.158265	0.410818	-0.588626	-0.405575	0.413821	-0.563721
47952	9.341562	-0.006959	2.946579	0.158622	0.329459	-0.024254	-0.588981	-0.406079	0.414402	-0.562559
47953	9.179265	0.147380	3.380503	0.002187	-0.157192	-0.030889	-0.588573	-0.407408	0.415232	-0.561412
47954	9.314692	0.402432	3.644631	-0.248866	-0.394531	0.186864	-0.587812	-0.408663	0.416422	-0.560414
47955	9.328529	0.229658	3.486058	-0.073186	-0.281333	0.144331	-0.587201	-0.409391	0.417418	-0.559782
47956	9.431889	0.213982	3.712376	-0.061310	-0.485795	0.313925	-0.586913	-0.409873	0.417848	-0.559411
47957	9.813183	0.372535	3.245561	-0.197795	0.077826	0.527807	-0.586965	-0.409872	0.417508	-0.559610
47958	9.573016	0.251100	3.319469	-0.080139	-0.060261	0.322128	-0.586992	-0.409804	0.416512	-0.560373
47959	9.490040	0.283443	3.659460	-0.117656	-0.391192	0.354218	-0.586845	-0.409789	0.415693	-0.561146
47960	9.379504	0.187669	3.550736	-0.023234	-0.313993	0.213224	-0.586462	-0.409733	0.415154	-0.561986
47961	9.282713	0.170773	3.693660	-0.013803	-0.474124	0.168097	-0.585740	-0.410097	0.414618	-0.562869
47962	9.504462	0.184980	3.926351	-0.027832	-0.621566	0.453672	-0.585222	-0.410425	0.414445	-0.563296
47963	9.746370	0.132187	3.569985	0.033071	-0.212323	0.565550	-0.585024	-0.410563	0.414741	-0.563183
47964	9.615933	0.111295	3.418573	0.051182	-0.119787	0.392617	-0.584864	-0.410741	0.415024	-0.563010
47965	9.575240	0.087229	3.352718	0.073070	-0.081653	0.332337	-0.584434	-0.411103	0.415397	-0.562918
47966	9.562537	0.104359	3.354562	0.052057	-0.098760	0.321098	-0.584153	-0.411280	0.415809	-0.562776
47967	9.492693	0.062679	3.385975	0.089263	-0.158708	0.264357	-0.584094	-0.411326	0.415967	-0.562686
47968	9.463100	0.159888	3.389727	-0.009218	-0.170915	0.239017	-0.584194	-0.411227	0.415984	-0.562643
47969	9.449761	0.143612	3.336571	0.007824	-0.121489	0.209113	-0.584348	-0.411064	0.415805	-0.562734
47970	9.445298	0.127523	3.400597	0.023644	-0.177762	0.225332	-0.584528	-0.410875	0.415637	-0.562809
47971	9.566081	0.050598	3.251228	0.106692	0.005690	0.290358	-0.584701	-0.410800	0.415524	-0.562769
47972	9.556631	0.150326	3.322605	0.008492	-0.059695	0.306002	-0.584865	-0.410771	0.415371	-0.562731
47973	9.485088	0.217268	3.368661	-0.057790	-0.120295	0.254296	-0.585085	-0.410632	0.415152	-0.562766
47974	9.485607	0.157626	3.308252	0.005283	-0.058928	0.234333	-0.585296	-0.410529	0.415005	-0.562730
47975	9.588784	0.174504	3.358722	-0.007589	-0.068051	0.348590	-0.585539	-0.410370	0.414853	-0.562705
47976	9.542728	0.155910	3.378723	0.011667	-0.092919	0.311292	-0.585836	-0.410041	0.414426	-0.562951
47977	9.558931	0.126771	3.541453	0.040891	-0.226208	0.379381	-0.586265	-0.409571	0.413850	-0.563270
47978	9.514689	0.074262	3.569664	0.095592	-0.247580	0.346390	-0.586815	-0.409046	0.413056	-0.563662
47979	9.469470	0.062031	3.569134	0.112282	-0.240219	0.303788	-0.587384	-0.408601	0.412311	-0.563937
47980	9.436949	0.107878	3.659789	0.071446	-0.316827	0.304436	-0.587823	-0.408378	0.411580	-0.564175
47981	9.412971	0.153438	3.641503	0.030731	-0.298209	0.276824	-0.587998	-0.408356	0.411587	-0.564003
47982	9.470689	0.160266	3.607003	0.026429	-0.245130	0.319900	-0.588200	-0.408132	0.411685	-0.563884
47983	9.364179	0.008677	3.793570	0.173133	-0.453662	0.279057	-0.588538	-0.407847	0.411384	-0.563956
47984	9.527486	0.000199	3.594340	0.192595	-0.204998	0.366367	-0.589014	-0.407690	0.411351	-0.563597
47985	9.562096	0.199411	3.364454	0.004719	0.033028	0.325945	-0.589373	-0.407666	0.410947	-0.563533
47986	9.576035	0.258224	3.382752	-0.045952	0.032134	0.346396	-0.589762	-0.407529	0.410323	-0.563680
47987	9.588632	0.238077	3.398463	-0.018058	0.036785	0.363088	-0.590251	-0.407225	0.409589	-0.563923
47988	9.495366	0.245309	3.543850	-0.023055	-0.109972	0.324785	-0.590954	-0.406644	0.408762	-0.564205
47989	9.404700	0.226959	3.527925	-0.000428	-0.103389	0.233975	-0.591585	-0.406160	0.408017	-0.564432
47990	9.451188	0.227364	3.490167	0.007016	-0.031431	0.264854	-0.592191	-0.405645	0.407379	-0.564627
47991	9.386918	0.218599	3.556294	0.018162	-0.096934	0.227208	-0.592708	-0.405244	0.406746	-0.564829
47992	9.329548	0.247421	3.705615	-0.009946	-0.239408	0.226029	-0.593228	-0.404808	0.406278	-0.564933
47993	9.401999	0.190063	3.647051	0.054138	-0.147129	0.272456	-0.593607	-0.404496	0.405906	-0.565025
47994	9.404103	0.150633	3.671601	0.096272	-0.155804	0.282208	-0.594130	-0.403983	0.405413	-0.565197
47995	9.437602	0.227705	3.689429	0.023615	-0.141936	0.321973	-0.594583	-0.403592	0.404866	-0.565392
47996	9.494792	0.211391	3.722359	0.045561	-0.136503	0.386870	-0.595071	-0.403173	0.404316	-0.565572
47997	9.434883	0.185462	3.676771	0.075092	-0.099760	0.314229	-0.595545	-0.402838	0.403786	-0.565690
47998	9.440346	0.238721	3.730625	0.026885	-0.132868	0.339962	-0.595964	-0.402595	0.403288	-0.565777
47999	9.397410	0.265891	3.758575	0.002895	-0.159761	0.310719	-0.596358	-0.402269	0.402765	-0.565965
48000	9.307197	0.180572	3.768963	0.088268	-0.186807	0.228173	-0.596889	-0.401703	0.402191	-0.566216
48001	9.239246	0.184476	3.872870	0.083593	-0.291491	0.202543	-0.597299	-0.401368	0.401736	-0.566344
48002	9.385280	0.246821	3.786511	0.032094	-0.145100	0.309564	-0.597635	-0.401173	0.401365	-0.566392
48003	9.421177	0.279875	3.842530	0.003930	-0.171879	0.364364	-0.597973	-0.400907	0.400855	-0.566584
48004	9.388785	0.243196	3.919244	0.041614	-0.242928	0.361208	-0.598333	-0.400559	0.400459	-0.566729
48005	9.333583	0.244866	3.785698	0.042351	-0.126282	0.261512	-0.598672	-0.400231	0.400114	-0.566847
48006	9.418035	0.257125	3.910910	0.034492	-0.199940	0.386309	-0.598923	-0.400044	0.399605	-0.567073
48007	9.270072	0.286819	3.847247	0.003826	-0.182148	0.226466	-0.599224	-0.399771	0.399210	-0.567226
48008	9.230733	0.281511	3.738767	0.009997	-0.087904	0.150054	-0.599368	-0.399540	0.399188	-0.567253
48009	9.415346	0.336581	3.843701	-0.043623	-0.110981	0.361881	-0.599446	-0.399122	0.399263	-0.567411
48010	9.322900	0.160201	3.683181	0.126810	0.004075	0.211875	-0.599520	-0.398865	0.399318	-0.567474
48011	9.470201	0.123023	3.638638	0.169599	0.099916	0.331315	-0.599546	-0.398956	0.399265	-0.567420
48012	9.520090	0.349584	3.624896	-0.052184	0.143374	0.379020	-0.599569	-0.398864	0.398650	-0.567893
48013	9.512398	0.269426	3.779408	0.027779	0.010642	0.426517	-0.599776	-0.398515	0.397875	-0.568463
48014	9.423123	0.283924	3.731265	0.012370	0.046021	0.326142	-0.600221	-0.397813	0.397018	-0.569084
48015	9.262118	0.256588	3.835201	0.032637	-0.084013	0.214937	-0.600645	-0.397076	0.396167	-0.569744
48016	9.242645	0.306253	3.899285	-0.018475	-0.126964	0.222661	-0.600813	-0.396684	0.395534	-0.570279
48017	9.148758	0.225234	3.962409	0.057709	-0.205149	0.157556	-0.601043	-0.396174	0.394989	-0.570769
48018	9.199908	0.232728	4.010397	0.050770	-0.215152	0.223591	-0.601081	-0.395948	0.394537	-0.571199
48019	9.341162	0.325991	4.110819	-0.040050	-0.241098	0.395283	-0.601108	-0.395643	0.394260	-0.571573
48020	9.398977	0.230375	4.002775	0.055214	-0.112506	0.404961	-0.601093	-0.395338	0.394112	-0.571901
48021	9.347654	0.162331	4.012637	0.117523	-0.135301	0.359535	-0.601150	-0.395057	0.393985	-0.572123
48022	9.330824	0.288408	3.953816	-0.010904	-0.077996	0.325059	-0.601174	-0.394865	0.393868	-0.572311
48023	9.321046	0.282425	3.991378	-0.008267	-0.110488	0.330314	-0.601211	-0.394605	0.393740	-0.572540
48024	9.210889	0.298303	3.946144	-0.030627	-0.105213	0.211758	-0.601162	-0.394426	0.393697	-0.572744
48025	9.265286	0.207028	3.966188	0.059342	-0.102727	0.267241	-0.601114	-0.394353	0.393726	-0.572824
48026	9.253009	0.224624	4.025290	0.039651	-0.162525	0.279072	-0.601059	-0.394445	0.393790	-0.572774
48027	9.309841	0.271285	3.912886	-0.003956	-0.038008	0.289587	-0.601024	-0.394464	0.393868	-0.572744
48028	9.320435	0.229571	4.035571	0.036909	-0.152502	0.345286	-0.600842	-0.394758	0.393971	-0.572663
48029	9.351430	0.301569	3.833643	-0.030649	0.040682	0.298416	-0.600591	-0.395063	0.394065	-0.572650
48030	9.443588	0.267858	3.844941	0.004852	0.064258	0.386946	-0.600575	-0.394861	0.393919	-0.572907
48031	9.299615	0.221816	4.053292	0.040966	-0.175029	0.332700	-0.600733	-0.394437	0.393626	-0.573235
48032	9.243495	0.168890	3.925114	0.091443	-0.068206	0.230431	-0.600970	-0.394054	0.393423	-0.573389
48033	9.347882	0.265473	4.080368	-0.003772	-0.156564	0.389186	-0.601236	-0.393655	0.392959	-0.573703
48034	9.220475	0.336801	4.151294	-0.080058	-0.256979	0.301233	-0.601399	-0.393353	0.392679	-0.573931
48035	9.319579	0.281010	3.879775	-0.022151	0.037680	0.286038	-0.601580	-0.392825	0.392950	-0.573917
48036	9.384163	0.367474	4.228700	-0.120595	-0.251090	0.483032	-0.601718	-0.392149	0.393256	-0.574025
48037	9.205218	0.171487	4.030595	0.061660	-0.137472	0.236613	-0.601969	-0.391519	0.393666	-0.573911
48038	9.303231	0.207575	3.915889	0.023908	0.006677	0.283191	-0.602031	-0.391410	0.394063	-0.573647
48039	9.389826	0.331090	3.891376	-0.099155	0.061954	0.356265	-0.601828	-0.391526	0.394152	-0.573720
48040	9.379680	0.183483	3.948891	0.044896	0.001242	0.365907	-0.601837	-0.391354	0.394108	-0.573858
48041	9.273766	0.218466	3.910276	0.004229	-0.000414	0.254125	-0.601807	-0.391190	0.394159	-0.573966
48042	9.230906	0.290233	3.820739	-0.072208	0.068075	0.181414	-0.601672	-0.391036	0.394356	-0.574078
48043	9.164569	0.235245	4.026416	-0.028530	-0.152277	0.198940	-0.601364	-0.391112	0.394685	-0.574123
48044	9.122287	0.216929	4.077179	-0.018598	-0.228248	0.179014	-0.600838	-0.391482	0.395376	-0.573945
48045	9.196000	0.150280	4.039252	0.044043	-0.188651	0.230567	-0.600214	-0.392065	0.396335	-0.573539
48046	9.262055	0.212656	4.043092	-0.023164	-0.197223	0.293644	-0.599493	-0.392901	0.397696	-0.572779
48047	9.399309	0.238103	3.833157	-0.048737	0.007869	0.340842	-0.598506	-0.393968	0.399291	-0.571967
48048	9.381324	0.136086	3.942708	0.042529	-0.148095	0.363205	-0.597463	-0.395059	0.400741	-0.571291
48049	9.383876	0.208124	3.958876	-0.037465	-0.206421	0.372053	-0.596412	-0.396239	0.402342	-0.570446
48050	9.590184	0.233826	3.558333	-0.057970	0.198362	0.416936	-0.595447	-0.397225	0.403633	-0.569855
48051	9.605584	0.129204	3.556196	0.040461	0.167803	0.429411	-0.594408	-0.398206	0.404426	-0.569693
48052	9.335044	0.072289	3.689917	0.083585	-0.082008	0.224743	-0.593636	-0.398905	0.404973	-0.569621
48053	9.331261	0.111229	3.543274	0.043026	0.031999	0.169130	-0.592917	-0.399613	0.405645	-0.569395
48054	9.260212	0.106877	3.414274	0.043411	0.106703	0.056807	-0.592392	-0.400035	0.406238	-0.569222
48055	9.372658	0.106919	3.325857	0.042565	0.211538	0.130797	-0.591688	-0.400637	0.406715	-0.569191
48056	9.373725	0.026048	3.863395	0.113000	-0.311614	0.320591	-0.591078	-0.401387	0.407097	-0.569024
48057	9.383644	0.103485	3.781616	0.037239	-0.254315	0.301559	-0.590588	-0.402167	0.407987	-0.568343
48058	9.412830	0.184889	3.683042	-0.042155	-0.175288	0.295122	-0.590162	-0.402789	0.408592	-0.567910
48059	9.486165	0.213315	3.679138	-0.069828	-0.160118	0.362693	-0.589954	-0.402982	0.408838	-0.567813
48060	9.620597	0.123411	3.737200	0.022663	-0.169691	0.507606	-0.590057	-0.402910	0.408441	-0.568043
48061	9.766637	0.178557	3.517974	-0.023221	0.102673	0.569225	-0.590457	-0.402425	0.407717	-0.568491
48062	9.580590	0.202826	3.813794	-0.056055	-0.217772	0.498630	-0.590750	-0.401771	0.407217	-0.569007
48063	9.614217	0.114918	3.673076	0.027372	-0.054923	0.479739	-0.591237	-0.400642	0.407129	-0.569360
48064	9.474115	-0.232323	3.345978	0.370336	0.216882	0.228436	-0.591872	-0.399729	0.406643	-0.569689
48065	9.418461	0.104260	3.120815	0.037262	0.442844	0.099939	-0.592533	-0.398929	0.405606	-0.570301
48066	9.489797	0.090618	3.156282	0.055674	0.469832	0.177438	-0.593111	-0.398124	0.404171	-0.571281
48067	9.320318	0.115167	3.513584	0.027101	0.116438	0.147856	-0.593694	-0.397297	0.402524	-0.572413
48068	9.126521	0.248595	3.683213	-0.110410	-0.066446	0.031320	-0.594261	-0.396142	0.401078	-0.573639
48069	9.153151	0.189292	3.893183	-0.054660	-0.205611	0.133538	-0.594784	-0.394882	0.399366	-0.575158
48070	9.107834	0.043406	4.486714	0.083673	-0.731774	0.313641	-0.595469	-0.393900	0.398219	-0.575918
48071	9.332580	0.178951	4.201883	-0.043524	-0.359098	0.417369	-0.595854	-0.393520	0.398223	-0.575777
48072	9.294299	0.114350	4.042928	0.021651	-0.223512	0.321014	-0.596085	-0.393315	0.398325	-0.575606
48073	9.523799	0.186878	3.956185	-0.046729	-0.053499	0.501576	-0.596293	-0.393045	0.398527	-0.575436
48074	9.474979	0.092255	3.834744	0.045784	0.044898	0.409097	-0.596530	-0.392579	0.398331	-0.575644
48075	9.494656	-0.045040	3.942995	0.179903	-0.035560	0.466616	-0.596897	-0.391981	0.397876	-0.575985
48076	9.564535	0.095956	4.051482	0.038433	-0.082605	0.574597	-0.597416	-0.391188	0.397037	-0.576565
48077	9.299452	0.043343	4.248394	0.083196	-0.333030	0.405560	-0.598133	-0.390055	0.395903	-0.577368
48078	9.176474	0.010468	4.285355	0.111826	-0.380247	0.307336	-0.598766	-0.389017	0.395149	-0.577929
48079	9.157518	0.042750	4.081243	0.079181	-0.172287	0.211409	-0.599300	-0.388136	0.394693	-0.578280
48080	9.348557	0.094323	4.157993	0.027352	-0.143197	0.418247	-0.599797	-0.387295	0.394123	-0.578718
48081	9.256560	0.036599	4.268983	0.079937	-0.259174	0.377301	-0.600332	-0.386529	0.393584	-0.579041
48082	9.405361	0.072207	4.119012	0.049755	-0.042933	0.455124	-0.600734	-0.386052	0.393188	-0.579211
48083	9.263011	0.093110	4.116186	0.026878	-0.079499	0.323779	-0.601234	-0.385421	0.392718	-0.579431
48084	9.320026	0.130908	4.082129	-0.008671	-0.009680	0.362951	-0.601489	-0.385084	0.392411	-0.579599
48085	9.275625	0.115619	4.020436	0.006604	0.040519	0.297347	-0.601792	-0.384636	0.392126	-0.579774
48086	9.266808	0.109340	4.110909	0.010601	-0.034774	0.325554	-0.602078	-0.384257	0.391927	-0.579863
48087	9.211417	0.100273	4.016518	0.020449	0.037882	0.236732	-0.602312	-0.384014	0.391717	-0.579924
48088	9.219933	0.068284	4.222696	0.050887	-0.138438	0.327393	-0.602613	-0.383721	0.391330	-0.580066
48089	9.087673	0.003339	4.146290	0.115853	-0.118386	0.174810	-0.602717	-0.383691	0.391424	-0.579915
48090	9.175648	0.145901	4.197469	-0.028106	-0.133187	0.277605	-0.602560	-0.383801	0.392077	-0.579564
48091	9.234533	0.039230	4.117881	0.076380	-0.048927	0.298042	-0.602492	-0.383769	0.392474	-0.579387
48092	9.173350	-0.052085	4.098929	0.164609	-0.066149	0.233347	-0.602579	-0.383868	0.392891	-0.578947
48093	9.361993	0.214967	3.929535	-0.094328	0.163842	0.341062	-0.602483	-0.384101	0.393053	-0.578783
48094	9.332114	0.104402	4.083343	0.014019	0.004218	0.374203	-0.602403	-0.384240	0.392967	-0.578832
48095	9.283368	0.036964	3.982528	0.084172	0.075355	0.288305	-0.602464	-0.384263	0.392875	-0.578816
48096	9.330498	0.180116	3.993929	-0.056388	0.092134	0.337703	-0.602673	-0.384048	0.392622	-0.578913
48097	9.321834	0.188983	4.056723	-0.065504	0.040690	0.355073	-0.602821	-0.383804	0.392251	-0.579172
48098	9.287275	0.108885	4.209572	0.011436	-0.102061	0.384139	-0.603122	-0.383346	0.391801	-0.579466
48099	9.064409	0.059276	4.315077	0.054008	-0.278131	0.222582	-0.603326	-0.383049	0.391636	-0.579562
48100	9.245742	0.063091	4.365561	0.053064	-0.248537	0.408921	-0.603326	-0.383127	0.391749	-0.579434
48101	9.326303	0.120485	4.339734	-0.001884	-0.196237	0.472702	-0.603179	-0.383346	0.391961	-0.579299
48102	9.316852	0.224000	4.043856	-0.102704	0.068060	0.345634	-0.603020	-0.383270	0.392213	-0.579344
48103	9.364132	0.147981	4.092428	-0.035024	0.043001	0.407573	-0.603070	-0.382650	0.392410	-0.579569
48104	9.408694	0.139153	4.168102	-0.039389	0.000568	0.478784	-0.603124	-0.381864	0.392610	-0.579895
48105	9.403494	-0.038721	4.177877	0.124519	-0.000816	0.476448	-0.603401	-0.380822	0.392590	-0.580306
48106	9.386679	-0.020680	4.161342	0.094383	0.026318	0.454606	-0.603897	-0.379718	0.392645	-0.580476
48107	9.332720	-0.032522	3.996163	0.100400	0.174027	0.337664	-0.604451	-0.378708	0.392446	-0.580694
48108	9.258675	-0.029310	3.973748	0.090357	0.187192	0.260610	-0.604999	-0.377656	0.392004	-0.581107
48109	9.107479	0.002205	4.281981	0.043674	-0.131119	0.250235	-0.605311	-0.376918	0.391447	-0.581636
48110	9.049228	-0.001975	4.182299	0.046966	-0.046487	0.156052	-0.605527	-0.376452	0.391058	-0.581975
48111	9.096665	0.013076	4.168850	0.032214	-0.001959	0.193698	-0.605713	-0.376148	0.390779	-0.582165
48112	9.189372	0.071857	4.259065	-0.027693	-0.033859	0.315858	-0.605925	-0.375815	0.390557	-0.582308
48113	9.217044	-0.003217	4.263152	0.046324	-0.017571	0.342405	-0.606234	-0.375308	0.390356	-0.582449
48114	9.200233	-0.079108	4.235626	0.119641	0.010022	0.315326	-0.606645	-0.374661	0.390290	-0.582481
48115	9.140265	-0.051949	4.294044	0.087448	-0.057422	0.285580	-0.606971	-0.374266	0.390225	-0.582440
48116	9.157137	-0.052117	4.450723	0.083961	-0.184692	0.366883	-0.607322	-0.373983	0.390046	-0.582375
48117	9.078938	0.002528	4.466544	0.029161	-0.226086	0.302903	-0.607562	-0.373875	0.390124	-0.582142
48118	9.038363	0.040541	4.403920	-0.009354	-0.186233	0.239844	-0.607763	-0.373606	0.390546	-0.581823
48119	9.088062	0.093985	4.513650	-0.072695	-0.269925	0.331108	-0.607674	-0.373448	0.391383	-0.581454
48120	9.078248	-0.161720	4.287199	0.182692	-0.087802	0.226223	-0.607658	-0.373430	0.391872	-0.581152
48121	9.238282	-0.050103	4.353738	0.071342	-0.088848	0.399580	-0.607664	-0.373833	0.392366	-0.580553
48122	9.316417	0.129500	4.170407	-0.097628	0.103305	0.394392	-0.607550	-0.374227	0.392655	-0.580223
48123	9.238646	-0.035539	4.188129	0.067540	0.038927	0.330694	-0.607566	-0.374422	0.392883	-0.579927
48124	9.177246	0.004951	4.084858	0.031269	0.099897	0.232061	-0.607639	-0.374630	0.393281	-0.579446
48125	9.114384	0.077187	4.029194	-0.039096	0.114669	0.152133	-0.607583	-0.374942	0.393841	-0.578923
48126	9.084487	0.000052	3.900870	0.041668	0.194216	0.071906	-0.607286	-0.375611	0.394884	-0.578089
48127	9.074432	-0.048128	3.871134	0.088537	0.174206	0.051130	-0.606465	-0.376958	0.396725	-0.576812
48128	9.234105	-0.076276	4.215846	0.102398	-0.138571	0.337080	-0.605225	-0.378762	0.399007	-0.575357
48129	9.168969	-0.027984	4.061033	0.052548	-0.095736	0.214791	-0.603670	-0.380922	0.401537	-0.573802
48130	9.295998	-0.013364	3.880167	0.039912	0.043327	0.260420	-0.602083	-0.382934	0.403943	-0.572440
48131	9.511556	-0.031020	3.756468	0.057616	0.175058	0.412160	-0.600961	-0.384213	0.405758	-0.571478
48132	9.572751	0.026166	3.785342	-0.007053	0.134116	0.480464	-0.600334	-0.384830	0.406647	-0.571090
48133	9.598681	0.227868	4.263886	-0.231112	-0.309632	0.685790	-0.600026	-0.385154	0.407056	-0.570903
48134	9.344619	0.070043	4.016465	-0.069854	-0.190517	0.356759	-0.599941	-0.385181	0.407113	-0.570934
48135	9.228291	-0.010448	4.094488	0.005605	-0.310696	0.278385	-0.599853	-0.385299	0.406997	-0.571029
48136	9.094587	0.160905	4.109212	-0.168068	-0.369803	0.160178	-0.599831	-0.385366	0.407207	-0.570857
48137	9.394086	0.080297	3.660190	-0.067026	0.147187	0.268291	-0.599525	-0.385609	0.407610	-0.570727
48138	9.479564	-0.036822	3.748623	0.046973	0.080389	0.380790	-0.598854	-0.386373	0.407612	-0.570914
48139	9.474493	-0.222951	4.116251	0.223386	-0.284449	0.513416	-0.598215	-0.387368	0.407578	-0.570934
48140	9.218264	-0.133824	4.087312	0.140640	-0.370803	0.264171	-0.597380	-0.388850	0.407615	-0.570775
48141	9.587161	0.063930	3.900210	-0.035214	-0.074900	0.537313	-0.596761	-0.389855	0.407614	-0.570736
48142	9.792364	0.097214	3.632498	-0.052420	0.244130	0.629177	-0.596494	-0.390030	0.407179	-0.571206
48143	9.686716	-0.010479	3.977984	0.043960	-0.103423	0.658427	-0.596569	-0.389601	0.406100	-0.572188
48144	9.518042	-0.050206	3.957302	0.083509	-0.120240	0.494319	-0.596846	-0.389062	0.405022	-0.573030
48145	9.420782	0.042941	3.892430	-0.005374	-0.059017	0.380464	-0.597339	-0.388289	0.403482	-0.574125
48146	9.208930	0.116058	4.059644	-0.085897	-0.252818	0.248483	-0.597856	-0.387127	0.402485	-0.575071
48147	9.188076	0.148395	3.963713	-0.126372	-0.138647	0.193235	-0.598221	-0.385722	0.402272	-0.575784
48148	9.269547	-0.094449	4.048210	0.099258	-0.164452	0.300890	-0.598525	-0.384388	0.401945	-0.576589
48149	9.131684	-0.243997	4.016318	0.237492	-0.169681	0.161919	-0.598903	-0.383594	0.401685	-0.576906
48150	9.375227	0.037492	3.743003	-0.035732	0.200487	0.280126	-0.599034	-0.383304	0.401267	-0.577253
48151	9.518259	-0.011464	3.843777	0.012666	0.177821	0.450850	-0.599193	-0.382940	0.400511	-0.577855
48152	9.514982	-0.037157	3.733388	0.043131	0.298782	0.404126	-0.599512	-0.382430	0.399681	-0.578436
48153	9.432672	0.049172	3.754776	-0.043087	0.274409	0.336147	-0.599971	-0.381721	0.398832	-0.579014
48154	9.259888	0.140786	3.930854	-0.140106	0.072854	0.246735	-0.600338	-0.381120	0.397988	-0.579609
48155	9.156775	0.058222	3.959992	-0.058991	0.025605	0.163648	-0.600664	-0.380518	0.397338	-0.580114
48156	8.969676	-0.049056	4.124050	0.040250	-0.183517	0.057974	-0.600903	-0.379948	0.396893	-0.580543
48157	9.042831	-0.095358	4.146098	0.083636	-0.161777	0.134113	-0.601058	-0.379501	0.396704	-0.580805
48158	9.200693	-0.003840	4.188162	-0.011801	-0.123739	0.295626	-0.601343	-0.378915	0.396710	-0.580888
48159	9.139487	-0.045670	4.216013	0.021462	-0.161870	0.251128	-0.601815	-0.377941	0.396704	-0.581038
48160	8.972876	-0.073627	4.357473	0.031919	-0.342694	0.156615	-0.602451	-0.376626	0.397008	-0.581025
48161	9.106880	0.079161	4.277510	-0.131913	-0.194896	0.246299	-0.603014	-0.375370	0.397464	-0.580942
48162	9.144584	0.086104	4.537858	-0.165272	-0.401557	0.387036	-0.603719	-0.373803	0.398071	-0.580805
48163	9.130373	-0.068498	4.618888	-0.033064	-0.481561	0.408345	-0.604039	-0.372986	0.399218	-0.580209
48164	9.100421	-0.255997	4.460983	0.148684	-0.369355	0.317713	-0.604198	-0.372985	0.400246	-0.579336
48165	9.369685	-0.176002	4.167710	0.081346	-0.008969	0.443288	-0.604350	-0.373301	0.401169	-0.578335
48166	9.418580	0.025986	4.077270	-0.115581	0.083148	0.449581	-0.604565	-0.373406	0.401984	-0.577475
48167	9.222326	0.199064	4.112030	-0.295783	-0.037200	0.282401	-0.604520	-0.373460	0.403025	-0.576761
48168	9.214060	-0.063811	3.934262	-0.032435	0.090091	0.205904	-0.604419	-0.373536	0.404152	-0.576029
48169	9.159233	-0.075145	4.165694	-0.037514	-0.163305	0.248232	-0.604573	-0.373696	0.405005	-0.575165
48170	9.163749	-0.069725	4.098632	-0.038717	-0.120768	0.225331	-0.604763	-0.374098	0.405998	-0.574002
48171	9.236925	-0.246712	3.910221	0.151355	0.052064	0.219553	-0.605196	-0.374143	0.406759	-0.572976
48172	9.098638	-0.150644	4.141758	0.042671	-0.221724	0.182866	-0.605663	-0.374016	0.407403	-0.572108
48173	9.306677	-0.241482	3.653243	0.163401	0.292586	0.182632	-0.606090	-0.373821	0.408227	-0.571194
48174	9.301019	-0.279090	3.848948	0.190699	0.106218	0.254764	-0.606660	-0.373448	0.408143	-0.570894
48175	9.160577	-0.207980	4.286657	0.094980	-0.340292	0.297211	-0.607214	-0.373121	0.408151	-0.570513
48176	9.059752	-0.188512	3.858163	0.099113	0.010677	0.035669	-0.607597	-0.372840	0.409092	-0.569614
48177	9.346553	-0.240574	3.899493	0.144629	0.071551	0.316277	-0.607814	-0.372288	0.410133	-0.568995
48178	9.330608	-0.372888	3.856377	0.267644	0.089111	0.286390	-0.608062	-0.371719	0.410934	-0.568523
48179	9.501044	-0.254270	3.598147	0.159599	0.395203	0.341104	-0.608114	-0.371370	0.411653	-0.568176
48180	9.227445	-0.089170	4.162462	-0.057757	-0.205455	0.308288	-0.608674	-0.370046	0.411126	-0.568821
48181	9.180716	-0.103235	4.032778	-0.046276	-0.080030	0.214820	-0.609230	-0.368756	0.411243	-0.568979
48182	9.542933	-0.444076	3.545428	0.322378	0.509182	0.359409	-0.609996	-0.367218	0.411074	-0.569275
48183	9.448742	-0.187936	4.130367	0.010025	-0.011204	0.501071	-0.610524	-0.365629	0.410534	-0.570120
48184	9.167719	0.162923	4.301633	-0.370542	-0.217512	0.306252	-0.611098	-0.363988	0.410093	-0.570874
48185	8.904306	0.255359	4.473372	-0.492709	-0.433929	0.133754	-0.612032	-0.362034	0.409501	-0.571539
48186	9.036901	-0.303047	4.109644	0.084162	-0.053727	0.118905	-0.612783	-0.360631	0.408974	-0.571998
48187	9.124834	-0.584991	4.281602	0.347956	-0.162199	0.276388	-0.613407	-0.359472	0.408105	-0.572680
48188	9.321324	-0.538218	4.629394	0.274126	-0.363267	0.598888	-0.613608	-0.358869	0.407370	-0.573365
48189	9.373433	-0.297832	4.508597	0.040991	-0.189646	0.591144	-0.613949	-0.357946	0.406918	-0.573898
48190	9.269887	0.265223	4.589246	-0.532977	-0.231661	0.518066	-0.614727	-0.356575	0.406113	-0.574488
48191	8.927093	0.298640	4.735642	-0.584383	-0.461317	0.269670	-0.615688	-0.354920	0.404745	-0.575449
48192	8.940592	-0.035658	4.338593	-0.221778	-0.078397	0.122271	-0.616337	-0.353561	0.403758	-0.576283
48193	9.081079	-0.400925	4.317447	0.141454	0.015352	0.249453	-0.617040	-0.352062	0.402541	-0.577299
48194	9.318724	-0.374684	4.572546	0.092235	-0.063938	0.573574	-0.617784	-0.350542	0.401594	-0.578087
48195	9.239686	-0.227753	4.610052	-0.062016	-0.085143	0.515191	-0.618281	-0.349585	0.400908	-0.578612
48196	9.370375	-0.116566	4.469550	-0.161515	0.134718	0.567587	-0.618806	-0.348699	0.400198	-0.579077
48197	9.138379	0.038010	4.867067	-0.348670	-0.271185	0.531606	-0.619668	-0.347311	0.398560	-0.580118
48198	8.767629	-0.075266	4.765124	-0.228757	-0.301199	0.159277	-0.620555	-0.345658	0.396877	-0.581310
48199	9.027757	-0.298904	4.214688	0.038513	0.342166	0.148966	-0.621301	-0.343863	0.395534	-0.582492
48200	9.022008	-0.489901	4.526356	0.196125	0.096735	0.290606	-0.621851	-0.342308	0.394495	-0.583524
48201	9.101824	-0.367848	4.692952	0.052480	0.028333	0.434200	-0.621993	-0.341384	0.394162	-0.584139
48202	9.262111	-0.290577	4.665580	-0.028288	0.148275	0.561125	-0.621902	-0.341085	0.393923	-0.584571
48203	9.082587	-0.179234	5.113235	-0.177938	-0.308555	0.605748	-0.621826	-0.340916	0.393144	-0.585275
48204	8.804886	-0.303012	5.121757	-0.052812	-0.436561	0.368512	-0.621580	-0.340902	0.392071	-0.586263
48205	8.966179	-0.522636	4.568070	0.209726	0.124512	0.260707	-0.620918	-0.340908	0.391677	-0.587223
48206	9.257450	-0.492046	4.842062	0.143016	0.026656	0.645172	-0.620106	-0.340369	0.392152	-0.588078
48207	9.176722	-0.441811	5.036426	0.051317	-0.177325	0.662945	-0.619345	-0.339740	0.392808	-0.588804
48208	8.568152	-0.200241	5.080026	-0.213647	-0.486625	0.136057	-0.618739	-0.339573	0.393368	-0.589163
48209	8.673881	-0.002830	4.966227	-0.413543	-0.330741	0.168255	-0.618279	-0.339709	0.393738	-0.589321
48210	8.963703	-0.051034	4.955184	-0.371608	-0.195097	0.420995	-0.617943	-0.339829	0.393864	-0.589520
48211	9.022128	-0.059220	4.748711	-0.349414	0.012104	0.377029	-0.617888	-0.339889	0.393763	-0.589611
48212	8.845020	-0.140002	4.891789	-0.276420	-0.202543	0.290092	-0.617838	-0.340131	0.393627	-0.589614
48213	8.889454	-0.554762	4.879772	0.141216	-0.203453	0.340193	-0.617425	-0.340671	0.393629	-0.589734
48214	9.045904	-0.870315	4.845826	0.457287	-0.132196	0.475231	-0.616587	-0.341365	0.393853	-0.590059
48215	9.014894	-0.791383	4.842516	0.372865	-0.157284	0.443079	-0.615416	-0.342211	0.394477	-0.590375
48216	8.999528	-0.683326	4.716193	0.265099	-0.071346	0.366973	-0.614050	-0.343249	0.395173	-0.590729
48217	9.086709	-0.456329	4.562390	0.038566	0.090381	0.364846	-0.612712	-0.344236	0.395934	-0.591034
48218	9.169676	-0.254571	4.410258	-0.163153	0.247112	0.361318	-0.611513	-0.345167	0.396631	-0.591266
48219	9.037430	-0.244161	4.441970	-0.182594	0.135911	0.257765	-0.610605	-0.345813	0.397212	-0.591437
48220	8.970649	-0.325188	4.716208	-0.126202	-0.162138	0.325294	-0.609903	-0.346372	0.397790	-0.591446
48221	9.094010	-0.407283	4.710639	-0.051870	-0.126251	0.436134	-0.609347	-0.346895	0.398569	-0.591187
48222	9.479703	-0.450743	4.537379	-0.009523	0.178039	0.705104	-0.609028	-0.347211	0.399414	-0.590761
48223	9.716510	-0.590486	4.469288	0.124493	0.316971	0.893282	-0.608923	-0.347395	0.400343	-0.590131
48224	9.431516	-0.601275	4.244964	0.149569	0.369502	0.539888	-0.608957	-0.347458	0.401390	-0.589348
48225	9.301412	-0.631764	4.291244	0.172165	0.249736	0.445876	-0.609002	-0.347407	0.402422	-0.588627
48226	9.266446	-0.660763	4.364498	0.187272	0.151176	0.448625	-0.609156	-0.347087	0.403488	-0.587927
48227	9.246675	-0.684832	4.344957	0.202713	0.148062	0.423797	-0.609400	-0.346602	0.404313	-0.587392
48228	9.097382	-0.831934	4.470296	0.332462	-0.046559	0.352218	-0.609685	-0.346139	0.405164	-0.586782
48229	9.041671	-0.914799	4.362627	0.416807	0.011390	0.259419	-0.609849	-0.345936	0.405845	-0.586262
48230	9.026875	-0.805107	4.455558	0.296010	-0.081114	0.281393	-0.609909	-0.345967	0.406391	-0.585803
48231	8.971063	-0.605128	4.478081	0.094477	-0.124556	0.230962	-0.609772	-0.346317	0.406830	-0.585433
48232	9.002020	-0.409933	4.342494	-0.088372	0.007782	0.190000	-0.609468	-0.346949	0.407278	-0.585064
48233	9.127414	-0.354637	4.226442	-0.133243	0.152990	0.249970	-0.609174	-0.347609	0.407596	-0.584757
48234	9.182133	-0.239215	4.422639	-0.260746	-0.003151	0.378511	-0.608997	-0.348053	0.407517	-0.584733
48235	9.030843	-0.335195	4.365808	-0.154568	-0.033222	0.222439	-0.608685	-0.348588	0.407716	-0.584600
48236	9.081261	-0.385304	4.360818	-0.106437	-0.022822	0.268118	-0.608396	-0.348809	0.408273	-0.584380
48237	9.114443	-0.456797	4.466311	-0.052103	-0.119847	0.346671	-0.608155	-0.348703	0.408989	-0.584193
48238	9.003226	-0.403487	4.473445	-0.113037	-0.180326	0.246502	-0.607892	-0.348734	0.409493	-0.584095
48239	9.011377	-0.424734	4.385734	-0.091793	-0.110567	0.217233	-0.607399	-0.349038	0.410017	-0.584059
48240	9.175609	-0.549494	4.377719	0.024015	-0.052034	0.368416	-0.606986	-0.349220	0.410335	-0.584156
48241	9.274786	-0.564380	4.417945	0.029843	-0.055184	0.475874	-0.606532	-0.349608	0.410475	-0.584298
48242	9.260097	-0.537812	4.372256	0.007407	-0.029377	0.441791	-0.606051	-0.350263	0.410609	-0.584310
48243	9.259301	-0.493838	4.315528	-0.029248	0.009807	0.414792	-0.605480	-0.351082	0.410746	-0.584314
48244	9.294077	-0.485814	4.408834	-0.041729	-0.073634	0.485202	-0.604922	-0.351851	0.410759	-0.584420
48245	9.227843	-0.577109	4.357455	0.058058	-0.071836	0.408125	-0.604464	-0.352474	0.410706	-0.584556
48246	9.133607	-0.591595	4.354226	0.078727	-0.117317	0.322009	-0.604059	-0.353068	0.410521	-0.584747
48247	9.196434	-0.483463	4.360181	-0.026213	-0.097297	0.375990	-0.603642	-0.353695	0.410420	-0.584868
48248	9.239224	-0.473742	4.287903	-0.027937	-0.023428	0.384002	-0.603149	-0.354361	0.410468	-0.584940
48249	9.218701	-0.414207	4.398001	-0.092501	-0.137946	0.408411	-0.602709	-0.354861	0.410414	-0.585129
48250	9.241152	-0.438115	4.428259	-0.069697	-0.164557	0.442476	-0.602278	-0.355340	0.410388	-0.585301
48251	9.237640	-0.517282	4.375393	0.014284	-0.128662	0.421025	-0.601920	-0.355727	0.410332	-0.585472
48252	9.201809	-0.585643	4.295303	0.089821	-0.079871	0.358421	-0.601568	-0.356105	0.410287	-0.585636
48253	9.130113	-0.528627	4.304641	0.034857	-0.120949	0.294365	-0.601232	-0.356481	0.410290	-0.585750
48254	9.090175	-0.497242	4.366490	0.001457	-0.198898	0.282123	-0.600910	-0.356887	0.410343	-0.585796
48255	9.077497	-0.445511	4.321853	-0.045821	-0.168073	0.249495	-0.600647	-0.357220	0.410409	-0.585817
48256	9.178568	-0.404192	4.274266	-0.085791	-0.087427	0.319628	-0.600405	-0.357506	0.410533	-0.585804
48257	9.192421	-0.411648	4.298909	-0.080196	-0.110395	0.342708	-0.600249	-0.357707	0.410632	-0.585771
48258	9.227380	-0.460805	4.283914	-0.030957	-0.089381	0.370625	-0.600130	-0.357863	0.410733	-0.585728
48259	9.291431	-0.501661	4.224340	0.012348	-0.014474	0.406268	-0.600062	-0.357979	0.410801	-0.585679
48260	9.352957	-0.443586	4.207135	-0.045358	0.027802	0.452385	-0.600087	-0.357998	0.410794	-0.585647
48261	9.338736	-0.411695	4.244176	-0.078227	-0.008170	0.453194	-0.600211	-0.357892	0.410653	-0.585682
48262	9.249224	-0.398000	4.322245	-0.092804	-0.110449	0.403356	-0.600437	-0.357758	0.410435	-0.585686
48263	9.224533	-0.357979	4.230566	-0.123167	-0.029710	0.341218	-0.600695	-0.357624	0.410239	-0.585641
48264	9.195495	-0.401893	4.431887	-0.088148	-0.217730	0.400298	-0.601127	-0.357278	0.409837	-0.585690
48265	9.150848	-0.392734	4.154033	-0.074160	0.024668	0.244257	-0.601438	-0.357170	0.409694	-0.585536
48266	9.127597	-0.522686	3.992899	0.068548	0.155382	0.162313	-0.601642	-0.357061	0.409923	-0.585232
48267	9.286713	-0.362107	4.652194	-0.142272	-0.369011	0.572911	-0.601882	-0.356590	0.410314	-0.584999
48268	9.122871	-0.480120	4.261130	0.000546	-0.086847	0.267341	-0.602204	-0.356229	0.410492	-0.584763
48269	9.180866	-0.501566	4.233187	0.021437	-0.039241	0.309454	-0.602351	-0.356186	0.410760	-0.584449
48270	9.251630	-0.497484	4.322504	0.008451	-0.091410	0.410607	-0.602563	-0.355899	0.410883	-0.584319
48271	9.298360	-0.517732	4.318468	0.025270	-0.064108	0.452397	-0.602892	-0.355397	0.410898	-0.584275
48272	9.279510	-0.530635	4.286247	0.038305	-0.034905	0.422551	-0.603280	-0.354888	0.410850	-0.584217
48273	9.205444	-0.538142	4.203909	0.051623	0.016521	0.321399	-0.603613	-0.354471	0.410815	-0.584152
48274	9.115354	-0.514246	4.257574	0.023937	-0.061776	0.260875	-0.603877	-0.354087	0.410824	-0.584106
48275	9.070465	-0.497887	4.203189	0.010205	-0.026619	0.196668	-0.604048	-0.353833	0.410967	-0.583981
48276	9.039045	-0.456346	4.263870	-0.037409	-0.091229	0.191484	-0.604167	-0.353647	0.411109	-0.583871
48277	9.211226	-0.402747	4.335414	-0.102219	-0.081452	0.374934	-0.604206	-0.353528	0.411365	-0.583723
48278	9.362905	-0.369573	4.444219	-0.150399	-0.117278	0.556270	-0.604215	-0.353386	0.411698	-0.583564
48279	9.294733	-0.346939	4.439224	-0.176429	-0.143022	0.491076	-0.604259	-0.353166	0.412060	-0.583397
48280	9.300587	-0.229424	4.374104	-0.294094	-0.076867	0.463203	-0.604323	-0.352947	0.412416	-0.583210
48281	9.324805	-0.144944	4.359565	-0.382593	-0.048988	0.474685	-0.604464	-0.352638	0.412662	-0.583078
48282	9.186946	-0.072977	4.180526	-0.441339	0.060996	0.271141	-0.604619	-0.352383	0.412855	-0.582935
48283	9.149399	-0.058835	4.206576	-0.458869	0.022284	0.247093	-0.604736	-0.352275	0.413054	-0.582737
48284	9.398162	0.045736	4.188656	-0.568131	0.146155	0.460006	-0.604733	-0.352295	0.413336	-0.582529
48285	9.478626	0.097268	4.269885	-0.630732	0.103884	0.564071	-0.604623	-0.352292	0.413705	-0.582383
48286	9.507455	0.173626	4.161927	-0.704752	0.213963	0.541105	-0.604473	-0.352131	0.414062	-0.582383
48287	9.462146	0.182510	4.066979	-0.713304	0.280068	0.459537	-0.604265	-0.351890	0.414305	-0.582571
48288	9.307081	0.181521	4.085860	-0.719956	0.198758	0.325907	-0.603978	-0.351647	0.414486	-0.582886
48289	8.985922	0.204602	4.081126	-0.745400	0.071060	0.030257	-0.603569	-0.351459	0.414652	-0.583305
48290	8.866221	0.259469	4.014332	-0.802554	0.084603	-0.110069	-0.603052	-0.351339	0.414850	-0.583770
48291	9.004753	0.244042	4.031844	-0.803714	0.124587	0.022932	-0.602452	-0.351227	0.415002	-0.584350
48292	9.120030	0.107567	4.010940	-0.682052	0.182516	0.125905	-0.601752	-0.351124	0.415142	-0.585033
48293	9.270019	0.087814	4.045601	-0.684229	0.211751	0.276654	-0.600966	-0.350999	0.415325	-0.585786
48294	9.475539	0.064760	3.979883	-0.680160	0.355817	0.436227	-0.600158	-0.350722	0.415551	-0.586619
48295	9.670501	0.115779	4.342653	-0.786214	0.117758	0.758905	-0.599507	-0.350085	0.415513	-0.587691
48296	9.497845	0.024400	3.772671	-0.667383	0.564993	0.369553	-0.598660	-0.349592	0.415756	-0.588676
48297	9.429759	0.073721	4.263102	-0.778372	0.098481	0.506430	-0.597781	-0.348893	0.416263	-0.589625
48298	9.376549	0.098473	4.415888	-0.843286	-0.058119	0.517600	-0.596774	-0.348169	0.416842	-0.590662
48299	9.149433	-0.057048	3.938233	-0.670451	0.272693	0.122157	-0.595742	-0.347718	0.417258	-0.591675
48300	9.088903	-0.037147	3.842221	-0.706816	0.334171	0.024023	-0.594522	-0.347398	0.417729	-0.592757
48301	9.093623	-0.277696	3.574161	-0.475814	0.563642	-0.065813	-0.593025	-0.347233	0.418239	-0.593992
48302	9.156291	-0.521425	3.526093	-0.263263	0.614691	-0.009849	-0.591278	-0.347335	0.418828	-0.595258
48303	9.172262	-0.790938	3.492908	-0.025329	0.629468	0.013777	-0.589276	-0.347546	0.419414	-0.596705
48304	9.132933	-1.134370	3.517966	0.282484	0.567064	0.019498	-0.587056	-0.347749	0.419987	-0.598371
48305	8.964923	-1.406159	3.786364	0.509293	0.236003	0.004057	-0.584732	-0.347888	0.420553	-0.600164
48306	8.890420	-1.683391	3.940186	0.741810	0.051044	0.028320	-0.582362	-0.347877	0.421209	-0.602013
48307	8.809070	-2.018956	3.944224	1.041129	0.001595	-0.007143	-0.579939	-0.347811	0.421845	-0.603942
48308	8.780562	-2.217190	4.134201	1.189332	-0.188438	0.069401	-0.577520	-0.347802	0.422330	-0.605922
48309	8.824392	-2.360711	4.290605	1.283779	-0.315621	0.192529	-0.575045	-0.348140	0.422604	-0.607888
48310	9.203852	-2.378820	4.650527	1.217960	-0.490968	0.688387	-0.572649	-0.348836	0.422689	-0.609689
48311	9.592747	-2.313500	4.830314	1.085226	-0.503598	1.108561	-0.570408	-0.349891	0.422721	-0.611162
48312	9.574608	-2.293748	4.734937	1.061387	-0.434779	1.051862	-0.568467	-0.351154	0.422484	-0.612408
48313	9.633313	-2.222740	4.767018	0.983859	-0.452237	1.109457	-0.566771	-0.352765	0.421995	-0.613390
48314	9.608004	-2.169285	4.743864	0.946660	-0.454979	1.069434	-0.565332	-0.354681	0.421264	-0.614115
48315	9.506821	-2.001672	4.755854	0.814718	-0.521962	0.960807	-0.564185	-0.356858	0.420177	-0.614654
48316	9.279923	-1.873049	4.819438	0.744666	-0.684371	0.762247	-0.563299	-0.359229	0.418782	-0.615037
48317	8.976035	-1.819336	4.720084	0.768936	-0.726152	0.436197	-0.562581	-0.361838	0.417272	-0.615191
48318	8.755998	-1.804847	4.471699	0.828950	-0.595828	0.131090	-0.562000	-0.364505	0.415570	-0.615299
48319	8.685036	-1.602814	4.427922	0.684417	-0.596843	0.025021	-0.561564	-0.367034	0.413742	-0.615427
48320	8.737844	-1.511514	4.434151	0.636869	-0.588252	0.063772	-0.561339	-0.369331	0.411869	-0.615514
48321	8.793324	-1.409823	4.464646	0.577595	-0.598644	0.114600	-0.561350	-0.371327	0.410095	-0.615487
48322	8.805342	-1.258474	4.487948	0.470254	-0.619669	0.119795	-0.561632	-0.372950	0.408495	-0.615312
48323	8.905332	-1.171264	4.485663	0.414555	-0.578489	0.201869	-0.562137	-0.374208	0.407124	-0.614996
48324	8.990770	-1.165464	4.431650	0.436074	-0.488999	0.257188	-0.562833	-0.375042	0.405873	-0.614678
48325	9.155946	-1.176093	4.770015	0.467042	-0.722558	0.542373	-0.563708	-0.375411	0.404722	-0.614410
48326	9.042713	-1.325639	4.301595	0.643596	-0.320191	0.262774	-0.564458	-0.375783	0.404036	-0.613946
48327	8.991638	-1.141079	4.645998	0.485246	-0.659804	0.339460	-0.565156	-0.375785	0.403783	-0.613468
48328	9.004098	-1.125465	4.538835	0.479127	-0.552601	0.306924	-0.565708	-0.375880	0.403382	-0.613166
48329	9.134117	-1.135861	4.373280	0.489747	-0.344626	0.360278	-0.566229	-0.376047	0.403040	-0.612807
48330	9.227220	-0.917445	4.264402	0.275186	-0.217566	0.387575	-0.566657	-0.376288	0.403024	-0.612273
48331	9.073313	-0.652075	3.970919	0.029517	-0.025947	0.112878	-0.567105	-0.376634	0.403126	-0.611579
48332	9.055161	-0.215455	3.545347	-0.395914	0.327675	-0.099413	-0.567602	-0.377288	0.403551	-0.610433
48333	9.476181	0.034983	3.146059	-0.661786	0.831647	0.115417	-0.568085	-0.378174	0.403991	-0.609143
48334	9.959557	-0.038660	3.088203	-0.599716	1.054182	0.543963	-0.568559	-0.379193	0.404454	-0.607758
48335	10.135972	-0.291733	3.487632	-0.331247	0.739973	0.879797	-0.569307	-0.379936	0.405069	-0.606183
48336	10.040592	-0.462914	4.074863	-0.129897	0.146698	1.031383	-0.570351	-0.380130	0.405853	-0.604553
48337	9.774602	-0.443667	4.093886	-0.119339	0.011182	0.793217	-0.571633	-0.379905	0.406693	-0.602917
48338	9.407800	-0.476981	4.308276	-0.057018	-0.335310	0.540078	-0.573203	-0.379150	0.407676	-0.601235
48339	9.124541	-0.706105	4.595982	0.187974	-0.710209	0.401966	-0.574928	-0.378157	0.408778	-0.599463
48340	9.059460	-0.754680	4.552791	0.238009	-0.698127	0.327689	-0.576808	-0.376925	0.409954	-0.597627
48341	9.205226	-0.754916	4.406620	0.229319	-0.507859	0.405623	-0.578751	-0.375536	0.411115	-0.595822
48342	9.385103	-0.832909	4.237849	0.298730	-0.281018	0.510347	-0.580799	-0.374017	0.412245	-0.594002
48343	9.428077	-0.810554	4.221855	0.273568	-0.245131	0.542734	-0.582965	-0.372456	0.413227	-0.592175
48344	9.307665	-0.808864	4.211079	0.277954	-0.275924	0.427756	-0.585202	-0.370901	0.414189	-0.590270
48345	8.817140	-0.646747	3.980224	0.146475	-0.250133	-0.121537	-0.587223	-0.369751	0.415387	-0.588139
48346	8.417969	-0.582176	3.755368	0.111159	-0.203142	-0.579580	-0.588975	-0.369006	0.416508	-0.586058
48347	8.842846	-0.831650	4.093767	0.335936	-0.364397	-0.045351	-0.590705	-0.368225	0.417313	-0.584232
48348	9.218553	-1.015011	4.252217	0.506060	-0.375058	0.370463	-0.592465	-0.367371	0.418049	-0.582460
48349	9.024557	-1.081480	4.328808	0.579636	-0.524937	0.224208	-0.594291	-0.366360	0.418686	-0.580776
48350	8.664727	-1.015593	3.564864	0.576789	0.036616	-0.406140	-0.595826	-0.365645	0.419673	-0.578939
48351	8.706459	-0.974611	3.232314	0.564675	0.346990	-0.498137	-0.596921	-0.365449	0.420736	-0.577160
48352	9.211141	-0.854718	2.970950	0.464782	0.772408	-0.138519	-0.597786	-0.365593	0.421410	-0.575680
48353	9.947849	-0.899015	4.549841	0.393647	-0.400137	1.148785	-0.599245	-0.364901	0.421083	-0.574841
48354	10.059438	-0.961725	4.402935	0.478825	-0.207235	1.197797	-0.600979	-0.363785	0.420840	-0.573915
48355	9.373411	-1.440388	4.084687	0.998977	-0.193340	0.462761	-0.602860	-0.362321	0.420723	-0.572954
48356	8.936280	-1.255448	4.248921	0.806877	-0.486575	0.117003	-0.604513	-0.360809	0.421286	-0.571750
48357	8.806930	-1.313305	3.561193	0.925250	0.088271	-0.267794	-0.605539	-0.360273	0.422084	-0.570413
48358	8.968023	-1.214143	3.607248	0.826243	0.104944	-0.106087	-0.606205	-0.360318	0.422717	-0.569207
48359	9.761717	-1.121132	3.798763	0.720269	0.237826	0.694610	-0.606879	-0.360237	0.422887	-0.568413
48360	9.976239	-1.152945	4.221408	0.724497	-0.066157	1.056793	-0.607955	-0.359976	0.422492	-0.567722
48361	9.708274	-1.023175	3.941596	0.642066	0.104973	0.694945	-0.609196	-0.359823	0.422015	-0.566843
48362	9.120057	-1.072960	3.759928	0.731328	0.045288	0.083109	-0.610554	-0.359665	0.421315	-0.566002
48363	8.634031	-1.108992	3.184706	0.845058	0.383500	-0.590027	-0.611651	-0.359863	0.420756	-0.565107
48364	8.499022	-1.150107	2.838050	0.942116	0.643316	-0.851149	-0.612392	-0.360415	0.420235	-0.564340
48365	8.614009	-1.187319	2.783589	1.008701	0.733649	-0.768160	-0.613073	-0.361017	0.419509	-0.563755
48366	8.780817	-1.095493	3.003589	0.920324	0.609341	-0.533352	-0.613743	-0.361424	0.418728	-0.563347
48367	9.172472	-0.936819	3.421409	0.746042	0.401862	-0.014738	-0.614379	-0.361528	0.418220	-0.562963
48368	9.131043	-0.943911	3.568926	0.751750	0.252016	0.004414	-0.614819	-0.361739	0.417998	-0.562513
48369	9.120208	-0.963675	3.603862	0.779077	0.214361	0.007790	-0.615227	-0.361856	0.417689	-0.562221
48370	9.146415	-0.904889	3.501546	0.740453	0.327892	-0.010608	-0.615490	-0.361921	0.417255	-0.562212
48371	9.278632	-0.982171	3.488633	0.829706	0.391778	0.106300	-0.615376	-0.362284	0.416464	-0.562691
48372	9.387202	-0.781873	3.792991	0.611835	0.188294	0.321800	-0.614982	-0.362703	0.415296	-0.563714
48373	9.698527	-0.747426	4.170376	0.555304	-0.009832	0.756305	-0.614324	-0.363040	0.413875	-0.565257
48374	9.933369	-0.868886	4.285358	0.675545	-0.007944	1.019423	-0.613337	-0.363628	0.412260	-0.567127
48375	10.226557	-0.801144	4.704259	0.585949	-0.241718	1.454634	-0.612283	-0.364409	0.410423	-0.569095
48376	10.092538	-0.610212	4.950761	0.388125	-0.486910	1.428040	-0.611095	-0.365669	0.408761	-0.570756
48377	9.767217	-0.574567	4.676074	0.388235	-0.363091	1.018365	-0.609706	-0.367676	0.407354	-0.571958
48378	9.544037	-0.616880	4.523126	0.464881	-0.331528	0.751483	-0.608158	-0.370388	0.406140	-0.572719
48379	9.415523	-0.527634	4.344590	0.418887	-0.244820	0.558923	-0.606529	-0.373692	0.405150	-0.573002
48380	9.134396	-0.294365	4.086208	0.234830	-0.147884	0.194491	-0.605053	-0.377243	0.404269	-0.572857
48381	8.906004	-0.019016	4.013839	0.001945	-0.201994	-0.046058	-0.603906	-0.380720	0.403491	-0.572316
48382	9.066582	-0.073942	3.849964	0.109842	-0.035550	0.037032	-0.603157	-0.383813	0.402969	-0.571406
48383	9.388674	-0.042941	4.181508	0.117121	-0.257093	0.461258	-0.602901	-0.386500	0.402486	-0.570204
48384	9.483116	-0.001447	3.571568	0.142993	0.300456	0.315222	-0.603031	-0.388918	0.402729	-0.568248
48385	9.909803	0.123280	3.778235	0.063483	0.232896	0.790894	-0.603903	-0.390353	0.403320	-0.565915
48386	9.912291	0.362085	4.158954	-0.149255	-0.139509	0.940897	-0.605369	-0.391364	0.403600	-0.563445
48387	9.743136	0.596984	3.596497	-0.323583	0.304344	0.580690	-0.607083	-0.392552	0.403932	-0.560528
48388	9.712239	0.862284	3.626537	-0.541634	0.253282	0.573125	-0.609137	-0.393472	0.404444	-0.557277
48389	9.104674	1.060990	3.459941	-0.716190	0.173746	-0.042905	-0.611439	-0.394212	0.405196	-0.553674
48390	8.511444	1.362405	3.352674	-1.000457	0.052294	-0.618267	-0.613735	-0.395256	0.406301	-0.549565
48391	8.258087	1.702090	3.358338	-1.310614	-0.049898	-0.832092	-0.615962	-0.396540	0.407641	-0.545139
48392	8.692868	1.810099	3.473229	-1.347727	-0.030604	-0.374037	-0.618050	-0.397866	0.409162	-0.540652
48393	9.422858	1.604852	3.795216	-1.061345	-0.136512	0.415903	-0.620131	-0.398927	0.410805	-0.536222
48394	9.924087	1.315754	4.102593	-0.710480	-0.325031	0.978014	-0.622057	-0.399882	0.412421	-0.532023
48395	10.077249	1.259313	4.142939	-0.604306	-0.360603	1.132873	-0.623764	-0.400743	0.413696	-0.528373
48396	9.651764	1.156468	4.385914	-0.527570	-0.782352	0.809909	-0.625003	-0.402053	0.414553	-0.525234
48397	9.022080	1.268878	4.048114	-0.640682	-0.703391	0.111511	-0.625674	-0.403806	0.415381	-0.522427
48398	8.444533	1.482964	3.700111	-0.854627	-0.583843	-0.532136	-0.625860	-0.405764	0.416161	-0.520063
48399	8.625866	1.641520	3.592816	-0.956722	-0.450051	-0.384516	-0.625788	-0.407534	0.416949	-0.518130
48400	9.034310	1.824200	3.780757	-1.088887	-0.517326	0.076051	-0.625601	-0.408945	0.417790	-0.516564
48401	9.494273	1.783522	3.916963	-0.996354	-0.545982	0.549448	-0.625279	-0.410031	0.418745	-0.515319
48402	9.493492	1.682985	3.576112	-0.862299	-0.275113	0.430751	-0.624664	-0.411143	0.419852	-0.514276
48403	9.378035	1.806815	3.463424	-0.990061	-0.225544	0.295539	-0.623797	-0.412146	0.420845	-0.513714
48404	9.929726	1.873876	3.550951	-1.005291	-0.170538	0.849410	-0.622784	-0.413134	0.421806	-0.513361
48405	10.208447	1.884182	3.480310	-0.983815	-0.053261	1.091636	-0.621836	-0.414008	0.422523	-0.513217
48406	9.733734	1.746919	3.582397	-0.919660	-0.332703	0.659865	-0.621013	-0.414686	0.423029	-0.513249
48407	9.644480	1.774106	3.218925	-0.930819	-0.030757	0.466297	-0.620334	-0.415199	0.423515	-0.513256
48408	9.794194	1.833724	3.186324	-0.977261	0.039052	0.602919	-0.619986	-0.415205	0.423836	-0.513405
48409	10.159158	1.707893	3.223783	-0.823300	0.095500	0.949804	-0.619957	-0.414761	0.423924	-0.513728
48410	10.000627	1.353584	3.052372	-0.483362	0.178790	0.718033	-0.619982	-0.414321	0.423840	-0.514121
48411	9.651375	1.017735	2.771303	-0.171826	0.314505	0.273764	-0.619964	-0.413902	0.423632	-0.514650
48412	9.749237	0.875508	2.722322	-0.022956	0.388281	0.339842	-0.619980	-0.413297	0.423195	-0.515477
48413	9.741001	0.844016	2.609125	0.007630	0.509565	0.294104	-0.619922	-0.412585	0.422800	-0.516440
48414	9.577751	0.846473	2.610945	-0.025577	0.476923	0.139133	-0.619793	-0.411901	0.422770	-0.517165
48415	9.274848	0.948228	3.091778	-0.216293	-0.042181	0.007314	-0.619729	-0.411038	0.422792	-0.517909
48416	9.078072	0.975151	2.559483	-0.230130	0.422195	-0.342628	-0.619648	-0.410362	0.422516	-0.518767
48417	9.072883	1.070627	2.949295	-0.369854	0.077781	-0.220037	-0.619510	-0.409851	0.422282	-0.519526
48418	9.322085	1.142179	3.301434	-0.455724	-0.155459	0.130824	-0.619465	-0.409140	0.421947	-0.520412
48419	9.157645	1.150021	3.425926	-0.501111	-0.302696	0.014785	-0.619423	-0.408454	0.421464	-0.521390
48420	9.151302	1.224014	3.548852	-0.594124	-0.390566	0.053077	-0.619402	-0.407759	0.420831	-0.522470
48421	9.163412	1.243875	3.743297	-0.637247	-0.542233	0.128512	-0.619434	-0.406904	0.420031	-0.523741
48422	9.229101	1.256460	3.584223	-0.638861	-0.341567	0.141044	-0.619406	-0.406039	0.419258	-0.525063
48423	9.309363	1.291791	3.628971	-0.681336	-0.324562	0.233841	-0.619404	-0.404980	0.418548	-0.526449
48424	9.595335	1.246252	3.927283	-0.648302	-0.487220	0.598333	-0.619417	-0.403778	0.417995	-0.527794
48425	9.646387	1.127340	3.630752	-0.519073	-0.174320	0.541351	-0.619282	-0.402674	0.417599	-0.529107
48426	9.369421	0.968733	3.641993	-0.406919	-0.265896	0.274545	-0.618977	-0.401731	0.417258	-0.530448
48427	9.358268	1.114007	3.644450	-0.572889	-0.232320	0.272844	-0.618595	-0.400683	0.416959	-0.531920
48428	9.436245	1.040759	3.748178	-0.525406	-0.286753	0.376344	-0.618095	-0.399599	0.416698	-0.533519
48429	9.519844	1.068415	4.068135	-0.597405	-0.530077	0.564242	-0.617605	-0.398399	0.416463	-0.535165
48430	9.440880	1.145928	4.131250	-0.713973	-0.579581	0.515177	-0.617130	-0.397056	0.416236	-0.536884
48431	9.189167	1.101149	3.783647	-0.690511	-0.312758	0.156993	-0.616642	-0.395671	0.415787	-0.538812
48432	8.958381	0.991577	3.464578	-0.601278	-0.070438	-0.175652	-0.616090	-0.394335	0.415105	-0.540945
48433	9.141747	0.955647	3.372265	-0.573120	0.110995	-0.039459	-0.615426	-0.392979	0.414326	-0.543280
48434	9.486517	0.959557	3.774575	-0.613337	-0.102348	0.423291	-0.614811	-0.391385	0.413335	-0.545875
48435	9.556793	0.950768	3.897987	-0.640285	-0.141721	0.531400	-0.614338	-0.389494	0.412048	-0.548725
48436	9.434103	0.914476	3.707678	-0.629973	0.050169	0.345344	-0.614032	-0.387268	0.410426	-0.551849
48437	9.340475	0.962794	3.809263	-0.721707	-0.004334	0.294761	-0.613772	-0.384910	0.408576	-0.555152
48438	9.164402	0.981150	3.781509	-0.776949	0.031547	0.119257	-0.613550	-0.382521	0.406414	-0.558626
48439	9.031549	1.080523	3.796287	-0.909882	0.050343	0.001448	-0.613247	-0.380294	0.404035	-0.562192
48440	8.997746	1.152491	4.006903	-1.018751	-0.076802	0.051323	-0.613024	-0.378141	0.401590	-0.565629
48441	8.759501	1.128079	4.044937	-1.025705	-0.134700	-0.153896	-0.612934	-0.375998	0.399220	-0.568824
48442	8.664812	1.039238	4.462606	-0.978916	-0.484624	-0.072043	-0.613180	-0.373620	0.396661	-0.571907
48443	8.587712	0.670440	3.794106	-0.596528	0.142408	-0.420296	-0.613462	-0.371365	0.394824	-0.574340
48444	8.662347	0.641613	4.470966	-0.619651	-0.378761	-0.070529	-0.613956	-0.368806	0.393605	-0.576295
48445	8.949055	0.367584	4.473869	-0.362438	-0.215091	0.190224	-0.614468	-0.366405	0.392582	-0.577975
48446	9.640218	-0.099533	4.243335	0.108108	0.322276	0.715071	-0.615387	-0.363735	0.391843	-0.579185
48447	10.455196	-0.201167	4.622692	0.178932	0.393912	1.612424	-0.616560	-0.360487	0.391390	-0.580273
48448	10.623770	-0.650825	4.717539	0.588305	0.432678	1.806660	-0.618062	-0.356578	0.391014	-0.581343
48449	10.219049	-0.908515	4.496260	0.809762	0.513341	1.347548	-0.619738	-0.352449	0.390856	-0.582183
48450	9.621288	-0.912466	4.724816	0.745169	0.112509	0.918443	-0.621469	-0.348165	0.391065	-0.582774
48451	9.105634	-0.854575	4.914417	0.619444	-0.224231	0.548776	-0.623142	-0.344011	0.391664	-0.583053
48452	8.822624	-0.727707	5.025010	0.434492	-0.393941	0.349729	-0.624793	-0.340295	0.392712	-0.582761
48453	8.646091	-0.704000	4.976635	0.370901	-0.398584	0.173342	-0.626326	-0.337160	0.394112	-0.581992
48454	8.731235	-0.934817	4.650331	0.597162	-0.073550	0.105569	-0.627664	-0.334673	0.395569	-0.580997
48455	8.740990	-1.223313	4.419299	0.880601	0.113342	0.018043	-0.628754	-0.332809	0.397015	-0.579901
48456	8.760090	-1.388746	4.290658	1.038425	0.219004	-0.017218	-0.629660	-0.331296	0.398204	-0.578968
48457	8.699455	-1.517035	4.053226	1.174787	0.384598	-0.175131	-0.630287	-0.330117	0.399163	-0.578299
48458	8.692532	-1.646643	4.098348	1.286218	0.329290	-0.153225	-0.630696	-0.329251	0.399634	-0.578022
48459	8.822203	-1.534056	4.172561	1.159616	0.341074	-0.007902	-0.630794	-0.328819	0.399789	-0.578053
48460	8.977040	-1.462872	4.292346	1.072892	0.322567	0.182127	-0.630675	-0.328672	0.399553	-0.578430
48461	9.047110	-1.545194	4.481282	1.133687	0.190085	0.336121	-0.630432	-0.328775	0.399021	-0.579003
48462	8.976816	-1.431772	4.714008	0.997455	-0.026566	0.378458	-0.630060	-0.329151	0.398402	-0.579621
48463	8.847759	-1.290990	4.921077	0.838917	-0.247800	0.355955	-0.629662	-0.329588	0.397763	-0.580243
48464	8.720531	-1.137439	4.993567	0.682971	-0.351862	0.271304	-0.629237	-0.330068	0.397282	-0.580761
48465	8.731116	-0.910561	5.033339	0.457969	-0.359467	0.289642	-0.628791	-0.330586	0.397024	-0.581125
48466	8.720528	-0.855295	4.990354	0.410599	-0.328253	0.257388	-0.628306	-0.331225	0.397091	-0.581240
48467	8.865846	-0.751995	4.792618	0.331222	-0.090951	0.287803	-0.627730	-0.331993	0.397477	-0.581160
48468	8.989297	-0.752035	4.732498	0.337829	0.000747	0.368442	-0.627129	-0.332727	0.397969	-0.581053
48469	9.051869	-0.814204	4.644472	0.407273	0.081002	0.385249	-0.626407	-0.333551	0.398462	-0.581022
48470	9.123370	-0.946942	4.390329	0.562085	0.303882	0.336167	-0.625602	-0.334332	0.399064	-0.581027
48471	9.304486	-0.909184	4.342767	0.524162	0.413980	0.473884	-0.624912	-0.334849	0.399636	-0.581079
48472	9.255171	-0.764188	4.767755	0.331720	0.016144	0.621073	-0.624495	-0.335245	0.399884	-0.581128
48473	8.916247	-0.899077	4.161307	0.523359	0.370129	0.046996	-0.624112	-0.335716	0.400206	-0.581046
48474	9.045628	-0.828604	4.622639	0.403036	0.017014	0.371418	-0.623804	-0.335822	0.400824	-0.580889
48475	9.154716	-1.066582	4.734981	0.621708	-0.063392	0.530229	-0.623673	-0.335779	0.401282	-0.580739
48476	8.999528	-0.898100	4.404247	0.484629	0.161338	0.233932	-0.623613	-0.336189	0.401761	-0.580234
48477	9.129640	-0.742800	4.685236	0.305294	-0.029714	0.471252	-0.623540	-0.336771	0.402206	-0.579667
48478	9.183515	-0.751438	4.508744	0.336639	0.133451	0.439104	-0.623344	-0.337387	0.402492	-0.579321
48479	9.352667	-0.771515	4.418594	0.371878	0.271444	0.549725	-0.623113	-0.338146	0.402810	-0.578905
48480	9.417683	-0.723198	4.305884	0.343147	0.382607	0.555158	-0.622774	-0.339267	0.403235	-0.578318
48481	9.239560	-0.732356	4.692789	0.321756	-0.068480	0.570944	-0.622344	-0.340472	0.403556	-0.577850
48482	9.285332	-0.631129	4.677231	0.232221	-0.051166	0.600554	-0.621863	-0.341654	0.403924	-0.577412
48483	9.520631	-0.494934	4.262402	0.145930	0.409873	0.621205	-0.621418	-0.342617	0.404394	-0.576991
48484	9.391494	-0.587940	4.277887	0.239857	0.308044	0.516577	-0.620982	-0.343422	0.404728	-0.576748
48485	9.255919	-0.646310	4.301102	0.298276	0.203012	0.407832	-0.620433	-0.344339	0.404940	-0.576644
48486	9.282595	-0.548522	4.448535	0.191266	0.074574	0.493367	-0.619892	-0.345214	0.405050	-0.576625
48487	9.392832	-0.396641	4.409770	0.048312	0.154647	0.570107	-0.619298	-0.346068	0.405201	-0.576644
48488	9.435262	-0.389254	4.224173	0.062475	0.321590	0.527137	-0.618700	-0.347063	0.405380	-0.576563
48489	9.273638	-0.388809	4.401069	0.050679	0.071382	0.459276	-0.618030	-0.348265	0.405528	-0.576452
48490	9.127412	-0.324356	4.497542	-0.014417	-0.093308	0.367381	-0.617412	-0.349444	0.405397	-0.576493
48491	9.225705	-0.334049	4.473194	0.008736	-0.047322	0.445594	-0.616718	-0.350717	0.405210	-0.576594
48492	9.397240	-0.406631	4.411878	0.099110	0.057706	0.576006	-0.616068	-0.352013	0.405024	-0.576630
48493	9.462591	-0.350943	4.371097	0.059942	0.106768	0.615890	-0.615417	-0.353390	0.404916	-0.576559
48494	9.227085	-0.410321	4.751800	0.101247	-0.355730	0.567594	-0.614946	-0.354529	0.404214	-0.576856
48495	9.171141	-0.388877	4.797630	0.093384	-0.427767	0.535577	-0.614312	-0.355847	0.403519	-0.577205
48496	9.136491	-0.364565	4.379122	0.116656	-0.078982	0.324629	-0.613421	-0.357447	0.403194	-0.577391
48497	9.235899	-0.313443	4.401778	0.080802	-0.074244	0.422723	-0.612577	-0.359130	0.402756	-0.577548
48498	9.018839	-0.191286	4.610383	-0.037209	-0.365081	0.311390	-0.611865	-0.360848	0.402028	-0.577740
48499	8.973950	-0.160802	4.768479	-0.054260	-0.542298	0.336151	-0.611123	-0.362681	0.401261	-0.577911
48500	8.890180	-0.166876	4.477140	-0.007401	-0.336075	0.136928	-0.610195	-0.364685	0.400820	-0.577937
48501	9.048232	-0.056840	4.255721	-0.083514	-0.089227	0.185806	-0.609178	-0.366549	0.400560	-0.578010
48502	9.137396	-0.004863	4.445338	-0.130347	-0.242305	0.344937	-0.608400	-0.367850	0.400138	-0.578295
48503	9.116812	0.152156	4.751616	-0.285892	-0.530493	0.451526	-0.607878	-0.369129	0.399071	-0.578766
48504	8.930151	0.095703	4.359722	-0.192573	-0.267209	0.119854	-0.607134	-0.370754	0.398696	-0.578767
48505	9.169313	0.163349	4.165446	-0.236702	-0.018404	0.256942	-0.606084	-0.372357	0.399339	-0.578394
48506	9.250056	-0.187569	4.382848	0.113130	-0.221371	0.421875	-0.605589	-0.373220	0.398833	-0.578707
48507	9.042184	-0.236190	4.321835	0.177928	-0.261684	0.207040	-0.605079	-0.374697	0.398097	-0.578792
48508	9.131524	0.096303	4.126732	-0.124936	-0.051716	0.207570	-0.604291	-0.376459	0.397730	-0.578725
48509	9.125973	0.122036	4.082582	-0.130246	-0.029241	0.184707	-0.603783	-0.377750	0.396971	-0.578934
48510	9.202651	0.102377	4.303203	-0.096113	-0.209567	0.344262	-0.603337	-0.379124	0.396091	-0.579103
48511	9.085000	0.066671	4.015198	-0.034017	-0.005796	0.120200	-0.602844	-0.380405	0.395565	-0.579136
48512	9.145170	0.113878	3.837063	-0.059760	0.168814	0.103867	-0.602138	-0.381781	0.395092	-0.579289
48513	9.063335	0.109022	4.114927	-0.049122	-0.130716	0.140655	-0.601511	-0.382918	0.394486	-0.579602
48514	9.091866	0.200047	4.147077	-0.129724	-0.157701	0.180239	-0.600879	-0.383896	0.394305	-0.579734
48515	9.063378	0.169252	4.034946	-0.092135	-0.079417	0.108978	-0.600271	-0.384594	0.394258	-0.579934
48516	9.136522	0.073609	4.008811	0.006610	-0.037884	0.164814	-0.599650	-0.385164	0.394153	-0.580269
48517	9.030824	0.238488	4.222091	-0.163926	-0.277880	0.153988	-0.599201	-0.385456	0.394092	-0.580581
48518	9.185225	0.166167	4.223947	-0.093528	-0.232567	0.295469	-0.598596	-0.385933	0.394891	-0.580344
48519	9.244211	-0.025566	3.978254	0.097008	-0.006549	0.250767	-0.598040	-0.386389	0.395404	-0.580264
48520	9.283288	0.067470	4.060094	-0.000593	-0.083623	0.319505	-0.597372	-0.387071	0.395994	-0.580096
48521	9.386820	0.125315	3.957855	-0.059564	0.032652	0.374956	-0.596737	-0.387577	0.396480	-0.580080
48522	9.444937	0.076673	3.755281	-0.013179	0.224400	0.349217	-0.596151	-0.387958	0.397030	-0.580052
48523	9.475075	0.131461	3.710716	-0.072571	0.267787	0.360157	-0.595804	-0.388094	0.397172	-0.580221
48524	9.302400	0.180956	3.918800	-0.130731	0.006297	0.282224	-0.595576	-0.388145	0.397257	-0.580362
48525	9.331850	0.143419	3.837163	-0.095578	0.094076	0.277398	-0.595541	-0.387896	0.397170	-0.580624
48526	9.220304	0.062988	3.940991	-0.022187	-0.036178	0.214653	-0.595690	-0.387356	0.396873	-0.581034
48527	9.162807	0.002178	4.058355	0.031527	-0.153144	0.207434	-0.595989	-0.386693	0.396676	-0.581304
48528	9.210366	-0.000335	4.070624	0.030306	-0.133219	0.256182	-0.596329	-0.386167	0.396580	-0.581370
48529	9.302039	-0.014234	3.972986	0.043448	0.000167	0.302196	-0.596652	-0.385725	0.396718	-0.581238
48530	9.314986	-0.236632	3.918024	0.262969	0.060687	0.291917	-0.596843	-0.385197	0.396501	-0.581541
48531	9.240659	-0.100144	4.137248	0.116876	-0.153295	0.310526	-0.596985	-0.384569	0.396222	-0.582000
48532	9.254626	0.048711	4.114748	-0.038340	-0.111166	0.314888	-0.597254	-0.383905	0.396262	-0.582135
48533	9.387958	0.050405	4.129019	-0.045417	-0.060243	0.443013	-0.597780	-0.383147	0.396359	-0.582029
48534	9.372789	0.011126	4.073679	-0.009947	-0.003517	0.407099	-0.598474	-0.382267	0.396417	-0.581855
48535	9.413369	-0.186448	4.103016	0.183898	-0.002647	0.456059	-0.599172	-0.381382	0.396254	-0.581828
48536	9.233147	-0.265209	4.179066	0.253172	-0.130326	0.321651	-0.599807	-0.380307	0.396467	-0.581731
48537	9.379357	0.028770	4.069537	-0.050729	0.046156	0.411283	-0.600411	-0.379035	0.397404	-0.581299
48538	9.116384	-0.360906	4.314549	0.314887	-0.279959	0.270787	-0.601357	-0.377500	0.397472	-0.581274
48539	9.134631	-0.523745	4.226732	0.471748	-0.185237	0.253304	-0.602051	-0.376782	0.398088	-0.580599
48540	9.290972	-0.329585	4.138654	0.276718	-0.031611	0.359906	-0.602367	-0.376245	0.398216	-0.580532
48541	9.298100	-0.173748	4.134013	0.117323	-0.009744	0.363807	-0.602692	-0.375696	0.398057	-0.580659
48542	9.359408	-0.191135	4.089017	0.136242	0.069741	0.401600	-0.603346	-0.375043	0.397751	-0.580611
48543	9.332978	-0.145798	4.028473	0.094170	0.132202	0.352349	-0.603993	-0.374349	0.397460	-0.580586
48544	9.298304	-0.239156	4.183128	0.181190	-0.003225	0.384435	-0.604563	-0.373381	0.396689	-0.581143
48545	9.136909	-0.185247	4.370683	0.117124	-0.210774	0.314607	-0.605085	-0.372507	0.396068	-0.581584
48546	9.144474	-0.072641	4.238707	0.006655	-0.060169	0.266480	-0.605562	-0.371655	0.395684	-0.581894
48547	9.117924	-0.143830	4.323486	0.071782	-0.127111	0.278318	-0.606201	-0.370700	0.395056	-0.582264
48548	9.113112	-0.049587	4.800540	-0.041535	-0.532067	0.473788	-0.607137	-0.369629	0.394617	-0.582268
48549	9.273684	-0.188366	4.648752	0.104541	-0.310703	0.557467	-0.607912	-0.368815	0.394380	-0.582137
48550	9.161404	-0.335303	4.465345	0.258487	-0.179689	0.379659	-0.608505	-0.368155	0.393899	-0.582260
48551	9.149149	-0.215066	4.481034	0.137991	-0.176185	0.374694	-0.609066	-0.367449	0.393626	-0.582304
48552	9.118898	-0.052230	4.420099	-0.024722	-0.109835	0.320506	-0.609526	-0.366681	0.393351	-0.582494
48553	9.081572	0.006493	4.737853	-0.101870	-0.392995	0.422419	-0.610047	-0.365838	0.393221	-0.582565
48554	9.089703	-0.157571	4.646689	0.062582	-0.299560	0.392486	-0.610613	-0.365148	0.393101	-0.582487
48555	9.052686	-0.219808	4.605110	0.126236	-0.269443	0.342013	-0.611013	-0.364803	0.392883	-0.582430
48556	8.987110	-0.282539	4.592377	0.189100	-0.281143	0.278055	-0.611220	-0.364499	0.392782	-0.582472
48557	9.042866	-0.152266	4.556540	0.058404	-0.213001	0.312029	-0.611440	-0.364072	0.392933	-0.582406
48558	8.988998	-0.184282	4.642924	0.080683	-0.312863	0.301085	-0.611649	-0.363716	0.393223	-0.582214
48559	9.003362	-0.170392	4.669757	0.061449	-0.330980	0.325501	-0.611729	-0.363570	0.393514	-0.582023
48560	9.038412	-0.155515	4.644014	0.044075	-0.296474	0.345762	-0.611716	-0.363496	0.393964	-0.581779
48561	9.044389	-0.259035	4.513364	0.149293	-0.190307	0.295725	-0.611686	-0.363535	0.394578	-0.581369
48562	9.012082	-0.246265	4.525418	0.131401	-0.228629	0.271365	-0.611578	-0.363771	0.395341	-0.580818
48563	9.043038	-0.137485	4.455504	0.023467	-0.164235	0.267957	-0.611487	-0.364039	0.396129	-0.580207
48564	9.106736	-0.191353	4.427742	0.076050	-0.134259	0.314025	-0.611350	-0.364337	0.397031	-0.579547
48565	9.249000	-0.145926	4.221267	0.039219	0.094195	0.354610	-0.611172	-0.364628	0.397981	-0.578902
48566	9.195536	-0.091667	4.267342	-0.022567	0.012176	0.325153	-0.611028	-0.364924	0.398855	-0.578264
48567	9.133810	-0.051230	4.408068	-0.074270	-0.157382	0.327818	-0.610994	-0.365193	0.399561	-0.577643
48568	9.124496	-0.166541	4.341029	0.042114	-0.127951	0.292287	-0.610876	-0.365574	0.400611	-0.576799
48569	9.239442	-0.047630	4.316885	-0.081065	-0.083988	0.384924	-0.610388	-0.366152	0.402421	-0.575688
48570	9.160768	-0.149125	4.350748	0.007031	-0.185719	0.328138	-0.610060	-0.366436	0.403507	-0.575094
48571	9.132655	-0.315610	4.366560	0.165886	-0.250183	0.310634	-0.609885	-0.367004	0.404830	-0.573987
48572	9.302657	-0.002974	4.164884	-0.134923	-0.010159	0.378843	-0.609639	-0.367555	0.406165	-0.572952
48573	9.403534	-0.132536	4.015469	0.000032	0.130043	0.412333	-0.609253	-0.367975	0.407156	-0.572389
48574	9.357394	-0.316379	4.009143	0.178247	0.083351	0.370406	-0.608894	-0.368400	0.407845	-0.572006
48575	9.378793	-0.177661	4.056098	0.033119	0.038049	0.407033	-0.608628	-0.368768	0.408684	-0.571453
48576	9.396365	-0.050188	4.082116	-0.100224	0.011785	0.431709	-0.608429	-0.368945	0.409368	-0.571062
48577	9.339251	-0.194752	4.036733	0.041222	0.005113	0.363412	-0.608094	-0.369251	0.410025	-0.570749
48578	9.437638	-0.243107	3.945462	0.092326	0.109192	0.418360	-0.607758	-0.369551	0.410536	-0.570547
48579	9.406220	-0.261621	3.909610	0.108695	0.117156	0.375782	-0.607378	-0.369793	0.410804	-0.570601
48580	9.392900	-0.225094	4.028779	0.060897	-0.001126	0.410062	-0.607071	-0.369993	0.410858	-0.570759
48581	9.366931	-0.158690	4.081856	-0.011880	-0.060344	0.406038	-0.606652	-0.370245	0.410940	-0.570982
48582	9.317282	-0.172461	3.987695	0.004306	0.001598	0.323543	-0.606280	-0.370411	0.410941	-0.571268
48583	9.288099	-0.262577	4.019763	0.088740	-0.047621	0.310853	-0.605960	-0.370563	0.410962	-0.571494
48584	9.312096	-0.053784	3.935872	-0.117302	0.048011	0.296370	-0.605503	-0.370814	0.411054	-0.571750
48585	9.360042	-0.150712	4.014265	-0.029826	-0.014727	0.372906	-0.605065	-0.370932	0.411057	-0.572134
48586	9.452277	-0.238563	3.999972	0.053860	0.029005	0.453689	-0.604673	-0.370941	0.411011	-0.572576
48587	9.418427	-0.249597	4.000638	0.058437	0.017944	0.423055	-0.604384	-0.370788	0.410862	-0.573087
48588	9.278170	-0.270942	4.014431	0.072171	-0.045507	0.299988	-0.604074	-0.370682	0.410680	-0.573613
48589	9.258938	-0.270249	4.056521	0.063896	-0.086412	0.298928	-0.603731	-0.370657	0.410452	-0.574153
48590	9.260545	-0.213121	3.994206	0.006674	-0.021340	0.274745	-0.603387	-0.370692	0.410266	-0.574625
48591	9.345994	-0.212486	3.898087	0.009277	0.103715	0.315343	-0.603041	-0.370808	0.409990	-0.575110
48592	9.288244	-0.262672	3.941417	0.055056	0.041912	0.280402	-0.602724	-0.370917	0.409691	-0.575585
48593	9.297588	-0.285517	4.002338	0.073648	-0.005462	0.313511	-0.602479	-0.370949	0.409210	-0.576162
48594	9.355119	-0.259923	3.942786	0.050627	0.082882	0.342210	-0.602299	-0.370826	0.408724	-0.576774
48595	9.307504	-0.306076	3.896213	0.097070	0.116868	0.280909	-0.602202	-0.370549	0.408203	-0.577422
48596	9.254288	-0.395813	3.992551	0.179593	0.015012	0.272277	-0.601949	-0.370523	0.407688	-0.578066
48597	9.240479	-0.369725	4.082875	0.147747	-0.063964	0.295087	-0.601644	-0.370594	0.407307	-0.578607
48598	9.264663	-0.243719	4.042912	0.021570	-0.006471	0.298594	-0.601369	-0.370548	0.407108	-0.579062
48599	9.312486	-0.208470	4.089902	-0.020403	-0.020889	0.360429	-0.601214	-0.370268	0.406767	-0.579641
48600	9.219529	-0.271785	4.147873	0.036315	-0.105449	0.299977	-0.601030	-0.370166	0.406525	-0.580067
48601	9.249736	-0.336581	4.114900	0.097589	-0.065986	0.315956	-0.600740	-0.370169	0.406890	-0.580110
48602	9.391818	-0.364034	4.202559	0.111431	-0.094741	0.481916	-0.600325	-0.370073	0.407154	-0.580415
48603	9.185673	-0.640905	3.982742	0.392812	0.012459	0.212038	-0.600262	-0.369866	0.407124	-0.580632
48604	9.370263	-0.318558	3.966587	0.069997	0.117322	0.366628	-0.600290	-0.369973	0.407039	-0.580596
48605	9.418254	-0.119238	3.947243	-0.125133	0.167234	0.397838	-0.600341	-0.369946	0.406554	-0.580900
48606	9.299237	-0.291521	3.926918	0.053105	0.143528	0.284739	-0.600647	-0.369681	0.405827	-0.581260
48607	9.165144	-0.314003	3.994351	0.078739	0.045189	0.189563	-0.601079	-0.369307	0.405033	-0.581606
48608	9.067453	-0.293750	4.035452	0.062117	-0.013217	0.116352	-0.601304	-0.369055	0.404338	-0.582016
48609	9.084042	-0.318865	4.134131	0.086146	-0.083508	0.172207	-0.601420	-0.368903	0.403784	-0.582378
48610	9.091944	-0.259452	4.360975	0.019101	-0.273620	0.270646	-0.601530	-0.368763	0.403333	-0.582664
48611	9.143679	-0.281640	4.306071	0.045717	-0.195480	0.296127	-0.601573	-0.368702	0.403077	-0.582836
48612	9.187218	-0.403261	4.344526	0.167483	-0.212053	0.354391	-0.601614	-0.368699	0.402761	-0.583014
48613	9.250277	-0.362931	4.454502	0.125684	-0.280502	0.456073	-0.601624	-0.368829	0.402465	-0.583126
48614	9.255433	-0.290821	4.226504	0.069025	-0.065570	0.365814	-0.601636	-0.369036	0.402176	-0.583181
48615	9.298341	-0.405156	4.213181	0.189555	-0.038983	0.401849	-0.601729	-0.369208	0.401937	-0.583142
48616	9.354099	-0.283661	4.162409	0.077268	0.036188	0.429285	-0.601824	-0.369453	0.401605	-0.583117
48617	9.253579	-0.250262	4.195196	0.049915	-0.030402	0.350363	-0.601905	-0.369582	0.401186	-0.583240
48618	9.144538	-0.208675	4.233186	0.011820	-0.105180	0.265744	-0.601882	-0.369720	0.400988	-0.583313
48619	9.151156	-0.199231	4.153609	0.008444	-0.029996	0.238921	-0.601821	-0.369882	0.400934	-0.583310
48620	9.113820	-0.165164	4.302134	-0.029562	-0.181862	0.265180	-0.601761	-0.370075	0.400930	-0.583252
48621	9.078700	-0.205844	4.324899	0.012798	-0.222138	0.243177	-0.601719	-0.370297	0.400941	-0.583148
48622	9.135242	-0.181545	4.133013	-0.000845	-0.028370	0.215602	-0.601715	-0.370523	0.401088	-0.582907
48623	9.236726	-0.212308	4.110901	0.033318	0.025438	0.299678	-0.601721	-0.370750	0.401271	-0.582631
48624	9.251923	-0.276634	4.135828	0.099204	0.000176	0.324858	-0.601737	-0.370950	0.401388	-0.582406
48625	9.203228	-0.291785	4.204213	0.114841	-0.087612	0.308532	-0.601808	-0.371142	0.401441	-0.582174
48626	9.124663	-0.300072	4.293993	0.123124	-0.205119	0.273475	-0.601955	-0.371233	0.401461	-0.581949
48627	9.145134	-0.232102	4.277160	0.059605	-0.181933	0.284084	-0.602087	-0.371375	0.401552	-0.581660
48628	9.216209	-0.210702	4.149001	0.046188	-0.042209	0.296377	-0.602177	-0.371532	0.401954	-0.581188
48629	9.276240	-0.218960	4.051213	0.059850	0.060055	0.311624	-0.602349	-0.371662	0.402518	-0.580536
48630	9.342974	-0.277549	4.026129	0.123240	0.098061	0.363417	-0.602690	-0.371795	0.402747	-0.579938
48631	9.334994	-0.230407	4.282106	0.072516	-0.137743	0.458992	-0.603181	-0.371770	0.402444	-0.579653
48632	9.169633	-0.409337	4.111513	0.265572	-0.055840	0.241198	-0.603460	-0.371849	0.402537	-0.579248
48633	9.191471	-0.170773	4.188688	0.023515	-0.112930	0.289001	-0.603616	-0.371650	0.403212	-0.578743
48634	9.180820	-0.154142	4.378518	-0.010180	-0.298570	0.355566	-0.603615	-0.371378	0.403997	-0.578371
48635	9.042618	-0.372389	4.131609	0.213805	-0.148887	0.132660	-0.603841	-0.371397	0.404587	-0.577710
48636	9.397545	-0.155135	3.875101	0.011591	0.225584	0.351135	-0.603814	-0.371683	0.405202	-0.577123
48637	9.565944	-0.408222	3.895151	0.262233	0.253143	0.517524	-0.603820	-0.371534	0.405493	-0.577009
48638	9.460570	-0.573606	4.265223	0.403837	-0.127466	0.572117	-0.604392	-0.370675	0.405215	-0.577158
48639	8.782537	-0.387338	3.910373	0.230799	-0.049414	-0.194046	-0.604696	-0.370167	0.404781	-0.577470
48640	8.836874	-0.361810	4.160562	0.193681	-0.236691	-0.043452	-0.605100	-0.369650	0.404049	-0.577890
48641	8.821342	-0.173998	4.525483	-0.010855	-0.557892	0.087565	-0.605201	-0.369717	0.404178	-0.577652
48642	9.058555	0.178459	4.757344	-0.374944	-0.660177	0.392467	-0.605341	-0.369583	0.404684	-0.577237
48643	9.144091	0.011439	4.307690	-0.188956	-0.230720	0.290865	-0.605346	-0.369427	0.405290	-0.576906
48644	8.975491	-0.463865	4.187328	0.285399	-0.218605	0.095849	-0.605286	-0.369288	0.405500	-0.576910
48645	9.035424	-0.355020	3.877713	0.188592	0.089034	0.023881	-0.605121	-0.369263	0.406059	-0.576706
48646	9.372650	-0.159012	4.042611	-0.021994	0.079930	0.395529	-0.605362	-0.368765	0.406612	-0.576382
48647	9.406794	0.027987	4.749562	-0.258019	-0.536182	0.708378	-0.606109	-0.367731	0.406956	-0.576013
48648	9.368201	0.083667	4.593783	-0.313176	-0.395230	0.609343	-0.606667	-0.366855	0.407271	-0.575764
48649	9.340778	-0.063696	4.118167	-0.144133	0.030352	0.394750	-0.607066	-0.366073	0.407296	-0.575823
48650	9.397060	-0.297486	4.194778	0.078924	-0.008348	0.482118	-0.607796	-0.364817	0.406708	-0.576265
48651	9.162341	-0.252957	4.437632	0.013611	-0.288194	0.366787	-0.608637	-0.363462	0.405879	-0.576817
48652	9.142250	-0.349175	4.246574	0.116550	-0.095631	0.272611	-0.609275	-0.362167	0.405454	-0.577258
48653	9.284489	-0.333946	4.156660	0.097546	0.074797	0.364536	-0.609828	-0.360715	0.405227	-0.577742
48654	9.337142	-0.266060	4.349324	0.003149	-0.046990	0.491066	-0.610066	-0.359525	0.405026	-0.578372
48655	9.115388	-0.214280	4.984597	-0.106415	-0.682556	0.555779	-0.610507	-0.358124	0.404473	-0.579163
48656	8.988566	-0.268380	4.761075	-0.049461	-0.509025	0.349624	-0.610693	-0.357062	0.404213	-0.579804
48657	9.316566	-0.299045	4.224945	0.001953	0.134180	0.420586	-0.610958	-0.355568	0.404515	-0.580233
48658	9.576395	-0.328737	4.126454	0.015986	0.347708	0.614288	-0.611206	-0.354222	0.405222	-0.580301
48659	9.407520	-0.387103	4.105046	0.056462	0.301126	0.454191	-0.611474	-0.353169	0.405705	-0.580323
48660	9.068868	-0.215791	3.988399	-0.118243	0.283973	0.092040	-0.611732	-0.352258	0.405852	-0.580502
48661	8.940828	-0.344849	4.249941	-0.021178	-0.001271	0.092808	-0.611958	-0.351296	0.405869	-0.580834
48662	9.187432	-0.447057	4.615554	0.038289	-0.215447	0.476345	-0.612135	-0.350351	0.405919	-0.581183
48663	9.422290	-0.467636	4.319384	0.069175	0.156396	0.561610	-0.611908	-0.350097	0.406438	-0.581213
48664	9.232314	-0.569421	4.557624	0.139502	-0.153167	0.496961	-0.611622	-0.349856	0.407132	-0.581174
48665	8.809335	-0.354496	4.716798	-0.104146	-0.474548	0.174410	-0.611346	-0.349289	0.408562	-0.580801
48666	8.790994	-0.522688	4.534175	0.057161	-0.336678	0.086649	-0.611362	-0.348413	0.409312	-0.580783
48667	9.210548	-0.328990	4.047573	-0.112302	0.297102	0.248346	-0.611326	-0.347979	0.409727	-0.580788
48668	9.620594	-0.244559	4.011664	-0.207297	0.518278	0.598724	-0.611519	-0.347217	0.409810	-0.580982
48669	9.601504	-0.514507	3.949217	0.058747	0.558566	0.566833	-0.611631	-0.346584	0.409667	-0.581343
48670	9.686531	-0.852172	4.124946	0.371436	0.424609	0.734918	-0.611566	-0.346161	0.409460	-0.581809
48671	9.193868	-0.753591	4.585245	0.228883	-0.184530	0.484551	-0.611524	-0.345531	0.409576	-0.582146
48672	9.116512	-0.743112	4.516550	0.212856	-0.146935	0.385121	-0.611572	-0.344765	0.409842	-0.582363
48673	9.053645	-0.758294	4.620937	0.205897	-0.262010	0.374830	-0.611677	-0.344022	0.410224	-0.582423
48674	8.792150	-0.511865	4.663177	-0.052679	-0.392315	0.144844	-0.611822	-0.343395	0.410862	-0.582191
48675	8.844343	-0.462363	4.668439	-0.114105	-0.370599	0.191319	-0.612030	-0.342877	0.411341	-0.581939
48676	8.980820	-0.544577	4.661054	-0.042237	-0.315459	0.315284	-0.612252	-0.342555	0.412150	-0.581322
48677	9.140908	-0.726366	4.569422	0.139207	-0.187644	0.429814	-0.612577	-0.342347	0.412828	-0.580621
48678	9.338681	-0.853047	4.405291	0.277293	0.023302	0.544329	-0.612949	-0.342354	0.413514	-0.579735
48679	9.572578	-0.780228	4.312528	0.212963	0.200882	0.711342	-0.613314	-0.342412	0.414072	-0.578917
48680	9.600917	-0.779126	4.165446	0.229869	0.335647	0.673975	-0.613701	-0.342382	0.414408	-0.578284
48681	9.546218	-0.802347	3.950191	0.280175	0.498209	0.533875	-0.614079	-0.342346	0.414570	-0.577787
48682	9.382647	-0.852331	4.030371	0.329500	0.353173	0.423088	-0.614562	-0.342176	0.414263	-0.577594
48683	9.194739	-0.846355	4.133087	0.321829	0.188704	0.296850	-0.615122	-0.341887	0.413939	-0.577402
48684	9.083090	-0.818610	4.237766	0.291299	0.058758	0.239327	-0.615652	-0.341636	0.413540	-0.577272
48685	8.972601	-0.828320	4.265189	0.306881	-0.005812	0.151814	-0.616099	-0.341547	0.413136	-0.577136
48686	8.974487	-0.755292	4.383391	0.230811	-0.097608	0.200463	-0.616425	-0.341626	0.412697	-0.577055
48687	9.000530	-0.645347	4.437976	0.125414	-0.119576	0.241745	-0.616621	-0.341826	0.412179	-0.577099
48688	9.045917	-0.614365	4.513765	0.096465	-0.158357	0.313799	-0.616764	-0.342009	0.411551	-0.577285
48689	9.167113	-0.600387	4.480153	0.096078	-0.066124	0.407615	-0.616912	-0.342224	0.410853	-0.577496
48690	9.217334	-0.573408	4.468254	0.081952	-0.022350	0.446265	-0.617093	-0.342448	0.410104	-0.577702
48691	9.165529	-0.453389	4.439261	-0.021328	0.000756	0.381382	-0.617283	-0.342737	0.409290	-0.577905
48692	9.106595	-0.428469	4.349856	-0.022370	0.066864	0.288298	-0.617505	-0.343051	0.408350	-0.578147
48693	9.149835	-0.500451	4.328457	0.066914	0.110438	0.320859	-0.617721	-0.343338	0.407307	-0.578481
48694	9.177091	-0.553850	4.737038	0.097183	-0.230444	0.526687	-0.618024	-0.343472	0.405987	-0.579006
48695	8.917692	-0.642252	4.259960	0.246341	0.089815	0.087626	-0.618174	-0.343774	0.404975	-0.579375
48696	8.964799	-0.293893	4.602459	-0.121163	-0.156766	0.266865	-0.618221	-0.343968	0.404444	-0.579581
48697	9.125873	-0.378060	4.652552	-0.034192	-0.127393	0.436864	-0.618313	-0.343946	0.403687	-0.580023
48698	8.987505	-0.507906	4.451197	0.124058	-0.006379	0.228772	-0.618418	-0.344240	0.402595	-0.580495
48699	9.110977	-0.435304	4.628834	0.049965	-0.092104	0.415435	-0.618431	-0.344592	0.401704	-0.580890
48700	9.288695	-0.524644	4.572895	0.156008	0.040141	0.552664	-0.618462	-0.344811	0.400898	-0.581284
48701	9.330709	-0.473707	4.544261	0.118161	0.099920	0.575424	-0.618542	-0.344959	0.400055	-0.581691
48702	9.223392	-0.365797	4.524569	0.022604	0.090957	0.466791	-0.618623	-0.345107	0.399085	-0.582183
48703	9.100340	-0.363655	4.561981	0.027463	0.018248	0.373528	-0.618719	-0.345139	0.398056	-0.582767
48704	8.946254	-0.369184	4.678214	0.032639	-0.139422	0.288645	-0.618827	-0.345196	0.397177	-0.583217
48705	8.895254	-0.454957	4.716017	0.124543	-0.189922	0.263113	-0.618889	-0.345355	0.396388	-0.583595
48706	8.856975	-0.455359	4.648469	0.139595	-0.138535	0.198453	-0.618893	-0.345619	0.395739	-0.583875
48707	8.845293	-0.388588	4.841639	0.067056	-0.305939	0.273619	-0.618807	-0.345975	0.395238	-0.584094
48708	8.816828	-0.384094	4.954170	0.062219	-0.422468	0.298960	-0.618484	-0.346722	0.395138	-0.584061
48709	9.022263	-0.678415	4.628650	0.389427	-0.068956	0.342580	-0.618255	-0.347351	0.394924	-0.584075
48710	9.100385	-0.499254	4.545271	0.225341	0.048823	0.369286	-0.618246	-0.347710	0.394653	-0.584053
48711	9.085300	-0.299594	4.472621	0.037883	0.120900	0.317501	-0.618409	-0.347761	0.394410	-0.584015
48712	9.135472	-0.154757	4.495001	-0.102118	0.137685	0.368494	-0.618743	-0.347697	0.394154	-0.583872
48713	9.169577	-0.115936	4.539027	-0.136434	0.121829	0.417850	-0.619188	-0.347646	0.393874	-0.583619
48714	9.170915	-0.084647	4.627765	-0.165151	0.052154	0.458586	-0.619804	-0.347481	0.393567	-0.583271
48715	9.066898	-0.126521	4.682608	-0.119347	-0.040401	0.391997	-0.620498	-0.347287	0.393415	-0.582752
48716	9.018861	-0.141002	4.654613	-0.095515	-0.033444	0.336939	-0.621208	-0.347013	0.393360	-0.582195
48717	8.945545	-0.124822	4.677332	-0.109115	-0.082204	0.281723	-0.621824	-0.346701	0.393490	-0.581634
48718	8.838950	-0.127875	4.756265	-0.110663	-0.196850	0.222971	-0.622445	-0.346296	0.393511	-0.581197
48719	8.850782	-0.106391	4.824620	-0.135141	-0.246252	0.264302	-0.622985	-0.345965	0.393663	-0.580712
48720	8.940806	-0.127968	4.820016	-0.111600	-0.200915	0.342810	-0.623523	-0.345556	0.393974	-0.580168
48721	8.959299	-0.147036	4.845255	-0.095279	-0.216097	0.371191	-0.624081	-0.345170	0.394357	-0.579536
48722	8.994385	-0.123053	4.774693	-0.113725	-0.138423	0.369636	-0.624541	-0.344923	0.394869	-0.578840
48723	8.992255	-0.086022	4.809277	-0.154411	-0.172981	0.382577	-0.624934	-0.344785	0.395396	-0.578138
48724	8.997238	-0.093968	4.933833	-0.157173	-0.291047	0.443647	-0.625225	-0.344848	0.395976	-0.577388
48725	9.003007	-0.173972	4.995510	-0.082529	-0.360965	0.478203	-0.625512	-0.344871	0.396521	-0.576689
48726	8.948282	-0.328360	4.436838	0.118813	0.082156	0.179520	-0.625676	-0.345005	0.397386	-0.575835
48727	9.049353	-0.171324	4.888162	-0.082550	-0.276691	0.469863	-0.625829	-0.344841	0.398618	-0.574914
48728	9.043881	-0.249486	4.673510	0.005441	-0.112387	0.369800	-0.625985	-0.344653	0.399629	-0.574155
48729	9.030627	-0.271102	4.319120	0.054253	0.178739	0.199586	-0.626122	-0.344719	0.400545	-0.573327
48730	9.149624	-0.211068	4.336615	-0.009389	0.209416	0.312649	-0.626292	-0.344488	0.401248	-0.572789
48731	9.283997	-0.335033	4.368582	0.106866	0.222892	0.450268	-0.626507	-0.344061	0.401840	-0.572395
48732	9.302776	-0.262814	4.298233	0.035639	0.301482	0.433939	-0.626926	-0.343416	0.402204	-0.572068
48733	9.228575	-0.231009	4.204032	0.006605	0.363511	0.324455	-0.627517	-0.342543	0.402322	-0.571860
48734	9.090795	-0.202716	4.213875	-0.029607	0.310939	0.204438	-0.628237	-0.341545	0.402227	-0.571734
48735	9.135885	-0.286925	4.306375	0.043861	0.260894	0.287884	-0.629039	-0.340505	0.401814	-0.571762
48736	9.028648	-0.329494	4.470677	0.067155	0.086922	0.266989	-0.629799	-0.339574	0.401193	-0.571916
48737	8.714085	-0.393807	4.865295	0.082950	-0.390049	0.167414	-0.630368	-0.338909	0.400740	-0.572001
48738	8.705189	-0.333042	4.954342	0.012171	-0.450650	0.198980	-0.630785	-0.338251	0.400583	-0.572040
48739	9.080078	-0.320916	4.497010	0.056586	0.139318	0.323943	-0.631056	-0.337658	0.400328	-0.572270
48740	9.271366	-0.434454	4.750164	0.144173	0.005771	0.612771	-0.631168	-0.337217	0.399897	-0.572707
48741	9.290441	-0.645930	4.788162	0.347947	-0.027917	0.653169	-0.631099	-0.336883	0.399553	-0.573220
48742	9.095335	-0.689823	4.930704	0.366066	-0.240515	0.546895	-0.630827	-0.336745	0.399608	-0.573563
48743	9.046383	-0.679990	5.007407	0.338487	-0.330144	0.538640	-0.630399	-0.336699	0.399911	-0.573848
48744	9.021303	-0.545448	4.674987	0.231195	-0.037802	0.359925	-0.629842	-0.336815	0.400093	-0.574265
48745	9.223027	-0.435089	4.449432	0.143066	0.263874	0.432354	-0.629165	-0.337065	0.399897	-0.574997
48746	9.116045	-0.552265	4.665498	0.230165	0.012108	0.440167	-0.628281	-0.337577	0.399546	-0.575906
48747	8.938621	-0.444937	5.012899	0.081806	-0.370059	0.438285	-0.627275	-0.338347	0.399425	-0.576635
48748	8.993054	-0.236522	4.895811	-0.115514	-0.233462	0.426065	-0.626216	-0.339168	0.399560	-0.577209
48749	9.109252	-0.150505	4.325825	-0.150458	0.318487	0.266489	-0.625256	-0.339590	0.399908	-0.577760
48750	8.979385	-0.205270	4.743758	-0.151108	-0.128790	0.342867	-0.624305	-0.339961	0.400449	-0.578196
48751	8.918491	-0.335424	4.716457	-0.032374	-0.162602	0.280351	-0.623455	-0.340445	0.401345	-0.578207
48752	8.952648	-0.266958	4.780768	-0.118231	-0.220898	0.336898	-0.622725	-0.340926	0.402294	-0.578050
48753	9.090000	-0.252442	4.610175	-0.127340	-0.030180	0.381838	-0.621996	-0.341311	0.403382	-0.577850
48754	9.123726	-0.346024	4.729194	-0.060120	-0.153216	0.468374	-0.621312	-0.341592	0.404490	-0.577645
48755	9.127614	-0.406479	4.747426	-0.015664	-0.195055	0.481888	-0.620695	-0.341865	0.405436	-0.577484
48756	9.095838	-0.435135	4.434446	0.031251	0.043518	0.315737	-0.620017	-0.342321	0.406575	-0.577141
48757	9.043703	-0.377378	4.707812	-0.066776	-0.245674	0.386801	-0.619376	-0.342712	0.407869	-0.576684
48758	8.950900	-0.413973	5.078169	-0.083660	-0.647380	0.466010	-0.618960	-0.342763	0.409273	-0.576105
48759	9.030727	-0.410154	4.547555	-0.046200	-0.163445	0.305297	-0.618528	-0.343182	0.410432	-0.575495
48760	9.321864	-0.502628	4.502813	0.041685	-0.031226	0.551787	-0.618015	-0.343618	0.411451	-0.575058
48761	9.294354	-0.629617	4.524527	0.157222	-0.097842	0.541947	-0.617462	-0.344072	0.412253	-0.574807
48762	9.098489	-0.652546	4.711111	0.154983	-0.369954	0.446065	-0.617137	-0.344427	0.412761	-0.574579
48763	9.139127	-0.551529	4.435769	0.082207	-0.108822	0.360084	-0.616980	-0.344795	0.413056	-0.574314
48764	9.256802	-0.626232	4.399402	0.162884	-0.044358	0.454093	-0.616928	-0.345221	0.413305	-0.573935
48765	9.234379	-0.639144	4.307632	0.188693	0.015251	0.395256	-0.616837	-0.345620	0.413598	-0.573582
48766	9.000073	-0.594365	4.416308	0.134605	-0.190779	0.227424	-0.616544	-0.346116	0.413876	-0.573397
48767	8.817880	-0.565148	4.552625	0.092375	-0.401157	0.118643	-0.616174	-0.346658	0.414128	-0.573285
48768	8.818324	-0.483014	4.399721	0.028572	-0.269511	0.050386	-0.615808	-0.347327	0.414375	-0.573095
48769	9.049164	-0.378039	4.315414	-0.064522	-0.107583	0.219125	-0.615397	-0.348227	0.415136	-0.572439
48770	9.365756	-0.367635	4.249436	-0.065108	0.053197	0.478234	-0.615039	-0.349299	0.416209	-0.571391
48771	9.572873	-0.412030	4.223897	-0.012503	0.120743	0.658039	-0.614811	-0.350425	0.417187	-0.570232
48772	9.275036	-0.500799	4.175315	0.090387	0.002229	0.370736	-0.614897	-0.351329	0.417581	-0.569294
48773	8.782216	-0.669315	4.462418	0.241920	-0.495788	0.045512	-0.615245	-0.352153	0.417507	-0.568462
48774	9.017175	-0.930007	4.401607	0.530201	-0.382883	0.243193	-0.615722	-0.353091	0.417232	-0.567566
48775	9.743302	-1.155513	3.763737	0.853754	0.456980	0.651300	-0.616178	-0.354249	0.416824	-0.566647
48776	10.035520	-1.134072	3.514809	0.891475	0.792836	0.814084	-0.616529	-0.355393	0.416080	-0.566096
48777	9.684083	-1.038909	3.569230	0.814719	0.606597	0.510510	-0.616605	-0.356461	0.414955	-0.566167
48778	9.271446	-0.882398	3.896274	0.645125	0.162806	0.260869	-0.616490	-0.357421	0.413497	-0.566754
48779	8.936063	-0.533144	4.088846	0.296214	-0.106231	0.023828	-0.616248	-0.358374	0.412042	-0.567475
48780	8.603458	-0.183716	4.176734	-0.044426	-0.280549	-0.251431	-0.616031	-0.359225	0.410572	-0.568237
48781	8.691376	0.088000	4.290295	-0.302721	-0.315495	-0.129549	-0.615887	-0.360114	0.409286	-0.568759
48782	9.074216	0.274297	4.077553	-0.441835	0.054223	0.129389	-0.615860	-0.361039	0.408262	-0.568937
