// General information: 
//  MT Manager version: 2021.0.0 
//  XDA version: 2021.0.0 build 5908 rev 109668 built on 2021-04-19
// Device information: 
//  DeviceId: 00B43DFB
//  ProductCode: MTW2-3A7G6
//  Firmware Version: 4.3.5
//  Hardware Version: 1.1.0
// Device settings: 
//  Filter Profile: human(46.1)
//  Option Flags: Orientation Smoother Disabled, Position/Velocity Smoother Disabled, Continuous Zero Rotation Update Disabled, AHS Disabled, ICC Disabled
// Coordinate system: ENU
PacketCounter	Acc_X	Acc_Y	Acc_Z	FreeAcc_E	FreeAcc_N	FreeAcc_U	Quat_q0	Quat_q1	Quat_q2	Quat_q3
47597	0.618450	3.612942	9.447340	0.186833	0.266742	0.315590	0.079418	-0.027061	-0.193066	-0.977592
47598	0.625892	3.584672	9.439263	0.169479	0.292558	0.298049	0.079326	-0.026848	-0.193300	-0.977559
47599	0.646464	3.544676	9.420364	0.137620	0.324556	0.267075	0.079222	-0.026680	-0.193669	-0.977499
47600	0.606854	3.699937	9.456505	0.199144	0.211142	0.355844	0.079055	-0.026564	-0.194121	-0.977426
47601	0.665979	3.816129	9.472503	0.156998	0.112294	0.419489	0.078876	-0.026481	-0.194579	-0.977352
47602	0.777861	3.851826	9.423919	0.047851	0.051883	0.397450	0.078756	-0.026301	-0.194826	-0.977317
47603	0.763089	3.823131	9.366737	0.051859	0.059908	0.332662	0.078743	-0.026047	-0.194812	-0.977328
47604	0.601391	3.691342	9.410919	0.184989	0.219469	0.310094	0.078771	-0.025739	-0.194790	-0.977338
47605	0.540177	3.564148	9.426133	0.219229	0.353298	0.270667	0.078669	-0.025530	-0.195182	-0.977274
47606	0.683461	3.719766	9.434250	0.098316	0.205603	0.348852	0.078497	-0.025348	-0.195920	-0.977144
47607	0.700394	3.972105	9.503890	0.118980	0.017201	0.510956	0.078281	-0.025218	-0.196755	-0.976997
47608	0.771704	4.099165	9.503453	0.064636	-0.095635	0.565221	0.078065	-0.025067	-0.197176	-0.976934
47609	0.697749	4.028805	9.428200	0.120767	-0.046541	0.463126	0.078008	-0.024896	-0.197183	-0.976941
47610	0.588017	3.909304	9.494394	0.208289	0.102833	0.469238	0.077973	-0.024839	-0.197109	-0.976960
47611	0.664540	3.657146	9.470656	0.090709	0.310224	0.356147	0.077928	-0.024823	-0.197062	-0.976974
47612	0.585596	3.574691	9.442054	0.154399	0.389175	0.291688	0.077839	-0.024855	-0.197503	-0.976891
47613	0.612954	3.771313	9.418286	0.158430	0.209062	0.347716	0.077718	-0.024900	-0.198188	-0.976761
47614	0.646684	3.940290	9.416350	0.152165	0.061753	0.413982	0.077668	-0.024941	-0.198614	-0.976677
47615	0.649506	3.965870	9.409813	0.154039	0.041048	0.418107	0.077664	-0.025012	-0.198707	-0.976657
47616	0.669182	3.859206	9.421229	0.118424	0.136805	0.388689	0.077706	-0.025000	-0.198348	-0.976727
47617	0.547464	3.853889	9.461981	0.240189	0.166465	0.414524	0.077699	-0.025129	-0.197871	-0.976821
47618	0.612947	3.651639	9.411208	0.146542	0.311520	0.294858	0.077705	-0.025388	-0.197434	-0.976902
47619	0.635191	3.755407	9.377799	0.145713	0.196191	0.306104	0.077718	-0.025580	-0.197370	-0.976909
47620	0.622597	3.987239	9.477586	0.201646	0.026158	0.486293	0.077733	-0.025792	-0.197340	-0.976908
47621	0.727345	3.941963	9.444963	0.094253	0.037091	0.447194	0.077788	-0.025933	-0.197108	-0.976947
47622	0.726781	3.834426	9.406764	0.080064	0.115103	0.370562	0.077911	-0.026063	-0.196867	-0.976982
47623	0.597783	3.907983	9.443477	0.223368	0.078010	0.422201	0.078032	-0.026202	-0.196790	-0.976984
47624	0.662047	3.927892	9.404560	0.166426	0.034299	0.399243	0.078076	-0.026415	-0.196725	-0.976988
47625	0.679242	3.937267	9.450059	0.155740	0.042097	0.446017	0.078209	-0.026557	-0.196845	-0.976949
47626	0.600396	3.924871	9.558096	0.236979	0.111532	0.533987	0.078459	-0.026706	-0.197121	-0.976870
47627	0.682476	3.807297	9.534371	0.140265	0.204497	0.473420	0.078849	-0.026881	-0.197511	-0.976755
47628	0.689646	3.687556	9.466314	0.117211	0.296287	0.364898	0.079367	-0.027128	-0.198145	-0.976578
47629	0.739298	3.849262	9.420569	0.100961	0.139309	0.389316	0.079959	-0.027463	-0.198907	-0.976365
47630	0.717718	3.976472	9.369616	0.151366	0.017161	0.389956	0.080536	-0.027858	-0.199068	-0.976273
47631	0.660360	3.832088	9.388588	0.194638	0.161748	0.346176	0.081170	-0.028275	-0.198627	-0.976299
47632	0.628289	3.478614	9.367488	0.177116	0.467324	0.187090	0.081692	-0.028713	-0.197917	-0.976387
47633	0.759831	3.188966	9.375619	0.009505	0.705160	0.094468	0.082080	-0.029221	-0.197726	-0.976378
47634	0.721859	3.264296	9.364934	0.070666	0.640501	0.110187	0.082390	-0.029756	-0.198050	-0.976270
47635	0.801379	3.653826	9.381403	0.071823	0.292183	0.282500	0.082443	-0.030429	-0.198600	-0.976133
47636	1.019083	3.928742	9.264124	-0.084884	-0.031171	0.301132	0.082459	-0.031079	-0.198388	-0.976154
47637	0.973714	3.846020	9.228151	-0.042036	0.023109	0.232032	0.082478	-0.031681	-0.197205	-0.976373
47638	0.955626	3.588518	9.191427	-0.056607	0.217133	0.098043	0.082489	-0.032219	-0.195559	-0.976685
47639	0.931420	3.398268	9.184835	-0.054311	0.360257	0.018089	0.082377	-0.032659	-0.194062	-0.976979
47640	0.906797	3.367759	9.310386	-0.022008	0.416245	0.120771	0.082134	-0.033062	-0.193058	-0.977184
47641	0.950332	3.570486	9.368286	-0.019572	0.230563	0.255218	0.081782	-0.033465	-0.192287	-0.977352
47642	1.001871	3.676814	9.296028	-0.048044	0.084139	0.233677	0.081424	-0.033709	-0.191605	-0.977508
47643	1.001114	3.690880	9.324883	-0.039607	0.069818	0.265597	0.081177	-0.033918	-0.190989	-0.977641
47644	0.960800	3.573828	9.313042	-0.018126	0.166355	0.207299	0.081046	-0.033924	-0.190445	-0.977758
47645	0.943675	3.538508	9.228093	-0.009278	0.158676	0.114245	0.080949	-0.033978	-0.190001	-0.977851
47646	0.929524	3.612692	9.318408	0.020195	0.119979	0.223919	0.080924	-0.033865	-0.189706	-0.977914
47647	0.830578	3.710929	9.344986	0.133589	0.047262	0.275402	0.080800	-0.033772	-0.189276	-0.978011
47648	0.911695	3.652540	9.342565	0.041729	0.075493	0.259467	0.080668	-0.033629	-0.188514	-0.978174
47649	0.798745	3.691054	9.426278	0.157954	0.072868	0.340455	0.080473	-0.033279	-0.187799	-0.978340
47650	0.765688	3.728691	9.523698	0.193938	0.065043	0.441501	0.080301	-0.032971	-0.187123	-0.978494
47651	0.883846	3.563267	9.457750	0.041917	0.162991	0.331216	0.080201	-0.032708	-0.186736	-0.978585
47652	0.866575	3.529707	9.402711	0.046147	0.171163	0.266465	0.080204	-0.032424	-0.186740	-0.978593
47653	0.785585	3.656676	9.365522	0.139887	0.054734	0.270906	0.080279	-0.032071	-0.186985	-0.978552
47654	0.715518	3.644783	9.432105	0.202483	0.103633	0.321871	0.080425	-0.031754	-0.187069	-0.978534
47655	0.807316	3.391351	9.391555	0.062242	0.307012	0.200114	0.080545	-0.031460	-0.187042	-0.978539
47656	0.768014	3.304314	9.462576	0.083381	0.421407	0.230427	0.080502	-0.031263	-0.187338	-0.978492
47657	0.775066	3.451970	9.540727	0.099688	0.320795	0.357339	0.080396	-0.031124	-0.187666	-0.978442
47658	0.762554	3.640079	9.501697	0.140167	0.139919	0.389013	0.080230	-0.031088	-0.187746	-0.978442
47659	0.819478	3.637850	9.528206	0.082826	0.138673	0.417958	0.080074	-0.030982	-0.187196	-0.978563
47660	0.813530	3.521478	9.476903	0.065689	0.213658	0.327546	0.079872	-0.030865	-0.186494	-0.978717
47661	0.796569	3.440873	9.491920	0.067213	0.284382	0.310814	0.079649	-0.030762	-0.186123	-0.978809
47662	0.801113	3.474298	9.457008	0.064891	0.237108	0.291129	0.079424	-0.030674	-0.186219	-0.978812
47663	0.933070	3.593916	9.486643	-0.046688	0.123545	0.373863	0.079181	-0.030636	-0.186514	-0.978777
47664	0.844830	3.737147	9.458006	0.061449	0.000790	0.391728	0.079079	-0.030598	-0.186846	-0.978723
47665	0.827632	3.804732	9.501348	0.089891	-0.036861	0.455084	0.078981	-0.030614	-0.187045	-0.978692
47666	0.821054	3.706046	9.412811	0.077458	0.022355	0.336373	0.078941	-0.030636	-0.186951	-0.978713
47667	0.807062	3.722075	9.497995	0.096627	0.040868	0.419912	0.078866	-0.030656	-0.186964	-0.978716
47668	0.787628	3.721472	9.494711	0.116272	0.041606	0.414922	0.078735	-0.030732	-0.186811	-0.978753
47669	0.820146	3.576310	9.362135	0.057262	0.116499	0.241931	0.078685	-0.030759	-0.186596	-0.978797
47670	0.745488	3.506437	9.362640	0.119024	0.191101	0.210246	0.078705	-0.030708	-0.186787	-0.978761
47671	0.786716	3.576329	9.430788	0.090528	0.152764	0.302513	0.078786	-0.030643	-0.187194	-0.978679
47672	0.820712	3.655783	9.419637	0.068078	0.079658	0.324220	0.078851	-0.030566	-0.187646	-0.978589
47673	0.809842	3.695953	9.423717	0.084409	0.052660	0.341743	0.078965	-0.030541	-0.187852	-0.978542
47674	0.790401	3.611159	9.406242	0.088349	0.127800	0.292680	0.079098	-0.030466	-0.187786	-0.978546
47675	0.835210	3.454017	9.429853	0.017285	0.272276	0.260818	0.079279	-0.030333	-0.187698	-0.978552
47676	0.766155	3.636301	9.473262	0.115023	0.133121	0.361860	0.079427	-0.030227	-0.187938	-0.978497
47677	0.739291	3.622883	9.319476	0.133341	0.094011	0.212175	0.079639	-0.030121	-0.187982	-0.978475
47678	0.762351	3.705626	9.367974	0.123910	0.033579	0.289555	0.079784	-0.029975	-0.187989	-0.978466
47679	0.788462	3.844250	9.513415	0.121804	-0.046349	0.477502	0.079961	-0.029677	-0.187617	-0.978532
47680	0.788414	3.592120	9.459845	0.073356	0.153003	0.335454	0.080209	-0.029341	-0.186965	-0.978647
47681	0.791123	3.445143	9.401006	0.039650	0.254604	0.227602	0.080437	-0.029037	-0.186655	-0.978696
47682	0.761270	3.557397	9.496609	0.085663	0.189187	0.354763	0.080733	-0.028758	-0.186738	-0.978664
47683	0.748590	3.570865	9.491985	0.096451	0.179195	0.354310	0.080993	-0.028573	-0.186910	-0.978616
47684	0.749551	3.616021	9.482858	0.100632	0.138284	0.362418	0.081236	-0.028472	-0.187148	-0.978553
47685	0.734971	3.679281	9.512568	0.125758	0.097398	0.411839	0.081400	-0.028459	-0.187275	-0.978515
47686	0.796897	3.614912	9.459705	0.053179	0.128340	0.344544	0.081581	-0.028480	-0.187259	-0.978503
47687	0.739106	3.614554	9.494683	0.111573	0.150571	0.371868	0.081774	-0.028463	-0.187289	-0.978481
47688	0.776090	3.618943	9.530357	0.077549	0.153799	0.409694	0.081952	-0.028491	-0.187200	-0.978483
47689	0.756435	3.596474	9.470673	0.093095	0.152641	0.344502	0.082136	-0.028524	-0.187068	-0.978491
47690	0.728261	3.606434	9.524112	0.125779	0.166013	0.395254	0.082300	-0.028613	-0.187015	-0.978485
47691	0.845339	3.545678	9.465178	0.000942	0.180549	0.328487	0.082501	-0.028679	-0.186934	-0.978482
47692	0.807930	3.610087	9.521237	0.052619	0.147236	0.400783	0.082683	-0.028777	-0.186899	-0.978470
47693	0.865426	3.656388	9.461277	0.005923	0.070969	0.367137	0.082939	-0.028911	-0.186654	-0.978491
47694	0.823129	3.549516	9.353547	0.030594	0.129793	0.224626	0.083256	-0.029048	-0.186395	-0.978510
47695	0.758329	3.512255	9.379524	0.092364	0.179777	0.229504	0.083559	-0.029159	-0.186274	-0.978504
47696	0.803900	3.442075	9.370400	0.038490	0.230976	0.199490	0.083811	-0.029282	-0.186121	-0.978508
47697	0.824852	3.397851	9.382376	0.013474	0.269566	0.196404	0.084039	-0.029364	-0.185953	-0.978518
47698	0.769316	3.502525	9.488437	0.091599	0.219178	0.328000	0.084199	-0.029446	-0.185838	-0.978523
47699	0.821618	3.660562	9.527610	0.071126	0.076628	0.426414	0.084282	-0.029508	-0.185505	-0.978577
47700	0.761478	3.632826	9.523719	0.128676	0.100100	0.407484	0.084360	-0.029673	-0.184880	-0.978684
47701	0.840387	3.600866	9.394020	0.046766	0.054816	0.282603	0.084385	-0.029841	-0.184098	-0.978824
47702	0.869282	3.403486	9.333199	-0.014619	0.192536	0.157802	0.084554	-0.029855	-0.183280	-0.978963
47703	0.738211	3.384561	9.482292	0.116555	0.273364	0.278188	0.084598	-0.029885	-0.182938	-0.979022
47704	0.844161	3.654106	9.586772	0.063437	0.041751	0.481268	0.084449	-0.029904	-0.182648	-0.979088
47705	0.890028	3.791795	9.540085	0.043497	-0.118422	0.491058	0.084212	-0.030094	-0.181992	-0.979225
47706	0.862349	3.527170	9.375568	0.023987	0.052244	0.241292	0.084156	-0.030255	-0.181035	-0.979402
47707	0.845220	3.576304	9.381089	0.053754	-0.004438	0.262344	0.084066	-0.030408	-0.180372	-0.979527
47708	0.781799	3.654745	9.584688	0.137860	-0.006403	0.473982	0.084008	-0.030408	-0.179706	-0.979655
47709	0.732195	3.630684	9.628422	0.185102	0.025227	0.501845	0.083834	-0.030486	-0.179029	-0.979791
47710	0.876811	3.417214	9.497858	0.003955	0.137844	0.318276	0.083684	-0.030577	-0.178290	-0.979936
47711	0.765823	3.377254	9.472599	0.107356	0.171453	0.271039	0.083612	-0.030624	-0.177928	-0.980007
47712	0.672306	3.455740	9.427919	0.213188	0.093351	0.248407	0.083563	-0.030700	-0.177873	-0.980018
47713	0.720510	3.448142	9.406952	0.166191	0.084039	0.230463	0.083554	-0.030863	-0.177769	-0.980033
47714	0.760993	3.297259	9.409981	0.103347	0.216105	0.184381	0.083450	-0.031037	-0.177668	-0.980055
47715	0.780910	3.340947	9.375328	0.092127	0.158211	0.169046	0.083364	-0.031055	-0.177533	-0.980086
47716	0.857905	3.364462	9.309019	0.019857	0.097855	0.122275	0.083323	-0.031172	-0.177336	-0.980121
47717	0.749573	3.130955	9.407968	0.088885	0.360445	0.123950	0.083379	-0.031041	-0.177091	-0.980165
47718	0.665444	3.261706	9.537182	0.195734	0.297217	0.282496	0.083290	-0.030902	-0.177189	-0.980159
47719	0.872127	3.532169	9.645781	0.038761	0.056059	0.496206	0.083148	-0.030700	-0.177202	-0.980175
47720	0.925060	3.641673	9.456342	-0.004773	-0.124684	0.362004	0.083124	-0.030406	-0.176830	-0.980253
47721	0.964752	3.581104	9.372275	-0.061327	-0.118697	0.265840	0.083363	-0.030097	-0.175906	-0.980409
47722	0.834473	3.263181	9.365532	0.006295	0.171221	0.138618	0.083734	-0.029628	-0.174845	-0.980581
47723	0.661518	3.122026	9.500335	0.148701	0.358571	0.201818	0.084058	-0.029167	-0.174297	-0.980665
47724	0.746806	3.143623	9.574597	0.063196	0.344097	0.286352	0.084294	-0.028759	-0.174193	-0.980675
47725	0.751631	3.217402	9.579674	0.063946	0.275395	0.316816	0.084535	-0.028331	-0.174216	-0.980663
47726	0.755100	3.250773	9.591087	0.060185	0.247087	0.339257	0.084806	-0.028029	-0.174166	-0.980657
47727	0.788435	3.251575	9.613220	0.022928	0.247191	0.363105	0.085085	-0.027726	-0.174109	-0.980652
47728	0.640377	3.342215	9.723308	0.182191	0.224869	0.484858	0.085402	-0.027442	-0.174162	-0.980623
47729	0.657327	3.384746	9.734944	0.169504	0.185813	0.511772	0.085671	-0.027251	-0.174032	-0.980628
47730	0.789184	3.215138	9.607623	0.005256	0.272204	0.345669	0.085953	-0.027163	-0.173745	-0.980656
47731	0.727744	3.171084	9.589699	0.057421	0.312732	0.308904	0.086104	-0.027154	-0.173689	-0.980653
47732	0.716171	3.269704	9.736212	0.090520	0.275229	0.478753	0.086126	-0.027234	-0.173779	-0.980633
47733	0.650161	3.392649	9.732200	0.179280	0.174222	0.511362	0.086072	-0.027378	-0.173989	-0.980597
47734	0.583304	3.434672	9.605651	0.252245	0.106978	0.401551	0.086006	-0.027540	-0.174257	-0.980550
47735	0.727809	3.398509	9.469206	0.104743	0.075349	0.273381	0.085924	-0.027864	-0.174524	-0.980501
47736	0.917843	3.481897	9.576212	-0.059092	0.010952	0.417966	0.085830	-0.028186	-0.174697	-0.980469
47737	0.847784	3.327339	9.498650	-0.014228	0.138153	0.286570	0.085725	-0.028434	-0.174546	-0.980498
47738	0.791484	3.155216	9.396982	0.013027	0.268608	0.127775	0.085562	-0.028718	-0.174498	-0.980512
47739	0.787078	3.297716	9.475299	0.048784	0.168702	0.249363	0.085474	-0.028916	-0.174828	-0.980456
47740	0.751606	3.326598	9.461846	0.090851	0.150488	0.243494	0.085423	-0.029039	-0.175213	-0.980388
47741	0.774990	3.418839	9.538268	0.087635	0.096080	0.348548	0.085365	-0.029138	-0.175528	-0.980334
47742	0.786533	3.434998	9.490850	0.079833	0.066022	0.310718	0.085289	-0.029278	-0.175525	-0.980337
47743	0.842166	3.443080	9.498078	0.030411	0.052292	0.325057	0.085173	-0.029538	-0.175482	-0.980346
47744	0.933863	3.409290	9.474045	-0.062185	0.057668	0.298974	0.085147	-0.029703	-0.175202	-0.980394
47745	0.727416	3.374294	9.459762	0.137059	0.113153	0.255605	0.085110	-0.029790	-0.175055	-0.980421
47746	0.776714	3.364810	9.424461	0.086869	0.100827	0.223646	0.085008	-0.029814	-0.175104	-0.980420
47747	0.806439	3.314530	9.482691	0.049376	0.167784	0.263388	0.084917	-0.029768	-0.175514	-0.980356
47748	0.870800	3.382267	9.540690	-0.002733	0.124850	0.346406	0.084869	-0.029675	-0.176001	-0.980276
47749	0.872223	3.389874	9.522966	-0.006293	0.121241	0.332467	0.084826	-0.029559	-0.176496	-0.980194
47750	0.836229	3.502346	9.555773	0.046459	0.044108	0.398796	0.084794	-0.029421	-0.176919	-0.980125
47751	0.807781	3.493790	9.521691	0.068676	0.049361	0.361522	0.084844	-0.029261	-0.177014	-0.980108
47752	0.827253	3.427467	9.446871	0.033353	0.080124	0.270354	0.084924	-0.029142	-0.176884	-0.980128
47753	0.873328	3.372515	9.345032	-0.026275	0.083241	0.160204	0.084982	-0.029005	-0.176642	-0.980171
47754	0.836389	3.362475	9.417225	0.007412	0.119726	0.221032	0.085106	-0.028805	-0.176497	-0.980192
47755	0.728942	3.387082	9.591403	0.118256	0.174027	0.383116	0.085192	-0.028602	-0.176501	-0.980190
47756	0.816134	3.286503	9.595309	0.011094	0.252679	0.359488	0.085258	-0.028406	-0.176368	-0.980213
47757	0.787411	3.205677	9.545277	0.020210	0.312365	0.282397	0.085311	-0.028213	-0.176387	-0.980211
47758	0.800693	3.385282	9.546311	0.035204	0.145679	0.346586	0.085372	-0.028013	-0.176456	-0.980199
47759	0.763257	3.573846	9.537511	0.101503	-0.028022	0.400439	0.085539	-0.027775	-0.176162	-0.980244
47760	0.730724	3.486304	9.565345	0.115611	0.056651	0.393561	0.085750	-0.027563	-0.175430	-0.980363
47761	0.780371	3.172257	9.557812	0.007831	0.319882	0.282933	0.085940	-0.027297	-0.174672	-0.980489
47762	0.667160	3.218512	9.532240	0.123540	0.275667	0.265818	0.086112	-0.027090	-0.174438	-0.980521
47763	0.600032	3.244871	9.486563	0.190406	0.242988	0.226675	0.086237	-0.026937	-0.174404	-0.980521
47764	0.682828	3.391574	9.566308	0.133482	0.124137	0.358352	0.086252	-0.026746	-0.174634	-0.980484
47765	0.765289	3.471352	9.688136	0.065195	0.081588	0.506471	0.086277	-0.026554	-0.174575	-0.980497
47766	0.780008	3.342343	9.623887	0.023297	0.173059	0.403397	0.086349	-0.026407	-0.174416	-0.980523
47767	0.756014	3.321437	9.624077	0.040857	0.194005	0.394518	0.086462	-0.026278	-0.174383	-0.980523
47768	0.633891	3.347881	9.597700	0.163277	0.180693	0.368995	0.086548	-0.026192	-0.174505	-0.980496
47769	0.788207	3.354347	9.563424	0.011674	0.138981	0.351590	0.086605	-0.026235	-0.174495	-0.980491
47770	0.778949	3.148722	9.522043	-0.015718	0.315659	0.241696	0.086672	-0.026286	-0.174505	-0.980482
47771	0.700700	3.109425	9.544199	0.055212	0.376189	0.242494	0.086701	-0.026310	-0.174872	-0.980413
47772	0.705701	3.355482	9.635156	0.097084	0.190648	0.412171	0.086643	-0.026461	-0.175473	-0.980307
47773	0.795449	3.489014	9.594469	0.034377	0.048272	0.427248	0.086551	-0.026652	-0.175759	-0.980259
47774	0.815141	3.452012	9.618102	0.012787	0.090052	0.438189	0.086430	-0.026906	-0.175671	-0.980278
47775	0.764502	3.337777	9.492906	0.043848	0.157030	0.277600	0.086341	-0.027096	-0.175508	-0.980310
47776	0.745309	3.230821	9.477717	0.046162	0.252660	0.224983	0.086245	-0.027219	-0.175578	-0.980303
47777	0.697028	3.116657	9.548595	0.074561	0.397741	0.247695	0.086222	-0.027152	-0.176199	-0.980195
47778	0.663076	3.236463	9.578830	0.127207	0.320457	0.313982	0.086132	-0.027094	-0.177246	-0.980016
47779	0.821377	3.474629	9.620327	0.012263	0.110828	0.448207	0.086014	-0.027088	-0.178148	-0.979863
47780	0.796653	3.582720	9.548037	0.053476	0.002450	0.416324	0.085978	-0.027137	-0.178496	-0.979801
47781	0.791498	3.505324	9.454854	0.044104	0.042242	0.301872	0.086038	-0.027223	-0.178254	-0.979838
47782	0.720095	3.209198	9.451999	0.063607	0.319193	0.189904	0.086112	-0.027285	-0.177915	-0.979891
47783	0.683813	3.030384	9.448230	0.068320	0.486208	0.121033	0.086085	-0.027304	-0.178057	-0.979867
47784	0.796138	3.244650	9.456963	-0.003986	0.283590	0.213043	0.085754	-0.027390	-0.178816	-0.979756
47785	0.848883	3.660468	9.597732	0.020083	-0.041370	0.494299	0.085421	-0.027435	-0.179509	-0.979657
47786	0.788979	3.760842	9.656649	0.097002	-0.091112	0.579597	0.085166	-0.027487	-0.179930	-0.979600
47787	0.786605	3.401691	9.600912	0.033613	0.227443	0.400779	0.085032	-0.027472	-0.180300	-0.979544
47788	0.774923	3.276730	9.529197	0.020927	0.331007	0.288452	0.084939	-0.027569	-0.181179	-0.979387
47789	0.971997	3.585064	9.500496	-0.118326	0.026971	0.387416	0.084828	-0.027755	-0.182252	-0.979193
47790	0.894756	3.886258	9.530978	0.012767	-0.209947	0.516828	0.084881	-0.027832	-0.182710	-0.979100
47791	0.777713	3.560540	9.436461	0.071161	0.072478	0.302586	0.084971	-0.028004	-0.182235	-0.979176
47792	0.763246	3.135861	9.395190	0.012451	0.442266	0.111526	0.084917	-0.028072	-0.182010	-0.979221
47793	0.796671	3.278682	9.539020	0.009388	0.361327	0.299024	0.084761	-0.028195	-0.182477	-0.979144
47794	0.894769	3.533327	9.519450	-0.041776	0.116402	0.379938	0.084713	-0.028279	-0.183068	-0.979035
47795	0.685794	3.668268	9.545386	0.189090	0.045418	0.434413	0.084717	-0.028368	-0.183487	-0.978954
47796	0.764920	3.611324	9.522934	0.103354	0.081988	0.399836	0.084766	-0.028575	-0.183523	-0.978937
47797	0.886734	3.371988	9.407857	-0.057860	0.240769	0.217420	0.084857	-0.028708	-0.183542	-0.978922
47798	0.798696	3.497962	9.472698	0.055667	0.165528	0.315252	0.084954	-0.028875	-0.183748	-0.978870
47799	0.749680	3.514079	9.475087	0.109919	0.161032	0.318948	0.084929	-0.029020	-0.183685	-0.978879
47800	0.732568	3.470059	9.464982	0.122142	0.199126	0.292226	0.084877	-0.029220	-0.183603	-0.978893
47801	0.779172	3.532577	9.474752	0.091435	0.138604	0.327804	0.084806	-0.029428	-0.183689	-0.978877
47802	0.904992	3.574361	9.456226	-0.020341	0.074746	0.336661	0.084713	-0.029763	-0.183635	-0.978885
47803	0.872082	3.572619	9.434480	0.016341	0.073621	0.312917	0.084597	-0.029982	-0.183656	-0.978885
47804	0.913005	3.639402	9.473066	-0.007950	0.019232	0.376393	0.084458	-0.030117	-0.183493	-0.978923
47805	0.762282	3.453594	9.529827	0.111311	0.227922	0.349087	0.084328	-0.030209	-0.183066	-0.979011
47806	0.763084	3.405445	9.524719	0.103460	0.264813	0.327273	0.084183	-0.030276	-0.182969	-0.979040
47807	0.883621	3.449232	9.460195	-0.006825	0.182291	0.293746	0.084066	-0.030486	-0.183033	-0.979031
47808	0.878323	3.547708	9.348064	0.015723	0.054036	0.224285	0.084004	-0.030634	-0.183180	-0.979005
47809	0.876268	3.706622	9.406784	0.049946	-0.069649	0.335570	0.083975	-0.030768	-0.183017	-0.979033
47810	0.909177	3.470430	9.428454	-0.020874	0.143785	0.274191	0.083885	-0.030857	-0.182563	-0.979123
47811	0.869370	3.269565	9.446271	-0.014869	0.334187	0.215572	0.083812	-0.030906	-0.182363	-0.979165
47812	0.774236	3.314018	9.526861	0.089902	0.339721	0.297690	0.083744	-0.031003	-0.182761	-0.979094
47813	0.874619	3.608225	9.499371	0.042868	0.054321	0.386210	0.083533	-0.031122	-0.183306	-0.979006
47814	0.926958	3.908015	9.508441	0.045631	-0.219501	0.506809	0.083362	-0.031270	-0.183286	-0.979020
47815	1.070539	3.918139	9.425498	-0.093377	-0.289065	0.446240	0.083260	-0.031411	-0.182519	-0.979167
47816	1.097258	3.631239	9.413289	-0.166981	-0.053808	0.334679	0.083350	-0.031443	-0.181384	-0.979369
47817	0.858277	3.374322	9.471665	0.026280	0.220368	0.276210	0.083420	-0.031358	-0.180628	-0.979506
47818	0.756182	3.192211	9.415543	0.093105	0.372469	0.150599	0.083487	-0.031327	-0.180374	-0.979548
47819	0.962991	3.379492	9.474716	-0.075771	0.190128	0.290613	0.083533	-0.031351	-0.180613	-0.979499
47820	0.995715	3.761340	9.482717	-0.041104	-0.160355	0.435905	0.083563	-0.031309	-0.180622	-0.979496
47821	0.987701	3.846953	9.482589	-0.018385	-0.248191	0.465061	0.083780	-0.031206	-0.179637	-0.979662
47822	0.893786	3.554857	9.421105	0.022257	-0.011758	0.296338	0.084064	-0.031156	-0.178283	-0.979887
47823	0.841572	3.214922	9.465040	0.015409	0.300053	0.214308	0.084381	-0.030943	-0.177225	-0.980058
47824	0.721096	3.159226	9.472628	0.123497	0.359823	0.191644	0.084702	-0.030876	-0.177044	-0.980065
47825	0.887312	3.350453	9.464762	-0.006949	0.158191	0.265482	0.084994	-0.030816	-0.177550	-0.979950
47826	0.943621	3.714761	9.525723	0.003862	-0.154655	0.454023	0.085319	-0.030811	-0.177986	-0.979843
47827	0.995145	3.925331	9.524473	-0.008596	-0.353707	0.530859	0.085751	-0.030753	-0.177880	-0.979826
47828	0.881977	3.825008	9.616205	0.088945	-0.219246	0.571145	0.086338	-0.030693	-0.177194	-0.979901
47829	0.809757	3.580679	9.682706	0.120523	0.022004	0.541862	0.086993	-0.030639	-0.176099	-0.980042
47830	0.732265	3.231222	9.570695	0.133020	0.296291	0.310045	0.087606	-0.030602	-0.175258	-0.980139
47831	0.801048	3.058538	9.569217	0.036643	0.434234	0.255895	0.088125	-0.030677	-0.175170	-0.980106
47832	0.909885	3.141126	9.526044	-0.053965	0.328239	0.253564	0.088483	-0.030740	-0.175555	-0.980003
47833	0.876056	3.407955	9.380027	0.025969	0.040640	0.205507	0.088844	-0.030749	-0.175599	-0.979962
47834	0.787314	3.394956	9.413174	0.113581	0.074330	0.223995	0.089167	-0.030779	-0.175110	-0.980020
47835	0.845550	3.163184	9.391329	0.015484	0.257392	0.129708	0.089495	-0.030810	-0.174299	-0.980133
47836	0.804557	3.063815	9.434298	0.042128	0.355855	0.132756	0.089723	-0.030945	-0.173612	-0.980230
47837	0.921245	3.098911	9.523946	-0.058368	0.322970	0.239664	0.089914	-0.031149	-0.173022	-0.980310
47838	0.946639	3.174536	9.545527	-0.063693	0.246479	0.288108	0.090042	-0.031296	-0.172595	-0.980369
47839	0.954041	3.163474	9.398472	-0.073740	0.196624	0.147480	0.090261	-0.031382	-0.172262	-0.980405
47840	0.900342	3.177169	9.357462	-0.017938	0.173456	0.108840	0.090520	-0.031347	-0.172082	-0.980414
47841	0.882370	3.216032	9.468629	0.009620	0.177059	0.224491	0.090833	-0.031215	-0.172069	-0.980391
47842	0.875569	3.023495	9.561680	-0.019348	0.389869	0.246213	0.091206	-0.031074	-0.172286	-0.980323
47843	0.838463	2.810257	9.456421	-0.029663	0.566813	0.071759	0.091607	-0.030872	-0.173180	-0.980135
47844	0.832318	2.839015	9.477942	-0.023465	0.572427	0.099721	0.091939	-0.030601	-0.174697	-0.979843
47845	0.868380	3.293095	9.563312	0.023210	0.209004	0.336755	0.092133	-0.030377	-0.176241	-0.979555
47846	0.991545	3.728423	9.454681	-0.022052	-0.230206	0.396220	0.092292	-0.030220	-0.176730	-0.979457
47847	0.921888	3.757611	9.423843	0.048058	-0.259892	0.371048	0.092297	-0.030007	-0.175914	-0.979610
47848	0.830831	3.495563	9.599098	0.089022	0.032321	0.436354	0.092144	-0.029775	-0.174221	-0.979934
47849	0.824370	2.955413	9.566603	-0.011497	0.489008	0.221984	0.091911	-0.029522	-0.173014	-0.980177
47850	0.797616	3.037163	9.595247	0.026555	0.417889	0.274630	0.091536	-0.029318	-0.173236	-0.980179
47851	0.869208	3.565723	9.556261	0.049187	-0.081716	0.423663	0.091132	-0.029119	-0.174324	-0.980030
47852	0.837089	3.836861	9.604655	0.126094	-0.291912	0.558932	0.090862	-0.028903	-0.174911	-0.979957
47853	0.776145	3.643198	9.568687	0.142993	-0.109296	0.453893	0.090672	-0.028714	-0.175008	-0.979962
47854	0.890030	3.288486	9.578373	-0.039154	0.201284	0.351439	0.090514	-0.028577	-0.174916	-0.979997
47855	0.776521	3.108454	9.561654	0.035515	0.382820	0.264162	0.090353	-0.028520	-0.175283	-0.979948
47856	0.767509	3.328490	9.548317	0.083135	0.187244	0.326163	0.090119	-0.028512	-0.175912	-0.979857
47857	0.685546	3.474050	9.566372	0.188918	0.082197	0.385941	0.089819	-0.028454	-0.176147	-0.979844
47858	0.832871	3.375088	9.594574	0.025121	0.160898	0.390950	0.089526	-0.028502	-0.176119	-0.979875
47859	0.871301	3.177890	9.622344	-0.048810	0.346704	0.352206	0.089384	-0.028510	-0.176221	-0.979869
47860	0.713522	3.143655	9.555109	0.097925	0.387113	0.263638	0.089242	-0.028559	-0.176765	-0.979783
47861	0.925014	3.360914	9.563382	-0.067717	0.165966	0.364617	0.088907	-0.028846	-0.177223	-0.979722
47862	1.005015	3.544595	9.480432	-0.110791	-0.041770	0.357798	0.088521	-0.029071	-0.177082	-0.979776
47863	0.858488	3.728439	9.421870	0.068944	-0.214917	0.353873	0.088061	-0.029286	-0.176479	-0.979920
47864	0.821184	3.466369	9.452343	0.060090	0.025637	0.288429	0.087731	-0.029250	-0.175347	-0.980154
47865	0.754973	3.080023	9.545368	0.057097	0.407385	0.237255	0.087376	-0.029254	-0.174731	-0.980295
47866	0.911106	3.123584	9.564157	-0.088583	0.347502	0.283420	0.087173	-0.029260	-0.175224	-0.980225
47867	0.919165	3.481931	9.663458	-0.030734	0.065943	0.499722	0.087131	-0.029244	-0.176168	-0.980060
47868	0.863882	3.603813	9.704146	0.044848	-0.007573	0.574908	0.087117	-0.029209	-0.176700	-0.979967
47869	0.775428	3.600436	9.492167	0.125766	-0.060395	0.367990	0.087014	-0.029291	-0.176668	-0.979979
47870	0.907761	3.536844	9.330772	-0.018702	-0.085664	0.206739	0.086904	-0.029326	-0.176182	-0.980075
47871	0.844622	3.309003	9.394584	0.004355	0.144904	0.182315	0.086762	-0.029295	-0.175473	-0.980216
47872	0.710516	3.206945	9.528097	0.120737	0.298882	0.260547	0.086624	-0.029255	-0.175320	-0.980257
47873	0.788495	3.098499	9.591227	0.024797	0.410490	0.289042	0.086497	-0.029217	-0.175655	-0.980209
47874	0.767507	3.157656	9.665268	0.057008	0.398330	0.376293	0.086298	-0.029311	-0.176557	-0.980062
47875	0.895143	3.452498	9.674191	-0.015614	0.127207	0.497237	0.086091	-0.029390	-0.177327	-0.979939
47876	0.965583	3.713932	9.574931	-0.041338	-0.150756	0.501406	0.085851	-0.029386	-0.177434	-0.979940
47877	0.952621	3.745213	9.537776	-0.023633	-0.196535	0.476340	0.085735	-0.029446	-0.176763	-0.980070
47878	0.766736	3.388614	9.560315	0.097840	0.153478	0.357714	0.085751	-0.029456	-0.175899	-0.980224
47879	0.742459	2.988457	9.495523	0.050913	0.491484	0.157414	0.085687	-0.029593	-0.175612	-0.980277
47880	0.851029	2.919763	9.479649	-0.065745	0.536899	0.128158	0.085410	-0.029822	-0.176343	-0.980163
47881	0.935142	3.355031	9.424274	-0.069728	0.121588	0.233604	0.085051	-0.030111	-0.177395	-0.979995
47882	0.960369	3.940764	9.556379	0.015975	-0.358244	0.562654	0.084706	-0.030376	-0.177862	-0.979932
47883	0.933662	3.839457	9.525377	0.026810	-0.274865	0.496031	0.084481	-0.030540	-0.177066	-0.980091
47884	0.873285	3.386211	9.421515	0.006361	0.097008	0.236418	0.084284	-0.030627	-0.176087	-0.980281
47885	0.863722	3.231552	9.510715	-0.006928	0.259820	0.265759	0.084134	-0.030695	-0.175777	-0.980348
47886	0.771858	3.159890	9.478190	0.069578	0.329485	0.202469	0.083993	-0.030644	-0.176173	-0.980290
47887	0.733209	3.172717	9.452275	0.106392	0.328381	0.178811	0.083795	-0.030581	-0.177164	-0.980131
47888	0.877358	3.408324	9.458642	0.003989	0.113810	0.278859	0.083606	-0.030678	-0.178369	-0.979925
47889	0.974943	3.694786	9.446687	-0.042906	-0.148459	0.376422	0.083543	-0.030722	-0.179165	-0.979784
47890	0.906469	3.735461	9.486352	0.032075	-0.153651	0.421646	0.083569	-0.030676	-0.179089	-0.979797
47891	0.744558	3.469239	9.451177	0.143592	0.095703	0.281120	0.083597	-0.030626	-0.178423	-0.979918
47892	0.805646	3.127570	9.452161	0.024452	0.389999	0.168365	0.083542	-0.030664	-0.177988	-0.980000
47893	0.903327	3.062445	9.420277	-0.084263	0.422965	0.124625	0.083483	-0.030609	-0.178363	-0.979939
47894	0.841658	3.516258	9.503484	0.056200	0.057075	0.355018	0.083439	-0.030588	-0.179222	-0.979787
47895	0.930169	3.846293	9.543622	0.026202	-0.233718	0.516136	0.083409	-0.030550	-0.179517	-0.979736
47896	0.987783	3.605427	9.523937	-0.073403	-0.029912	0.418339	0.083511	-0.030532	-0.179049	-0.979814
47897	0.860259	3.344493	9.538859	0.007567	0.226117	0.329517	0.083591	-0.030512	-0.178656	-0.979879
47898	0.864490	3.204167	9.491203	-0.021185	0.332198	0.236500	0.083643	-0.030600	-0.178531	-0.979895
47899	0.891853	3.287108	9.479292	-0.033112	0.249628	0.256774	0.083692	-0.030597	-0.178871	-0.979829
47900	0.825639	3.459821	9.539252	0.064033	0.131889	0.367090	0.083687	-0.030670	-0.179445	-0.979722
47901	0.903518	3.449762	9.461287	-0.015665	0.110037	0.297743	0.083671	-0.030763	-0.179731	-0.979668
47902	0.886004	3.543359	9.529586	0.020668	0.057260	0.392688	0.083689	-0.030790	-0.180007	-0.979615
47903	0.893734	3.537820	9.546488	0.012549	0.069361	0.407166	0.083714	-0.030768	-0.179931	-0.979627
47904	0.915005	3.248824	9.485030	-0.060496	0.307081	0.250112	0.083743	-0.030791	-0.179768	-0.979654
47905	0.861191	3.354087	9.516100	0.011759	0.230381	0.311270	0.083796	-0.030756	-0.179991	-0.979610
47906	0.854902	3.433228	9.453207	0.030448	0.141153	0.279893	0.083831	-0.030859	-0.180286	-0.979549
47907	0.919493	3.523626	9.474939	-0.015347	0.062241	0.337769	0.083838	-0.030925	-0.180581	-0.979492
47908	0.851014	3.431728	9.495264	0.037530	0.169502	0.318002	0.083825	-0.031002	-0.180753	-0.979459
47909	0.953134	3.367826	9.447692	-0.074345	0.199580	0.260258	0.083778	-0.031088	-0.180988	-0.979417
47910	0.889786	3.360654	9.452074	-0.013103	0.225847	0.255889	0.083794	-0.031076	-0.181567	-0.979309
47911	0.892555	3.459521	9.521553	0.003097	0.171872	0.355663	0.083746	-0.031142	-0.182138	-0.979205
47912	0.921251	3.526661	9.495765	-0.014152	0.106558	0.358057	0.083671	-0.031170	-0.182542	-0.979135
47913	0.926514	3.486280	9.457493	-0.028097	0.137682	0.308429	0.083558	-0.031186	-0.183000	-0.979059
47914	0.813357	3.558148	9.452831	0.093902	0.098919	0.319408	0.083427	-0.031121	-0.183674	-0.978946
47915	0.944058	3.689674	9.384508	-0.016147	-0.051383	0.315047	0.083330	-0.031099	-0.184506	-0.978799
47916	0.911385	3.633656	9.432895	0.005011	0.039281	0.336795	0.083354	-0.031002	-0.185283	-0.978653
47917	0.762972	3.487822	9.465698	0.124241	0.224407	0.300702	0.083397	-0.030991	-0.186155	-0.978484
47918	1.008292	3.321496	9.415696	-0.148351	0.338835	0.215646	0.083486	-0.031057	-0.187067	-0.978300
47919	0.903867	3.525939	9.397682	-0.010698	0.181526	0.263648	0.083473	-0.031097	-0.188157	-0.978091
47920	0.914283	3.950169	9.427942	0.054088	-0.179859	0.448432	0.083365	-0.031195	-0.188633	-0.978005
47921	1.007884	3.870086	9.429276	-0.050274	-0.120519	0.428776	0.083297	-0.031305	-0.188126	-0.978105
47922	0.859300	3.520290	9.435174	0.036442	0.211731	0.292122	0.083258	-0.031272	-0.187460	-0.978238
47923	0.884643	3.306881	9.364040	-0.028048	0.368636	0.150577	0.083209	-0.031237	-0.187396	-0.978255
47924	0.990164	3.547982	9.405527	-0.090044	0.154596	0.286843	0.083177	-0.031194	-0.188118	-0.978121
47925	0.932448	3.779100	9.405769	0.003580	-0.033024	0.366626	0.083175	-0.031001	-0.188844	-0.977987
47926	0.931643	3.918114	9.420577	0.025371	-0.146046	0.431574	0.083117	-0.030902	-0.188932	-0.977978
47927	0.980140	3.724621	9.334228	-0.060332	-0.013476	0.284711	0.083183	-0.030784	-0.188473	-0.978065
47928	0.800355	3.368220	9.382009	0.054096	0.349107	0.181449	0.083465	-0.030616	-0.188158	-0.978107
47929	0.755857	3.309176	9.432920	0.086408	0.430203	0.202771	0.083698	-0.030461	-0.188619	-0.978003
47930	1.030865	3.603709	9.414252	-0.135205	0.121847	0.318670	0.083907	-0.030406	-0.189118	-0.977890
47931	1.002590	3.684168	9.406741	-0.094804	0.055222	0.338816	0.084186	-0.030275	-0.189166	-0.977861
47932	0.809840	3.521272	9.441249	0.064779	0.242589	0.293218	0.084525	-0.030039	-0.188775	-0.977915
47933	0.665593	3.390078	9.446617	0.181907	0.381224	0.236979	0.084765	-0.029965	-0.188670	-0.977916
47934	0.901282	3.457142	9.440697	-0.037643	0.281324	0.277424	0.085001	-0.030023	-0.188781	-0.977873
47935	1.013308	3.798947	9.430600	-0.084726	-0.049525	0.404229	0.085145	-0.030177	-0.188873	-0.977838
47936	1.036466	3.858002	9.452685	-0.092475	-0.105918	0.448497	0.085162	-0.030328	-0.188056	-0.977989
47937	0.904270	3.882367	9.519672	0.049199	-0.101985	0.507282	0.085069	-0.030592	-0.186951	-0.978201
47938	0.996315	3.870997	9.571091	-0.034111	-0.111721	0.558876	0.085022	-0.030940	-0.185604	-0.978450
47939	0.989549	3.531722	9.643013	-0.076300	0.201257	0.502040	0.085123	-0.031329	-0.184477	-0.978642
47940	0.954727	3.499598	9.644103	-0.038315	0.223366	0.488577	0.085277	-0.031720	-0.184283	-0.978653
47941	1.012161	3.926684	9.579335	-0.012198	-0.200607	0.587629	0.085399	-0.032074	-0.184416	-0.978606
47942	0.996493	3.859569	9.452711	-0.004968	-0.184897	0.444447	0.085580	-0.032395	-0.184109	-0.978637
47943	0.908802	3.532850	9.247924	0.023523	0.044061	0.128567	0.085789	-0.032651	-0.183582	-0.978709
47944	0.954761	3.277310	9.064936	-0.068321	0.197742	-0.128596	0.086138	-0.032765	-0.183529	-0.978685
47945	0.807953	3.167643	9.168064	0.060122	0.366668	-0.086328	0.086542	-0.032675	-0.184337	-0.978500
47946	0.785635	3.260960	9.308992	0.099118	0.358306	0.075191	0.086831	-0.032412	-0.185699	-0.978226
47947	0.913776	3.493222	9.323426	0.008349	0.157417	0.184259	0.087042	-0.032045	-0.187008	-0.977970
47948	0.800913	3.663914	9.372335	0.143368	0.061818	0.280973	0.087320	-0.031668	-0.188123	-0.977743
47949	0.946620	3.802066	9.440023	0.019528	-0.043702	0.408053	0.087657	-0.031297	-0.188839	-0.977587
47950	0.824219	3.596346	9.447887	0.094170	0.181420	0.328013	0.088109	-0.030835	-0.189666	-0.977401
47951	1.001049	3.540984	9.456984	-0.099578	0.225719	0.331981	0.088546	-0.030298	-0.190778	-0.977162
47952	0.934802	3.636460	9.498802	-0.028418	0.192260	0.399417	0.088988	-0.029654	-0.192375	-0.976828
47953	0.974142	4.020524	9.659204	-0.007257	-0.068157	0.694880	0.089374	-0.028947	-0.194048	-0.976483
47954	0.844886	4.097374	9.632120	0.120523	-0.099383	0.687579	0.089896	-0.028434	-0.195103	-0.976240
47955	0.921579	3.879279	9.357583	-0.006359	-0.004937	0.358959	0.090456	-0.028308	-0.195703	-0.976072
47956	0.988365	3.740644	9.200608	-0.098417	0.055332	0.167679	0.091059	-0.028512	-0.195827	-0.975985
47957	0.978900	3.739667	9.289003	-0.081537	0.092907	0.247812	0.091322	-0.028768	-0.195721	-0.975974
47958	0.910324	3.645004	9.436488	-0.025089	0.242876	0.341249	0.091386	-0.028843	-0.195322	-0.976046
47959	0.864100	3.512613	9.429919	-0.003662	0.360385	0.280805	0.091161	-0.028859	-0.194984	-0.976134
47960	0.886671	3.615912	9.441200	-0.007370	0.263454	0.332646	0.090727	-0.028788	-0.194926	-0.976188
47961	0.941089	3.859090	9.364548	-0.018570	0.002206	0.359462	0.090259	-0.028797	-0.194778	-0.976261
47962	0.952131	4.043380	9.401201	0.004453	-0.156240	0.464161	0.089855	-0.028796	-0.194533	-0.976347
47963	0.964908	3.994414	9.371094	-0.018411	-0.135656	0.418884	0.089520	-0.028816	-0.193810	-0.976521
47964	0.879520	3.804111	9.327779	0.029636	0.015789	0.299242	0.089221	-0.028819	-0.192746	-0.976759
47965	0.843402	3.580185	9.299579	0.024348	0.194832	0.185945	0.088894	-0.028908	-0.191910	-0.976951
47966	0.891471	3.419284	9.163169	-0.055410	0.268861	0.004365	0.088499	-0.028846	-0.191559	-0.977057
47967	0.814536	3.749450	9.244966	0.079386	0.010982	0.196549	0.088211	-0.028681	-0.191755	-0.977050
47968	0.937104	3.900100	9.338779	-0.016046	-0.107785	0.350475	0.087930	-0.028519	-0.191774	-0.977076
47969	0.880940	3.823091	9.378853	0.022231	-0.019004	0.353634	0.087802	-0.028352	-0.191230	-0.977199
47970	0.920249	3.718376	9.473035	-0.035745	0.090333	0.405047	0.087720	-0.028223	-0.190285	-0.977395
47971	0.881657	3.583261	9.470031	-0.023294	0.197180	0.348961	0.087688	-0.028123	-0.189197	-0.977612
47972	0.859411	3.627591	9.415251	0.004278	0.118718	0.313063	0.087706	-0.027927	-0.188283	-0.977792
47973	0.872291	3.611904	9.440337	-0.012831	0.120152	0.331871	0.087749	-0.027738	-0.187261	-0.977990
47974	0.915884	3.493646	9.386092	-0.080459	0.180947	0.242355	0.087775	-0.027537	-0.186397	-0.978158
47975	0.892902	3.480118	9.433902	-0.062034	0.200069	0.280039	0.087735	-0.027354	-0.185844	-0.978272
47976	0.816349	3.599130	9.519709	0.033763	0.125210	0.396534	0.087648	-0.027197	-0.185404	-0.978368
47977	0.878365	3.760703	9.498536	0.000536	-0.050219	0.440803	0.087664	-0.027167	-0.184911	-0.978460
47978	0.860954	3.810301	9.487994	0.026563	-0.110294	0.447370	0.087752	-0.027077	-0.184105	-0.978607
47979	0.846145	3.608482	9.515844	0.004963	0.068762	0.399247	0.087785	-0.026997	-0.183164	-0.978783
47980	0.793125	3.474033	9.537498	0.032879	0.192187	0.366889	0.087710	-0.026934	-0.182546	-0.978907
47981	0.797182	3.412612	9.370781	0.012632	0.177952	0.190369	0.087513	-0.026776	-0.182332	-0.978969
47982	0.698954	3.677232	9.376213	0.153269	-0.045391	0.281786	0.087203	-0.026634	-0.182692	-0.978933
47983	0.938198	4.025441	9.467946	-0.019448	-0.369464	0.511532	0.086928	-0.026693	-0.182334	-0.979023
47984	0.911953	3.796830	9.497977	-0.033992	-0.159435	0.455346	0.086771	-0.026634	-0.181273	-0.979235
47985	0.837906	3.745108	9.485450	0.030038	-0.128468	0.418844	0.086667	-0.026629	-0.180043	-0.979471
47986	0.937520	3.539851	9.351504	-0.106116	-0.029531	0.229620	0.086781	-0.026556	-0.178836	-0.979684
47987	0.855477	3.433424	9.362432	-0.044950	0.065181	0.195763	0.086989	-0.026344	-0.178081	-0.979809
47988	0.764970	3.342375	9.473498	0.027422	0.189987	0.260393	0.087259	-0.026129	-0.177570	-0.979884
47989	0.778867	3.229886	9.529509	-0.007654	0.305284	0.274784	0.087510	-0.025998	-0.177535	-0.979871
47990	0.854256	3.280546	9.471794	-0.074837	0.229074	0.244576	0.087809	-0.025955	-0.177913	-0.979777
47991	0.888161	3.538824	9.471176	-0.061368	-0.006827	0.336769	0.088159	-0.025944	-0.178268	-0.979681
47992	0.857612	3.730854	9.518676	0.004869	-0.160249	0.445688	0.088553	-0.025861	-0.178035	-0.979690
47993	0.837150	3.631404	9.491439	0.007220	-0.087231	0.383765	0.088960	-0.025779	-0.177128	-0.979820
47994	0.813691	3.459788	9.463908	0.000358	0.043671	0.296508	0.089416	-0.025735	-0.176010	-0.979981
47995	0.799203	3.434625	9.545141	0.014087	0.078203	0.362712	0.089836	-0.025733	-0.175209	-0.980086
47996	0.790213	3.299002	9.571301	0.001856	0.199445	0.340039	0.090220	-0.025839	-0.174612	-0.980155
47997	0.859823	3.282092	9.436026	-0.068323	0.147354	0.213460	0.090619	-0.025906	-0.174381	-0.980157
47998	0.794688	3.491033	9.520852	0.038608	-0.005806	0.359035	0.090992	-0.025939	-0.174461	-0.980108
47999	0.841278	3.571049	9.589271	0.011080	-0.065252	0.454243	0.091431	-0.025944	-0.174201	-0.980113
48000	0.813535	3.509503	9.566507	0.029721	-0.019144	0.409605	0.091870	-0.026052	-0.173751	-0.980149
48001	0.876143	3.410406	9.506067	-0.046848	0.031148	0.324404	0.092281	-0.026183	-0.173303	-0.980186
48002	0.844403	3.375844	9.462249	-0.018303	0.044491	0.269038	0.092690	-0.026308	-0.172889	-0.980217
48003	0.779837	3.446581	9.513775	0.063830	0.001224	0.335953	0.093064	-0.026417	-0.172581	-0.980233
48004	0.805539	3.412206	9.555408	0.036840	0.035462	0.365487	0.093423	-0.026520	-0.172147	-0.980273
48005	0.884757	3.383786	9.484340	-0.042753	0.014287	0.295897	0.093792	-0.026700	-0.171693	-0.980312
48006	0.878295	3.319465	9.525703	-0.042559	0.080583	0.312576	0.094172	-0.026869	-0.171298	-0.980340
48007	0.798236	3.253320	9.448800	0.026945	0.121244	0.211566	0.094473	-0.027043	-0.170899	-0.980376
48008	0.921958	3.217384	9.477006	-0.095940	0.134587	0.236586	0.094692	-0.027209	-0.170511	-0.980418
48009	0.958714	3.306286	9.497520	-0.110900	0.047207	0.288749	0.094947	-0.027247	-0.170303	-0.980428
48010	0.828319	3.390526	9.444776	0.034645	-0.029486	0.256250	0.095201	-0.027310	-0.170117	-0.980434
48011	0.901618	3.366610	9.507761	-0.038459	-0.005194	0.313664	0.095460	-0.027323	-0.169677	-0.980485
48012	0.836513	3.250988	9.654889	0.007188	0.154104	0.407966	0.095737	-0.027306	-0.169214	-0.980538
48013	0.817571	3.066426	9.519973	-0.012716	0.275361	0.218529	0.096017	-0.027233	-0.169076	-0.980537
48014	0.919242	3.131284	9.449896	-0.101241	0.174979	0.182792	0.096332	-0.027197	-0.169396	-0.980452
48015	0.885456	3.291809	9.519092	-0.035962	0.064894	0.298081	0.096665	-0.027109	-0.169909	-0.980332
48016	0.812289	3.252889	9.496817	0.026164	0.116129	0.257887	0.096964	-0.027041	-0.170378	-0.980224
48017	0.835402	3.302964	9.505056	0.013071	0.077051	0.284215	0.097213	-0.027038	-0.170747	-0.980135
48018	0.819774	3.308896	9.484409	0.029879	0.074875	0.265424	0.097445	-0.027099	-0.171118	-0.980045
48019	0.924774	3.465413	9.562110	-0.037859	-0.055369	0.399743	0.097791	-0.027227	-0.171335	-0.979969
48020	0.875986	3.481491	9.625227	0.018133	-0.038992	0.460154	0.098085	-0.027366	-0.171143	-0.979970
48021	0.812175	3.167905	9.642707	0.021999	0.261115	0.366132	0.098344	-0.027504	-0.170705	-0.980016
48022	0.789661	3.058118	9.628784	0.025681	0.357400	0.314540	0.098509	-0.027672	-0.170714	-0.979993
48023	0.891932	3.195319	9.664375	-0.042538	0.229099	0.402568	0.098689	-0.027836	-0.171116	-0.979900
48024	0.982407	3.533148	9.614393	-0.060153	-0.108501	0.476599	0.098857	-0.028006	-0.171381	-0.979832
48025	1.003152	3.558241	9.536880	-0.072208	-0.163945	0.414109	0.099228	-0.028176	-0.170922	-0.979870
48026	0.906796	3.322615	9.535525	-0.020077	0.057254	0.325586	0.099624	-0.028341	-0.170093	-0.979969
48027	0.869211	3.037544	9.537884	-0.035452	0.312847	0.229936	0.099922	-0.028552	-0.169457	-0.980043
48028	0.909627	2.876238	9.453137	-0.104090	0.419417	0.100698	0.100127	-0.028803	-0.169520	-0.980004
48029	0.909583	3.164279	9.488027	-0.039209	0.174010	0.228768	0.100351	-0.029043	-0.170188	-0.979858
48030	0.955611	3.401924	9.538695	-0.029624	-0.023428	0.359409	0.100542	-0.029294	-0.170694	-0.979743
48031	0.999383	3.475970	9.590001	-0.051354	-0.075154	0.436262	0.100736	-0.029499	-0.170815	-0.979696
48032	0.991383	3.375554	9.440632	-0.063188	-0.034856	0.261910	0.100983	-0.029634	-0.170468	-0.979727
48033	0.933723	3.257172	9.438524	-0.027087	0.076119	0.215284	0.101265	-0.029774	-0.170004	-0.979774
48034	0.907589	3.099889	9.478927	-0.028837	0.231293	0.198743	0.101424	-0.029949	-0.169617	-0.979820
48035	0.977908	3.035922	9.487380	-0.107528	0.274963	0.192129	0.101431	-0.030028	-0.169503	-0.979836
48036	0.985642	3.235356	9.541760	-0.070771	0.109537	0.309921	0.101448	-0.030092	-0.169691	-0.979800
48037	1.009936	3.279979	9.431244	-0.087193	0.028055	0.223159	0.101458	-0.030093	-0.169702	-0.979797
48038	1.091451	3.274551	9.385317	-0.169478	0.002204	0.185782	0.101493	-0.030046	-0.169728	-0.979790
48039	1.041969	3.354122	9.453406	-0.104363	-0.039414	0.271472	0.101562	-0.029919	-0.169612	-0.979807
48040	0.973047	3.200058	9.456890	-0.072174	0.112122	0.217376	0.101606	-0.029681	-0.169330	-0.979858
48041	0.889018	3.064200	9.484604	-0.022569	0.259855	0.190779	0.101602	-0.029413	-0.169401	-0.979855
48042	0.866946	3.045527	9.454561	-0.010883	0.275072	0.154246	0.101587	-0.029186	-0.169794	-0.979795
48043	0.980971	3.122468	9.413363	-0.113260	0.179553	0.151168	0.101624	-0.028899	-0.170551	-0.979668
48044	0.975531	3.389508	9.467113	-0.058390	-0.033178	0.289893	0.101684	-0.028558	-0.171172	-0.979564
48045	0.971865	3.460478	9.484047	-0.046247	-0.088567	0.329137	0.101639	-0.028268	-0.170941	-0.979617
48046	0.960145	3.317394	9.512696	-0.069253	0.042366	0.307181	0.101564	-0.027948	-0.169993	-0.979799
48047	0.809660	3.080450	9.566308	0.025012	0.286921	0.265804	0.101428	-0.027663	-0.169004	-0.979992
48048	0.854656	2.934906	9.514150	-0.055305	0.378069	0.173160	0.101202	-0.027331	-0.168426	-0.980124
48049	0.888104	3.155122	9.557627	-0.049047	0.177652	0.289678	0.100906	-0.026926	-0.168475	-0.980158
48050	0.966974	3.484762	9.618697	-0.066870	-0.120529	0.462473	0.100605	-0.026444	-0.168472	-0.980202
48051	0.950663	3.510138	9.660074	-0.055502	-0.132483	0.508224	0.100389	-0.025938	-0.168021	-0.980315
48052	0.863666	3.312624	9.761442	-0.019164	0.086566	0.531261	0.100204	-0.025437	-0.167252	-0.980479
48053	0.772077	2.964408	9.722263	-0.009404	0.396560	0.373031	0.100091	-0.025069	-0.166645	-0.980603
48054	0.736533	2.813523	9.700054	-0.012661	0.530572	0.300065	0.099931	-0.024753	-0.166891	-0.980586
48055	0.869513	3.027556	9.669440	-0.106012	0.308512	0.351651	0.099761	-0.024569	-0.167740	-0.980463
48056	0.812701	3.266834	9.704907	-0.007049	0.125887	0.458729	0.099622	-0.024362	-0.168418	-0.980366
48057	0.673897	3.302189	9.763358	0.132656	0.149257	0.514068	0.099400	-0.024319	-0.168737	-0.980335
48058	0.792586	3.118005	9.727377	-0.022973	0.287422	0.428839	0.099121	-0.024311	-0.168695	-0.980370
48059	0.861350	3.106018	9.696297	-0.092992	0.275207	0.401179	0.098724	-0.024430	-0.168729	-0.980402
48060	0.931685	3.435735	9.737959	-0.093989	-0.024858	0.555085	0.098246	-0.024553	-0.168921	-0.980413
48061	0.942404	3.604230	9.814344	-0.067255	-0.157662	0.683530	0.097849	-0.024801	-0.168538	-0.980513
48062	0.854741	3.276177	9.723212	-0.044819	0.124494	0.482324	0.097610	-0.024959	-0.168344	-0.980566
48063	0.689039	3.279863	9.555901	0.118696	0.098129	0.312716	0.097533	-0.025163	-0.168842	-0.980483
48064	0.679891	3.065451	9.378590	0.085739	0.251672	0.073994	0.097647	-0.025446	-0.169737	-0.980310
48065	0.821793	3.176836	9.362695	-0.028534	0.140659	0.107344	0.097821	-0.025610	-0.171104	-0.980050
48066	0.793500	3.306776	9.464241	0.027876	0.086191	0.243556	0.098230	-0.025697	-0.172190	-0.979817
48067	0.677748	2.990089	9.349732	0.076431	0.377239	0.019367	0.098725	-0.025713	-0.172909	-0.979640
48068	0.749970	2.991880	9.253368	0.004760	0.343930	-0.064852	0.099264	-0.025709	-0.173736	-0.979439
48069	0.931235	3.268299	9.304455	-0.115119	0.085833	0.091920	0.099774	-0.025726	-0.174084	-0.979325
48070	0.991629	3.379588	9.368575	-0.149990	-0.004701	0.194941	0.100141	-0.025624	-0.173805	-0.979340
48071	0.942774	3.398783	9.465011	-0.096718	0.006560	0.287686	0.100247	-0.025531	-0.172735	-0.979521
48072	0.913171	3.405125	9.509072	-0.065233	-0.004377	0.328656	0.100275	-0.025416	-0.171285	-0.979776
48073	0.981819	3.378363	9.683258	-0.136205	0.039063	0.488898	0.100216	-0.025204	-0.170014	-0.980009
48074	0.825001	3.354991	9.695502	0.008988	0.072145	0.479739	0.100208	-0.024863	-0.169212	-0.980157
48075	0.828829	3.401320	9.721015	0.010029	0.026304	0.519460	0.100249	-0.024602	-0.169003	-0.980195
48076	0.826763	3.464424	9.846071	0.022245	0.010215	0.657761	0.100367	-0.024409	-0.169164	-0.980160
48077	0.827720	3.536915	9.801911	0.032658	-0.066371	0.640392	0.100441	-0.024330	-0.169545	-0.980089
48078	0.900329	3.640158	9.794136	-0.018125	-0.171320	0.673340	0.100460	-0.024372	-0.169781	-0.980045
48079	0.850511	3.428967	9.703531	-0.011788	0.000670	0.513956	0.100443	-0.024517	-0.169445	-0.980101
48080	0.767427	3.161262	9.663406	0.018385	0.243204	0.380665	0.100326	-0.024760	-0.169169	-0.980155
48081	0.779680	3.012107	9.677361	-0.018625	0.380934	0.345390	0.100077	-0.025081	-0.169182	-0.980170
48082	0.811225	2.988983	9.533867	-0.050461	0.351853	0.205314	0.099611	-0.025468	-0.169533	-0.980147
48083	0.789570	3.236045	9.556629	0.026926	0.144825	0.306742	0.099095	-0.025854	-0.169946	-0.980117
48084	0.898016	3.366948	9.624420	-0.046323	0.031867	0.422989	0.098610	-0.026200	-0.169888	-0.980167
48085	0.915607	3.327576	9.483087	-0.069077	0.013471	0.278650	0.098189	-0.026448	-0.169580	-0.980256
48086	0.850868	3.312276	9.504902	-0.004388	0.042305	0.288625	0.097826	-0.026690	-0.169373	-0.980322
48087	0.872145	3.106141	9.501008	-0.062629	0.224509	0.218443	0.097450	-0.026950	-0.169266	-0.980371
48088	0.828823	2.984182	9.303669	-0.045419	0.278953	-0.011123	0.097014	-0.027102	-0.169476	-0.980373
48089	0.858099	3.093618	9.422759	-0.049473	0.221198	0.139388	0.096473	-0.027227	-0.169994	-0.980333
48090	0.909980	3.361031	9.410311	-0.049228	-0.028572	0.221021	0.095843	-0.027212	-0.170475	-0.980312
48091	0.849224	3.548693	9.394793	0.043913	-0.191964	0.263908	0.095334	-0.027157	-0.170389	-0.980378
48092	0.954067	3.549459	9.444983	-0.059616	-0.202464	0.320034	0.094898	-0.027134	-0.169651	-0.980549
48093	0.963288	3.400790	9.493852	-0.099327	-0.069626	0.317059	0.094547	-0.026877	-0.168502	-0.980788
48094	0.832789	3.117916	9.498211	-0.030251	0.193280	0.216900	0.094344	-0.026630	-0.167441	-0.980996
48095	0.855466	3.023123	9.538219	-0.075169	0.274881	0.225614	0.094116	-0.026296	-0.167017	-0.981099
48096	0.820526	3.165299	9.569275	-0.019826	0.155692	0.298632	0.093959	-0.025947	-0.167074	-0.981114
48097	0.902816	3.358042	9.610374	-0.070394	-0.019962	0.407168	0.093857	-0.025592	-0.167394	-0.981078
48098	0.880361	3.336766	9.566101	-0.061820	-0.007563	0.356651	0.093877	-0.025141	-0.167515	-0.981068
48099	0.877872	3.289750	9.410002	-0.078628	-0.018066	0.194047	0.093973	-0.024791	-0.167311	-0.981102
48100	0.980029	3.270342	9.449037	-0.187252	-0.011111	0.232446	0.094047	-0.024528	-0.166972	-0.981160
48101	0.845136	3.362956	9.668184	-0.038006	-0.008829	0.458436	0.093897	-0.024296	-0.166415	-0.981274
48102	0.735494	3.374398	9.772034	0.067800	0.017880	0.551443	0.093689	-0.023904	-0.165408	-0.981474
48103	0.601201	3.052513	9.824826	0.131622	0.339572	0.486528	0.093484	-0.023529	-0.164795	-0.981606
48104	0.574987	2.734121	9.757688	0.088309	0.611075	0.318319	0.093309	-0.023194	-0.164921	-0.981609
48105	0.596685	3.011851	9.651885	0.111570	0.325883	0.309935	0.093152	-0.022968	-0.165939	-0.981458
48106	0.859564	3.373586	9.647852	-0.083231	-0.038621	0.443654	0.093118	-0.022821	-0.166699	-0.981336
48107	0.705603	3.288682	9.574445	0.046316	0.048683	0.335159	0.093111	-0.022581	-0.166592	-0.981360
48108	0.735720	3.043699	9.489504	-0.032714	0.234126	0.177317	0.093049	-0.022581	-0.165983	-0.981469
48109	0.950492	2.782691	9.440597	-0.292923	0.410270	0.062410	0.092920	-0.022588	-0.165441	-0.981573
48110	0.696868	2.896948	9.480152	-0.021527	0.361187	0.118088	0.092832	-0.022624	-0.165882	-0.981506
48111	0.720641	3.284183	9.594717	0.028938	0.049123	0.353949	0.092702	-0.022625	-0.166652	-0.981387
48112	0.684546	3.293003	9.674870	0.066085	0.087235	0.429558	0.092575	-0.022690	-0.167142	-0.981315
48113	0.700620	3.240162	9.685433	0.040097	0.146729	0.423229	0.092483	-0.022714	-0.167596	-0.981245
48114	0.742365	3.291582	9.651866	0.008240	0.088391	0.411610	0.092433	-0.022761	-0.167893	-0.981198
48115	0.774193	3.373007	9.626701	-0.007509	0.002986	0.417164	0.092492	-0.022786	-0.167972	-0.981179
48116	0.736279	3.394373	9.555894	0.032900	-0.036636	0.354739	0.092497	-0.022726	-0.167652	-0.981234
48117	0.780985	3.288966	9.509209	-0.030993	0.027869	0.279415	0.092519	-0.022749	-0.167052	-0.981334
48118	0.751264	3.176301	9.631424	-0.020370	0.169255	0.355329	0.092418	-0.022787	-0.166746	-0.981395
48119	0.839891	3.252458	9.588543	-0.091851	0.065437	0.346611	0.092211	-0.022932	-0.166690	-0.981420
48120	0.813561	3.199582	9.501779	-0.074542	0.090638	0.245605	0.092012	-0.023111	-0.166791	-0.981418
48121	0.755213	3.408100	9.558119	0.025158	-0.069310	0.362660	0.091663	-0.023300	-0.167045	-0.981403
48122	0.810101	3.389226	9.661419	-0.029251	-0.025707	0.457883	0.091338	-0.023400	-0.166839	-0.981466
48123	0.808670	3.120678	9.588900	-0.077643	0.194693	0.301444	0.091079	-0.023504	-0.166618	-0.981525
48124	0.779364	3.196947	9.660680	-0.032849	0.151591	0.391849	0.090850	-0.023536	-0.166662	-0.981538
48125	0.605459	3.135297	9.504331	0.125011	0.186097	0.211220	0.090694	-0.023638	-0.166627	-0.981556
48126	0.684236	2.958574	9.488892	0.016437	0.332631	0.144696	0.090542	-0.023785	-0.166783	-0.981540
48127	0.696977	2.838862	9.616806	-0.015060	0.492242	0.226503	0.090322	-0.023892	-0.167378	-0.981456
48128	0.745729	3.025238	9.589277	-0.029157	0.317857	0.265035	0.089976	-0.023963	-0.168310	-0.981327
48129	0.727243	3.402824	9.589372	0.059246	-0.011236	0.388317	0.089576	-0.024202	-0.169023	-0.981235
48130	0.874132	3.376798	9.542963	-0.088550	-0.022304	0.347365	0.089171	-0.024353	-0.168781	-0.981310
48131	0.828570	3.021290	9.404641	-0.109042	0.257525	0.096085	0.088861	-0.024446	-0.168022	-0.981466
48132	0.647269	2.884230	9.489341	0.046645	0.434136	0.116798	0.088499	-0.024478	-0.167844	-0.981528
48133	0.826071	2.769478	9.511293	-0.150506	0.520410	0.113219	0.087903	-0.024496	-0.168221	-0.981517
48134	1.031939	2.990276	9.596670	-0.313912	0.323969	0.281825	0.087091	-0.024533	-0.169074	-0.981441
48135	1.037109	3.466700	9.523652	-0.237899	-0.128674	0.371634	0.086374	-0.024546	-0.169551	-0.981422
48136	0.754168	3.837357	9.375577	0.100967	-0.474107	0.334261	0.085762	-0.024529	-0.169307	-0.981518
48137	1.000683	3.605737	9.284198	-0.184901	-0.347720	0.189506	0.085244	-0.024576	-0.167810	-0.981819
48138	1.120863	2.990225	9.376755	-0.408722	0.203624	0.082397	0.084847	-0.024535	-0.166118	-0.982142
48139	0.760767	2.774403	9.430451	-0.091638	0.457047	0.035774	0.084373	-0.024443	-0.165569	-0.982278
48140	0.888691	3.443122	9.472825	-0.103209	-0.172340	0.303583	0.083691	-0.024426	-0.165901	-0.982281
48141	0.870998	3.925573	9.551423	-0.006618	-0.586993	0.533995	0.083120	-0.024183	-0.166019	-0.982316
48142	0.855575	3.756165	9.490503	-0.029902	-0.451615	0.419887	0.082726	-0.023786	-0.165551	-0.982438
48143	0.669332	3.286488	9.527690	0.064233	0.019179	0.287876	0.082609	-0.023243	-0.165395	-0.982487
48144	0.704381	3.219724	9.547073	0.007174	0.087360	0.286900	0.082646	-0.022690	-0.166140	-0.982371
48145	0.809486	3.622592	9.478265	-0.040707	-0.305534	0.361833	0.082915	-0.022171	-0.167528	-0.982124
48146	0.898361	3.773797	9.601261	-0.112629	-0.397553	0.534392	0.083380	-0.021523	-0.168256	-0.981975
48147	0.669776	3.409991	9.595977	0.037253	-0.018403	0.393079	0.083949	-0.020748	-0.168387	-0.981921
48148	0.690822	3.049421	9.561162	-0.057425	0.304497	0.241964	0.084400	-0.020238	-0.168727	-0.981834
48149	0.821073	2.929360	9.411279	-0.217982	0.353128	0.069379	0.084793	-0.019687	-0.169386	-0.981698
48150	0.711644	3.384301	9.595127	-0.041413	0.024992	0.386530	0.085123	-0.019082	-0.170149	-0.981550
48151	0.715645	3.592772	9.725411	-0.020799	-0.118240	0.579105	0.085632	-0.018352	-0.170083	-0.981531
48152	0.710881	3.227160	9.539537	-0.093968	0.148438	0.281459	0.086179	-0.017532	-0.169412	-0.981614
48153	0.546497	2.943682	9.580976	0.003550	0.441201	0.215490	0.086873	-0.016607	-0.169193	-0.981606
48154	0.453873	2.767673	9.659529	0.048603	0.647572	0.224782	0.087536	-0.015864	-0.169697	-0.981473
48155	0.610327	2.838795	9.677483	-0.106914	0.578283	0.273890	0.088089	-0.015208	-0.170942	-0.981217
48156	0.686128	3.304823	9.632880	-0.110521	0.144626	0.392792	0.088593	-0.014736	-0.172260	-0.980949
48157	0.678623	3.794118	9.656618	-0.023717	-0.278696	0.580959	0.089067	-0.014399	-0.172847	-0.980808
48158	0.714445	3.789932	9.711496	-0.065596	-0.262915	0.633064	0.089602	-0.013972	-0.172242	-0.980872
48159	0.390449	3.377726	9.701655	0.172281	0.151179	0.465007	0.090052	-0.013438	-0.171168	-0.981026
48160	0.322409	3.047530	9.695518	0.171597	0.446057	0.344380	0.090375	-0.012922	-0.170419	-0.981133
48161	0.446706	2.960413	9.542562	0.025852	0.444552	0.178598	0.090518	-0.012430	-0.170448	-0.981122
48162	0.652682	3.103623	9.421350	-0.157975	0.237691	0.124055	0.090726	-0.012057	-0.170758	-0.981053
48163	0.845325	3.279624	9.322446	-0.322590	0.006546	0.100656	0.090809	-0.011547	-0.170412	-0.981112
48164	0.774652	3.383118	9.187980	-0.242064	-0.141009	0.004949	0.090726	-0.010954	-0.169010	-0.981369
48165	0.886653	3.367566	8.951871	-0.363152	-0.266729	-0.217929	0.090575	-0.010100	-0.166381	-0.981841
48166	0.717787	2.780255	8.751224	-0.318372	0.184234	-0.609790	0.090406	-0.008612	-0.163326	-0.982383
48167	0.380733	2.334562	8.622156	-0.094677	0.566110	-0.890410	0.090161	-0.006425	-0.161400	-0.982741
48168	0.539021	2.127018	8.386528	-0.324520	0.631015	-1.172958	0.089669	-0.003739	-0.161061	-0.982856
48169	0.725641	2.665590	8.349637	-0.466271	0.083207	-1.030677	0.089146	-0.000255	-0.161714	-0.982803
48170	0.425431	3.307478	8.566776	-0.135165	-0.384759	-0.628830	0.088606	0.003907	-0.162462	-0.982721
48171	0.492144	3.539412	8.440821	-0.238861	-0.656267	-0.673284	0.087992	0.008742	-0.162154	-0.982795
48172	0.341949	3.430836	8.300140	-0.197583	-0.599570	-0.847176	0.087729	0.014651	-0.160620	-0.983001
48173	-0.653040	2.824856	8.406961	0.564493	0.140661	-0.938928	0.087429	0.021419	-0.159354	-0.983109
48174	-0.755524	2.487770	8.275992	0.498369	0.411071	-1.162069	0.086522	0.028569	-0.159389	-0.983002
48175	-0.450236	2.492732	8.080205	0.087148	0.286207	-1.350113	0.085781	0.036327	-0.160138	-0.982689
48176	-0.343513	2.808410	8.150717	-0.115755	0.000974	-1.185746	0.085201	0.044831	-0.161471	-0.982170
48177	-0.533128	2.971729	8.030585	-0.045890	-0.139108	-1.234692	0.084589	0.054176	-0.163363	-0.981439
48178	-1.039778	3.021385	7.845448	0.310198	-0.127177	-1.348309	0.084034	0.064867	-0.165741	-0.980439
48179	-1.443506	3.658361	8.091011	0.564858	-0.532229	-0.850214	0.083023	0.075858	-0.168745	-0.979223
48180	-1.437446	4.594241	8.837360	0.337081	-1.139395	0.180106	0.082782	0.087680	-0.169678	-0.978094
48181	-2.134135	3.971842	9.105832	0.640814	-0.357299	0.321558	0.083239	0.100086	-0.168635	-0.977045
48182	-2.073914	2.757668	8.518010	0.326057	0.538634	-0.644176	0.083181	0.112454	-0.167719	-0.975861
48183	-1.636441	2.641915	8.465441	-0.321065	0.522017	-0.815939	0.082850	0.124965	-0.168076	-0.974305
48184	-2.281350	3.378092	8.844888	0.035142	0.085375	-0.074415	0.082157	0.138180	-0.169160	-0.972390
48185	-3.168303	3.890369	8.998859	0.612327	-0.155108	0.470625	0.081919	0.152300	-0.170009	-0.970150
48186	-3.453633	3.725795	8.535697	0.732720	-0.085670	0.092709	0.081348	0.165925	-0.170552	-0.967865
48187	-2.830937	3.978654	8.656770	-0.139787	-0.436616	0.115393	0.080662	0.180107	-0.169524	-0.965566
48188	-3.359704	4.303291	8.662559	0.089206	-0.681332	0.403277	0.079932	0.194895	-0.166304	-0.963312
48189	-3.563621	3.580253	7.863742	0.246653	-0.296766	-0.474621	0.079808	0.210597	-0.160783	-0.960952
48190	-4.817385	2.376236	7.805396	1.001147	0.982162	-0.442422	0.080083	0.227274	-0.155580	-0.957981
48191	-6.119530	2.468218	8.239762	1.637018	1.227344	0.542918	0.079156	0.242898	-0.153521	-0.954550
48192	-5.548421	3.295761	8.705582	0.634478	0.392711	0.997822	0.077731	0.258593	-0.152247	-0.950741
48193	-5.085702	3.666164	8.576933	-0.011778	-0.154957	0.809687	0.075763	0.274149	-0.149605	-0.946953
48194	-4.599148	3.859931	7.845105	-0.337474	-0.725986	0.033449	0.074493	0.290435	-0.144381	-0.943002
48195	-5.156077	3.056789	7.145183	0.159906	-0.130233	-0.489031	0.074477	0.307528	-0.137448	-0.938610
48196	-6.167597	2.367569	6.881962	0.761923	0.567221	-0.320973	0.074672	0.325338	-0.130748	-0.933533
48197	-7.350665	2.482106	7.712416	0.792605	0.766174	1.070525	0.075107	0.343330	-0.124669	-0.927869
48198	-7.818336	3.493385	8.107147	0.547302	-0.142368	1.965400	0.075207	0.358996	-0.119824	-0.922555
48199	-6.324887	3.769305	7.664653	-0.571931	-0.947553	0.757267	0.076356	0.374180	-0.112863	-0.917290
48200	-6.640058	3.343649	7.222739	-0.373795	-0.686782	0.522517	0.077928	0.389911	-0.104751	-0.911550
48201	-7.410429	2.662752	6.671704	0.189459	-0.089618	0.505307	0.080368	0.406104	-0.095782	-0.905233
48202	-8.006917	1.632984	5.982730	0.683210	0.819207	0.258059	0.083212	0.423192	-0.087571	-0.897951
48203	-9.604170	1.208239	5.958910	1.278841	1.476048	1.384563	0.085189	0.440308	-0.082101	-0.890018
48204	-9.395328	2.418702	5.931763	0.864016	0.173644	1.523930	0.085089	0.455691	-0.079571	-0.882482
48205	-8.226104	2.984400	6.242959	-0.378950	-0.695051	0.907041	0.086088	0.470860	-0.074958	-0.874792
48206	-8.712502	2.226640	6.311494	-0.579578	0.038762	1.157785	0.087916	0.485813	-0.068128	-0.866957
48207	-8.544776	1.372612	5.967985	-0.784430	0.678475	0.648062	0.089424	0.500207	-0.060352	-0.859159
48208	-8.394189	1.051892	5.503283	-0.807977	0.809510	0.214119	0.090950	0.514372	-0.053395	-0.851057
48209	-9.042956	1.263875	5.538897	-0.860208	0.625977	0.813181	0.092282	0.528657	-0.048838	-0.842390
48210	-9.860069	2.295590	5.679874	-0.901580	-0.298096	1.756136	0.093755	0.542841	-0.045720	-0.833333
48211	-10.365390	3.147575	5.467698	-0.800332	-1.100220	2.244700	0.096466	0.556899	-0.041355	-0.823922
48212	-10.262124	3.537845	5.131078	-0.830795	-1.591123	2.058458	0.101045	0.569550	-0.034150	-0.815007
48213	-9.276968	3.132883	4.301819	-0.706497	-1.485532	0.754710	0.108125	0.581381	-0.022466	-0.806102
48214	-9.490501	1.857279	4.090659	-0.872973	-0.358886	0.644504	0.118382	0.592791	-0.006181	-0.796584
48215	-9.929231	-0.054518	4.513811	-1.775706	1.309529	0.868419	0.128550	0.603479	0.010196	-0.786882
48216	-10.076745	-0.781923	4.777615	-2.459515	1.747299	0.951207	0.136355	0.613886	0.024833	-0.777132
48217	-9.944617	-0.291016	3.873234	-1.812834	1.190408	0.640432	0.142111	0.623796	0.038267	-0.767606
48218	-9.719613	0.516933	3.123266	-1.193165	0.336036	0.333638	0.146969	0.633275	0.051099	-0.758123
48219	-9.881737	0.697633	2.966323	-1.201962	0.029320	0.457729	0.151477	0.641997	0.063393	-0.748916
48220	-10.155094	0.370226	2.653500	-1.186910	0.280595	0.618531	0.153600	0.649852	0.072991	-0.740791
48221	-10.855458	1.394339	3.123314	-1.424063	-0.904697	1.442925	0.155375	0.656637	0.080880	-0.733583
48222	-10.854269	0.974937	2.574911	-1.210069	-0.476433	1.309434	0.157921	0.661768	0.087727	-0.727618
48223	-10.576680	0.847925	2.407012	-1.245420	-0.431907	0.987296	0.160433	0.665692	0.092652	-0.722863
48224	-10.182631	1.032166	2.243075	-1.148899	-0.654306	0.581247	0.162714	0.668608	0.096310	-0.719174
48225	-9.852509	1.613249	2.453675	-1.222125	-1.344160	0.306322	0.165220	0.670690	0.099220	-0.716263
48226	-10.213218	0.907914	2.730034	-1.761377	-0.777987	0.621842	0.168279	0.671491	0.102052	-0.714400
48227	-10.572528	0.754587	3.530503	-2.554557	-0.905967	1.025470	0.170831	0.670918	0.103794	-0.714082
48228	-10.206078	0.446636	2.673308	-1.867994	-0.342904	0.574948	0.173229	0.669189	0.105793	-0.714833
48229	-9.688956	0.598569	1.258739	-0.483995	0.001937	-0.035974	0.175900	0.666973	0.108183	-0.715893
48230	-9.368876	0.967943	0.256338	0.609522	0.024360	-0.410229	0.178172	0.665085	0.110349	-0.716756
48231	-9.477695	1.243472	0.380215	0.645693	-0.254441	-0.271422	0.180861	0.663554	0.113037	-0.717083
48232	-9.763893	0.576774	0.541214	0.270372	0.324748	-0.025932	0.184106	0.662097	0.116520	-0.717047
48233	-9.637618	0.053151	0.547620	0.059726	0.782682	-0.191345	0.186577	0.660886	0.119311	-0.717066
48234	-9.523273	-0.046985	0.840741	-0.236719	0.738727	-0.283784	0.187663	0.659846	0.120560	-0.717531
48235	-9.377709	-0.056525	1.053723	-0.420938	0.646692	-0.407395	0.186995	0.659124	0.119816	-0.718493
48236	-9.198387	0.573658	1.147357	-0.226832	0.029985	-0.528108	0.185132	0.658371	0.117535	-0.720042
48237	-8.928271	1.217754	1.232999	-0.031642	-0.602366	-0.737814	0.183248	0.657708	0.114911	-0.721551
48238	-9.392235	1.769607	1.437033	0.054266	-1.114456	-0.212393	0.182096	0.657240	0.112655	-0.722624
48239	-9.769542	1.855004	1.782952	-0.190127	-1.263338	0.208873	0.182425	0.656633	0.111448	-0.723279
48240	-9.834989	1.459963	1.807657	-0.359342	-0.881557	0.248118	0.183695	0.656132	0.111166	-0.723456
48241	-9.921118	1.254713	1.745926	-0.377367	-0.640100	0.311491	0.185298	0.655900	0.111399	-0.723222
48242	-9.891188	1.277348	1.770297	-0.392541	-0.656745	0.287597	0.187234	0.655597	0.111897	-0.722921
48243	-9.800060	1.152511	1.694323	-0.382720	-0.506504	0.179166	0.189568	0.655344	0.112637	-0.722427
48244	-9.950024	0.834516	1.716134	-0.528600	-0.192125	0.303051	0.192288	0.655049	0.113827	-0.721789
48245	-9.880108	0.392668	1.648811	-0.662473	0.239327	0.186969	0.195015	0.654576	0.115183	-0.721271
48246	-9.887435	0.180181	1.507345	-0.628707	0.500915	0.158257	0.196805	0.654332	0.116066	-0.720865
48247	-9.740346	0.429861	1.537140	-0.559161	0.253304	0.038459	0.197781	0.654067	0.116332	-0.720795
48248	-9.617025	0.665314	1.539460	-0.464976	0.032564	-0.061663	0.198386	0.653792	0.116442	-0.720861
48249	-9.708113	0.744380	1.479547	-0.367233	0.004250	0.028844	0.199068	0.653531	0.116860	-0.720842
48250	-9.865458	0.544910	1.435497	-0.399913	0.224793	0.160997	0.199812	0.653203	0.117496	-0.720830
48251	-9.752479	0.502066	1.477867	-0.458018	0.231189	0.050567	0.200132	0.652861	0.117775	-0.721005
48252	-9.705544	0.664242	1.579673	-0.473762	0.035825	0.031520	0.199915	0.652608	0.117888	-0.721276
48253	-9.692814	0.887007	1.711842	-0.486677	-0.225620	0.055446	0.199474	0.652333	0.118030	-0.721623
48254	-9.626242	1.028137	1.597333	-0.316331	-0.317227	-0.011036	0.199310	0.651962	0.118380	-0.721946
48255	-9.616853	0.911099	1.541534	-0.307014	-0.194729	-0.037305	0.199297	0.651567	0.118838	-0.722232
48256	-9.599943	0.831392	1.535792	-0.326425	-0.127299	-0.061482	0.199181	0.651147	0.119156	-0.722590
48257	-9.563972	0.847210	1.604653	-0.372150	-0.178660	-0.086855	0.198935	0.650770	0.119288	-0.722976
48258	-9.638297	0.931975	1.626164	-0.337387	-0.256183	-0.002983	0.198716	0.650373	0.119420	-0.723371
48259	-9.704496	0.928194	1.591985	-0.291806	-0.231108	0.058210	0.198705	0.649940	0.119661	-0.723724
48260	-9.850287	0.831916	1.586822	-0.307281	-0.124632	0.193724	0.198803	0.649540	0.119964	-0.724005
48261	-9.851349	0.702048	1.602154	-0.367488	-0.015818	0.185990	0.198908	0.649137	0.120260	-0.724289
48262	-9.805799	0.514064	1.601896	-0.442859	0.145667	0.125456	0.198949	0.648729	0.120492	-0.724604
48263	-9.707237	0.389701	1.645883	-0.534521	0.224486	0.023732	0.198736	0.648408	0.120495	-0.724949
48264	-9.661600	0.463997	1.658604	-0.506962	0.146180	-0.012974	0.198106	0.648139	0.120161	-0.725418
48265	-9.649038	0.615033	1.696909	-0.465550	-0.007881	-0.007337	0.197248	0.647883	0.119721	-0.725953
48266	-9.690054	0.799311	1.694171	-0.369237	-0.169203	0.048412	0.196366	0.647690	0.119398	-0.726418
48267	-9.662984	0.862516	1.720374	-0.358606	-0.245755	0.030477	0.195692	0.647500	0.119383	-0.726771
48268	-9.656002	0.782904	1.675709	-0.345539	-0.163880	0.011418	0.195252	0.647310	0.119689	-0.727009
48269	-9.671532	0.725498	1.681187	-0.365804	-0.121908	0.023094	0.194733	0.647111	0.120023	-0.727269
48270	-9.586416	0.765939	1.705327	-0.369807	-0.189164	-0.054531	0.193973	0.647038	0.120136	-0.727519
48271	-9.658176	0.925854	1.683114	-0.268944	-0.324650	0.025641	0.193115	0.647035	0.120179	-0.727743
48272	-9.698796	1.126451	1.647298	-0.141456	-0.494613	0.075915	0.192411	0.646961	0.120249	-0.727983
48273	-9.600709	0.971089	1.582102	-0.155027	-0.347976	-0.041579	0.192020	0.646998	0.120426	-0.728025
48274	-9.592984	0.792584	1.626722	-0.271547	-0.213954	-0.056652	0.191656	0.647051	0.120543	-0.728054
48275	-9.513681	0.713432	1.686684	-0.365431	-0.183629	-0.132979	0.191216	0.647095	0.120578	-0.728125
48276	-9.551205	0.698991	1.731137	-0.408007	-0.191213	-0.091169	0.190585	0.647257	0.120527	-0.728155
48277	-9.657413	0.671791	1.736717	-0.416333	-0.163696	0.012433	0.189954	0.647439	0.120488	-0.728164
48278	-9.646297	0.671643	1.747124	-0.428224	-0.177517	0.002592	0.189440	0.647621	0.120614	-0.728115
48279	-9.674085	0.751324	1.714554	-0.364513	-0.240997	0.031151	0.189076	0.647812	0.120804	-0.728008
48280	-9.702762	0.736927	1.789342	-0.439515	-0.263027	0.067902	0.188655	0.648115	0.120783	-0.727852
48281	-9.797743	0.669380	1.909372	-0.574973	-0.247128	0.172194	0.188241	0.648516	0.120728	-0.727611
48282	-9.801082	0.651673	2.003853	-0.676484	-0.275684	0.185696	0.187855	0.648970	0.120604	-0.727326
48283	-9.666035	0.612511	2.064957	-0.770281	-0.286317	0.056260	0.187654	0.649430	0.120591	-0.726969
48284	-9.535732	0.586348	2.151003	-0.882337	-0.318279	-0.064818	0.187594	0.649986	0.120654	-0.726477
48285	-9.542101	0.669209	2.245340	-0.945208	-0.436750	-0.042482	0.188060	0.650463	0.121149	-0.725847
48286	-9.627260	0.591981	2.186377	-0.933011	-0.339349	0.027492	0.189104	0.650977	0.122129	-0.724950
48287	-9.681921	0.329749	2.035039	-0.922627	-0.040453	0.043113	0.190553	0.651465	0.123331	-0.723928
48288	-9.554679	0.078300	2.037007	-1.063099	0.163561	-0.102361	0.191956	0.652033	0.124457	-0.722853
48289	-9.303443	-0.093976	2.088619	-1.224915	0.261564	-0.359839	0.192938	0.652704	0.125122	-0.721871
48290	-9.089420	0.007579	2.175045	-1.295567	0.103937	-0.557468	0.193329	0.653540	0.125384	-0.720964
48291	-9.127762	0.394548	2.253948	-1.215950	-0.277778	-0.485509	0.193571	0.654386	0.125592	-0.720094
48292	-9.224646	0.598710	2.160704	-1.057209	-0.415383	-0.387672	0.194275	0.655109	0.126155	-0.719148
48293	-9.485927	0.643778	2.076179	-0.965931	-0.395280	-0.137024	0.195489	0.655814	0.127059	-0.718017
48294	-9.634181	0.583008	1.945517	-0.888213	-0.271442	-0.010661	0.197297	0.656311	0.128261	-0.716853
48295	-9.686904	0.377989	1.784187	-0.853873	-0.012160	0.007344	0.199367	0.656741	0.129395	-0.715683
48296	-9.769077	0.200685	1.785656	-0.952888	0.158676	0.073186	0.201314	0.657182	0.130116	-0.714601
48297	-9.644040	-0.004285	1.790514	-1.080467	0.332767	-0.069214	0.202911	0.657692	0.130257	-0.713654
48298	-9.557233	-0.039724	1.846833	-1.175598	0.340108	-0.155809	0.203986	0.658385	0.129929	-0.712768
48299	-9.630227	0.258782	1.830849	-1.044872	0.104007	-0.062937	0.205002	0.658963	0.129557	-0.712009
48300	-9.732304	0.510910	1.893794	-1.002404	-0.123799	0.063802	0.206007	0.659556	0.129382	-0.711201
48301	-9.621299	0.416562	1.898425	-1.077114	-0.046528	-0.056431	0.207112	0.660164	0.129275	-0.710335
48302	-9.502377	0.400675	1.788257	-1.014994	0.009661	-0.188592	0.208482	0.660788	0.129643	-0.709287
48303	-9.302370	0.527146	1.664202	-0.877184	-0.065694	-0.388902	0.210009	0.661325	0.130170	-0.708238
48304	-9.329743	0.691921	1.419017	-0.604212	-0.090351	-0.370061	0.211615	0.661836	0.130798	-0.707166
48305	-9.460253	0.902981	1.187411	-0.314060	-0.147152	-0.241826	0.213233	0.662046	0.131563	-0.706341
48306	-9.406288	0.948425	0.920926	-0.068451	-0.063551	-0.314417	0.214474	0.661951	0.132125	-0.705949
48307	-9.508619	1.054322	0.780724	0.105815	-0.072718	-0.214851	0.214880	0.661887	0.132294	-0.705855
48308	-9.792011	1.279152	0.670506	0.320924	-0.181656	0.078384	0.214422	0.661747	0.132141	-0.706154
48309	-9.979374	1.627859	0.400155	0.739163	-0.341602	0.273684	0.213731	0.661438	0.132063	-0.706667
48310	-10.212207	2.143202	0.229683	1.151586	-0.690707	0.537772	0.213445	0.661163	0.132379	-0.706952
48311	-10.597193	2.590571	0.285179	1.337930	-1.063979	0.965567	0.214002	0.660759	0.133325	-0.706983
48312	-10.921384	2.637843	0.502991	1.191804	-1.165914	1.309726	0.215607	0.660261	0.135139	-0.706617
48313	-11.220494	2.276629	0.681148	0.882730	-0.893308	1.587719	0.218273	0.659732	0.137748	-0.705788
48314	-11.239011	1.745056	0.763687	0.557107	-0.463612	1.563538	0.221432	0.659235	0.140665	-0.704692
48315	-10.964261	1.249553	0.938737	0.149236	-0.153354	1.260336	0.224326	0.658880	0.143441	-0.703548
48316	-10.647129	1.061586	1.169935	-0.159593	-0.152060	0.948747	0.226526	0.658671	0.146023	-0.702507
48317	-10.292318	1.114388	1.330398	-0.282760	-0.337838	0.615616	0.228243	0.658389	0.148811	-0.701630
48318	-9.891440	1.259824	1.355470	-0.235359	-0.548071	0.232670	0.229829	0.657958	0.152056	-0.700820
48319	-9.545204	1.284481	1.256330	-0.135710	-0.589587	-0.118717	0.231470	0.657368	0.155842	-0.700001
48320	-9.313738	1.374227	1.146725	0.015532	-0.669159	-0.352188	0.233271	0.656549	0.160228	-0.699181
48321	-9.228755	1.400529	0.940795	0.223984	-0.625632	-0.454547	0.235406	0.655470	0.164973	-0.698375
48322	-9.240421	1.226650	0.738766	0.325127	-0.398586	-0.476139	0.237736	0.654190	0.169561	-0.697686
48323	-9.266374	0.956970	0.597414	0.320014	-0.115703	-0.484101	0.239873	0.652874	0.173492	-0.697221
48324	-9.272856	0.806213	0.534010	0.310648	0.029081	-0.494769	0.241330	0.651756	0.176370	-0.697042
48325	-9.408502	0.798489	0.544586	0.322173	0.032076	-0.360216	0.241715	0.650921	0.177943	-0.697289
48326	-9.596240	1.030404	0.634773	0.406343	-0.198599	-0.151016	0.241018	0.650270	0.178284	-0.698050
48327	-9.441764	1.268776	0.806770	0.414715	-0.515148	-0.274859	0.239645	0.649781	0.177986	-0.699053
48328	-9.334094	1.370757	0.956436	0.361097	-0.704630	-0.363236	0.237955	0.649654	0.177599	-0.699847
48329	-9.514734	1.485905	1.117745	0.312467	-0.885978	-0.163604	0.236507	0.649521	0.177662	-0.700445
48330	-9.691915	1.576668	1.254529	0.271081	-1.036320	0.028321	0.235977	0.649190	0.178648	-0.700680
48331	-9.812693	1.327469	1.222672	0.178164	-0.816589	0.129518	0.236600	0.648653	0.180421	-0.700513
48332	-9.874631	0.738605	1.235509	-0.147591	-0.345902	0.159218	0.238091	0.647982	0.182893	-0.699987
48333	-9.939285	-0.015653	1.237000	-0.567056	0.262937	0.183766	0.239897	0.647466	0.185614	-0.699131
48334	-10.063992	-0.470486	1.120308	-0.726877	0.696239	0.274298	0.241687	0.646977	0.187970	-0.698338
48335	-10.148018	-0.578846	0.920334	-0.625850	0.895282	0.334781	0.243550	0.646439	0.190000	-0.697639
48336	-10.153437	-0.703016	0.775385	-0.584511	1.075877	0.320849	0.245822	0.645746	0.191937	-0.696954
48337	-10.014476	-1.405532	0.498356	-0.786353	1.792795	0.121150	0.247862	0.645198	0.193356	-0.696345
48338	-9.808860	-1.804313	0.377920	-0.937159	2.170166	-0.116079	0.247769	0.645127	0.192840	-0.696587
48339	-9.665775	-1.039177	0.692093	-0.731542	1.363356	-0.190206	0.244452	0.645589	0.190056	-0.698095
48340	-9.808524	0.130810	0.996604	-0.265893	0.253468	0.040356	0.238653	0.646368	0.185658	-0.700560
48341	-9.943427	1.155777	1.190951	0.184631	-0.693810	0.242681	0.232039	0.647235	0.180857	-0.703232
48342	-9.842472	1.855753	1.386666	0.412578	-1.410101	0.191425	0.226230	0.647978	0.176917	-0.705439
48343	-9.844052	2.133484	1.439860	0.517036	-1.693547	0.207035	0.222028	0.648630	0.174468	-0.706784
48344	-9.660305	1.715733	1.448759	0.271285	-1.382315	0.004630	0.219416	0.649099	0.173233	-0.707472
48345	-9.521546	1.031926	1.476004	-0.126388	-0.846541	-0.160192	0.217495	0.649653	0.172590	-0.707714
48346	-9.277503	0.506990	1.586724	-0.514837	-0.494144	-0.413882	0.215261	0.650212	0.171652	-0.708112
48347	-9.202114	0.330282	1.651532	-0.665782	-0.394976	-0.489798	0.212332	0.650692	0.170082	-0.708934
48348	-9.379973	0.533717	1.480793	-0.396058	-0.478291	-0.321858	0.209079	0.650937	0.168458	-0.710063
48349	-9.481889	0.747170	1.147468	0.019076	-0.500485	-0.245542	0.205950	0.650958	0.167249	-0.711243
48350	-9.641577	0.879768	0.955769	0.279879	-0.525532	-0.102233	0.202940	0.650811	0.166075	-0.712517
48351	-9.622859	0.721357	1.032136	0.154874	-0.445426	-0.119255	0.199902	0.650546	0.164818	-0.713908
48352	-9.621332	0.783365	1.248633	0.020212	-0.623705	-0.099125	0.196803	0.650341	0.163754	-0.715200
48353	-9.613884	0.830415	1.200422	0.105092	-0.660407	-0.111650	0.194668	0.649996	0.163374	-0.716183
48354	-9.568962	0.584373	0.939072	0.230306	-0.334990	-0.188599	0.194035	0.649278	0.163710	-0.716929
48355	-9.542091	0.284387	0.558673	0.436199	0.104406	-0.260553	0.193973	0.648355	0.164173	-0.717675
48356	-9.768003	-0.216668	0.461737	0.322076	0.603846	-0.055351	0.192280	0.647686	0.162903	-0.719022
48357	-10.116020	-0.040573	0.735302	0.235627	0.343787	0.321527	0.187910	0.647165	0.159260	-0.721460
48358	-10.177548	0.978203	1.106780	0.437017	-0.726125	0.436507	0.181423	0.646808	0.154220	-0.724529
48359	-10.101742	1.915007	1.509177	0.528726	-1.755740	0.416088	0.175330	0.646484	0.149661	-0.727269
48360	-9.945510	2.063127	1.497846	0.605371	-1.902629	0.258395	0.172221	0.645919	0.147590	-0.728935
48361	-9.752542	1.441018	1.391637	0.427994	-1.311944	0.047376	0.172224	0.645060	0.147857	-0.729640
48362	-9.632661	0.616487	1.281030	0.172628	-0.526125	-0.091442	0.173547	0.644207	0.148888	-0.729870
48363	-9.511844	0.101648	1.136658	0.079458	0.000001	-0.232961	0.174242	0.643248	0.149107	-0.730506
48364	-9.375720	0.082457	1.083566	0.128546	0.043252	-0.375179	0.173555	0.642119	0.148157	-0.731855
48365	-9.053208	0.244799	0.912834	0.348904	-0.037351	-0.717055	0.172517	0.640756	0.147018	-0.733523
48366	-8.701047	0.245298	0.703008	0.530584	0.040929	-1.096077	0.172347	0.639203	0.146661	-0.734987
48367	-8.631763	0.242510	0.589422	0.656254	0.100931	-1.182937	0.173105	0.637560	0.146806	-0.736207
48368	-8.954821	0.112905	0.579163	0.682314	0.262912	-0.868293	0.174246	0.635846	0.146776	-0.737425
48369	-9.496817	0.003684	0.756634	0.579612	0.349191	-0.309846	0.174945	0.634330	0.145766	-0.738764
48370	-9.753670	0.226949	0.991555	0.535394	0.098954	-0.021256	0.174469	0.633072	0.143400	-0.740417
48371	-9.802463	0.516242	1.440989	0.298522	-0.314444	0.099077	0.173031	0.632061	0.140128	-0.742242
48372	-9.526557	0.766935	1.822136	0.054593	-0.689806	-0.107806	0.171083	0.631107	0.136864	-0.744112
48373	-9.569318	1.112875	2.103154	-0.018188	-1.092127	-0.012665	0.168947	0.630123	0.134407	-0.745880
48374	-9.963867	1.603296	2.408401	0.001655	-1.614880	0.436296	0.167954	0.628767	0.133307	-0.747444
48375	-10.484146	1.710024	2.480865	0.092088	-1.684595	0.964592	0.168489	0.627638	0.133285	-0.748276
48376	-11.313535	1.834098	2.663496	0.135232	-1.787526	1.816611	0.170580	0.626688	0.134509	-0.748379
48377	-11.780508	1.615961	2.545469	0.248402	-1.490866	2.253242	0.174429	0.625582	0.137709	-0.747836
48378	-11.425126	1.016439	2.375086	0.113140	-0.905448	1.865284	0.179518	0.624275	0.142094	-0.746902
48379	-10.704365	0.357404	2.231587	-0.141074	-0.318380	1.122112	0.185176	0.622645	0.147130	-0.745906
48380	-10.221111	-0.188806	2.132410	-0.361924	0.155428	0.622769	0.190515	0.621097	0.152660	-0.744740
48381	-9.852012	-0.492493	1.860394	-0.309169	0.490215	0.208778	0.195793	0.618955	0.158929	-0.743843
48382	-9.444379	-1.149064	1.263287	-0.154577	1.282295	-0.302469	0.200699	0.616169	0.165409	-0.743435
48383	-9.409515	-1.872777	1.025690	-0.294849	1.995010	-0.377053	0.204283	0.613407	0.170883	-0.743505
48384	-9.776731	-2.000388	1.010132	-0.254821	2.124478	-0.013305	0.206204	0.610732	0.174420	-0.744355
48385	-10.207828	-1.659336	1.001889	0.054462	1.866998	0.408267	0.206334	0.607960	0.175923	-0.746232
48386	-10.551599	-1.573316	1.193012	0.078506	1.732558	0.781000	0.204841	0.605058	0.175461	-0.749105
48387	-10.732244	-1.611430	1.527245	-0.091007	1.631485	1.024254	0.202538	0.602145	0.173638	-0.752496
48388	-10.434533	-1.741907	1.936853	-0.455713	1.540888	0.821321	0.199448	0.599416	0.170761	-0.756149
48389	-9.865711	-1.733625	2.451788	-0.900644	1.264938	0.382255	0.195363	0.597120	0.166784	-0.759911
48390	-9.127134	-1.412626	2.840432	-1.135808	0.775312	-0.248374	0.190349	0.594930	0.161715	-0.763986
48391	-8.443650	-1.031268	3.471811	-1.557782	0.130364	-0.759080	0.185224	0.592579	0.157013	-0.768042
48392	-8.433827	-0.699165	3.881871	-1.681038	-0.307907	-0.660314	0.180765	0.590108	0.153758	-0.771657
48393	-8.836043	-0.465330	4.051406	-1.550408	-0.526375	-0.219734	0.177361	0.587440	0.152045	-0.774816
48394	-9.376925	-0.507307	4.189557	-1.475842	-0.484871	0.352089	0.174284	0.584658	0.150980	-0.777821
48395	-9.830186	-0.815265	4.157197	-1.382848	-0.146148	0.800757	0.170763	0.581892	0.149915	-0.780876
48396	-9.697436	-0.667920	4.269949	-1.362067	-0.339357	0.710992	0.166138	0.579353	0.148620	-0.784002
48397	-9.119466	-0.314850	4.370366	-1.373088	-0.758569	0.182441	0.160729	0.576989	0.147299	-0.787117
48398	-8.190645	-0.124184	4.346557	-1.461033	-1.015479	-0.711678	0.155189	0.574560	0.146875	-0.790079
48399	-7.552135	-0.025704	4.332322	-1.527130	-1.179509	-1.322659	0.149843	0.572174	0.147757	-0.792674
48400	-7.576205	0.024401	4.427091	-1.517485	-1.306934	-1.269431	0.145269	0.569754	0.149648	-0.794910
48401	-8.095369	-0.029761	4.411970	-1.300875	-1.275868	-0.774956	0.141628	0.567410	0.152271	-0.796744
48402	-8.731171	-0.215177	4.350488	-1.054969	-1.108048	-0.176037	0.138261	0.565253	0.154603	-0.798418
48403	-9.058159	-0.311842	4.184981	-0.781180	-0.994655	0.089910	0.134844	0.563246	0.156366	-0.800076
48404	-9.078910	-0.302628	4.002223	-0.556112	-0.980535	0.049607	0.131560	0.561603	0.157822	-0.801490
48405	-9.062730	-0.221241	4.043267	-0.519338	-1.116669	0.036836	0.128825	0.560338	0.158993	-0.802587
48406	-8.900393	-0.299834	4.030795	-0.557394	-1.082917	-0.113686	0.127151	0.559301	0.160530	-0.803271
48407	-8.715577	-0.671005	3.917772	-0.637751	-0.739812	-0.283456	0.126248	0.558618	0.162545	-0.803484
48408	-8.732890	-1.214712	3.861998	-0.775234	-0.256910	-0.221712	0.125845	0.558326	0.164652	-0.803321
48409	-8.984430	-1.396719	3.903378	-0.788606	-0.138008	0.049671	0.125870	0.558334	0.166591	-0.802912
48410	-9.218666	-1.476234	3.774863	-0.629142	-0.038119	0.237951	0.126194	0.558362	0.168081	-0.802531
48411	-9.234438	-1.550799	3.483790	-0.408406	0.129061	0.168952	0.126265	0.558693	0.168934	-0.802110
48412	-9.186482	-1.493110	3.220386	-0.186944	0.168679	0.032529	0.125994	0.559243	0.169402	-0.801670
48413	-9.068596	-1.311807	3.116467	-0.081455	0.033768	-0.134628	0.125837	0.559939	0.169560	-0.801176
48414	-9.048852	-1.057879	3.216965	-0.092332	-0.245242	-0.154478	0.126324	0.560606	0.169946	-0.800551
48415	-8.759426	-1.098304	3.282958	-0.280844	-0.242150	-0.401307	0.127281	0.561265	0.170485	-0.799822
48416	-8.678412	-1.448453	3.260656	-0.445669	0.083680	-0.440437	0.128390	0.561949	0.170965	-0.799062
48417	-8.666305	-1.515345	3.434204	-0.645743	0.073077	-0.390772	0.129386	0.562676	0.171235	-0.798332
48418	-8.703739	-1.274417	3.587193	-0.692605	-0.207880	-0.340402	0.130488	0.563582	0.171509	-0.797454
48419	-8.673403	-1.163935	3.577857	-0.677311	-0.299088	-0.387432	0.131496	0.564593	0.171141	-0.796652
48420	-8.509238	-1.116947	3.606778	-0.765629	-0.344488	-0.541301	0.132092	0.565779	0.170300	-0.795892
48421	-8.666594	-0.867093	3.800003	-0.813116	-0.635833	-0.366198	0.132341	0.567236	0.169219	-0.795043
48422	-8.714780	-0.574376	3.884670	-0.788676	-0.923261	-0.331473	0.132754	0.568619	0.168286	-0.794184
48423	-8.887573	-0.484690	3.965415	-0.803277	-1.021378	-0.155576	0.133458	0.570042	0.167415	-0.793230
48424	-9.062072	-0.466885	4.058929	-0.860450	-1.057882	0.033854	0.134689	0.571497	0.166795	-0.792104
48425	-9.283726	-0.527595	4.020147	-0.824485	-0.966984	0.237810	0.136515	0.573004	0.166553	-0.790753
48426	-9.361887	-0.647790	3.775330	-0.682278	-0.740088	0.252314	0.138738	0.574483	0.166583	-0.789285
48427	-9.220558	-0.917298	3.623336	-0.746497	-0.424129	0.099497	0.141233	0.575752	0.167058	-0.787816
48428	-9.018219	-1.207904	3.595346	-0.942622	-0.145638	-0.075957	0.143692	0.576947	0.167467	-0.786409
48429	-8.990443	-1.365136	3.721790	-1.166480	-0.047573	-0.056649	0.145944	0.578258	0.167561	-0.785011
48430	-9.051266	-1.075528	3.754344	-1.100341	-0.309794	-0.021347	0.147725	0.579833	0.167378	-0.783553
48431	-9.264383	-0.743507	3.709340	-0.907567	-0.570689	0.136746	0.149190	0.581442	0.166984	-0.782166
48432	-9.030044	-0.764343	3.430995	-0.785644	-0.431232	-0.164149	0.150743	0.582905	0.166921	-0.780792
48433	-8.721841	-0.813995	3.341792	-0.857318	-0.355439	-0.483209	0.152352	0.584525	0.167169	-0.779213
48434	-8.686164	-0.787460	3.494695	-1.033663	-0.446362	-0.484530	0.154377	0.586269	0.167718	-0.777385
48435	-8.919508	-0.748177	3.601193	-1.096747	-0.516387	-0.241050	0.156709	0.588028	0.168146	-0.775495
48436	-9.041680	-0.804820	3.455350	-1.018432	-0.389885	-0.161280	0.159079	0.589954	0.168331	-0.773507
48437	-9.352355	-0.660664	3.291071	-0.794618	-0.421997	0.082985	0.161339	0.592049	0.168290	-0.771444
48438	-9.323941	-0.716828	3.109249	-0.733482	-0.280861	0.010749	0.163669	0.594220	0.168221	-0.769296
48439	-9.141983	-0.898927	3.082183	-0.903305	-0.105637	-0.166123	0.166170	0.596644	0.168301	-0.766862
48440	-8.919181	-0.954702	3.038887	-1.016678	-0.039756	-0.396618	0.168716	0.599316	0.168245	-0.764231
48441	-8.864673	-0.827052	2.970535	-0.989831	-0.114871	-0.480110	0.171353	0.602136	0.168002	-0.761476
48442	-8.927917	-0.805186	2.678966	-0.795328	0.017807	-0.490702	0.174209	0.604935	0.167532	-0.758708
48443	-9.076420	-0.770590	2.373353	-0.569690	0.157100	-0.418110	0.177253	0.607892	0.166927	-0.755767
48444	-9.389428	-0.867975	2.095281	-0.402780	0.415668	-0.170635	0.180504	0.610759	0.166393	-0.752798
48445	-9.409534	-0.985229	1.876469	-0.356039	0.647912	-0.195836	0.183651	0.613588	0.165727	-0.749877
48446	-9.874876	-0.776422	1.607910	-0.031399	0.651469	0.201065	0.186157	0.616354	0.164534	-0.747250
48447	-10.431796	-0.433870	1.484553	0.247246	0.481379	0.719215	0.188046	0.618951	0.162893	-0.744986
48448	-11.103838	-0.221630	1.208926	0.613428	0.514875	1.330190	0.189860	0.621283	0.160818	-0.743033
48449	-11.377563	-0.190991	0.957802	0.812728	0.678076	1.557529	0.192009	0.623028	0.158519	-0.741512
48450	-10.867473	-0.456164	1.083780	0.437324	0.865941	1.075055	0.193739	0.624588	0.155545	-0.740379
48451	-10.434097	-0.496556	1.376221	0.047857	0.784819	0.694081	0.194501	0.626208	0.151740	-0.739600
48452	-10.279226	-0.136327	1.542371	0.005078	0.432837	0.573466	0.194293	0.627794	0.147485	-0.739170
48453	-10.214212	0.337251	1.488307	0.222906	0.084117	0.512128	0.193864	0.629233	0.143441	-0.738856
48454	-10.015430	0.369241	1.298831	0.334386	0.161619	0.286517	0.193287	0.630983	0.139925	-0.738188
48455	-9.997541	0.383715	1.461644	0.148589	0.103305	0.296787	0.192293	0.632911	0.136773	-0.737388
48456	-9.756940	0.462494	1.819213	-0.203339	-0.129369	0.120242	0.190883	0.634444	0.133845	-0.736974
48457	-9.639163	0.794577	2.072169	-0.324965	-0.531510	0.059015	0.188921	0.635644	0.130899	-0.736974
48458	-9.689411	1.296733	2.243428	-0.272126	-1.037144	0.159746	0.187021	0.636355	0.128646	-0.737242
48459	-9.864456	1.617359	2.052847	0.045906	-1.222632	0.318481	0.185779	0.636743	0.127727	-0.737381
48460	-9.839160	1.774649	1.722417	0.404341	-1.232035	0.249308	0.185679	0.636620	0.127978	-0.737469
48461	-9.597979	1.639642	1.380466	0.628079	-0.997860	-0.049230	0.186666	0.636356	0.129337	-0.737210
48462	-9.650943	1.507799	1.349072	0.610877	-0.866083	-0.009072	0.188153	0.636092	0.131288	-0.736715
48463	-9.691085	1.201810	1.249447	0.576209	-0.551312	-0.000112	0.189816	0.635654	0.133432	-0.736281
48464	-9.709259	0.847166	1.110934	0.552384	-0.177197	-0.020597	0.191321	0.635051	0.135289	-0.736073
48465	-9.752181	0.615613	1.145704	0.434705	0.018313	0.016215	0.192354	0.634314	0.136324	-0.736248
48466	-9.806636	0.453053	1.267268	0.275606	0.119697	0.081302	0.192715	0.633588	0.136541	-0.736739
48467	-9.959311	0.532520	1.436941	0.200269	-0.004539	0.261839	0.192304	0.632766	0.136328	-0.737592
48468	-10.151581	0.502326	1.602479	0.096301	-0.030738	0.476361	0.191474	0.631437	0.136619	-0.738891
48469	-9.914500	0.049499	1.645968	-0.121885	0.318252	0.231834	0.190440	0.629040	0.137606	-0.741017
48470	-9.696065	-0.180977	1.728215	-0.255177	0.449456	0.024260	0.188595	0.626508	0.138306	-0.743499
48471	-9.980580	-0.205320	2.044806	-0.431271	0.352899	0.362008	0.186826	0.624231	0.138191	-0.745879
48472	-10.196641	0.005356	2.526260	-0.653515	-0.016699	0.671853	0.184638	0.621598	0.136857	-0.748862
48473	-10.427936	0.183441	2.563224	-0.477008	-0.148375	0.915551	0.181957	0.618137	0.134905	-0.752728
48474	-10.213749	-0.116532	2.563471	-0.522500	0.127825	0.704662	0.179459	0.613424	0.132885	-0.757527
48475	-10.071800	-0.218676	2.712050	-0.582205	0.178413	0.602279	0.176846	0.608332	0.130787	-0.762596
48476	-10.241096	-0.246506	2.977247	-0.639066	0.159685	0.834771	0.174482	0.602448	0.128109	-0.768245
48477	-10.461509	-0.064295	3.819716	-1.084268	-0.252418	1.268594	0.171498	0.595986	0.124244	-0.774566
48478	-10.739498	0.107027	4.330365	-1.198299	-0.486381	1.694829	0.168176	0.588402	0.119641	-0.781784
48479	-10.638320	0.290916	4.707630	-1.250349	-0.706300	1.735126	0.165296	0.579726	0.115221	-0.789506
48480	-10.287354	0.009680	4.849453	-1.329522	-0.442000	1.473483	0.162551	0.570465	0.111560	-0.797309
48481	-10.441478	-0.047852	5.036756	-1.198359	-0.336043	1.712889	0.159552	0.560279	0.107674	-0.805628
48482	-10.504059	0.049505	5.232478	-1.004743	-0.374806	1.873045	0.157362	0.548462	0.103812	-0.814647
48483	-10.009307	-0.573288	5.360787	-1.174214	0.219486	1.492793	0.155658	0.535195	0.099481	-0.824282
48484	-10.143202	-1.045680	5.641787	-1.165107	0.740342	1.758302	0.152619	0.521407	0.093406	-0.834337
48485	-10.211279	-0.528236	6.093848	-0.938836	0.304706	2.048691	0.147926	0.506394	0.085480	-0.845208
48486	-10.090392	0.081086	6.365791	-0.588900	-0.170079	2.101626	0.143124	0.490227	0.076945	-0.856314
48487	-9.709564	0.382345	6.537113	-0.375899	-0.355370	1.886362	0.138968	0.472989	0.067876	-0.867388
48488	-9.136043	0.439541	6.483913	-0.172293	-0.282792	1.393233	0.135444	0.455181	0.058820	-0.878069
48489	-8.907474	0.558046	6.589256	0.086315	-0.246268	1.277183	0.132057	0.436884	0.049328	-0.888403
48490	-8.984569	0.882341	7.184084	0.208507	-0.434812	1.713709	0.128922	0.418012	0.039525	-0.898378
48491	-8.841899	0.897673	7.463796	0.380062	-0.290783	1.782185	0.126427	0.398369	0.029998	-0.907975
48492	-8.245138	0.878067	7.478285	0.444065	-0.159152	1.342268	0.124299	0.378167	0.020134	-0.917134
48493	-7.820478	0.773671	7.328967	0.684777	0.106783	0.909764	0.122453	0.357901	0.009969	-0.925642
48494	-7.958881	0.841195	7.464851	1.154522	0.294249	1.065468	0.120576	0.337532	-0.000533	-0.933559
48495	-7.744645	1.150422	7.903282	1.239820	0.152717	1.240902	0.118568	0.316765	-0.011072	-0.940999
48496	-6.988412	1.317683	7.913044	1.135208	0.050954	0.764581	0.117007	0.295755	-0.021170	-0.947835
48497	-6.247359	1.151657	7.684257	1.061110	0.267747	0.096313	0.115576	0.275043	-0.031450	-0.953941
48498	-5.926751	1.398957	7.925278	1.115167	0.170832	0.117262	0.114117	0.254819	-0.041864	-0.959319
48499	-5.646156	1.999565	8.319531	1.190905	-0.254742	0.365332	0.112963	0.234570	-0.051222	-0.964154
48500	-5.069896	2.192935	8.125959	1.205721	-0.401400	-0.070264	0.112506	0.214529	-0.058845	-0.968430
48501	-4.267434	1.824495	7.806020	0.923950	-0.105863	-0.779561	0.112693	0.195065	-0.065164	-0.972113
48502	-3.992379	1.508830	7.922195	0.904200	0.278769	-0.864438	0.112940	0.176380	-0.071001	-0.975240
48503	-4.045546	1.661484	8.444702	1.123558	0.330058	-0.375646	0.113064	0.158145	-0.076462	-0.977937
48504	-3.718987	1.636198	8.499993	1.128298	0.409566	-0.468874	0.112796	0.140239	-0.081895	-0.980257
48505	-2.770228	1.450928	8.371975	0.554220	0.459787	-0.905265	0.112465	0.122934	-0.086894	-0.982186
48506	-2.293332	1.394226	8.375535	0.377911	0.514731	-1.041273	0.112164	0.106778	-0.092046	-0.983639
48507	-2.195202	2.052171	8.445437	0.673289	-0.009111	-0.874295	0.111784	0.090692	-0.097401	-0.984780
48508	-1.485907	2.504797	8.351017	0.370564	-0.522431	-0.991979	0.111581	0.075267	-0.100954	-0.985745
48509	-1.170785	2.258353	8.068601	0.308649	-0.338565	-1.365277	0.111943	0.061443	-0.103263	-0.986423
48510	-1.153893	2.400507	7.923115	0.562131	-0.440197	-1.484676	0.112536	0.048278	-0.106044	-0.986793
48511	-0.374948	2.232185	7.724827	-0.004529	-0.438164	-1.775217	0.113426	0.036168	-0.108269	-0.986967
48512	-0.237476	1.618955	7.757799	-0.096818	0.177800	-1.886949	0.114350	0.025493	-0.110795	-0.986914
48513	-0.453436	1.565521	7.894405	0.245757	0.379067	-1.764602	0.115253	0.015964	-0.114818	-0.986549
48514	0.028346	2.173798	7.843606	0.053737	-0.225816	-1.676830	0.116162	0.007332	-0.120237	-0.985898
48515	0.474133	2.617428	7.811824	-0.157934	-0.652948	-1.587895	0.117062	0.000060	-0.125387	-0.985177
48516	0.564566	2.959109	8.027388	-0.068808	-0.845436	-1.280807	0.117753	-0.006369	-0.129983	-0.984479
48517	0.913074	3.089701	8.380541	-0.285431	-0.882638	-0.882297	0.118513	-0.012068	-0.132334	-0.984021
48518	0.763237	2.609235	8.362638	-0.167516	-0.357922	-1.028177	0.119296	-0.016432	-0.133900	-0.983651
48519	0.729570	2.132116	8.261145	-0.184488	0.108961	-1.252408	0.120018	-0.019822	-0.136126	-0.983195
48520	1.004353	2.407831	8.301981	-0.339913	-0.146747	-1.118335	0.120903	-0.022108	-0.139435	-0.982574
48521	1.006108	2.976134	8.706568	-0.170554	-0.491241	-0.571313	0.121835	-0.023728	-0.143441	-0.981844
48522	1.056401	2.826624	8.885284	-0.233585	-0.241767	-0.435018	0.122701	-0.024918	-0.146666	-0.981230
48523	0.795940	1.773054	8.679500	-0.238724	0.798145	-0.957375	0.123544	-0.025060	-0.150511	-0.980538
48524	0.332683	1.570341	8.893128	0.147893	1.251835	-0.864268	0.124058	-0.024658	-0.157051	-0.979457
48525	0.636269	2.240698	9.185153	-0.000990	0.794189	-0.370243	0.124397	-0.024131	-0.165345	-0.978061
48526	0.804984	3.085587	9.210901	0.013512	0.161321	-0.066897	0.124943	-0.023087	-0.174786	-0.976374
48527	0.795713	3.734624	9.097865	0.141343	-0.281664	0.048825	0.125476	-0.021564	-0.184133	-0.974621
48528	0.959817	4.082749	8.817002	0.019791	-0.565865	-0.065554	0.126239	-0.019434	-0.192520	-0.972945
48529	0.787644	3.847515	8.808430	0.069298	-0.167348	-0.170208	0.127395	-0.016953	-0.200090	-0.971312
48530	0.323102	3.565937	8.887325	0.386358	0.377425	-0.246568	0.128020	-0.014828	-0.208676	-0.969456
48531	0.794962	4.227182	9.128606	0.029738	-0.052426	0.278205	0.128542	-0.012441	-0.217205	-0.967545
48532	0.890691	4.294809	9.001790	-0.109094	-0.026046	0.200100	0.129215	-0.009735	-0.225264	-0.965642
48533	0.605339	3.986015	8.941987	0.015644	0.445351	-0.014092	0.130141	-0.006493	-0.233951	-0.963477
48534	0.289199	3.861461	8.545269	0.224889	0.632819	-0.455282	0.131011	-0.002979	-0.244893	-0.960653
48535	0.249499	4.480626	8.441139	0.334600	0.295971	-0.263569	0.131879	0.000560	-0.257905	-0.957127
48536	0.574370	5.619438	8.702614	0.192421	-0.337934	0.554808	0.132752	0.004016	-0.271326	-0.953280
48537	0.394827	6.110444	8.887213	0.373515	-0.324293	0.968062	0.133967	0.007634	-0.283564	-0.949519
48538	0.176600	6.078994	8.964270	0.472538	0.050878	1.009151	0.135153	0.010875	-0.294446	-0.946001
48539	0.279474	6.037154	8.341101	0.343192	-0.072247	0.481609	0.136102	0.013650	-0.303984	-0.942806
48540	0.745185	6.601925	8.451688	-0.049859	-0.381138	0.930725	0.136903	0.016184	-0.312270	-0.939938
48541	0.761238	6.161290	8.433415	-0.240656	0.092296	0.656093	0.137976	0.019052	-0.318276	-0.937710
48542	0.303390	5.594316	8.100784	0.032139	0.569098	0.020145	0.139182	0.022230	-0.324402	-0.935360
48543	-0.249809	5.700594	7.842511	0.553600	0.621042	-0.149888	0.140177	0.025074	-0.332009	-0.932465
48544	-0.104721	6.162877	7.846890	0.459574	0.398867	0.146874	0.140777	0.027430	-0.339913	-0.929456
48545	0.275389	6.706612	8.144594	0.116631	0.245497	0.737785	0.141031	0.029713	-0.347384	-0.926581
48546	0.470459	6.521031	8.177209	-0.187153	0.485751	0.643857	0.141204	0.032215	-0.353239	-0.924254
48547	0.269738	6.105274	7.598566	-0.067135	0.574517	-0.078751	0.141116	0.034937	-0.358511	-0.922136
48548	0.058834	6.097837	7.185910	0.133456	0.475209	-0.401028	0.140979	0.037935	-0.364315	-0.919761
48549	-0.081714	6.486612	7.036755	0.311604	0.264271	-0.250780	0.140653	0.040856	-0.370728	-0.917120
48550	0.202763	6.977187	7.242750	0.040527	0.112086	0.245327	0.140234	0.043506	-0.377063	-0.914475
48551	0.232832	7.096299	7.249439	-0.034911	0.151549	0.333260	0.139560	0.046071	-0.382881	-0.912032
48552	0.090569	7.031212	7.016582	0.058200	0.187098	0.119019	0.138691	0.048956	-0.388160	-0.909780
48553	0.001241	6.919388	6.783338	0.089842	0.222176	-0.125945	0.137622	0.052000	-0.393003	-0.907692
48554	-0.308924	7.030347	6.779092	0.328446	0.330896	-0.052639	0.136247	0.055438	-0.398014	-0.905510
48555	-0.464147	7.181040	7.118833	0.346831	0.632488	0.283754	0.134323	0.058439	-0.404481	-0.902739
48556	-0.191253	7.905619	7.288462	0.100373	0.361279	0.935042	0.132076	0.060722	-0.411826	-0.899593
48557	-0.108430	8.529326	7.441814	0.019290	0.218404	1.505048	0.129809	0.062495	-0.418517	-0.896709
48558	-0.176758	8.371554	7.007459	0.080458	0.145360	1.104717	0.127553	0.063910	-0.423413	-0.894633
48559	-0.126812	8.265779	6.851735	-0.010275	0.169114	0.923051	0.125371	0.065140	-0.426827	-0.893229
48560	-0.277974	8.297394	7.167905	0.020104	0.494408	1.144392	0.123347	0.066008	-0.429552	-0.892140
48561	-0.291565	8.396158	6.935765	0.065799	0.307728	1.077039	0.121592	0.066412	-0.430978	-0.891663
48562	-0.252714	8.493526	6.684356	0.079253	0.063294	0.998148	0.120122	0.066442	-0.431145	-0.891779
48563	-0.239377	8.264930	6.516325	0.060665	0.044828	0.714562	0.118864	0.066237	-0.429218	-0.892892
48564	-0.390302	7.864269	6.559530	0.134792	0.309247	0.429993	0.117617	0.065967	-0.427113	-0.894086
48565	-0.321498	7.802199	6.660568	0.040048	0.355467	0.444636	0.116398	0.065506	-0.425124	-0.895226
48566	-0.424069	8.010629	6.850071	0.135480	0.349373	0.729269	0.115216	0.064955	-0.423068	-0.896393
48567	-0.383151	8.403198	7.329247	0.065596	0.393276	1.337152	0.114150	0.064011	-0.420007	-0.898035
48568	-0.114700	8.601102	7.522149	-0.177766	0.247880	1.610120	0.113223	0.062723	-0.415273	-0.900442
48569	0.188041	8.521541	6.807843	-0.289657	-0.453905	1.082539	0.112828	0.060984	-0.407676	-0.904075
48570	0.287194	7.963387	6.541728	-0.357575	-0.499773	0.478631	0.113142	0.058948	-0.398975	-0.908043
48571	-0.108265	7.161926	6.876324	-0.099816	0.179795	0.114220	0.114031	0.056704	-0.390546	-0.911732
48572	-0.622060	7.218467	7.139783	0.426123	0.289449	0.346142	0.115037	0.054459	-0.382934	-0.914966
48573	-0.516691	7.023823	7.272049	0.337528	0.325868	0.299735	0.115793	0.052083	-0.375290	-0.918170
48574	-0.368548	7.028172	7.434194	0.233451	0.241244	0.418801	0.116269	0.049854	-0.368244	-0.921082
48575	-0.335807	6.973190	7.784068	0.198052	0.358966	0.635261	0.116786	0.047346	-0.361486	-0.923822
48576	-0.235228	7.177338	7.830962	0.203575	0.083043	0.810084	0.117325	0.044552	-0.355455	-0.926230
48577	0.260870	7.460078	7.666908	-0.115173	-0.484357	0.876195	0.118034	0.041332	-0.348970	-0.928752
48578	0.255503	6.954573	7.508414	-0.089278	-0.370061	0.417646	0.119044	0.037869	-0.340920	-0.931755
48579	0.025118	6.242054	7.945136	0.024448	0.324959	0.285826	0.120185	0.034174	-0.333038	-0.934598
48580	-0.007185	5.998024	8.124082	0.078397	0.475574	0.274050	0.121307	0.030454	-0.325884	-0.937100
48581	-0.034119	6.088985	8.147881	0.215163	0.290521	0.352546	0.122360	0.026870	-0.319199	-0.939371
48582	0.019883	6.148735	8.270665	0.256494	0.169604	0.488491	0.123136	0.022902	-0.312357	-0.941672
48583	0.306572	5.937069	8.077429	0.054974	0.009469	0.216375	0.123784	0.019015	-0.305137	-0.944038
48584	0.465341	5.750431	7.901501	-0.023411	-0.124241	-0.030081	0.124679	0.015027	-0.297917	-0.946295
48585	0.362626	5.279532	8.123251	0.040877	0.267011	-0.121598	0.126076	0.011344	-0.291268	-0.948230
48586	0.317230	5.252944	8.155851	0.164852	0.206541	-0.110073	0.127632	0.007842	-0.285908	-0.949687
48587	0.533496	5.975314	8.487550	0.186801	-0.340177	0.573624	0.129413	0.004383	-0.281088	-0.950906
48588	0.712517	5.872067	8.931212	0.048403	-0.171534	0.898125	0.131017	0.000747	-0.274958	-0.952487
48589	0.691760	4.910305	8.879196	-0.071170	0.451619	0.346951	0.132485	-0.002492	-0.267493	-0.954405
48590	0.723108	4.280853	8.477234	-0.152658	0.617310	-0.309740	0.133567	-0.005225	-0.260795	-0.956095
48591	0.568080	4.439909	8.243251	0.119483	0.293698	-0.437991	0.134735	-0.007613	-0.255047	-0.957465
48592	0.707644	4.876071	8.161650	0.164699	-0.245772	-0.283746	0.136038	-0.009760	-0.249677	-0.958676
48593	0.641958	5.051557	8.409980	0.320756	-0.361436	0.006845	0.137555	-0.011610	-0.243671	-0.959983
48594	0.761794	4.533119	8.777604	0.106865	0.097616	0.094546	0.138906	-0.013405	-0.237115	-0.961406
48595	1.041393	4.172881	8.486113	-0.197881	0.075839	-0.301353	0.140139	-0.014576	-0.231252	-0.962637
48596	0.754078	4.297404	8.361932	0.154800	-0.116337	-0.382958	0.141444	-0.015301	-0.225859	-0.963715
48597	0.400806	3.625719	9.008238	0.318888	0.733454	-0.126923	0.142410	-0.016405	-0.220038	-0.964901
48598	0.370742	2.675778	9.541308	0.100720	1.697807	-0.043321	0.142856	-0.017707	-0.216142	-0.965692
48599	0.797414	3.477731	9.122305	-0.040950	0.672154	-0.040613	0.143154	-0.018534	-0.215716	-0.965728
48600	0.871605	4.864578	8.680604	0.311773	-0.740990	0.143738	0.143815	-0.019108	-0.215209	-0.965731
48601	0.898172	4.920679	9.144092	0.314501	-0.644942	0.585326	0.144577	-0.019987	-0.211126	-0.966501
48602	0.805070	4.222447	9.206616	0.236058	-0.091837	0.344745	0.145391	-0.020762	-0.204946	-0.967692
48603	0.699432	3.634936	8.865689	0.207405	0.191188	-0.209475	0.146306	-0.021313	-0.198968	-0.968789
48604	0.750130	3.052740	8.681956	0.017016	0.519676	-0.593825	0.146928	-0.021668	-0.194849	-0.969524
48605	0.824058	2.933320	8.920644	-0.079613	0.637017	-0.407953	0.147640	-0.021626	-0.192524	-0.969881
48606	0.603749	2.761668	9.144096	0.077980	0.914796	-0.285732	0.148205	-0.021367	-0.192722	-0.969761
48607	0.855161	3.472759	9.117749	0.040870	0.228072	-0.021318	0.148579	-0.021001	-0.194566	-0.969344
48608	0.766922	4.026082	9.078591	0.276016	-0.207931	0.142146	0.149021	-0.020387	-0.196894	-0.968819
48609	0.788269	4.364046	9.212724	0.342043	-0.422517	0.397356	0.149610	-0.020139	-0.198093	-0.968489
48610	0.951693	4.450680	9.341403	0.206445	-0.480649	0.565291	0.150414	-0.019965	-0.198170	-0.968352
48611	0.907188	4.120044	9.352514	0.149994	-0.179464	0.444630	0.151312	-0.019687	-0.197643	-0.968326
48612	0.811228	3.464500	9.355929	0.044420	0.410716	0.188492	0.151944	-0.019508	-0.197075	-0.968346
48613	0.671442	3.139969	9.299818	0.077691	0.708707	-0.000015	0.152389	-0.019131	-0.197336	-0.968230
48614	0.709667	3.406663	9.245176	0.114863	0.457441	0.054417	0.152595	-0.018773	-0.198599	-0.967947
48615	0.666249	3.600117	9.193480	0.202720	0.310777	0.076043	0.152727	-0.018165	-0.200482	-0.967549
48616	0.722453	3.812510	9.262822	0.194820	0.177093	0.226612	0.152797	-0.017653	-0.202727	-0.967080
48617	0.812354	4.161674	9.451416	0.191152	-0.033383	0.544478	0.152733	-0.017020	-0.204846	-0.966655
48618	1.051402	4.351648	9.282459	0.007676	-0.302606	0.488508	0.152800	-0.016310	-0.206098	-0.966390
48619	1.006735	4.071621	8.955987	-0.041661	-0.166303	0.075279	0.153057	-0.015296	-0.206448	-0.966291
48620	0.750335	3.723053	8.860947	0.081037	0.171831	-0.173995	0.153375	-0.014158	-0.206494	-0.966248
48621	0.600834	3.557602	8.792713	0.154462	0.333757	-0.315633	0.153555	-0.012979	-0.207104	-0.966106
48622	0.899616	3.629634	8.836997	-0.136497	0.217374	-0.220500	0.153652	-0.011576	-0.208437	-0.965821
48623	0.886508	3.464068	8.782427	-0.206776	0.369861	-0.339732	0.153735	-0.009678	-0.210542	-0.965372
48624	0.762604	3.594259	8.546268	-0.084549	0.235497	-0.513442	0.153777	-0.007225	-0.213260	-0.964790
48625	0.529679	3.949143	8.320609	0.199145	-0.057396	-0.589593	0.153701	-0.004129	-0.215439	-0.964337
48626	0.432945	4.514683	8.354445	0.394849	-0.480435	-0.326936	0.153578	-0.000738	-0.216272	-0.964178
48627	0.334703	4.490592	8.451823	0.410312	-0.403526	-0.253445	0.153572	0.002993	-0.215034	-0.964452
48628	0.372645	3.872249	8.330131	0.134001	0.025774	-0.620023	0.153451	0.007161	-0.213284	-0.964837
48629	0.543707	3.218329	8.049424	-0.275069	0.385408	-1.139648	0.153269	0.012313	-0.212581	-0.964969
48630	0.185360	3.026398	7.905508	-0.075641	0.586710	-1.366417	0.153099	0.018947	-0.213639	-0.964655
48631	-0.473104	3.550125	7.839050	0.585584	0.323773	-1.220328	0.152720	0.026396	-0.216282	-0.963951
48632	-0.339028	4.226167	7.936949	0.498934	-0.230458	-0.831220	0.152122	0.034188	-0.218711	-0.963253
48633	-0.386346	4.484555	8.036952	0.454112	-0.389109	-0.620652	0.151749	0.042678	-0.219247	-0.962851
48634	-0.824251	4.355482	8.154294	0.661494	-0.116819	-0.555870	0.151352	0.051636	-0.218569	-0.962629
48635	-0.956501	3.796949	8.138139	0.478432	0.362572	-0.801676	0.150753	0.060960	-0.217982	-0.962310
48636	-0.697210	3.389542	7.784898	0.021157	0.467299	-1.306318	0.150131	0.071255	-0.219125	-0.961440
48637	-0.886385	3.550241	7.765223	0.053619	0.386702	-1.237573	0.149454	0.083062	-0.221533	-0.960045
48638	-1.723881	4.395826	8.088180	0.758449	0.072775	-0.478420	0.147936	0.095418	-0.223185	-0.958749
48639	-2.078955	5.066622	7.925595	1.058260	-0.473173	-0.249261	0.146079	0.107900	-0.222435	-0.957884
48640	-1.842080	5.165077	7.859765	0.645248	-0.737856	-0.279531	0.143895	0.120616	-0.218630	-0.957573
48641	-1.722354	3.847526	8.009155	-0.033649	0.288290	-0.766920	0.142225	0.134564	-0.212391	-0.957369
48642	-3.098464	2.523108	8.027561	0.701302	1.763072	-1.049069	0.140546	0.149795	-0.207206	-0.956490
48643	-4.013770	3.113083	7.986944	1.399501	1.444262	-0.563857	0.137636	0.165309	-0.205865	-0.954646
48644	-3.403804	4.408404	7.828361	0.865812	-0.006538	-0.244709	0.133667	0.180011	-0.205272	-0.952677
48645	-2.505386	5.465439	8.713878	-0.411161	-1.026946	0.715630	0.130656	0.195858	-0.200138	-0.951059
48646	-3.526800	5.990481	9.174805	0.060901	-1.220002	1.632536	0.128716	0.212457	-0.189657	-0.949908
48647	-4.036476	5.158066	7.789712	0.699260	-1.040809	0.286396	0.128165	0.228877	-0.174654	-0.949044
48648	-4.584616	2.679309	6.704203	1.031183	0.789506	-1.360125	0.128409	0.245935	-0.159730	-0.947372
48649	-5.325097	1.460849	7.639964	0.698618	2.142201	-0.660051	0.128545	0.263190	-0.149486	-0.944384
48650	-6.123313	1.804174	8.447674	0.640718	2.076417	0.549617	0.126621	0.280844	-0.143171	-0.940530
48651	-6.386279	4.543500	8.565339	0.820410	-0.531173	1.755390	0.122554	0.298839	-0.137284	-0.936392
48652	-5.288574	5.993062	7.622699	0.357268	-2.636057	0.906451	0.120558	0.315773	-0.125581	-0.932729
48653	-5.682433	3.391028	7.144617	0.284388	-0.459008	-0.090205	0.121647	0.333250	-0.108068	-0.928692
48654	-6.952299	1.228874	7.605719	0.283476	1.683078	0.422409	0.122773	0.351317	-0.091085	-0.923692
48655	-9.137864	0.720697	8.295772	0.912827	2.512177	2.256587	0.122243	0.369431	-0.076531	-0.917998
48656	-8.535832	1.900107	7.805211	0.631181	0.858434	1.859462	0.120395	0.384824	-0.064780	-0.912808
48657	-7.056691	1.871911	6.611268	0.168436	0.171480	0.033098	0.120808	0.400013	-0.051534	-0.907050
48658	-7.667605	1.135481	6.313436	0.350708	0.786581	0.146488	0.121765	0.416184	-0.038855	-0.900253
48659	-8.475186	0.883046	6.600370	0.252244	0.980259	0.917354	0.121464	0.431865	-0.028045	-0.893282
48660	-8.729593	0.377728	6.820933	-0.225483	1.278019	1.195164	0.120313	0.448007	-0.018428	-0.885706
48661	-9.782083	0.590554	6.895315	-0.029698	1.081272	2.120317	0.116951	0.463532	-0.012055	-0.878245
48662	-9.791852	1.684446	6.777832	-0.106338	-0.186988	2.212059	0.113557	0.478372	-0.005327	-0.870768
48663	-9.551516	2.488550	6.056889	0.163153	-1.186622	1.705148	0.111766	0.492854	0.004437	-0.862892
48664	-8.230999	2.148089	4.752521	0.261684	-1.193167	-0.145826	0.112447	0.506380	0.016664	-0.854785
48665	-7.313990	0.277090	4.092754	-0.233153	0.358458	-1.438279	0.114382	0.520216	0.028217	-0.845870
48666	-9.209112	-0.143346	5.315074	-0.879201	0.709438	0.760380	0.114418	0.534537	0.034573	-0.836650
48667	-10.486482	1.286762	6.458967	-1.414646	-0.826761	2.461000	0.113195	0.547259	0.037585	-0.828421
48668	-10.885672	1.476266	5.899380	-1.068018	-0.977733	2.571664	0.112248	0.559184	0.041107	-0.820380
48669	-10.767348	1.673272	4.872726	-0.454130	-1.123805	2.061678	0.111470	0.570421	0.045382	-0.812487
48670	-9.628693	1.463910	4.064758	-0.398217	-1.044357	0.681198	0.113338	0.580280	0.052698	-0.804768
48671	-9.345673	0.638207	3.825286	-0.696442	-0.370291	0.274574	0.116939	0.590417	0.061733	-0.796192
48672	-10.235726	0.557249	4.672501	-1.504789	-0.540784	1.338481	0.120886	0.599821	0.070077	-0.787839
48673	-10.143305	0.020644	4.657327	-1.893211	-0.191131	1.185070	0.125534	0.607720	0.079100	-0.780167
48674	-10.456160	-0.995641	3.873051	-1.598905	0.865892	1.233174	0.129654	0.614632	0.087876	-0.773108
48675	-10.408807	-0.949192	3.510278	-1.449905	0.781037	1.089156	0.132227	0.620437	0.094709	-0.767205
48676	-10.049781	-0.443852	2.969454	-1.013306	0.320509	0.621907	0.133589	0.625545	0.100172	-0.762111
48677	-9.966140	0.154110	2.521443	-0.550051	-0.203937	0.451783	0.133949	0.630433	0.104135	-0.757475
48678	-10.260281	0.299788	2.600953	-0.644276	-0.427235	0.748043	0.133838	0.634732	0.107481	-0.753426
48679	-10.118456	0.487180	2.632568	-0.732643	-0.691579	0.605324	0.133638	0.638148	0.109780	-0.750237
48680	-10.046507	0.582337	2.654612	-0.809262	-0.838244	0.529476	0.133700	0.640761	0.111072	-0.747806
48681	-9.762585	0.821456	2.834763	-0.999952	-1.162902	0.270277	0.133608	0.643035	0.111175	-0.745851
48682	-9.953359	0.852648	2.979931	-1.146456	-1.237569	0.474698	0.133909	0.644372	0.111123	-0.744650
48683	-10.066423	0.527080	3.074949	-1.353380	-0.952144	0.595375	0.134782	0.644630	0.110980	-0.744291
48684	-9.752472	0.383098	2.769840	-1.156261	-0.719505	0.240910	0.135915	0.643857	0.110994	-0.744752
48685	-9.562259	0.673302	2.401241	-0.717215	-0.866695	0.005177	0.137441	0.642603	0.111741	-0.745443
48686	-9.521416	0.906332	2.075354	-0.305058	-0.969919	-0.078626	0.140090	0.640852	0.113975	-0.746119
48687	-9.565879	0.823312	1.670860	0.087245	-0.747619	-0.096259	0.143651	0.639019	0.117507	-0.746465
48688	-9.802916	0.594099	1.422738	0.304827	-0.432431	0.096615	0.147874	0.637200	0.121952	-0.746484
48689	-9.733351	-0.115077	1.113843	0.343636	0.330435	-0.026744	0.152171	0.635457	0.126569	-0.746337
48690	-9.512296	-0.477278	1.009848	0.286665	0.686080	-0.263946	0.155394	0.634017	0.129959	-0.746315
48691	-9.513893	-0.351922	1.092501	0.276562	0.539699	-0.249018	0.157446	0.632913	0.131800	-0.746499
48692	-9.699554	-0.268443	1.251081	0.208438	0.420203	-0.040350	0.158484	0.632113	0.132313	-0.746866
48693	-9.704493	-0.135340	1.370575	0.169237	0.262171	-0.015924	0.158794	0.631408	0.132005	-0.747451
48694	-9.510031	0.038511	1.537395	0.073672	0.036127	-0.179464	0.158667	0.630808	0.131222	-0.748122
48695	-9.358401	0.282021	1.778722	-0.056569	-0.278630	-0.286818	0.158534	0.630224	0.130315	-0.748801
48696	-9.349521	0.551697	1.965241	-0.109786	-0.585385	-0.261492	0.158846	0.629889	0.129758	-0.749113
48697	-9.508028	0.438244	2.023997	-0.178316	-0.480067	-0.095232	0.159958	0.629542	0.129982	-0.749129
48698	-9.709745	0.375547	1.918446	-0.072581	-0.356455	0.085206	0.161433	0.629160	0.130731	-0.749003
48699	-9.872128	0.383011	1.930368	-0.051668	-0.349043	0.247503	0.163065	0.628799	0.131797	-0.748767
48700	-9.824113	0.161590	1.898160	-0.118806	-0.132673	0.192841	0.164670	0.628555	0.132786	-0.748445
48701	-9.754032	0.108180	1.838517	-0.099834	-0.060183	0.113006	0.166179	0.628397	0.133607	-0.748098
48702	-9.687476	0.150684	1.880063	-0.133271	-0.115355	0.055112	0.167606	0.628283	0.134365	-0.747740
48703	-9.751619	0.199385	1.898726	-0.124126	-0.156466	0.122054	0.168980	0.628220	0.135061	-0.747358
48704	-9.570756	0.083207	1.801088	-0.117212	-0.020041	-0.074306	0.170580	0.628073	0.135925	-0.746961
48705	-9.530433	0.016523	1.741209	-0.102174	0.067444	-0.125261	0.171854	0.627999	0.136562	-0.746615
48706	-9.452996	0.097435	1.799852	-0.135407	-0.031057	-0.190380	0.172789	0.627901	0.136895	-0.746421
48707	-9.509130	0.210548	1.969990	-0.233151	-0.194726	-0.104111	0.173544	0.627874	0.137229	-0.746207
48708	-9.457103	0.221690	2.022029	-0.284964	-0.227855	-0.146177	0.174227	0.627826	0.137551	-0.746029
48709	-9.697853	0.390452	2.104814	-0.253112	-0.394076	0.107579	0.174685	0.627915	0.138030	-0.745759
48710	-10.028347	0.763089	2.114892	-0.054095	-0.711186	0.439830	0.175210	0.627863	0.138917	-0.745515
48711	-9.996646	0.719072	1.990794	0.035503	-0.627816	0.386226	0.176476	0.627541	0.140321	-0.745224
48712	-9.850232	0.353570	1.892117	-0.056783	-0.274054	0.219952	0.178394	0.627378	0.142152	-0.744557
48713	-9.882459	0.009979	1.786807	-0.114040	0.080325	0.229042	0.180678	0.627121	0.143961	-0.743875
48714	-9.797167	-0.214148	1.652890	-0.111919	0.336093	0.118923	0.183011	0.626667	0.145349	-0.743417
48715	-9.650602	-0.538729	1.655018	-0.282254	0.622276	-0.030227	0.185106	0.626076	0.146271	-0.743216
48716	-9.512040	-0.798978	1.583306	-0.356183	0.884935	-0.183869	0.186257	0.625641	0.146554	-0.743239
48717	-9.382105	-0.554334	1.675048	-0.339437	0.625696	-0.292696	0.186287	0.625314	0.145881	-0.743638
48718	-9.356173	0.108140	1.904019	-0.234822	-0.056556	-0.267186	0.185743	0.625027	0.144832	-0.744221
48719	-9.461929	0.558029	2.071946	-0.153682	-0.510872	-0.125178	0.185536	0.624623	0.144143	-0.744745
48720	-9.559002	0.451370	1.843636	0.021844	-0.296457	-0.071595	0.185722	0.624278	0.143918	-0.745032
48721	-9.725027	0.304189	1.938911	-0.097457	-0.183493	0.106228	0.186144	0.623991	0.143834	-0.745183
48722	-9.620062	0.180783	1.980523	-0.202028	-0.093656	0.008267	0.186328	0.623817	0.143454	-0.745356
48723	-9.467185	0.275201	2.049641	-0.241938	-0.214967	-0.127668	0.186119	0.623825	0.142781	-0.745531
48724	-9.500092	0.466592	2.035437	-0.139347	-0.368910	-0.093791	0.185858	0.623928	0.142110	-0.745637
48725	-9.534562	0.576331	2.052491	-0.102423	-0.464711	-0.054291	0.185965	0.624001	0.141780	-0.745613
48726	-9.553190	0.508706	1.985097	-0.073283	-0.366636	-0.049336	0.186300	0.624005	0.141589	-0.745562
48727	-9.455109	0.390389	2.067084	-0.216044	-0.299072	-0.133421	0.186686	0.624017	0.141276	-0.745515
48728	-9.388552	0.324678	2.157738	-0.337054	-0.276642	-0.183772	0.186950	0.623936	0.140727	-0.745620
48729	-9.481621	0.489243	2.185708	-0.271294	-0.412302	-0.082620	0.187062	0.623646	0.139869	-0.745996
48730	-9.518929	0.714834	2.250029	-0.214021	-0.619543	-0.027293	0.187184	0.623165	0.138792	-0.746569
48731	-9.504497	0.729965	2.189255	-0.146275	-0.585802	-0.050693	0.187548	0.622583	0.137729	-0.747159
48732	-9.632205	0.756722	2.223407	-0.132112	-0.583686	0.083641	0.188311	0.621740	0.136660	-0.747866
48733	-9.609163	0.694251	2.274877	-0.191746	-0.517719	0.071042	0.189816	0.620573	0.135643	-0.748639
48734	-9.528035	0.414239	2.256227	-0.293576	-0.226022	-0.019418	0.191828	0.619230	0.134628	-0.749421
48735	-9.588108	0.185455	2.300021	-0.407062	0.015636	0.040743	0.193795	0.618019	0.133101	-0.750187
48736	-9.498406	0.054577	2.311836	-0.470212	0.173862	-0.049718	0.195249	0.616502	0.130640	-0.751489
48737	-9.439453	-0.097376	2.195335	-0.419244	0.416612	-0.138883	0.195879	0.615014	0.127378	-0.753103
48738	-9.581940	0.072801	2.344863	-0.419300	0.287559	0.039128	0.195482	0.613464	0.123349	-0.755138
48739	-9.647529	0.237656	2.313329	-0.269936	0.227573	0.104857	0.194435	0.611830	0.119325	-0.757378
48740	-9.868023	0.593895	2.391124	-0.104527	-0.032035	0.357647	0.193004	0.610232	0.115198	-0.759669
48741	-9.784386	0.644114	2.563688	-0.207042	-0.100706	0.319839	0.191588	0.608299	0.111117	-0.762180
48742	-9.841543	0.656790	2.682157	-0.248829	-0.090748	0.405467	0.189933	0.606417	0.106981	-0.764682
48743	-10.051747	0.894261	2.963734	-0.310803	-0.323101	0.695382	0.188196	0.604362	0.102963	-0.767286
48744	-9.758139	0.848549	2.903114	-0.274263	-0.253230	0.396597	0.186479	0.601704	0.099737	-0.770214
48745	-9.561985	0.811741	2.610950	-0.007522	-0.103749	0.131979	0.184729	0.599545	0.097162	-0.772645
48746	-9.763104	0.960977	2.626644	0.137510	-0.182792	0.340552	0.183213	0.597274	0.095045	-0.775025
48747	-9.589541	0.584512	2.896288	-0.227458	0.058355	0.218958	0.181829	0.594807	0.093694	-0.777409
48748	-9.496132	0.104007	2.900948	-0.377039	0.498614	0.097496	0.180311	0.592574	0.092484	-0.779609
48749	-9.358535	0.039532	2.778796	-0.265142	0.596732	-0.072117	0.178561	0.590412	0.090442	-0.781889
48750	-9.224082	0.274135	2.956331	-0.310430	0.329244	-0.133143	0.176154	0.588389	0.086697	-0.784380
48751	-9.538905	0.589727	3.513249	-0.559926	-0.046197	0.354183	0.172807	0.586332	0.081784	-0.787187
48752	-9.706262	0.530468	3.244663	-0.239091	0.174965	0.430970	0.169646	0.584009	0.077861	-0.789995
48753	-9.718649	0.609389	3.007973	0.066837	0.215078	0.376537	0.166361	0.581883	0.074091	-0.792620
48754	-9.553109	1.130469	3.185310	0.098981	-0.319373	0.315190	0.162651	0.579782	0.069454	-0.795345
48755	-9.335362	1.641240	3.576894	-0.095876	-0.913243	0.276582	0.159139	0.577801	0.065164	-0.797856
48756	-9.200212	1.076115	3.697576	-0.380227	-0.402728	0.145572	0.155871	0.575701	0.061533	-0.800304
48757	-9.360430	0.259926	3.675085	-0.518005	0.429812	0.224150	0.151972	0.573823	0.058429	-0.802632
48758	-9.501744	-0.075827	3.635838	-0.488538	0.785100	0.319089	0.147779	0.572363	0.057076	-0.804553
48759	-9.702750	0.226660	3.355041	-0.028077	0.583663	0.439594	0.143122	0.570783	0.055726	-0.806609
48760	-9.120162	0.977841	3.009860	0.374658	-0.164151	-0.167726	0.137504	0.569251	0.052780	-0.808863
48761	-9.115296	0.943187	3.431539	0.018712	-0.248701	-0.030491	0.131036	0.568289	0.049744	-0.810804
48762	-9.685297	0.431045	3.969999	-0.389224	0.173420	0.654867	0.124956	0.567467	0.049304	-0.812365
48763	-9.789153	0.061846	3.292018	0.211604	0.623993	0.494295	0.119889	0.566417	0.050672	-0.813776
48764	-9.525175	0.654682	3.183224	0.414079	-0.031201	0.243040	0.114583	0.565357	0.050536	-0.815284
48765	-8.708163	1.143779	2.995386	0.466241	-0.623023	-0.565694	0.109051	0.564073	0.049539	-0.816992
48766	-8.260281	0.824444	2.996195	0.266105	-0.407485	-1.000643	0.103696	0.563511	0.048354	-0.818147
48767	-9.185771	0.515353	3.667880	-0.090177	-0.167269	0.089892	0.099277	0.563940	0.047881	-0.818427
48768	-9.740595	0.297783	4.110743	-0.349581	-0.018934	0.758186	0.096891	0.564039	0.048765	-0.818593
48769	-9.557674	0.582348	3.401515	0.291392	-0.228250	0.342183	0.096115	0.564788	0.050717	-0.818049
48770	-9.230360	0.965497	3.308845	0.322319	-0.648399	0.013593	0.095081	0.566133	0.050854	-0.817231
48771	-9.179609	0.953119	3.078477	0.490275	-0.601449	-0.114825	0.093883	0.566760	0.049091	-0.817043
48772	-9.152255	1.007383	3.952744	-0.314695	-0.787613	0.171461	0.092135	0.566148	0.045354	-0.817882
48773	-9.228012	0.392128	4.493040	-0.899087	-0.232866	0.416423	0.090990	0.565810	0.043023	-0.818369
48774	-9.525828	0.538891	3.746429	-0.079343	-0.217341	0.434945	0.090922	0.565938	0.044332	-0.818219
48775	-9.744779	1.075118	3.399237	0.420486	-0.682235	0.532801	0.090686	0.565850	0.045179	-0.818259
48776	-9.593315	1.460212	3.518083	0.343080	-1.093957	0.445301	0.089922	0.565172	0.043597	-0.818898
48777	-9.480838	0.943989	3.885818	-0.105474	-0.627968	0.457229	0.088609	0.563302	0.040261	-0.820499
48778	-8.832079	0.918091	3.805244	-0.218740	-0.626126	-0.174828	0.087956	0.561259	0.039491	-0.822005
48779	-8.847581	1.191832	4.077965	-0.362904	-0.935384	-0.049334	0.087874	0.559053	0.040195	-0.823482
48780	-8.418445	0.911067	3.806621	-0.263491	-0.661405	-0.556153	0.087652	0.556331	0.040244	-0.825344
48781	-8.016802	0.828086	3.763654	-0.336233	-0.616036	-0.945487	0.088121	0.554563	0.041347	-0.826429
48782	-8.259939	0.556008	3.666375	-0.174294	-0.318862	-0.765814	0.089804	0.553212	0.043337	-0.827051
48783	-8.083210	0.579805	3.533794	-0.100277	-0.347012	-0.979134	0.091790	0.553252	0.045089	-0.826713
48784	-8.543797	0.471467	3.211666	0.323250	-0.143018	-0.679863	0.093537	0.554798	0.046198	-0.825419
48785	-8.977887	0.566817	3.184681	0.483985	-0.179481	-0.283823	0.094504	0.556801	0.045535	-0.823995
48786	-9.605021	0.831293	3.651217	0.302610	-0.418930	0.483501	0.095294	0.557553	0.042704	-0.823547
48787	-8.661417	0.851422	3.708378	-0.100447	-0.500450	-0.366185	0.096079	0.557607	0.040187	-0.823546
48788	-8.623501	0.975699	4.026085	-0.401375	-0.650882	-0.276376	0.097124	0.559189	0.039936	-0.822363
48789	-9.037249	1.060988	4.030070	-0.275091	-0.681262	0.111987	0.099680	0.560474	0.041256	-0.821115
48790	-9.280053	1.370202	3.947059	-0.078184	-0.923873	0.322218	0.103521	0.561443	0.041768	-0.819951
